trialN,stimuli,trialStartTime,trialStartTime_UNIX,stimulus1,stimulus2,stimulus1Bid,stimulus2Bid,delta,selected,rt,rt_UNIX,rt_perfnow,receivedResponse,rsp,trialEndTime,trialDuration,trialEndTime_UNIX,trialDuration_UNIX,exp,subjectId,date
0,"[{'imgObject': {}, 'id': 'raisin bran w milk', 'src': '/static/foodstim60/raisin bran w milk.jpg', 'key': 'u', 'origWidth': 411, 'origHeight': 411, 'width': 411, 'height': 411, 'widthPercent': 0.45, 'rescaleHeight': False, 'trialN': 0, 'loaded': True, 'loadedTime': 6711, 'positionName': 'LEFT', 'positionCoords': [244.68, 178.5], 'bid': 5.68}, {'imgObject': {}, 'id': 'mango', 'src': '/static/foodstim60/mango.jpg', 'key': 'i', 'origWidth': 411, 'origHeight': 411, 'width': 411, 'height': 411, 'widthPercent': 0.45, 'rescaleHeight': False, 'trialN': 0, 'loaded': True, 'loadedTime': 6822, 'positionName': 'RIGHT', 'positionCoords': [710.32, 178.5], 'bid': 6.03}]",8888,1669833215710,raisin bran w milk,mango,5.68,6.03,0.35000000000000053,raisin bran w milk,1296,1298,1298.0,True,u,10849,1961,1669833217671,1961,HRV,HRV_0047,2022-11-30 18:38:34
1,"[{'imgObject': {}, 'id': 'bagel plain', 'src': '/static/foodstim60/bagel plain.jpg', 'key': 'u', 'origWidth': 410, 'origHeight': 410, 'width': 410, 'height': 410, 'widthPercent': 0.45, 'rescaleHeight': False, 'trialN': 1, 'loaded': True, 'loadedTime': 6897, 'positionName': 'LEFT', 'positionCoords': [245.68, 179], 'bid': 9.56}, {'imgObject': {}, 'id': 'salad w chicken', 'src': '/static/foodstim60/salad w chicken.jpg', 'key': 'i', 'origWidth': 411, 'origHeight': 411, 'width': 411, 'height': 411, 'widthPercent': 0.45, 'rescaleHeight': False, 'trialN': 1, 'loaded': True, 'loadedTime': 6966, 'positionName': 'RIGHT', 'positionCoords': [710.32, 178.5], 'bid': 8.67}]",10850,1669833217672,bagel plain,salad w chicken,9.56,8.67,-0.8900000000000006,salad w chicken,679,680,680.0,True,i,12033,1183,1669833218855,1183,HRV,HRV_0047,2022-11-30 18:38:34
2,"[{'imgObject': {}, 'id': 'burger', 'src': '/static/foodstim60/burger.jpg', 'key': 'u', 'origWidth': 409, 'origHeight': 409, 'width': 409, 'height': 409, 'widthPercent': 0.45, 'rescaleHeight': False, 'trialN': 2, 'loaded': True, 'loadedTime': 7137, 'positionName': 'LEFT', 'positionCoords': [246.68, 179.5], 'bid': 5.51}, {'imgObject': {}, 'id': 'veggieswithdip', 'src': '/static/foodstim60/veggieswithdip.jpg', 'key': 'i', 'origWidth': 409, 'origHeight': 409, 'width': 409, 'height': 409, 'widthPercent': 0.45, 'rescaleHeight': False, 'trialN': 2, 'loaded': True, 'loadedTime': 7177, 'positionName': 'RIGHT', 'positionCoords': [710.32, 179.5], 'bid': 5.45}]",12035,1669833218857,burger,veggieswithdip,5.51,5.45,-0.05999999999999961,burger,623,623,623.0,True,u,13180,1145,1669833220002,1145,HRV,HRV_0047,2022-11-30 18:38:34
3,"[{'imgObject': {}, 'id': 'rigatoni and sauce', 'src': '/static/foodstim60/rigatoni and sauce.jpg', 'key': 'u', 'origWidth': 410, 'origHeight': 411, 'width': 410, 'height': 411, 'widthPercent': 0.45, 'rescaleHeight': False, 'trialN': 3, 'loaded': True, 'loadedTime': 7210, 'positionName': 'LEFT', 'positionCoords': [245.68, 178.5], 'bid': 3.53}, {'imgObject': {}, 'id': 'mac & cheese', 'src': '/static/foodstim60/mac & cheese.jpg', 'key': 'i', 'origWidth': 410, 'origHeight': 410, 'width': 410, 'height': 410, 'widthPercent': 0.45, 'rescaleHeight': False, 'trialN': 3, 'loaded': True, 'loadedTime': 7404, 'positionName': 'RIGHT', 'positionCoords': [710.32, 179], 'bid': 3.72}]",13180,1669833220002,rigatoni and sauce,mac & cheese,3.53,3.72,0.1900000000000004,rigatoni and sauce,745,745,745.0,True,u,14460,1280,1669833221282,1280,HRV,HRV_0047,2022-11-30 18:38:34
4,"[{'imgObject': {}, 'id': 'blackbeanswithrice', 'src': '/static/foodstim60/blackbeanswithrice.jpg', 'key': 'u', 'origWidth': 410, 'origHeight': 410, 'width': 410, 'height': 410, 'widthPercent': 0.45, 'rescaleHeight': False, 'trialN': 4, 'loaded': True, 'loadedTime': 7469, 'positionName': 'LEFT', 'positionCoords': [245.68, 179], 'bid': 8.13}, {'imgObject': {}, 'id': 'ice cream sundae 002', 'src': '/static/foodstim60/ice cream sundae 002.jpg', 'key': 'i', 'origWidth': 409, 'origHeight': 409, 'width': 409, 'height': 409, 'widthPercent': 0.45, 'rescaleHeight': False, 'trialN': 4, 'loaded': True, 'loadedTime': 7480, 'positionName': 'RIGHT', 'positionCoords': [710.32, 179.5], 'bid': 6.3}]",14461,1669833221283,blackbeanswithrice,ice cream sundae 002,8.13,6.3,-1.830000000000001,ice cream sundae 002,602,618,618.0,True,i,15580,1119,1669833222402,1119,HRV,HRV_0047,2022-11-30 18:38:34
5,"[{'imgObject': {}, 'id': 'rigatoni', 'src': '/static/foodstim60/rigatoni.jpg', 'key': 'u', 'origWidth': 411, 'origHeight': 411, 'width': 411, 'height': 411, 'widthPercent': 0.45, 'rescaleHeight': False, 'trialN': 5, 'loaded': True, 'loadedTime': 7537, 'positionName': 'LEFT', 'positionCoords': [244.68, 178.5], 'bid': 7.4}, {'imgObject': {}, 'id': 'steak', 'src': '/static/foodstim60/steak.jpg', 'key': 'i', 'origWidth': 410, 'origHeight': 410, 'width': 410, 'height': 410, 'widthPercent': 0.45, 'rescaleHeight': False, 'trialN': 5, 'loaded': True, 'loadedTime': 7566, 'positionName': 'RIGHT', 'positionCoords': [710.32, 179], 'bid': 7.97}]",15580,1669833222402,rigatoni,steak,7.4,7.97,0.5699999999999994,steak,3422,3422,3422.0,True,i,19508,3928,1669833226330,3928,HRV,HRV_0047,2022-11-30 18:38:34
6,"[{'imgObject': {}, 'id': 'steak', 'src': '/static/foodstim60/steak.jpg', 'key': 'u', 'origWidth': 410, 'origHeight': 410, 'width': 410, 'height': 410, 'widthPercent': 0.45, 'rescaleHeight': False, 'trialN': 6, 'loaded': True, 'loadedTime': 7556, 'positionName': 'LEFT', 'positionCoords': [245.68, 179], 'bid': 7.97}, {'imgObject': {}, 'id': 'orange slices', 'src': '/static/foodstim60/orange slices.jpg', 'key': 'i', 'origWidth': 409, 'origHeight': 410, 'width': 409, 'height': 410, 'widthPercent': 0.45, 'rescaleHeight': False, 'trialN': 6, 'loaded': True, 'loadedTime': 7585, 'positionName': 'RIGHT', 'positionCoords': [710.32, 179], 'bid': 6.11}]",19508,1669833226330,steak,orange slices,7.97,6.11,-1.8599999999999994,steak,1043,1043,1043.0,True,u,21059,1551,1669833227881,1551,HRV,HRV_0047,2022-11-30 18:38:34
7,"[{'imgObject': {}, 'id': 'eggs', 'src': '/static/foodstim60/eggs.jpg', 'key': 'u', 'origWidth': 409, 'origHeight': 409, 'width': 409, 'height': 409, 'widthPercent': 0.45, 'rescaleHeight': False, 'trialN': 7, 'loaded': True, 'loadedTime': 7593, 'positionName': 'LEFT', 'positionCoords': [246.68, 179.5], 'bid': 4.44}, {'imgObject': {}, 'id': 'chickenfingers', 'src': '/static/foodstim60/chickenfingers.jpg', 'key': 'i', 'origWidth': 410, 'origHeight': 410, 'width': 410, 'height': 410, 'widthPercent': 0.45, 'rescaleHeight': False, 'trialN': 7, 'loaded': True, 'loadedTime': 7642, 'positionName': 'RIGHT', 'positionCoords': [710.32, 179], 'bid': 4.39}]",21059,1669833227881,eggs,chickenfingers,4.44,4.39,-0.05000000000000071,chickenfingers,1083,1083,1083.0,True,i,22661,1602,1669833229483,1602,HRV,HRV_0047,2022-11-30 18:38:34
8,"[{'imgObject': {}, 'id': 'rigatoni', 'src': '/static/foodstim60/rigatoni.jpg', 'key': 'u', 'origWidth': 411, 'origHeight': 411, 'width': 411, 'height': 411, 'widthPercent': 0.45, 'rescaleHeight': False, 'trialN': 8, 'loaded': True, 'loadedTime': 7548, 'positionName': 'LEFT', 'positionCoords': [244.68, 178.5], 'bid': 7.4}, {'imgObject': {}, 'id': 'cherries', 'src': '/static/foodstim60/cherries.jpg', 'key': 'i', 'origWidth': 410, 'origHeight': 411, 'width': 410, 'height': 411, 'widthPercent': 0.45, 'rescaleHeight': False, 'trialN': 8, 'loaded': True, 'loadedTime': 7679, 'positionName': 'RIGHT', 'positionCoords': [710.32, 178.5], 'bid': 7.22}]",22662,1669833229484,rigatoni,cherries,7.4,7.22,-0.1800000000000006,rigatoni,1142,1142,1142.0,True,u,24317,1655,1669833231139,1655,HRV,HRV_0047,2022-11-30 18:38:34
9,"[{'imgObject': {}, 'id': 'rigatoni and sauce', 'src': '/static/foodstim60/rigatoni and sauce.jpg', 'key': 'u', 'origWidth': 410, 'origHeight': 411, 'width': 410, 'height': 411, 'widthPercent': 0.45, 'rescaleHeight': False, 'trialN': 9, 'loaded': True, 'loadedTime': 7221, 'positionName': 'LEFT', 'positionCoords': [245.68, 178.5], 'bid': 3.53}, {'imgObject': {}, 'id': 'burger', 'src': '/static/foodstim60/burger.jpg', 'key': 'i', 'origWidth': 409, 'origHeight': 409, 'width': 409, 'height': 409, 'widthPercent': 0.45, 'rescaleHeight': False, 'trialN': 9, 'loaded': True, 'loadedTime': 7152, 'positionName': 'RIGHT', 'positionCoords': [710.32, 179.5], 'bid': 5.51}]",24317,1669833231139,rigatoni and sauce,burger,3.53,5.51,1.98,burger,1483,1483,1483.0,True,i,26315,1998,1669833233137,1998,HRV,HRV_0047,2022-11-30 18:38:34
10,"[{'imgObject': {}, 'id': 'seaweed', 'src': '/static/foodstim60/seaweed.jpg', 'key': 'u', 'origWidth': 410, 'origHeight': 410, 'width': 410, 'height': 410, 'widthPercent': 0.45, 'rescaleHeight': False, 'trialN': 10, 'loaded': True, 'loadedTime': 7680, 'positionName': 'LEFT', 'positionCoords': [245.68, 179], 'bid': 6.8100000000000005}, {'imgObject': {}, 'id': 'yogurt no spoon', 'src': '/static/foodstim60/yogurt no spoon.jpg', 'key': 'i', 'origWidth': 411, 'origHeight': 410, 'width': 411, 'height': 410, 'widthPercent': 0.45, 'rescaleHeight': False, 'trialN': 10, 'loaded': True, 'loadedTime': 7713, 'positionName': 'RIGHT', 'positionCoords': [710.32, 179], 'bid': 6.59}]",26316,1669833233138,seaweed,yogurt no spoon,6.8100000000000005,6.59,-0.22000000000000064,seaweed,1673,1673,1673.0,True,u,28504,2188,1669833235326,2188,HRV,HRV_0047,2022-11-30 18:38:34
11,"[{'imgObject': {}, 'id': 'salmon', 'src': '/static/foodstim60/salmon.jpg', 'key': 'u', 'origWidth': 410, 'origHeight': 409, 'width': 410, 'height': 409, 'widthPercent': 0.45, 'rescaleHeight': False, 'trialN': 11, 'loaded': True, 'loadedTime': 7777, 'positionName': 'LEFT', 'positionCoords': [245.68, 179.5], 'bid': 7.97}, {'imgObject': {}, 'id': 'kiwi', 'src': '/static/foodstim60/kiwi.jpg', 'key': 'i', 'origWidth': 410, 'origHeight': 410, 'width': 410, 'height': 410, 'widthPercent': 0.45, 'rescaleHeight': False, 'trialN': 11, 'loaded': True, 'loadedTime': 7788, 'positionName': 'RIGHT', 'positionCoords': [710.32, 179], 'bid': 6.03}]",28504,1669833235326,salmon,kiwi,7.97,6.03,-1.9399999999999995,NaN,NaN,NaN,,False,NaN,32513,4009,1669833239335,4009,HRV,HRV_0047,2022-11-30 18:38:34
12,"[{'imgObject': {}, 'id': 'strawberries', 'src': '/static/foodstim60/strawberries.jpg', 'key': 'u', 'origWidth': 410, 'origHeight': 410, 'width': 410, 'height': 410, 'widthPercent': 0.45, 'rescaleHeight': False, 'trialN': 12, 'loaded': True, 'loadedTime': 7808, 'positionName': 'LEFT', 'positionCoords': [245.68, 179], 'bid': 8.41}, {'imgObject': {}, 'id': 'cantaloupe', 'src': '/static/foodstim60/cantaloupe.jpg', 'key': 'i', 'origWidth': 409, 'origHeight': 409, 'width': 409, 'height': 409, 'widthPercent': 0.45, 'rescaleHeight': False, 'trialN': 12, 'loaded': True, 'loadedTime': 7878, 'positionName': 'RIGHT', 'positionCoords': [710.32, 179.5], 'bid': 7.35}]",32513,1669833239335,strawberries,cantaloupe,8.41,7.35,-1.0600000000000005,cantaloupe,260,260,260.0,True,i,33279,766,1669833240101,766,HRV,HRV_0047,2022-11-30 18:38:34
13,"[{'imgObject': {}, 'id': 'cantaloupe', 'src': '/static/foodstim60/cantaloupe.jpg', 'key': 'u', 'origWidth': 409, 'origHeight': 409, 'width': 409, 'height': 409, 'widthPercent': 0.45, 'rescaleHeight': False, 'trialN': 13, 'loaded': True, 'loadedTime': 7879, 'positionName': 'LEFT', 'positionCoords': [246.68, 179.5], 'bid': 7.35}, {'imgObject': {}, 'id': 'corn cob', 'src': '/static/foodstim60/corn cob.jpg', 'key': 'i', 'origWidth': 411, 'origHeight': 411, 'width': 411, 'height': 411, 'widthPercent': 0.45, 'rescaleHeight': False, 'trialN': 13, 'loaded': True, 'loadedTime': 7890, 'positionName': 'RIGHT', 'positionCoords': [710.32, 178.5], 'bid': 6.66}]",33279,1669833240101,cantaloupe,corn cob,7.35,6.66,-0.6899999999999995,cantaloupe,847,847,847.0,True,u,34643,1364,1669833241465,1364,HRV,HRV_0047,2022-11-30 18:38:34
14,"[{'imgObject': {}, 'id': 'hashbrowns', 'src': '/static/foodstim60/hashbrowns.jpg', 'key': 'u', 'origWidth': 411, 'origHeight': 410, 'width': 411, 'height': 410, 'widthPercent': 0.45, 'rescaleHeight': False, 'trialN': 14, 'loaded': True, 'loadedTime': 7930, 'positionName': 'LEFT', 'positionCoords': [244.68, 179], 'bid': 7.19}, {'imgObject': {}, 'id': 'cheerios', 'src': '/static/foodstim60/cheerios.jpg', 'key': 'i', 'origWidth': 409, 'origHeight': 410, 'width': 409, 'height': 410, 'widthPercent': 0.45, 'rescaleHeight': False, 'trialN': 14, 'loaded': True, 'loadedTime': 7943, 'positionName': 'RIGHT', 'positionCoords': [710.32, 179], 'bid': 6.34}]",34643,1669833241465,hashbrowns,cheerios,7.19,6.34,-0.8500000000000005,cheerios,1081,1081,1081.0,True,i,36248,1605,1669833243070,1605,HRV,HRV_0047,2022-11-30 18:38:34
15,"[{'imgObject': {}, 'id': 'baked potato', 'src': '/static/foodstim60/baked potato.jpg', 'key': 'u', 'origWidth': 409, 'origHeight': 410, 'width': 409, 'height': 410, 'widthPercent': 0.45, 'rescaleHeight': False, 'trialN': 15, 'loaded': True, 'loadedTime': 7975, 'positionName': 'LEFT', 'positionCoords': [246.68, 179], 'bid': 5.58}, {'imgObject': {}, 'id': 'roastedpotatoes', 'src': '/static/foodstim60/roastedpotatoes.jpg', 'key': 'i', 'origWidth': 409, 'origHeight': 410, 'width': 409, 'height': 410, 'widthPercent': 0.45, 'rescaleHeight': False, 'trialN': 15, 'loaded': True, 'loadedTime': 8032, 'positionName': 'RIGHT', 'positionCoords': [710.32, 179], 'bid': 5.98}]",36248,1669833243070,baked potato,roastedpotatoes,5.58,5.98,0.40000000000000036,baked potato,444,444,444.0,True,u,37205,957,1669833244027,957,HRV,HRV_0047,2022-11-30 18:38:34
16,"[{'imgObject': {}, 'id': 'olives', 'src': '/static/foodstim60/olives.jpg', 'key': 'u', 'origWidth': 410, 'origHeight': 410, 'width': 410, 'height': 410, 'widthPercent': 0.45, 'rescaleHeight': False, 'trialN': 16, 'loaded': True, 'loadedTime': 8090, 'positionName': 'LEFT', 'positionCoords': [245.68, 179], 'bid': 4.7}, {'imgObject': {}, 'id': 'hotdog w must', 'src': '/static/foodstim60/hotdog w must.jpg', 'key': 'i', 'origWidth': 409, 'origHeight': 409, 'width': 409, 'height': 409, 'widthPercent': 0.45, 'rescaleHeight': False, 'trialN': 16, 'loaded': True, 'loadedTime': 8104, 'positionName': 'RIGHT', 'positionCoords': [710.32, 179.5], 'bid': 5.92}]",37206,1669833244028,olives,hotdog w must,4.7,5.92,1.2199999999999998,hotdog w must,859,859,859.0,True,i,38576,1370,1669833245398,1370,HRV,HRV_0047,2022-11-30 18:38:34
17,"[{'imgObject': {}, 'id': 'grilled chicken strips', 'src': '/static/foodstim60/grilled chicken strips.jpg', 'key': 'u', 'origWidth': 410, 'origHeight': 411, 'width': 410, 'height': 411, 'widthPercent': 0.45, 'rescaleHeight': False, 'trialN': 17, 'loaded': True, 'loadedTime': 8127, 'positionName': 'LEFT', 'positionCoords': [245.68, 178.5], 'bid': 7.5}, {'imgObject': {}, 'id': 'bagel plain', 'src': '/static/foodstim60/bagel plain.jpg', 'key': 'i', 'origWidth': 410, 'origHeight': 410, 'width': 410, 'height': 410, 'widthPercent': 0.45, 'rescaleHeight': False, 'trialN': 17, 'loaded': True, 'loadedTime': 6891, 'positionName': 'RIGHT', 'positionCoords': [710.32, 179], 'bid': 9.56}]",38577,1669833245399,grilled chicken strips,bagel plain,7.5,9.56,2.0600000000000005,grilled chicken strips,957,957,957.0,True,u,40053,1476,1669833246875,1476,HRV,HRV_0047,2022-11-30 18:38:34
18,"[{'imgObject': {}, 'id': 'salmon', 'src': '/static/foodstim60/salmon.jpg', 'key': 'u', 'origWidth': 410, 'origHeight': 409, 'width': 410, 'height': 409, 'widthPercent': 0.45, 'rescaleHeight': False, 'trialN': 18, 'loaded': True, 'loadedTime': 7760, 'positionName': 'LEFT', 'positionCoords': [245.68, 179.5], 'bid': 7.97}, {'imgObject': {}, 'id': 'salad w chicken', 'src': '/static/foodstim60/salad w chicken.jpg', 'key': 'i', 'origWidth': 411, 'origHeight': 411, 'width': 411, 'height': 411, 'widthPercent': 0.45, 'rescaleHeight': False, 'trialN': 18, 'loaded': True, 'loadedTime': 6958, 'positionName': 'RIGHT', 'positionCoords': [710.32, 178.5], 'bid': 8.67}]",40053,1669833246875,salmon,salad w chicken,7.97,8.67,0.7000000000000002,salad w chicken,1041,1043,1043.0,True,i,41611,1558,1669833248433,1558,HRV,HRV_0047,2022-11-30 18:38:34
19,"[{'imgObject': {}, 'id': 'baked potato', 'src': '/static/foodstim60/baked potato.jpg', 'key': 'u', 'origWidth': 409, 'origHeight': 410, 'width': 409, 'height': 410, 'widthPercent': 0.45, 'rescaleHeight': False, 'trialN': 19, 'loaded': True, 'loadedTime': 7962, 'positionName': 'LEFT', 'positionCoords': [246.68, 179], 'bid': 5.58}, {'imgObject': {}, 'id': 'luckycharms', 'src': '/static/foodstim60/luckycharms.jpg', 'key': 'i', 'origWidth': 410, 'origHeight': 409, 'width': 410, 'height': 409, 'widthPercent': 0.45, 'rescaleHeight': False, 'trialN': 19, 'loaded': True, 'loadedTime': 8133, 'positionName': 'RIGHT', 'positionCoords': [710.32, 179.5], 'bid': 5.5200000000000005}]",41612,1669833248434,baked potato,luckycharms,5.58,5.5200000000000005,-0.05999999999999961,baked potato,851,851,851.0,True,u,42976,1364,1669833249798,1364,HRV,HRV_0047,2022-11-30 18:38:34
20,"[{'imgObject': {}, 'id': 'hashbrowns', 'src': '/static/foodstim60/hashbrowns.jpg', 'key': 'u', 'origWidth': 411, 'origHeight': 410, 'width': 411, 'height': 410, 'widthPercent': 0.45, 'rescaleHeight': False, 'trialN': 20, 'loaded': True, 'loadedTime': 7914, 'positionName': 'LEFT', 'positionCoords': [244.68, 179], 'bid': 7.19}, {'imgObject': {}, 'id': 'cherry tomato', 'src': '/static/foodstim60/cherry tomato.jpg', 'key': 'i', 'origWidth': 410, 'origHeight': 410, 'width': 410, 'height': 410, 'widthPercent': 0.45, 'rescaleHeight': False, 'trialN': 20, 'loaded': True, 'loadedTime': 8199, 'positionName': 'RIGHT', 'positionCoords': [710.32, 179], 'bid': 7.22}]",42976,1669833249798,hashbrowns,cherry tomato,7.19,7.22,0.02999999999999936,cherry tomato,838,838,838.0,True,i,44333,1357,1669833251155,1357,HRV,HRV_0047,2022-11-30 18:38:34
21,"[{'imgObject': {}, 'id': 'lox', 'src': '/static/foodstim60/lox.jpg', 'key': 'u', 'origWidth': 410, 'origHeight': 411, 'width': 410, 'height': 411, 'widthPercent': 0.45, 'rescaleHeight': False, 'trialN': 21, 'loaded': True, 'loadedTime': 8200, 'positionName': 'LEFT', 'positionCoords': [245.68, 178.5], 'bid': 5.26}, {'imgObject': {}, 'id': 'roastedpotatoes', 'src': '/static/foodstim60/roastedpotatoes.jpg', 'key': 'i', 'origWidth': 409, 'origHeight': 410, 'width': 409, 'height': 410, 'widthPercent': 0.45, 'rescaleHeight': False, 'trialN': 21, 'loaded': True, 'loadedTime': 8046, 'positionName': 'RIGHT', 'positionCoords': [710.32, 179], 'bid': 5.98}]",44334,1669833251156,lox,roastedpotatoes,5.26,5.98,0.7200000000000006,lox,1081,1082,1082.0,True,u,45924,1590,1669833252746,1590,HRV,HRV_0047,2022-11-30 18:38:34
22,"[{'imgObject': {}, 'id': 'burrito', 'src': '/static/foodstim60/burrito.jpg', 'key': 'u', 'origWidth': 410, 'origHeight': 410, 'width': 410, 'height': 410, 'widthPercent': 0.45, 'rescaleHeight': False, 'trialN': 22, 'loaded': True, 'loadedTime': 8206, 'positionName': 'LEFT', 'positionCoords': [245.68, 179], 'bid': 5.76}, {'imgObject': {}, 'id': 'blueberries', 'src': '/static/foodstim60/blueberries.jpg', 'key': 'i', 'origWidth': 411, 'origHeight': 411, 'width': 411, 'height': 411, 'widthPercent': 0.45, 'rescaleHeight': False, 'trialN': 22, 'loaded': True, 'loadedTime': 8236, 'positionName': 'RIGHT', 'positionCoords': [710.32, 178.5], 'bid': 7.54}]",45925,1669833252747,burrito,blueberries,5.76,7.54,1.7800000000000002,blueberries,1028,1028,1028.0,True,i,47469,1544,1669833254291,1544,HRV,HRV_0047,2022-11-30 18:38:34
23,"[{'imgObject': {}, 'id': 'yogurt no spoon', 'src': '/static/foodstim60/yogurt no spoon.jpg', 'key': 'u', 'origWidth': 411, 'origHeight': 410, 'width': 411, 'height': 410, 'widthPercent': 0.45, 'rescaleHeight': False, 'trialN': 23, 'loaded': True, 'loadedTime': 7751, 'positionName': 'LEFT', 'positionCoords': [244.68, 179], 'bid': 6.59}, {'imgObject': {}, 'id': 'baked potato', 'src': '/static/foodstim60/baked potato.jpg', 'key': 'i', 'origWidth': 409, 'origHeight': 410, 'width': 409, 'height': 410, 'widthPercent': 0.45, 'rescaleHeight': False, 'trialN': 23, 'loaded': True, 'loadedTime': 7968, 'positionName': 'RIGHT', 'positionCoords': [710.32, 179], 'bid': 5.58}]",47470,1669833254292,yogurt no spoon,baked potato,6.59,5.58,-1.0099999999999998,yogurt no spoon,1328,1328,1328.0,True,u,49317,1847,1669833256139,1847,HRV,HRV_0047,2022-11-30 18:38:34
24,"[{'imgObject': {}, 'id': 'strawberries', 'src': '/static/foodstim60/strawberries.jpg', 'key': 'u', 'origWidth': 410, 'origHeight': 410, 'width': 410, 'height': 410, 'widthPercent': 0.45, 'rescaleHeight': False, 'trialN': 24, 'loaded': True, 'loadedTime': 7799, 'positionName': 'LEFT', 'positionCoords': [245.68, 179], 'bid': 8.41}, {'imgObject': {}, 'id': 'tacos', 'src': '/static/foodstim60/tacos.jpg', 'key': 'i', 'origWidth': 411, 'origHeight': 411, 'width': 411, 'height': 411, 'widthPercent': 0.45, 'rescaleHeight': False, 'trialN': 24, 'loaded': True, 'loadedTime': 8257, 'positionName': 'RIGHT', 'positionCoords': [710.32, 178.5], 'bid': 8.51}]",49317,1669833256139,strawberries,tacos,8.41,8.51,0.09999999999999964,tacos,1071,1072,1072.0,True,i,50909,1592,1669833257731,1592,HRV,HRV_0047,2022-11-30 18:38:34
25,"[{'imgObject': {}, 'id': 'raspberries', 'src': '/static/foodstim60/raspberries.jpg', 'key': 'u', 'origWidth': 411, 'origHeight': 411, 'width': 411, 'height': 411, 'widthPercent': 0.45, 'rescaleHeight': False, 'trialN': 25, 'loaded': True, 'loadedTime': 8332, 'positionName': 'LEFT', 'positionCoords': [244.68, 178.5], 'bid': 7.09}, {'imgObject': {}, 'id': 'bagel and cc', 'src': '/static/foodstim60/bagel and cc.jpg', 'key': 'i', 'origWidth': 410, 'origHeight': 410, 'width': 410, 'height': 410, 'widthPercent': 0.45, 'rescaleHeight': False, 'trialN': 25, 'loaded': True, 'loadedTime': 8353, 'positionName': 'RIGHT', 'positionCoords': [710.32, 179], 'bid': 6.390000000000001}]",50909,1669833257731,raspberries,bagel and cc,7.09,6.390000000000001,-0.6999999999999993,bagel and cc,560,607,607.0,True,i,52033,1124,1669833258855,1124,HRV,HRV_0047,2022-11-30 18:38:34
26,"[{'imgObject': {}, 'id': 'burger', 'src': '/static/foodstim60/burger.jpg', 'key': 'u', 'origWidth': 409, 'origHeight': 409, 'width': 409, 'height': 409, 'widthPercent': 0.45, 'rescaleHeight': False, 'trialN': 26, 'loaded': True, 'loadedTime': 7117, 'positionName': 'LEFT', 'positionCoords': [246.68, 179.5], 'bid': 5.51}, {'imgObject': {}, 'id': 'sushi w_condiments', 'src': '/static/foodstim60/sushi w_condiments.jpg', 'key': 'i', 'origWidth': 410, 'origHeight': 410, 'width': 410, 'height': 410, 'widthPercent': 0.45, 'rescaleHeight': False, 'trialN': 26, 'loaded': True, 'loadedTime': 8372, 'positionName': 'RIGHT', 'positionCoords': [710.32, 179], 'bid': 7.38}]",52034,1669833258856,burger,sushi w_condiments,5.51,7.38,1.87,burger,561,561,561.0,True,u,53110,1076,1669833259932,1076,HRV,HRV_0047,2022-11-30 18:38:34
27,"[{'imgObject': {}, 'id': 'cocktailshrimp', 'src': '/static/foodstim60/cocktailshrimp.jpg', 'key': 'u', 'origWidth': 410, 'origHeight': 410, 'width': 410, 'height': 410, 'widthPercent': 0.45, 'rescaleHeight': False, 'trialN': 27, 'loaded': True, 'loadedTime': 8412, 'positionName': 'LEFT', 'positionCoords': [245.68, 179], 'bid': 7.25}, {'imgObject': {}, 'id': 'froot loops w milk', 'src': '/static/foodstim60/froot loops w milk.jpg', 'key': 'i', 'origWidth': 410, 'origHeight': 410, 'width': 410, 'height': 410, 'widthPercent': 0.45, 'rescaleHeight': False, 'trialN': 27, 'loaded': True, 'loadedTime': 8423, 'positionName': 'RIGHT', 'positionCoords': [710.32, 179], 'bid': 6.53}]",53111,1669833259933,cocktailshrimp,froot loops w milk,7.25,6.53,-0.7199999999999998,froot loops w milk,1181,1181,1181.0,True,i,54799,1688,1669833261621,1688,HRV,HRV_0047,2022-11-30 18:38:34
28,"[{'imgObject': {}, 'id': 'turkey sandwich', 'src': '/static/foodstim60/turkey sandwich.jpg', 'key': 'u', 'origWidth': 409, 'origHeight': 409, 'width': 409, 'height': 409, 'widthPercent': 0.45, 'rescaleHeight': False, 'trialN': 28, 'loaded': True, 'loadedTime': 8468, 'positionName': 'LEFT', 'positionCoords': [246.68, 179.5], 'bid': 3.98}, {'imgObject': {}, 'id': 'burrito', 'src': '/static/foodstim60/burrito.jpg', 'key': 'i', 'origWidth': 410, 'origHeight': 410, 'width': 410, 'height': 410, 'widthPercent': 0.45, 'rescaleHeight': False, 'trialN': 28, 'loaded': True, 'loadedTime': 8215, 'positionName': 'RIGHT', 'positionCoords': [710.32, 179], 'bid': 5.76}]",54800,1669833261622,turkey sandwich,burrito,3.98,5.76,1.7799999999999998,burrito,1093,1093,1093.0,True,i,56403,1603,1669833263225,1603,HRV,HRV_0047,2022-11-30 18:38:34
29,"[{'imgObject': {}, 'id': 'shreddedwheatwithmilk', 'src': '/static/foodstim60/shreddedwheatwithmilk.jpg', 'key': 'u', 'origWidth': 410, 'origHeight': 410, 'width': 410, 'height': 410, 'widthPercent': 0.45, 'rescaleHeight': False, 'trialN': 29, 'loaded': True, 'loadedTime': 8469, 'positionName': 'LEFT', 'positionCoords': [245.68, 179], 'bid': 3.4}, {'imgObject': {}, 'id': 'chickenfingers', 'src': '/static/foodstim60/chickenfingers.jpg', 'key': 'i', 'origWidth': 410, 'origHeight': 410, 'width': 410, 'height': 410, 'widthPercent': 0.45, 'rescaleHeight': False, 'trialN': 29, 'loaded': True, 'loadedTime': 7652, 'positionName': 'RIGHT', 'positionCoords': [710.32, 179], 'bid': 4.39}]",56403,1669833263225,shreddedwheatwithmilk,chickenfingers,3.4,4.39,0.9899999999999998,shreddedwheatwithmilk,717,717,717.0,True,u,57626,1223,1669833264448,1223,HRV,HRV_0047,2022-11-30 18:38:34
30,"[{'imgObject': {}, 'id': 'shreddedwheatwithmilk', 'src': '/static/foodstim60/shreddedwheatwithmilk.jpg', 'key': 'u', 'origWidth': 410, 'origHeight': 410, 'width': 410, 'height': 410, 'widthPercent': 0.45, 'rescaleHeight': False, 'trialN': 30, 'loaded': True, 'loadedTime': 8474, 'positionName': 'LEFT', 'positionCoords': [245.68, 179], 'bid': 3.4}, {'imgObject': {}, 'id': 'burrito', 'src': '/static/foodstim60/burrito.jpg', 'key': 'i', 'origWidth': 410, 'origHeight': 410, 'width': 410, 'height': 410, 'widthPercent': 0.45, 'rescaleHeight': False, 'trialN': 30, 'loaded': True, 'loadedTime': 8221, 'positionName': 'RIGHT', 'positionCoords': [710.32, 179], 'bid': 5.76}]",57627,1669833264449,shreddedwheatwithmilk,burrito,3.4,5.76,2.36,burrito,1450,1450,1450.0,True,i,59583,1956,1669833266405,1956,HRV,HRV_0047,2022-11-30 18:38:34
31,"[{'imgObject': {}, 'id': 'steak', 'src': '/static/foodstim60/steak.jpg', 'key': 'u', 'origWidth': 410, 'origHeight': 410, 'width': 410, 'height': 410, 'widthPercent': 0.45, 'rescaleHeight': False, 'trialN': 31, 'loaded': True, 'loadedTime': 7570, 'positionName': 'LEFT', 'positionCoords': [245.68, 179], 'bid': 7.97}, {'imgObject': {}, 'id': 'cocktailshrimp', 'src': '/static/foodstim60/cocktailshrimp.jpg', 'key': 'i', 'origWidth': 410, 'origHeight': 410, 'width': 410, 'height': 410, 'widthPercent': 0.45, 'rescaleHeight': False, 'trialN': 31, 'loaded': True, 'loadedTime': 8410, 'positionName': 'RIGHT', 'positionCoords': [710.32, 179], 'bid': 7.25}]",59583,1669833266405,steak,cocktailshrimp,7.97,7.25,-0.7199999999999998,steak,1561,1561,1561.0,True,u,61674,2091,1669833268496,2091,HRV,HRV_0047,2022-11-30 18:38:34
32,"[{'imgObject': {}, 'id': 'Tribe humus pita', 'src': '/static/foodstim60/Tribe humus pita.jpg', 'key': 'u', 'origWidth': 411, 'origHeight': 411, 'width': 411, 'height': 411, 'widthPercent': 0.45, 'rescaleHeight': False, 'trialN': 32, 'loaded': True, 'loadedTime': 8564, 'positionName': 'LEFT', 'positionCoords': [244.68, 178.5], 'bid': 3.79}, {'imgObject': {}, 'id': 'roastedpotatoes', 'src': '/static/foodstim60/roastedpotatoes.jpg', 'key': 'i', 'origWidth': 409, 'origHeight': 410, 'width': 409, 'height': 410, 'widthPercent': 0.45, 'rescaleHeight': False, 'trialN': 32, 'loaded': True, 'loadedTime': 8034, 'positionName': 'RIGHT', 'positionCoords': [710.32, 179], 'bid': 5.98}]",61675,1669833268497,Tribe humus pita,roastedpotatoes,3.79,5.98,2.1900000000000004,Tribe humus pita,1196,1196,1196.0,True,u,63380,1705,1669833270202,1705,HRV,HRV_0047,2022-11-30 18:38:34
33,"[{'imgObject': {}, 'id': 'turkeysandwich', 'src': '/static/foodstim60/turkeysandwich.jpg', 'key': 'u', 'origWidth': 409, 'origHeight': 409, 'width': 409, 'height': 409, 'widthPercent': 0.45, 'rescaleHeight': False, 'trialN': 33, 'loaded': True, 'loadedTime': 8568, 'positionName': 'LEFT', 'positionCoords': [246.68, 179.5], 'bid': 7.4}, {'imgObject': {}, 'id': 'blackbeanswithrice', 'src': '/static/foodstim60/blackbeanswithrice.jpg', 'key': 'i', 'origWidth': 410, 'origHeight': 410, 'width': 410, 'height': 410, 'widthPercent': 0.45, 'rescaleHeight': False, 'trialN': 33, 'loaded': True, 'loadedTime': 7463, 'positionName': 'RIGHT', 'positionCoords': [710.32, 179], 'bid': 8.13}]",63380,1669833270202,turkeysandwich,blackbeanswithrice,7.4,8.13,0.7300000000000004,blackbeanswithrice,1011,1027,1027.0,True,i,64924,1544,1669833271746,1544,HRV,HRV_0047,2022-11-30 18:38:34
34,"[{'imgObject': {}, 'id': 'raspberries', 'src': '/static/foodstim60/raspberries.jpg', 'key': 'u', 'origWidth': 411, 'origHeight': 411, 'width': 411, 'height': 411, 'widthPercent': 0.45, 'rescaleHeight': False, 'trialN': 34, 'loaded': True, 'loadedTime': 8338, 'positionName': 'LEFT', 'positionCoords': [244.68, 178.5], 'bid': 7.09}, {'imgObject': {}, 'id': 'orange slices', 'src': '/static/foodstim60/orange slices.jpg', 'key': 'i', 'origWidth': 409, 'origHeight': 410, 'width': 409, 'height': 410, 'widthPercent': 0.45, 'rescaleHeight': False, 'trialN': 34, 'loaded': True, 'loadedTime': 7581, 'positionName': 'RIGHT', 'positionCoords': [710.32, 179], 'bid': 6.11}]",64925,1669833271747,raspberries,orange slices,7.09,6.11,-0.9799999999999995,raspberries,1075,1075,1075.0,True,u,66521,1596,1669833273343,1596,HRV,HRV_0047,2022-11-30 18:38:34
35,"[{'imgObject': {}, 'id': 'edamame', 'src': '/static/foodstim60/edamame.jpg', 'key': 'u', 'origWidth': 409, 'origHeight': 410, 'width': 409, 'height': 410, 'widthPercent': 0.45, 'rescaleHeight': False, 'trialN': 35, 'loaded': True, 'loadedTime': 8622, 'positionName': 'LEFT', 'positionCoords': [246.68, 179], 'bid': 7.84}, {'imgObject': {}, 'id': 'cherry tomato', 'src': '/static/foodstim60/cherry tomato.jpg', 'key': 'i', 'origWidth': 410, 'origHeight': 410, 'width': 410, 'height': 410, 'widthPercent': 0.45, 'rescaleHeight': False, 'trialN': 35, 'loaded': True, 'loadedTime': 8182, 'positionName': 'RIGHT', 'positionCoords': [710.32, 179], 'bid': 7.22}]",66522,1669833273344,edamame,cherry tomato,7.84,7.22,-0.6200000000000001,cherry tomato,762,762,762.0,True,i,67802,1280,1669833274624,1280,HRV,HRV_0047,2022-11-30 18:38:34
36,"[{'imgObject': {}, 'id': 'banana', 'src': '/static/foodstim60/banana.jpg', 'key': 'u', 'origWidth': 410, 'origHeight': 410, 'width': 410, 'height': 410, 'widthPercent': 0.45, 'rescaleHeight': False, 'trialN': 36, 'loaded': True, 'loadedTime': 8626, 'positionName': 'LEFT', 'positionCoords': [245.68, 179], 'bid': 3.65}, {'imgObject': {}, 'id': 'mac & cheese', 'src': '/static/foodstim60/mac & cheese.jpg', 'key': 'i', 'origWidth': 410, 'origHeight': 410, 'width': 410, 'height': 410, 'widthPercent': 0.45, 'rescaleHeight': False, 'trialN': 36, 'loaded': True, 'loadedTime': 7297, 'positionName': 'RIGHT', 'positionCoords': [710.32, 179], 'bid': 3.72}]",67802,1669833274624,banana,mac & cheese,3.65,3.72,0.07000000000000028,banana,872,872,872.0,True,u,69184,1382,1669833276006,1382,HRV,HRV_0047,2022-11-30 18:38:34
37,"[{'imgObject': {}, 'id': 'steak', 'src': '/static/foodstim60/steak.jpg', 'key': 'u', 'origWidth': 410, 'origHeight': 410, 'width': 410, 'height': 410, 'widthPercent': 0.45, 'rescaleHeight': False, 'trialN': 37, 'loaded': True, 'loadedTime': 7566, 'positionName': 'LEFT', 'positionCoords': [245.68, 179], 'bid': 7.97}, {'imgObject': {}, 'id': 'strawberries', 'src': '/static/foodstim60/strawberries.jpg', 'key': 'i', 'origWidth': 410, 'origHeight': 410, 'width': 410, 'height': 410, 'widthPercent': 0.45, 'rescaleHeight': False, 'trialN': 37, 'loaded': True, 'loadedTime': 7831, 'positionName': 'RIGHT', 'positionCoords': [710.32, 179], 'bid': 8.41}]",69184,1669833276006,steak,strawberries,7.97,8.41,0.4400000000000004,steak,1845,1845,1845.0,True,u,71549,2365,1669833278371,2365,HRV,HRV_0047,2022-11-30 18:38:34
38,"[{'imgObject': {}, 'id': 'avocado', 'src': '/static/foodstim60/avocado.jpg', 'key': 'u', 'origWidth': 409, 'origHeight': 409, 'width': 409, 'height': 409, 'widthPercent': 0.45, 'rescaleHeight': False, 'trialN': 38, 'loaded': True, 'loadedTime': 8727, 'positionName': 'LEFT', 'positionCoords': [246.68, 179.5], 'bid': 6.36}, {'imgObject': {}, 'id': 'Grapes', 'src': '/static/foodstim60/Grapes.jpg', 'key': 'i', 'origWidth': 411, 'origHeight': 411, 'width': 411, 'height': 411, 'widthPercent': 0.45, 'rescaleHeight': False, 'trialN': 38, 'loaded': True, 'loadedTime': 8746, 'positionName': 'RIGHT', 'positionCoords': [710.32, 178.5], 'bid': 6.97}]",71549,1669833278371,avocado,Grapes,6.36,6.97,0.6099999999999994,Grapes,298,298,298.0,True,i,72376,827,1669833279198,827,HRV,HRV_0047,2022-11-30 18:38:34
39,"[{'imgObject': {}, 'id': 'edamame', 'src': '/static/foodstim60/edamame.jpg', 'key': 'u', 'origWidth': 409, 'origHeight': 410, 'width': 409, 'height': 410, 'widthPercent': 0.45, 'rescaleHeight': False, 'trialN': 39, 'loaded': True, 'loadedTime': 8585, 'positionName': 'LEFT', 'positionCoords': [246.68, 179], 'bid': 7.84}, {'imgObject': {}, 'id': 'fruitsalad', 'src': '/static/foodstim60/fruitsalad.jpg', 'key': 'i', 'origWidth': 410, 'origHeight': 410, 'width': 410, 'height': 410, 'widthPercent': 0.45, 'rescaleHeight': False, 'trialN': 39, 'loaded': True, 'loadedTime': 8764, 'positionName': 'RIGHT', 'positionCoords': [710.32, 179], 'bid': 7.67}]",72376,1669833279198,edamame,fruitsalad,7.84,7.67,-0.16999999999999993,edamame,1093,1093,1093.0,True,u,73990,1614,1669833280812,1614,HRV,HRV_0047,2022-11-30 18:38:34
40,"[{'imgObject': {}, 'id': 'popsicles', 'src': '/static/foodstim60/popsicles.jpg', 'key': 'u', 'origWidth': 410, 'origHeight': 410, 'width': 410, 'height': 410, 'widthPercent': 0.45, 'rescaleHeight': False, 'trialN': 40, 'loaded': True, 'loadedTime': 8784, 'positionName': 'LEFT', 'positionCoords': [245.68, 179], 'bid': 5.79}, {'imgObject': {}, 'id': 'orange slices', 'src': '/static/foodstim60/orange slices.jpg', 'key': 'i', 'origWidth': 409, 'origHeight': 410, 'width': 409, 'height': 410, 'widthPercent': 0.45, 'rescaleHeight': False, 'trialN': 40, 'loaded': True, 'loadedTime': 7574, 'positionName': 'RIGHT', 'positionCoords': [710.32, 179], 'bid': 6.11}]",73990,1669833280812,popsicles,orange slices,5.79,6.11,0.3200000000000003,orange slices,926,927,927.0,True,i,75424,1434,1669833282246,1434,HRV,HRV_0047,2022-11-30 18:38:34
41,"[{'imgObject': {}, 'id': 'sushi w_condiments', 'src': '/static/foodstim60/sushi w_condiments.jpg', 'key': 'u', 'origWidth': 410, 'origHeight': 410, 'width': 410, 'height': 410, 'widthPercent': 0.45, 'rescaleHeight': False, 'trialN': 41, 'loaded': True, 'loadedTime': 8373, 'positionName': 'LEFT', 'positionCoords': [245.68, 179], 'bid': 7.38}, {'imgObject': {}, 'id': 'granola w milk', 'src': '/static/foodstim60/granola w milk.jpg', 'key': 'i', 'origWidth': 410, 'origHeight': 410, 'width': 410, 'height': 410, 'widthPercent': 0.45, 'rescaleHeight': False, 'trialN': 41, 'loaded': True, 'loadedTime': 8802, 'positionName': 'RIGHT', 'positionCoords': [710.32, 179], 'bid': 8.63}]",75425,1669833282247,sushi w_condiments,granola w milk,7.38,8.63,1.2500000000000009,sushi w_condiments,886,887,887.0,True,u,76816,1391,1669833283638,1391,HRV,HRV_0047,2022-11-30 18:38:34
42,"[{'imgObject': {}, 'id': 'froot loops w milk', 'src': '/static/foodstim60/froot loops w milk.jpg', 'key': 'u', 'origWidth': 410, 'origHeight': 410, 'width': 410, 'height': 410, 'widthPercent': 0.45, 'rescaleHeight': False, 'trialN': 42, 'loaded': True, 'loadedTime': 8426, 'positionName': 'LEFT', 'positionCoords': [245.68, 179], 'bid': 6.53}, {'imgObject': {}, 'id': 'salad w chicken', 'src': '/static/foodstim60/salad w chicken.jpg', 'key': 'i', 'origWidth': 411, 'origHeight': 411, 'width': 411, 'height': 411, 'widthPercent': 0.45, 'rescaleHeight': False, 'trialN': 42, 'loaded': True, 'loadedTime': 7089, 'positionName': 'RIGHT', 'positionCoords': [710.32, 178.5], 'bid': 8.67}]",76816,1669833283638,froot loops w milk,salad w chicken,6.53,8.67,2.1399999999999997,salad w chicken,1094,1095,1095.0,True,i,78415,1599,1669833285237,1599,HRV,HRV_0047,2022-11-30 18:38:34
43,"[{'imgObject': {}, 'id': 'Tribe humus pita', 'src': '/static/foodstim60/Tribe humus pita.jpg', 'key': 'u', 'origWidth': 411, 'origHeight': 411, 'width': 411, 'height': 411, 'widthPercent': 0.45, 'rescaleHeight': False, 'trialN': 43, 'loaded': True, 'loadedTime': 8563, 'positionName': 'LEFT', 'positionCoords': [244.68, 178.5], 'bid': 3.79}, {'imgObject': {}, 'id': 'veggieswithdip', 'src': '/static/foodstim60/veggieswithdip.jpg', 'key': 'i', 'origWidth': 409, 'origHeight': 409, 'width': 409, 'height': 409, 'widthPercent': 0.45, 'rescaleHeight': False, 'trialN': 43, 'loaded': True, 'loadedTime': 7185, 'positionName': 'RIGHT', 'positionCoords': [710.32, 179.5], 'bid': 5.45}]",78416,1669833285238,Tribe humus pita,veggieswithdip,3.79,5.45,1.6600000000000001,Tribe humus pita,680,680,680.0,True,u,79603,1187,1669833286425,1187,HRV,HRV_0047,2022-11-30 18:38:34
44,"[{'imgObject': {}, 'id': 'veggieswithdip', 'src': '/static/foodstim60/veggieswithdip.jpg', 'key': 'u', 'origWidth': 409, 'origHeight': 409, 'width': 409, 'height': 409, 'widthPercent': 0.45, 'rescaleHeight': False, 'trialN': 44, 'loaded': True, 'loadedTime': 7157, 'positionName': 'LEFT', 'positionCoords': [246.68, 179.5], 'bid': 5.45}, {'imgObject': {}, 'id': 'shreddedwheatwithmilk', 'src': '/static/foodstim60/shreddedwheatwithmilk.jpg', 'key': 'i', 'origWidth': 410, 'origHeight': 410, 'width': 410, 'height': 410, 'widthPercent': 0.45, 'rescaleHeight': False, 'trialN': 44, 'loaded': True, 'loadedTime': 8560, 'positionName': 'RIGHT', 'positionCoords': [710.32, 179], 'bid': 3.4}]",79603,1669833286425,veggieswithdip,shreddedwheatwithmilk,5.45,3.4,-2.0500000000000003,veggieswithdip,783,783,783.0,True,u,80888,1285,1669833287710,1285,HRV,HRV_0047,2022-11-30 18:38:34
45,"[{'imgObject': {}, 'id': 'turkey sandwich', 'src': '/static/foodstim60/turkey sandwich.jpg', 'key': 'u', 'origWidth': 409, 'origHeight': 409, 'width': 409, 'height': 409, 'widthPercent': 0.45, 'rescaleHeight': False, 'trialN': 45, 'loaded': True, 'loadedTime': 8469, 'positionName': 'LEFT', 'positionCoords': [246.68, 179.5], 'bid': 3.98}, {'imgObject': {}, 'id': 'eggs', 'src': '/static/foodstim60/eggs.jpg', 'key': 'i', 'origWidth': 409, 'origHeight': 409, 'width': 409, 'height': 409, 'widthPercent': 0.45, 'rescaleHeight': False, 'trialN': 45, 'loaded': True, 'loadedTime': 7598, 'positionName': 'RIGHT', 'positionCoords': [710.32, 179.5], 'bid': 4.44}]",80889,1669833287711,turkey sandwich,eggs,3.98,4.44,0.4600000000000004,eggs,672,673,673.0,True,i,82065,1176,1669833288887,1176,HRV,HRV_0047,2022-11-30 18:38:34
46,"[{'imgObject': {}, 'id': 'froot loops w milk', 'src': '/static/foodstim60/froot loops w milk.jpg', 'key': 'u', 'origWidth': 410, 'origHeight': 410, 'width': 410, 'height': 410, 'widthPercent': 0.45, 'rescaleHeight': False, 'trialN': 46, 'loaded': True, 'loadedTime': 8425, 'positionName': 'LEFT', 'positionCoords': [245.68, 179], 'bid': 6.53}, {'imgObject': {}, 'id': 'bagel and cc', 'src': '/static/foodstim60/bagel and cc.jpg', 'key': 'i', 'origWidth': 410, 'origHeight': 410, 'width': 410, 'height': 410, 'widthPercent': 0.45, 'rescaleHeight': False, 'trialN': 46, 'loaded': True, 'loadedTime': 8360, 'positionName': 'RIGHT', 'positionCoords': [710.32, 179], 'bid': 6.390000000000001}]",82066,1669833288888,froot loops w milk,bagel and cc,6.53,6.390000000000001,-0.13999999999999968,froot loops w milk,734,734,734.0,True,u,83420,1354,1669833290242,1354,HRV,HRV_0047,2022-11-30 18:38:34
47,"[{'imgObject': {}, 'id': 'froot loops w milk', 'src': '/static/foodstim60/froot loops w milk.jpg', 'key': 'u', 'origWidth': 410, 'origHeight': 410, 'width': 410, 'height': 410, 'widthPercent': 0.45, 'rescaleHeight': False, 'trialN': 47, 'loaded': True, 'loadedTime': 8453, 'positionName': 'LEFT', 'positionCoords': [245.68, 179], 'bid': 6.53}, {'imgObject': {}, 'id': 'luckycharms', 'src': '/static/foodstim60/luckycharms.jpg', 'key': 'i', 'origWidth': 410, 'origHeight': 409, 'width': 410, 'height': 409, 'widthPercent': 0.45, 'rescaleHeight': False, 'trialN': 47, 'loaded': True, 'loadedTime': 8167, 'positionName': 'RIGHT', 'positionCoords': [710.32, 179.5], 'bid': 5.5200000000000005}]",83421,1669833290243,froot loops w milk,luckycharms,6.53,5.5200000000000005,-1.0099999999999998,luckycharms,666,667,667.0,True,i,84599,1178,1669833291421,1178,HRV,HRV_0047,2022-11-30 18:38:34
48,"[{'imgObject': {}, 'id': 'rigatoni', 'src': '/static/foodstim60/rigatoni.jpg', 'key': 'u', 'origWidth': 411, 'origHeight': 411, 'width': 411, 'height': 411, 'widthPercent': 0.45, 'rescaleHeight': False, 'trialN': 48, 'loaded': True, 'loadedTime': 7499, 'positionName': 'LEFT', 'positionCoords': [244.68, 178.5], 'bid': 7.4}, {'imgObject': {}, 'id': 'chicken nuggets2', 'src': '/static/foodstim60/chicken nuggets2.jpg', 'key': 'i', 'origWidth': 410, 'origHeight': 409, 'width': 410, 'height': 409, 'widthPercent': 0.45, 'rescaleHeight': False, 'trialN': 48, 'loaded': True, 'loadedTime': 8805, 'positionName': 'RIGHT', 'positionCoords': [710.32, 179.5], 'bid': 7.37}]",84599,1669833291421,rigatoni,chicken nuggets2,7.4,7.37,-0.03000000000000025,rigatoni,849,849,849.0,True,u,85952,1353,1669833292774,1353,HRV,HRV_0047,2022-11-30 18:38:34
49,"[{'imgObject': {}, 'id': 'hashbrowns', 'src': '/static/foodstim60/hashbrowns.jpg', 'key': 'u', 'origWidth': 411, 'origHeight': 410, 'width': 411, 'height': 410, 'widthPercent': 0.45, 'rescaleHeight': False, 'trialN': 49, 'loaded': True, 'loadedTime': 7906, 'positionName': 'LEFT', 'positionCoords': [244.68, 179], 'bid': 7.19}, {'imgObject': {}, 'id': 'raspberries', 'src': '/static/foodstim60/raspberries.jpg', 'key': 'i', 'origWidth': 411, 'origHeight': 411, 'width': 411, 'height': 411, 'widthPercent': 0.45, 'rescaleHeight': False, 'trialN': 49, 'loaded': True, 'loadedTime': 8316, 'positionName': 'RIGHT', 'positionCoords': [710.32, 178.5], 'bid': 7.09}]",85953,1669833292775,hashbrowns,raspberries,7.19,7.09,-0.10000000000000053,raspberries,878,878,878.0,True,i,87337,1384,1669833294159,1384,HRV,HRV_0047,2022-11-30 18:38:34
50,"[{'imgObject': {}, 'id': 'blueberries', 'src': '/static/foodstim60/blueberries.jpg', 'key': 'u', 'origWidth': 411, 'origHeight': 411, 'width': 411, 'height': 411, 'widthPercent': 0.45, 'rescaleHeight': False, 'trialN': 50, 'loaded': True, 'loadedTime': 8231, 'positionName': 'LEFT', 'positionCoords': [244.68, 178.5], 'bid': 7.54}, {'imgObject': {}, 'id': 'tacos', 'src': '/static/foodstim60/tacos.jpg', 'key': 'i', 'origWidth': 411, 'origHeight': 411, 'width': 411, 'height': 411, 'widthPercent': 0.45, 'rescaleHeight': False, 'trialN': 50, 'loaded': True, 'loadedTime': 8258, 'positionName': 'RIGHT', 'positionCoords': [710.32, 178.5], 'bid': 8.51}]",87337,1669833294159,blueberries,tacos,7.54,8.51,0.9699999999999998,blueberries,556,556,556.0,True,u,88410,1073,1669833295233,1074,HRV,HRV_0047,2022-11-30 18:38:34
51,"[{'imgObject': {}, 'id': 'raspberries', 'src': '/static/foodstim60/raspberries.jpg', 'key': 'u', 'origWidth': 411, 'origHeight': 411, 'width': 411, 'height': 411, 'widthPercent': 0.45, 'rescaleHeight': False, 'trialN': 51, 'loaded': True, 'loadedTime': 8328, 'positionName': 'LEFT', 'positionCoords': [244.68, 178.5], 'bid': 7.09}, {'imgObject': {}, 'id': 'eggsalad', 'src': '/static/foodstim60/eggsalad.jpg', 'key': 'i', 'origWidth': 410, 'origHeight': 409, 'width': 410, 'height': 409, 'widthPercent': 0.45, 'rescaleHeight': False, 'trialN': 51, 'loaded': True, 'loadedTime': 8846, 'positionName': 'RIGHT', 'positionCoords': [710.32, 179.5], 'bid': 7.65}]",88411,1669833295234,raspberries,eggsalad,7.09,7.65,0.5600000000000005,eggsalad,730,730,730.0,True,i,89647,1236,1669833296470,1236,HRV,HRV_0047,2022-11-30 18:38:34
52,"[{'imgObject': {}, 'id': 'cheerios', 'src': '/static/foodstim60/cheerios.jpg', 'key': 'u', 'origWidth': 409, 'origHeight': 410, 'width': 409, 'height': 410, 'widthPercent': 0.45, 'rescaleHeight': False, 'trialN': 52, 'loaded': True, 'loadedTime': 7943, 'positionName': 'LEFT', 'positionCoords': [246.68, 179], 'bid': 6.34}, {'imgObject': {}, 'id': 'seaweed', 'src': '/static/foodstim60/seaweed.jpg', 'key': 'i', 'origWidth': 410, 'origHeight': 410, 'width': 410, 'height': 410, 'widthPercent': 0.45, 'rescaleHeight': False, 'trialN': 52, 'loaded': True, 'loadedTime': 7690, 'positionName': 'RIGHT', 'positionCoords': [710.32, 179], 'bid': 6.8100000000000005}]",89648,1669833296471,cheerios,seaweed,6.34,6.8100000000000005,0.47000000000000064,cheerios,742,743,743.0,True,u,90895,1247,1669833297718,1247,HRV,HRV_0047,2022-11-30 18:38:34
53,"[{'imgObject': {}, 'id': 'Grapes', 'src': '/static/foodstim60/Grapes.jpg', 'key': 'u', 'origWidth': 411, 'origHeight': 411, 'width': 411, 'height': 411, 'widthPercent': 0.45, 'rescaleHeight': False, 'trialN': 53, 'loaded': True, 'loadedTime': 8746, 'positionName': 'LEFT', 'positionCoords': [244.68, 178.5], 'bid': 6.97}, {'imgObject': {}, 'id': 'corn cob', 'src': '/static/foodstim60/corn cob.jpg', 'key': 'i', 'origWidth': 411, 'origHeight': 411, 'width': 411, 'height': 411, 'widthPercent': 0.45, 'rescaleHeight': False, 'trialN': 53, 'loaded': True, 'loadedTime': 7900, 'positionName': 'RIGHT', 'positionCoords': [710.32, 178.5], 'bid': 6.66}]",90896,1669833297719,Grapes,corn cob,6.97,6.66,-0.3099999999999996,corn cob,807,808,808.0,True,i,92373,1477,1669833299196,1477,HRV,HRV_0047,2022-11-30 18:38:34
54,"[{'imgObject': {}, 'id': 'luckycharms', 'src': '/static/foodstim60/luckycharms.jpg', 'key': 'u', 'origWidth': 410, 'origHeight': 409, 'width': 410, 'height': 409, 'widthPercent': 0.45, 'rescaleHeight': False, 'trialN': 54, 'loaded': True, 'loadedTime': 8136, 'positionName': 'LEFT', 'positionCoords': [245.68, 179.5], 'bid': 5.5200000000000005}, {'imgObject': {}, 'id': 'banana', 'src': '/static/foodstim60/banana.jpg', 'key': 'i', 'origWidth': 410, 'origHeight': 410, 'width': 410, 'height': 410, 'widthPercent': 0.45, 'rescaleHeight': False, 'trialN': 54, 'loaded': True, 'loadedTime': 8623, 'positionName': 'RIGHT', 'positionCoords': [710.32, 179], 'bid': 3.65}]",92373,1669833299196,luckycharms,banana,5.5200000000000005,3.65,-1.8700000000000006,luckycharms,562,563,563.0,True,u,93439,1066,1669833300262,1066,HRV,HRV_0047,2022-11-30 18:38:34
55,"[{'imgObject': {}, 'id': 'sushi w_condiments', 'src': '/static/foodstim60/sushi w_condiments.jpg', 'key': 'u', 'origWidth': 410, 'origHeight': 410, 'width': 410, 'height': 410, 'widthPercent': 0.45, 'rescaleHeight': False, 'trialN': 55, 'loaded': True, 'loadedTime': 8370, 'positionName': 'LEFT', 'positionCoords': [245.68, 179], 'bid': 7.38}, {'imgObject': {}, 'id': 'salmon', 'src': '/static/foodstim60/salmon.jpg', 'key': 'i', 'origWidth': 410, 'origHeight': 409, 'width': 410, 'height': 409, 'widthPercent': 0.45, 'rescaleHeight': False, 'trialN': 55, 'loaded': True, 'loadedTime': 7768, 'positionName': 'RIGHT', 'positionCoords': [710.32, 179.5], 'bid': 7.97}]",93440,1669833300263,sushi w_condiments,salmon,7.38,7.97,0.5899999999999999,salmon,774,775,775.0,True,i,94720,1280,1669833301543,1280,HRV,HRV_0047,2022-11-30 18:38:34
56,"[{'imgObject': {}, 'id': 'turkey sandwich', 'src': '/static/foodstim60/turkey sandwich.jpg', 'key': 'u', 'origWidth': 409, 'origHeight': 409, 'width': 409, 'height': 409, 'widthPercent': 0.45, 'rescaleHeight': False, 'trialN': 56, 'loaded': True, 'loadedTime': 8468, 'positionName': 'LEFT', 'positionCoords': [246.68, 179.5], 'bid': 3.98}, {'imgObject': {}, 'id': 'mango', 'src': '/static/foodstim60/mango.jpg', 'key': 'i', 'origWidth': 411, 'origHeight': 411, 'width': 411, 'height': 411, 'widthPercent': 0.45, 'rescaleHeight': False, 'trialN': 56, 'loaded': True, 'loadedTime': 6829, 'positionName': 'RIGHT', 'positionCoords': [710.32, 178.5], 'bid': 6.03}]",94720,1669833301543,turkey sandwich,mango,3.98,6.03,2.0500000000000003,turkey sandwich,854,855,855.0,True,u,96085,1365,1669833302908,1365,HRV,HRV_0047,2022-11-30 18:38:34
57,"[{'imgObject': {}, 'id': 'olives', 'src': '/static/foodstim60/olives.jpg', 'key': 'u', 'origWidth': 410, 'origHeight': 410, 'width': 410, 'height': 410, 'widthPercent': 0.45, 'rescaleHeight': False, 'trialN': 57, 'loaded': True, 'loadedTime': 8066, 'positionName': 'LEFT', 'positionCoords': [245.68, 179], 'bid': 4.7}, {'imgObject': {}, 'id': 'apple slices', 'src': '/static/foodstim60/apple slices.jpg', 'key': 'i', 'origWidth': 409, 'origHeight': 410, 'width': 409, 'height': 410, 'widthPercent': 0.45, 'rescaleHeight': False, 'trialN': 57, 'loaded': True, 'loadedTime': 8852, 'positionName': 'RIGHT', 'positionCoords': [710.32, 179], 'bid': 7.28}]",96086,1669833302909,olives,apple slices,4.7,7.28,2.58,olives,817,818,818.0,True,u,97407,1321,1669833304230,1321,HRV,HRV_0047,2022-11-30 18:38:34
58,"[{'imgObject': {}, 'id': 'ice cream sundae 002', 'src': '/static/foodstim60/ice cream sundae 002.jpg', 'key': 'u', 'origWidth': 409, 'origHeight': 409, 'width': 409, 'height': 409, 'widthPercent': 0.45, 'rescaleHeight': False, 'trialN': 58, 'loaded': True, 'loadedTime': 7480, 'positionName': 'LEFT', 'positionCoords': [246.68, 179.5], 'bid': 6.3}, {'imgObject': {}, 'id': 'olives', 'src': '/static/foodstim60/olives.jpg', 'key': 'i', 'origWidth': 410, 'origHeight': 410, 'width': 410, 'height': 410, 'widthPercent': 0.45, 'rescaleHeight': False, 'trialN': 58, 'loaded': True, 'loadedTime': 8097, 'positionName': 'RIGHT', 'positionCoords': [710.32, 179], 'bid': 4.7}]",97408,1669833304231,ice cream sundae 002,olives,6.3,4.7,-1.5999999999999996,ice cream sundae 002,688,688,688.0,True,u,98614,1206,1669833305437,1206,HRV,HRV_0047,2022-11-30 18:38:34
59,"[{'imgObject': {}, 'id': 'chickenfingers', 'src': '/static/foodstim60/chickenfingers.jpg', 'key': 'u', 'origWidth': 410, 'origHeight': 410, 'width': 410, 'height': 410, 'widthPercent': 0.45, 'rescaleHeight': False, 'trialN': 59, 'loaded': True, 'loadedTime': 7611, 'positionName': 'LEFT', 'positionCoords': [245.68, 179], 'bid': 4.39}, {'imgObject': {}, 'id': 'cherries', 'src': '/static/foodstim60/cherries.jpg', 'key': 'i', 'origWidth': 410, 'origHeight': 411, 'width': 410, 'height': 411, 'widthPercent': 0.45, 'rescaleHeight': False, 'trialN': 59, 'loaded': True, 'loadedTime': 7661, 'positionName': 'RIGHT', 'positionCoords': [710.32, 178.5], 'bid': 7.22}]",98614,1669833305437,chickenfingers,cherries,4.39,7.22,2.83,cherries,1027,1027,1027.0,True,i,100174,1560,1669833306997,1560,HRV,HRV_0047,2022-11-30 18:38:34
60,"[{'imgObject': {}, 'id': 'salmon', 'src': '/static/foodstim60/salmon.jpg', 'key': 'u', 'origWidth': 410, 'origHeight': 409, 'width': 410, 'height': 409, 'widthPercent': 0.45, 'rescaleHeight': False, 'trialN': 60, 'loaded': True, 'loadedTime': 7772, 'positionName': 'LEFT', 'positionCoords': [245.68, 179.5], 'bid': 7.97}, {'imgObject': {}, 'id': 'cherries', 'src': '/static/foodstim60/cherries.jpg', 'key': 'i', 'origWidth': 410, 'origHeight': 411, 'width': 410, 'height': 411, 'widthPercent': 0.45, 'rescaleHeight': False, 'trialN': 60, 'loaded': True, 'loadedTime': 7668, 'positionName': 'RIGHT', 'positionCoords': [710.32, 178.5], 'bid': 7.22}]",100175,1669833306998,salmon,cherries,7.97,7.22,-0.75,salmon,656,656,656.0,True,u,101354,1179,1669833308177,1179,HRV,HRV_0047,2022-11-30 18:38:34
61,"[{'imgObject': {}, 'id': 'blueberries', 'src': '/static/foodstim60/blueberries.jpg', 'key': 'u', 'origWidth': 411, 'origHeight': 411, 'width': 411, 'height': 411, 'widthPercent': 0.45, 'rescaleHeight': False, 'trialN': 61, 'loaded': True, 'loadedTime': 8243, 'positionName': 'LEFT', 'positionCoords': [244.68, 178.5], 'bid': 7.54}, {'imgObject': {}, 'id': 'seaweed', 'src': '/static/foodstim60/seaweed.jpg', 'key': 'i', 'origWidth': 410, 'origHeight': 410, 'width': 410, 'height': 410, 'widthPercent': 0.45, 'rescaleHeight': False, 'trialN': 61, 'loaded': True, 'loadedTime': 7686, 'positionName': 'RIGHT', 'positionCoords': [710.32, 179], 'bid': 6.8100000000000005}]",101354,1669833308177,blueberries,seaweed,7.54,6.8100000000000005,-0.7299999999999995,seaweed,568,568,568.0,True,i,102426,1072,1669833309249,1072,HRV,HRV_0047,2022-11-30 18:38:34
62,"[{'imgObject': {}, 'id': 'bagel plain', 'src': '/static/foodstim60/bagel plain.jpg', 'key': 'u', 'origWidth': 410, 'origHeight': 410, 'width': 410, 'height': 410, 'widthPercent': 0.45, 'rescaleHeight': False, 'trialN': 62, 'loaded': True, 'loadedTime': 6843, 'positionName': 'LEFT', 'positionCoords': [245.68, 179], 'bid': 9.56}, {'imgObject': {}, 'id': 'corn cob', 'src': '/static/foodstim60/corn cob.jpg', 'key': 'i', 'origWidth': 411, 'origHeight': 411, 'width': 411, 'height': 411, 'widthPercent': 0.45, 'rescaleHeight': False, 'trialN': 62, 'loaded': True, 'loadedTime': 7905, 'positionName': 'RIGHT', 'positionCoords': [710.32, 178.5], 'bid': 6.66}]",102427,1669833309250,bagel plain,corn cob,9.56,6.66,-2.9000000000000004,bagel plain,966,966,966.0,True,u,103912,1485,1669833310735,1485,HRV,HRV_0047,2022-11-30 18:38:34
63,"[{'imgObject': {}, 'id': 'roastedpotatoes', 'src': '/static/foodstim60/roastedpotatoes.jpg', 'key': 'u', 'origWidth': 409, 'origHeight': 410, 'width': 409, 'height': 410, 'widthPercent': 0.45, 'rescaleHeight': False, 'trialN': 63, 'loaded': True, 'loadedTime': 8040, 'positionName': 'LEFT', 'positionCoords': [246.68, 179], 'bid': 5.98}, {'imgObject': {}, 'id': 'hotdog w must', 'src': '/static/foodstim60/hotdog w must.jpg', 'key': 'i', 'origWidth': 409, 'origHeight': 409, 'width': 409, 'height': 409, 'widthPercent': 0.45, 'rescaleHeight': False, 'trialN': 63, 'loaded': True, 'loadedTime': 8114, 'positionName': 'RIGHT', 'positionCoords': [710.32, 179.5], 'bid': 5.92}]",103914,1669833310737,roastedpotatoes,hotdog w must,5.98,5.92,-0.0600000000000005,hotdog w must,775,775,775.0,True,i,105200,1286,1669833312023,1286,HRV,HRV_0047,2022-11-30 18:38:34
64,"[{'imgObject': {}, 'id': 'orange slices', 'src': '/static/foodstim60/orange slices.jpg', 'key': 'u', 'origWidth': 409, 'origHeight': 410, 'width': 409, 'height': 410, 'widthPercent': 0.45, 'rescaleHeight': False, 'trialN': 64, 'loaded': True, 'loadedTime': 7585, 'positionName': 'LEFT', 'positionCoords': [246.68, 179], 'bid': 6.11}, {'imgObject': {}, 'id': 'ice cream sundae 002', 'src': '/static/foodstim60/ice cream sundae 002.jpg', 'key': 'i', 'origWidth': 409, 'origHeight': 409, 'width': 409, 'height': 409, 'widthPercent': 0.45, 'rescaleHeight': False, 'trialN': 64, 'loaded': True, 'loadedTime': 7489, 'positionName': 'RIGHT', 'positionCoords': [710.32, 179.5], 'bid': 6.3}]",105203,1669833312026,orange slices,ice cream sundae 002,6.11,6.3,0.1899999999999995,orange slices,594,594,594.0,True,u,106304,1101,1669833313127,1101,HRV,HRV_0047,2022-11-30 18:38:34
65,"[{'imgObject': {}, 'id': 'eggsalad', 'src': '/static/foodstim60/eggsalad.jpg', 'key': 'u', 'origWidth': 410, 'origHeight': 409, 'width': 410, 'height': 409, 'widthPercent': 0.45, 'rescaleHeight': False, 'trialN': 65, 'loaded': True, 'loadedTime': 8812, 'positionName': 'LEFT', 'positionCoords': [245.68, 179.5], 'bid': 7.65}, {'imgObject': {}, 'id': 'salad w chicken', 'src': '/static/foodstim60/salad w chicken.jpg', 'key': 'i', 'origWidth': 411, 'origHeight': 411, 'width': 411, 'height': 411, 'widthPercent': 0.45, 'rescaleHeight': False, 'trialN': 65, 'loaded': True, 'loadedTime': 6967, 'positionName': 'RIGHT', 'positionCoords': [710.32, 178.5], 'bid': 8.67}]",106304,1669833313127,eggsalad,salad w chicken,7.65,8.67,1.0199999999999996,salad w chicken,1181,1181,1181.0,True,i,108004,1700,1669833314827,1700,HRV,HRV_0047,2022-11-30 18:38:34
66,"[{'imgObject': {}, 'id': 'steak', 'src': '/static/foodstim60/steak.jpg', 'key': 'u', 'origWidth': 410, 'origHeight': 410, 'width': 410, 'height': 410, 'widthPercent': 0.45, 'rescaleHeight': False, 'trialN': 66, 'loaded': True, 'loadedTime': 7562, 'positionName': 'LEFT', 'positionCoords': [245.68, 179], 'bid': 7.97}, {'imgObject': {}, 'id': 'pear', 'src': '/static/foodstim60/pear.jpg', 'key': 'i', 'origWidth': 411, 'origHeight': 410, 'width': 411, 'height': 410, 'widthPercent': 0.45, 'rescaleHeight': False, 'trialN': 66, 'loaded': True, 'loadedTime': 8857, 'positionName': 'RIGHT', 'positionCoords': [710.32, 179], 'bid': 8.82}]",108004,1669833314827,steak,pear,7.97,8.82,0.8500000000000005,steak,1202,1202,1202.0,True,u,109711,1707,1669833316534,1707,HRV,HRV_0047,2022-11-30 18:38:34
67,"[{'imgObject': {}, 'id': 'burrito', 'src': '/static/foodstim60/burrito.jpg', 'key': 'u', 'origWidth': 410, 'origHeight': 410, 'width': 410, 'height': 410, 'widthPercent': 0.45, 'rescaleHeight': False, 'trialN': 67, 'loaded': True, 'loadedTime': 8227, 'positionName': 'LEFT', 'positionCoords': [245.68, 179], 'bid': 5.76}, {'imgObject': {}, 'id': 'baked potato', 'src': '/static/foodstim60/baked potato.jpg', 'key': 'i', 'origWidth': 409, 'origHeight': 410, 'width': 409, 'height': 410, 'widthPercent': 0.45, 'rescaleHeight': False, 'trialN': 67, 'loaded': True, 'loadedTime': 7953, 'positionName': 'RIGHT', 'positionCoords': [710.32, 179], 'bid': 5.58}]",109711,1669833316534,burrito,baked potato,5.76,5.58,-0.17999999999999972,baked potato,775,775,775.0,True,i,110992,1281,1669833317815,1281,HRV,HRV_0047,2022-11-30 18:38:34
68,"[{'imgObject': {}, 'id': 'burger', 'src': '/static/foodstim60/burger.jpg', 'key': 'u', 'origWidth': 409, 'origHeight': 409, 'width': 409, 'height': 409, 'widthPercent': 0.45, 'rescaleHeight': False, 'trialN': 68, 'loaded': True, 'loadedTime': 7108, 'positionName': 'LEFT', 'positionCoords': [246.68, 179.5], 'bid': 5.51}, {'imgObject': {}, 'id': 'bagel and cc', 'src': '/static/foodstim60/bagel and cc.jpg', 'key': 'i', 'origWidth': 410, 'origHeight': 410, 'width': 410, 'height': 410, 'widthPercent': 0.45, 'rescaleHeight': False, 'trialN': 68, 'loaded': True, 'loadedTime': 8360, 'positionName': 'RIGHT', 'positionCoords': [710.32, 179], 'bid': 6.390000000000001}]",110992,1669833317815,burger,bagel and cc,5.51,6.390000000000001,0.8800000000000008,bagel and cc,2405,2405,2405.0,True,i,113903,2911,1669833320726,2911,HRV,HRV_0047,2022-11-30 18:38:34
69,"[{'imgObject': {}, 'id': 'raisin bran w milk', 'src': '/static/foodstim60/raisin bran w milk.jpg', 'key': 'u', 'origWidth': 411, 'origHeight': 411, 'width': 411, 'height': 411, 'widthPercent': 0.45, 'rescaleHeight': False, 'trialN': 69, 'loaded': True, 'loadedTime': 6720, 'positionName': 'LEFT', 'positionCoords': [244.68, 178.5], 'bid': 5.68}, {'imgObject': {}, 'id': 'Tribe humus pita', 'src': '/static/foodstim60/Tribe humus pita.jpg', 'key': 'i', 'origWidth': 411, 'origHeight': 411, 'width': 411, 'height': 411, 'widthPercent': 0.45, 'rescaleHeight': False, 'trialN': 69, 'loaded': True, 'loadedTime': 8561, 'positionName': 'RIGHT', 'positionCoords': [710.32, 178.5], 'bid': 3.79}]",113903,1669833320726,raisin bran w milk,Tribe humus pita,5.68,3.79,-1.8899999999999997,raisin bran w milk,1959,1959,1959.0,True,u,116367,2464,1669833323190,2464,HRV,HRV_0047,2022-11-30 18:38:34
70,"[{'imgObject': {}, 'id': 'olives', 'src': '/static/foodstim60/olives.jpg', 'key': 'u', 'origWidth': 410, 'origHeight': 410, 'width': 410, 'height': 410, 'widthPercent': 0.45, 'rescaleHeight': False, 'trialN': 70, 'loaded': True, 'loadedTime': 8073, 'positionName': 'LEFT', 'positionCoords': [245.68, 179], 'bid': 4.7}, {'imgObject': {}, 'id': 'banana', 'src': '/static/foodstim60/banana.jpg', 'key': 'i', 'origWidth': 410, 'origHeight': 410, 'width': 410, 'height': 410, 'widthPercent': 0.45, 'rescaleHeight': False, 'trialN': 70, 'loaded': True, 'loadedTime': 8627, 'positionName': 'RIGHT', 'positionCoords': [710.32, 179], 'bid': 3.65}]",116368,1669833323191,olives,banana,4.7,3.65,-1.0500000000000003,banana,728,728,728.0,True,i,117610,1242,1669833324433,1242,HRV,HRV_0047,2022-11-30 18:38:34
71,"[{'imgObject': {}, 'id': 'sushi w_condiments', 'src': '/static/foodstim60/sushi w_condiments.jpg', 'key': 'u', 'origWidth': 410, 'origHeight': 410, 'width': 410, 'height': 410, 'widthPercent': 0.45, 'rescaleHeight': False, 'trialN': 71, 'loaded': True, 'loadedTime': 8379, 'positionName': 'LEFT', 'positionCoords': [245.68, 179], 'bid': 7.38}, {'imgObject': {}, 'id': 'eggsalad', 'src': '/static/foodstim60/eggsalad.jpg', 'key': 'i', 'origWidth': 410, 'origHeight': 409, 'width': 410, 'height': 409, 'widthPercent': 0.45, 'rescaleHeight': False, 'trialN': 71, 'loaded': True, 'loadedTime': 8841, 'positionName': 'RIGHT', 'positionCoords': [710.32, 179.5], 'bid': 7.65}]",117613,1669833324436,sushi w_condiments,eggsalad,7.38,7.65,0.27000000000000046,eggsalad,919,925,925.0,True,i,119040,1427,1669833325863,1427,HRV,HRV_0047,2022-11-30 18:38:34
72,"[{'imgObject': {}, 'id': 'mashed potato', 'src': '/static/foodstim60/mashed potato.jpg', 'key': 'u', 'origWidth': 409, 'origHeight': 409, 'width': 409, 'height': 409, 'widthPercent': 0.45, 'rescaleHeight': False, 'trialN': 72, 'loaded': True, 'loadedTime': 8861, 'positionName': 'LEFT', 'positionCoords': [246.68, 179.5], 'bid': 7.67}, {'imgObject': {}, 'id': 'roastedpotatoes', 'src': '/static/foodstim60/roastedpotatoes.jpg', 'key': 'i', 'origWidth': 409, 'origHeight': 410, 'width': 409, 'height': 410, 'widthPercent': 0.45, 'rescaleHeight': False, 'trialN': 72, 'loaded': True, 'loadedTime': 8056, 'positionName': 'RIGHT', 'positionCoords': [710.32, 179], 'bid': 5.98}]",119042,1669833325865,mashed potato,roastedpotatoes,7.67,5.98,-1.6899999999999995,mashed potato,1142,1143,1143.0,True,u,120689,1647,1669833327512,1647,HRV,HRV_0047,2022-11-30 18:38:34
73,"[{'imgObject': {}, 'id': 'raisin bran w milk', 'src': '/static/foodstim60/raisin bran w milk.jpg', 'key': 'u', 'origWidth': 411, 'origHeight': 411, 'width': 411, 'height': 411, 'widthPercent': 0.45, 'rescaleHeight': False, 'trialN': 73, 'loaded': True, 'loadedTime': 6659, 'positionName': 'LEFT', 'positionCoords': [244.68, 178.5], 'bid': 5.68}, {'imgObject': {}, 'id': 'corn cob', 'src': '/static/foodstim60/corn cob.jpg', 'key': 'i', 'origWidth': 411, 'origHeight': 411, 'width': 411, 'height': 411, 'widthPercent': 0.45, 'rescaleHeight': False, 'trialN': 73, 'loaded': True, 'loadedTime': 7899, 'positionName': 'RIGHT', 'positionCoords': [710.32, 178.5], 'bid': 6.66}]",120690,1669833327513,raisin bran w milk,corn cob,5.68,6.66,0.9800000000000004,corn cob,711,711,711.0,True,i,121903,1213,1669833328726,1213,HRV,HRV_0047,2022-11-30 18:38:34
74,"[{'imgObject': {}, 'id': 'fruitsalad', 'src': '/static/foodstim60/fruitsalad.jpg', 'key': 'u', 'origWidth': 410, 'origHeight': 410, 'width': 410, 'height': 410, 'widthPercent': 0.45, 'rescaleHeight': False, 'trialN': 74, 'loaded': True, 'loadedTime': 8764, 'positionName': 'LEFT', 'positionCoords': [245.68, 179], 'bid': 7.67}, {'imgObject': {}, 'id': 'omelette', 'src': '/static/foodstim60/omelette.jpg', 'key': 'i', 'origWidth': 410, 'origHeight': 409, 'width': 410, 'height': 409, 'widthPercent': 0.45, 'rescaleHeight': False, 'trialN': 74, 'loaded': True, 'loadedTime': 8870, 'positionName': 'RIGHT', 'positionCoords': [710.32, 179.5], 'bid': 7.1000000000000005}]",121904,1669833328727,fruitsalad,omelette,7.67,7.1000000000000005,-0.5699999999999994,fruitsalad,1099,1099,1099.0,True,u,123519,1615,1669833330342,1615,HRV,HRV_0047,2022-11-30 18:38:34
75,"[{'imgObject': {}, 'id': 'cantaloupe', 'src': '/static/foodstim60/cantaloupe.jpg', 'key': 'u', 'origWidth': 409, 'origHeight': 409, 'width': 409, 'height': 409, 'widthPercent': 0.45, 'rescaleHeight': False, 'trialN': 75, 'loaded': True, 'loadedTime': 7831, 'positionName': 'LEFT', 'positionCoords': [246.68, 179.5], 'bid': 7.35}, {'imgObject': {}, 'id': 'lox', 'src': '/static/foodstim60/lox.jpg', 'key': 'i', 'origWidth': 410, 'origHeight': 411, 'width': 410, 'height': 411, 'widthPercent': 0.45, 'rescaleHeight': False, 'trialN': 75, 'loaded': True, 'loadedTime': 8204, 'positionName': 'RIGHT', 'positionCoords': [710.32, 178.5], 'bid': 5.26}]",123519,1669833330342,cantaloupe,lox,7.35,5.26,-2.09,lox,1203,1203,1203.0,True,i,125224,1705,1669833332048,1706,HRV,HRV_0047,2022-11-30 18:38:34
76,"[{'imgObject': {}, 'id': 'bagel plain', 'src': '/static/foodstim60/bagel plain.jpg', 'key': 'u', 'origWidth': 410, 'origHeight': 410, 'width': 410, 'height': 410, 'widthPercent': 0.45, 'rescaleHeight': False, 'trialN': 76, 'loaded': True, 'loadedTime': 6863, 'positionName': 'LEFT', 'positionCoords': [245.68, 179], 'bid': 9.56}, {'imgObject': {}, 'id': 'mashed potato', 'src': '/static/foodstim60/mashed potato.jpg', 'key': 'i', 'origWidth': 409, 'origHeight': 409, 'width': 409, 'height': 409, 'widthPercent': 0.45, 'rescaleHeight': False, 'trialN': 76, 'loaded': True, 'loadedTime': 8862, 'positionName': 'RIGHT', 'positionCoords': [710.32, 179.5], 'bid': 7.67}]",125227,1669833332050,bagel plain,mashed potato,9.56,7.67,-1.8900000000000006,bagel plain,1040,1040,1040.0,True,u,126768,1541,1669833333591,1541,HRV,HRV_0047,2022-11-30 18:38:34
77,"[{'imgObject': {}, 'id': 'salmon', 'src': '/static/foodstim60/salmon.jpg', 'key': 'u', 'origWidth': 410, 'origHeight': 409, 'width': 410, 'height': 409, 'widthPercent': 0.45, 'rescaleHeight': False, 'trialN': 77, 'loaded': True, 'loadedTime': 7773, 'positionName': 'LEFT', 'positionCoords': [245.68, 179.5], 'bid': 7.97}, {'imgObject': {}, 'id': 'edamame', 'src': '/static/foodstim60/edamame.jpg', 'key': 'i', 'origWidth': 409, 'origHeight': 410, 'width': 409, 'height': 410, 'widthPercent': 0.45, 'rescaleHeight': False, 'trialN': 77, 'loaded': True, 'loadedTime': 8622, 'positionName': 'RIGHT', 'positionCoords': [710.32, 179], 'bid': 7.84}]",126769,1669833333592,salmon,edamame,7.97,7.84,-0.1299999999999999,edamame,1290,1290,1290.0,True,i,128572,1803,1669833335395,1803,HRV,HRV_0047,2022-11-30 18:38:34
78,"[{'imgObject': {}, 'id': 'seaweed', 'src': '/static/foodstim60/seaweed.jpg', 'key': 'u', 'origWidth': 410, 'origHeight': 410, 'width': 410, 'height': 410, 'widthPercent': 0.45, 'rescaleHeight': False, 'trialN': 78, 'loaded': True, 'loadedTime': 7689, 'positionName': 'LEFT', 'positionCoords': [245.68, 179], 'bid': 6.8100000000000005}, {'imgObject': {}, 'id': 'mango', 'src': '/static/foodstim60/mango.jpg', 'key': 'i', 'origWidth': 411, 'origHeight': 411, 'width': 411, 'height': 411, 'widthPercent': 0.45, 'rescaleHeight': False, 'trialN': 78, 'loaded': True, 'loadedTime': 6799, 'positionName': 'RIGHT', 'positionCoords': [710.32, 178.5], 'bid': 6.03}]",128573,1669833335396,seaweed,mango,6.8100000000000005,6.03,-0.7800000000000002,seaweed,1152,1152,1152.0,True,u,130240,1667,1669833337063,1667,HRV,HRV_0047,2022-11-30 18:38:34
79,"[{'imgObject': {}, 'id': 'apple slices', 'src': '/static/foodstim60/apple slices.jpg', 'key': 'u', 'origWidth': 409, 'origHeight': 410, 'width': 409, 'height': 410, 'widthPercent': 0.45, 'rescaleHeight': False, 'trialN': 79, 'loaded': True, 'loadedTime': 8852, 'positionName': 'LEFT', 'positionCoords': [246.68, 179], 'bid': 7.28}, {'imgObject': {}, 'id': 'cantaloupe', 'src': '/static/foodstim60/cantaloupe.jpg', 'key': 'i', 'origWidth': 409, 'origHeight': 409, 'width': 409, 'height': 409, 'widthPercent': 0.45, 'rescaleHeight': False, 'trialN': 79, 'loaded': True, 'loadedTime': 7838, 'positionName': 'RIGHT', 'positionCoords': [710.32, 179.5], 'bid': 7.35}]",130242,1669833337065,apple slices,cantaloupe,7.28,7.35,0.0699999999999994,apple slices,1078,1079,1079.0,True,u,131824,1582,1669833338647,1582,HRV,HRV_0047,2022-11-30 18:38:34
80,"[{'imgObject': {}, 'id': 'Grapes', 'src': '/static/foodstim60/Grapes.jpg', 'key': 'u', 'origWidth': 411, 'origHeight': 411, 'width': 411, 'height': 411, 'widthPercent': 0.45, 'rescaleHeight': False, 'trialN': 80, 'loaded': True, 'loadedTime': 8748, 'positionName': 'LEFT', 'positionCoords': [244.68, 178.5], 'bid': 6.97}, {'imgObject': {}, 'id': 'sweetpotato', 'src': '/static/foodstim60/sweetpotato.jpg', 'key': 'i', 'origWidth': 410, 'origHeight': 410, 'width': 410, 'height': 410, 'widthPercent': 0.45, 'rescaleHeight': False, 'trialN': 80, 'loaded': True, 'loadedTime': 8874, 'positionName': 'RIGHT', 'positionCoords': [710.32, 179], 'bid': 7.54}]",131825,1669833338648,Grapes,sweetpotato,6.97,7.54,0.5700000000000003,sweetpotato,1777,1777,1777.0,True,i,134111,2286,1669833340934,2286,HRV,HRV_0047,2022-11-30 18:38:34
81,"[{'imgObject': {}, 'id': 'kiwi', 'src': '/static/foodstim60/kiwi.jpg', 'key': 'u', 'origWidth': 410, 'origHeight': 410, 'width': 410, 'height': 410, 'widthPercent': 0.45, 'rescaleHeight': False, 'trialN': 81, 'loaded': True, 'loadedTime': 7794, 'positionName': 'LEFT', 'positionCoords': [245.68, 179], 'bid': 6.03}, {'imgObject': {}, 'id': 'Grapes', 'src': '/static/foodstim60/Grapes.jpg', 'key': 'i', 'origWidth': 411, 'origHeight': 411, 'width': 411, 'height': 411, 'widthPercent': 0.45, 'rescaleHeight': False, 'trialN': 81, 'loaded': True, 'loadedTime': 8748, 'positionName': 'RIGHT', 'positionCoords': [710.32, 178.5], 'bid': 6.97}]",134111,1669833340934,kiwi,Grapes,6.03,6.97,0.9399999999999995,kiwi,1782,1782,1782.0,True,u,136501,2390,1669833343324,2390,HRV,HRV_0047,2022-11-30 18:38:34
82,"[{'imgObject': {}, 'id': 'fried eggs', 'src': '/static/foodstim60/fried eggs.jpg', 'key': 'u', 'origWidth': 410, 'origHeight': 410, 'width': 410, 'height': 410, 'widthPercent': 0.45, 'rescaleHeight': False, 'trialN': 82, 'loaded': True, 'loadedTime': 8875, 'positionName': 'LEFT', 'positionCoords': [245.68, 179], 'bid': 5.84}, {'imgObject': {}, 'id': 'roastedpotatoes', 'src': '/static/foodstim60/roastedpotatoes.jpg', 'key': 'i', 'origWidth': 409, 'origHeight': 410, 'width': 409, 'height': 410, 'widthPercent': 0.45, 'rescaleHeight': False, 'trialN': 82, 'loaded': True, 'loadedTime': 8051, 'positionName': 'RIGHT', 'positionCoords': [710.32, 179], 'bid': 5.98}]",136501,1669833343324,fried eggs,roastedpotatoes,5.84,5.98,0.14000000000000057,roastedpotatoes,892,892,892.0,True,i,137911,1410,1669833344734,1410,HRV,HRV_0047,2022-11-30 18:38:34
83,"[{'imgObject': {}, 'id': 'avocado', 'src': '/static/foodstim60/avocado.jpg', 'key': 'u', 'origWidth': 409, 'origHeight': 409, 'width': 409, 'height': 409, 'widthPercent': 0.45, 'rescaleHeight': False, 'trialN': 83, 'loaded': True, 'loadedTime': 8726, 'positionName': 'LEFT', 'positionCoords': [246.68, 179.5], 'bid': 6.36}, {'imgObject': {}, 'id': 'cheerios', 'src': '/static/foodstim60/cheerios.jpg', 'key': 'i', 'origWidth': 409, 'origHeight': 410, 'width': 409, 'height': 410, 'widthPercent': 0.45, 'rescaleHeight': False, 'trialN': 83, 'loaded': True, 'loadedTime': 7943, 'positionName': 'RIGHT', 'positionCoords': [710.32, 179], 'bid': 6.34}]",137911,1669833344734,avocado,cheerios,6.36,6.34,-0.020000000000000462,avocado,860,861,861.0,True,u,139279,1368,1669833346102,1368,HRV,HRV_0047,2022-11-30 18:38:34
84,"[{'imgObject': {}, 'id': 'burrito', 'src': '/static/foodstim60/burrito.jpg', 'key': 'u', 'origWidth': 410, 'origHeight': 410, 'width': 410, 'height': 410, 'widthPercent': 0.45, 'rescaleHeight': False, 'trialN': 84, 'loaded': True, 'loadedTime': 8228, 'positionName': 'LEFT', 'positionCoords': [245.68, 179], 'bid': 5.76}, {'imgObject': {}, 'id': 'kiwi', 'src': '/static/foodstim60/kiwi.jpg', 'key': 'i', 'origWidth': 410, 'origHeight': 410, 'width': 410, 'height': 410, 'widthPercent': 0.45, 'rescaleHeight': False, 'trialN': 84, 'loaded': True, 'loadedTime': 7789, 'positionName': 'RIGHT', 'positionCoords': [710.32, 179], 'bid': 6.03}]",139280,1669833346103,burrito,kiwi,5.76,6.03,0.27000000000000046,kiwi,974,974,974.0,True,i,140760,1480,1669833347583,1480,HRV,HRV_0047,2022-11-30 18:38:34
85,"[{'imgObject': {}, 'id': 'shreddedwheatwithmilk', 'src': '/static/foodstim60/shreddedwheatwithmilk.jpg', 'key': 'u', 'origWidth': 410, 'origHeight': 410, 'width': 410, 'height': 410, 'widthPercent': 0.45, 'rescaleHeight': False, 'trialN': 85, 'loaded': True, 'loadedTime': 8474, 'positionName': 'LEFT', 'positionCoords': [245.68, 179], 'bid': 3.4}, {'imgObject': {}, 'id': 'seaweed', 'src': '/static/foodstim60/seaweed.jpg', 'key': 'i', 'origWidth': 410, 'origHeight': 410, 'width': 410, 'height': 410, 'widthPercent': 0.45, 'rescaleHeight': False, 'trialN': 85, 'loaded': True, 'loadedTime': 7694, 'positionName': 'RIGHT', 'positionCoords': [710.32, 179], 'bid': 6.8100000000000005}]",140760,1669833347583,shreddedwheatwithmilk,seaweed,3.4,6.8100000000000005,3.4100000000000006,shreddedwheatwithmilk,1103,1104,1104.0,True,u,142379,1619,1669833349202,1619,HRV,HRV_0047,2022-11-30 18:38:34
86,"[{'imgObject': {}, 'id': 'lox', 'src': '/static/foodstim60/lox.jpg', 'key': 'u', 'origWidth': 410, 'origHeight': 411, 'width': 410, 'height': 411, 'widthPercent': 0.45, 'rescaleHeight': False, 'trialN': 86, 'loaded': True, 'loadedTime': 8204, 'positionName': 'LEFT', 'positionCoords': [245.68, 178.5], 'bid': 5.26}, {'imgObject': {}, 'id': 'olives', 'src': '/static/foodstim60/olives.jpg', 'key': 'i', 'origWidth': 410, 'origHeight': 410, 'width': 410, 'height': 410, 'widthPercent': 0.45, 'rescaleHeight': False, 'trialN': 86, 'loaded': True, 'loadedTime': 8083, 'positionName': 'RIGHT', 'positionCoords': [710.32, 179], 'bid': 4.7}]",142380,1669833349203,lox,olives,5.26,4.7,-0.5599999999999996,olives,924,924,924.0,True,i,143815,1435,1669833350638,1435,HRV,HRV_0047,2022-11-30 18:38:34
87,"[{'imgObject': {}, 'id': 'rigatoni and sauce', 'src': '/static/foodstim60/rigatoni and sauce.jpg', 'key': 'u', 'origWidth': 410, 'origHeight': 411, 'width': 410, 'height': 411, 'widthPercent': 0.45, 'rescaleHeight': False, 'trialN': 87, 'loaded': True, 'loadedTime': 7215, 'positionName': 'LEFT', 'positionCoords': [245.68, 178.5], 'bid': 3.53}, {'imgObject': {}, 'id': 'popsicles', 'src': '/static/foodstim60/popsicles.jpg', 'key': 'i', 'origWidth': 410, 'origHeight': 410, 'width': 410, 'height': 410, 'widthPercent': 0.45, 'rescaleHeight': False, 'trialN': 87, 'loaded': True, 'loadedTime': 8783, 'positionName': 'RIGHT', 'positionCoords': [710.32, 179], 'bid': 5.79}]",143815,1669833350638,rigatoni and sauce,popsicles,3.53,5.79,2.2600000000000002,popsicles,1578,1578,1578.0,True,i,145908,2093,1669833352731,2093,HRV,HRV_0047,2022-11-30 18:38:34
88,"[{'imgObject': {}, 'id': 'chicken nuggets2', 'src': '/static/foodstim60/chicken nuggets2.jpg', 'key': 'u', 'origWidth': 410, 'origHeight': 409, 'width': 410, 'height': 409, 'widthPercent': 0.45, 'rescaleHeight': False, 'trialN': 88, 'loaded': True, 'loadedTime': 8805, 'positionName': 'LEFT', 'positionCoords': [245.68, 179.5], 'bid': 7.37}, {'imgObject': {}, 'id': 'tacos', 'src': '/static/foodstim60/tacos.jpg', 'key': 'i', 'origWidth': 411, 'origHeight': 411, 'width': 411, 'height': 411, 'widthPercent': 0.45, 'rescaleHeight': False, 'trialN': 88, 'loaded': True, 'loadedTime': 8259, 'positionName': 'RIGHT', 'positionCoords': [710.32, 178.5], 'bid': 8.51}]",145908,1669833352731,chicken nuggets2,tacos,7.37,8.51,1.1399999999999997,chicken nuggets2,859,859,859.0,True,u,147274,1366,1669833354097,1366,HRV,HRV_0047,2022-11-30 18:38:34
89,"[{'imgObject': {}, 'id': 'avocado', 'src': '/static/foodstim60/avocado.jpg', 'key': 'u', 'origWidth': 409, 'origHeight': 409, 'width': 409, 'height': 409, 'widthPercent': 0.45, 'rescaleHeight': False, 'trialN': 89, 'loaded': True, 'loadedTime': 8721, 'positionName': 'LEFT', 'positionCoords': [246.68, 179.5], 'bid': 6.36}, {'imgObject': {}, 'id': 'cherry tomato', 'src': '/static/foodstim60/cherry tomato.jpg', 'key': 'i', 'origWidth': 410, 'origHeight': 410, 'width': 410, 'height': 410, 'widthPercent': 0.45, 'rescaleHeight': False, 'trialN': 89, 'loaded': True, 'loadedTime': 8188, 'positionName': 'RIGHT', 'positionCoords': [710.32, 179], 'bid': 7.22}]",147275,1669833354098,avocado,cherry tomato,6.36,7.22,0.8599999999999994,cherry tomato,926,927,927.0,True,i,148704,1429,1669833355527,1429,HRV,HRV_0047,2022-11-30 18:38:34
90,"[{'imgObject': {}, 'id': 'edamame', 'src': '/static/foodstim60/edamame.jpg', 'key': 'u', 'origWidth': 409, 'origHeight': 410, 'width': 409, 'height': 410, 'widthPercent': 0.45, 'rescaleHeight': False, 'trialN': 90, 'loaded': True, 'loadedTime': 8591, 'positionName': 'LEFT', 'positionCoords': [246.68, 179], 'bid': 7.84}, {'imgObject': {}, 'id': 'granola w milk', 'src': '/static/foodstim60/granola w milk.jpg', 'key': 'i', 'origWidth': 410, 'origHeight': 410, 'width': 410, 'height': 410, 'widthPercent': 0.45, 'rescaleHeight': False, 'trialN': 90, 'loaded': True, 'loadedTime': 8801, 'positionName': 'RIGHT', 'positionCoords': [710.32, 179], 'bid': 8.63}]",153902,1669833360725,edamame,granola w milk,7.84,8.63,0.7900000000000009,edamame,1696,1706,1706.0,True,u,156112,2210,1669833362935,2210,HRV,HRV_0047,2022-11-30 18:38:34
91,"[{'imgObject': {}, 'id': 'grilled chicken strips', 'src': '/static/foodstim60/grilled chicken strips.jpg', 'key': 'u', 'origWidth': 410, 'origHeight': 411, 'width': 410, 'height': 411, 'widthPercent': 0.45, 'rescaleHeight': False, 'trialN': 91, 'loaded': True, 'loadedTime': 8121, 'positionName': 'LEFT', 'positionCoords': [245.68, 178.5], 'bid': 7.5}, {'imgObject': {}, 'id': 'raisin bran w milk', 'src': '/static/foodstim60/raisin bran w milk.jpg', 'key': 'i', 'origWidth': 411, 'origHeight': 411, 'width': 411, 'height': 411, 'widthPercent': 0.45, 'rescaleHeight': False, 'trialN': 91, 'loaded': True, 'loadedTime': 6728, 'positionName': 'RIGHT', 'positionCoords': [710.32, 178.5], 'bid': 5.68}]",156113,1669833362936,grilled chicken strips,raisin bran w milk,7.5,5.68,-1.8200000000000003,raisin bran w milk,1099,1099,1099.0,True,i,157720,1607,1669833364543,1607,HRV,HRV_0047,2022-11-30 18:38:34
92,"[{'imgObject': {}, 'id': 'froot loops w milk', 'src': '/static/foodstim60/froot loops w milk.jpg', 'key': 'u', 'origWidth': 410, 'origHeight': 410, 'width': 410, 'height': 410, 'widthPercent': 0.45, 'rescaleHeight': False, 'trialN': 92, 'loaded': True, 'loadedTime': 8427, 'positionName': 'LEFT', 'positionCoords': [245.68, 179], 'bid': 6.53}, {'imgObject': {}, 'id': 'avocado', 'src': '/static/foodstim60/avocado.jpg', 'key': 'i', 'origWidth': 409, 'origHeight': 409, 'width': 409, 'height': 409, 'widthPercent': 0.45, 'rescaleHeight': False, 'trialN': 92, 'loaded': True, 'loadedTime': 8743, 'positionName': 'RIGHT', 'positionCoords': [710.32, 179.5], 'bid': 6.36}]",157720,1669833364543,froot loops w milk,avocado,6.53,6.36,-0.16999999999999993,froot loops w milk,891,891,891.0,True,u,159116,1396,1669833365939,1396,HRV,HRV_0047,2022-11-30 18:38:34
93,"[{'imgObject': {}, 'id': 'eggs', 'src': '/static/foodstim60/eggs.jpg', 'key': 'u', 'origWidth': 409, 'origHeight': 409, 'width': 409, 'height': 409, 'widthPercent': 0.45, 'rescaleHeight': False, 'trialN': 93, 'loaded': True, 'loadedTime': 7602, 'positionName': 'LEFT', 'positionCoords': [246.68, 179.5], 'bid': 4.44}, {'imgObject': {}, 'id': 'fried eggs', 'src': '/static/foodstim60/fried eggs.jpg', 'key': 'i', 'origWidth': 410, 'origHeight': 410, 'width': 410, 'height': 410, 'widthPercent': 0.45, 'rescaleHeight': False, 'trialN': 93, 'loaded': True, 'loadedTime': 8878, 'positionName': 'RIGHT', 'positionCoords': [710.32, 179], 'bid': 5.84}]",159116,1669833365939,eggs,fried eggs,4.44,5.84,1.3999999999999995,fried eggs,887,887,887.0,True,i,160505,1389,1669833367328,1389,HRV,HRV_0047,2022-11-30 18:38:34
94,"[{'imgObject': {}, 'id': 'cantaloupe', 'src': '/static/foodstim60/cantaloupe.jpg', 'key': 'u', 'origWidth': 409, 'origHeight': 409, 'width': 409, 'height': 409, 'widthPercent': 0.45, 'rescaleHeight': False, 'trialN': 94, 'loaded': True, 'loadedTime': 7842, 'positionName': 'LEFT', 'positionCoords': [246.68, 179.5], 'bid': 7.35}, {'imgObject': {}, 'id': 'cocktailshrimp', 'src': '/static/foodstim60/cocktailshrimp.jpg', 'key': 'i', 'origWidth': 410, 'origHeight': 410, 'width': 410, 'height': 410, 'widthPercent': 0.45, 'rescaleHeight': False, 'trialN': 94, 'loaded': True, 'loadedTime': 8412, 'positionName': 'RIGHT', 'positionCoords': [710.32, 179], 'bid': 7.25}]",160505,1669833367328,cantaloupe,cocktailshrimp,7.35,7.25,-0.09999999999999964,cantaloupe,1059,1059,1059.0,True,u,162113,1608,1669833368936,1608,HRV,HRV_0047,2022-11-30 18:38:34
95,"[{'imgObject': {}, 'id': 'eggsalad', 'src': '/static/foodstim60/eggsalad.jpg', 'key': 'u', 'origWidth': 410, 'origHeight': 409, 'width': 410, 'height': 409, 'widthPercent': 0.45, 'rescaleHeight': False, 'trialN': 95, 'loaded': True, 'loadedTime': 8814, 'positionName': 'LEFT', 'positionCoords': [245.68, 179.5], 'bid': 7.65}, {'imgObject': {}, 'id': 'fried eggs', 'src': '/static/foodstim60/fried eggs.jpg', 'key': 'i', 'origWidth': 410, 'origHeight': 410, 'width': 410, 'height': 410, 'widthPercent': 0.45, 'rescaleHeight': False, 'trialN': 95, 'loaded': True, 'loadedTime': 8878, 'positionName': 'RIGHT', 'positionCoords': [710.32, 179], 'bid': 5.84}]",162114,1669833368937,eggsalad,fried eggs,7.65,5.84,-1.8100000000000005,fried eggs,1169,1169,1169.0,True,i,163783,1669,1669833370606,1669,HRV,HRV_0047,2022-11-30 18:38:34
96,"[{'imgObject': {}, 'id': 'fruitsalad', 'src': '/static/foodstim60/fruitsalad.jpg', 'key': 'u', 'origWidth': 410, 'origHeight': 410, 'width': 410, 'height': 410, 'widthPercent': 0.45, 'rescaleHeight': False, 'trialN': 96, 'loaded': True, 'loadedTime': 8769, 'positionName': 'LEFT', 'positionCoords': [245.68, 179], 'bid': 7.67}, {'imgObject': {}, 'id': 'strawberries', 'src': '/static/foodstim60/strawberries.jpg', 'key': 'i', 'origWidth': 410, 'origHeight': 410, 'width': 410, 'height': 410, 'widthPercent': 0.45, 'rescaleHeight': False, 'trialN': 96, 'loaded': True, 'loadedTime': 7825, 'positionName': 'RIGHT', 'positionCoords': [710.32, 179], 'bid': 8.41}]",163783,1669833370606,fruitsalad,strawberries,7.67,8.41,0.7400000000000002,fruitsalad,943,943,943.0,True,u,165241,1458,1669833372064,1458,HRV,HRV_0047,2022-11-30 18:38:34
97,"[{'imgObject': {}, 'id': 'fried eggs', 'src': '/static/foodstim60/fried eggs.jpg', 'key': 'u', 'origWidth': 410, 'origHeight': 410, 'width': 410, 'height': 410, 'widthPercent': 0.45, 'rescaleHeight': False, 'trialN': 97, 'loaded': True, 'loadedTime': 8878, 'positionName': 'LEFT', 'positionCoords': [245.68, 179], 'bid': 5.84}, {'imgObject': {}, 'id': 'banana', 'src': '/static/foodstim60/banana.jpg', 'key': 'i', 'origWidth': 410, 'origHeight': 410, 'width': 410, 'height': 410, 'widthPercent': 0.45, 'rescaleHeight': False, 'trialN': 97, 'loaded': True, 'loadedTime': 8628, 'positionName': 'RIGHT', 'positionCoords': [710.32, 179], 'bid': 3.65}]",165241,1669833372064,fried eggs,banana,5.84,3.65,-2.19,banana,1449,1449,1449.0,True,i,167205,1964,1669833374028,1964,HRV,HRV_0047,2022-11-30 18:38:34
98,"[{'imgObject': {}, 'id': 'grilled chicken strips', 'src': '/static/foodstim60/grilled chicken strips.jpg', 'key': 'u', 'origWidth': 410, 'origHeight': 411, 'width': 410, 'height': 411, 'widthPercent': 0.45, 'rescaleHeight': False, 'trialN': 98, 'loaded': True, 'loadedTime': 8128, 'positionName': 'LEFT', 'positionCoords': [245.68, 178.5], 'bid': 7.5}, {'imgObject': {}, 'id': 'apple slices', 'src': '/static/foodstim60/apple slices.jpg', 'key': 'i', 'origWidth': 409, 'origHeight': 410, 'width': 409, 'height': 410, 'widthPercent': 0.45, 'rescaleHeight': False, 'trialN': 98, 'loaded': True, 'loadedTime': 8852, 'positionName': 'RIGHT', 'positionCoords': [710.32, 179], 'bid': 7.28}]",167205,1669833374028,grilled chicken strips,apple slices,7.5,7.28,-0.21999999999999975,grilled chicken strips,798,798,798.0,True,u,168520,1315,1669833375343,1315,HRV,HRV_0047,2022-11-30 18:38:34
99,"[{'imgObject': {}, 'id': 'raisin bran w milk', 'src': '/static/foodstim60/raisin bran w milk.jpg', 'key': 'u', 'origWidth': 411, 'origHeight': 411, 'width': 411, 'height': 411, 'widthPercent': 0.45, 'rescaleHeight': False, 'trialN': 99, 'loaded': True, 'loadedTime': 6748, 'positionName': 'LEFT', 'positionCoords': [244.68, 178.5], 'bid': 5.68}, {'imgObject': {}, 'id': 'luckycharms', 'src': '/static/foodstim60/luckycharms.jpg', 'key': 'i', 'origWidth': 410, 'origHeight': 409, 'width': 410, 'height': 409, 'widthPercent': 0.45, 'rescaleHeight': False, 'trialN': 99, 'loaded': True, 'loadedTime': 8136, 'positionName': 'RIGHT', 'positionCoords': [710.32, 179.5], 'bid': 5.5200000000000005}]",168521,1669833375344,raisin bran w milk,luckycharms,5.68,5.5200000000000005,-0.15999999999999925,luckycharms,981,981,981.0,True,i,170020,1499,1669833376843,1499,HRV,HRV_0047,2022-11-30 18:38:34
100,"[{'imgObject': {}, 'id': 'baked potato', 'src': '/static/foodstim60/baked potato.jpg', 'key': 'u', 'origWidth': 409, 'origHeight': 410, 'width': 409, 'height': 410, 'widthPercent': 0.45, 'rescaleHeight': False, 'trialN': 100, 'loaded': True, 'loadedTime': 7975, 'positionName': 'LEFT', 'positionCoords': [246.68, 179], 'bid': 5.58}, {'imgObject': {}, 'id': 'mac & cheese', 'src': '/static/foodstim60/mac & cheese.jpg', 'key': 'i', 'origWidth': 410, 'origHeight': 410, 'width': 410, 'height': 410, 'widthPercent': 0.45, 'rescaleHeight': False, 'trialN': 100, 'loaded': True, 'loadedTime': 7369, 'positionName': 'RIGHT', 'positionCoords': [710.32, 179], 'bid': 3.72}]",170020,1669833376843,baked potato,mac & cheese,5.58,3.72,-1.8599999999999999,baked potato,1155,1155,1155.0,True,u,171689,1669,1669833378512,1669,HRV,HRV_0047,2022-11-30 18:38:34
101,"[{'imgObject': {}, 'id': 'chickenfingers', 'src': '/static/foodstim60/chickenfingers.jpg', 'key': 'u', 'origWidth': 410, 'origHeight': 410, 'width': 410, 'height': 410, 'widthPercent': 0.45, 'rescaleHeight': False, 'trialN': 101, 'loaded': True, 'loadedTime': 7643, 'positionName': 'LEFT', 'positionCoords': [245.68, 179], 'bid': 4.39}, {'imgObject': {}, 'id': 'Tribe humus pita', 'src': '/static/foodstim60/Tribe humus pita.jpg', 'key': 'i', 'origWidth': 411, 'origHeight': 411, 'width': 411, 'height': 411, 'widthPercent': 0.45, 'rescaleHeight': False, 'trialN': 101, 'loaded': True, 'loadedTime': 8564, 'positionName': 'RIGHT', 'positionCoords': [710.32, 178.5], 'bid': 3.79}]",171689,1669833378512,chickenfingers,Tribe humus pita,4.39,3.79,-0.5999999999999996,Tribe humus pita,833,838,838.0,True,i,173037,1348,1669833379860,1348,HRV,HRV_0047,2022-11-30 18:38:34
102,"[{'imgObject': {}, 'id': 'ice cream sundae 002', 'src': '/static/foodstim60/ice cream sundae 002.jpg', 'key': 'u', 'origWidth': 409, 'origHeight': 409, 'width': 409, 'height': 409, 'widthPercent': 0.45, 'rescaleHeight': False, 'trialN': 102, 'loaded': True, 'loadedTime': 7494, 'positionName': 'LEFT', 'positionCoords': [246.68, 179.5], 'bid': 6.3}, {'imgObject': {}, 'id': 'kiwi', 'src': '/static/foodstim60/kiwi.jpg', 'key': 'i', 'origWidth': 410, 'origHeight': 410, 'width': 410, 'height': 410, 'widthPercent': 0.45, 'rescaleHeight': False, 'trialN': 102, 'loaded': True, 'loadedTime': 7798, 'positionName': 'RIGHT', 'positionCoords': [710.32, 179], 'bid': 6.03}]",173037,1669833379860,ice cream sundae 002,kiwi,6.3,6.03,-0.2699999999999996,ice cream sundae 002,811,812,812.0,True,u,174366,1329,1669833381189,1329,HRV,HRV_0047,2022-11-30 18:38:34
103,"[{'imgObject': {}, 'id': 'Tribe humus pita', 'src': '/static/foodstim60/Tribe humus pita.jpg', 'key': 'u', 'origWidth': 411, 'origHeight': 411, 'width': 411, 'height': 411, 'widthPercent': 0.45, 'rescaleHeight': False, 'trialN': 103, 'loaded': True, 'loadedTime': 8565, 'positionName': 'LEFT', 'positionCoords': [244.68, 178.5], 'bid': 3.79}, {'imgObject': {}, 'id': 'turkey sandwich', 'src': '/static/foodstim60/turkey sandwich.jpg', 'key': 'i', 'origWidth': 409, 'origHeight': 409, 'width': 409, 'height': 409, 'widthPercent': 0.45, 'rescaleHeight': False, 'trialN': 103, 'loaded': True, 'loadedTime': 8458, 'positionName': 'RIGHT', 'positionCoords': [710.32, 179.5], 'bid': 3.98}]",174367,1669833381190,Tribe humus pita,turkey sandwich,3.79,3.98,0.18999999999999995,turkey sandwich,816,816,816.0,True,i,175691,1324,1669833382514,1324,HRV,HRV_0047,2022-11-30 18:38:34
104,"[{'imgObject': {}, 'id': 'banana', 'src': '/static/foodstim60/banana.jpg', 'key': 'u', 'origWidth': 410, 'origHeight': 410, 'width': 410, 'height': 410, 'widthPercent': 0.45, 'rescaleHeight': False, 'trialN': 104, 'loaded': True, 'loadedTime': 8626, 'positionName': 'LEFT', 'positionCoords': [245.68, 179], 'bid': 3.65}, {'imgObject': {}, 'id': 'shreddedwheatwithmilk', 'src': '/static/foodstim60/shreddedwheatwithmilk.jpg', 'key': 'i', 'origWidth': 410, 'origHeight': 410, 'width': 410, 'height': 410, 'widthPercent': 0.45, 'rescaleHeight': False, 'trialN': 104, 'loaded': True, 'loadedTime': 8475, 'positionName': 'RIGHT', 'positionCoords': [710.32, 179], 'bid': 3.4}]",175692,1669833382515,banana,shreddedwheatwithmilk,3.65,3.4,-0.25,shreddedwheatwithmilk,733,734,734.0,True,i,176942,1250,1669833383765,1250,HRV,HRV_0047,2022-11-30 18:38:34
105,"[{'imgObject': {}, 'id': 'raspberries', 'src': '/static/foodstim60/raspberries.jpg', 'key': 'u', 'origWidth': 411, 'origHeight': 411, 'width': 411, 'height': 411, 'widthPercent': 0.45, 'rescaleHeight': False, 'trialN': 105, 'loaded': True, 'loadedTime': 8339, 'positionName': 'LEFT', 'positionCoords': [244.68, 178.5], 'bid': 7.09}, {'imgObject': {}, 'id': 'omelette', 'src': '/static/foodstim60/omelette.jpg', 'key': 'i', 'origWidth': 410, 'origHeight': 409, 'width': 410, 'height': 409, 'widthPercent': 0.45, 'rescaleHeight': False, 'trialN': 105, 'loaded': True, 'loadedTime': 8869, 'positionName': 'RIGHT', 'positionCoords': [710.32, 179.5], 'bid': 7.1000000000000005}]",176942,1669833383765,raspberries,omelette,7.09,7.1000000000000005,0.010000000000000675,raspberries,98,98,98.0,True,u,177557,615,1669833384380,615,HRV,HRV_0047,2022-11-30 18:38:34
106,"[{'imgObject': {}, 'id': 'sweetpotato', 'src': '/static/foodstim60/sweetpotato.jpg', 'key': 'u', 'origWidth': 410, 'origHeight': 410, 'width': 410, 'height': 410, 'widthPercent': 0.45, 'rescaleHeight': False, 'trialN': 106, 'loaded': True, 'loadedTime': 8874, 'positionName': 'LEFT', 'positionCoords': [245.68, 179], 'bid': 7.54}, {'imgObject': {}, 'id': 'eggsalad', 'src': '/static/foodstim60/eggsalad.jpg', 'key': 'i', 'origWidth': 410, 'origHeight': 409, 'width': 410, 'height': 409, 'widthPercent': 0.45, 'rescaleHeight': False, 'trialN': 106, 'loaded': True, 'loadedTime': 8842, 'positionName': 'RIGHT', 'positionCoords': [710.32, 179.5], 'bid': 7.65}]",177562,1669833384385,sweetpotato,eggsalad,7.54,7.65,0.11000000000000032,eggsalad,1757,1757,1757.0,True,i,179833,2271,1669833386656,2271,HRV,HRV_0047,2022-11-30 18:38:34
107,"[{'imgObject': {}, 'id': 'mashed potato', 'src': '/static/foodstim60/mashed potato.jpg', 'key': 'u', 'origWidth': 409, 'origHeight': 409, 'width': 409, 'height': 409, 'widthPercent': 0.45, 'rescaleHeight': False, 'trialN': 107, 'loaded': True, 'loadedTime': 8858, 'positionName': 'LEFT', 'positionCoords': [246.68, 179.5], 'bid': 7.67}, {'imgObject': {}, 'id': 'hashbrowns', 'src': '/static/foodstim60/hashbrowns.jpg', 'key': 'i', 'origWidth': 411, 'origHeight': 410, 'width': 411, 'height': 410, 'widthPercent': 0.45, 'rescaleHeight': False, 'trialN': 107, 'loaded': True, 'loadedTime': 7924, 'positionName': 'RIGHT', 'positionCoords': [710.32, 179], 'bid': 7.19}]",179833,1669833386656,mashed potato,hashbrowns,7.67,7.19,-0.47999999999999954,mashed potato,779,779,779.0,True,u,181133,1300,1669833387956,1300,HRV,HRV_0047,2022-11-30 18:38:34
108,"[{'imgObject': {}, 'id': 'strawberries', 'src': '/static/foodstim60/strawberries.jpg', 'key': 'u', 'origWidth': 410, 'origHeight': 410, 'width': 410, 'height': 410, 'widthPercent': 0.45, 'rescaleHeight': False, 'trialN': 108, 'loaded': True, 'loadedTime': 7820, 'positionName': 'LEFT', 'positionCoords': [245.68, 179], 'bid': 8.41}, {'imgObject': {}, 'id': 'grilled chicken strips', 'src': '/static/foodstim60/grilled chicken strips.jpg', 'key': 'i', 'origWidth': 410, 'origHeight': 411, 'width': 410, 'height': 411, 'widthPercent': 0.45, 'rescaleHeight': False, 'trialN': 108, 'loaded': True, 'loadedTime': 8127, 'positionName': 'RIGHT', 'positionCoords': [710.32, 178.5], 'bid': 7.5}]",181133,1669833387956,strawberries,grilled chicken strips,8.41,7.5,-0.9100000000000001,grilled chicken strips,2885,2885,2885.0,True,i,184535,3402,1669833391358,3402,HRV,HRV_0047,2022-11-30 18:38:34
109,"[{'imgObject': {}, 'id': 'fruitsalad', 'src': '/static/foodstim60/fruitsalad.jpg', 'key': 'u', 'origWidth': 410, 'origHeight': 410, 'width': 410, 'height': 410, 'widthPercent': 0.45, 'rescaleHeight': False, 'trialN': 109, 'loaded': True, 'loadedTime': 8770, 'positionName': 'LEFT', 'positionCoords': [245.68, 179], 'bid': 7.67}, {'imgObject': {}, 'id': 'mashed potato', 'src': '/static/foodstim60/mashed potato.jpg', 'key': 'i', 'origWidth': 409, 'origHeight': 409, 'width': 409, 'height': 409, 'widthPercent': 0.45, 'rescaleHeight': False, 'trialN': 109, 'loaded': True, 'loadedTime': 8861, 'positionName': 'RIGHT', 'positionCoords': [710.32, 179.5], 'bid': 7.67}]",184536,1669833391359,fruitsalad,mashed potato,7.67,7.67,0.0,mashed potato,1343,1343,1343.0,True,i,186395,1859,1669833393218,1859,HRV,HRV_0047,2022-11-30 18:38:34
110,"[{'imgObject': {}, 'id': 'hotdog w must', 'src': '/static/foodstim60/hotdog w must.jpg', 'key': 'u', 'origWidth': 409, 'origHeight': 409, 'width': 409, 'height': 409, 'widthPercent': 0.45, 'rescaleHeight': False, 'trialN': 110, 'loaded': True, 'loadedTime': 8105, 'positionName': 'LEFT', 'positionCoords': [246.68, 179.5], 'bid': 5.92}, {'imgObject': {}, 'id': 'fruitsalad', 'src': '/static/foodstim60/fruitsalad.jpg', 'key': 'i', 'origWidth': 410, 'origHeight': 410, 'width': 410, 'height': 410, 'widthPercent': 0.45, 'rescaleHeight': False, 'trialN': 110, 'loaded': True, 'loadedTime': 8775, 'positionName': 'RIGHT', 'positionCoords': [710.32, 179], 'bid': 7.67}]",186395,1669833393218,hotdog w must,fruitsalad,5.92,7.67,1.75,fruitsalad,1628,1629,1629.0,True,i,188534,2139,1669833395357,2139,HRV,HRV_0047,2022-11-30 18:38:34
111,"[{'imgObject': {}, 'id': 'pear', 'src': '/static/foodstim60/pear.jpg', 'key': 'u', 'origWidth': 411, 'origHeight': 410, 'width': 411, 'height': 410, 'widthPercent': 0.45, 'rescaleHeight': False, 'trialN': 111, 'loaded': True, 'loadedTime': 8858, 'positionName': 'LEFT', 'positionCoords': [244.68, 179], 'bid': 8.82}, {'imgObject': {}, 'id': 'turkeysandwich', 'src': '/static/foodstim60/turkeysandwich.jpg', 'key': 'i', 'origWidth': 409, 'origHeight': 409, 'width': 409, 'height': 409, 'widthPercent': 0.45, 'rescaleHeight': False, 'trialN': 111, 'loaded': True, 'loadedTime': 8568, 'positionName': 'RIGHT', 'positionCoords': [710.32, 179.5], 'bid': 7.4}]",188538,1669833395361,pear,turkeysandwich,8.82,7.4,-1.42,pear,968,970,970.0,True,u,190019,1481,1669833396842,1481,HRV,HRV_0047,2022-11-30 18:38:34
112,"[{'imgObject': {}, 'id': 'omelette', 'src': '/static/foodstim60/omelette.jpg', 'key': 'u', 'origWidth': 410, 'origHeight': 409, 'width': 410, 'height': 409, 'widthPercent': 0.45, 'rescaleHeight': False, 'trialN': 112, 'loaded': True, 'loadedTime': 8863, 'positionName': 'LEFT', 'positionCoords': [245.68, 179.5], 'bid': 7.1000000000000005}, {'imgObject': {}, 'id': 'ice cream sundae 002', 'src': '/static/foodstim60/ice cream sundae 002.jpg', 'key': 'i', 'origWidth': 409, 'origHeight': 409, 'width': 409, 'height': 409, 'widthPercent': 0.45, 'rescaleHeight': False, 'trialN': 112, 'loaded': True, 'loadedTime': 7485, 'positionName': 'RIGHT', 'positionCoords': [710.32, 179.5], 'bid': 6.3}]",190020,1669833396843,omelette,ice cream sundae 002,7.1000000000000005,6.3,-0.8000000000000007,ice cream sundae 002,1029,1030,1030.0,True,i,191555,1535,1669833398378,1535,HRV,HRV_0047,2022-11-30 18:38:34
113,"[{'imgObject': {}, 'id': 'cherry tomato', 'src': '/static/foodstim60/cherry tomato.jpg', 'key': 'u', 'origWidth': 410, 'origHeight': 410, 'width': 410, 'height': 410, 'widthPercent': 0.45, 'rescaleHeight': False, 'trialN': 113, 'loaded': True, 'loadedTime': 8194, 'positionName': 'LEFT', 'positionCoords': [245.68, 179], 'bid': 7.22}, {'imgObject': {}, 'id': 'omelette', 'src': '/static/foodstim60/omelette.jpg', 'key': 'i', 'origWidth': 410, 'origHeight': 409, 'width': 410, 'height': 409, 'widthPercent': 0.45, 'rescaleHeight': False, 'trialN': 113, 'loaded': True, 'loadedTime': 8871, 'positionName': 'RIGHT', 'positionCoords': [710.32, 179.5], 'bid': 7.1000000000000005}]",191555,1669833398378,cherry tomato,omelette,7.22,7.1000000000000005,-0.11999999999999922,omelette,1212,1212,1212.0,True,i,193271,1716,1669833400094,1716,HRV,HRV_0047,2022-11-30 18:38:34
114,"[{'imgObject': {}, 'id': 'lox', 'src': '/static/foodstim60/lox.jpg', 'key': 'u', 'origWidth': 410, 'origHeight': 411, 'width': 410, 'height': 411, 'widthPercent': 0.45, 'rescaleHeight': False, 'trialN': 114, 'loaded': True, 'loadedTime': 8205, 'positionName': 'LEFT', 'positionCoords': [245.68, 178.5], 'bid': 5.26}, {'imgObject': {}, 'id': 'burger', 'src': '/static/foodstim60/burger.jpg', 'key': 'i', 'origWidth': 409, 'origHeight': 409, 'width': 409, 'height': 409, 'widthPercent': 0.45, 'rescaleHeight': False, 'trialN': 114, 'loaded': True, 'loadedTime': 7124, 'positionName': 'RIGHT', 'positionCoords': [710.32, 179.5], 'bid': 5.51}]",193275,1669833400098,lox,burger,5.26,5.51,0.25,burger,1416,1416,1416.0,True,i,195192,1917,1669833402015,1917,HRV,HRV_0047,2022-11-30 18:38:34
115,"[{'imgObject': {}, 'id': 'tacos', 'src': '/static/foodstim60/tacos.jpg', 'key': 'u', 'origWidth': 411, 'origHeight': 411, 'width': 411, 'height': 411, 'widthPercent': 0.45, 'rescaleHeight': False, 'trialN': 115, 'loaded': True, 'loadedTime': 8268, 'positionName': 'LEFT', 'positionCoords': [244.68, 178.5], 'bid': 8.51}, {'imgObject': {}, 'id': 'blackbeanswithrice', 'src': '/static/foodstim60/blackbeanswithrice.jpg', 'key': 'i', 'origWidth': 410, 'origHeight': 410, 'width': 410, 'height': 410, 'widthPercent': 0.45, 'rescaleHeight': False, 'trialN': 115, 'loaded': True, 'loadedTime': 7406, 'positionName': 'RIGHT', 'positionCoords': [710.32, 179], 'bid': 8.13}]",195192,1669833402015,tacos,blackbeanswithrice,8.51,8.13,-0.379999999999999,tacos,1233,1233,1233.0,True,u,196927,1735,1669833403750,1735,HRV,HRV_0047,2022-11-30 18:38:34
116,"[{'imgObject': {}, 'id': 'granola w milk', 'src': '/static/foodstim60/granola w milk.jpg', 'key': 'u', 'origWidth': 410, 'origHeight': 410, 'width': 410, 'height': 410, 'widthPercent': 0.45, 'rescaleHeight': False, 'trialN': 116, 'loaded': True, 'loadedTime': 8791, 'positionName': 'LEFT', 'positionCoords': [245.68, 179], 'bid': 8.63}, {'imgObject': {}, 'id': 'pear', 'src': '/static/foodstim60/pear.jpg', 'key': 'i', 'origWidth': 411, 'origHeight': 410, 'width': 411, 'height': 410, 'widthPercent': 0.45, 'rescaleHeight': False, 'trialN': 116, 'loaded': True, 'loadedTime': 8857, 'positionName': 'RIGHT', 'positionCoords': [710.32, 179], 'bid': 8.82}]",196927,1669833403750,granola w milk,pear,8.63,8.82,0.1899999999999995,pear,968,969,969.0,True,i,198414,1487,1669833405237,1487,HRV,HRV_0047,2022-11-30 18:38:34
117,"[{'imgObject': {}, 'id': 'yogurt no spoon', 'src': '/static/foodstim60/yogurt no spoon.jpg', 'key': 'u', 'origWidth': 411, 'origHeight': 410, 'width': 411, 'height': 410, 'widthPercent': 0.45, 'rescaleHeight': False, 'trialN': 117, 'loaded': True, 'loadedTime': 7707, 'positionName': 'LEFT', 'positionCoords': [244.68, 179], 'bid': 6.59}, {'imgObject': {}, 'id': 'corn cob', 'src': '/static/foodstim60/corn cob.jpg', 'key': 'i', 'origWidth': 411, 'origHeight': 411, 'width': 411, 'height': 411, 'widthPercent': 0.45, 'rescaleHeight': False, 'trialN': 117, 'loaded': True, 'loadedTime': 7906, 'positionName': 'RIGHT', 'positionCoords': [710.32, 178.5], 'bid': 6.66}]",198414,1669833405237,yogurt no spoon,corn cob,6.59,6.66,0.07000000000000028,corn cob,1135,1135,1135.0,True,i,200056,1642,1669833406879,1642,HRV,HRV_0047,2022-11-30 18:38:34
