success,trial_type,trial_index,time_elapsed,internal_node_id,Block,TrialNumber,TrialTime,trialTimeDiff,FPS_avg,FPS_med,FPS_mode,TrialDur,winResizeTime,rt,block,button_pressed,MotCoh,MotDir,ColCoh,Color,ChoiceKey,Choice,Accuracy,RT,nFrames,FPS,PPD,missTrial,missTrialMsg,onsetDelay,fullScreenExitTime,canvCenter,TrialType,Score,BlockTrial,stimulus,button_labels,exp,subjectId,date
True,fullscreen,0,4031,0.0-0.0,0.0,1.0,,,,,,,,,,,,,,,,,,,,,,,,,,,,,,,,HRV,HRV_0086,2022-11-30 18:09:02
,wl-check-fps,1,9042,0.0-1.0,0.0,2.0,"[4418.9, 4439, 4458.2, 4472.9, 4484.8, 4529.8, 4530.5, 4536.6, 4557.5, 4569.4, 4586.7, 4601.9, 4620, 4634.6, 4652, 4668.2, 4684.5, 4701.5, 4718.5, 4734.7, 4751.4, 4767.9, 4784.5, 4802.1, 4818.3, 4834.7, 4851.3, 4869.7, 4884.6, 4901.2, 4917.9, 4934.7, 4951.5, 4968.4, 4985.2, 5001.9, 5018.3, 5035.4, 5052.1, 5068.4, 5085.4, 5101.5, 5118.8, 5137.3, 5152.2, 5169.2, 5184.8, 5201.5, 5218.4, 5235.2, 5251.6, 5268.4, 5285.4, 5301.4, 5318.1, 5335.1, 5351.6, 5368.6, 5385.2, 5401.9, 5418.7, 5435.4, 5451.6, 5468.4, 5485, 5502, 5518.4, 5535.7, 5551.9, 5568.4, 5584.7, 5601.5, 5617.9, 5635, 5651.4, 5668.3, 5685.2, 5701.7, 5718.9, 5735.1, 5751.5, 5770.2, 5790.2, 5801.7, 5817.8, 5834.6, 5851.6, 5868.3, 5885.1, 5901.5, 5918.2, 5935, 5951.5, 5968.6, 5984.9, 6001.4, 6018.1, 6035, 6051.9, 6068.4, 6086.1, 6101.5, 6118, 6134.6, 6151.5, 6167.7, 6184.3, 6201, 6218.6, 6235, 6251.6, 6268.5, 6284.7, 6301.5, 6318.3, 6335.1, 6352, 6367.8, 6385.3, 6401.6, 6418.3, 6435, 6451.4, 6468.3, 6484.8, 6501.6, 6518.4, 6534.8, 6551.2, 6567.7, 6584.4, 6600.9, 6617.5, 6634.4, 6650.9, 6667.7, 6684.1, 6700.9, 6718.2, 6734.3, 6751, 6767.7, 6784.5, 6801.2, 6820, 6834.5, 6857, 6870, 6889.5, 6904.8, 6921.1, 6936.3, 6952.5, 6968.9, 6986.5, 7002.7, 7020, 7039.5, 7052.9, 7070.9, 7089, 7104.2, 7118.5, 7134.3, 7150.9, 7167.8, 7184.2, 7201.5, 7218.1, 7234.9, 7252.1, 7268.1, 7284.5, 7301.7, 7318.2, 7335.1, 7351.2, 7367.8, 7384.7, 7401.6, 7418.2, 7434.6, 7451.4, 7468.4, 7484.9, 7501.3, 7517.9, 7534.8, 7551.9, 7568.1, 7584.6, 7601.1, 7617.9, 7635, 7651, 7667.6, 7684.3, 7701.3, 7717.9, 7734.6, 7751, 7767.9, 7784.9, 7801.8, 7818.2, 7834.6, 7851.1, 7868.1, 7885.1, 7901.3, 7918.2, 7934.4, 7951.2, 7968.2, 7984.4, 8001.1, 8018.2, 8035, 8051.6, 8067.9, 8084.9, 8101.5, 8117.9, 8134.8, 8151.4, 8168.2, 8187.4, 8203.2, 8219.9, 8240, 8251.7, 8268.3, 8285, 8301.3, 8319.6, 8335, 8350.8, 8367.8, 8384.7, 8407.5, 8422.6, 8435.4, 8451.1, 8467.7, 8489.6, 8501.8, 8517.3, 8534.1, 8550.9, 8567.9, 8585.4, 8604.1, 8620, 8637.3, 8653.6, 8670.2, 8687.4, 8701.6, 8722.4, 8737.9, 8754, 8768.1, 8783.9, 8800.5, 8817.3, 8834, 8850.5, 8867.3, 8883.8, 8900.4, 8917.4, 8933.8, 8950.8, 8967.6, 8984.4, 9001.2, 9017.7, 9034.4, 9051, 9067.7, 9084.5, 9102.9, 9117.9, 9136.3, 9151.1, 9168, 9184.7, 9201.1, 9217.7, 9234.7, 9250.9, 9267.7, 9284.9, 9301.1, 9317.9, 9334.5, 9351.3, 9367.9, 9384.4, 9401]","[4.2, 20.1, 19.2, 14.7, 11.9, 45, 0.7, 6.1, 20.9, 11.9, 17.3, 15.2, 18.1, 14.6, 17.4, 16.2, 16.3, 17, 17, 16.2, 16.7, 16.5, 16.6, 17.6, 16.2, 16.4, 16.6, 18.4, 14.9, 16.6, 16.7, 16.8, 16.8, 16.9, 16.8, 16.7, 16.4, 17.1, 16.7, 16.3, 17, 16.1, 17.3, 18.5, 14.9, 17, 15.6, 16.7, 16.9, 16.8, 16.4, 16.8, 17, 16, 16.7, 17, 16.5, 17, 16.6, 16.7, 16.8, 16.7, 16.2, 16.8, 16.6, 17, 16.4, 17.3, 16.2, 16.5, 16.3, 16.8, 16.4, 17.1, 16.4, 16.9, 16.9, 16.5, 17.2, 16.2, 16.4, 18.7, 20, 11.5, 16.1, 16.8, 17, 16.7, 16.8, 16.4, 16.7, 16.8, 16.5, 17.1, 16.3, 16.5, 16.7, 16.9, 16.9, 16.5, 17.7, 15.4, 16.5, 16.6, 16.9, 16.2, 16.6, 16.7, 17.6, 16.4, 16.6, 16.9, 16.2, 16.8, 16.8, 16.8, 16.9, 15.8, 17.5, 16.3, 16.7, 16.7, 16.4, 16.9, 16.5, 16.8, 16.8, 16.4, 16.4, 16.5, 16.7, 16.5, 16.6, 16.9, 16.5, 16.8, 16.4, 16.8, 17.3, 16.1, 16.7, 16.7, 16.8, 16.7, 18.8, 14.5, 22.5, 13, 19.5, 15.3, 16.3, 15.2, 16.2, 16.4, 17.6, 16.2, 17.3, 19.5, 13.4, 18, 18.1, 15.2, 14.3, 15.8, 16.6, 16.9, 16.4, 17.3, 16.6, 16.8, 17.2, 16, 16.4, 17.2, 16.5, 16.9, 16.1, 16.6, 16.9, 16.9, 16.6, 16.4, 16.8, 17, 16.5, 16.4, 16.6, 16.9, 17.1, 16.2, 16.5, 16.5, 16.8, 17.1, 16, 16.6, 16.7, 17, 16.6, 16.7, 16.4, 16.9, 17, 16.9, 16.4, 16.4, 16.5, 17, 17, 16.2, 16.9, 16.2, 16.8, 17, 16.2, 16.7, 17.1, 16.8, 16.6, 16.3, 17, 16.6, 16.4, 16.9, 16.6, 16.8, 19.2, 15.8, 16.7, 20.1, 11.7, 16.6, 16.7, 16.3, 18.3, 15.4, 15.8, 17, 16.9, 22.8, 15.1, 12.8, 15.7, 16.6, 21.9, 12.2, 15.5, 16.8, 16.8, 17, 17.5, 18.7, 15.9, 17.3, 16.3, 16.6, 17.2, 14.2, 20.8, 15.5, 16.1, 14.1, 15.8, 16.6, 16.8, 16.7, 16.5, 16.8, 16.5, 16.6, 17, 16.4, 17, 16.8, 16.8, 16.8, 16.5, 16.7, 16.6, 16.7, 16.8, 18.4, 15, 18.4, 14.8, 16.9, 16.7, 16.4, 16.6, 17, 16.2, 16.8, 17.2, 16.2, 16.8, 16.6, 16.8, 16.6, 16.5, 16.6]",60.0,63.0,60.0,5003.2,[],,,,,,,,,,,,,,,,,,,,,,,,,HRV,HRV_0086,2022-11-30 18:09:02
,wl-html-keyboard-response,2,31215,0.0-2.0-0.0,0.0,3.0,,,,,,,,20140.200000047684,0.0,0,,,,,,,,,,,,,,,,,,,,,,HRV,HRV_0086,2022-11-30 18:09:02
,wl-rdm,3,38382,0.0-3.0-0.0,0.0,4.0,,,,,,,[],,,,0.0,0.0,87.9,0.0,u,0.0,True,1586.599999666214,96.0,60.0,40.0,False,,3000.0,[],"[960, 540]",ColorTask_Demo,,,,,HRV,HRV_0086,2022-11-30 18:09:02
,wl-rdm,4,43331,0.0-3.0-1.0,0.0,5.0,,,,,,,[],,,,0.0,0.0,87.9,1.0,i,1.0,True,852.2999999523163,52.0,60.0,40.0,False,,2000.0,[],"[960, 540]",ColorTask_Demo,,,,,HRV,HRV_0086,2022-11-30 18:09:02
,wl-html-keyboard-response,5,49903,0.0-3.0-2.0,0.0,6.0,,,,,,,,4558.200000047684,0.0,1,,,,,,,,,,,,,,,,,,,,,,HRV,HRV_0086,2022-11-30 18:09:02
,wl-html-keyboard-response,6,65703,0.0-4.0-0.0,0.0,7.0,,,,,,,,13794.400000095367,0.0,0,,,,,,,,,,,,,,,,,,,,,,HRV,HRV_0086,2022-11-30 18:09:02
,wl-html-keyboard-response,7,97488,0.0-5.0-0.0,0.0,8.0,,,,,,,,29775.799999952316,0.0,0,,,,,,,,,,,,,,,,,,,,,,HRV,HRV_0086,2022-11-30 18:09:02
,wl-rdm,8,100888,0.0-6.0-0.0,0.0,9.0,,,,,,,[],,,,,,62.5,0.0,i,1.0,False,2110.2999999523163,127.0,60.0,40.0,False,,229.26810331586776,[],"[960, 540]",ColorTask,-1.0,1.0,,,HRV,HRV_0086,2022-11-30 18:09:02
,wl-rdm,9,103504,0.0-6.1-0.1,0.0,10.0,,,,,,,[],,,,,,87.9,0.0,u,0.0,True,1195.6000001430511,72.0,60.0,40.0,False,,353.1852336017784,[],"[960, 540]",ColorTask,0.0,2.0,,,HRV,HRV_0086,2022-11-30 18:09:02
,wl-rdm,10,105870,0.0-6.2-0.2,0.0,11.0,,,,,,,[],,,,,,56.4,1.0,i,1.0,True,945.0999999046326,57.0,60.0,40.0,False,,336.3210014380842,[],"[960, 540]",ColorTask,1.0,3.0,,,HRV,HRV_0086,2022-11-30 18:09:02
,wl-rdm,11,108869,0.0-6.3-0.3,0.0,12.0,,,,,,,[],,,,,,56.4,0.0,i,1.0,False,1672.5999999046326,101.0,60.0,40.0,False,,255.29354796179462,[],"[960, 540]",ColorTask,0.0,4.0,,,HRV,HRV_0086,2022-11-30 18:09:02
,wl-rdm,12,111119,0.0-6.4-0.4,0.0,13.0,,,,,,,[],,,,,,87.9,0.0,u,0.0,True,889.1000001430511,54.0,60.0,40.0,False,,289.48848367106194,[],"[960, 540]",ColorTask,1.0,5.0,,,HRV,HRV_0086,2022-11-30 18:09:02
,wl-rdm,13,113368,0.0-6.5-0.5,0.0,14.0,,,,,,,[],,,,,,73.6,1.0,i,1.0,True,841.8999998569489,51.0,60.0,40.0,False,,338.22303167857353,[],"[960, 540]",ColorTask,2.0,6.0,,,HRV,HRV_0086,2022-11-30 18:09:02
,wl-rdm,14,115685,0.0-6.6-0.6,0.0,15.0,,,,,,,[],,,,,,73.6,1.0,i,1.0,True,907.7000000476837,55.0,60.0,40.0,False,,323.25782269573983,[],"[960, 540]",ColorTask,3.0,7.0,,,HRV,HRV_0086,2022-11-30 18:09:02
,wl-rdm,15,117834,0.0-6.7-0.7,0.0,16.0,,,,,,,[],,,,,,73.6,1.0,i,1.0,True,753.0,46.0,60.0,40.0,False,,305.77425381187845,[],"[960, 540]",ColorTask,4.0,8.0,,,HRV,HRV_0086,2022-11-30 18:09:02
,wl-rdm,16,120133,0.0-6.8-0.8,0.0,17.0,,,,,,,[],,,,,,56.4,0.0,i,1.0,False,990.0,60.0,60.0,40.0,False,,226.62494139442393,[],"[960, 540]",ColorTask,3.0,9.0,,,HRV,HRV_0086,2022-11-30 18:09:02
,wl-rdm,17,122866,0.0-6.9-0.9,0.0,18.0,,,,,,,[],,,,,,50.0,1.0,u,0.0,False,1410.5999999046326,85.0,60.0,40.0,False,,264.248285934657,[],"[960, 540]",ColorTask,2.0,10.0,,,HRV,HRV_0086,2022-11-30 18:09:02
,wl-rdm,18,125034,0.0-6.10-0.10,0.0,19.0,,,,,,,[],,,,,,73.6,0.0,u,0.0,True,731.7999999523163,44.0,60.0,40.0,False,,360.4040689665914,[],"[960, 540]",ColorTask,3.0,11.0,,,HRV,HRV_0086,2022-11-30 18:09:02
,wl-rdm,19,127151,0.0-6.11-0.11,0.0,20.0,,,,,,,[],,,,,,56.4,1.0,i,1.0,True,824.4000000953674,50.0,60.0,40.0,False,,203.78620990728115,[],"[960, 540]",ColorTask,4.0,12.0,,,HRV,HRV_0086,2022-11-30 18:09:02
,wl-rdm,20,129299,0.0-6.12-0.12,0.0,21.0,,,,,,,[],,,,,,87.9,0.0,u,0.0,True,838.5000002384186,51.0,60.0,40.0,False,,232.3210361573077,[],"[960, 540]",ColorTask,5.0,13.0,,,HRV,HRV_0086,2022-11-30 18:09:02
,wl-rdm,21,131282,0.0-6.13-0.13,0.0,22.0,,,,,,,[],,,,,,73.6,1.0,i,1.0,True,645.7000000476837,39.0,60.0,40.0,False,,279.26387835884856,[],"[960, 540]",ColorTask,6.0,14.0,,,HRV,HRV_0086,2022-11-30 18:09:02
,wl-rdm,22,133815,0.0-6.14-0.14,0.0,23.0,,,,,,,[],,,,,,50.0,0.0,i,1.0,False,1173.6999998092651,71.0,60.0,40.0,False,,276.1636936465185,[],"[960, 540]",ColorTask,5.0,15.0,,,HRV,HRV_0086,2022-11-30 18:09:02
,wl-rdm,23,136317,0.0-6.15-0.15,0.0,24.0,,,,,,,[],,,,,,56.4,0.0,i,1.0,False,1036.4000000953674,63.0,60.0,40.0,False,,390.72911090288835,[],"[960, 540]",ColorTask,4.0,16.0,,,HRV,HRV_0086,2022-11-30 18:09:02
,wl-rdm,24,138347,0.0-6.16-0.16,0.0,25.0,,,,,,,[],,,,,,87.9,0.0,u,0.0,True,708.2999999523163,43.0,60.0,40.0,False,,238.6011354463341,[],"[960, 540]",ColorTask,5.0,17.0,,,HRV,HRV_0086,2022-11-30 18:09:02
,wl-rdm,25,140465,0.0-6.17-0.17,0.0,26.0,,,,,,,[],,,,,,53.2,1.0,i,1.0,True,671.7000002861023,41.0,60.0,40.0,False,,364.5409202759711,[],"[960, 540]",ColorTask,6.0,18.0,,,HRV,HRV_0086,2022-11-30 18:09:02
,wl-rdm,26,142981,0.0-6.18-0.18,0.0,27.0,,,,,,,[],,,,,,73.6,0.0,i,1.0,False,1173.6000001430511,71.0,60.0,40.0,False,,254.09278446380253,[],"[960, 540]",ColorTask,5.0,19.0,,,HRV,HRV_0086,2022-11-30 18:09:02
,wl-rdm,27,145313,0.0-6.19-0.19,0.0,28.0,,,,,,,[],,,,,,50.0,0.0,i,1.0,False,937.7000000476837,57.0,60.0,40.0,False,,304.21458464882556,[],"[960, 540]",ColorTask,4.0,20.0,,,HRV,HRV_0086,2022-11-30 18:09:02
,wl-rdm,28,147530,0.0-6.20-0.20,0.0,29.0,,,,,,,[],,,,,,87.9,0.0,u,0.0,True,746.2999999523163,46.0,60.0,40.0,False,,393.1029549797287,[],"[960, 540]",ColorTask,5.0,21.0,,,HRV,HRV_0086,2022-11-30 18:09:02
,wl-rdm,29,149946,0.0-6.21-0.21,0.0,30.0,,,,,,,[],,,,,,87.9,1.0,i,1.0,True,1110.900000333786,67.0,60.0,40.0,False,,230.07384894550583,[],"[960, 540]",ColorTask,6.0,22.0,,,HRV,HRV_0086,2022-11-30 18:09:02
,wl-rdm,30,153345,0.0-6.22-0.22,0.0,31.0,,,,,,,[],,,,,,53.2,1.0,u,0.0,False,2121.2000000476837,128.0,60.0,40.0,False,,202.38686749441078,[],"[960, 540]",ColorTask,5.0,23.0,,,HRV,HRV_0086,2022-11-30 18:09:02
,wl-rdm,31,155862,0.0-6.23-0.23,0.0,32.0,,,,,,,[],,,,,,62.5,0.0,i,1.0,False,1141.7000002861023,69.0,60.0,40.0,False,,288.44310510642686,[],"[960, 540]",ColorTask,4.0,24.0,,,HRV,HRV_0086,2022-11-30 18:09:02
,wl-rdm,32,157928,0.0-6.24-0.24,0.0,33.0,,,,,,,[],,,,,,87.9,1.0,i,1.0,True,688.2999999523163,42.0,60.0,40.0,False,,285.12675906084604,[],"[960, 540]",ColorTask,5.0,25.0,,,HRV,HRV_0086,2022-11-30 18:09:02
,wl-rdm,33,160156,0.0-6.25-0.25,0.0,34.0,,,,,,,[],,,,,,87.9,1.0,i,1.0,True,755.7000000476837,46.0,60.0,40.0,False,,390.28008690413145,[],"[960, 540]",ColorTask,6.0,26.0,,,HRV,HRV_0086,2022-11-30 18:09:02
,wl-rdm,34,162778,0.0-6.26-0.26,0.0,35.0,,,,,,,[],,,,,,56.4,1.0,i,1.0,True,1320.7999999523163,80.0,60.0,40.0,False,,236.70403560814253,[],"[960, 540]",ColorTask,7.0,27.0,,,HRV,HRV_0086,2022-11-30 18:09:02
,wl-rdm,35,164977,0.0-6.27-0.27,0.0,36.0,,,,,,,[],,,,,,62.5,1.0,i,1.0,True,808.7000000476837,49.0,60.0,40.0,False,,320.93209525829957,[],"[960, 540]",ColorTask,8.0,28.0,,,HRV,HRV_0086,2022-11-30 18:09:02
,wl-rdm,36,167893,0.0-6.28-0.28,0.0,37.0,,,,,,,[],,,,,,50.0,0.0,u,0.0,True,1540.9999997615814,93.0,60.0,40.0,False,,285.7259158589285,[],"[960, 540]",ColorTask,9.0,29.0,,,HRV,HRV_0086,2022-11-30 18:09:02
,wl-rdm,37,170559,0.0-6.29-0.29,0.0,38.0,,,,,,,[],,,,,,62.5,0.0,u,0.0,True,1378.6000001430511,83.0,60.0,40.0,False,,228.0484536530416,[],"[960, 540]",ColorTask,10.0,30.0,,,HRV,HRV_0086,2022-11-30 18:09:02
,wl-rdm,38,172892,0.0-6.30-0.30,0.0,39.0,,,,,,,[],,,,,,53.2,1.0,i,1.0,True,945.3999998569489,57.0,60.0,40.0,False,,317.1860585164187,[],"[960, 540]",ColorTask,11.0,31.0,,,HRV,HRV_0086,2022-11-30 18:09:02
,wl-rdm,39,175059,0.0-6.31-0.31,0.0,40.0,,,,,,,[],,,,,,56.4,1.0,i,1.0,True,879.6000001430511,53.0,60.0,40.0,False,,217.83777544731777,[],"[960, 540]",ColorTask,12.0,32.0,,,HRV,HRV_0086,2022-11-30 18:09:02
,wl-rdm,40,177291,0.0-6.32-0.32,0.0,41.0,,,,,,,[],,,,,,73.6,0.0,u,0.0,True,777.5999999046326,47.0,60.0,40.0,False,,382.91123298826074,[],"[960, 540]",ColorTask,13.0,33.0,,,HRV,HRV_0086,2022-11-30 18:09:02
,wl-rdm,41,179524,0.0-6.33-0.33,0.0,42.0,,,,,,,[],,,,,,62.5,1.0,i,1.0,True,873.0,53.0,60.0,40.0,False,,271.91258556883747,[],"[960, 540]",ColorTask,14.0,34.0,,,HRV,HRV_0086,2022-11-30 18:09:02
,wl-rdm,42,182841,0.0-6.34-0.34,0.0,43.0,,,,,,,[],,,,,,50.0,1.0,i,1.0,True,1871.9000000953674,113.0,60.0,40.0,False,,377.17495873815153,[],"[960, 540]",ColorTask,15.0,35.0,,,HRV,HRV_0086,2022-11-30 18:09:02
,wl-rdm,43,185374,0.0-6.35-0.35,0.0,44.0,,,,,,,[],,,,,,62.5,0.0,u,0.0,True,1155.4000000953674,70.0,60.0,40.0,False,,286.1068320023345,[],"[960, 540]",ColorTask,16.0,36.0,,,HRV,HRV_0086,2022-11-30 18:09:02
,wl-rdm,44,187773,0.0-6.36-0.36,0.0,45.0,,,,,,,[],,,,,,87.9,1.0,i,1.0,True,976.3999998569489,59.0,60.0,40.0,False,,350.6689567222728,[],"[960, 540]",ColorTask,17.0,37.0,,,HRV,HRV_0086,2022-11-30 18:09:02
,wl-rdm,45,189956,0.0-6.37-0.37,0.0,46.0,,,,,,,[],,,,,,87.9,0.0,u,0.0,True,808.7000002861023,49.0,60.0,40.0,False,,316.4420654662285,[],"[960, 540]",ColorTask,18.0,38.0,,,HRV,HRV_0086,2022-11-30 18:09:02
,wl-rdm,46,192822,0.0-6.38-0.38,0.0,47.0,,,,,,,[],,,,,,62.5,0.0,u,0.0,True,1489.9000000953674,90.0,60.0,40.0,False,,294.48669183847113,[],"[960, 540]",ColorTask,19.0,39.0,,,HRV,HRV_0086,2022-11-30 18:09:02
,wl-rdm,47,194955,0.0-6.39-0.39,0.0,48.0,,,,,,,[],,,,,,87.9,1.0,i,1.0,True,759.0999999046326,46.0,60.0,40.0,False,,313.3326547062649,[],"[960, 540]",ColorTask,20.0,40.0,,,HRV,HRV_0086,2022-11-30 18:09:02
,wl-rdm,48,198005,0.0-6.40-0.40,0.0,49.0,,,,,,,[],,,,,,62.5,0.0,u,0.0,True,1605.7000000476837,97.0,60.0,40.0,False,,357.95878137572066,[],"[960, 540]",ColorTask,21.0,41.0,,,HRV,HRV_0086,2022-11-30 18:09:02
,wl-rdm,49,200720,0.0-6.41-0.41,0.0,50.0,,,,,,,[],,,,,,62.5,0.0,u,0.0,True,1331.8999998569489,80.0,60.0,40.0,False,,314.5191047777441,[],"[960, 540]",ColorTask,22.0,42.0,,,HRV,HRV_0086,2022-11-30 18:09:02
,wl-rdm,50,203070,0.0-6.42-0.42,0.0,51.0,,,,,,,[],,,,,,53.2,1.0,i,1.0,True,1037.0,63.0,60.0,40.0,False,,235.73959709992928,[],"[960, 540]",ColorTask,23.0,43.0,,,HRV,HRV_0086,2022-11-30 18:09:02
,wl-rdm,51,205703,0.0-6.43-0.43,0.0,52.0,,,,,,,[],,,,,,56.4,0.0,u,0.0,True,1159.4999997615814,70.0,60.0,40.0,False,,388.0084334593528,[],"[960, 540]",ColorTask,24.0,44.0,,,HRV,HRV_0086,2022-11-30 18:09:02
,wl-rdm,52,208053,0.0-6.44-0.44,0.0,53.0,,,,,,,[],,,,,,62.5,1.0,i,1.0,True,896.1999998092651,54.0,60.0,40.0,False,,385.94975501012925,[],"[960, 540]",ColorTask,25.0,45.0,,,HRV,HRV_0086,2022-11-30 18:09:02
,wl-rdm,53,210369,0.0-6.45-0.45,0.0,54.0,,,,,,,[],,,,,,62.5,1.0,i,1.0,True,988.0000002384186,60.0,60.0,40.0,False,,235.27100013120798,[],"[960, 540]",ColorTask,26.0,46.0,,,HRV,HRV_0086,2022-11-30 18:09:02
,wl-rdm,54,213169,0.0-6.46-0.46,0.0,55.0,,,,,,,[],,,,,,53.2,0.0,u,0.0,True,1420.5999999046326,86.0,60.0,40.0,False,,313.8084714255464,[],"[960, 540]",ColorTask,27.0,47.0,,,HRV,HRV_0086,2022-11-30 18:09:02
,wl-rdm,55,215218,0.0-6.47-0.47,0.0,56.0,,,,,,,[],,,,,,73.6,1.0,i,1.0,True,738.7999999523163,45.0,60.0,40.0,False,,224.26220929272344,[],"[960, 540]",ColorTask,28.0,48.0,,,HRV,HRV_0086,2022-11-30 18:09:02
,wl-rdm,56,218152,0.0-6.48-0.48,0.0,57.0,,,,,,,[],,,,,,50.0,0.0,i,1.0,False,1482.9999997615814,89.0,60.0,40.0,False,,389.341437496019,[],"[960, 540]",ColorTask,27.0,49.0,,,HRV,HRV_0086,2022-11-30 18:09:02
,wl-rdm,57,220350,0.0-6.49-0.49,0.0,58.0,,,,,,,[],,,,,,73.6,1.0,i,1.0,True,749.7000000476837,45.0,60.0,40.0,False,,367.1962686692872,[],"[960, 540]",ColorTask,28.0,50.0,,,HRV,HRV_0086,2022-11-30 18:09:02
,wl-rdm,58,223383,0.0-6.50-0.50,0.0,59.0,,,,,,,[],,,,,,50.0,0.0,i,1.0,False,1726.2000000476837,104.0,60.0,40.0,False,,217.54380820928267,[],"[960, 540]",ColorTask,27.0,51.0,,,HRV,HRV_0086,2022-11-30 18:09:02
,wl-rdm,59,225533,0.0-6.51-0.51,0.0,60.0,,,,,,,[],,,,,,87.9,0.0,u,0.0,True,762.7999997138977,46.0,60.0,40.0,False,,322.44877862169875,[],"[960, 540]",ColorTask,28.0,52.0,,,HRV,HRV_0086,2022-11-30 18:09:02
,wl-rdm,60,228232,0.0-6.52-0.52,0.0,61.0,,,,,,,[],,,,,,50.0,1.0,i,1.0,True,1322.5999999046326,80.0,60.0,40.0,False,,292.88117430551824,[],"[960, 540]",ColorTask,29.0,53.0,,,HRV,HRV_0086,2022-11-30 18:09:02
,wl-rdm,61,231999,0.0-6.53-0.53,0.0,62.0,,,,,,,[],,,,,,50.0,1.0,i,1.0,True,2391.199999809265,144.0,60.0,40.0,False,,296.9542177842518,[],"[960, 540]",ColorTask,30.0,54.0,,,HRV,HRV_0086,2022-11-30 18:09:02
,wl-rdm,62,235615,0.0-6.54-0.54,0.0,63.0,,,,,,,[],,,,,,50.0,1.0,i,1.0,True,2346.199999809265,141.0,60.0,40.0,False,,208.9932062409496,[],"[960, 540]",ColorTask,31.0,55.0,,,HRV,HRV_0086,2022-11-30 18:09:02
,wl-rdm,63,237781,0.0-6.55-0.55,0.0,64.0,,,,,,,[],,,,,,73.6,1.0,i,1.0,True,852.5999999046326,52.0,60.0,40.0,False,,225.3729951587938,[],"[960, 540]",ColorTask,32.0,56.0,,,HRV,HRV_0086,2022-11-30 18:09:02
,wl-rdm,64,240380,0.0-6.56-0.56,0.0,65.0,,,,,,,[],,,,,,62.5,1.0,i,1.0,True,1191.9999997615814,72.0,60.0,40.0,False,,328.8512115493329,[],"[960, 540]",ColorTask,33.0,57.0,,,HRV,HRV_0086,2022-11-30 18:09:02
,wl-rdm,65,242663,0.0-6.57-0.57,0.0,66.0,,,,,,,[],,,,,,73.6,0.0,u,0.0,True,916.1999998092651,55.0,60.0,40.0,False,,288.2169190977387,[],"[960, 540]",ColorTask,34.0,58.0,,,HRV,HRV_0086,2022-11-30 18:09:02
,wl-rdm,66,245112,0.0-6.58-0.58,0.0,67.0,,,,,,,[],,,,,,50.0,1.0,i,1.0,True,985.2000000476837,60.0,60.0,40.0,False,,385.8600406397116,[],"[960, 540]",ColorTask,35.0,59.0,,,HRV,HRV_0086,2022-11-30 18:09:02
,wl-rdm,67,247562,0.0-6.59-0.59,0.0,68.0,,,,,,,[],,,,,,53.2,0.0,u,0.0,True,972.4999997615814,59.0,60.0,40.0,False,,391.8278648821548,[],"[960, 540]",ColorTask,36.0,60.0,,,HRV,HRV_0086,2022-11-30 18:09:02
,wl-rdm,68,249716,0.0-6.60-0.60,0.0,69.0,,,,,,,[],,,,,,53.2,1.0,i,1.0,True,757.3999998569489,46.0,60.0,40.0,False,,308.51318896381906,[],"[960, 540]",ColorTask,37.0,61.0,,,HRV,HRV_0086,2022-11-30 18:09:02
,wl-rdm,69,252232,0.0-6.61-0.61,0.0,70.0,,,,,,,[],,,,,,56.4,0.0,u,0.0,True,1162.3000001907349,70.0,60.0,40.0,False,,279.60049252121655,[],"[960, 540]",ColorTask,38.0,62.0,,,HRV,HRV_0086,2022-11-30 18:09:02
,wl-rdm,70,254459,0.0-6.62-0.62,0.0,71.0,,,,,,,[],,,,,,62.5,1.0,i,1.0,True,873.6000001430511,53.0,60.0,40.0,False,,279.16496940381006,[],"[960, 540]",ColorTask,39.0,63.0,,,HRV,HRV_0086,2022-11-30 18:09:02
,wl-rdm,71,256626,0.0-6.63-0.63,0.0,72.0,,,,,,,[],,,,,,87.9,1.0,i,1.0,True,696.4000000953674,42.0,60.0,40.0,False,,396.2359461647736,[],"[960, 540]",ColorTask,40.0,64.0,,,HRV,HRV_0086,2022-11-30 18:09:02
,wl-rdm,72,258826,0.0-6.64-0.64,0.0,73.0,,,,,,,[],,,,,,62.5,1.0,i,1.0,True,926.7999997138977,56.0,60.0,40.0,False,,213.62123826745884,[],"[960, 540]",ColorTask,41.0,65.0,,,HRV,HRV_0086,2022-11-30 18:09:02
,wl-rdm,73,261326,0.0-6.65-0.65,0.0,74.0,,,,,,,[],,,,,,50.0,0.0,u,0.0,True,1188.0999999046326,72.0,60.0,40.0,False,,235.40964971096116,[],"[960, 540]",ColorTask,42.0,66.0,,,HRV,HRV_0086,2022-11-30 18:09:02
,wl-rdm,74,263875,0.0-6.66-0.66,0.0,75.0,,,,,,,[],,,,,,50.0,0.0,i,1.0,False,1186.1999998092651,72.0,60.0,40.0,False,,282.72746380896217,[],"[960, 540]",ColorTask,41.0,67.0,,,HRV,HRV_0086,2022-11-30 18:09:02
,wl-rdm,75,266391,0.0-6.67-0.67,0.0,76.0,,,,,,,[],,,,,,53.2,0.0,u,0.0,True,1136.2000002861023,69.0,60.0,40.0,False,,287.3009324933086,[],"[960, 540]",ColorTask,42.0,68.0,,,HRV,HRV_0086,2022-11-30 18:09:02
,wl-rdm,76,268908,0.0-6.68-0.68,0.0,77.0,,,,,,,[],,,,,,53.2,0.0,i,1.0,False,1236.6000001430511,75.0,60.0,40.0,False,,208.94811056469135,[],"[960, 540]",ColorTask,41.0,69.0,,,HRV,HRV_0086,2022-11-30 18:09:02
,wl-rdm,77,271357,0.0-6.69-0.69,0.0,78.0,,,,,,,[],,,,,,50.0,1.0,u,0.0,False,1010.7999999523163,61.0,60.0,40.0,False,,366.19776178956397,[],"[960, 540]",ColorTask,40.0,70.0,,,HRV,HRV_0086,2022-11-30 18:09:02
,wl-rdm,78,273757,0.0-6.70-0.70,0.0,79.0,,,,,,,[],,,,,,73.6,0.0,u,0.0,True,938.4000000953674,57.0,60.0,40.0,False,,380.8934380022672,[],"[960, 540]",ColorTask,41.0,71.0,,,HRV,HRV_0086,2022-11-30 18:09:02
,wl-rdm,79,276889,0.0-6.71-0.71,0.0,80.0,,,,,,,[],,,,,,53.2,0.0,i,1.0,False,1783.2000000476837,107.0,60.0,40.0,False,,289.3000764953008,[],"[960, 540]",ColorTask,40.0,72.0,,,HRV,HRV_0086,2022-11-30 18:09:02
,wl-rdm,80,278939,0.0-6.72-0.72,0.0,81.0,,,,,,,[],,,,,,73.6,0.0,u,0.0,True,781.0999999046326,45.0,60.0,40.0,False,,216.24212114599973,[],"[960, 540]",ColorTask,41.0,73.0,,,HRV,HRV_0086,2022-11-30 18:09:02
,wl-rdm,81,281172,0.0-6.73-0.73,0.0,82.0,,,,,,,[],,,,,,87.9,1.0,i,1.0,True,881.9000000953674,53.0,60.0,40.0,False,,295.76535922865975,[],"[960, 540]",ColorTask,42.0,74.0,,,HRV,HRV_0086,2022-11-30 18:09:02
,wl-rdm,82,283322,0.0-6.74-0.74,0.0,83.0,,,,,,,[],,,,,,73.6,0.0,u,0.0,True,846.7000000476837,51.0,60.0,40.0,False,,237.44103468031477,[],"[960, 540]",ColorTask,43.0,75.0,,,HRV,HRV_0086,2022-11-30 18:09:02
,wl-rdm,83,286804,0.0-6.75-0.75,0.0,84.0,,,,,,,[],,,,,,53.2,0.0,u,0.0,True,2059.600000143051,124.0,60.0,40.0,False,,354.07693125287847,[],"[960, 540]",ColorTask,44.0,76.0,,,HRV,HRV_0086,2022-11-30 18:09:02
,wl-rdm,84,290087,0.0-6.76-0.76,0.0,85.0,,,,,,,[],,,,,,50.0,1.0,u,0.0,False,1981.8999998569489,119.0,60.0,40.0,False,,221.84302438260224,[],"[960, 540]",ColorTask,43.0,77.0,,,HRV,HRV_0086,2022-11-30 18:09:02
,wl-rdm,85,292620,0.0-6.77-0.77,0.0,86.0,,,,,,,[],,,,,,73.6,0.0,u,0.0,True,1131.3000001907349,68.0,60.0,40.0,False,,320.58795461603717,[],"[960, 540]",ColorTask,44.0,78.0,,,HRV,HRV_0086,2022-11-30 18:09:02
,wl-rdm,86,295586,0.0-6.78-0.78,0.0,87.0,,,,,,,[],,,,,,56.4,0.0,u,0.0,True,1682.9000000953674,101.0,60.0,40.0,False,,201.2972661701883,[],"[960, 540]",ColorTask,45.0,79.0,,,HRV,HRV_0086,2022-11-30 18:09:02
,wl-rdm,87,298518,0.0-6.79-0.79,0.0,88.0,,,,,,,[],,,,,,50.0,1.0,i,1.0,True,1577.6000001430511,95.0,60.0,40.0,False,,282.4129551976726,[],"[960, 540]",ColorTask,46.0,80.0,,,HRV,HRV_0086,2022-11-30 18:09:02
,wl-rdm,88,301302,0.0-6.80-0.80,0.0,89.0,,,,,,,[],,,,,,62.5,0.0,u,0.0,True,1514.0,91.0,60.0,40.0,False,,205.83254379092463,[],"[960, 540]",ColorTask,47.0,81.0,,,HRV,HRV_0086,2022-11-30 18:09:02
,wl-rdm,89,303585,0.0-6.81-0.81,0.0,90.0,,,,,,,[],,,,,,53.2,1.0,i,1.0,True,957.0999999046326,58.0,60.0,40.0,False,,240.5157828946683,[],"[960, 540]",ColorTask,48.0,82.0,,,HRV,HRV_0086,2022-11-30 18:09:02
,wl-rdm,90,306151,0.0-6.82-0.82,0.0,91.0,,,,,,,[],,,,,,62.5,1.0,i,1.0,True,1207.400000333786,73.0,60.0,40.0,False,,270.7116854731627,[],"[960, 540]",ColorTask,49.0,83.0,,,HRV,HRV_0086,2022-11-30 18:09:02
,wl-rdm,91,308951,0.0-6.83-0.83,0.0,92.0,,,,,,,[],,,,,,53.2,1.0,i,1.0,True,1437.8999998569489,87.0,60.0,40.0,False,,270.9601653270099,[],"[960, 540]",ColorTask,50.0,84.0,,,HRV,HRV_0086,2022-11-30 18:09:02
,wl-rdm,92,311585,0.0-6.84-0.84,0.0,93.0,,,,,,,[],,,,,,73.6,1.0,i,1.0,True,1161.7999999523163,70.0,60.0,40.0,False,,386.7278750476156,[],"[960, 540]",ColorTask,51.0,85.0,,,HRV,HRV_0086,2022-11-30 18:09:02
,wl-rdm,93,314351,0.0-6.85-0.85,0.0,94.0,,,,,,,[],,,,,,56.4,1.0,i,1.0,True,1338.2000000476837,81.0,60.0,40.0,False,,359.60050150710595,[],"[960, 540]",ColorTask,52.0,86.0,,,HRV,HRV_0086,2022-11-30 18:09:02
,wl-rdm,94,317217,0.0-6.86-0.86,0.0,95.0,,,,,,,[],,,,,,53.2,1.0,i,1.0,True,1575.5,95.0,60.0,40.0,False,,201.35743448549172,[],"[960, 540]",ColorTask,53.0,87.0,,,HRV,HRV_0086,2022-11-30 18:09:02
,wl-rdm,95,319800,0.0-6.87-0.87,0.0,96.0,,,,,,,[],,,,,,87.9,1.0,i,1.0,True,1171.6000001430511,71.0,60.0,40.0,False,,321.75013572957175,[],"[960, 540]",ColorTask,54.0,88.0,,,HRV,HRV_0086,2022-11-30 18:09:02
,wl-rdm,96,322316,0.0-6.88-0.88,0.0,97.0,,,,,,,[],,,,,,56.4,0.0,u,0.0,True,1093.8999998569489,66.0,60.0,40.0,False,,346.6486206529936,[],"[960, 540]",ColorTask,55.0,89.0,,,HRV,HRV_0086,2022-11-30 18:09:02
,wl-rdm,97,325116,0.0-6.89-0.89,0.0,98.0,,,,,,,[],,,,,,56.4,1.0,i,1.0,True,1523.7999999523163,92.0,60.0,40.0,False,,200.04858078455683,[],"[960, 540]",ColorTask,56.0,90.0,,,HRV,HRV_0086,2022-11-30 18:09:02
,wl-rdm,98,327331,0.0-6.90-0.90,0.0,99.0,,,,,,,[],,,,,,73.6,0.0,u,0.0,True,739.5999999046326,45.0,60.0,40.0,False,,384.0761745133227,[],"[960, 540]",ColorTask,57.0,91.0,,,HRV,HRV_0086,2022-11-30 18:09:02
,wl-rdm,99,329631,0.0-6.91-0.91,0.0,100.0,,,,,,,[],,,,,,73.6,1.0,i,1.0,True,855.2000000476837,52.0,60.0,40.0,False,,362.5103157901021,[],"[960, 540]",ColorTask,58.0,92.0,,,HRV,HRV_0086,2022-11-30 18:09:02
,wl-rdm,100,331914,0.0-6.92-0.92,0.0,101.0,,,,,,,[],,,,,,62.5,0.0,u,0.0,True,837.9000000953674,51.0,60.0,40.0,False,,378.9233651941946,[],"[960, 540]",ColorTask,59.0,93.0,,,HRV,HRV_0086,2022-11-30 18:09:02
,wl-rdm,101,334814,0.0-6.93-0.93,0.0,102.0,,,,,,,[],,,,,,53.2,1.0,i,1.0,True,1425.2000000476837,86.0,60.0,40.0,False,,385.9869483961661,[],"[960, 540]",ColorTask,60.0,94.0,,,HRV,HRV_0086,2022-11-30 18:09:02
,wl-rdm,102,338231,0.0-6.94-0.94,0.0,103.0,,,,,,,[],,,,,,50.0,0.0,i,1.0,False,2008.5999999046326,121.0,60.0,40.0,False,,322.55587428419983,[],"[960, 540]",ColorTask,59.0,95.0,,,HRV,HRV_0086,2022-11-30 18:09:02
,wl-rdm,103,340846,0.0-6.95-0.95,0.0,104.0,,,,,,,[],,,,,,56.4,0.0,u,0.0,True,1239.1999998092651,75.0,60.0,40.0,False,,287.02515779867275,[],"[960, 540]",ColorTask,60.0,96.0,,,HRV,HRV_0086,2022-11-30 18:09:02
,wl-rdm,104,343962,0.0-6.96-0.96,0.0,105.0,,,,,,,[],,,,,,56.4,0.0,i,1.0,False,1672.5,101.0,60.0,40.0,False,,352.7277271337017,[],"[960, 540]",ColorTask,59.0,97.0,,,HRV,HRV_0086,2022-11-30 18:09:02
,wl-rdm,105,346712,0.0-6.97-0.97,0.0,106.0,,,,,,,[],,,,,,53.2,0.0,u,0.0,True,1447.7999999523163,87.0,60.0,40.0,False,,247.6731331422187,[],"[960, 540]",ColorTask,60.0,98.0,,,HRV,HRV_0086,2022-11-30 18:09:02
,wl-rdm,106,349380,0.0-6.98-0.98,0.0,107.0,,,,,,,[],,,,,,53.2,0.0,i,1.0,False,1388.2999999523163,84.0,60.0,40.0,False,,215.03828788693872,[],"[960, 540]",ColorTask,59.0,99.0,,,HRV,HRV_0086,2022-11-30 18:09:02
,wl-rdm,107,351511,0.0-6.99-0.99,0.0,108.0,,,,,,,[],,,,,,87.9,0.0,u,0.0,True,745.2999999523163,45.0,60.0,40.0,False,,305.0752730274938,[],"[960, 540]",ColorTask,60.0,100.0,,,HRV,HRV_0086,2022-11-30 18:09:02
,wl-rdm,108,353810,0.0-6.100-0.100,0.0,109.0,,,,,,,[],,,,,,87.9,0.0,u,0.0,True,962.7999999523163,58.0,60.0,40.0,False,,279.0596993683363,[],"[960, 540]",ColorTask,61.0,101.0,,,HRV,HRV_0086,2022-11-30 18:09:02
,wl-rdm,109,356043,0.0-6.101-0.101,0.0,110.0,,,,,,,[],,,,,,62.5,1.0,i,1.0,True,921.2999999523163,56.0,60.0,40.0,False,,243.80636630312227,[],"[960, 540]",ColorTask,62.0,102.0,,,HRV,HRV_0086,2022-11-30 18:09:02
,wl-rdm,110,358360,0.0-6.102-0.102,0.0,111.0,,,,,,,[],,,,,,56.4,1.0,i,1.0,True,991.8999998569489,60.0,60.0,40.0,False,,247.46978887181368,[],"[960, 540]",ColorTask,63.0,103.0,,,HRV,HRV_0086,2022-11-30 18:09:02
,wl-rdm,111,360876,0.0-6.103-0.103,0.0,112.0,,,,,,,[],,,,,,56.4,1.0,i,1.0,True,1168.5,71.0,60.0,40.0,False,,260.8148988724508,[],"[960, 540]",ColorTask,64.0,104.0,,,HRV,HRV_0086,2022-11-30 18:09:02
,wl-rdm,112,363392,0.0-6.104-0.104,0.0,113.0,,,,,,,[],,,,,,53.2,0.0,u,0.0,True,1231.4999997615814,74.0,60.0,40.0,False,,216.05790830891561,[],"[960, 540]",ColorTask,65.0,105.0,,,HRV,HRV_0086,2022-11-30 18:09:02
,wl-rdm,113,365525,0.0-6.105-0.105,0.0,114.0,,,,,,,[],,,,,,87.9,1.0,i,1.0,True,788.3999998569489,48.0,60.0,40.0,False,,256.16957739374817,[],"[960, 540]",ColorTask,66.0,106.0,,,HRV,HRV_0086,2022-11-30 18:09:02
,wl-rdm,114,367925,0.0-6.106-0.106,0.0,115.0,,,,,,,[],,,,,,56.4,1.0,i,1.0,True,1079.3000001907349,65.0,60.0,40.0,False,,259.6634168067717,[],"[960, 540]",ColorTask,67.0,107.0,,,HRV,HRV_0086,2022-11-30 18:09:02
,wl-rdm,115,370474,0.0-6.107-0.107,0.0,116.0,,,,,,,[],,,,,,50.0,0.0,i,1.0,False,1204.7000000476837,73.0,60.0,40.0,False,,256.5100279453398,[],"[960, 540]",ColorTask,66.0,108.0,,,HRV,HRV_0086,2022-11-30 18:09:02
,wl-html-keyboard-response,116,402031,0.0-7.0-0.0,1.0,117.0,,,,,,,,29540.200000047684,1.0,0,,,,,,,,,,,,,,,,,,,,,,HRV,HRV_0086,2022-11-30 18:09:02
,wl-rdm,117,404417,0.0-8.0-0.0,1.0,118.0,,,,,,,[],,,,,,53.2,0.0,i,1.0,False,1103.6000001430511,67.0,60.0,40.0,False,,213.15778008990236,[],"[960, 540]",ColorTask,65.0,1.0,,,HRV,HRV_0086,2022-11-30 18:09:02
,wl-rdm,118,406452,0.0-8.1-0.1,1.0,119.0,,,,,,,[],,,,,,87.9,0.0,u,0.0,True,719.7999999523163,44.0,60.0,40.0,False,,228.4309089330668,[],"[960, 540]",ColorTask,66.0,2.0,,,HRV,HRV_0086,2022-11-30 18:09:02
,wl-rdm,119,408802,0.0-8.2-0.2,1.0,120.0,,,,,,,[],,,,,,53.2,1.0,i,1.0,True,980.1000001430511,59.0,60.0,40.0,False,,301.2724741033405,[],"[960, 540]",ColorTask,67.0,3.0,,,HRV,HRV_0086,2022-11-30 18:09:02
,wl-rdm,120,411384,0.0-8.3-0.3,1.0,121.0,,,,,,,[],,,,,,50.0,1.0,i,1.0,True,1148.3999998569489,69.0,60.0,40.0,False,,363.2909403528006,[],"[960, 540]",ColorTask,68.0,4.0,,,HRV,HRV_0086,2022-11-30 18:09:02
,wl-rdm,121,413633,0.0-8.4-0.4,1.0,122.0,,,,,,,[],,,,,,62.5,0.0,u,0.0,True,879.1999998092651,53.0,60.0,40.0,False,,284.4250421741501,[],"[960, 540]",ColorTask,69.0,5.0,,,HRV,HRV_0086,2022-11-30 18:09:02
,wl-rdm,122,415717,0.0-8.5-0.5,1.0,123.0,,,,,,,[],,,,,,73.6,1.0,i,1.0,True,656.6000001430511,40.0,60.0,40.0,False,,365.6249931838215,[],"[960, 540]",ColorTask,70.0,6.0,,,HRV,HRV_0086,2022-11-30 18:09:02
,wl-rdm,123,418116,0.0-8.6-0.6,1.0,124.0,,,,,,,[],,,,,,50.0,1.0,u,0.0,False,1089.2000000476837,66.0,60.0,40.0,False,,224.06187602229573,[],"[960, 540]",ColorTask,69.0,7.0,,,HRV,HRV_0086,2022-11-30 18:09:02
,wl-rdm,124,420649,0.0-8.7-0.7,1.0,125.0,,,,,,,[],,,,,,56.4,0.0,u,0.0,True,1138.2000000476837,69.0,60.0,40.0,False,,301.1752614519454,[],"[960, 540]",ColorTask,70.0,8.0,,,HRV,HRV_0086,2022-11-30 18:09:02
,wl-rdm,125,422965,0.0-8.8-0.8,1.0,126.0,,,,,,,[],,,,,,53.2,0.0,i,1.0,False,1011.5000002384186,61.0,60.0,40.0,False,,229.8197470035706,[],"[960, 540]",ColorTask,69.0,9.0,,,HRV,HRV_0086,2022-11-30 18:09:02
,wl-rdm,126,424998,0.0-8.9-0.9,1.0,127.0,,,,,,,[],,,,,,87.9,1.0,i,1.0,True,697.5,42.0,60.0,40.0,False,,254.24026734549273,[],"[960, 540]",ColorTask,70.0,10.0,,,HRV,HRV_0086,2022-11-30 18:09:02
,wl-rdm,127,427198,0.0-8.10-0.10,1.0,128.0,,,,,,,[],,,,,,56.4,0.0,u,0.0,True,862.1999998092651,53.0,60.0,40.0,False,,239.878534520133,[],"[960, 540]",ColorTask,71.0,11.0,,,HRV,HRV_0086,2022-11-30 18:09:02
,wl-rdm,128,429847,0.0-8.11-0.11,1.0,129.0,,,,,,,[],,,,,,62.5,0.0,u,0.0,True,1362.2000000476837,82.0,60.0,40.0,False,,221.37505713083252,[],"[960, 540]",ColorTask,72.0,12.0,,,HRV,HRV_0086,2022-11-30 18:09:02
,wl-rdm,129,431997,0.0-8.12-0.12,1.0,130.0,,,,,,,[],,,,,,50.0,0.0,i,1.0,False,855.2999999523163,52.0,60.0,40.0,False,,200.33417010830388,[],"[960, 540]",ColorTask,71.0,13.0,,,HRV,HRV_0086,2022-11-30 18:09:02
,wl-rdm,130,434630,0.0-8.13-0.13,1.0,131.0,,,,,,,[],,,,,,50.0,0.0,u,0.0,True,1274.1000001430511,77.0,60.0,40.0,False,,287.9504583755451,[],"[960, 540]",ColorTask,72.0,14.0,,,HRV,HRV_0086,2022-11-30 18:09:02
,wl-rdm,131,436697,0.0-8.14-0.14,1.0,132.0,,,,,,,[],,,,,,73.6,1.0,i,1.0,True,747.0,45.0,60.0,40.0,False,,253.26303949148672,[],"[960, 540]",ColorTask,73.0,15.0,,,HRV,HRV_0086,2022-11-30 18:09:02
,wl-rdm,132,438828,0.0-8.15-0.15,1.0,133.0,,,,,,,[],,,,,,62.5,1.0,i,1.0,True,807.7999999523163,49.0,60.0,40.0,False,,250.70982403102937,[],"[960, 540]",ColorTask,74.0,16.0,,,HRV,HRV_0086,2022-11-30 18:09:02
,wl-rdm,133,441011,0.0-8.16-0.16,1.0,134.0,,,,,,,[],,,,,,73.6,0.0,u,0.0,True,888.2999999523163,54.0,60.0,40.0,False,,219.07434523423026,[],"[960, 540]",ColorTask,75.0,17.0,,,HRV,HRV_0086,2022-11-30 18:09:02
,wl-rdm,134,443911,0.0-8.17-0.17,1.0,135.0,,,,,,,[],,,,,,50.0,1.0,u,0.0,False,1440.1000001430511,87.0,60.0,40.0,False,,393.27584420802737,[],"[960, 540]",ColorTask,74.0,18.0,,,HRV,HRV_0086,2022-11-30 18:09:02
,wl-rdm,135,446243,0.0-8.18-0.18,1.0,136.0,,,,,,,[],,,,,,62.5,0.0,u,0.0,True,921.2000002861023,56.0,60.0,40.0,False,,347.1621211240888,[],"[960, 540]",ColorTask,75.0,19.0,,,HRV,HRV_0086,2022-11-30 18:09:02
,wl-rdm,136,448478,0.0-8.19-0.19,1.0,137.0,,,,,,,[],,,,,,73.6,0.0,u,0.0,True,840.5,51.0,60.0,40.0,False,,317.6967549531888,[],"[960, 540]",ColorTask,76.0,20.0,,,HRV,HRV_0086,2022-11-30 18:09:02
,wl-rdm,137,451110,0.0-8.20-0.20,1.0,138.0,,,,,,,[],,,,,,53.2,0.0,u,0.0,True,1194.7999999523163,72.0,60.0,40.0,False,,379.980953393536,[],"[960, 540]",ColorTask,77.0,21.0,,,HRV,HRV_0086,2022-11-30 18:09:02
,wl-rdm,138,453543,0.0-8.21-0.21,1.0,139.0,,,,,,,[],,,,,,62.5,0.0,i,1.0,False,1092.6000001430511,66.0,60.0,40.0,False,,250.16697316109003,[],"[960, 540]",ColorTask,76.0,22.0,,,HRV,HRV_0086,2022-11-30 18:09:02
,wl-rdm,139,455692,0.0-8.22-0.22,1.0,140.0,,,,,,,[],,,,,,73.6,1.0,i,1.0,True,728.6000001430511,44.0,60.0,40.0,False,,345.25631273270983,[],"[960, 540]",ColorTask,77.0,23.0,,,HRV,HRV_0086,2022-11-30 18:09:02
,wl-rdm,140,458393,0.0-8.23-0.23,1.0,141.0,,,,,,,[],,,,,,56.4,1.0,i,1.0,True,1397.8000001907349,84.0,60.0,40.0,False,,237.34713484460073,[],"[960, 540]",ColorTask,78.0,24.0,,,HRV,HRV_0086,2022-11-30 18:09:02
,wl-rdm,141,460693,0.0-8.24-0.24,1.0,142.0,,,,,,,[],,,,,,50.0,1.0,u,0.0,False,941.5,57.0,60.0,40.0,False,,287.99499821760594,[],"[960, 540]",ColorTask,77.0,25.0,,,HRV,HRV_0086,2022-11-30 18:09:02
,wl-rdm,142,463008,0.0-8.25-0.25,1.0,143.0,,,,,,,[],,,,,,56.4,1.0,i,1.0,True,955.0,58.0,60.0,40.0,False,,279.31946798195764,[],"[960, 540]",ColorTask,78.0,26.0,,,HRV,HRV_0086,2022-11-30 18:09:02
,wl-rdm,143,465207,0.0-8.26-0.26,1.0,144.0,,,,,,,[],,,,,,73.6,0.0,u,0.0,True,876.6999998092651,53.0,60.0,40.0,False,,240.57739635725454,[],"[960, 540]",ColorTask,79.0,27.0,,,HRV,HRV_0086,2022-11-30 18:09:02
,wl-rdm,144,467441,0.0-8.27-0.27,1.0,145.0,,,,,,,[],,,,,,87.9,0.0,u,0.0,True,910.2999999523163,55.0,60.0,40.0,False,,243.0567966463821,[],"[960, 540]",ColorTask,80.0,28.0,,,HRV,HRV_0086,2022-11-30 18:09:02
,wl-rdm,145,470075,0.0-8.28-0.28,1.0,146.0,,,,,,,[],,,,,,73.6,0.0,u,0.0,True,1189.4000000953674,72.0,60.0,40.0,False,,374.4644375507986,[],"[960, 540]",ColorTask,81.0,29.0,,,HRV,HRV_0086,2022-11-30 18:09:02
,wl-rdm,146,472189,0.0-8.29-0.29,1.0,147.0,,,,,,,[],,,,,,87.9,1.0,i,1.0,True,656.2999999523163,40.0,60.0,40.0,False,,352.85099503254173,[],"[960, 540]",ColorTask,82.0,30.0,,,HRV,HRV_0086,2022-11-30 18:09:02
,wl-rdm,147,475189,0.0-8.30-0.30,1.0,148.0,,,,,,,[],,,,,,53.2,1.0,u,0.0,False,1657.0999999046326,100.0,60.0,40.0,False,,267.50187920092065,[],"[960, 540]",ColorTask,81.0,31.0,,,HRV,HRV_0086,2022-11-30 18:09:02
,wl-rdm,148,477356,0.0-8.31-0.31,1.0,149.0,,,,,,,[],,,,,,62.5,1.0,i,1.0,True,838.7000000476837,51.0,60.0,40.0,False,,263.57290637789896,[],"[960, 540]",ColorTask,82.0,32.0,,,HRV,HRV_0086,2022-11-30 18:09:02
,wl-rdm,149,479455,0.0-8.32-0.32,1.0,150.0,,,,,,,[],,,,,,73.6,1.0,i,1.0,True,717.1000001430511,43.0,60.0,40.0,False,,311.8520500323059,[],"[960, 540]",ColorTask,83.0,33.0,,,HRV,HRV_0086,2022-11-30 18:09:02
,wl-rdm,150,481787,0.0-8.33-0.33,1.0,151.0,,,,,,,[],,,,,,50.0,0.0,u,0.0,True,1010.7000000476837,61.0,60.0,40.0,False,,263.69981475892894,[],"[960, 540]",ColorTask,84.0,34.0,,,HRV,HRV_0086,2022-11-30 18:09:02
,wl-rdm,151,483804,0.0-8.34-0.34,1.0,152.0,,,,,,,[],,,,,,87.9,1.0,i,1.0,True,680.1000001430511,41.0,60.0,40.0,False,,252.0577505479068,[],"[960, 540]",ColorTask,85.0,35.0,,,HRV,HRV_0086,2022-11-30 18:09:02
,wl-rdm,152,486287,0.0-8.35-0.35,1.0,153.0,,,,,,,[],,,,,,50.0,1.0,u,0.0,False,1122.2000000476837,68.0,60.0,40.0,False,,270.1019473301315,[],"[960, 540]",ColorTask,84.0,36.0,,,HRV,HRV_0086,2022-11-30 18:09:02
,wl-rdm,153,488369,0.0-8.36-0.36,1.0,154.0,,,,,,,[],,,,,,87.9,1.0,i,1.0,True,678.0,41.0,60.0,40.0,False,,346.80490376611044,[],"[960, 540]",ColorTask,85.0,37.0,,,HRV,HRV_0086,2022-11-30 18:09:02
,wl-rdm,154,490386,0.0-8.37-0.37,1.0,155.0,,,,,,,[],,,,,,87.9,0.0,u,0.0,True,727.2999999523163,44.0,60.0,40.0,False,,203.8183975248237,[],"[960, 540]",ColorTask,86.0,38.0,,,HRV,HRV_0086,2022-11-30 18:09:02
,wl-rdm,155,492498,0.0-8.38-0.38,1.0,156.0,,,,,,,[],,,,,,73.6,0.0,u,0.0,True,711.2000000476837,43.0,60.0,40.0,False,,290.51030395576595,[],"[960, 540]",ColorTask,87.0,39.0,,,HRV,HRV_0086,2022-11-30 18:09:02
,wl-rdm,156,494619,0.0-8.39-0.39,1.0,157.0,,,,,,,[],,,,,,62.5,1.0,i,1.0,True,671.2999999523163,41.0,60.0,40.0,False,,363.6228926811881,[],"[960, 540]",ColorTask,88.0,40.0,,,HRV,HRV_0086,2022-11-30 18:09:02
,wl-rdm,157,496885,0.0-8.40-0.40,1.0,158.0,,,,,,,[],,,,,,73.6,1.0,i,1.0,True,808.2999999523163,49.0,60.0,40.0,False,,391.23208382608743,[],"[960, 540]",ColorTask,89.0,41.0,,,HRV,HRV_0086,2022-11-30 18:09:02
,wl-rdm,158,498985,0.0-8.41-0.41,1.0,159.0,,,,,,,[],,,,,,56.4,0.0,u,0.0,True,772.2000000476837,47.0,60.0,40.0,False,,249.0965364443618,[],"[960, 540]",ColorTask,90.0,42.0,,,HRV,HRV_0086,2022-11-30 18:09:02
,wl-rdm,159,501251,0.0-8.42-0.42,1.0,160.0,,,,,,,[],,,,,,62.5,0.0,u,0.0,True,977.2000000476837,59.0,60.0,40.0,False,,200.55951822890543,[],"[960, 540]",ColorTask,91.0,43.0,,,HRV,HRV_0086,2022-11-30 18:09:02
,wl-rdm,160,503800,0.0-8.43-0.43,1.0,161.0,,,,,,,[],,,,,,50.0,0.0,u,0.0,True,1155.0,70.0,60.0,40.0,False,,313.6177271582752,[],"[960, 540]",ColorTask,92.0,44.0,,,HRV,HRV_0086,2022-11-30 18:09:02
,wl-rdm,161,505966,0.0-8.44-0.44,1.0,162.0,,,,,,,[],,,,,,73.6,0.0,u,0.0,True,750.3999998569489,45.0,60.0,40.0,False,,335.63369159442,[],"[960, 540]",ColorTask,93.0,45.0,,,HRV,HRV_0086,2022-11-30 18:09:02
,wl-rdm,162,508832,0.0-8.45-0.45,1.0,163.0,,,,,,,[],,,,,,56.4,0.0,u,0.0,True,1440.7000000476837,87.0,60.0,40.0,False,,341.6984701656839,[],"[960, 540]",ColorTask,94.0,46.0,,,HRV,HRV_0086,2022-11-30 18:09:02
,wl-rdm,163,511265,0.0-8.46-0.46,1.0,164.0,,,,,,,[],,,,,,50.0,0.0,i,1.0,False,972.4000000953674,59.0,60.0,40.0,False,,385.52856669847756,[],"[960, 540]",ColorTask,93.0,47.0,,,HRV,HRV_0086,2022-11-30 18:09:02
,wl-rdm,164,513398,0.0-8.47-0.47,1.0,165.0,,,,,,,[],,,,,,73.6,1.0,i,1.0,True,856.7999999523163,52.0,60.0,40.0,False,,207.59310096809867,[],"[960, 540]",ColorTask,94.0,48.0,,,HRV,HRV_0086,2022-11-30 18:09:02
,wl-rdm,165,515698,0.0-8.48-0.48,1.0,166.0,,,,,,,[],,,,,,62.5,0.0,u,0.0,True,855.1999998092651,52.0,60.0,40.0,False,,353.19534206195715,[],"[960, 540]",ColorTask,95.0,49.0,,,HRV,HRV_0086,2022-11-30 18:09:02
,wl-rdm,166,518147,0.0-8.49-0.49,1.0,167.0,,,,,,,[],,,,,,53.2,0.0,i,1.0,False,1139.0999999046326,69.0,60.0,40.0,False,,224.54447312217746,[],"[960, 540]",ColorTask,94.0,50.0,,,HRV,HRV_0086,2022-11-30 18:09:02
,wl-rdm,167,520280,0.0-8.50-0.50,1.0,168.0,,,,,,,[],,,,,,87.9,0.0,u,0.0,True,761.2000000476837,46.0,60.0,40.0,False,,298.5560612267515,[],"[960, 540]",ColorTask,95.0,51.0,,,HRV,HRV_0086,2022-11-30 18:09:02
,wl-rdm,168,523763,0.0-8.51-0.51,1.0,169.0,,,,,,,[],,,,,,56.4,0.0,u,0.0,True,2180.399999856949,131.0,60.0,40.0,False,,236.5456676189956,[],"[960, 540]",ColorTask,96.0,52.0,,,HRV,HRV_0086,2022-11-30 18:09:02
,wl-rdm,169,526063,0.0-8.52-0.52,1.0,170.0,,,,,,,[],,,,,,56.4,1.0,i,1.0,True,947.5999999046326,57.0,60.0,40.0,False,,270.73699663452794,[],"[960, 540]",ColorTask,97.0,53.0,,,HRV,HRV_0086,2022-11-30 18:09:02
,wl-rdm,170,528379,0.0-8.53-0.53,1.0,171.0,,,,,,,[],,,,,,73.6,0.0,u,0.0,True,949.0999999046326,57.0,60.0,40.0,False,,285.6106925774619,[],"[960, 540]",ColorTask,98.0,54.0,,,HRV,HRV_0086,2022-11-30 18:09:02
,wl-rdm,171,530378,0.0-8.54-0.54,1.0,172.0,,,,,,,[],,,,,,87.9,0.0,u,0.0,True,704.3000001907349,43.0,60.0,40.0,False,,209.79333133999265,[],"[960, 540]",ColorTask,99.0,55.0,,,HRV,HRV_0086,2022-11-30 18:09:02
,wl-rdm,172,532411,0.0-8.55-0.55,1.0,173.0,,,,,,,[],,,,,,62.5,1.0,i,1.0,True,726.0999999046326,44.0,60.0,40.0,False,,227.87397290526067,[],"[960, 540]",ColorTask,100.0,56.0,,,HRV,HRV_0086,2022-11-30 18:09:02
,wl-rdm,173,534678,0.0-8.56-0.56,1.0,174.0,,,,,,,[],,,,,,50.0,0.0,u,0.0,True,975.4000000953674,59.0,60.0,40.0,False,,230.26291173515318,[],"[960, 540]",ColorTask,101.0,57.0,,,HRV,HRV_0086,2022-11-30 18:09:02
,wl-rdm,174,537061,0.0-8.57-0.57,1.0,175.0,,,,,,,[],,,,,,73.6,1.0,i,1.0,True,1042.6999998092651,63.0,60.0,40.0,False,,281.221997378584,[],"[960, 540]",ColorTask,102.0,58.0,,,HRV,HRV_0086,2022-11-30 18:09:02
,wl-rdm,175,539611,0.0-8.58-0.58,1.0,176.0,,,,,,,[],,,,,,53.2,0.0,u,0.0,True,1172.1999998092651,71.0,60.0,40.0,False,,284.97677132884536,[],"[960, 540]",ColorTask,103.0,59.0,,,HRV,HRV_0086,2022-11-30 18:09:02
,wl-rdm,176,541893,0.0-8.59-0.59,1.0,177.0,,,,,,,[],,,,,,62.5,1.0,i,1.0,True,947.1000001430511,57.0,60.0,40.0,False,,275.10742620063706,[],"[960, 540]",ColorTask,104.0,60.0,,,HRV,HRV_0086,2022-11-30 18:09:02
,wl-rdm,177,544143,0.0-8.60-0.60,1.0,178.0,,,,,,,[],,,,,,62.5,0.0,u,0.0,True,811.400000333786,49.0,60.0,40.0,False,,370.88275548984086,[],"[960, 540]",ColorTask,105.0,61.0,,,HRV,HRV_0086,2022-11-30 18:09:02
,wl-rdm,178,546509,0.0-8.61-0.61,1.0,179.0,,,,,,,[],,,,,,53.2,0.0,u,0.0,True,993.0,60.0,60.0,40.0,False,,296.4815895059289,[],"[960, 540]",ColorTask,106.0,62.0,,,HRV,HRV_0086,2022-11-30 18:09:02
,wl-rdm,179,548675,0.0-8.62-0.62,1.0,180.0,,,,,,,[],,,,,,87.9,0.0,u,0.0,True,711.7999999523163,43.0,60.0,40.0,False,,377.62175562586594,[],"[960, 540]",ColorTask,107.0,63.0,,,HRV,HRV_0086,2022-11-30 18:09:02
,wl-rdm,180,551428,0.0-8.63-0.63,1.0,181.0,,,,,,,[],,,,,,62.5,0.0,u,0.0,True,1271.7999999523163,77.0,60.0,40.0,False,,398.3323878762269,[],"[960, 540]",ColorTask,108.0,64.0,,,HRV,HRV_0086,2022-11-30 18:09:02
,wl-rdm,181,553958,0.0-8.64-0.64,1.0,182.0,,,,,,,[],,,,,,50.0,1.0,i,1.0,True,1233.1000001430511,74.0,60.0,40.0,False,,216.2686884925394,[],"[960, 540]",ColorTask,109.0,65.0,,,HRV,HRV_0086,2022-11-30 18:09:02
,wl-rdm,182,556425,0.0-8.65-0.65,1.0,183.0,,,,,,,[],,,,,,62.5,1.0,i,1.0,True,1054.8999998569489,64.0,60.0,40.0,False,,318.31626944641494,[],"[960, 540]",ColorTask,110.0,66.0,,,HRV,HRV_0086,2022-11-30 18:09:02
,wl-rdm,183,559174,0.0-8.66-0.66,1.0,184.0,,,,,,,[],,,,,,56.4,1.0,i,1.0,True,1433.5,86.0,60.0,40.0,False,,234.98442398311778,[],"[960, 540]",ColorTask,111.0,67.0,,,HRV,HRV_0086,2022-11-30 18:09:02
,wl-rdm,184,561490,0.0-8.67-0.67,1.0,185.0,,,,,,,[],,,,,,56.4,1.0,i,1.0,True,1007.2000000476837,61.0,60.0,40.0,False,,231.30945052543072,[],"[960, 540]",ColorTask,112.0,68.0,,,HRV,HRV_0086,2022-11-30 18:09:02
,wl-rdm,185,563591,0.0-8.68-0.68,1.0,186.0,,,,,,,[],,,,,,87.9,1.0,i,1.0,True,707.0999999046326,43.0,60.0,40.0,False,,319.44225931869994,[],"[960, 540]",ColorTask,113.0,69.0,,,HRV,HRV_0086,2022-11-30 18:09:02
,wl-rdm,186,565790,0.0-8.69-0.69,1.0,187.0,,,,,,,[],,,,,,53.2,1.0,u,0.0,False,846.7999999523163,51.0,60.0,40.0,False,,285.2080550655088,[],"[960, 540]",ColorTask,112.0,70.0,,,HRV,HRV_0086,2022-11-30 18:09:02
,wl-rdm,187,568272,0.0-8.70-0.70,1.0,188.0,,,,,,,[],,,,,,50.0,1.0,u,0.0,False,1094.0999999046326,66.0,60.0,40.0,False,,306.1574240591332,[],"[960, 540]",ColorTask,111.0,71.0,,,HRV,HRV_0086,2022-11-30 18:09:02
,wl-rdm,188,570573,0.0-8.71-0.71,1.0,189.0,,,,,,,[],,,,,,73.6,0.0,u,0.0,True,906.2999999523163,55.0,60.0,40.0,False,,300.4015647873918,[],"[960, 540]",ColorTask,112.0,72.0,,,HRV,HRV_0086,2022-11-30 18:09:02
,wl-rdm,189,572673,0.0-8.72-0.72,1.0,190.0,,,,,,,[],,,,,,62.5,1.0,i,1.0,True,723.2000000476837,44.0,60.0,40.0,False,,293.17231889519365,[],"[960, 540]",ColorTask,113.0,73.0,,,HRV,HRV_0086,2022-11-30 18:09:02
,wl-rdm,190,574972,0.0-8.73-0.73,1.0,191.0,,,,,,,[],,,,,,87.9,0.0,u,0.0,True,962.4000000953674,58.0,60.0,40.0,False,,268.9288225324011,[],"[960, 540]",ColorTask,114.0,74.0,,,HRV,HRV_0086,2022-11-30 18:09:02
,wl-rdm,191,577971,0.0-8.74-0.74,1.0,192.0,,,,,,,[],,,,,,56.4,1.0,u,0.0,False,1705.6999998092651,103.0,60.0,40.0,False,,201.50752585521718,[],"[960, 540]",ColorTask,113.0,75.0,,,HRV,HRV_0086,2022-11-30 18:09:02
,wl-rdm,192,580470,0.0-8.75-0.75,1.0,193.0,,,,,,,[],,,,,,56.4,0.0,i,1.0,False,1162.2999999523163,70.0,60.0,40.0,False,,262.4261358345369,[],"[960, 540]",ColorTask,112.0,76.0,,,HRV,HRV_0086,2022-11-30 18:09:02
,wl-rdm,193,582803,0.0-8.76-0.76,1.0,194.0,,,,,,,[],,,,,,53.2,1.0,u,0.0,False,997.1999998092651,60.0,60.0,40.0,False,,277.84743831876693,[],"[960, 540]",ColorTask,111.0,77.0,,,HRV,HRV_0086,2022-11-30 18:09:02
,wl-rdm,194,584903,0.0-8.77-0.77,1.0,195.0,,,,,,,[],,,,,,87.9,0.0,u,0.0,True,821.2000002861023,50.0,60.0,40.0,False,,205.36887984612196,[],"[960, 540]",ColorTask,112.0,78.0,,,HRV,HRV_0086,2022-11-30 18:09:02
,wl-rdm,195,587119,0.0-8.78-0.78,1.0,196.0,,,,,,,[],,,,,,53.2,1.0,i,1.0,True,932.2999999523163,56.0,60.0,40.0,False,,231.7789318469374,[],"[960, 540]",ColorTask,113.0,79.0,,,HRV,HRV_0086,2022-11-30 18:09:02
,wl-rdm,196,589452,0.0-8.79-0.79,1.0,197.0,,,,,,,[],,,,,,56.4,0.0,u,0.0,True,1026.4000000953674,62.0,60.0,40.0,False,,235.54614284758583,[],"[960, 540]",ColorTask,114.0,80.0,,,HRV,HRV_0086,2022-11-30 18:09:02
,wl-rdm,197,591718,0.0-8.80-0.80,1.0,198.0,,,,,,,[],,,,,,56.4,1.0,u,0.0,False,839.3999998569489,51.0,60.0,40.0,False,,344.81824019212195,[],"[960, 540]",ColorTask,113.0,81.0,,,HRV,HRV_0086,2022-11-30 18:09:02
,wl-rdm,198,594268,0.0-8.81-0.81,1.0,199.0,,,,,,,[],,,,,,56.4,0.0,u,0.0,True,1139.0999999046326,69.0,60.0,40.0,False,,326.09695177772403,[],"[960, 540]",ColorTask,114.0,82.0,,,HRV,HRV_0086,2022-11-30 18:09:02
,wl-rdm,199,596734,0.0-8.82-0.82,1.0,200.0,,,,,,,[],,,,,,56.4,1.0,i,1.0,True,1190.2000000476837,72.0,60.0,40.0,False,,209.39794596282727,[],"[960, 540]",ColorTask,115.0,83.0,,,HRV,HRV_0086,2022-11-30 18:09:02
,wl-rdm,200,599118,0.0-8.83-0.83,1.0,201.0,,,,,,,[],,,,,,73.6,1.0,i,1.0,True,945.5,57.0,60.0,40.0,False,,366.55044408819685,[],"[960, 540]",ColorTask,116.0,84.0,,,HRV,HRV_0086,2022-11-30 18:09:02
,wl-rdm,201,601983,0.0-8.84-0.84,1.0,202.0,,,,,,,[],,,,,,53.2,1.0,u,0.0,False,1459.3999998569489,88.0,60.0,40.0,False,,332.86725881622823,[],"[960, 540]",ColorTask,115.0,85.0,,,HRV,HRV_0086,2022-11-30 18:09:02
,wl-rdm,202,604150,0.0-8.85-0.85,1.0,203.0,,,,,,,[],,,,,,53.2,0.0,i,1.0,False,838.3999998569489,51.0,60.0,40.0,False,,265.2972975909993,[],"[960, 540]",ColorTask,114.0,86.0,,,HRV,HRV_0086,2022-11-30 18:09:02
,wl-rdm,203,606465,0.0-8.86-0.86,1.0,204.0,,,,,,,[],,,,,,73.6,1.0,u,0.0,False,889.3000001907349,54.0,60.0,40.0,False,,348.71002910835614,[],"[960, 540]",ColorTask,113.0,87.0,,,HRV,HRV_0086,2022-11-30 18:09:02
,wl-rdm,204,608932,0.0-8.87-0.87,1.0,205.0,,,,,,,[],,,,,,53.2,1.0,u,0.0,False,1176.7000002861023,71.0,60.0,40.0,False,,215.4637679324323,[],"[960, 540]",ColorTask,112.0,88.0,,,HRV,HRV_0086,2022-11-30 18:09:02
,wl-rdm,205,611765,0.0-8.88-0.88,1.0,206.0,,,,,,,[],,,,,,53.2,0.0,u,0.0,True,1410.7999997138977,85.0,60.0,40.0,False,,347.6315198811966,[],"[960, 540]",ColorTask,113.0,89.0,,,HRV,HRV_0086,2022-11-30 18:09:02
,wl-rdm,206,613765,0.0-8.89-0.89,1.0,207.0,,,,,,,[],,,,,,87.9,1.0,i,1.0,True,645.1999998092651,39.0,60.0,40.0,False,,296.6550050640187,[],"[960, 540]",ColorTask,114.0,90.0,,,HRV,HRV_0086,2022-11-30 18:09:02
,wl-rdm,207,616183,0.0-8.90-0.90,1.0,208.0,,,,,,,[],,,,,,53.2,1.0,u,0.0,False,1147.7000000476837,69.0,60.0,40.0,False,,211.99300879123274,[],"[960, 540]",ColorTask,113.0,91.0,,,HRV,HRV_0086,2022-11-30 18:09:02
,wl-rdm,208,618965,0.0-8.91-0.91,1.0,209.0,,,,,,,[],,,,,,50.0,0.0,u,0.0,True,1422.0,86.0,60.0,40.0,False,,276.499353187068,[],"[960, 540]",ColorTask,114.0,92.0,,,HRV,HRV_0086,2022-11-30 18:09:02
,wl-rdm,209,621364,0.0-8.92-0.92,1.0,210.0,,,,,,,[],,,,,,53.2,1.0,i,1.0,True,944.4000000953674,57.0,60.0,40.0,False,,394.56583729475085,[],"[960, 540]",ColorTask,115.0,93.0,,,HRV,HRV_0086,2022-11-30 18:09:02
,wl-rdm,210,624148,0.0-8.93-0.93,1.0,211.0,,,,,,,[],,,,,,62.5,1.0,i,1.0,True,1327.5000002384186,81.0,60.0,40.0,False,,359.4042379246224,[],"[960, 540]",ColorTask,116.0,94.0,,,HRV,HRV_0086,2022-11-30 18:09:02
,wl-rdm,211,626245,0.0-8.94-0.94,1.0,212.0,,,,,,,[],,,,,,87.9,1.0,i,1.0,True,671.2000000476837,41.0,60.0,40.0,False,,338.41824093048257,[],"[960, 540]",ColorTask,117.0,95.0,,,HRV,HRV_0086,2022-11-30 18:09:02
,wl-rdm,212,628445,0.0-8.95-0.95,1.0,213.0,,,,,,,[],,,,,,73.6,0.0,u,0.0,True,894.3000001907349,54.0,60.0,40.0,False,,220.62960110375406,[],"[960, 540]",ColorTask,118.0,96.0,,,HRV,HRV_0086,2022-11-30 18:09:02
,wl-rdm,213,631478,0.0-8.96-0.96,1.0,214.0,,,,,,,[],,,,,,50.0,1.0,i,1.0,True,1655.7999999523163,100.0,60.0,40.0,False,,308.730365377977,[],"[960, 540]",ColorTask,119.0,97.0,,,HRV,HRV_0086,2022-11-30 18:09:02
,wl-rdm,214,634377,0.0-8.97-0.97,1.0,215.0,,,,,,,[],,,,,,53.2,0.0,i,1.0,False,1589.0999999046326,96.0,60.0,40.0,False,,218.0408730546983,[],"[960, 540]",ColorTask,118.0,98.0,,,HRV,HRV_0086,2022-11-30 18:09:02
,wl-rdm,215,636460,0.0-8.98-0.98,1.0,216.0,,,,,,,[],,,,,,87.9,0.0,u,0.0,True,772.2999999523163,47.0,60.0,40.0,False,,238.26048764750124,[],"[960, 540]",ColorTask,119.0,99.0,,,HRV,HRV_0086,2022-11-30 18:09:02
,wl-rdm,216,639477,0.0-8.99-0.99,1.0,217.0,,,,,,,[],,,,,,56.4,0.0,u,0.0,True,1560.1999998092651,94.0,60.0,40.0,False,,371.65075277217767,[],"[960, 540]",ColorTask,120.0,100.0,,,HRV,HRV_0086,2022-11-30 18:09:02
,wl-rdm,217,642326,0.0-8.100-0.100,1.0,218.0,,,,,,,[],,,,,,50.0,1.0,u,0.0,False,1392.7999999523163,84.0,60.0,40.0,False,,379.41925914036136,[],"[960, 540]",ColorTask,119.0,101.0,,,HRV,HRV_0086,2022-11-30 18:09:02
,wl-rdm,218,644893,0.0-8.101-0.101,1.0,219.0,,,,,,,[],,,,,,50.0,0.0,i,1.0,False,1223.7000000476837,74.0,60.0,40.0,False,,266.5090298824474,[],"[960, 540]",ColorTask,118.0,102.0,,,HRV,HRV_0086,2022-11-30 18:09:02
,wl-rdm,219,647409,0.0-8.102-0.102,1.0,220.0,,,,,,,[],,,,,,62.5,1.0,i,1.0,True,1087.9000000953674,66.0,60.0,40.0,False,,357.5533396600485,[],"[960, 540]",ColorTask,119.0,103.0,,,HRV,HRV_0086,2022-11-30 18:09:02
,wl-rdm,220,649475,0.0-8.103-0.103,1.0,221.0,,,,,,,[],,,,,,87.9,1.0,i,1.0,True,598.3000001907349,36.0,60.0,40.0,False,,383.3325170418096,[],"[960, 540]",ColorTask,120.0,104.0,,,HRV,HRV_0086,2022-11-30 18:09:02
,wl-rdm,221,651475,0.0-8.104-0.104,1.0,222.0,,,,,,,[],,,,,,87.9,1.0,i,1.0,True,672.2000000476837,41.0,60.0,40.0,False,,261.5930199796024,[],"[960, 540]",ColorTask,121.0,105.0,,,HRV,HRV_0086,2022-11-30 18:09:02
,wl-rdm,222,653591,0.0-8.105-0.105,1.0,223.0,,,,,,,[],,,,,,62.5,0.0,u,0.0,True,789.3000001907349,48.0,60.0,40.0,False,,236.19193693283393,[],"[960, 540]",ColorTask,122.0,106.0,,,HRV,HRV_0086,2022-11-30 18:09:02
,wl-rdm,223,656456,0.0-8.106-0.106,1.0,224.0,,,,,,,[],,,,,,56.4,1.0,i,1.0,True,1548.2999999523163,94.0,60.0,40.0,False,,221.6601409721699,[],"[960, 540]",ColorTask,123.0,107.0,,,HRV,HRV_0086,2022-11-30 18:09:02
,wl-rdm,224,658839,0.0-8.107-0.107,1.0,225.0,,,,,,,[],,,,,,50.0,0.0,i,1.0,False,1046.2000000476837,63.0,60.0,40.0,False,,268.0279991077184,[],"[960, 540]",ColorTask,122.0,108.0,,,HRV,HRV_0086,2022-11-30 18:09:02
,wl-html-button-response,225,662033,0.0-9.0-0.0,,,,,,,,,,3184.7999999523163,,0,,,,,,,,,,,,,,,,,,,,<h3>End of this session. Thank you!</h3><br>,['Close window'],HRV,HRV_0086,2022-11-30 18:09:02
