trialN,stimuli,trialStartTime,trialStartTime_UNIX,stimulus1,stimulus2,stimulus1Bid,stimulus2Bid,delta,selected,rt,rt_UNIX,rt_perfnow,receivedResponse,rsp,trialEndTime,trialDuration,trialEndTime_UNIX,trialDuration_UNIX,exp,subjectId,date
0,"[{'imgObject': {}, 'id': 'banana', 'src': '/static/foodstim60/banana.jpg', 'key': 'u', 'origWidth': 410, 'origHeight': 410, 'width': 410, 'height': 410, 'widthPercent': 0.45, 'rescaleHeight': False, 'trialN': 0, 'loaded': True, 'loadedTime': 2407.600000143051, 'positionName': 'LEFT', 'positionCoords': [511.6, 335], 'bid': 6.66}, {'imgObject': {}, 'id': 'mac & cheese', 'src': '/static/foodstim60/mac & cheese.jpg', 'key': 'i', 'origWidth': 410, 'origHeight': 410, 'width': 410, 'height': 410, 'widthPercent': 0.45, 'rescaleHeight': False, 'trialN': 0, 'loaded': True, 'loadedTime': 2598.100000143051, 'positionName': 'RIGHT', 'positionCoords': [998.4, 335], 'bid': 9.88}]",3046.0,1669829755255,banana,mac & cheese,6.66,9.88,3.2200000000000006,mac & cheese,1107.5,1108,1108.1000001430511,True,i,4672.0,1626.0,1669829756881,1626,HRV,HRV_0086,2022-11-30 17:41:42
1,"[{'imgObject': {}, 'id': 'pear', 'src': '/static/foodstim60/pear.jpg', 'key': 'u', 'origWidth': 411, 'origHeight': 410, 'width': 411, 'height': 410, 'widthPercent': 0.45, 'rescaleHeight': False, 'trialN': 1, 'loaded': True, 'loadedTime': 2608.100000143051, 'positionName': 'LEFT', 'positionCoords': [510.6, 335], 'bid': 4.34}, {'imgObject': {}, 'id': 'turkeysandwich', 'src': '/static/foodstim60/turkeysandwich.jpg', 'key': 'i', 'origWidth': 409, 'origHeight': 409, 'width': 409, 'height': 409, 'widthPercent': 0.45, 'rescaleHeight': False, 'trialN': 1, 'loaded': True, 'loadedTime': 2616.100000143051, 'positionName': 'RIGHT', 'positionCoords': [998.4, 335.5], 'bid': 3.06}]",4672.400000095367,1669829756881,pear,turkeysandwich,4.34,3.06,-1.2799999999999998,pear,820.7999999523163,822,821.2999999523163,True,u,6004.0,1331.5999999046326,1669829758213,1332,HRV,HRV_0086,2022-11-30 17:41:42
2,"[{'imgObject': {}, 'id': 'burger', 'src': '/static/foodstim60/burger.jpg', 'key': 'u', 'origWidth': 409, 'origHeight': 409, 'width': 409, 'height': 409, 'widthPercent': 0.45, 'rescaleHeight': False, 'trialN': 2, 'loaded': True, 'loadedTime': 2635.7999999523163, 'positionName': 'LEFT', 'positionCoords': [512.6, 335.5], 'bid': 1.65}, {'imgObject': {}, 'id': 'hashbrowns', 'src': '/static/foodstim60/hashbrowns.jpg', 'key': 'i', 'origWidth': 411, 'origHeight': 410, 'width': 411, 'height': 410, 'widthPercent': 0.45, 'rescaleHeight': False, 'trialN': 2, 'loaded': True, 'loadedTime': 2644.7999999523163, 'positionName': 'RIGHT', 'positionCoords': [998.4, 335], 'bid': 2.03}]",6004.400000095367,1669829758213,burger,hashbrowns,1.65,2.03,0.3799999999999999,burger,1067.5,1068,1068.0999999046326,True,u,7578.200000047684,1573.7999999523163,1669829759787,1574,HRV,HRV_0086,2022-11-30 17:41:42
3,"[{'imgObject': {}, 'id': 'Grapes', 'src': '/static/foodstim60/Grapes.jpg', 'key': 'u', 'origWidth': 411, 'origHeight': 411, 'width': 411, 'height': 411, 'widthPercent': 0.45, 'rescaleHeight': False, 'trialN': 3, 'loaded': True, 'loadedTime': 2664.2999999523163, 'positionName': 'LEFT', 'positionCoords': [510.6, 334.5], 'bid': 2.5500000000000003}, {'imgObject': {}, 'id': 'salmon', 'src': '/static/foodstim60/salmon.jpg', 'key': 'i', 'origWidth': 410, 'origHeight': 409, 'width': 410, 'height': 409, 'widthPercent': 0.45, 'rescaleHeight': False, 'trialN': 3, 'loaded': True, 'loadedTime': 2681, 'positionName': 'RIGHT', 'positionCoords': [998.4, 335.5], 'bid': 3.37}]",7578.5,1669829759787,Grapes,salmon,2.5500000000000003,3.37,0.8199999999999998,Grapes,1012.1000001430511,1013,1012.6000001430511,True,u,9108.700000047684,1530.2000000476837,1669829761317,1530,HRV,HRV_0086,2022-11-30 17:41:42
4,"[{'imgObject': {}, 'id': 'bagel plain', 'src': '/static/foodstim60/bagel plain.jpg', 'key': 'u', 'origWidth': 410, 'origHeight': 410, 'width': 410, 'height': 410, 'widthPercent': 0.45, 'rescaleHeight': False, 'trialN': 4, 'loaded': True, 'loadedTime': 2689.7999999523163, 'positionName': 'LEFT', 'positionCoords': [511.6, 335], 'bid': 5.05}, {'imgObject': {}, 'id': 'fruitsalad', 'src': '/static/foodstim60/fruitsalad.jpg', 'key': 'i', 'origWidth': 410, 'origHeight': 410, 'width': 410, 'height': 410, 'widthPercent': 0.45, 'rescaleHeight': False, 'trialN': 4, 'loaded': True, 'loadedTime': 2699.2999999523163, 'positionName': 'RIGHT', 'positionCoords': [998.4, 335], 'bid': 0.11}]",9109.100000143051,1669829761318,bagel plain,fruitsalad,5.05,0.11,-4.9399999999999995,bagel plain,900.7999999523163,901,901.3999998569489,True,u,10519.299999952316,1410.1999998092651,1669829762728,1410,HRV,HRV_0086,2022-11-30 17:41:42
5,"[{'imgObject': {}, 'id': 'cherry tomato', 'src': '/static/foodstim60/cherry tomato.jpg', 'key': 'u', 'origWidth': 410, 'origHeight': 410, 'width': 410, 'height': 410, 'widthPercent': 0.45, 'rescaleHeight': False, 'trialN': 5, 'loaded': True, 'loadedTime': 2714.5, 'positionName': 'LEFT', 'positionCoords': [511.6, 335], 'bid': 0.05}, {'imgObject': {}, 'id': 'baked potato', 'src': '/static/foodstim60/baked potato.jpg', 'key': 'i', 'origWidth': 409, 'origHeight': 410, 'width': 409, 'height': 410, 'widthPercent': 0.45, 'rescaleHeight': False, 'trialN': 5, 'loaded': True, 'loadedTime': 2727.2000000476837, 'positionName': 'RIGHT', 'positionCoords': [998.4, 335], 'bid': 4.07}]",10519.600000143051,1669829762728,cherry tomato,baked potato,0.05,4.07,4.0200000000000005,baked potato,1069.0999999046326,1070,1069.5999999046326,True,i,12092.100000143051,1572.5,1669829764301,1573,HRV,HRV_0086,2022-11-30 17:41:42
6,"[{'imgObject': {}, 'id': 'salad w chicken', 'src': '/static/foodstim60/salad w chicken.jpg', 'key': 'u', 'origWidth': 411, 'origHeight': 411, 'width': 411, 'height': 411, 'widthPercent': 0.45, 'rescaleHeight': False, 'trialN': 6, 'loaded': True, 'loadedTime': 2738, 'positionName': 'LEFT', 'positionCoords': [510.6, 334.5], 'bid': 3.98}, {'imgObject': {}, 'id': 'blackbeanswithrice', 'src': '/static/foodstim60/blackbeanswithrice.jpg', 'key': 'i', 'origWidth': 410, 'origHeight': 410, 'width': 410, 'height': 410, 'widthPercent': 0.45, 'rescaleHeight': False, 'trialN': 6, 'loaded': True, 'loadedTime': 2810, 'positionName': 'RIGHT', 'positionCoords': [998.4, 335], 'bid': 0.67}]",12092.600000143051,1669829764301,salad w chicken,blackbeanswithrice,3.98,0.67,-3.31,salad w chicken,1033.7999999523163,1034,1034.0999999046326,True,u,13645.200000047684,1552.5999999046326,1669829765854,1553,HRV,HRV_0086,2022-11-30 17:41:42
7,"[{'imgObject': {}, 'id': 'turkey sandwich', 'src': '/static/foodstim60/turkey sandwich.jpg', 'key': 'u', 'origWidth': 409, 'origHeight': 409, 'width': 409, 'height': 409, 'widthPercent': 0.45, 'rescaleHeight': False, 'trialN': 7, 'loaded': True, 'loadedTime': 2818.600000143051, 'positionName': 'LEFT', 'positionCoords': [512.6, 335.5], 'bid': 3.73}, {'imgObject': {}, 'id': 'popsicles', 'src': '/static/foodstim60/popsicles.jpg', 'key': 'i', 'origWidth': 410, 'origHeight': 410, 'width': 410, 'height': 410, 'widthPercent': 0.45, 'rescaleHeight': False, 'trialN': 7, 'loaded': True, 'loadedTime': 3044.2999999523163, 'positionName': 'RIGHT', 'positionCoords': [998.4, 335], 'bid': 0.66}]",13645.799999952316,1669829765855,turkey sandwich,popsicles,3.73,0.66,-3.07,popsicles,1080.1000001430511,1080,1080.6000001430511,True,i,15238.700000047684,1592.9000000953674,1669829767447,1592,HRV,HRV_0086,2022-11-30 17:41:42
8,"[{'imgObject': {}, 'id': 'grilled chicken strips', 'src': '/static/foodstim60/grilled chicken strips.jpg', 'key': 'u', 'origWidth': 410, 'origHeight': 411, 'width': 410, 'height': 411, 'widthPercent': 0.45, 'rescaleHeight': False, 'trialN': 8, 'loaded': True, 'loadedTime': 2829.100000143051, 'positionName': 'LEFT', 'positionCoords': [511.6, 334.5], 'bid': 8.41}, {'imgObject': {}, 'id': 'pear', 'src': '/static/foodstim60/pear.jpg', 'key': 'i', 'origWidth': 411, 'origHeight': 410, 'width': 411, 'height': 410, 'widthPercent': 0.45, 'rescaleHeight': False, 'trialN': 8, 'loaded': True, 'loadedTime': 2599.4000000953674, 'positionName': 'RIGHT', 'positionCoords': [998.4, 335], 'bid': 4.34}]",15239.200000047684,1669829767448,grilled chicken strips,pear,8.41,4.34,-4.07,grilled chicken strips,1259.5,1260,1259.7000000476837,True,u,17011.799999952316,1772.5999999046326,1669829769220,1772,HRV,HRV_0086,2022-11-30 17:41:42
9,"[{'imgObject': {}, 'id': 'Tribe humus pita', 'src': '/static/foodstim60/Tribe humus pita.jpg', 'key': 'u', 'origWidth': 411, 'origHeight': 411, 'width': 411, 'height': 411, 'widthPercent': 0.45, 'rescaleHeight': False, 'trialN': 9, 'loaded': True, 'loadedTime': 2838.4000000953674, 'positionName': 'LEFT', 'positionCoords': [510.6, 334.5], 'bid': 6.96}, {'imgObject': {}, 'id': 'shreddedwheatwithmilk', 'src': '/static/foodstim60/shreddedwheatwithmilk.jpg', 'key': 'i', 'origWidth': 410, 'origHeight': 410, 'width': 410, 'height': 410, 'widthPercent': 0.45, 'rescaleHeight': False, 'trialN': 9, 'loaded': True, 'loadedTime': 2858.9000000953674, 'positionName': 'RIGHT', 'positionCoords': [998.4, 335], 'bid': 4.55}]",17012.0,1669829769221,Tribe humus pita,shreddedwheatwithmilk,6.96,4.55,-2.41,Tribe humus pita,866.5,867,867.0,True,u,18389.900000095367,1377.9000000953674,1669829770599,1378,HRV,HRV_0086,2022-11-30 17:41:42
10,"[{'imgObject': {}, 'id': 'chickenfingers', 'src': '/static/foodstim60/chickenfingers.jpg', 'key': 'u', 'origWidth': 410, 'origHeight': 410, 'width': 410, 'height': 410, 'widthPercent': 0.45, 'rescaleHeight': False, 'trialN': 10, 'loaded': True, 'loadedTime': 2869.600000143051, 'positionName': 'LEFT', 'positionCoords': [511.6, 335], 'bid': 9.98}, {'imgObject': {}, 'id': 'hotdog w must', 'src': '/static/foodstim60/hotdog w must.jpg', 'key': 'i', 'origWidth': 409, 'origHeight': 409, 'width': 409, 'height': 409, 'widthPercent': 0.45, 'rescaleHeight': False, 'trialN': 10, 'loaded': True, 'loadedTime': 2878.7999999523163, 'positionName': 'RIGHT', 'positionCoords': [998.4, 335.5], 'bid': 6.26}]",18390.10000014305,1669829770599,chickenfingers,hotdog w must,9.98,6.26,-3.7200000000000006,chickenfingers,977.5,978,977.8999998569489,True,u,19883.700000047684,1493.5999999046326,1669829772092,1493,HRV,HRV_0086,2022-11-30 17:41:42
11,"[{'imgObject': {}, 'id': 'blackbeanswithrice', 'src': '/static/foodstim60/blackbeanswithrice.jpg', 'key': 'u', 'origWidth': 410, 'origHeight': 410, 'width': 410, 'height': 410, 'widthPercent': 0.45, 'rescaleHeight': False, 'trialN': 11, 'loaded': True, 'loadedTime': 2809.4000000953674, 'positionName': 'LEFT', 'positionCoords': [511.6, 335], 'bid': 0.67}, {'imgObject': {}, 'id': 'blueberries', 'src': '/static/foodstim60/blueberries.jpg', 'key': 'i', 'origWidth': 411, 'origHeight': 411, 'width': 411, 'height': 411, 'widthPercent': 0.45, 'rescaleHeight': False, 'trialN': 11, 'loaded': True, 'loadedTime': 2888.2000000476837, 'positionName': 'RIGHT', 'positionCoords': [998.4, 334.5], 'bid': 0.07}]",19884.299999952316,1669829772093,blackbeanswithrice,blueberries,0.67,0.07,-0.6000000000000001,blackbeanswithrice,1106.9000000953674,1103,1107.4000000953674,True,u,21504.10000014305,1619.8000001907349,1669829773708,1615,HRV,HRV_0086,2022-11-30 17:41:42
12,"[{'imgObject': {}, 'id': 'strawberries', 'src': '/static/foodstim60/strawberries.jpg', 'key': 'u', 'origWidth': 410, 'origHeight': 410, 'width': 410, 'height': 410, 'widthPercent': 0.45, 'rescaleHeight': False, 'trialN': 12, 'loaded': True, 'loadedTime': 2888.7999999523163, 'positionName': 'LEFT', 'positionCoords': [511.6, 335], 'bid': 0.13}, {'imgObject': {}, 'id': 'sushi w_condiments', 'src': '/static/foodstim60/sushi w_condiments.jpg', 'key': 'i', 'origWidth': 410, 'origHeight': 410, 'width': 410, 'height': 410, 'widthPercent': 0.45, 'rescaleHeight': False, 'trialN': 12, 'loaded': True, 'loadedTime': 2899.7000000476837, 'positionName': 'RIGHT', 'positionCoords': [998.4, 335], 'bid': 0.03}]",21504.400000095367,1669829773708,strawberries,sushi w_condiments,0.13,0.03,-0.1,strawberries,1019.7999999523163,1021,1020.0999999046326,True,u,23032.5,1528.0999999046326,1669829775237,1529,HRV,HRV_0086,2022-11-30 17:41:42
13,"[{'imgObject': {}, 'id': 'turkeysandwich', 'src': '/static/foodstim60/turkeysandwich.jpg', 'key': 'u', 'origWidth': 409, 'origHeight': 409, 'width': 409, 'height': 409, 'widthPercent': 0.45, 'rescaleHeight': False, 'trialN': 13, 'loaded': True, 'loadedTime': 2617.600000143051, 'positionName': 'LEFT', 'positionCoords': [512.6, 335.5], 'bid': 3.06}, {'imgObject': {}, 'id': 'chickenfingers', 'src': '/static/foodstim60/chickenfingers.jpg', 'key': 'i', 'origWidth': 410, 'origHeight': 410, 'width': 410, 'height': 410, 'widthPercent': 0.45, 'rescaleHeight': False, 'trialN': 13, 'loaded': True, 'loadedTime': 2869.5, 'positionName': 'RIGHT', 'positionCoords': [998.4, 335], 'bid': 9.98}]",23032.900000095367,1669829775237,turkeysandwich,chickenfingers,3.06,9.98,6.92,chickenfingers,1085.2999999523163,1086,1085.7000000476837,True,i,24629.5,1596.5999999046326,1669829776834,1597,HRV,HRV_0086,2022-11-30 17:41:42
14,"[{'imgObject': {}, 'id': 'yogurt no spoon', 'src': '/static/foodstim60/yogurt no spoon.jpg', 'key': 'u', 'origWidth': 411, 'origHeight': 410, 'width': 411, 'height': 410, 'widthPercent': 0.45, 'rescaleHeight': False, 'trialN': 14, 'loaded': True, 'loadedTime': 2910.600000143051, 'positionName': 'LEFT', 'positionCoords': [510.6, 335], 'bid': 4.94}, {'imgObject': {}, 'id': 'tacos', 'src': '/static/foodstim60/tacos.jpg', 'key': 'i', 'origWidth': 411, 'origHeight': 411, 'width': 411, 'height': 411, 'widthPercent': 0.45, 'rescaleHeight': False, 'trialN': 14, 'loaded': True, 'loadedTime': 2910.7000000476837, 'positionName': 'RIGHT', 'positionCoords': [998.4, 334.5], 'bid': 4.2700000000000005}]",24629.900000095367,1669829776834,yogurt no spoon,tacos,4.94,4.2700000000000005,-0.6699999999999999,tacos,1437.2999999523163,1438,1438.0,True,i,26585.299999952316,1955.3999998569489,1669829778789,1955,HRV,HRV_0086,2022-11-30 17:41:42
15,"[{'imgObject': {}, 'id': 'bagel and cc', 'src': '/static/foodstim60/bagel and cc.jpg', 'key': 'u', 'origWidth': 410, 'origHeight': 410, 'width': 410, 'height': 410, 'widthPercent': 0.45, 'rescaleHeight': False, 'trialN': 15, 'loaded': True, 'loadedTime': 2920.600000143051, 'positionName': 'LEFT', 'positionCoords': [511.6, 335], 'bid': 5.76}, {'imgObject': {}, 'id': 'shreddedwheatwithmilk', 'src': '/static/foodstim60/shreddedwheatwithmilk.jpg', 'key': 'i', 'origWidth': 410, 'origHeight': 410, 'width': 410, 'height': 410, 'widthPercent': 0.45, 'rescaleHeight': False, 'trialN': 15, 'loaded': True, 'loadedTime': 2846.9000000953674, 'positionName': 'RIGHT', 'positionCoords': [998.4, 335], 'bid': 4.55}]",26585.700000047684,1669829778790,bagel and cc,shreddedwheatwithmilk,5.76,4.55,-1.21,bagel and cc,855.5,856,856.0,True,u,27960.299999952316,1374.5999999046326,1669829780164,1374,HRV,HRV_0086,2022-11-30 17:41:42
16,"[{'imgObject': {}, 'id': 'chickenfingers', 'src': '/static/foodstim60/chickenfingers.jpg', 'key': 'u', 'origWidth': 410, 'origHeight': 410, 'width': 410, 'height': 410, 'widthPercent': 0.45, 'rescaleHeight': False, 'trialN': 16, 'loaded': True, 'loadedTime': 2859, 'positionName': 'LEFT', 'positionCoords': [511.6, 335], 'bid': 9.98}, {'imgObject': {}, 'id': 'roastedpotatoes', 'src': '/static/foodstim60/roastedpotatoes.jpg', 'key': 'i', 'origWidth': 409, 'origHeight': 410, 'width': 409, 'height': 410, 'widthPercent': 0.45, 'rescaleHeight': False, 'trialN': 16, 'loaded': True, 'loadedTime': 2930.2000000476837, 'positionName': 'RIGHT', 'positionCoords': [998.4, 335], 'bid': 4.96}]",27960.700000047684,1669829780165,chickenfingers,roastedpotatoes,9.98,4.96,-5.0200000000000005,chickenfingers,938.9000000953674,939,939.4000000953674,True,u,29403.700000047684,1443.0,1669829781608,1443,HRV,HRV_0086,2022-11-30 17:41:42
17,"[{'imgObject': {}, 'id': 'chicken nuggets2', 'src': '/static/foodstim60/chicken nuggets2.jpg', 'key': 'u', 'origWidth': 410, 'origHeight': 409, 'width': 410, 'height': 409, 'widthPercent': 0.45, 'rescaleHeight': False, 'trialN': 17, 'loaded': True, 'loadedTime': 2931.9000000953674, 'positionName': 'LEFT', 'positionCoords': [511.6, 335.5], 'bid': 9.89}, {'imgObject': {}, 'id': 'cheerios', 'src': '/static/foodstim60/cheerios.jpg', 'key': 'i', 'origWidth': 409, 'origHeight': 410, 'width': 409, 'height': 410, 'widthPercent': 0.45, 'rescaleHeight': False, 'trialN': 17, 'loaded': True, 'loadedTime': 2941.2999999523163, 'positionName': 'RIGHT', 'positionCoords': [998.4, 335], 'bid': 4.9}]",29403.900000095367,1669829781608,chicken nuggets2,cheerios,9.89,4.9,-4.99,chicken nuggets2,978.8999998569489,979,979.2999999523163,True,u,30902.799999952316,1498.8999998569489,1669829783107,1499,HRV,HRV_0086,2022-11-30 17:41:42
18,"[{'imgObject': {}, 'id': 'banana', 'src': '/static/foodstim60/banana.jpg', 'key': 'u', 'origWidth': 410, 'origHeight': 410, 'width': 410, 'height': 410, 'widthPercent': 0.45, 'rescaleHeight': False, 'trialN': 18, 'loaded': True, 'loadedTime': 2408, 'positionName': 'LEFT', 'positionCoords': [511.6, 335], 'bid': 6.66}, {'imgObject': {}, 'id': 'mashed potato', 'src': '/static/foodstim60/mashed potato.jpg', 'key': 'i', 'origWidth': 409, 'origHeight': 409, 'width': 409, 'height': 409, 'widthPercent': 0.45, 'rescaleHeight': False, 'trialN': 18, 'loaded': True, 'loadedTime': 2943.2999999523163, 'positionName': 'RIGHT', 'positionCoords': [998.4, 335.5], 'bid': 5.87}]",30903.200000047684,1669829783107,banana,mashed potato,6.66,5.87,-0.79,banana,1488.0999999046326,1489,1488.5,True,u,32909.799999952316,2006.5999999046326,1669829785114,2007,HRV,HRV_0086,2022-11-30 17:41:42
19,"[{'imgObject': {}, 'id': 'roastedpotatoes', 'src': '/static/foodstim60/roastedpotatoes.jpg', 'key': 'u', 'origWidth': 409, 'origHeight': 410, 'width': 409, 'height': 410, 'widthPercent': 0.45, 'rescaleHeight': False, 'trialN': 19, 'loaded': True, 'loadedTime': 2921.2999999523163, 'positionName': 'LEFT', 'positionCoords': [512.6, 335], 'bid': 4.96}, {'imgObject': {}, 'id': 'apple slices', 'src': '/static/foodstim60/apple slices.jpg', 'key': 'i', 'origWidth': 409, 'origHeight': 410, 'width': 409, 'height': 410, 'widthPercent': 0.45, 'rescaleHeight': False, 'trialN': 19, 'loaded': True, 'loadedTime': 2944.2000000476837, 'positionName': 'RIGHT', 'positionCoords': [998.4, 335], 'bid': 4.33}]",32910.10000014305,1669829785114,roastedpotatoes,apple slices,4.96,4.33,-0.6299999999999999,apple slices,1630.6999998092651,1631,1631.0999999046326,True,i,35062.700000047684,2152.5999999046326,1669829787267,2153,HRV,HRV_0086,2022-11-30 17:41:42
20,"[{'imgObject': {}, 'id': 'cantaloupe', 'src': '/static/foodstim60/cantaloupe.jpg', 'key': 'u', 'origWidth': 409, 'origHeight': 409, 'width': 409, 'height': 409, 'widthPercent': 0.45, 'rescaleHeight': False, 'trialN': 20, 'loaded': True, 'loadedTime': 2944.9000000953674, 'positionName': 'LEFT', 'positionCoords': [512.6, 335.5], 'bid': 0.1}, {'imgObject': {}, 'id': 'burger', 'src': '/static/foodstim60/burger.jpg', 'key': 'i', 'origWidth': 409, 'origHeight': 409, 'width': 409, 'height': 409, 'widthPercent': 0.45, 'rescaleHeight': False, 'trialN': 20, 'loaded': True, 'loadedTime': 2635.7000000476837, 'positionName': 'RIGHT', 'positionCoords': [998.4, 335.5], 'bid': 1.65}]",35062.799999952316,1669829787267,cantaloupe,burger,0.1,1.65,1.5499999999999998,burger,1826.0,1826,1826.4000000953674,True,i,37401.5,2338.7000000476837,1669829789606,2339,HRV,HRV_0086,2022-11-30 17:41:42
21,"[{'imgObject': {}, 'id': 'chicken nuggets2', 'src': '/static/foodstim60/chicken nuggets2.jpg', 'key': 'u', 'origWidth': 410, 'origHeight': 409, 'width': 410, 'height': 409, 'widthPercent': 0.45, 'rescaleHeight': False, 'trialN': 21, 'loaded': True, 'loadedTime': 2931.7000000476837, 'positionName': 'LEFT', 'positionCoords': [511.6, 335.5], 'bid': 9.89}, {'imgObject': {}, 'id': 'mac & cheese', 'src': '/static/foodstim60/mac & cheese.jpg', 'key': 'i', 'origWidth': 410, 'origHeight': 410, 'width': 410, 'height': 410, 'widthPercent': 0.45, 'rescaleHeight': False, 'trialN': 21, 'loaded': True, 'loadedTime': 2598.4000000953674, 'positionName': 'RIGHT', 'positionCoords': [998.4, 335], 'bid': 9.88}]",37401.700000047684,1669829789606,chicken nuggets2,mac & cheese,9.89,9.88,-0.009999999999999787,chicken nuggets2,1150.7999999523163,1151,1151.4000000953674,True,u,39069.700000047684,1668.0,1669829791274,1668,HRV,HRV_0086,2022-11-30 17:41:42
22,"[{'imgObject': {}, 'id': 'sweetpotato', 'src': '/static/foodstim60/sweetpotato.jpg', 'key': 'u', 'origWidth': 410, 'origHeight': 410, 'width': 410, 'height': 410, 'widthPercent': 0.45, 'rescaleHeight': False, 'trialN': 22, 'loaded': True, 'loadedTime': 2955.2999999523163, 'positionName': 'LEFT', 'positionCoords': [511.6, 335], 'bid': 1.53}, {'imgObject': {}, 'id': 'ice cream sundae 002', 'src': '/static/foodstim60/ice cream sundae 002.jpg', 'key': 'i', 'origWidth': 409, 'origHeight': 409, 'width': 409, 'height': 409, 'widthPercent': 0.45, 'rescaleHeight': False, 'trialN': 22, 'loaded': True, 'loadedTime': 2965.7000000476837, 'positionName': 'RIGHT', 'positionCoords': [998.4, 335.5], 'bid': 1.37}]",39069.90000009537,1669829791274,sweetpotato,ice cream sundae 002,1.53,1.37,-0.15999999999999992,ice cream sundae 002,1345.0,1345,1345.2000000476837,True,i,40926.5,1856.5999999046326,1669829793130,1856,HRV,HRV_0086,2022-11-30 17:41:42
23,"[{'imgObject': {}, 'id': 'kiwi', 'src': '/static/foodstim60/kiwi.jpg', 'key': 'u', 'origWidth': 410, 'origHeight': 410, 'width': 410, 'height': 410, 'widthPercent': 0.45, 'rescaleHeight': False, 'trialN': 23, 'loaded': True, 'loadedTime': 2974.9000000953674, 'positionName': 'LEFT', 'positionCoords': [511.6, 335], 'bid': 0.55}, {'imgObject': {}, 'id': 'cherry tomato', 'src': '/static/foodstim60/cherry tomato.jpg', 'key': 'i', 'origWidth': 410, 'origHeight': 410, 'width': 410, 'height': 410, 'widthPercent': 0.45, 'rescaleHeight': False, 'trialN': 23, 'loaded': True, 'loadedTime': 2715.100000143051, 'positionName': 'RIGHT', 'positionCoords': [998.4, 335], 'bid': 0.05}]",40926.60000014305,1669829793131,kiwi,cherry tomato,0.55,0.05,-0.5,kiwi,1321.8999998569489,1323,1323.0,True,u,42768.299999952316,1841.6999998092651,1669829794972,1841,HRV,HRV_0086,2022-11-30 17:41:42
24,"[{'imgObject': {}, 'id': 'eggs', 'src': '/static/foodstim60/eggs.jpg', 'key': 'u', 'origWidth': 409, 'origHeight': 409, 'width': 409, 'height': 409, 'widthPercent': 0.45, 'rescaleHeight': False, 'trialN': 24, 'loaded': True, 'loadedTime': 2975.100000143051, 'positionName': 'LEFT', 'positionCoords': [512.6, 335.5], 'bid': 0}, {'imgObject': {}, 'id': 'salmon', 'src': '/static/foodstim60/salmon.jpg', 'key': 'i', 'origWidth': 410, 'origHeight': 409, 'width': 410, 'height': 409, 'widthPercent': 0.45, 'rescaleHeight': False, 'trialN': 24, 'loaded': True, 'loadedTime': 2671.7999999523163, 'positionName': 'RIGHT', 'positionCoords': [998.4, 335.5], 'bid': 3.37}]",42768.700000047684,1669829794973,eggs,salmon,0.0,3.37,3.37,salmon,1014.5999999046326,1015,1015.0999999046326,True,i,44303.40000009537,1534.7000000476837,1669829796507,1534,HRV,HRV_0086,2022-11-30 17:41:42
25,"[{'imgObject': {}, 'id': 'banana', 'src': '/static/foodstim60/banana.jpg', 'key': 'u', 'origWidth': 410, 'origHeight': 410, 'width': 410, 'height': 410, 'widthPercent': 0.45, 'rescaleHeight': False, 'trialN': 25, 'loaded': True, 'loadedTime': 2331.9000000953674, 'positionName': 'LEFT', 'positionCoords': [511.6, 335], 'bid': 6.66}, {'imgObject': {}, 'id': 'granola w milk', 'src': '/static/foodstim60/granola w milk.jpg', 'key': 'i', 'origWidth': 410, 'origHeight': 410, 'width': 410, 'height': 410, 'widthPercent': 0.45, 'rescaleHeight': False, 'trialN': 25, 'loaded': True, 'loadedTime': 2976.2999999523163, 'positionName': 'RIGHT', 'positionCoords': [998.4, 335], 'bid': 4.07}]",44303.60000014305,1669829796508,banana,granola w milk,6.66,4.07,-2.59,banana,1118.6999998092651,1119,1119.2999999523163,True,u,45941.60000014305,1638.0,1669829798146,1638,HRV,HRV_0086,2022-11-30 17:41:42
26,"[{'imgObject': {}, 'id': 'Tribe humus pita', 'src': '/static/foodstim60/Tribe humus pita.jpg', 'key': 'u', 'origWidth': 411, 'origHeight': 411, 'width': 411, 'height': 411, 'widthPercent': 0.45, 'rescaleHeight': False, 'trialN': 26, 'loaded': True, 'loadedTime': 2846.7999999523163, 'positionName': 'LEFT', 'positionCoords': [510.6, 334.5], 'bid': 6.96}, {'imgObject': {}, 'id': 'baked potato', 'src': '/static/foodstim60/baked potato.jpg', 'key': 'i', 'origWidth': 409, 'origHeight': 410, 'width': 409, 'height': 410, 'widthPercent': 0.45, 'rescaleHeight': False, 'trialN': 26, 'loaded': True, 'loadedTime': 2727.2999999523163, 'positionName': 'RIGHT', 'positionCoords': [998.4, 335], 'bid': 4.07}]",45941.799999952316,1669829798146,Tribe humus pita,baked potato,6.96,4.07,-2.8899999999999997,Tribe humus pita,878.8000001907349,879,879.3000001907349,True,u,47332.40000009537,1390.6000001430511,1669829799536,1390,HRV,HRV_0086,2022-11-30 17:41:42
27,"[{'imgObject': {}, 'id': 'Tribe humus pita', 'src': '/static/foodstim60/Tribe humus pita.jpg', 'key': 'u', 'origWidth': 411, 'origHeight': 411, 'width': 411, 'height': 411, 'widthPercent': 0.45, 'rescaleHeight': False, 'trialN': 27, 'loaded': True, 'loadedTime': 2838.100000143051, 'positionName': 'LEFT', 'positionCoords': [510.6, 334.5], 'bid': 6.96}, {'imgObject': {}, 'id': 'hotdog w must', 'src': '/static/foodstim60/hotdog w must.jpg', 'key': 'i', 'origWidth': 409, 'origHeight': 409, 'width': 409, 'height': 409, 'widthPercent': 0.45, 'rescaleHeight': False, 'trialN': 27, 'loaded': True, 'loadedTime': 2878.2999999523163, 'positionName': 'RIGHT', 'positionCoords': [998.4, 335.5], 'bid': 6.26}]",47332.700000047684,1669829799537,Tribe humus pita,hotdog w must,6.96,6.26,-0.7000000000000002,hotdog w must,1342.7000000476837,1343,1343.2000000476837,True,i,49190.5,1857.7999999523163,1669829801395,1858,HRV,HRV_0086,2022-11-30 17:41:42
28,"[{'imgObject': {}, 'id': 'cocktailshrimp', 'src': '/static/foodstim60/cocktailshrimp.jpg', 'key': 'u', 'origWidth': 410, 'origHeight': 410, 'width': 410, 'height': 410, 'widthPercent': 0.45, 'rescaleHeight': False, 'trialN': 28, 'loaded': True, 'loadedTime': 2985.5, 'positionName': 'LEFT', 'positionCoords': [511.6, 335], 'bid': 0.13}, {'imgObject': {}, 'id': 'salmon', 'src': '/static/foodstim60/salmon.jpg', 'key': 'i', 'origWidth': 410, 'origHeight': 409, 'width': 410, 'height': 409, 'widthPercent': 0.45, 'rescaleHeight': False, 'trialN': 28, 'loaded': True, 'loadedTime': 2680.5, 'positionName': 'RIGHT', 'positionCoords': [998.4, 335.5], 'bid': 3.37}]",49190.700000047684,1669829801395,cocktailshrimp,salmon,0.13,3.37,3.24,salmon,912.0999999046326,913,912.7999999523163,True,i,50623.60000014305,1432.9000000953674,1669829802828,1433,HRV,HRV_0086,2022-11-30 17:41:42
29,"[{'imgObject': {}, 'id': 'avocado', 'src': '/static/foodstim60/avocado.jpg', 'key': 'u', 'origWidth': 409, 'origHeight': 409, 'width': 409, 'height': 409, 'widthPercent': 0.45, 'rescaleHeight': False, 'trialN': 29, 'loaded': True, 'loadedTime': 2985.7000000476837, 'positionName': 'LEFT', 'positionCoords': [512.6, 335.5], 'bid': 0.1}, {'imgObject': {}, 'id': 'mango', 'src': '/static/foodstim60/mango.jpg', 'key': 'i', 'origWidth': 411, 'origHeight': 411, 'width': 411, 'height': 411, 'widthPercent': 0.45, 'rescaleHeight': False, 'trialN': 29, 'loaded': True, 'loadedTime': 3002.100000143051, 'positionName': 'RIGHT', 'positionCoords': [998.4, 334.5], 'bid': 0.1}]",50624.10000014305,1669829802828,avocado,mango,0.1,0.1,0.0,avocado,1104.0999999046326,1105,1104.5999999046326,True,u,52250.700000047684,1626.5999999046326,1669829804455,1627,HRV,HRV_0086,2022-11-30 17:41:42
30,"[{'imgObject': {}, 'id': 'corn cob', 'src': '/static/foodstim60/corn cob.jpg', 'key': 'u', 'origWidth': 411, 'origHeight': 411, 'width': 411, 'height': 411, 'widthPercent': 0.45, 'rescaleHeight': False, 'trialN': 30, 'loaded': True, 'loadedTime': 3003.2000000476837, 'positionName': 'LEFT', 'positionCoords': [510.6, 334.5], 'bid': 3.67}, {'imgObject': {}, 'id': 'cherries', 'src': '/static/foodstim60/cherries.jpg', 'key': 'i', 'origWidth': 410, 'origHeight': 411, 'width': 410, 'height': 411, 'widthPercent': 0.45, 'rescaleHeight': False, 'trialN': 30, 'loaded': True, 'loadedTime': 3015.5, 'positionName': 'RIGHT', 'positionCoords': [998.4, 334.5], 'bid': 0}]",52250.90000009537,1669829804455,corn cob,cherries,3.67,0.0,-3.67,corn cob,1854.0,1855,1854.5999999046326,True,u,54624.5,2373.5999999046326,1669829806829,2374,HRV,HRV_0086,2022-11-30 17:41:42
31,"[{'imgObject': {}, 'id': 'veggieswithdip', 'src': '/static/foodstim60/veggieswithdip.jpg', 'key': 'u', 'origWidth': 409, 'origHeight': 409, 'width': 409, 'height': 409, 'widthPercent': 0.45, 'rescaleHeight': False, 'trialN': 31, 'loaded': True, 'loadedTime': 3025.5, 'positionName': 'LEFT', 'positionCoords': [512.6, 335.5], 'bid': 0.12}, {'imgObject': {}, 'id': 'mashed potato', 'src': '/static/foodstim60/mashed potato.jpg', 'key': 'i', 'origWidth': 409, 'origHeight': 409, 'width': 409, 'height': 409, 'widthPercent': 0.45, 'rescaleHeight': False, 'trialN': 31, 'loaded': True, 'loadedTime': 2943.5, 'positionName': 'RIGHT', 'positionCoords': [998.4, 335.5], 'bid': 5.87}]",54625.0,1669829806829,veggieswithdip,mashed potato,0.12,5.87,5.75,mashed potato,1149.2999999523163,1150,1149.7999999523163,True,i,56294.40000009537,1669.4000000953674,1669829808499,1670,HRV,HRV_0086,2022-11-30 17:41:42
32,"[{'imgObject': {}, 'id': 'fried eggs', 'src': '/static/foodstim60/fried eggs.jpg', 'key': 'u', 'origWidth': 410, 'origHeight': 410, 'width': 410, 'height': 410, 'widthPercent': 0.45, 'rescaleHeight': False, 'trialN': 32, 'loaded': True, 'loadedTime': 3025.7999999523163, 'positionName': 'LEFT', 'positionCoords': [511.6, 335], 'bid': 5.76}, {'imgObject': {}, 'id': 'roastedpotatoes', 'src': '/static/foodstim60/roastedpotatoes.jpg', 'key': 'i', 'origWidth': 409, 'origHeight': 410, 'width': 409, 'height': 410, 'widthPercent': 0.45, 'rescaleHeight': False, 'trialN': 32, 'loaded': True, 'loadedTime': 2930.5, 'positionName': 'RIGHT', 'positionCoords': [998.4, 335], 'bid': 4.96}]",56294.60000014305,1669829808499,fried eggs,roastedpotatoes,5.76,4.96,-0.7999999999999998,fried eggs,858.2999999523163,858,858.6999998092651,True,u,57669.60000014305,1375.0,1669829809874,1375,HRV,HRV_0086,2022-11-30 17:41:42
33,"[{'imgObject': {}, 'id': 'kiwi', 'src': '/static/foodstim60/kiwi.jpg', 'key': 'u', 'origWidth': 410, 'origHeight': 410, 'width': 410, 'height': 410, 'widthPercent': 0.45, 'rescaleHeight': False, 'trialN': 33, 'loaded': True, 'loadedTime': 2966.7000000476837, 'positionName': 'LEFT', 'positionCoords': [511.6, 335], 'bid': 0.55}, {'imgObject': {}, 'id': 'fruitsalad', 'src': '/static/foodstim60/fruitsalad.jpg', 'key': 'i', 'origWidth': 410, 'origHeight': 410, 'width': 410, 'height': 410, 'widthPercent': 0.45, 'rescaleHeight': False, 'trialN': 33, 'loaded': True, 'loadedTime': 2699.2999999523163, 'positionName': 'RIGHT', 'positionCoords': [998.4, 335], 'bid': 0.11}]",57669.799999952316,1669829809874,kiwi,fruitsalad,0.55,0.11,-0.44000000000000006,kiwi,1220.9000000953674,1221,1221.1000001430511,True,u,59401.700000047684,1731.9000000953674,1669829811606,1732,HRV,HRV_0086,2022-11-30 17:41:42
34,"[{'imgObject': {}, 'id': 'cherry tomato', 'src': '/static/foodstim60/cherry tomato.jpg', 'key': 'u', 'origWidth': 410, 'origHeight': 410, 'width': 410, 'height': 410, 'widthPercent': 0.45, 'rescaleHeight': False, 'trialN': 34, 'loaded': True, 'loadedTime': 2706.7999999523163, 'positionName': 'LEFT', 'positionCoords': [511.6, 335], 'bid': 0.05}, {'imgObject': {}, 'id': 'raspberries', 'src': '/static/foodstim60/raspberries.jpg', 'key': 'i', 'origWidth': 411, 'origHeight': 411, 'width': 411, 'height': 411, 'widthPercent': 0.45, 'rescaleHeight': False, 'trialN': 34, 'loaded': True, 'loadedTime': 3027.4000000953674, 'positionName': 'RIGHT', 'positionCoords': [998.4, 334.5], 'bid': 0.07}]",59402.0,1669829811606,cherry tomato,raspberries,0.05,0.07,0.020000000000000004,raspberries,1727.7999999523163,1728,1728.4000000953674,True,i,61643.10000014305,2241.100000143051,1669829813847,2241,HRV,HRV_0086,2022-11-30 17:41:42
35,"[{'imgObject': {}, 'id': 'banana', 'src': '/static/foodstim60/banana.jpg', 'key': 'u', 'origWidth': 410, 'origHeight': 410, 'width': 410, 'height': 410, 'widthPercent': 0.45, 'rescaleHeight': False, 'trialN': 35, 'loaded': True, 'loadedTime': 2417.5, 'positionName': 'LEFT', 'positionCoords': [511.6, 335], 'bid': 6.66}, {'imgObject': {}, 'id': 'omelette', 'src': '/static/foodstim60/omelette.jpg', 'key': 'i', 'origWidth': 410, 'origHeight': 409, 'width': 410, 'height': 409, 'widthPercent': 0.45, 'rescaleHeight': False, 'trialN': 35, 'loaded': True, 'loadedTime': 3040, 'positionName': 'RIGHT', 'positionCoords': [998.4, 335.5], 'bid': 4.51}]",61643.200000047684,1669829813847,banana,omelette,6.66,4.51,-2.1500000000000004,omelette,1335.2999999523163,1336,1335.7999999523163,True,i,63489.299999952316,1846.0999999046326,1669829815693,1846,HRV,HRV_0086,2022-11-30 17:41:42
36,"[{'imgObject': {}, 'id': 'cherries', 'src': '/static/foodstim60/cherries.jpg', 'key': 'u', 'origWidth': 410, 'origHeight': 411, 'width': 410, 'height': 411, 'widthPercent': 0.45, 'rescaleHeight': False, 'trialN': 36, 'loaded': True, 'loadedTime': 3014.7000000476837, 'positionName': 'LEFT', 'positionCoords': [511.6, 334.5], 'bid': 0}, {'imgObject': {}, 'id': 'orange slices', 'src': '/static/foodstim60/orange slices.jpg', 'key': 'i', 'origWidth': 409, 'origHeight': 410, 'width': 409, 'height': 410, 'widthPercent': 0.45, 'rescaleHeight': False, 'trialN': 36, 'loaded': True, 'loadedTime': 3040.100000143051, 'positionName': 'RIGHT', 'positionCoords': [998.4, 335], 'bid': 0}]",63489.5,1669829815694,cherries,orange slices,0.0,0.0,0.0,orange slices,1702.2999999523163,1702,1702.7000000476837,True,i,65705.79999995232,2216.2999999523163,1669829817910,2216,HRV,HRV_0086,2022-11-30 17:41:42
37,"[{'imgObject': {}, 'id': 'sweetpotato', 'src': '/static/foodstim60/sweetpotato.jpg', 'key': 'u', 'origWidth': 410, 'origHeight': 410, 'width': 410, 'height': 410, 'widthPercent': 0.45, 'rescaleHeight': False, 'trialN': 37, 'loaded': True, 'loadedTime': 2955.2999999523163, 'positionName': 'LEFT', 'positionCoords': [511.6, 335], 'bid': 1.53}, {'imgObject': {}, 'id': 'froot loops w milk', 'src': '/static/foodstim60/froot loops w milk.jpg', 'key': 'i', 'origWidth': 410, 'origHeight': 410, 'width': 410, 'height': 410, 'widthPercent': 0.45, 'rescaleHeight': False, 'trialN': 37, 'loaded': True, 'loadedTime': 3041.7999999523163, 'positionName': 'RIGHT', 'positionCoords': [998.4, 335], 'bid': 8.48}]",65706.0,1669829817910,sweetpotato,froot loops w milk,1.53,8.48,6.95,froot loops w milk,1125.0,1126,1125.6000001430511,True,i,67352.5,1646.5,1669829819556,1646,HRV,HRV_0086,2022-11-30 17:41:42
38,"[{'imgObject': {}, 'id': 'burrito', 'src': '/static/foodstim60/burrito.jpg', 'key': 'u', 'origWidth': 410, 'origHeight': 410, 'width': 410, 'height': 410, 'widthPercent': 0.45, 'rescaleHeight': False, 'trialN': 38, 'loaded': True, 'loadedTime': 3042.9000000953674, 'positionName': 'LEFT', 'positionCoords': [511.6, 335], 'bid': 0}, {'imgObject': {}, 'id': 'avocado', 'src': '/static/foodstim60/avocado.jpg', 'key': 'i', 'origWidth': 409, 'origHeight': 409, 'width': 409, 'height': 409, 'widthPercent': 0.45, 'rescaleHeight': False, 'trialN': 38, 'loaded': True, 'loadedTime': 2986.7999999523163, 'positionName': 'RIGHT', 'positionCoords': [998.4, 335.5], 'bid': 0.1}]",67352.79999995232,1669829819557,burrito,avocado,0.0,0.1,0.1,burrito,1015.6000001430511,1016,1015.9000000953674,True,u,68882.5,1529.7000000476837,1669829821087,1530,HRV,HRV_0086,2022-11-30 17:41:42
39,"[{'imgObject': {}, 'id': 'tacos', 'src': '/static/foodstim60/tacos.jpg', 'key': 'u', 'origWidth': 411, 'origHeight': 411, 'width': 411, 'height': 411, 'widthPercent': 0.45, 'rescaleHeight': False, 'trialN': 39, 'loaded': True, 'loadedTime': 2911.7000000476837, 'positionName': 'LEFT', 'positionCoords': [510.6, 334.5], 'bid': 4.2700000000000005}, {'imgObject': {}, 'id': 'raspberries', 'src': '/static/foodstim60/raspberries.jpg', 'key': 'i', 'origWidth': 411, 'origHeight': 411, 'width': 411, 'height': 411, 'widthPercent': 0.45, 'rescaleHeight': False, 'trialN': 39, 'loaded': True, 'loadedTime': 3027.600000143051, 'positionName': 'RIGHT', 'positionCoords': [998.4, 334.5], 'bid': 0.07}]",68882.70000004768,1669829821087,tacos,raspberries,4.2700000000000005,0.07,-4.2,tacos,1075.5,1076,1076.0999999046326,True,u,70468.5,1585.7999999523163,1669829822673,1586,HRV,HRV_0086,2022-11-30 17:41:42
40,"[{'imgObject': {}, 'id': 'Grapes', 'src': '/static/foodstim60/Grapes.jpg', 'key': 'u', 'origWidth': 411, 'origHeight': 411, 'width': 411, 'height': 411, 'widthPercent': 0.45, 'rescaleHeight': False, 'trialN': 40, 'loaded': True, 'loadedTime': 2662.7000000476837, 'positionName': 'LEFT', 'positionCoords': [510.6, 334.5], 'bid': 2.5500000000000003}, {'imgObject': {}, 'id': 'apple slices', 'src': '/static/foodstim60/apple slices.jpg', 'key': 'i', 'origWidth': 409, 'origHeight': 410, 'width': 409, 'height': 410, 'widthPercent': 0.45, 'rescaleHeight': False, 'trialN': 40, 'loaded': True, 'loadedTime': 2944.100000143051, 'positionName': 'RIGHT', 'positionCoords': [998.4, 335], 'bid': 4.33}]",70468.60000014305,1669829822673,Grapes,apple slices,2.5500000000000003,4.33,1.7799999999999998,apple slices,1073.5,1074,1074.0,True,i,72065.79999995232,1597.1999998092651,1669829824270,1597,HRV,HRV_0086,2022-11-30 17:41:42
41,"[{'imgObject': {}, 'id': 'salmon', 'src': '/static/foodstim60/salmon.jpg', 'key': 'u', 'origWidth': 410, 'origHeight': 409, 'width': 410, 'height': 409, 'widthPercent': 0.45, 'rescaleHeight': False, 'trialN': 41, 'loaded': True, 'loadedTime': 2680.9000000953674, 'positionName': 'LEFT', 'positionCoords': [511.6, 335.5], 'bid': 3.37}, {'imgObject': {}, 'id': 'bagel plain', 'src': '/static/foodstim60/bagel plain.jpg', 'key': 'i', 'origWidth': 410, 'origHeight': 410, 'width': 410, 'height': 410, 'widthPercent': 0.45, 'rescaleHeight': False, 'trialN': 41, 'loaded': True, 'loadedTime': 2698.4000000953674, 'positionName': 'RIGHT', 'positionCoords': [998.4, 335], 'bid': 5.05}]",72066.10000014305,1669829824270,salmon,bagel plain,3.37,5.05,1.6799999999999997,bagel plain,1069.0,1070,1069.5,True,i,73657.90000009537,1591.7999999523163,1669829825862,1592,HRV,HRV_0086,2022-11-30 17:41:42
42,"[{'imgObject': {}, 'id': 'chicken nuggets2', 'src': '/static/foodstim60/chicken nuggets2.jpg', 'key': 'u', 'origWidth': 410, 'origHeight': 409, 'width': 410, 'height': 409, 'widthPercent': 0.45, 'rescaleHeight': False, 'trialN': 42, 'loaded': True, 'loadedTime': 2932, 'positionName': 'LEFT', 'positionCoords': [511.6, 335.5], 'bid': 9.89}, {'imgObject': {}, 'id': 'hashbrowns', 'src': '/static/foodstim60/hashbrowns.jpg', 'key': 'i', 'origWidth': 411, 'origHeight': 410, 'width': 411, 'height': 410, 'widthPercent': 0.45, 'rescaleHeight': False, 'trialN': 42, 'loaded': True, 'loadedTime': 2653.7999999523163, 'positionName': 'RIGHT', 'positionCoords': [998.4, 335], 'bid': 2.03}]",73658.29999995232,1669829825862,chicken nuggets2,hashbrowns,9.89,2.03,-7.860000000000001,chicken nuggets2,805.3000001907349,806,805.5,True,u,74987.60000014305,1329.3000001907349,1669829827192,1330,HRV,HRV_0086,2022-11-30 17:41:42
43,"[{'imgObject': {}, 'id': 'lox', 'src': '/static/foodstim60/lox.jpg', 'key': 'u', 'origWidth': 410, 'origHeight': 411, 'width': 410, 'height': 411, 'widthPercent': 0.45, 'rescaleHeight': False, 'trialN': 43, 'loaded': True, 'loadedTime': 2449.100000143051, 'positionName': 'LEFT', 'positionCoords': [511.6, 334.5], 'bid': 0.11}, {'imgObject': {}, 'id': 'cocktailshrimp', 'src': '/static/foodstim60/cocktailshrimp.jpg', 'key': 'i', 'origWidth': 410, 'origHeight': 410, 'width': 410, 'height': 410, 'widthPercent': 0.45, 'rescaleHeight': False, 'trialN': 43, 'loaded': True, 'loadedTime': 2985.600000143051, 'positionName': 'RIGHT', 'positionCoords': [998.4, 335], 'bid': 0.13}]",74987.90000009537,1669829827192,lox,cocktailshrimp,0.11,0.13,0.020000000000000004,cocktailshrimp,1690.8999998569489,1691,1691.3999998569489,True,i,77188.0,2200.0999999046326,1669829829392,2200,HRV,HRV_0086,2022-11-30 17:41:42
44,"[{'imgObject': {}, 'id': 'corn cob', 'src': '/static/foodstim60/corn cob.jpg', 'key': 'u', 'origWidth': 411, 'origHeight': 411, 'width': 411, 'height': 411, 'widthPercent': 0.45, 'rescaleHeight': False, 'trialN': 44, 'loaded': True, 'loadedTime': 3014.600000143051, 'positionName': 'LEFT', 'positionCoords': [510.6, 334.5], 'bid': 3.67}, {'imgObject': {}, 'id': 'turkeysandwich', 'src': '/static/foodstim60/turkeysandwich.jpg', 'key': 'i', 'origWidth': 409, 'origHeight': 409, 'width': 409, 'height': 409, 'widthPercent': 0.45, 'rescaleHeight': False, 'trialN': 44, 'loaded': True, 'loadedTime': 2617.4000000953674, 'positionName': 'RIGHT', 'positionCoords': [998.4, 335.5], 'bid': 3.06}]",77188.20000004768,1669829829392,corn cob,turkeysandwich,3.67,3.06,-0.6099999999999999,turkeysandwich,1237.7000000476837,1239,1238.5,True,i,78941.29999995232,1753.0999999046326,1669829831145,1753,HRV,HRV_0086,2022-11-30 17:41:42
45,"[{'imgObject': {}, 'id': 'seaweed', 'src': '/static/foodstim60/seaweed.jpg', 'key': 'u', 'origWidth': 410, 'origHeight': 410, 'width': 410, 'height': 410, 'widthPercent': 0.45, 'rescaleHeight': False, 'trialN': 45, 'loaded': True, 'loadedTime': 2473.2999999523163, 'positionName': 'LEFT', 'positionCoords': [511.6, 335], 'bid': 0.12}, {'imgObject': {}, 'id': 'cherry tomato', 'src': '/static/foodstim60/cherry tomato.jpg', 'key': 'i', 'origWidth': 410, 'origHeight': 410, 'width': 410, 'height': 410, 'widthPercent': 0.45, 'rescaleHeight': False, 'trialN': 45, 'loaded': True, 'loadedTime': 2715, 'positionName': 'RIGHT', 'positionCoords': [998.4, 335], 'bid': 0.05}]",78941.5,1669829831146,seaweed,cherry tomato,0.12,0.05,-0.06999999999999999,seaweed,1714.2000000476837,1714,1714.7000000476837,True,u,81171.90000009537,2230.4000000953674,1669829833381,2235,HRV,HRV_0086,2022-11-30 17:41:42
46,"[{'imgObject': {}, 'id': 'banana', 'src': '/static/foodstim60/banana.jpg', 'key': 'u', 'origWidth': 410, 'origHeight': 410, 'width': 410, 'height': 410, 'widthPercent': 0.45, 'rescaleHeight': False, 'trialN': 46, 'loaded': True, 'loadedTime': 2418.600000143051, 'positionName': 'LEFT', 'positionCoords': [511.6, 335], 'bid': 6.66}, {'imgObject': {}, 'id': 'cocktailshrimp', 'src': '/static/foodstim60/cocktailshrimp.jpg', 'key': 'i', 'origWidth': 410, 'origHeight': 410, 'width': 410, 'height': 410, 'widthPercent': 0.45, 'rescaleHeight': False, 'trialN': 46, 'loaded': True, 'loadedTime': 2985.600000143051, 'positionName': 'RIGHT', 'positionCoords': [998.4, 335], 'bid': 0.13}]",81172.20000004768,1669829833381,banana,cocktailshrimp,6.66,0.13,-6.53,banana,841.5,842,842.0,True,u,82525.60000014305,1353.4000000953674,1669829834734,1353,HRV,HRV_0086,2022-11-30 17:41:42
47,"[{'imgObject': {}, 'id': 'avocado', 'src': '/static/foodstim60/avocado.jpg', 'key': 'u', 'origWidth': 409, 'origHeight': 409, 'width': 409, 'height': 409, 'widthPercent': 0.45, 'rescaleHeight': False, 'trialN': 47, 'loaded': True, 'loadedTime': 2986.9000000953674, 'positionName': 'LEFT', 'positionCoords': [512.6, 335.5], 'bid': 0.1}, {'imgObject': {}, 'id': 'veggieswithdip', 'src': '/static/foodstim60/veggieswithdip.jpg', 'key': 'i', 'origWidth': 409, 'origHeight': 409, 'width': 409, 'height': 409, 'widthPercent': 0.45, 'rescaleHeight': False, 'trialN': 47, 'loaded': True, 'loadedTime': 3025.7999999523163, 'positionName': 'RIGHT', 'positionCoords': [998.4, 335.5], 'bid': 0.12}]",82526.0,1669829834735,avocado,veggieswithdip,0.1,0.12,0.01999999999999999,veggieswithdip,1685.0,1685,1685.2000000476837,True,i,84713.0,2187.0,1669829836922,2187,HRV,HRV_0086,2022-11-30 17:41:42
48,"[{'imgObject': {}, 'id': 'popsicles', 'src': '/static/foodstim60/popsicles.jpg', 'key': 'u', 'origWidth': 410, 'origHeight': 410, 'width': 410, 'height': 410, 'widthPercent': 0.45, 'rescaleHeight': False, 'trialN': 48, 'loaded': True, 'loadedTime': 3045.100000143051, 'positionName': 'LEFT', 'positionCoords': [511.6, 335], 'bid': 0.66}, {'imgObject': {}, 'id': 'cocktailshrimp', 'src': '/static/foodstim60/cocktailshrimp.jpg', 'key': 'i', 'origWidth': 410, 'origHeight': 410, 'width': 410, 'height': 410, 'widthPercent': 0.45, 'rescaleHeight': False, 'trialN': 48, 'loaded': True, 'loadedTime': 2976.9000000953674, 'positionName': 'RIGHT', 'positionCoords': [998.4, 335], 'bid': 0.13}]",84713.40000009537,1669829836922,popsicles,cocktailshrimp,0.66,0.13,-0.53,popsicles,1600.7999999523163,1601,1601.2000000476837,True,u,86830.90000009537,2117.5,1669829839040,2118,HRV,HRV_0086,2022-11-30 17:41:42
49,"[{'imgObject': {}, 'id': 'bagel plain', 'src': '/static/foodstim60/bagel plain.jpg', 'key': 'u', 'origWidth': 410, 'origHeight': 410, 'width': 410, 'height': 410, 'widthPercent': 0.45, 'rescaleHeight': False, 'trialN': 49, 'loaded': True, 'loadedTime': 2688.7000000476837, 'positionName': 'LEFT', 'positionCoords': [511.6, 335], 'bid': 5.05}, {'imgObject': {}, 'id': 'bagel and cc', 'src': '/static/foodstim60/bagel and cc.jpg', 'key': 'i', 'origWidth': 410, 'origHeight': 410, 'width': 410, 'height': 410, 'widthPercent': 0.45, 'rescaleHeight': False, 'trialN': 49, 'loaded': True, 'loadedTime': 2920.2999999523163, 'positionName': 'RIGHT', 'positionCoords': [998.4, 335], 'bid': 5.76}]",86831.20000004768,1669829839040,bagel plain,bagel and cc,5.05,5.76,0.71,bagel and cc,1491.5,1492,1491.9000000953674,True,i,88827.20000004768,1996.0,1669829841036,1996,HRV,HRV_0086,2022-11-30 17:41:42
50,"[{'imgObject': {}, 'id': 'blueberries', 'src': '/static/foodstim60/blueberries.jpg', 'key': 'u', 'origWidth': 411, 'origHeight': 411, 'width': 411, 'height': 411, 'widthPercent': 0.45, 'rescaleHeight': False, 'trialN': 50, 'loaded': True, 'loadedTime': 2888.7000000476837, 'positionName': 'LEFT', 'positionCoords': [510.6, 334.5], 'bid': 0.07}, {'imgObject': {}, 'id': 'veggieswithdip', 'src': '/static/foodstim60/veggieswithdip.jpg', 'key': 'i', 'origWidth': 409, 'origHeight': 409, 'width': 409, 'height': 409, 'widthPercent': 0.45, 'rescaleHeight': False, 'trialN': 50, 'loaded': True, 'loadedTime': 3025.600000143051, 'positionName': 'RIGHT', 'positionCoords': [998.4, 335.5], 'bid': 0.12}]",88827.5,1669829841036,blueberries,veggieswithdip,0.07,0.12,0.04999999999999999,blueberries,1483.7000000476837,1484,1484.0,True,u,90819.79999995232,1992.2999999523163,1669829843028,1992,HRV,HRV_0086,2022-11-30 17:41:42
51,"[{'imgObject': {}, 'id': 'chickenfingers', 'src': '/static/foodstim60/chickenfingers.jpg', 'key': 'u', 'origWidth': 410, 'origHeight': 410, 'width': 410, 'height': 410, 'widthPercent': 0.45, 'rescaleHeight': False, 'trialN': 51, 'loaded': True, 'loadedTime': 2868.2000000476837, 'positionName': 'LEFT', 'positionCoords': [511.6, 335], 'bid': 9.98}, {'imgObject': {}, 'id': 'rigatoni', 'src': '/static/foodstim60/rigatoni.jpg', 'key': 'i', 'origWidth': 411, 'origHeight': 411, 'width': 411, 'height': 411, 'widthPercent': 0.45, 'rescaleHeight': False, 'trialN': 51, 'loaded': True, 'loadedTime': 2499.100000143051, 'positionName': 'RIGHT', 'positionCoords': [998.4, 334.5], 'bid': 8.2}]",90820.0,1669829843029,chickenfingers,rigatoni,9.98,8.2,-1.7800000000000011,chickenfingers,1075.7999999523163,1076,1076.5,True,u,92408.79999995232,1588.7999999523163,1669829844618,1589,HRV,HRV_0086,2022-11-30 17:41:42
52,"[{'imgObject': {}, 'id': 'popsicles', 'src': '/static/foodstim60/popsicles.jpg', 'key': 'u', 'origWidth': 410, 'origHeight': 410, 'width': 410, 'height': 410, 'widthPercent': 0.45, 'rescaleHeight': False, 'trialN': 52, 'loaded': True, 'loadedTime': 3045.2000000476837, 'positionName': 'LEFT', 'positionCoords': [511.6, 335], 'bid': 0.66}, {'imgObject': {}, 'id': 'raspberries', 'src': '/static/foodstim60/raspberries.jpg', 'key': 'i', 'origWidth': 411, 'origHeight': 411, 'width': 411, 'height': 411, 'widthPercent': 0.45, 'rescaleHeight': False, 'trialN': 52, 'loaded': True, 'loadedTime': 3027.7000000476837, 'positionName': 'RIGHT', 'positionCoords': [998.4, 334.5], 'bid': 0.07}]",92409.0,1669829844618,popsicles,raspberries,0.66,0.07,-0.5900000000000001,popsicles,1420.4000000953674,1421,1420.9000000953674,True,u,94362.60000014305,1953.6000001430511,1669829846571,1953,HRV,HRV_0086,2022-11-30 17:41:42
53,"[{'imgObject': {}, 'id': 'luckycharms', 'src': '/static/foodstim60/luckycharms.jpg', 'key': 'u', 'origWidth': 410, 'origHeight': 409, 'width': 410, 'height': 409, 'widthPercent': 0.45, 'rescaleHeight': False, 'trialN': 53, 'loaded': True, 'loadedTime': 2513.600000143051, 'positionName': 'LEFT', 'positionCoords': [511.6, 335.5], 'bid': 7.1000000000000005}, {'imgObject': {}, 'id': 'cheerios', 'src': '/static/foodstim60/cheerios.jpg', 'key': 'i', 'origWidth': 409, 'origHeight': 410, 'width': 409, 'height': 410, 'widthPercent': 0.45, 'rescaleHeight': False, 'trialN': 53, 'loaded': True, 'loadedTime': 2941.5, 'positionName': 'RIGHT', 'positionCoords': [998.4, 335], 'bid': 4.9}]",94362.90000009537,1669829846572,luckycharms,cheerios,7.1000000000000005,4.9,-2.2,luckycharms,855.3999998569489,856,856.0,True,u,95731.10000014305,1368.2000000476837,1669829847940,1368,HRV,HRV_0086,2022-11-30 17:41:42
54,"[{'imgObject': {}, 'id': 'bagel and cc', 'src': '/static/foodstim60/bagel and cc.jpg', 'key': 'u', 'origWidth': 410, 'origHeight': 410, 'width': 410, 'height': 410, 'widthPercent': 0.45, 'rescaleHeight': False, 'trialN': 54, 'loaded': True, 'loadedTime': 2920.5, 'positionName': 'LEFT', 'positionCoords': [511.6, 335], 'bid': 5.76}, {'imgObject': {}, 'id': 'fried eggs', 'src': '/static/foodstim60/fried eggs.jpg', 'key': 'i', 'origWidth': 410, 'origHeight': 410, 'width': 410, 'height': 410, 'widthPercent': 0.45, 'rescaleHeight': False, 'trialN': 54, 'loaded': True, 'loadedTime': 3026.7999999523163, 'positionName': 'RIGHT', 'positionCoords': [998.4, 335], 'bid': 5.76}]",95731.5,1669829847940,bagel and cc,fried eggs,5.76,5.76,0.0,fried eggs,1684.9000000953674,1686,1685.4000000953674,True,i,97933.70000004768,2202.2000000476837,1669829850142,2202,HRV,HRV_0086,2022-11-30 17:41:42
55,"[{'imgObject': {}, 'id': 'ice cream sundae 002', 'src': '/static/foodstim60/ice cream sundae 002.jpg', 'key': 'u', 'origWidth': 409, 'origHeight': 409, 'width': 409, 'height': 409, 'widthPercent': 0.45, 'rescaleHeight': False, 'trialN': 55, 'loaded': True, 'loadedTime': 2965.7000000476837, 'positionName': 'LEFT', 'positionCoords': [512.6, 335.5], 'bid': 1.37}, {'imgObject': {}, 'id': 'salmon', 'src': '/static/foodstim60/salmon.jpg', 'key': 'i', 'origWidth': 410, 'origHeight': 409, 'width': 410, 'height': 409, 'widthPercent': 0.45, 'rescaleHeight': False, 'trialN': 55, 'loaded': True, 'loadedTime': 2672.600000143051, 'positionName': 'RIGHT', 'positionCoords': [998.4, 335.5], 'bid': 3.37}]",97933.90000009537,1669829850143,ice cream sundae 002,salmon,1.37,3.37,2.0,salmon,1950.5,1951,1951.0,True,i,100399.10000014305,2465.2000000476837,1669829852608,2465,HRV,HRV_0086,2022-11-30 17:41:42
56,"[{'imgObject': {}, 'id': 'mac & cheese', 'src': '/static/foodstim60/mac & cheese.jpg', 'key': 'u', 'origWidth': 410, 'origHeight': 410, 'width': 410, 'height': 410, 'widthPercent': 0.45, 'rescaleHeight': False, 'trialN': 56, 'loaded': True, 'loadedTime': 2582, 'positionName': 'LEFT', 'positionCoords': [511.6, 335], 'bid': 9.88}, {'imgObject': {}, 'id': 'burger', 'src': '/static/foodstim60/burger.jpg', 'key': 'i', 'origWidth': 409, 'origHeight': 409, 'width': 409, 'height': 409, 'widthPercent': 0.45, 'rescaleHeight': False, 'trialN': 56, 'loaded': True, 'loadedTime': 2626.9000000953674, 'positionName': 'RIGHT', 'positionCoords': [998.4, 335.5], 'bid': 1.65}]",100399.40000009537,1669829852608,mac & cheese,burger,9.88,1.65,-8.23,mac & cheese,1234.0999999046326,1235,1234.3999998569489,True,u,102140.90000009537,1741.5,1669829854350,1742,HRV,HRV_0086,2022-11-30 17:41:42
57,"[{'imgObject': {}, 'id': 'roastedpotatoes', 'src': '/static/foodstim60/roastedpotatoes.jpg', 'key': 'u', 'origWidth': 409, 'origHeight': 410, 'width': 409, 'height': 410, 'widthPercent': 0.45, 'rescaleHeight': False, 'trialN': 57, 'loaded': True, 'loadedTime': 2930.7000000476837, 'positionName': 'LEFT', 'positionCoords': [512.6, 335], 'bid': 4.96}, {'imgObject': {}, 'id': 'lox', 'src': '/static/foodstim60/lox.jpg', 'key': 'i', 'origWidth': 410, 'origHeight': 411, 'width': 410, 'height': 411, 'widthPercent': 0.45, 'rescaleHeight': False, 'trialN': 57, 'loaded': True, 'loadedTime': 2458.7000000476837, 'positionName': 'RIGHT', 'positionCoords': [998.4, 334.5], 'bid': 0.11}]",102141.20000004768,1669829854350,roastedpotatoes,lox,4.96,0.11,-4.85,roastedpotatoes,920.5,921,921.2000000476837,True,u,103572.40000009537,1431.2000000476837,1669829855781,1431,HRV,HRV_0086,2022-11-30 17:41:42
58,"[{'imgObject': {}, 'id': 'orange slices', 'src': '/static/foodstim60/orange slices.jpg', 'key': 'u', 'origWidth': 409, 'origHeight': 410, 'width': 409, 'height': 410, 'widthPercent': 0.45, 'rescaleHeight': False, 'trialN': 58, 'loaded': True, 'loadedTime': 3041.100000143051, 'positionName': 'LEFT', 'positionCoords': [512.6, 335], 'bid': 0}, {'imgObject': {}, 'id': 'mango', 'src': '/static/foodstim60/mango.jpg', 'key': 'i', 'origWidth': 411, 'origHeight': 411, 'width': 411, 'height': 411, 'widthPercent': 0.45, 'rescaleHeight': False, 'trialN': 58, 'loaded': True, 'loadedTime': 3003, 'positionName': 'RIGHT', 'positionCoords': [998.4, 334.5], 'bid': 0.1}]",103572.60000014305,1669829855781,orange slices,mango,0.0,0.1,0.1,orange slices,947.5,948,947.8999998569489,True,u,105025.10000014305,1452.5,1669829857234,1453,HRV,HRV_0086,2022-11-30 17:41:42
59,"[{'imgObject': {}, 'id': 'omelette', 'src': '/static/foodstim60/omelette.jpg', 'key': 'u', 'origWidth': 410, 'origHeight': 409, 'width': 410, 'height': 409, 'widthPercent': 0.45, 'rescaleHeight': False, 'trialN': 59, 'loaded': True, 'loadedTime': 3039.9000000953674, 'positionName': 'LEFT', 'positionCoords': [511.6, 335.5], 'bid': 4.51}, {'imgObject': {}, 'id': 'shreddedwheatwithmilk', 'src': '/static/foodstim60/shreddedwheatwithmilk.jpg', 'key': 'i', 'origWidth': 410, 'origHeight': 410, 'width': 410, 'height': 410, 'widthPercent': 0.45, 'rescaleHeight': False, 'trialN': 59, 'loaded': True, 'loadedTime': 2858.7999999523163, 'positionName': 'RIGHT', 'positionCoords': [998.4, 335], 'bid': 4.55}]",105025.29999995232,1669829857234,omelette,shreddedwheatwithmilk,4.51,4.55,0.040000000000000036,shreddedwheatwithmilk,1458.0,1458,1458.3000001907349,True,i,106995.60000014305,1970.3000001907349,1669829859204,1970,HRV,HRV_0086,2022-11-30 17:41:42
60,"[{'imgObject': {}, 'id': 'salmon', 'src': '/static/foodstim60/salmon.jpg', 'key': 'u', 'origWidth': 410, 'origHeight': 409, 'width': 410, 'height': 409, 'widthPercent': 0.45, 'rescaleHeight': False, 'trialN': 60, 'loaded': True, 'loadedTime': 2681, 'positionName': 'LEFT', 'positionCoords': [511.6, 335.5], 'bid': 3.37}, {'imgObject': {}, 'id': 'corn cob', 'src': '/static/foodstim60/corn cob.jpg', 'key': 'i', 'origWidth': 411, 'origHeight': 411, 'width': 411, 'height': 411, 'widthPercent': 0.45, 'rescaleHeight': False, 'trialN': 60, 'loaded': True, 'loadedTime': 3014, 'positionName': 'RIGHT', 'positionCoords': [998.4, 334.5], 'bid': 3.67}]",106995.79999995232,1669829859205,salmon,corn cob,3.37,3.67,0.2999999999999998,corn cob,1405.9000000953674,1406,1406.3000001907349,True,i,108915.5,1919.7000000476837,1669829861124,1919,HRV,HRV_0086,2022-11-30 17:41:42
61,"[{'imgObject': {}, 'id': 'salad w chicken', 'src': '/static/foodstim60/salad w chicken.jpg', 'key': 'u', 'origWidth': 411, 'origHeight': 411, 'width': 411, 'height': 411, 'widthPercent': 0.45, 'rescaleHeight': False, 'trialN': 61, 'loaded': True, 'loadedTime': 2748, 'positionName': 'LEFT', 'positionCoords': [510.6, 334.5], 'bid': 3.98}, {'imgObject': {}, 'id': 'orange slices', 'src': '/static/foodstim60/orange slices.jpg', 'key': 'i', 'origWidth': 409, 'origHeight': 410, 'width': 409, 'height': 410, 'widthPercent': 0.45, 'rescaleHeight': False, 'trialN': 61, 'loaded': True, 'loadedTime': 3041, 'positionName': 'RIGHT', 'positionCoords': [998.4, 335], 'bid': 0}]",108915.70000004768,1669829861124,salad w chicken,orange slices,3.98,0.0,-3.98,salad w chicken,790.5999999046326,791,791.0999999046326,True,u,110212.20000004768,1296.5,1669829862421,1297,HRV,HRV_0086,2022-11-30 17:41:42
62,"[{'imgObject': {}, 'id': 'cantaloupe', 'src': '/static/foodstim60/cantaloupe.jpg', 'key': 'u', 'origWidth': 409, 'origHeight': 409, 'width': 409, 'height': 409, 'widthPercent': 0.45, 'rescaleHeight': False, 'trialN': 62, 'loaded': True, 'loadedTime': 2944.7999999523163, 'positionName': 'LEFT', 'positionCoords': [512.6, 335.5], 'bid': 0.1}, {'imgObject': {}, 'id': 'olives', 'src': '/static/foodstim60/olives.jpg', 'key': 'i', 'origWidth': 410, 'origHeight': 410, 'width': 410, 'height': 410, 'widthPercent': 0.45, 'rescaleHeight': False, 'trialN': 62, 'loaded': True, 'loadedTime': 2539, 'positionName': 'RIGHT', 'positionCoords': [998.4, 335], 'bid': 0.08}]",110212.60000014305,1669829862421,cantaloupe,olives,0.1,0.08,-0.020000000000000004,cantaloupe,1388.2999999523163,1389,1389.0,True,u,112136.29999995232,1923.6999998092651,1669829864345,1924,HRV,HRV_0086,2022-11-30 17:41:42
63,"[{'imgObject': {}, 'id': 'cantaloupe', 'src': '/static/foodstim60/cantaloupe.jpg', 'key': 'u', 'origWidth': 409, 'origHeight': 409, 'width': 409, 'height': 409, 'widthPercent': 0.45, 'rescaleHeight': False, 'trialN': 63, 'loaded': True, 'loadedTime': 2944.9000000953674, 'positionName': 'LEFT', 'positionCoords': [512.6, 335.5], 'bid': 0.1}, {'imgObject': {}, 'id': 'cherries', 'src': '/static/foodstim60/cherries.jpg', 'key': 'i', 'origWidth': 410, 'origHeight': 411, 'width': 410, 'height': 411, 'widthPercent': 0.45, 'rescaleHeight': False, 'trialN': 63, 'loaded': True, 'loadedTime': 3015.5, 'positionName': 'RIGHT', 'positionCoords': [998.4, 334.5], 'bid': 0}]",112136.5,1669829864345,cantaloupe,cherries,0.1,0.0,-0.1,cantaloupe,1227.4000000953674,1228,1227.7999999523163,True,u,113868.20000004768,1731.7000000476837,1669829866077,1732,HRV,HRV_0086,2022-11-30 17:41:42
64,"[{'imgObject': {}, 'id': 'eggs', 'src': '/static/foodstim60/eggs.jpg', 'key': 'u', 'origWidth': 409, 'origHeight': 409, 'width': 409, 'height': 409, 'widthPercent': 0.45, 'rescaleHeight': False, 'trialN': 64, 'loaded': True, 'loadedTime': 2975.9000000953674, 'positionName': 'LEFT', 'positionCoords': [512.6, 335.5], 'bid': 0}, {'imgObject': {}, 'id': 'burrito', 'src': '/static/foodstim60/burrito.jpg', 'key': 'i', 'origWidth': 410, 'origHeight': 410, 'width': 410, 'height': 410, 'widthPercent': 0.45, 'rescaleHeight': False, 'trialN': 64, 'loaded': True, 'loadedTime': 3042.9000000953674, 'positionName': 'RIGHT', 'positionCoords': [998.4, 335], 'bid': 0}]",113868.40000009537,1669829866077,eggs,burrito,0.0,0.0,0.0,burrito,1223.2999999523163,1224,1223.7000000476837,True,i,115593.29999995232,1724.8999998569489,1669829867802,1725,HRV,HRV_0086,2022-11-30 17:41:42
65,"[{'imgObject': {}, 'id': 'sushi w_condiments', 'src': '/static/foodstim60/sushi w_condiments.jpg', 'key': 'u', 'origWidth': 410, 'origHeight': 410, 'width': 410, 'height': 410, 'widthPercent': 0.45, 'rescaleHeight': False, 'trialN': 65, 'loaded': True, 'loadedTime': 2900.4000000953674, 'positionName': 'LEFT', 'positionCoords': [511.6, 335], 'bid': 0.03}, {'imgObject': {}, 'id': 'raisin bran w milk', 'src': '/static/foodstim60/raisin bran w milk.jpg', 'key': 'i', 'origWidth': 411, 'origHeight': 411, 'width': 411, 'height': 411, 'widthPercent': 0.45, 'rescaleHeight': False, 'trialN': 65, 'loaded': True, 'loadedTime': 2556.600000143051, 'positionName': 'RIGHT', 'positionCoords': [998.4, 334.5], 'bid': 0.04}]",115593.5,1669829867802,sushi w_condiments,raisin bran w milk,0.03,0.04,0.010000000000000002,raisin bran w milk,1392.1000001430511,1393,1392.7000000476837,True,i,117497.70000004768,1904.2000000476837,1669829869706,1904,HRV,HRV_0086,2022-11-30 17:41:42
66,"[{'imgObject': {}, 'id': 'edamame', 'src': '/static/foodstim60/edamame.jpg', 'key': 'u', 'origWidth': 409, 'origHeight': 410, 'width': 409, 'height': 410, 'widthPercent': 0.45, 'rescaleHeight': False, 'trialN': 66, 'loaded': True, 'loadedTime': 2573.4000000953674, 'positionName': 'LEFT', 'positionCoords': [512.6, 335], 'bid': 0.12}, {'imgObject': {}, 'id': 'burrito', 'src': '/static/foodstim60/burrito.jpg', 'key': 'i', 'origWidth': 410, 'origHeight': 410, 'width': 410, 'height': 410, 'widthPercent': 0.45, 'rescaleHeight': False, 'trialN': 66, 'loaded': True, 'loadedTime': 3041.9000000953674, 'positionName': 'RIGHT', 'positionCoords': [998.4, 335], 'bid': 0}]",117498.0,1669829869707,edamame,burrito,0.12,0.0,-0.12,burrito,1426.2000000476837,1426,1426.7000000476837,True,i,119428.20000004768,1930.2000000476837,1669829871637,1930,HRV,HRV_0086,2022-11-30 17:41:42
67,"[{'imgObject': {}, 'id': 'seaweed', 'src': '/static/foodstim60/seaweed.jpg', 'key': 'u', 'origWidth': 410, 'origHeight': 410, 'width': 410, 'height': 410, 'widthPercent': 0.45, 'rescaleHeight': False, 'trialN': 67, 'loaded': True, 'loadedTime': 2472.600000143051, 'positionName': 'LEFT', 'positionCoords': [511.6, 335], 'bid': 0.12}, {'imgObject': {}, 'id': 'cherries', 'src': '/static/foodstim60/cherries.jpg', 'key': 'i', 'origWidth': 410, 'origHeight': 411, 'width': 410, 'height': 411, 'widthPercent': 0.45, 'rescaleHeight': False, 'trialN': 67, 'loaded': True, 'loadedTime': 3015.4000000953674, 'positionName': 'RIGHT', 'positionCoords': [998.4, 334.5], 'bid': 0}]",119428.40000009537,1669829871637,seaweed,cherries,0.12,0.0,-0.12,cherries,1479.2000000476837,1480,1479.5999999046326,True,i,121419.60000014305,1991.2000000476837,1669829873628,1991,HRV,HRV_0086,2022-11-30 17:41:42
68,"[{'imgObject': {}, 'id': 'blackbeanswithrice', 'src': '/static/foodstim60/blackbeanswithrice.jpg', 'key': 'u', 'origWidth': 410, 'origHeight': 410, 'width': 410, 'height': 410, 'widthPercent': 0.45, 'rescaleHeight': False, 'trialN': 68, 'loaded': True, 'loadedTime': 2799.600000143051, 'positionName': 'LEFT', 'positionCoords': [511.6, 335], 'bid': 0.67}, {'imgObject': {}, 'id': 'kiwi', 'src': '/static/foodstim60/kiwi.jpg', 'key': 'i', 'origWidth': 410, 'origHeight': 410, 'width': 410, 'height': 410, 'widthPercent': 0.45, 'rescaleHeight': False, 'trialN': 68, 'loaded': True, 'loadedTime': 2965.7000000476837, 'positionName': 'RIGHT', 'positionCoords': [998.4, 335], 'bid': 0.55}]",121419.90000009537,1669829873629,blackbeanswithrice,kiwi,0.67,0.55,-0.12,blackbeanswithrice,1715.5999999046326,1716,1715.8999998569489,True,u,123648.70000004768,2228.7999999523163,1669829875857,2228,HRV,HRV_0086,2022-11-30 17:41:42
69,"[{'imgObject': {}, 'id': 'burrito', 'src': '/static/foodstim60/burrito.jpg', 'key': 'u', 'origWidth': 410, 'origHeight': 410, 'width': 410, 'height': 410, 'widthPercent': 0.45, 'rescaleHeight': False, 'trialN': 69, 'loaded': True, 'loadedTime': 3042.9000000953674, 'positionName': 'LEFT', 'positionCoords': [511.6, 335], 'bid': 0}, {'imgObject': {}, 'id': 'turkey sandwich', 'src': '/static/foodstim60/turkey sandwich.jpg', 'key': 'i', 'origWidth': 409, 'origHeight': 409, 'width': 409, 'height': 409, 'widthPercent': 0.45, 'rescaleHeight': False, 'trialN': 69, 'loaded': True, 'loadedTime': 2818.9000000953674, 'positionName': 'RIGHT', 'positionCoords': [998.4, 335.5], 'bid': 3.73}]",123649.10000014305,1669829875858,burrito,turkey sandwich,0.0,3.73,3.73,turkey sandwich,1325.3999998569489,1326,1326.0,True,i,125483.60000014305,1834.5,1669829877692,1834,HRV,HRV_0086,2022-11-30 17:41:42
70,"[{'imgObject': {}, 'id': 'omelette', 'src': '/static/foodstim60/omelette.jpg', 'key': 'u', 'origWidth': 410, 'origHeight': 409, 'width': 410, 'height': 409, 'widthPercent': 0.45, 'rescaleHeight': False, 'trialN': 70, 'loaded': True, 'loadedTime': 3039.7000000476837, 'positionName': 'LEFT', 'positionCoords': [511.6, 335.5], 'bid': 4.51}, {'imgObject': {}, 'id': 'steak', 'src': '/static/foodstim60/steak.jpg', 'key': 'i', 'origWidth': 410, 'origHeight': 410, 'width': 410, 'height': 410, 'widthPercent': 0.45, 'rescaleHeight': False, 'trialN': 70, 'loaded': True, 'loadedTime': 2770.2000000476837, 'positionName': 'RIGHT', 'positionCoords': [998.4, 335], 'bid': 0.1}]",125483.79999995232,1669829877693,omelette,steak,4.51,0.1,-4.41,omelette,808.4000000953674,808,808.7000000476837,True,u,126804.60000014305,1320.8000001907349,1669829879013,1320,HRV,HRV_0086,2022-11-30 17:41:42
71,"[{'imgObject': {}, 'id': 'fruitsalad', 'src': '/static/foodstim60/fruitsalad.jpg', 'key': 'u', 'origWidth': 410, 'origHeight': 410, 'width': 410, 'height': 410, 'widthPercent': 0.45, 'rescaleHeight': False, 'trialN': 71, 'loaded': True, 'loadedTime': 2706.4000000953674, 'positionName': 'LEFT', 'positionCoords': [511.6, 335], 'bid': 0.11}, {'imgObject': {}, 'id': 'mango', 'src': '/static/foodstim60/mango.jpg', 'key': 'i', 'origWidth': 411, 'origHeight': 411, 'width': 411, 'height': 411, 'widthPercent': 0.45, 'rescaleHeight': False, 'trialN': 71, 'loaded': True, 'loadedTime': 3003, 'positionName': 'RIGHT', 'positionCoords': [998.4, 334.5], 'bid': 0.1}]",126804.90000009537,1669829879014,fruitsalad,mango,0.11,0.1,-0.009999999999999995,fruitsalad,1530.7999999523163,1531,1531.0,True,u,128850.79999995232,2045.8999998569489,1669829881060,2046,HRV,HRV_0086,2022-11-30 17:41:42
72,"[{'imgObject': {}, 'id': 'eggs', 'src': '/static/foodstim60/eggs.jpg', 'key': 'u', 'origWidth': 409, 'origHeight': 409, 'width': 409, 'height': 409, 'widthPercent': 0.45, 'rescaleHeight': False, 'trialN': 72, 'loaded': True, 'loadedTime': 2976.100000143051, 'positionName': 'LEFT', 'positionCoords': [512.6, 335.5], 'bid': 0}, {'imgObject': {}, 'id': 'cherries', 'src': '/static/foodstim60/cherries.jpg', 'key': 'i', 'origWidth': 410, 'origHeight': 411, 'width': 410, 'height': 411, 'widthPercent': 0.45, 'rescaleHeight': False, 'trialN': 72, 'loaded': True, 'loadedTime': 3015.600000143051, 'positionName': 'RIGHT', 'positionCoords': [998.4, 334.5], 'bid': 0}]",128851.10000014305,1669829881060,eggs,cherries,0.0,0.0,0.0,cherries,1143.7999999523163,1144,1144.3999998569489,True,i,130522.60000014305,1671.5,1669829882731,1671,HRV,HRV_0086,2022-11-30 17:41:42
73,"[{'imgObject': {}, 'id': 'raisin bran w milk', 'src': '/static/foodstim60/raisin bran w milk.jpg', 'key': 'u', 'origWidth': 411, 'origHeight': 411, 'width': 411, 'height': 411, 'widthPercent': 0.45, 'rescaleHeight': False, 'trialN': 73, 'loaded': True, 'loadedTime': 2564.5, 'positionName': 'LEFT', 'positionCoords': [510.6, 334.5], 'bid': 0.04}, {'imgObject': {}, 'id': 'fruitsalad', 'src': '/static/foodstim60/fruitsalad.jpg', 'key': 'i', 'origWidth': 410, 'origHeight': 410, 'width': 410, 'height': 410, 'widthPercent': 0.45, 'rescaleHeight': False, 'trialN': 73, 'loaded': True, 'loadedTime': 2699.2999999523163, 'positionName': 'RIGHT', 'positionCoords': [998.4, 335], 'bid': 0.11}]",130522.79999995232,1669829882732,raisin bran w milk,fruitsalad,0.04,0.11,0.07,raisin bran w milk,1844.2000000476837,1844,1844.5,True,u,132877.10000014305,2354.300000190735,1669829885086,2354,HRV,HRV_0086,2022-11-30 17:41:42
74,"[{'imgObject': {}, 'id': 'cantaloupe', 'src': '/static/foodstim60/cantaloupe.jpg', 'key': 'u', 'origWidth': 409, 'origHeight': 409, 'width': 409, 'height': 409, 'widthPercent': 0.45, 'rescaleHeight': False, 'trialN': 74, 'loaded': True, 'loadedTime': 2944.9000000953674, 'positionName': 'LEFT', 'positionCoords': [512.6, 335.5], 'bid': 0.1}, {'imgObject': {}, 'id': 'shreddedwheatwithmilk', 'src': '/static/foodstim60/shreddedwheatwithmilk.jpg', 'key': 'i', 'origWidth': 410, 'origHeight': 410, 'width': 410, 'height': 410, 'widthPercent': 0.45, 'rescaleHeight': False, 'trialN': 74, 'loaded': True, 'loadedTime': 2848.2000000476837, 'positionName': 'RIGHT', 'positionCoords': [998.4, 335], 'bid': 4.55}]",132877.40000009537,1669829885086,cantaloupe,shreddedwheatwithmilk,0.1,4.55,4.45,shreddedwheatwithmilk,1089.5,1090,1090.0,True,i,134481.20000004768,1603.7999999523163,1669829886690,1604,HRV,HRV_0086,2022-11-30 17:41:42
75,"[{'imgObject': {}, 'id': 'granola w milk', 'src': '/static/foodstim60/granola w milk.jpg', 'key': 'u', 'origWidth': 410, 'origHeight': 410, 'width': 410, 'height': 410, 'widthPercent': 0.45, 'rescaleHeight': False, 'trialN': 75, 'loaded': True, 'loadedTime': 2976.7999999523163, 'positionName': 'LEFT', 'positionCoords': [511.6, 335], 'bid': 4.07}, {'imgObject': {}, 'id': 'sweetpotato', 'src': '/static/foodstim60/sweetpotato.jpg', 'key': 'i', 'origWidth': 410, 'origHeight': 410, 'width': 410, 'height': 410, 'widthPercent': 0.45, 'rescaleHeight': False, 'trialN': 75, 'loaded': True, 'loadedTime': 2954.600000143051, 'positionName': 'RIGHT', 'positionCoords': [998.4, 335], 'bid': 1.53}]",134481.29999995232,1669829886690,granola w milk,sweetpotato,4.07,1.53,-2.54,granola w milk,919.6000001430511,920,920.1000001430511,True,u,135911.40000009537,1430.1000001430511,1669829888120,1430,HRV,HRV_0086,2022-11-30 17:41:42
76,"[{'imgObject': {}, 'id': 'eggs', 'src': '/static/foodstim60/eggs.jpg', 'key': 'u', 'origWidth': 409, 'origHeight': 409, 'width': 409, 'height': 409, 'widthPercent': 0.45, 'rescaleHeight': False, 'trialN': 76, 'loaded': True, 'loadedTime': 2976.100000143051, 'positionName': 'LEFT', 'positionCoords': [512.6, 335.5], 'bid': 0}, {'imgObject': {}, 'id': 'steak', 'src': '/static/foodstim60/steak.jpg', 'key': 'i', 'origWidth': 410, 'origHeight': 410, 'width': 410, 'height': 410, 'widthPercent': 0.45, 'rescaleHeight': False, 'trialN': 76, 'loaded': True, 'loadedTime': 2758.7999999523163, 'positionName': 'RIGHT', 'positionCoords': [998.4, 335], 'bid': 0.1}]",135911.70000004768,1669829888120,eggs,steak,0.0,0.1,0.1,steak,1412.2999999523163,1413,1412.7999999523163,True,i,137825.5,1913.7999999523163,1669829890034,1914,HRV,HRV_0086,2022-11-30 17:41:42
77,"[{'imgObject': {}, 'id': 'baked potato', 'src': '/static/foodstim60/baked potato.jpg', 'key': 'u', 'origWidth': 409, 'origHeight': 410, 'width': 409, 'height': 410, 'widthPercent': 0.45, 'rescaleHeight': False, 'trialN': 77, 'loaded': True, 'loadedTime': 2726.100000143051, 'positionName': 'LEFT', 'positionCoords': [512.6, 335], 'bid': 4.07}, {'imgObject': {}, 'id': 'apple slices', 'src': '/static/foodstim60/apple slices.jpg', 'key': 'i', 'origWidth': 409, 'origHeight': 410, 'width': 409, 'height': 410, 'widthPercent': 0.45, 'rescaleHeight': False, 'trialN': 77, 'loaded': True, 'loadedTime': 2944.2000000476837, 'positionName': 'RIGHT', 'positionCoords': [998.4, 335], 'bid': 4.33}]",137825.70000004768,1669829890034,baked potato,apple slices,4.07,4.33,0.2599999999999998,apple slices,1137.0999999046326,1138,1137.5999999046326,True,i,139474.70000004768,1649.0,1669829891683,1649,HRV,HRV_0086,2022-11-30 17:41:42
78,"[{'imgObject': {}, 'id': 'pear', 'src': '/static/foodstim60/pear.jpg', 'key': 'u', 'origWidth': 411, 'origHeight': 410, 'width': 411, 'height': 410, 'widthPercent': 0.45, 'rescaleHeight': False, 'trialN': 78, 'loaded': True, 'loadedTime': 2607.7000000476837, 'positionName': 'LEFT', 'positionCoords': [510.6, 335], 'bid': 4.34}, {'imgObject': {}, 'id': 'apple slices', 'src': '/static/foodstim60/apple slices.jpg', 'key': 'i', 'origWidth': 409, 'origHeight': 410, 'width': 409, 'height': 410, 'widthPercent': 0.45, 'rescaleHeight': False, 'trialN': 78, 'loaded': True, 'loadedTime': 2943.7000000476837, 'positionName': 'RIGHT', 'positionCoords': [998.4, 335], 'bid': 4.33}]",139475.10000014305,1669829891684,pear,apple slices,4.34,4.33,-0.009999999999999787,apple slices,1475.7999999523163,1476,1476.5,True,i,141458.70000004768,1983.5999999046326,1669829893667,1983,HRV,HRV_0086,2022-11-30 17:41:42
79,"[{'imgObject': {}, 'id': 'seaweed', 'src': '/static/foodstim60/seaweed.jpg', 'key': 'u', 'origWidth': 410, 'origHeight': 410, 'width': 410, 'height': 410, 'widthPercent': 0.45, 'rescaleHeight': False, 'trialN': 79, 'loaded': True, 'loadedTime': 2459.2000000476837, 'positionName': 'LEFT', 'positionCoords': [511.6, 335], 'bid': 0.12}, {'imgObject': {}, 'id': 'fried eggs', 'src': '/static/foodstim60/fried eggs.jpg', 'key': 'i', 'origWidth': 410, 'origHeight': 410, 'width': 410, 'height': 410, 'widthPercent': 0.45, 'rescaleHeight': False, 'trialN': 79, 'loaded': True, 'loadedTime': 3026.7000000476837, 'positionName': 'RIGHT', 'positionCoords': [998.4, 335], 'bid': 5.76}]",141459.0,1669829893668,seaweed,fried eggs,0.12,5.76,5.64,fried eggs,789.9000000953674,790,790.2000000476837,True,i,142768.10000014305,1309.1000001430511,1669829894977,1309,HRV,HRV_0086,2022-11-30 17:41:42
80,"[{'imgObject': {}, 'id': 'raisin bran w milk', 'src': '/static/foodstim60/raisin bran w milk.jpg', 'key': 'u', 'origWidth': 411, 'origHeight': 411, 'width': 411, 'height': 411, 'widthPercent': 0.45, 'rescaleHeight': False, 'trialN': 80, 'loaded': True, 'loadedTime': 2564.600000143051, 'positionName': 'LEFT', 'positionCoords': [510.6, 334.5], 'bid': 0.04}, {'imgObject': {}, 'id': 'cocktailshrimp', 'src': '/static/foodstim60/cocktailshrimp.jpg', 'key': 'i', 'origWidth': 410, 'origHeight': 410, 'width': 410, 'height': 410, 'widthPercent': 0.45, 'rescaleHeight': False, 'trialN': 80, 'loaded': True, 'loadedTime': 2985.600000143051, 'positionName': 'RIGHT', 'positionCoords': [998.4, 335], 'bid': 0.13}]",142768.29999995232,1669829894977,raisin bran w milk,cocktailshrimp,0.04,0.13,0.09,raisin bran w milk,880.9000000953674,881,881.5,True,u,144165.20000004768,1396.9000000953674,1669829896374,1397,HRV,HRV_0086,2022-11-30 17:41:42
81,"[{'imgObject': {}, 'id': 'hashbrowns', 'src': '/static/foodstim60/hashbrowns.jpg', 'key': 'u', 'origWidth': 411, 'origHeight': 410, 'width': 411, 'height': 410, 'widthPercent': 0.45, 'rescaleHeight': False, 'trialN': 81, 'loaded': True, 'loadedTime': 2646.100000143051, 'positionName': 'LEFT', 'positionCoords': [510.6, 335], 'bid': 2.03}, {'imgObject': {}, 'id': 'avocado', 'src': '/static/foodstim60/avocado.jpg', 'key': 'i', 'origWidth': 409, 'origHeight': 409, 'width': 409, 'height': 409, 'widthPercent': 0.45, 'rescaleHeight': False, 'trialN': 81, 'loaded': True, 'loadedTime': 2986.7999999523163, 'positionName': 'RIGHT', 'positionCoords': [998.4, 335.5], 'bid': 0.1}]",144165.40000009537,1669829896374,hashbrowns,avocado,2.03,0.1,-1.9299999999999997,hashbrowns,1176.7999999523163,1177,1177.0,True,u,145854.90000009537,1689.5,1669829898063,1689,HRV,HRV_0086,2022-11-30 17:41:42
82,"[{'imgObject': {}, 'id': 'froot loops w milk', 'src': '/static/foodstim60/froot loops w milk.jpg', 'key': 'u', 'origWidth': 410, 'origHeight': 410, 'width': 410, 'height': 410, 'widthPercent': 0.45, 'rescaleHeight': False, 'trialN': 82, 'loaded': True, 'loadedTime': 3041.9000000953674, 'positionName': 'LEFT', 'positionCoords': [511.6, 335], 'bid': 8.48}, {'imgObject': {}, 'id': 'omelette', 'src': '/static/foodstim60/omelette.jpg', 'key': 'i', 'origWidth': 410, 'origHeight': 409, 'width': 410, 'height': 409, 'widthPercent': 0.45, 'rescaleHeight': False, 'trialN': 82, 'loaded': True, 'loadedTime': 3028.4000000953674, 'positionName': 'RIGHT', 'positionCoords': [998.4, 335.5], 'bid': 4.51}]",145855.20000004768,1669829898064,froot loops w milk,omelette,8.48,4.51,-3.9700000000000006,froot loops w milk,826.4000000953674,827,827.0,True,u,147186.79999995232,1331.5999999046326,1669829899395,1331,HRV,HRV_0086,2022-11-30 17:41:42
83,"[{'imgObject': {}, 'id': 'strawberries', 'src': '/static/foodstim60/strawberries.jpg', 'key': 'u', 'origWidth': 410, 'origHeight': 410, 'width': 410, 'height': 410, 'widthPercent': 0.45, 'rescaleHeight': False, 'trialN': 83, 'loaded': True, 'loadedTime': 2899.5, 'positionName': 'LEFT', 'positionCoords': [511.6, 335], 'bid': 0.13}, {'imgObject': {}, 'id': 'olives', 'src': '/static/foodstim60/olives.jpg', 'key': 'i', 'origWidth': 410, 'origHeight': 410, 'width': 410, 'height': 410, 'widthPercent': 0.45, 'rescaleHeight': False, 'trialN': 83, 'loaded': True, 'loadedTime': 2546.7999999523163, 'positionName': 'RIGHT', 'positionCoords': [998.4, 335], 'bid': 0.08}]",147187.10000014305,1669829899396,strawberries,olives,0.13,0.08,-0.05,strawberries,1211.7999999523163,1212,1212.0999999046326,True,u,148910.40000009537,1723.2999999523163,1669829901119,1723,HRV,HRV_0086,2022-11-30 17:41:42
84,"[{'imgObject': {}, 'id': 'luckycharms', 'src': '/static/foodstim60/luckycharms.jpg', 'key': 'u', 'origWidth': 410, 'origHeight': 409, 'width': 410, 'height': 409, 'widthPercent': 0.45, 'rescaleHeight': False, 'trialN': 84, 'loaded': True, 'loadedTime': 2537.100000143051, 'positionName': 'LEFT', 'positionCoords': [511.6, 335.5], 'bid': 7.1000000000000005}, {'imgObject': {}, 'id': 'rigatoni', 'src': '/static/foodstim60/rigatoni.jpg', 'key': 'i', 'origWidth': 411, 'origHeight': 411, 'width': 411, 'height': 411, 'widthPercent': 0.45, 'rescaleHeight': False, 'trialN': 84, 'loaded': True, 'loadedTime': 2488.100000143051, 'positionName': 'RIGHT', 'positionCoords': [998.4, 334.5], 'bid': 8.2}]",148910.60000014305,1669829901119,luckycharms,rigatoni,7.1000000000000005,8.2,1.0999999999999988,rigatoni,1132.3999998569489,1133,1133.0,True,i,150557.40000009537,1646.7999999523163,1669829902766,1647,HRV,HRV_0086,2022-11-30 17:41:42
85,"[{'imgObject': {}, 'id': 'salad w chicken', 'src': '/static/foodstim60/salad w chicken.jpg', 'key': 'u', 'origWidth': 411, 'origHeight': 411, 'width': 411, 'height': 411, 'widthPercent': 0.45, 'rescaleHeight': False, 'trialN': 85, 'loaded': True, 'loadedTime': 2747.7999999523163, 'positionName': 'LEFT', 'positionCoords': [510.6, 334.5], 'bid': 3.98}, {'imgObject': {}, 'id': 'mashed potato', 'src': '/static/foodstim60/mashed potato.jpg', 'key': 'i', 'origWidth': 409, 'origHeight': 409, 'width': 409, 'height': 409, 'widthPercent': 0.45, 'rescaleHeight': False, 'trialN': 85, 'loaded': True, 'loadedTime': 2943.5, 'positionName': 'RIGHT', 'positionCoords': [998.4, 335.5], 'bid': 5.87}]",150557.5,1669829902766,salad w chicken,mashed potato,3.98,5.87,1.8900000000000001,salad w chicken,979.9000000953674,981,980.5,True,u,152056.5,1499.0,1669829904265,1499,HRV,HRV_0086,2022-11-30 17:41:42
86,"[{'imgObject': {}, 'id': 'tacos', 'src': '/static/foodstim60/tacos.jpg', 'key': 'u', 'origWidth': 411, 'origHeight': 411, 'width': 411, 'height': 411, 'widthPercent': 0.45, 'rescaleHeight': False, 'trialN': 86, 'loaded': True, 'loadedTime': 2911.5, 'positionName': 'LEFT', 'positionCoords': [510.6, 334.5], 'bid': 4.2700000000000005}, {'imgObject': {}, 'id': 'hashbrowns', 'src': '/static/foodstim60/hashbrowns.jpg', 'key': 'i', 'origWidth': 411, 'origHeight': 410, 'width': 411, 'height': 410, 'widthPercent': 0.45, 'rescaleHeight': False, 'trialN': 86, 'loaded': True, 'loadedTime': 2646.100000143051, 'positionName': 'RIGHT', 'positionCoords': [998.4, 335], 'bid': 2.03}]",152056.70000004768,1669829904265,tacos,hashbrowns,4.2700000000000005,2.03,-2.2400000000000007,tacos,1574.4000000953674,1575,1574.7999999523163,True,u,154159.5,2102.7999999523163,1669829906368,2103,HRV,HRV_0086,2022-11-30 17:41:42
87,"[{'imgObject': {}, 'id': 'raisin bran w milk', 'src': '/static/foodstim60/raisin bran w milk.jpg', 'key': 'u', 'origWidth': 411, 'origHeight': 411, 'width': 411, 'height': 411, 'widthPercent': 0.45, 'rescaleHeight': False, 'trialN': 87, 'loaded': True, 'loadedTime': 2555.2000000476837, 'positionName': 'LEFT', 'positionCoords': [510.6, 334.5], 'bid': 0.04}, {'imgObject': {}, 'id': 'raspberries', 'src': '/static/foodstim60/raspberries.jpg', 'key': 'i', 'origWidth': 411, 'origHeight': 411, 'width': 411, 'height': 411, 'widthPercent': 0.45, 'rescaleHeight': False, 'trialN': 87, 'loaded': True, 'loadedTime': 3027.5, 'positionName': 'RIGHT', 'positionCoords': [998.4, 334.5], 'bid': 0.07}]",154159.60000014305,1669829906368,raisin bran w milk,raspberries,0.04,0.07,0.030000000000000006,raisin bran w milk,1054.5999999046326,1055,1055.0,True,u,155736.5,1576.8999998569489,1669829907945,1577,HRV,HRV_0086,2022-11-30 17:41:42
88,"[{'imgObject': {}, 'id': 'orange slices', 'src': '/static/foodstim60/orange slices.jpg', 'key': 'u', 'origWidth': 409, 'origHeight': 410, 'width': 409, 'height': 410, 'widthPercent': 0.45, 'rescaleHeight': False, 'trialN': 88, 'loaded': True, 'loadedTime': 3041.100000143051, 'positionName': 'LEFT', 'positionCoords': [512.6, 335], 'bid': 0}, {'imgObject': {}, 'id': 'olives', 'src': '/static/foodstim60/olives.jpg', 'key': 'i', 'origWidth': 410, 'origHeight': 410, 'width': 410, 'height': 410, 'widthPercent': 0.45, 'rescaleHeight': False, 'trialN': 88, 'loaded': True, 'loadedTime': 2546.2999999523163, 'positionName': 'RIGHT', 'positionCoords': [998.4, 335], 'bid': 0.08}]",155737.0,1669829907946,orange slices,olives,0.0,0.08,0.08,orange slices,906.2999999523163,906,906.6000001430511,True,u,157156.60000014305,1419.6000001430511,1669829909365,1419,HRV,HRV_0086,2022-11-30 17:41:42
89,"[{'imgObject': {}, 'id': 'seaweed', 'src': '/static/foodstim60/seaweed.jpg', 'key': 'u', 'origWidth': 410, 'origHeight': 410, 'width': 410, 'height': 410, 'widthPercent': 0.45, 'rescaleHeight': False, 'trialN': 89, 'loaded': True, 'loadedTime': 2487.7999999523163, 'positionName': 'LEFT', 'positionCoords': [511.6, 335], 'bid': 0.12}, {'imgObject': {}, 'id': 'veggieswithdip', 'src': '/static/foodstim60/veggieswithdip.jpg', 'key': 'i', 'origWidth': 409, 'origHeight': 409, 'width': 409, 'height': 409, 'widthPercent': 0.45, 'rescaleHeight': False, 'trialN': 89, 'loaded': True, 'loadedTime': 3025.7000000476837, 'positionName': 'RIGHT', 'positionCoords': [998.4, 335.5], 'bid': 0.12}]",157157.0,1669829909366,seaweed,veggieswithdip,0.12,0.12,0.0,veggieswithdip,1324.6000001430511,1325,1325.0,True,i,159000.79999995232,1843.7999999523163,1669829911209,1843,HRV,HRV_0086,2022-11-30 17:41:42
90,"[{'imgObject': {}, 'id': 'rigatoni and sauce', 'src': '/static/foodstim60/rigatoni and sauce.jpg', 'key': 'u', 'origWidth': 410, 'origHeight': 411, 'width': 410, 'height': 411, 'widthPercent': 0.45, 'rescaleHeight': False, 'trialN': 90, 'loaded': True, 'loadedTime': 2781.4000000953674, 'positionName': 'LEFT', 'positionCoords': [511.6, 334.5], 'bid': 9.91}, {'imgObject': {}, 'id': 'chickenfingers', 'src': '/static/foodstim60/chickenfingers.jpg', 'key': 'i', 'origWidth': 410, 'origHeight': 410, 'width': 410, 'height': 410, 'widthPercent': 0.45, 'rescaleHeight': False, 'trialN': 90, 'loaded': True, 'loadedTime': 2868.5, 'positionName': 'RIGHT', 'positionCoords': [998.4, 335], 'bid': 9.98}]",186549.90000009537,1669829938759,rigatoni and sauce,chickenfingers,9.91,9.98,0.07000000000000028,rigatoni and sauce,1156.8999998569489,1157,1157.7000000476837,True,u,188219.90000009537,1670.0,1669829940428,1669,HRV,HRV_0086,2022-11-30 17:41:42
91,"[{'imgObject': {}, 'id': 'Grapes', 'src': '/static/foodstim60/Grapes.jpg', 'key': 'u', 'origWidth': 411, 'origHeight': 411, 'width': 411, 'height': 411, 'widthPercent': 0.45, 'rescaleHeight': False, 'trialN': 91, 'loaded': True, 'loadedTime': 2663.2000000476837, 'positionName': 'LEFT', 'positionCoords': [510.6, 334.5], 'bid': 2.5500000000000003}, {'imgObject': {}, 'id': 'turkeysandwich', 'src': '/static/foodstim60/turkeysandwich.jpg', 'key': 'i', 'origWidth': 409, 'origHeight': 409, 'width': 409, 'height': 409, 'widthPercent': 0.45, 'rescaleHeight': False, 'trialN': 91, 'loaded': True, 'loadedTime': 2626.5, 'positionName': 'RIGHT', 'positionCoords': [998.4, 335.5], 'bid': 3.06}]",188220.10000014305,1669829940429,Grapes,turkeysandwich,2.5500000000000003,3.06,0.5099999999999998,turkeysandwich,1305.1999998092651,1305,1305.5999999046326,True,i,190041.79999995232,1821.6999998092651,1669829942250,1821,HRV,HRV_0086,2022-11-30 17:41:42
92,"[{'imgObject': {}, 'id': 'grilled chicken strips', 'src': '/static/foodstim60/grilled chicken strips.jpg', 'key': 'u', 'origWidth': 410, 'origHeight': 411, 'width': 410, 'height': 411, 'widthPercent': 0.45, 'rescaleHeight': False, 'trialN': 92, 'loaded': True, 'loadedTime': 2829.5, 'positionName': 'LEFT', 'positionCoords': [511.6, 334.5], 'bid': 8.41}, {'imgObject': {}, 'id': 'froot loops w milk', 'src': '/static/foodstim60/froot loops w milk.jpg', 'key': 'i', 'origWidth': 410, 'origHeight': 410, 'width': 410, 'height': 410, 'widthPercent': 0.45, 'rescaleHeight': False, 'trialN': 92, 'loaded': True, 'loadedTime': 3041.9000000953674, 'positionName': 'RIGHT', 'positionCoords': [998.4, 335], 'bid': 8.48}]",190042.10000014305,1669829942251,grilled chicken strips,froot loops w milk,8.41,8.48,0.07000000000000028,grilled chicken strips,1421.6999998092651,1422,1422.1999998092651,True,u,191980.60000014305,1938.5,1669829944189,1938,HRV,HRV_0086,2022-11-30 17:41:42
93,"[{'imgObject': {}, 'id': 'edamame', 'src': '/static/foodstim60/edamame.jpg', 'key': 'u', 'origWidth': 409, 'origHeight': 410, 'width': 409, 'height': 410, 'widthPercent': 0.45, 'rescaleHeight': False, 'trialN': 93, 'loaded': True, 'loadedTime': 2573.4000000953674, 'positionName': 'LEFT', 'positionCoords': [512.6, 335], 'bid': 0.12}, {'imgObject': {}, 'id': 'seaweed', 'src': '/static/foodstim60/seaweed.jpg', 'key': 'i', 'origWidth': 410, 'origHeight': 410, 'width': 410, 'height': 410, 'widthPercent': 0.45, 'rescaleHeight': False, 'trialN': 93, 'loaded': True, 'loadedTime': 2473.7000000476837, 'positionName': 'RIGHT', 'positionCoords': [998.4, 335], 'bid': 0.12}]",191980.90000009537,1669829944190,edamame,seaweed,0.12,0.12,0.0,edamame,1771.2999999523163,1771,1771.7999999523163,True,u,194263.20000004768,2282.2999999523163,1669829946472,2282,HRV,HRV_0086,2022-11-30 17:41:42
94,"[{'imgObject': {}, 'id': 'grilled chicken strips', 'src': '/static/foodstim60/grilled chicken strips.jpg', 'key': 'u', 'origWidth': 410, 'origHeight': 411, 'width': 410, 'height': 411, 'widthPercent': 0.45, 'rescaleHeight': False, 'trialN': 94, 'loaded': True, 'loadedTime': 2829.2999999523163, 'positionName': 'LEFT', 'positionCoords': [511.6, 334.5], 'bid': 8.41}, {'imgObject': {}, 'id': 'roastedpotatoes', 'src': '/static/foodstim60/roastedpotatoes.jpg', 'key': 'i', 'origWidth': 409, 'origHeight': 410, 'width': 409, 'height': 410, 'widthPercent': 0.45, 'rescaleHeight': False, 'trialN': 94, 'loaded': True, 'loadedTime': 2930.7000000476837, 'positionName': 'RIGHT', 'positionCoords': [998.4, 335], 'bid': 4.96}]",194263.40000009537,1669829946472,grilled chicken strips,roastedpotatoes,8.41,4.96,-3.45,roastedpotatoes,1421.7999999523163,1422,1422.2999999523163,True,i,196207.0,1943.5999999046326,1669829948416,1944,HRV,HRV_0086,2022-11-30 17:41:42
95,"[{'imgObject': {}, 'id': 'burger', 'src': '/static/foodstim60/burger.jpg', 'key': 'u', 'origWidth': 409, 'origHeight': 409, 'width': 409, 'height': 409, 'widthPercent': 0.45, 'rescaleHeight': False, 'trialN': 95, 'loaded': True, 'loadedTime': 2627.7999999523163, 'positionName': 'LEFT', 'positionCoords': [512.6, 335.5], 'bid': 1.65}, {'imgObject': {}, 'id': 'baked potato', 'src': '/static/foodstim60/baked potato.jpg', 'key': 'i', 'origWidth': 409, 'origHeight': 410, 'width': 409, 'height': 410, 'widthPercent': 0.45, 'rescaleHeight': False, 'trialN': 95, 'loaded': True, 'loadedTime': 2727.100000143051, 'positionName': 'RIGHT', 'positionCoords': [998.4, 335], 'bid': 4.07}]",196207.20000004768,1669829948416,burger,baked potato,1.65,4.07,2.4200000000000004,baked potato,1323.0,1323,1323.4000000953674,True,i,198042.5,1835.2999999523163,1669829950251,1835,HRV,HRV_0086,2022-11-30 17:41:42
96,"[{'imgObject': {}, 'id': 'turkey sandwich', 'src': '/static/foodstim60/turkey sandwich.jpg', 'key': 'u', 'origWidth': 409, 'origHeight': 409, 'width': 409, 'height': 409, 'widthPercent': 0.45, 'rescaleHeight': False, 'trialN': 96, 'loaded': True, 'loadedTime': 2810, 'positionName': 'LEFT', 'positionCoords': [512.6, 335.5], 'bid': 3.73}, {'imgObject': {}, 'id': 'eggsalad', 'src': '/static/foodstim60/eggsalad.jpg', 'key': 'i', 'origWidth': 410, 'origHeight': 409, 'width': 410, 'height': 409, 'widthPercent': 0.45, 'rescaleHeight': False, 'trialN': 96, 'loaded': True, 'loadedTime': 2799.5, 'positionName': 'RIGHT', 'positionCoords': [998.4, 335.5], 'bid': 4}]",198042.79999995232,1669829950251,turkey sandwich,eggsalad,3.73,4.0,0.27,turkey sandwich,1581.8000001907349,1583,1582.4000000953674,True,u,200129.60000014305,2086.800000190735,1669829952338,2087,HRV,HRV_0086,2022-11-30 17:41:42
97,"[{'imgObject': {}, 'id': 'rigatoni and sauce', 'src': '/static/foodstim60/rigatoni and sauce.jpg', 'key': 'u', 'origWidth': 410, 'origHeight': 411, 'width': 410, 'height': 411, 'widthPercent': 0.45, 'rescaleHeight': False, 'trialN': 97, 'loaded': True, 'loadedTime': 2780.9000000953674, 'positionName': 'LEFT', 'positionCoords': [511.6, 334.5], 'bid': 9.91}, {'imgObject': {}, 'id': 'mashed potato', 'src': '/static/foodstim60/mashed potato.jpg', 'key': 'i', 'origWidth': 409, 'origHeight': 409, 'width': 409, 'height': 409, 'widthPercent': 0.45, 'rescaleHeight': False, 'trialN': 97, 'loaded': True, 'loadedTime': 2943.5, 'positionName': 'RIGHT', 'positionCoords': [998.4, 335.5], 'bid': 5.87}]",200129.79999995232,1669829952338,rigatoni and sauce,mashed potato,9.91,5.87,-4.04,rigatoni and sauce,1115.3000001907349,1116,1115.8000001907349,True,u,201750.70000004768,1620.9000000953674,1669829953960,1622,HRV,HRV_0086,2022-11-30 17:41:42
98,"[{'imgObject': {}, 'id': 'salad w chicken', 'src': '/static/foodstim60/salad w chicken.jpg', 'key': 'u', 'origWidth': 411, 'origHeight': 411, 'width': 411, 'height': 411, 'widthPercent': 0.45, 'rescaleHeight': False, 'trialN': 98, 'loaded': True, 'loadedTime': 2737.7000000476837, 'positionName': 'LEFT', 'positionCoords': [510.6, 334.5], 'bid': 3.98}, {'imgObject': {}, 'id': 'hashbrowns', 'src': '/static/foodstim60/hashbrowns.jpg', 'key': 'i', 'origWidth': 411, 'origHeight': 410, 'width': 411, 'height': 410, 'widthPercent': 0.45, 'rescaleHeight': False, 'trialN': 98, 'loaded': True, 'loadedTime': 2645.9000000953674, 'positionName': 'RIGHT', 'positionCoords': [998.4, 335], 'bid': 2.03}]",201750.90000009537,1669829953960,salad w chicken,hashbrowns,3.98,2.03,-1.9500000000000002,salad w chicken,1727.7999999523163,1728,1728.3999998569489,True,u,203994.29999995232,2243.399999856949,1669829956203,2243,HRV,HRV_0086,2022-11-30 17:41:42
99,"[{'imgObject': {}, 'id': 'cherry tomato', 'src': '/static/foodstim60/cherry tomato.jpg', 'key': 'u', 'origWidth': 410, 'origHeight': 410, 'width': 410, 'height': 410, 'widthPercent': 0.45, 'rescaleHeight': False, 'trialN': 99, 'loaded': True, 'loadedTime': 2707.600000143051, 'positionName': 'LEFT', 'positionCoords': [511.6, 335], 'bid': 0.05}, {'imgObject': {}, 'id': 'sushi w_condiments', 'src': '/static/foodstim60/sushi w_condiments.jpg', 'key': 'i', 'origWidth': 410, 'origHeight': 410, 'width': 410, 'height': 410, 'widthPercent': 0.45, 'rescaleHeight': False, 'trialN': 99, 'loaded': True, 'loadedTime': 2900.2999999523163, 'positionName': 'RIGHT', 'positionCoords': [998.4, 335], 'bid': 0.03}]",203994.5,1669829956203,cherry tomato,sushi w_condiments,0.05,0.03,-0.020000000000000004,cherry tomato,1657.4000000953674,1658,1658.0,True,u,206159.70000004768,2165.2000000476837,1669829958369,2166,HRV,HRV_0086,2022-11-30 17:41:42
100,"[{'imgObject': {}, 'id': 'mashed potato', 'src': '/static/foodstim60/mashed potato.jpg', 'key': 'u', 'origWidth': 409, 'origHeight': 409, 'width': 409, 'height': 409, 'widthPercent': 0.45, 'rescaleHeight': False, 'trialN': 100, 'loaded': True, 'loadedTime': 2943.5, 'positionName': 'LEFT', 'positionCoords': [512.6, 335.5], 'bid': 5.87}, {'imgObject': {}, 'id': 'hotdog w must', 'src': '/static/foodstim60/hotdog w must.jpg', 'key': 'i', 'origWidth': 409, 'origHeight': 409, 'width': 409, 'height': 409, 'widthPercent': 0.45, 'rescaleHeight': False, 'trialN': 100, 'loaded': True, 'loadedTime': 2878.600000143051, 'positionName': 'RIGHT', 'positionCoords': [998.4, 335.5], 'bid': 6.26}]",206160.0,1669829958369,mashed potato,hotdog w must,5.87,6.26,0.3899999999999997,hotdog w must,1145.4000000953674,1146,1146.1000001430511,True,i,207815.29999995232,1655.2999999523163,1669829960024,1655,HRV,HRV_0086,2022-11-30 17:41:42
101,"[{'imgObject': {}, 'id': 'fruitsalad', 'src': '/static/foodstim60/fruitsalad.jpg', 'key': 'u', 'origWidth': 410, 'origHeight': 410, 'width': 410, 'height': 410, 'widthPercent': 0.45, 'rescaleHeight': False, 'trialN': 101, 'loaded': True, 'loadedTime': 2699.2000000476837, 'positionName': 'LEFT', 'positionCoords': [511.6, 335], 'bid': 0.11}, {'imgObject': {}, 'id': 'eggs', 'src': '/static/foodstim60/eggs.jpg', 'key': 'i', 'origWidth': 409, 'origHeight': 409, 'width': 409, 'height': 409, 'widthPercent': 0.45, 'rescaleHeight': False, 'trialN': 101, 'loaded': True, 'loadedTime': 2976.2999999523163, 'positionName': 'RIGHT', 'positionCoords': [998.4, 335.5], 'bid': 0}]",207815.60000014305,1669829960024,fruitsalad,eggs,0.11,0.0,-0.11,fruitsalad,1143.1999998092651,1144,1143.5999999046326,True,u,209465.40000009537,1649.7999999523163,1669829961674,1650,HRV,HRV_0086,2022-11-30 17:41:42
102,"[{'imgObject': {}, 'id': 'eggs', 'src': '/static/foodstim60/eggs.jpg', 'key': 'u', 'origWidth': 409, 'origHeight': 409, 'width': 409, 'height': 409, 'widthPercent': 0.45, 'rescaleHeight': False, 'trialN': 102, 'loaded': True, 'loadedTime': 2976.100000143051, 'positionName': 'LEFT', 'positionCoords': [512.6, 335.5], 'bid': 0}, {'imgObject': {}, 'id': 'cherry tomato', 'src': '/static/foodstim60/cherry tomato.jpg', 'key': 'i', 'origWidth': 410, 'origHeight': 410, 'width': 410, 'height': 410, 'widthPercent': 0.45, 'rescaleHeight': False, 'trialN': 102, 'loaded': True, 'loadedTime': 2714.9000000953674, 'positionName': 'RIGHT', 'positionCoords': [998.4, 335], 'bid': 0.05}]",209465.60000014305,1669829961674,eggs,cherry tomato,0.0,0.05,0.05,cherry tomato,1141.7999999523163,1157,1156.2999999523163,True,i,211143.29999995232,1677.6999998092651,1669829963352,1678,HRV,HRV_0086,2022-11-30 17:41:42
103,"[{'imgObject': {}, 'id': 'mango', 'src': '/static/foodstim60/mango.jpg', 'key': 'u', 'origWidth': 411, 'origHeight': 411, 'width': 411, 'height': 411, 'widthPercent': 0.45, 'rescaleHeight': False, 'trialN': 103, 'loaded': True, 'loadedTime': 3002.9000000953674, 'positionName': 'LEFT', 'positionCoords': [510.6, 334.5], 'bid': 0.1}, {'imgObject': {}, 'id': 'Grapes', 'src': '/static/foodstim60/Grapes.jpg', 'key': 'i', 'origWidth': 411, 'origHeight': 411, 'width': 411, 'height': 411, 'widthPercent': 0.45, 'rescaleHeight': False, 'trialN': 103, 'loaded': True, 'loadedTime': 2664.100000143051, 'positionName': 'RIGHT', 'positionCoords': [998.4, 334.5], 'bid': 2.5500000000000003}]",211143.5,1669829963352,mango,Grapes,0.1,2.5500000000000003,2.45,Grapes,1517.5,1518,1518.0,True,i,213169.79999995232,2026.2999999523163,1669829965379,2027,HRV,HRV_0086,2022-11-30 17:41:42
104,"[{'imgObject': {}, 'id': 'granola w milk', 'src': '/static/foodstim60/granola w milk.jpg', 'key': 'u', 'origWidth': 410, 'origHeight': 410, 'width': 410, 'height': 410, 'widthPercent': 0.45, 'rescaleHeight': False, 'trialN': 104, 'loaded': True, 'loadedTime': 2976.9000000953674, 'positionName': 'LEFT', 'positionCoords': [511.6, 335], 'bid': 4.07}, {'imgObject': {}, 'id': 'eggsalad', 'src': '/static/foodstim60/eggsalad.jpg', 'key': 'i', 'origWidth': 410, 'origHeight': 409, 'width': 410, 'height': 409, 'widthPercent': 0.45, 'rescaleHeight': False, 'trialN': 104, 'loaded': True, 'loadedTime': 2791.4000000953674, 'positionName': 'RIGHT', 'positionCoords': [998.4, 335.5], 'bid': 4}]",213170.10000014305,1669829965379,granola w milk,eggsalad,4.07,4.0,-0.07000000000000028,granola w milk,1103.5,1104,1103.8999998569489,True,u,214787.10000014305,1617.0,1669829966996,1617,HRV,HRV_0086,2022-11-30 17:41:42
105,"[{'imgObject': {}, 'id': 'roastedpotatoes', 'src': '/static/foodstim60/roastedpotatoes.jpg', 'key': 'u', 'origWidth': 409, 'origHeight': 410, 'width': 409, 'height': 410, 'widthPercent': 0.45, 'rescaleHeight': False, 'trialN': 105, 'loaded': True, 'loadedTime': 2920.7000000476837, 'positionName': 'LEFT', 'positionCoords': [512.6, 335], 'bid': 4.96}, {'imgObject': {}, 'id': 'bagel plain', 'src': '/static/foodstim60/bagel plain.jpg', 'key': 'i', 'origWidth': 410, 'origHeight': 410, 'width': 410, 'height': 410, 'widthPercent': 0.45, 'rescaleHeight': False, 'trialN': 105, 'loaded': True, 'loadedTime': 2698.2999999523163, 'positionName': 'RIGHT', 'positionCoords': [998.4, 335], 'bid': 5.05}]",214787.29999995232,1669829966996,roastedpotatoes,bagel plain,4.96,5.05,0.08999999999999986,roastedpotatoes,1334.8000001907349,1335,1335.2000000476837,True,u,216630.5,1843.2000000476837,1669829968839,1843,HRV,HRV_0086,2022-11-30 17:41:42
106,"[{'imgObject': {}, 'id': 'luckycharms', 'src': '/static/foodstim60/luckycharms.jpg', 'key': 'u', 'origWidth': 410, 'origHeight': 409, 'width': 410, 'height': 409, 'widthPercent': 0.45, 'rescaleHeight': False, 'trialN': 106, 'loaded': True, 'loadedTime': 2524.9000000953674, 'positionName': 'LEFT', 'positionCoords': [511.6, 335.5], 'bid': 7.1000000000000005}, {'imgObject': {}, 'id': 'grilled chicken strips', 'src': '/static/foodstim60/grilled chicken strips.jpg', 'key': 'i', 'origWidth': 410, 'origHeight': 411, 'width': 410, 'height': 411, 'widthPercent': 0.45, 'rescaleHeight': False, 'trialN': 106, 'loaded': True, 'loadedTime': 2829.5, 'positionName': 'RIGHT', 'positionCoords': [998.4, 334.5], 'bid': 8.41}]",216630.90000009537,1669829968840,luckycharms,grilled chicken strips,7.1000000000000005,8.41,1.3099999999999996,luckycharms,1320.5999999046326,1321,1321.2000000476837,True,u,218471.60000014305,1840.7000000476837,1669829970680,1840,HRV,HRV_0086,2022-11-30 17:41:42
107,"[{'imgObject': {}, 'id': 'yogurt no spoon', 'src': '/static/foodstim60/yogurt no spoon.jpg', 'key': 'u', 'origWidth': 411, 'origHeight': 410, 'width': 411, 'height': 410, 'widthPercent': 0.45, 'rescaleHeight': False, 'trialN': 107, 'loaded': True, 'loadedTime': 2909.2999999523163, 'positionName': 'LEFT', 'positionCoords': [510.6, 335], 'bid': 4.94}, {'imgObject': {}, 'id': 'cheerios', 'src': '/static/foodstim60/cheerios.jpg', 'key': 'i', 'origWidth': 409, 'origHeight': 410, 'width': 409, 'height': 410, 'widthPercent': 0.45, 'rescaleHeight': False, 'trialN': 107, 'loaded': True, 'loadedTime': 2942.600000143051, 'positionName': 'RIGHT', 'positionCoords': [998.4, 335], 'bid': 4.9}]",218471.79999995232,1669829970681,yogurt no spoon,cheerios,4.94,4.9,-0.040000000000000036,cheerios,1433.5,1434,1433.9000000953674,True,i,220422.60000014305,1950.8000001907349,1669829972631,1950,HRV,HRV_0086,2022-11-30 17:41:42
108,"[{'imgObject': {}, 'id': 'Tribe humus pita', 'src': '/static/foodstim60/Tribe humus pita.jpg', 'key': 'u', 'origWidth': 411, 'origHeight': 411, 'width': 411, 'height': 411, 'widthPercent': 0.45, 'rescaleHeight': False, 'trialN': 108, 'loaded': True, 'loadedTime': 2837.100000143051, 'positionName': 'LEFT', 'positionCoords': [510.6, 334.5], 'bid': 6.96}, {'imgObject': {}, 'id': 'banana', 'src': '/static/foodstim60/banana.jpg', 'key': 'i', 'origWidth': 410, 'origHeight': 410, 'width': 410, 'height': 410, 'widthPercent': 0.45, 'rescaleHeight': False, 'trialN': 108, 'loaded': True, 'loadedTime': 2419.9000000953674, 'positionName': 'RIGHT', 'positionCoords': [998.4, 335], 'bid': 6.66}]",220423.0,1669829972632,Tribe humus pita,banana,6.96,6.66,-0.2999999999999998,Tribe humus pita,1530.1000001430511,1530,1530.6000001430511,True,u,222469.10000014305,2046.1000001430511,1669829974678,2046,HRV,HRV_0086,2022-11-30 17:41:42
