success,trial_type,trial_index,time_elapsed,internal_node_id,missTrial,missTrialMsg,Block,TrialNumber,TrialTime,trialTimeDiff,FPS_avg,FPS_med,FPS_mode,TrialDur,winResizeTime,rt,block,button_pressed,MotCoh,MotDir,ColCoh,Color,ChoiceKey,Choice,Accuracy,RT,nFrames,FPS,PPD,onsetDelay,fullScreenExitTime,canvCenter,TrialType,Score,BlockTrial,stimulus,button_labels,exp,subjectId,date
True,fullscreen,0,8071,0.0-0.0,True,undefinedblurEvent ,0.0,0.0,,,,,,,,,,,,,,,,,,,,,,,,,,,,,,HRV,HRV_0262,2022-11-30 20:13:18
,wl-check-fps,1,13076,0.0-1.0,,,0.0,1.0,"[8680.3, 8695.2, 8712.4, 8728.9, 8745.4, 8762.3, 8779, 8795.2, 8812.2, 8828.7, 8852.9, 8862.1, 8878.6, 8895.2, 8911.9, 8929, 8945.2, 8962, 8978.6, 8995.4, 9012, 9030.4, 9048.9, 9065.1, 9078.6, 9095.2, 9111.9, 9130, 9145.6, 9163.6, 9181.5, 9197.1, 9213.7, 9228.6, 9245.3, 9263.5, 9278.6, 9295.4, 9312.4, 9330.6, 9345.3, 9362.3, 9378.6, 9397.2, 9411.9, 9428.6, 9446.4, 9462, 9478.7, 9495.3, 9511.9, 9528.6, 9545.3, 9561.9, 9578.5, 9595.4, 9611.9, 9628.6, 9645.3, 9661.9, 9678.6, 9695.3, 9711.9, 9728.6, 9745.3, 9761.9, 9778.6, 9795.2, 9811.9, 9828.5, 9845.3, 9861.9, 9878.6, 9895.3, 9911.9, 9928.6, 9945.3, 9961.9, 9978.6, 9995.4, 10012, 10028.9, 10045.3, 10062, 10086.8, 10101.5, 10111.9, 10128.7, 10145.3, 10161.9, 10178.7, 10195.2, 10212, 10228.8, 10245.3, 10262.2, 10278.7, 10295.4, 10312, 10328.7, 10345.3, 10362, 10378.6, 10395.3, 10412, 10428.7, 10445.5, 10462.1, 10478.7, 10495.4, 10512, 10528.7, 10545.4, 10562, 10578.6, 10595.3, 10612.1, 10628.6, 10645.2, 10662, 10678.7, 10695.4, 10712.1, 10728.7, 10745.3, 10762.1, 10778.7, 10795.3, 10812, 10828.7, 10845.3, 10862, 10878.6, 10895.3, 10912, 10928.8, 10945.5, 10962.2, 10983.7, 10999.1, 11012, 11028.7, 11045.3, 11062, 11078.7, 11095.3, 11112.1, 11128.7, 11145.5, 11162, 11178.7, 11195.4, 11212, 11228.7, 11245.3, 11262.1, 11278.6, 11295.4, 11312.2, 11328.7, 11345.5, 11361.9, 11378.9, 11395.7, 11412.3, 11429.1, 11445.8, 11462.3, 11479, 11495.8, 11517.6, 11528.9, 11545.9, 11562.7, 11579, 11603.5, 11614.4, 11630, 11647.4, 11664.8, 11679, 11697.5, 11712.7, 11731.2, 11745.6, 11762.3, 11780.5, 11798.1, 11812.3, 11829, 11845.4, 11862.4, 11878.7, 11895.4, 11912.5, 11928.9, 11945.4, 11962.3, 11979, 11995.3, 12012.5, 12029, 12045.5, 12062.1, 12078.8, 12095.4, 12112.2, 12129.2, 12145.4, 12162.5, 12179.3, 12195.3, 12212.1, 12229, 12245.4, 12262, 12278.7, 12295.5, 12312.7, 12329.3, 12345.5, 12362.7, 12379.4, 12396.1, 12413.1, 12429.1, 12445.8, 12462.2, 12479.2, 12495.7, 12512.8, 12529.5, 12545.8, 12562.5, 12579.3, 12595.7, 12612.5, 12629.6, 12646.1, 12662.7, 12679.1, 12695.4, 12712.6, 12728.8, 12745.6, 12762.5, 12779.1, 12795.7, 12812.2, 12829.2, 12845.4, 12862.3, 12878.9, 12895.7, 12912.2, 12930.7, 12945.5, 12962.3, 12979.2, 12996, 13013.7, 13029.3, 13046, 13062.4, 13079.1, 13095.7, 13112.3, 13128.8, 13145.9, 13162.4, 13179.5, 13195.5, 13212.3, 13229.4, 13245.4, 13262.1, 13278.8, 13295.5, 13312.2, 13328.9, 13345.4, 13362.2, 13378.9, 13395.4, 13412.7, 13429.3, 13445.4, 13462.7, 13479.1, 13495.6, 13512.3, 13530.7, 13545.7, 13562.2, 13578.9, 13595.4, 13612.2, 13629, 13645.4, 13662.5]","[3.9, 14.9, 17.2, 16.5, 16.5, 16.9, 16.7, 16.2, 17, 16.5, 24.2, 9.2, 16.5, 16.6, 16.7, 17.1, 16.2, 16.8, 16.6, 16.8, 16.6, 18.4, 18.5, 16.2, 13.5, 16.6, 16.7, 18.1, 15.6, 18, 17.9, 15.6, 16.6, 14.9, 16.7, 18.2, 15.1, 16.8, 17, 18.2, 14.7, 17, 16.3, 18.6, 14.7, 16.7, 17.8, 15.6, 16.7, 16.6, 16.6, 16.7, 16.7, 16.6, 16.6, 16.9, 16.5, 16.7, 16.7, 16.6, 16.7, 16.7, 16.6, 16.7, 16.7, 16.6, 16.7, 16.6, 16.7, 16.6, 16.8, 16.6, 16.7, 16.7, 16.6, 16.7, 16.7, 16.6, 16.7, 16.8, 16.6, 16.9, 16.4, 16.7, 24.8, 14.7, 10.4, 16.8, 16.6, 16.6, 16.8, 16.5, 16.8, 16.8, 16.5, 16.9, 16.5, 16.7, 16.6, 16.7, 16.6, 16.7, 16.6, 16.7, 16.7, 16.7, 16.8, 16.6, 16.6, 16.7, 16.6, 16.7, 16.7, 16.6, 16.6, 16.7, 16.8, 16.5, 16.6, 16.8, 16.7, 16.7, 16.7, 16.6, 16.6, 16.8, 16.6, 16.6, 16.7, 16.7, 16.6, 16.7, 16.6, 16.7, 16.7, 16.8, 16.7, 16.7, 21.5, 15.4, 12.9, 16.7, 16.6, 16.7, 16.7, 16.6, 16.8, 16.6, 16.8, 16.5, 16.7, 16.7, 16.6, 16.7, 16.6, 16.8, 16.5, 16.8, 16.8, 16.5, 16.8, 16.4, 17, 16.8, 16.6, 16.8, 16.7, 16.5, 16.7, 16.8, 21.8, 11.3, 17, 16.8, 16.3, 24.5, 10.9, 15.6, 17.4, 17.4, 14.2, 18.5, 15.2, 18.5, 14.4, 16.7, 18.2, 17.6, 14.2, 16.7, 16.4, 17, 16.3, 16.7, 17.1, 16.4, 16.5, 16.9, 16.7, 16.3, 17.2, 16.5, 16.5, 16.6, 16.7, 16.6, 16.8, 17, 16.2, 17.1, 16.8, 16, 16.8, 16.9, 16.4, 16.6, 16.7, 16.8, 17.2, 16.6, 16.2, 17.2, 16.7, 16.7, 17, 16, 16.7, 16.4, 17, 16.5, 17.1, 16.7, 16.3, 16.7, 16.8, 16.4, 16.8, 17.1, 16.5, 16.6, 16.4, 16.3, 17.2, 16.2, 16.8, 16.9, 16.6, 16.6, 16.5, 17, 16.2, 16.9, 16.6, 16.8, 16.5, 18.5, 14.8, 16.8, 16.9, 16.8, 17.7, 15.6, 16.7, 16.4, 16.7, 16.6, 16.6, 16.5, 17.1, 16.5, 17.1, 16, 16.8, 17.1, 16, 16.7, 16.7, 16.7, 16.7, 16.7, 16.5, 16.8, 16.7, 16.5, 17.3, 16.6, 16.1, 17.3, 16.4, 16.5, 16.7, 18.4, 15, 16.5, 16.7, 16.5, 16.8, 16.8, 16.4, 17.1]",60.0,60.0,60.0,5002.6,[],,,,,,,,,,,,,,,,,,,,,,,HRV,HRV_0262,2022-11-30 20:13:18
,wl-html-keyboard-response,2,124314,0.0-2.0-0.0,,,0.0,2.0,,,,,,,,109228.89999985695,0.0,0,,,,,,,,,,,,,,,,,,,,HRV,HRV_0262,2022-11-30 20:13:18
,wl-rdm,3,131166,0.0-3.0-0.0,False,,0.0,3.0,,,,,,,[],,,,0.0,0.0,87.9,0.0,u,0.0,True,1292.5999999046326,78.0,60.0,40.0,3000.0,[],"[960, 540]",ColorTask_Demo,,,,,HRV,HRV_0262,2022-11-30 20:13:18
,wl-rdm,4,135916,0.0-3.0-1.0,False,,0.0,4.0,,,,,,,[],,,,0.0,0.0,87.9,1.0,i,1.0,True,698.3000001907349,42.0,60.0,40.0,2000.0,[],"[960, 540]",ColorTask_Demo,,,,,HRV,HRV_0262,2022-11-30 20:13:18
,wl-html-keyboard-response,5,141298,0.0-3.0-2.0,,,0.0,5.0,,,,,,,,3374.5999999046326,0.0,1,,,,,,,,,,,,,,,,,,,,HRV,HRV_0262,2022-11-30 20:13:18
,wl-html-keyboard-response,6,149178,0.0-4.0-0.0,,,0.0,6.0,,,,,,,,5873.5,0.0,0,,,,,,,,,,,,,,,,,,,,HRV,HRV_0262,2022-11-30 20:13:18
,wl-html-keyboard-response,7,165082,0.0-5.0-0.0,,,0.0,7.0,,,,,,,,13897.099999904633,0.0,0,,,,,,,,,,,,,,,,,,,,HRV,HRV_0262,2022-11-30 20:13:18
,wl-rdm,8,167768,0.0-6.0-0.0,False,,0.0,8.0,,,,,,,[],,,,,,73.6,0.0,u,0.0,True,1370.5000002384186,83.0,60.0,40.0,225.90118158233267,[],"[960, 540]",ColorTask,1.0,1.0,,,HRV,HRV_0262,2022-11-30 20:13:18
,wl-rdm,9,170384,0.0-6.1-0.1,False,,0.0,9.0,,,,,,,[],,,,,,73.6,1.0,i,1.0,True,1318.9999997615814,80.0,60.0,40.0,226.96323277049854,[],"[960, 540]",ColorTask,2.0,2.0,,,HRV,HRV_0262,2022-11-30 20:13:18
,wl-rdm,10,173018,0.0-6.2-0.2,False,,0.0,10.0,,,,,,,[],,,,,,53.2,1.0,i,1.0,True,1335.6999998092651,81.0,60.0,40.0,206.63184352819462,[],"[960, 540]",ColorTask,3.0,3.0,,,HRV,HRV_0262,2022-11-30 20:13:18
,wl-rdm,11,175351,0.0-6.3-0.3,False,,0.0,11.0,,,,,,,[],,,,,,73.6,0.0,u,0.0,True,954.5,58.0,60.0,40.0,290.8666357183846,[],"[960, 540]",ColorTask,4.0,4.0,,,HRV,HRV_0262,2022-11-30 20:13:18
,wl-rdm,12,177368,0.0-6.4-0.4,False,,0.0,12.0,,,,,,,[],,,,,,87.9,0.0,u,0.0,True,744.1999998092651,45.0,60.0,40.0,215.4015378384648,[],"[960, 540]",ColorTask,5.0,5.0,,,HRV,HRV_0262,2022-11-30 20:13:18
,wl-rdm,13,180702,0.0-6.5-0.5,False,,0.0,13.0,,,,,,,[],,,,,,56.4,0.0,u,0.0,True,1906.0,115.0,60.0,40.0,338.0995228786128,[],"[960, 540]",ColorTask,6.0,6.0,,,HRV,HRV_0262,2022-11-30 20:13:18
,wl-rdm,14,183318,0.0-6.6-0.6,False,,0.0,14.0,,,,,,,[],,,,,,62.5,0.0,u,0.0,True,1269.8000001907349,77.0,60.0,40.0,269.9650621037898,[],"[960, 540]",ColorTask,7.0,7.0,,,HRV,HRV_0262,2022-11-30 20:13:18
,wl-rdm,15,185902,0.0-6.7-0.7,False,,0.0,15.0,,,,,,,[],,,,,,50.0,1.0,i,1.0,True,1221.7999999523163,74.0,60.0,40.0,290.1601753515551,[],"[960, 540]",ColorTask,8.0,8.0,,,HRV,HRV_0262,2022-11-30 20:13:18
,wl-rdm,16,189019,0.0-6.8-0.8,False,,0.0,16.0,,,,,,,[],,,,,,73.6,0.0,u,0.0,True,1709.7999999523163,103.0,60.0,40.0,328.98568146198625,[],"[960, 540]",ColorTask,9.0,9.0,,,HRV,HRV_0262,2022-11-30 20:13:18
,wl-rdm,17,191252,0.0-6.9-0.9,False,,0.0,17.0,,,,,,,[],,,,,,87.9,0.0,u,0.0,True,806.2999999523163,49.0,60.0,40.0,350.01314379407034,[],"[960, 540]",ColorTask,10.0,10.0,,,HRV,HRV_0262,2022-11-30 20:13:18
,wl-rdm,18,193536,0.0-6.10-0.10,False,,0.0,18.0,,,,,,,[],,,,,,62.5,1.0,i,1.0,True,987.0999999046326,60.0,60.0,40.0,208.4267346048597,[],"[960, 540]",ColorTask,11.0,11.0,,,HRV,HRV_0262,2022-11-30 20:13:18
,wl-rdm,19,196519,0.0-6.11-0.11,False,,0.0,19.0,,,,,,,[],,,,,,50.0,0.0,i,1.0,False,1572.0,95.0,60.0,40.0,324.4647400412792,[],"[960, 540]",ColorTask,10.0,12.0,,,HRV,HRV_0262,2022-11-30 20:13:18
,wl-rdm,20,199453,0.0-6.12-0.12,False,,0.0,20.0,,,,,,,[],,,,,,53.2,0.0,u,0.0,True,1606.2999999523163,97.0,60.0,40.0,254.02058191007188,[],"[960, 540]",ColorTask,11.0,13.0,,,HRV,HRV_0262,2022-11-30 20:13:18
,wl-rdm,21,202670,0.0-6.13-0.13,False,,0.0,21.0,,,,,,,[],,,,,,56.4,0.0,u,0.0,True,1829.7000002861023,110.0,60.0,40.0,312.3074804094581,[],"[960, 540]",ColorTask,12.0,14.0,,,HRV,HRV_0262,2022-11-30 20:13:18
,wl-rdm,22,204886,0.0-6.14-0.14,False,,0.0,22.0,,,,,,,[],,,,,,87.9,0.0,u,0.0,True,804.5999999046326,49.0,60.0,40.0,342.41766891330724,[],"[960, 540]",ColorTask,13.0,15.0,,,HRV,HRV_0262,2022-11-30 20:13:18
,wl-rdm,23,207136,0.0-6.15-0.15,False,,0.0,23.0,,,,,,,[],,,,,,87.9,1.0,i,1.0,True,819.6999998092651,50.0,60.0,40.0,361.91081188901455,[],"[960, 540]",ColorTask,14.0,16.0,,,HRV,HRV_0262,2022-11-30 20:13:18
,wl-rdm,24,209720,0.0-6.16-0.16,False,,0.0,24.0,,,,,,,[],,,,,,62.5,1.0,i,1.0,True,1212.1999998092651,73.0,60.0,40.0,293.7393687636,[],"[960, 540]",ColorTask,15.0,17.0,,,HRV,HRV_0262,2022-11-30 20:13:18
,wl-rdm,25,212287,0.0-6.17-0.17,False,,0.0,25.0,,,,,,,[],,,,,,56.4,0.0,i,1.0,False,1129.9000000953674,68.0,60.0,40.0,355.80474667184933,[],"[960, 540]",ColorTask,14.0,18.0,,,HRV,HRV_0262,2022-11-30 20:13:18
,wl-rdm,26,214953,0.0-6.18-0.18,False,,0.0,26.0,,,,,,,[],,,,,,53.2,0.0,u,0.0,True,1377.4000000953674,83.0,60.0,40.0,200.92628913815122,[],"[960, 540]",ColorTask,15.0,19.0,,,HRV,HRV_0262,2022-11-30 20:13:18
,wl-rdm,27,218537,0.0-6.19-0.19,False,,0.0,27.0,,,,,,,[],,,,,,62.5,1.0,i,1.0,True,2310.899999856949,139.0,60.0,40.0,202.80617203713612,[],"[960, 540]",ColorTask,16.0,20.0,,,HRV,HRV_0262,2022-11-30 20:13:18
,wl-rdm,28,221787,0.0-6.20-0.20,False,,0.0,28.0,,,,,,,[],,,,,,50.0,0.0,u,0.0,True,1918.9000000953674,116.0,60.0,40.0,234.86149923392054,[],"[960, 540]",ColorTask,17.0,21.0,,,HRV,HRV_0262,2022-11-30 20:13:18
,wl-rdm,29,224954,0.0-6.21-0.21,False,,0.0,29.0,,,,,,,[],,,,,,62.5,0.0,u,0.0,True,1835.5999999046326,111.0,60.0,40.0,261.1532924027917,[],"[960, 540]",ColorTask,18.0,22.0,,,HRV,HRV_0262,2022-11-30 20:13:18
,wl-rdm,30,228604,0.0-6.22-0.22,False,,0.0,30.0,,,,,,,[],,,,,,56.4,0.0,u,0.0,True,2250.9000000953674,135.0,60.0,40.0,318.018372835366,[],"[960, 540]",ColorTask,19.0,23.0,,,HRV,HRV_0262,2022-11-30 20:13:18
,wl-rdm,31,230804,0.0-6.23-0.23,False,,0.0,31.0,,,,,,,[],,,,,,73.6,0.0,u,0.0,True,884.2999997138977,53.0,60.0,40.0,245.9269945299531,[],"[960, 540]",ColorTask,20.0,24.0,,,HRV,HRV_0262,2022-11-30 20:13:18
,wl-rdm,32,233104,0.0-6.24-0.24,False,,0.0,32.0,,,,,,,[],,,,,,53.2,0.0,u,0.0,True,987.7000000476837,60.0,60.0,40.0,228.36131608332303,[],"[960, 540]",ColorTask,21.0,25.0,,,HRV,HRV_0262,2022-11-30 20:13:18
,wl-rdm,33,235888,0.0-6.25-0.25,False,,0.0,33.0,,,,,,,[],,,,,,56.4,1.0,i,1.0,True,1412.1000001430511,85.0,60.0,40.0,308.92784679328713,[],"[960, 540]",ColorTask,22.0,26.0,,,HRV,HRV_0262,2022-11-30 20:13:18
,wl-rdm,34,238171,0.0-6.26-0.26,False,,0.0,34.0,,,,,,,[],,,,,,62.5,0.0,u,0.0,True,984.8999998569489,59.0,60.0,40.0,225.4256685205198,[],"[960, 540]",ColorTask,23.0,27.0,,,HRV,HRV_0262,2022-11-30 20:13:18
,wl-rdm,35,240471,0.0-6.27-0.27,False,,0.0,35.0,,,,,,,[],,,,,,87.9,0.0,u,0.0,True,1013.7999999523163,61.0,60.0,40.0,209.11891874394695,[],"[960, 540]",ColorTask,24.0,28.0,,,HRV,HRV_0262,2022-11-30 20:13:18
,wl-rdm,36,242721,0.0-6.28-0.28,False,,0.0,36.0,,,,,,,[],,,,,,87.9,1.0,i,1.0,True,810.8000001907349,49.0,60.0,40.0,372.48524123602635,[],"[960, 540]",ColorTask,25.0,29.0,,,HRV,HRV_0262,2022-11-30 20:13:18
,wl-rdm,37,245671,0.0-6.29-0.29,False,,0.0,37.0,,,,,,,[],,,,,,50.0,0.0,u,0.0,True,1521.7999999523163,92.0,60.0,40.0,349.95012250675614,[],"[960, 540]",ColorTask,26.0,30.0,,,HRV,HRV_0262,2022-11-30 20:13:18
,wl-rdm,38,248105,0.0-6.30-0.30,False,,0.0,38.0,,,,,,,[],,,,,,53.2,1.0,i,1.0,True,1036.2999999523163,63.0,60.0,40.0,316.3051012106875,[],"[960, 540]",ColorTask,27.0,31.0,,,HRV,HRV_0262,2022-11-30 20:13:18
,wl-rdm,39,250555,0.0-6.31-0.31,False,,0.0,39.0,,,,,,,[],,,,,,73.6,1.0,i,1.0,True,1035.3999998569489,62.0,60.0,40.0,335.64713925599926,[],"[960, 540]",ColorTask,28.0,32.0,,,HRV,HRV_0262,2022-11-30 20:13:18
,wl-rdm,40,253605,0.0-6.32-0.32,False,,0.0,40.0,,,,,,,[],,,,,,53.2,1.0,i,1.0,True,1724.5,104.0,60.0,40.0,241.21748084340953,[],"[960, 540]",ColorTask,29.0,33.0,,,HRV,HRV_0262,2022-11-30 20:13:18
,wl-rdm,41,256590,0.0-6.33-0.33,False,,0.0,41.0,,,,,,,[],,,,,,50.0,1.0,u,0.0,False,1623.7000000476837,98.0,60.0,40.0,286.32300713164034,[],"[960, 540]",ColorTask,28.0,34.0,,,HRV,HRV_0262,2022-11-30 20:13:18
,wl-rdm,42,259222,0.0-6.34-0.34,False,,0.0,42.0,,,,,,,[],,,,,,50.0,0.0,i,1.0,False,1207.2000000476837,73.0,60.0,40.0,335.22174879410187,[],"[960, 540]",ColorTask,27.0,35.0,,,HRV,HRV_0262,2022-11-30 20:13:18
,wl-rdm,43,262005,0.0-6.35-0.35,False,,0.0,43.0,,,,,,,[],,,,,,56.4,1.0,i,1.0,True,1415.2999999523163,85.0,60.0,40.0,308.5214113573752,[],"[960, 540]",ColorTask,28.0,36.0,,,HRV,HRV_0262,2022-11-30 20:13:18
,wl-rdm,44,265472,0.0-6.36-0.36,False,,0.0,44.0,,,,,,,[],,,,,,50.0,1.0,u,0.0,False,2136.900000333786,129.0,60.0,40.0,252.5009823805342,[],"[960, 540]",ColorTask,27.0,37.0,,,HRV,HRV_0262,2022-11-30 20:13:18
,wl-rdm,45,268406,0.0-6.37-0.37,False,,0.0,45.0,,,,,,,[],,,,,,56.4,1.0,i,1.0,True,1514.2999999523163,91.0,60.0,40.0,365.46220518496676,[],"[960, 540]",ColorTask,28.0,38.0,,,HRV,HRV_0262,2022-11-30 20:13:18
,wl-rdm,46,270889,0.0-6.38-0.38,False,,0.0,46.0,,,,,,,[],,,,,,62.5,0.0,u,0.0,True,1077.9000000953674,65.0,60.0,40.0,329.3767239503492,[],"[960, 540]",ColorTask,29.0,39.0,,,HRV,HRV_0262,2022-11-30 20:13:18
,wl-rdm,47,274356,0.0-6.39-0.39,False,,0.0,47.0,,,,,,,[],,,,,,56.4,1.0,i,1.0,True,2159.5,130.0,60.0,40.0,230.71605901506405,[],"[960, 540]",ColorTask,30.0,40.0,,,HRV,HRV_0262,2022-11-30 20:13:18
,wl-rdm,48,277489,0.0-6.40-0.40,False,,0.0,48.0,,,,,,,[],,,,,,53.2,0.0,u,0.0,True,1836.5,111.0,60.0,40.0,200.6071430196639,[],"[960, 540]",ColorTask,31.0,41.0,,,HRV,HRV_0262,2022-11-30 20:13:18
,wl-rdm,49,280773,0.0-6.41-0.41,False,,0.0,49.0,,,,,,,[],,,,,,56.4,1.0,i,1.0,True,1852.0,112.0,60.0,40.0,336.6421690216935,[],"[960, 540]",ColorTask,32.0,42.0,,,HRV,HRV_0262,2022-11-30 20:13:18
,wl-rdm,50,283590,0.0-6.42-0.42,False,,0.0,50.0,,,,,,,[],,,,,,73.6,0.0,u,0.0,True,1448.1000001430511,87.0,60.0,40.0,313.55934998035457,[],"[960, 540]",ColorTask,33.0,43.0,,,HRV,HRV_0262,2022-11-30 20:13:18
,wl-rdm,51,286090,0.0-6.43-0.43,False,,0.0,51.0,,,,,,,[],,,,,,62.5,1.0,i,1.0,True,1152.7000000476837,70.0,60.0,40.0,270.20313461096646,[],"[960, 540]",ColorTask,34.0,44.0,,,HRV,HRV_0262,2022-11-30 20:13:18
,wl-rdm,52,290474,0.0-6.44-0.44,True,RT_timeout ,0.0,51.0,,,,,,,[],,,,,,53.2,0.0,u,,,3043.7000000476837,179.0,60.0,40.0,297.93248461820235,[],"[960, 540]",ColorTask,33.0,45.0,,,HRV,HRV_0262,2022-11-30 20:13:18
,wl-rdm,53,293357,0.0-6.45-0.45,False,,0.0,52.0,,,,,,,[],,,,,,53.2,0.0,i,1.0,False,1515.2999997138977,91.0,60.0,40.0,304.21187761540506,[],"[960, 540]",ColorTask,32.0,46.0,,,HRV,HRV_0262,2022-11-30 20:13:18
,wl-rdm,54,295758,0.0-6.46-0.46,False,,0.0,53.0,,,,,,,[],,,,,,62.5,1.0,i,1.0,True,1099.1999998092651,66.0,60.0,40.0,247.3835346992613,[],"[960, 540]",ColorTask,33.0,47.0,,,HRV,HRV_0262,2022-11-30 20:13:18
,wl-rdm,55,298891,0.0-6.47-0.47,False,,0.0,54.0,,,,,,,[],,,,,,62.5,0.0,u,0.0,True,1702.4000000953674,103.0,60.0,40.0,362.40515560608844,[],"[960, 540]",ColorTask,34.0,48.0,,,HRV,HRV_0262,2022-11-30 20:13:18
,wl-rdm,56,301557,0.0-6.48-0.48,False,,0.0,55.0,,,,,,,[],,,,,,73.6,1.0,i,1.0,True,1297.5,77.0,60.0,40.0,311.21683819201235,[],"[960, 540]",ColorTask,35.0,49.0,,,HRV,HRV_0262,2022-11-30 20:13:18
,wl-rdm,57,304275,0.0-6.49-0.49,False,,0.0,56.0,,,,,,,[],,,,,,50.0,0.0,u,0.0,True,1352.4999997615814,82.0,60.0,40.0,266.3799549873326,[],"[960, 540]",ColorTask,36.0,50.0,,,HRV,HRV_0262,2022-11-30 20:13:18
,wl-rdm,58,306525,0.0-6.50-0.50,False,,0.0,57.0,,,,,,,[],,,,,,87.9,0.0,u,0.0,True,818.7999999523163,50.0,60.0,40.0,347.2586258944226,[],"[960, 540]",ColorTask,37.0,51.0,,,HRV,HRV_0262,2022-11-30 20:13:18
,wl-rdm,59,309508,0.0-6.51-0.51,False,,0.0,58.0,,,,,,,[],,,,,,53.2,0.0,u,0.0,True,1667.2000000476837,101.0,60.0,40.0,245.93484194200738,[],"[960, 540]",ColorTask,38.0,52.0,,,HRV,HRV_0262,2022-11-30 20:13:18
,wl-rdm,60,311725,0.0-6.52-0.52,False,,0.0,59.0,,,,,,,[],,,,,,87.9,0.0,u,0.0,True,792.1999998092651,48.0,60.0,40.0,349.40127469154083,[],"[960, 540]",ColorTask,39.0,53.0,,,HRV,HRV_0262,2022-11-30 20:13:18
,wl-rdm,61,314525,0.0-6.53-0.53,False,,0.0,60.0,,,,,,,[],,,,,,53.2,1.0,i,1.0,True,1450.7000000476837,87.0,60.0,40.0,279.8574091623077,[],"[960, 540]",ColorTask,40.0,54.0,,,HRV,HRV_0262,2022-11-30 20:13:18
,wl-rdm,62,317042,0.0-6.54-0.54,False,,0.0,61.0,,,,,,,[],,,,,,56.4,1.0,i,1.0,True,1111.9999997615814,67.0,60.0,40.0,321.84766988934007,[],"[960, 540]",ColorTask,41.0,55.0,,,HRV,HRV_0262,2022-11-30 20:13:18
,wl-rdm,63,319125,0.0-6.55-0.55,False,,0.0,62.0,,,,,,,[],,,,,,87.9,1.0,i,1.0,True,800.7000000476837,48.0,60.0,40.0,202.97583410381228,[],"[960, 540]",ColorTask,42.0,56.0,,,HRV,HRV_0262,2022-11-30 20:13:18
,wl-rdm,64,321876,0.0-6.56-0.56,False,,0.0,63.0,,,,,,,[],,,,,,56.4,0.0,u,0.0,True,1361.0,82.0,60.0,40.0,315.5161146021531,[],"[960, 540]",ColorTask,43.0,57.0,,,HRV,HRV_0262,2022-11-30 20:13:18
,wl-rdm,65,324409,0.0-6.57-0.57,False,,0.0,64.0,,,,,,,[],,,,,,56.4,1.0,i,1.0,True,1195.0999999046326,72.0,60.0,40.0,276.8790881210393,[],"[960, 540]",ColorTask,44.0,58.0,,,HRV,HRV_0262,2022-11-30 20:13:18
,wl-rdm,66,328209,0.0-6.58-0.58,False,,0.0,65.0,,,,,,,[],,,,,,50.0,0.0,i,1.0,False,2379.7000000476837,143.0,60.0,40.0,334.4815436645664,[],"[960, 540]",ColorTask,43.0,59.0,,,HRV,HRV_0262,2022-11-30 20:13:18
,wl-rdm,67,330559,0.0-6.59-0.59,False,,0.0,66.0,,,,,,,[],,,,,,62.5,0.0,u,0.0,True,989.8999998569489,60.0,60.0,40.0,297.22882425340003,[],"[960, 540]",ColorTask,44.0,60.0,,,HRV,HRV_0262,2022-11-30 20:13:18
,wl-rdm,68,332659,0.0-6.60-0.60,False,,0.0,67.0,,,,,,,[],,,,,,87.9,0.0,u,0.0,True,786.4000000953674,48.0,60.0,40.0,216.63612160817826,[],"[960, 540]",ColorTask,45.0,61.0,,,HRV,HRV_0262,2022-11-30 20:13:18
,wl-rdm,69,334943,0.0-6.61-0.61,False,,0.0,68.0,,,,,,,[],,,,,,62.5,0.0,u,0.0,True,889.5,54.0,60.0,40.0,311.2859779405279,[],"[960, 540]",ColorTask,46.0,62.0,,,HRV,HRV_0262,2022-11-30 20:13:18
,wl-rdm,70,337627,0.0-6.62-0.62,False,,0.0,69.0,,,,,,,[],,,,,,62.5,1.0,i,1.0,True,1386.4999997615814,84.0,60.0,40.0,223.69733040525244,[],"[960, 540]",ColorTask,47.0,63.0,,,HRV,HRV_0262,2022-11-30 20:13:18
,wl-rdm,71,341043,0.0-6.63-0.63,False,,0.0,70.0,,,,,,,[],,,,,,53.2,1.0,i,1.0,True,1961.1000001430511,118.0,60.0,40.0,379.40179719100564,[],"[960, 540]",ColorTask,48.0,64.0,,,HRV,HRV_0262,2022-11-30 20:13:18
,wl-rdm,72,343110,0.0-6.64-0.64,False,,0.0,71.0,,,,,,,[],,,,,,87.9,0.0,u,0.0,True,775.3999998569489,47.0,60.0,40.0,202.26068042238413,[],"[960, 540]",ColorTask,49.0,65.0,,,HRV,HRV_0262,2022-11-30 20:13:18
,wl-rdm,73,346343,0.0-6.65-0.65,False,,0.0,72.0,,,,,,,[],,,,,,50.0,1.0,i,1.0,True,1906.7000000476837,115.0,60.0,40.0,262.5256175102015,[],"[960, 540]",ColorTask,50.0,66.0,,,HRV,HRV_0262,2022-11-30 20:13:18
,wl-rdm,74,349027,0.0-6.66-0.66,False,,0.0,73.0,,,,,,,[],,,,,,62.5,1.0,i,1.0,True,1370.2000000476837,83.0,60.0,40.0,219.05872590936104,[],"[960, 540]",ColorTask,51.0,67.0,,,HRV,HRV_0262,2022-11-30 20:13:18
,wl-rdm,75,351698,0.0-6.67-0.67,False,,0.0,74.0,,,,,,,[],,,,,,56.4,0.0,u,0.0,True,1317.2000000476837,79.0,60.0,40.0,291.9949763943621,[],"[960, 540]",ColorTask,52.0,68.0,,,HRV,HRV_0262,2022-11-30 20:13:18
,wl-rdm,76,355310,0.0-6.68-0.68,False,,0.0,75.0,,,,,,,[],,,,,,50.0,0.0,u,0.0,True,2333.0999999046326,140.0,60.0,40.0,206.7758370436774,[],"[960, 540]",ColorTask,53.0,69.0,,,HRV,HRV_0262,2022-11-30 20:13:18
,wl-rdm,77,357627,0.0-6.69-0.69,False,,0.0,76.0,,,,,,,[],,,,,,73.6,0.0,u,0.0,True,952.9000000953674,58.0,60.0,40.0,272.12136403894544,[],"[960, 540]",ColorTask,54.0,70.0,,,HRV,HRV_0262,2022-11-30 20:13:18
,wl-rdm,78,361411,0.0-6.70-0.70,False,,0.0,77.0,,,,,,,[],,,,,,50.0,1.0,u,0.0,False,2395.100000143051,144.0,60.0,40.0,301.333617974622,[],"[960, 540]",ColorTask,53.0,71.0,,,HRV,HRV_0262,2022-11-30 20:13:18
,wl-rdm,79,364228,0.0-6.71-0.71,False,,0.0,78.0,,,,,,,[],,,,,,53.2,1.0,i,1.0,True,1419.5,86.0,60.0,40.0,307.44683949118365,[],"[960, 540]",ColorTask,54.0,72.0,,,HRV,HRV_0262,2022-11-30 20:13:18
,wl-rdm,80,366994,0.0-6.72-0.72,False,,0.0,79.0,,,,,,,[],,,,,,73.6,1.0,i,1.0,True,1312.3999998569489,79.0,60.0,40.0,399.23022507324424,[],"[960, 540]",ColorTask,55.0,73.0,,,HRV,HRV_0262,2022-11-30 20:13:18
,wl-rdm,81,369378,0.0-6.73-0.73,False,,0.0,80.0,,,,,,,[],,,,,,62.5,1.0,i,1.0,True,1095.6999998092651,66.0,60.0,40.0,230.4489627359608,[],"[960, 540]",ColorTask,56.0,74.0,,,HRV,HRV_0262,2022-11-30 20:13:18
,wl-rdm,82,371711,0.0-6.74-0.74,False,,0.0,81.0,,,,,,,[],,,,,,73.6,1.0,i,1.0,True,923.5999999046326,56.0,60.0,40.0,334.6772189970393,[],"[960, 540]",ColorTask,57.0,75.0,,,HRV,HRV_0262,2022-11-30 20:13:18
,wl-rdm,83,373878,0.0-6.75-0.75,False,,0.0,82.0,,,,,,,[],,,,,,62.5,0.0,u,0.0,True,883.7999999523163,53.0,60.0,40.0,204.10210852969288,[],"[960, 540]",ColorTask,58.0,76.0,,,HRV,HRV_0262,2022-11-30 20:13:18
,wl-rdm,84,376545,0.0-6.76-0.76,False,,0.0,83.0,,,,,,,[],,,,,,53.2,1.0,i,1.0,True,1338.7999997138977,81.0,60.0,40.0,263.76013214141364,[],"[960, 540]",ColorTask,59.0,77.0,,,HRV,HRV_0262,2022-11-30 20:13:18
,wl-rdm,85,378628,0.0-6.77-0.77,False,,0.0,84.0,,,,,,,[],,,,,,87.9,1.0,i,1.0,True,777.7999997138977,47.0,60.0,40.0,229.78357826225,[],"[960, 540]",ColorTask,60.0,78.0,,,HRV,HRV_0262,2022-11-30 20:13:18
,wl-rdm,86,381495,0.0-6.78-0.78,False,,0.0,85.0,,,,,,,[],,,,,,56.4,0.0,u,0.0,True,1574.0,92.0,60.0,40.0,232.76437659895956,[],"[960, 540]",ColorTask,61.0,79.0,,,HRV,HRV_0262,2022-11-30 20:13:18
,wl-rdm,87,383745,0.0-6.79-0.79,False,,0.0,86.0,,,,,,,[],,,,,,87.9,1.0,i,1.0,True,896.8000001907349,54.0,60.0,40.0,293.55383663069705,[],"[960, 540]",ColorTask,62.0,80.0,,,HRV,HRV_0262,2022-11-30 20:13:18
,wl-rdm,88,386629,0.0-6.80-0.80,False,,0.0,87.0,,,,,,,[],,,,,,56.4,0.0,u,0.0,True,1573.5,95.0,60.0,40.0,231.38115867326326,[],"[960, 540]",ColorTask,63.0,81.0,,,HRV,HRV_0262,2022-11-30 20:13:18
,wl-rdm,89,389829,0.0-6.81-0.81,False,,0.0,88.0,,,,,,,[],,,,,,73.6,1.0,i,1.0,True,1769.3000001907349,107.0,60.0,40.0,334.9114754371609,[],"[960, 540]",ColorTask,64.0,82.0,,,HRV,HRV_0262,2022-11-30 20:13:18
,wl-rdm,90,393029,0.0-6.82-0.82,False,,0.0,89.0,,,,,,,[],,,,,,50.0,0.0,u,0.0,True,1893.5,114.0,60.0,40.0,218.69765302197737,[],"[960, 540]",ColorTask,65.0,83.0,,,HRV,HRV_0262,2022-11-30 20:13:18
,wl-rdm,91,395396,0.0-6.83-0.83,False,,0.0,90.0,,,,,,,[],,,,,,73.6,1.0,i,1.0,True,911.7000000476837,55.0,60.0,40.0,371.229581014004,[],"[960, 540]",ColorTask,66.0,84.0,,,HRV,HRV_0262,2022-11-30 20:13:18
,wl-rdm,92,398279,0.0-6.84-0.84,False,,0.0,91.0,,,,,,,[],,,,,,56.4,1.0,u,0.0,False,1532.0999999046326,92.0,60.0,40.0,289.1573398440666,[],"[960, 540]",ColorTask,65.0,85.0,,,HRV,HRV_0262,2022-11-30 20:13:18
,wl-rdm,93,400529,0.0-6.85-0.85,False,,0.0,92.0,,,,,,,[],,,,,,50.0,1.0,u,0.0,False,806.2000000476837,49.0,60.0,40.0,362.7480419440201,[],"[960, 540]",ColorTask,64.0,86.0,,,HRV,HRV_0262,2022-11-30 20:13:18
,wl-rdm,94,403413,0.0-6.86-0.86,False,,0.0,93.0,,,,,,,[],,,,,,73.6,1.0,i,1.0,True,1519.0000002384186,92.0,60.0,40.0,298.7691029190455,[],"[960, 540]",ColorTask,65.0,87.0,,,HRV,HRV_0262,2022-11-30 20:13:18
,wl-rdm,95,406130,0.0-6.87-0.87,False,,0.0,94.0,,,,,,,[],,,,,,53.2,0.0,u,0.0,True,1396.2999999523163,84.0,60.0,40.0,233.59893445601745,[],"[960, 540]",ColorTask,66.0,88.0,,,HRV,HRV_0262,2022-11-30 20:13:18
,wl-rdm,96,408746,0.0-6.88-0.88,False,,0.0,95.0,,,,,,,[],,,,,,62.5,0.0,u,0.0,True,1262.0,76.0,60.0,40.0,299.9351703187124,[],"[960, 540]",ColorTask,67.0,89.0,,,HRV,HRV_0262,2022-11-30 20:13:18
,wl-rdm,97,411247,0.0-6.89-0.89,False,,0.0,96.0,,,,,,,[],,,,,,87.9,1.0,i,1.0,True,1142.5999999046326,69.0,60.0,40.0,279.2103356056952,[],"[960, 540]",ColorTask,68.0,90.0,,,HRV,HRV_0262,2022-11-30 20:13:18
,wl-rdm,98,415664,0.0-6.90-0.90,True,RT_timeout ,0.0,96.0,,,,,,,[],,,,,,53.2,1.0,u,,,3367.7999997138977,179.0,60.0,40.0,336.0658781903195,[],"[960, 540]",ColorTask,67.0,91.0,,,HRV,HRV_0262,2022-11-30 20:13:18
,wl-rdm,99,418247,0.0-6.91-0.91,False,,0.0,97.0,,,,,,,[],,,,,,53.2,0.0,u,0.0,True,1125.6000001430511,68.0,60.0,40.0,376.8320951213807,[],"[960, 540]",ColorTask,68.0,92.0,,,HRV,HRV_0262,2022-11-30 20:13:18
,wl-rdm,100,421047,0.0-6.92-0.92,False,,0.0,98.0,,,,,,,[],,,,,,50.0,0.0,i,1.0,False,1334.9000000953674,80.0,60.0,40.0,384.3807498782591,[],"[960, 540]",ColorTask,67.0,93.0,,,HRV,HRV_0262,2022-11-30 20:13:18
,wl-rdm,101,424381,0.0-6.93-0.93,False,,0.0,99.0,,,,,,,[],,,,,,56.4,1.0,u,0.0,False,1878.0999999046326,113.0,60.0,40.0,381.2785596105616,[],"[960, 540]",ColorTask,66.0,94.0,,,HRV,HRV_0262,2022-11-30 20:13:18
,wl-rdm,102,426697,0.0-6.94-0.94,False,,0.0,100.0,,,,,,,[],,,,,,53.2,1.0,i,1.0,True,989.3999998569489,60.0,60.0,40.0,248.56435328373027,[],"[960, 540]",ColorTask,67.0,95.0,,,HRV,HRV_0262,2022-11-30 20:13:18
,wl-rdm,103,429414,0.0-6.95-0.95,False,,0.0,101.0,,,,,,,[],,,,,,50.0,1.0,u,0.0,False,1435.0,86.0,60.0,40.0,200.30388296208884,[],"[960, 540]",ColorTask,66.0,96.0,,,HRV,HRV_0262,2022-11-30 20:13:18
,wl-rdm,104,432731,0.0-6.96-0.96,False,,0.0,102.0,,,,,,,[],,,,,,53.2,1.0,u,0.0,False,1996.0999999046326,120.0,60.0,40.0,241.37514596212776,[],"[960, 540]",ColorTask,65.0,97.0,,,HRV,HRV_0262,2022-11-30 20:13:18
,wl-rdm,105,434998,0.0-6.97-0.97,False,,0.0,103.0,,,,,,,[],,,,,,73.6,1.0,i,1.0,True,960.5999999046326,58.0,60.0,40.0,233.04159159139766,[],"[960, 540]",ColorTask,66.0,98.0,,,HRV,HRV_0262,2022-11-30 20:13:18
,wl-rdm,106,437632,0.0-6.98-0.98,False,,0.0,104.0,,,,,,,[],,,,,,62.5,1.0,i,1.0,True,1265.7999999523163,76.0,60.0,40.0,300.3573465534307,[],"[960, 540]",ColorTask,67.0,99.0,,,HRV,HRV_0262,2022-11-30 20:13:18
,wl-rdm,107,440131,0.0-6.99-0.99,False,,0.0,105.0,,,,,,,[],,,,,,50.0,1.0,u,0.0,False,1195.6000001430511,72.0,60.0,40.0,226.17033385741763,[],"[960, 540]",ColorTask,66.0,100.0,,,HRV,HRV_0262,2022-11-30 20:13:18
,wl-rdm,108,442265,0.0-6.100-0.100,False,,0.0,106.0,,,,,,,[],,,,,,87.9,0.0,u,0.0,True,848.5999999046326,51.0,60.0,40.0,231.78898634562694,[],"[960, 540]",ColorTask,67.0,101.0,,,HRV,HRV_0262,2022-11-30 20:13:18
,wl-rdm,109,444715,0.0-6.101-0.101,False,,0.0,107.0,,,,,,,[],,,,,,56.4,0.0,u,0.0,True,996.6000001430511,60.0,60.0,40.0,377.41396288553835,[],"[960, 540]",ColorTask,68.0,102.0,,,HRV,HRV_0262,2022-11-30 20:13:18
,wl-rdm,110,448949,0.0-6.102-0.102,False,,0.0,108.0,,,,,,,[],,,,,,53.2,0.0,u,0.0,True,2853.5,172.0,60.0,40.0,289.3799138100864,[],"[960, 540]",ColorTask,69.0,103.0,,,HRV,HRV_0262,2022-11-30 20:13:18
,wl-rdm,111,451265,0.0-6.103-0.103,False,,0.0,109.0,,,,,,,[],,,,,,87.9,1.0,i,1.0,True,1038.9999997615814,63.0,60.0,40.0,205.15945644532843,[],"[960, 540]",ColorTask,70.0,104.0,,,HRV,HRV_0262,2022-11-30 20:13:18
,wl-rdm,112,453567,0.0-6.104-0.104,False,,0.0,110.0,,,,,,,[],,,,,,73.6,0.0,u,0.0,True,902.0999999046326,55.0,60.0,40.0,327.74171182894736,[],"[960, 540]",ColorTask,71.0,105.0,,,HRV,HRV_0262,2022-11-30 20:13:18
,wl-rdm,113,456866,0.0-6.105-0.105,False,,0.0,111.0,,,,,,,[],,,,,,50.0,1.0,u,0.0,False,2014.2999999523163,121.0,60.0,40.0,203.19440101154996,[],"[960, 540]",ColorTask,70.0,106.0,,,HRV,HRV_0262,2022-11-30 20:13:18
,wl-rdm,114,459099,0.0-6.106-0.106,False,,0.0,112.0,,,,,,,[],,,,,,87.9,1.0,i,1.0,True,763.9000000953674,46.0,60.0,40.0,395.8506539343886,[],"[960, 540]",ColorTask,71.0,107.0,,,HRV,HRV_0262,2022-11-30 20:13:18
,wl-rdm,115,461299,0.0-6.107-0.107,False,,0.0,113.0,,,,,,,[],,,,,,73.6,0.0,u,0.0,True,912.6000001430511,55.0,60.0,40.0,217.5911449949915,[],"[960, 540]",ColorTask,72.0,108.0,,,HRV,HRV_0262,2022-11-30 20:13:18
,wl-rdm,116,463549,0.0-6.108-0.108,False,,0.0,114.0,,,,,,,[],,,,,,73.6,0.0,u,0.0,True,886.5,54.0,60.0,40.0,295.4436828874727,[],"[960, 540]",ColorTask,73.0,109.0,,,HRV,HRV_0262,2022-11-30 20:13:18
,wl-rdm,117,465716,0.0-6.109-0.109,False,,0.0,115.0,,,,,,,[],,,,,,87.9,1.0,i,1.0,True,735.2000002861023,45.0,60.0,40.0,363.4591732738138,[],"[960, 540]",ColorTask,74.0,110.0,,,HRV,HRV_0262,2022-11-30 20:13:18
,wl-html-keyboard-response,118,476266,0.0-7.0-0.0,,,1.0,116.0,,,,,,,,8539.699999809265,1.0,0,,,,,,,,,,,,,,,,,,,,HRV,HRV_0262,2022-11-30 20:13:18
,wl-rdm,119,479317,0.0-8.0-0.0,False,,1.0,117.0,,,,,,,[],,,,,,53.2,0.0,u,0.0,True,1653.5,100.0,60.0,40.0,316.86207530381023,[],"[960, 540]",ColorTask,75.0,1.0,,,HRV,HRV_0262,2022-11-30 20:13:18
,wl-rdm,120,482200,0.0-8.1-0.1,False,,1.0,118.0,,,,,,,[],,,,,,53.2,1.0,i,1.0,True,1465.7000000476837,88.0,60.0,40.0,360.7203944605684,[],"[960, 540]",ColorTask,76.0,2.0,,,HRV,HRV_0262,2022-11-30 20:13:18
,wl-rdm,121,485601,0.0-8.2-0.2,False,,1.0,119.0,,,,,,,[],,,,,,53.2,0.0,u,0.0,True,2049.2999999523163,123.0,60.0,40.0,294.32269669413006,[],"[960, 540]",ColorTask,77.0,3.0,,,HRV,HRV_0262,2022-11-30 20:13:18
,wl-rdm,122,488134,0.0-8.3-0.3,False,,1.0,120.0,,,,,,,[],,,,,,56.4,1.0,i,1.0,True,1203.0,73.0,60.0,40.0,242.23443584254076,[],"[960, 540]",ColorTask,78.0,4.0,,,HRV,HRV_0262,2022-11-30 20:13:18
,wl-rdm,123,491084,0.0-8.4-0.4,False,,1.0,121.0,,,,,,,[],,,,,,56.4,1.0,i,1.0,True,1613.0,97.0,60.0,40.0,259.7153766981461,[],"[960, 540]",ColorTask,79.0,5.0,,,HRV,HRV_0262,2022-11-30 20:13:18
,wl-rdm,124,493184,0.0-8.5-0.5,False,,1.0,122.0,,,,,,,[],,,,,,87.9,0.0,u,0.0,True,816.2999999523163,49.0,60.0,40.0,225.23862918456425,[],"[960, 540]",ColorTask,80.0,6.0,,,HRV,HRV_0262,2022-11-30 20:13:18
,wl-rdm,125,495268,0.0-8.6-0.6,False,,1.0,123.0,,,,,,,[],,,,,,73.6,0.0,u,0.0,True,788.0999999046326,48.0,60.0,40.0,230.22816123526442,[],"[960, 540]",ColorTask,81.0,7.0,,,HRV,HRV_0262,2022-11-30 20:13:18
,wl-rdm,126,497284,0.0-8.7-0.7,False,,1.0,124.0,,,,,,,[],,,,,,87.9,0.0,u,0.0,True,729.1999998092651,44.0,60.0,40.0,228.1692945678204,[],"[960, 540]",ColorTask,82.0,8.0,,,HRV,HRV_0262,2022-11-30 20:13:18
,wl-rdm,127,500234,0.0-8.8-0.8,False,,1.0,125.0,,,,,,,[],,,,,,53.2,0.0,i,1.0,False,1639.6999998092651,99.0,60.0,40.0,238.3047846143869,[],"[960, 540]",ColorTask,81.0,9.0,,,HRV,HRV_0262,2022-11-30 20:13:18
,wl-rdm,128,503118,0.0-8.9-0.9,False,,1.0,126.0,,,,,,,[],,,,,,62.5,1.0,i,1.0,True,1560.5,93.0,60.0,40.0,255.2264156271102,[],"[960, 540]",ColorTask,82.0,10.0,,,HRV,HRV_0262,2022-11-30 20:13:18
,wl-rdm,129,505685,0.0-8.10-0.10,False,,1.0,127.0,,,,,,,[],,,,,,53.2,1.0,i,1.0,True,1128.5,68.0,60.0,40.0,367.8808228334108,[],"[960, 540]",ColorTask,83.0,11.0,,,HRV,HRV_0262,2022-11-30 20:13:18
,wl-rdm,130,508185,0.0-8.11-0.11,False,,1.0,128.0,,,,,,,[],,,,,,50.0,1.0,i,1.0,True,1091.6000001430511,66.0,60.0,40.0,326.00586224415594,[],"[960, 540]",ColorTask,84.0,12.0,,,HRV,HRV_0262,2022-11-30 20:13:18
,wl-rdm,131,511602,0.0-8.12-0.12,False,,1.0,129.0,,,,,,,[],,,,,,50.0,0.0,u,0.0,True,2007.4000000953674,121.0,60.0,40.0,319.3554881415125,[],"[960, 540]",ColorTask,85.0,13.0,,,HRV,HRV_0262,2022-11-30 20:13:18
,wl-rdm,132,514002,0.0-8.13-0.13,False,,1.0,130.0,,,,,,,[],,,,,,73.6,0.0,u,0.0,True,1057.2999999523163,64.0,60.0,40.0,264.79422397830035,[],"[960, 540]",ColorTask,86.0,14.0,,,HRV,HRV_0262,2022-11-30 20:13:18
,wl-rdm,133,516569,0.0-8.14-0.14,False,,1.0,131.0,,,,,,,[],,,,,,50.0,0.0,i,1.0,False,1266.0,76.0,60.0,40.0,242.42048179438984,[],"[960, 540]",ColorTask,85.0,15.0,,,HRV,HRV_0262,2022-11-30 20:13:18
,wl-rdm,134,518686,0.0-8.15-0.15,False,,1.0,132.0,,,,,,,[],,,,,,87.9,1.0,i,1.0,True,795.7999999523163,48.0,60.0,40.0,238.99593977301504,[],"[960, 540]",ColorTask,86.0,16.0,,,HRV,HRV_0262,2022-11-30 20:13:18
,wl-rdm,135,521703,0.0-8.16-0.16,False,,1.0,133.0,,,,,,,[],,,,,,50.0,1.0,u,0.0,False,1626.3999998569489,98.0,60.0,40.0,332.03198705318675,[],"[960, 540]",ColorTask,85.0,17.0,,,HRV,HRV_0262,2022-11-30 20:13:18
,wl-rdm,136,523869,0.0-8.17-0.17,False,,1.0,134.0,,,,,,,[],,,,,,87.9,0.0,u,0.0,True,894.8000001907349,54.0,60.0,40.0,210.46792789463592,[],"[960, 540]",ColorTask,86.0,18.0,,,HRV,HRV_0262,2022-11-30 20:13:18
,wl-rdm,137,526152,0.0-8.18-0.18,False,,1.0,135.0,,,,,,,[],,,,,,87.9,1.0,i,1.0,True,984.1999998092651,59.0,60.0,40.0,227.84151508531244,[],"[960, 540]",ColorTask,87.0,19.0,,,HRV,HRV_0262,2022-11-30 20:13:18
,wl-rdm,138,528836,0.0-8.19-0.19,False,,1.0,136.0,,,,,,,[],,,,,,53.2,0.0,i,1.0,False,1263.5,76.0,60.0,40.0,355.6370200431874,[],"[960, 540]",ColorTask,86.0,20.0,,,HRV,HRV_0262,2022-11-30 20:13:18
,wl-rdm,139,531436,0.0-8.20-0.20,False,,1.0,137.0,,,,,,,[],,,,,,50.0,1.0,i,1.0,True,1171.9000000953674,71.0,60.0,40.0,333.2450805935399,[],"[960, 540]",ColorTask,87.0,21.0,,,HRV,HRV_0262,2022-11-30 20:13:18
,wl-rdm,140,533937,0.0-8.21-0.21,False,,1.0,138.0,,,,,,,[],,,,,,53.2,1.0,i,1.0,True,1101.2000002861023,66.0,60.0,40.0,317.3896405034391,[],"[960, 540]",ColorTask,88.0,22.0,,,HRV,HRV_0262,2022-11-30 20:13:18
,wl-rdm,141,536586,0.0-8.22-0.22,False,,1.0,139.0,,,,,,,[],,,,,,50.0,0.0,u,0.0,True,1363.7000000476837,82.0,60.0,40.0,223.56404202904113,[],"[960, 540]",ColorTask,89.0,23.0,,,HRV,HRV_0262,2022-11-30 20:13:18
,wl-rdm,142,539270,0.0-8.23-0.23,False,,1.0,140.0,,,,,,,[],,,,,,62.5,1.0,i,1.0,True,1306.9000000953674,78.0,60.0,40.0,316.69044421397973,[],"[960, 540]",ColorTask,90.0,24.0,,,HRV,HRV_0262,2022-11-30 20:13:18
,wl-rdm,143,541403,0.0-8.24-0.24,False,,1.0,141.0,,,,,,,[],,,,,,62.5,1.0,i,1.0,True,847.5,51.0,60.0,40.0,210.462036298465,[],"[960, 540]",ColorTask,91.0,25.0,,,HRV,HRV_0262,2022-11-30 20:13:18
,wl-rdm,144,543637,0.0-8.25-0.25,False,,1.0,142.0,,,,,,,[],,,,,,62.5,0.0,u,0.0,True,926.0999999046326,56.0,60.0,40.0,239.85968760959648,[],"[960, 540]",ColorTask,92.0,26.0,,,HRV,HRV_0262,2022-11-30 20:13:18
,wl-rdm,145,546953,0.0-8.26-0.26,False,,1.0,143.0,,,,,,,[],,,,,,56.4,1.0,i,1.0,True,1957.9000000953674,118.0,60.0,40.0,293.3811602174238,[],"[960, 540]",ColorTask,93.0,27.0,,,HRV,HRV_0262,2022-11-30 20:13:18
,wl-rdm,146,549053,0.0-8.27-0.27,False,,1.0,144.0,,,,,,,[],,,,,,87.9,0.0,u,0.0,True,811.5999999046326,49.0,60.0,40.0,205.3562035646844,[],"[960, 540]",ColorTask,94.0,28.0,,,HRV,HRV_0262,2022-11-30 20:13:18
,wl-rdm,147,551520,0.0-8.28-0.28,False,,1.0,145.0,,,,,,,[],,,,,,53.2,0.0,u,0.0,True,1085.8000001907349,66.0,60.0,40.0,294.6593227096136,[],"[960, 540]",ColorTask,95.0,29.0,,,HRV,HRV_0262,2022-11-30 20:13:18
,wl-rdm,148,553922,0.0-8.29-0.29,False,,1.0,146.0,,,,,,,[],,,,,,73.6,1.0,i,1.0,True,1059.0,64.0,60.0,40.0,272.20938269528426,[],"[960, 540]",ColorTask,96.0,30.0,,,HRV,HRV_0262,2022-11-30 20:13:18
,wl-rdm,149,557537,0.0-8.30-0.30,False,,1.0,147.0,,,,,,,[],,,,,,56.4,1.0,i,1.0,True,2166.0,130.0,60.0,40.0,397.27369227671136,[],"[960, 540]",ColorTask,97.0,31.0,,,HRV,HRV_0262,2022-11-30 20:13:18
,wl-rdm,150,560404,0.0-8.31-0.31,False,,1.0,148.0,,,,,,,[],,,,,,62.5,1.0,i,1.0,True,1463.5999999046326,88.0,60.0,40.0,323.47023524764313,[],"[960, 540]",ColorTask,98.0,32.0,,,HRV,HRV_0262,2022-11-30 20:13:18
,wl-rdm,151,562522,0.0-8.32-0.32,False,,1.0,149.0,,,,,,,[],,,,,,87.9,1.0,i,1.0,True,775.9000000953674,47.0,60.0,40.0,251.0766106312455,[],"[960, 540]",ColorTask,99.0,33.0,,,HRV,HRV_0262,2022-11-30 20:13:18
,wl-rdm,152,564888,0.0-8.33-0.33,False,,1.0,150.0,,,,,,,[],,,,,,87.9,0.0,u,0.0,True,885.7999999523163,54.0,60.0,40.0,392.231457191286,[],"[960, 540]",ColorTask,100.0,34.0,,,HRV,HRV_0262,2022-11-30 20:13:18
,wl-rdm,153,566988,0.0-8.34-0.34,False,,1.0,151.0,,,,,,,[],,,,,,87.9,1.0,i,1.0,True,730.4999997615814,44.0,60.0,40.0,285.4145762324053,[],"[960, 540]",ColorTask,101.0,35.0,,,HRV,HRV_0262,2022-11-30 20:13:18
,wl-rdm,154,569171,0.0-8.35-0.35,False,,1.0,152.0,,,,,,,[],,,,,,73.6,0.0,u,0.0,True,881.7999999523163,53.0,60.0,40.0,219.23370310333135,[],"[960, 540]",ColorTask,102.0,36.0,,,HRV,HRV_0262,2022-11-30 20:13:18
,wl-rdm,155,571588,0.0-8.36-0.36,False,,1.0,153.0,,,,,,,[],,,,,,56.4,1.0,i,1.0,True,1130.4000000953674,68.0,60.0,40.0,203.88915727761156,[],"[960, 540]",ColorTask,103.0,37.0,,,HRV,HRV_0262,2022-11-30 20:13:18
,wl-rdm,156,573672,0.0-8.37-0.37,False,,1.0,154.0,,,,,,,[],,,,,,73.6,1.0,i,1.0,True,777.6999998092651,47.0,60.0,40.0,224.2029927893305,[],"[960, 540]",ColorTask,104.0,38.0,,,HRV,HRV_0262,2022-11-30 20:13:18
,wl-rdm,157,576188,0.0-8.38-0.38,False,,1.0,155.0,,,,,,,[],,,,,,56.4,1.0,u,0.0,False,1147.2000000476837,69.0,60.0,40.0,291.9462145611262,[],"[960, 540]",ColorTask,103.0,39.0,,,HRV,HRV_0262,2022-11-30 20:13:18
,wl-rdm,158,578388,0.0-8.39-0.39,False,,1.0,156.0,,,,,,,[],,,,,,62.5,0.0,u,0.0,True,863.5999999046326,52.0,60.0,40.0,256.2729131599831,[],"[960, 540]",ColorTask,104.0,40.0,,,HRV,HRV_0262,2022-11-30 20:13:18
,wl-rdm,159,580557,0.0-8.40-0.40,False,,1.0,157.0,,,,,,,[],,,,,,53.2,1.0,u,0.0,False,773.5000002384186,47.0,60.0,40.0,329.54012238013195,[],"[960, 540]",ColorTask,103.0,41.0,,,HRV,HRV_0262,2022-11-30 20:13:18
,wl-rdm,160,582939,0.0-8.41-0.41,False,,1.0,158.0,,,,,,,[],,,,,,50.0,0.0,u,0.0,True,948.8000001907349,57.0,60.0,40.0,366.06507031851424,[],"[960, 540]",ColorTask,104.0,42.0,,,HRV,HRV_0262,2022-11-30 20:13:18
,wl-rdm,161,585522,0.0-8.42-0.42,False,,1.0,159.0,,,,,,,[],,,,,,56.4,0.0,i,1.0,False,1302.0999999046326,78.0,60.0,40.0,204.85804787922396,[],"[960, 540]",ColorTask,103.0,43.0,,,HRV,HRV_0262,2022-11-30 20:13:18
,wl-rdm,162,588073,0.0-8.43-0.43,False,,1.0,160.0,,,,,,,[],,,,,,53.2,0.0,u,0.0,True,1142.9000000953674,69.0,60.0,40.0,341.8908393980259,[],"[960, 540]",ColorTask,104.0,44.0,,,HRV,HRV_0262,2022-11-30 20:13:18
,wl-rdm,163,590456,0.0-8.44-0.44,False,,1.0,161.0,,,,,,,[],,,,,,56.4,0.0,u,0.0,True,943.8999998569489,57.0,60.0,40.0,363.2764095777384,[],"[960, 540]",ColorTask,105.0,45.0,,,HRV,HRV_0262,2022-11-30 20:13:18
,wl-rdm,164,594473,0.0-8.45-0.45,False,,1.0,162.0,,,,,,,[],,,,,,62.5,1.0,i,1.0,True,2569.4000000953674,155.0,60.0,40.0,374.81565031410855,[],"[960, 540]",ColorTask,106.0,46.0,,,HRV,HRV_0262,2022-11-30 20:13:18
,wl-rdm,165,596590,0.0-8.46-0.46,False,,1.0,163.0,,,,,,,[],,,,,,87.9,0.0,u,0.0,True,754.9999997615814,46.0,60.0,40.0,287.505431474282,[],"[960, 540]",ColorTask,107.0,47.0,,,HRV,HRV_0262,2022-11-30 20:13:18
,wl-rdm,166,599290,0.0-8.47-0.47,False,,1.0,164.0,,,,,,,[],,,,,,62.5,0.0,u,0.0,True,1417.7999997138977,85.0,60.0,40.0,200.7910816274938,[],"[960, 540]",ColorTask,108.0,48.0,,,HRV,HRV_0262,2022-11-30 20:13:18
,wl-rdm,167,601757,0.0-8.48-0.48,False,,1.0,165.0,,,,,,,[],,,,,,73.6,1.0,i,1.0,True,1164.5999999046326,70.0,60.0,40.0,221.87385005568834,[],"[960, 540]",ColorTask,109.0,49.0,,,HRV,HRV_0262,2022-11-30 20:13:18
,wl-rdm,168,604624,0.0-8.49-0.49,False,,1.0,166.0,,,,,,,[],,,,,,50.0,1.0,u,0.0,False,1511.0,91.0,60.0,40.0,294.86878622680956,[],"[960, 540]",ColorTask,108.0,50.0,,,HRV,HRV_0262,2022-11-30 20:13:18
,wl-rdm,169,606941,0.0-8.50-0.50,False,,1.0,167.0,,,,,,,[],,,,,,62.5,0.0,u,0.0,True,990.2999999523163,60.0,60.0,40.0,249.11749480217938,[],"[960, 540]",ColorTask,109.0,51.0,,,HRV,HRV_0262,2022-11-30 20:13:18
,wl-rdm,170,609690,0.0-8.51-0.51,False,,1.0,168.0,,,,,,,[],,,,,,62.5,1.0,i,1.0,True,1475.0,89.0,60.0,40.0,205.1220524939627,[],"[960, 540]",ColorTask,110.0,52.0,,,HRV,HRV_0262,2022-11-30 20:13:18
,wl-rdm,171,611941,0.0-8.52-0.52,False,,1.0,169.0,,,,,,,[],,,,,,73.6,0.0,u,0.0,True,939.9000000953674,57.0,60.0,40.0,227.79300845385393,[],"[960, 540]",ColorTask,111.0,53.0,,,HRV,HRV_0262,2022-11-30 20:13:18
,wl-rdm,172,614091,0.0-8.53-0.53,False,,1.0,170.0,,,,,,,[],,,,,,62.5,0.0,u,0.0,True,834.2000000476837,50.0,60.0,40.0,240.95815243380673,[],"[960, 540]",ColorTask,112.0,54.0,,,HRV,HRV_0262,2022-11-30 20:13:18
,wl-rdm,173,616374,0.0-8.54-0.54,False,,1.0,171.0,,,,,,,[],,,,,,62.5,0.0,u,0.0,True,837.8000001907349,51.0,60.0,40.0,367.30990527997784,[],"[960, 540]",ColorTask,113.0,55.0,,,HRV,HRV_0262,2022-11-30 20:13:18
,wl-rdm,174,618608,0.0-8.55-0.55,False,,1.0,172.0,,,,,,,[],,,,,,50.0,1.0,u,0.0,False,886.1000001430511,54.0,60.0,40.0,279.25671836630283,[],"[960, 540]",ColorTask,112.0,56.0,,,HRV,HRV_0262,2022-11-30 20:13:18
,wl-rdm,175,621241,0.0-8.56-0.56,False,,1.0,173.0,,,,,,,[],,,,,,53.2,1.0,u,0.0,False,1326.8999998569489,80.0,60.0,40.0,226.0888952679744,[],"[960, 540]",ColorTask,111.0,57.0,,,HRV,HRV_0262,2022-11-30 20:13:18
,wl-rdm,176,624791,0.0-8.57-0.57,False,,1.0,174.0,,,,,,,[],,,,,,56.4,0.0,u,0.0,True,2162.5000002384186,130.0,60.0,40.0,300.33488632228506,[],"[960, 540]",ColorTask,112.0,58.0,,,HRV,HRV_0262,2022-11-30 20:13:18
,wl-rdm,177,626991,0.0-8.58-0.58,False,,1.0,175.0,,,,,,,[],,,,,,73.6,0.0,u,0.0,True,870.2999999523163,53.0,60.0,40.0,242.2731916508447,[],"[960, 540]",ColorTask,113.0,59.0,,,HRV,HRV_0262,2022-11-30 20:13:18
,wl-rdm,178,629491,0.0-8.59-0.59,False,,1.0,176.0,,,,,,,[],,,,,,50.0,0.0,u,0.0,True,1117.2000000476837,67.0,60.0,40.0,313.2158780140031,[],"[960, 540]",ColorTask,114.0,60.0,,,HRV,HRV_0262,2022-11-30 20:13:18
,wl-rdm,179,631608,0.0-8.60-0.60,False,,1.0,177.0,,,,,,,[],,,,,,87.9,1.0,i,1.0,True,786.4999997615814,48.0,60.0,40.0,234.0240154398183,[],"[960, 540]",ColorTask,115.0,61.0,,,HRV,HRV_0262,2022-11-30 20:13:18
,wl-rdm,180,633792,0.0-8.61-0.61,False,,1.0,178.0,,,,,,,[],,,,,,73.6,1.0,i,1.0,True,779.0000002384186,47.0,60.0,40.0,317.33316819543813,[],"[960, 540]",ColorTask,116.0,62.0,,,HRV,HRV_0262,2022-11-30 20:13:18
,wl-rdm,181,636292,0.0-8.62-0.62,False,,1.0,179.0,,,,,,,[],,,,,,62.5,0.0,u,0.0,True,1174.9000000953674,71.0,60.0,40.0,245.7624613077535,[],"[960, 540]",ColorTask,117.0,63.0,,,HRV,HRV_0262,2022-11-30 20:13:18
,wl-rdm,182,639109,0.0-8.63-0.63,False,,1.0,180.0,,,,,,,[],,,,,,50.0,1.0,i,1.0,True,1523.5,92.0,60.0,40.0,215.02178669990087,[],"[960, 540]",ColorTask,118.0,64.0,,,HRV,HRV_0262,2022-11-30 20:13:18
,wl-rdm,183,641192,0.0-8.64-0.64,False,,1.0,181.0,,,,,,,[],,,,,,87.9,1.0,i,1.0,True,795.2000002861023,48.0,60.0,40.0,219.68086265820335,[],"[960, 540]",ColorTask,119.0,65.0,,,HRV,HRV_0262,2022-11-30 20:13:18
,wl-rdm,184,643742,0.0-8.65-0.65,False,,1.0,182.0,,,,,,,[],,,,,,56.4,0.0,u,0.0,True,1080.6999998092651,65.0,60.0,40.0,386.43790418257674,[],"[960, 540]",ColorTask,120.0,66.0,,,HRV,HRV_0262,2022-11-30 20:13:18
,wl-rdm,185,646259,0.0-8.66-0.66,False,,1.0,183.0,,,,,,,[],,,,,,62.5,1.0,i,1.0,True,1241.5999999046326,75.0,60.0,40.0,204.50988072485228,[],"[960, 540]",ColorTask,121.0,67.0,,,HRV,HRV_0262,2022-11-30 20:13:18
,wl-rdm,186,649343,0.0-8.67-0.67,False,,1.0,184.0,,,,,,,[],,,,,,50.0,0.0,u,0.0,True,1745.6000001430511,105.0,60.0,40.0,278.368272155011,[],"[960, 540]",ColorTask,122.0,68.0,,,HRV,HRV_0262,2022-11-30 20:13:18
,wl-rdm,187,652293,0.0-8.68-0.68,False,,1.0,185.0,,,,,,,[],,,,,,50.0,1.0,u,0.0,False,1566.0,94.0,60.0,40.0,308.9399765898563,[],"[960, 540]",ColorTask,121.0,69.0,,,HRV,HRV_0262,2022-11-30 20:13:18
,wl-rdm,188,655226,0.0-8.69-0.69,False,,1.0,186.0,,,,,,,[],,,,,,73.6,1.0,i,1.0,True,1602.7999999523163,97.0,60.0,40.0,241.78936810917378,[],"[960, 540]",ColorTask,122.0,70.0,,,HRV,HRV_0262,2022-11-30 20:13:18
,wl-rdm,189,658010,0.0-8.70-0.70,False,,1.0,187.0,,,,,,,[],,,,,,50.0,1.0,u,0.0,False,1427.0,86.0,60.0,40.0,279.0561681529363,[],"[960, 540]",ColorTask,121.0,71.0,,,HRV,HRV_0262,2022-11-30 20:13:18
,wl-rdm,190,661027,0.0-8.71-0.71,False,,1.0,188.0,,,,,,,[],,,,,,56.4,0.0,u,0.0,True,1618.7999999523163,98.0,60.0,40.0,312.740269191289,[],"[960, 540]",ColorTask,122.0,72.0,,,HRV,HRV_0262,2022-11-30 20:13:18
,wl-rdm,191,664911,0.0-8.72-0.72,False,,1.0,189.0,,,,,,,[],,,,,,56.4,0.0,i,1.0,False,2480.600000143051,149.0,60.0,40.0,335.8685261577295,[],"[960, 540]",ColorTask,121.0,73.0,,,HRV,HRV_0262,2022-11-30 20:13:18
,wl-rdm,192,667577,0.0-8.73-0.73,False,,1.0,190.0,,,,,,,[],,,,,,53.2,1.0,u,0.0,False,1361.9000000953674,82.0,60.0,40.0,231.14642023786774,[],"[960, 540]",ColorTask,120.0,74.0,,,HRV,HRV_0262,2022-11-30 20:13:18
,wl-rdm,193,669560,0.0-8.74-0.74,False,,1.0,191.0,,,,,,,[],,,,,,87.9,0.0,u,0.0,True,678.9000000953674,41.0,60.0,40.0,227.982545782937,[],"[960, 540]",ColorTask,121.0,75.0,,,HRV,HRV_0262,2022-11-30 20:13:18
,wl-rdm,194,671810,0.0-8.75-0.75,False,,1.0,192.0,,,,,,,[],,,,,,73.6,0.0,u,0.0,True,910.0,55.0,60.0,40.0,256.8677912897003,[],"[960, 540]",ColorTask,122.0,76.0,,,HRV,HRV_0262,2022-11-30 20:13:18
,wl-rdm,195,674613,0.0-8.76-0.76,False,,1.0,193.0,,,,,,,[],,,,,,73.6,0.0,u,0.0,True,1460.1000001430511,88.0,60.0,40.0,252.88554796784805,[],"[960, 540]",ColorTask,123.0,77.0,,,HRV,HRV_0262,2022-11-30 20:13:18
,wl-rdm,196,676878,0.0-8.77-0.77,False,,1.0,194.0,,,,,,,[],,,,,,73.6,1.0,i,1.0,True,982.5000002384186,59.0,60.0,40.0,211.91745989140915,[],"[960, 540]",ColorTask,124.0,78.0,,,HRV,HRV_0262,2022-11-30 20:13:18
,wl-rdm,197,678928,0.0-8.78-0.78,False,,1.0,195.0,,,,,,,[],,,,,,87.9,1.0,i,1.0,True,695.7999999523163,42.0,60.0,40.0,284.944951816426,[],"[960, 540]",ColorTask,125.0,79.0,,,HRV,HRV_0262,2022-11-30 20:13:18
,wl-rdm,198,681111,0.0-8.79-0.79,False,,1.0,196.0,,,,,,,[],,,,,,87.9,0.0,u,0.0,True,813.7999999523163,49.0,60.0,40.0,283.8988595808358,[],"[960, 540]",ColorTask,126.0,80.0,,,HRV,HRV_0262,2022-11-30 20:13:18
,wl-rdm,199,683294,0.0-8.80-0.80,False,,1.0,197.0,,,,,,,[],,,,,,73.6,0.0,u,0.0,True,747.7000000476837,45.0,60.0,40.0,354.66673090199487,[],"[960, 540]",ColorTask,127.0,81.0,,,HRV,HRV_0262,2022-11-30 20:13:18
,wl-rdm,200,685861,0.0-8.81-0.81,False,,1.0,198.0,,,,,,,[],,,,,,62.5,0.0,i,1.0,False,1164.7999999523163,70.0,60.0,40.0,336.7143611444932,[],"[960, 540]",ColorTask,126.0,82.0,,,HRV,HRV_0262,2022-11-30 20:13:18
,wl-rdm,201,689178,0.0-8.82-0.82,False,,1.0,199.0,,,,,,,[],,,,,,62.5,0.0,i,1.0,False,2011.3000001907349,121.0,60.0,40.0,230.7211023389772,[],"[960, 540]",ColorTask,125.0,83.0,,,HRV,HRV_0262,2022-11-30 20:13:18
,wl-rdm,202,691495,0.0-8.83-0.83,False,,1.0,200.0,,,,,,,[],,,,,,50.0,0.0,i,1.0,False,1022.5999999046326,62.0,60.0,40.0,208.49557954253203,[],"[960, 540]",ColorTask,124.0,84.0,,,HRV,HRV_0262,2022-11-30 20:13:18
,wl-rdm,203,695128,0.0-8.84-0.84,False,,1.0,201.0,,,,,,,[],,,,,,53.2,0.0,i,1.0,False,2230.0,134.0,60.0,40.0,317.45097164419286,[],"[960, 540]",ColorTask,123.0,85.0,,,HRV,HRV_0262,2022-11-30 20:13:18
,wl-rdm,204,697512,0.0-8.85-0.85,False,,1.0,202.0,,,,,,,[],,,,,,73.6,0.0,u,0.0,True,1071.6000001430511,65.0,60.0,40.0,223.98383891218276,[],"[960, 540]",ColorTask,124.0,86.0,,,HRV,HRV_0262,2022-11-30 20:13:18
,wl-rdm,205,700895,0.0-8.86-0.86,False,,1.0,203.0,,,,,,,[],,,,,,56.4,0.0,i,1.0,False,2005.7999999523163,121.0,60.0,40.0,287.86959612417735,[],"[960, 540]",ColorTask,123.0,87.0,,,HRV,HRV_0262,2022-11-30 20:13:18
,wl-rdm,206,703579,0.0-8.87-0.87,False,,1.0,204.0,,,,,,,[],,,,,,50.0,0.0,u,0.0,True,1210.5999999046326,73.0,60.0,40.0,387.02263850260897,[],"[960, 540]",ColorTask,124.0,88.0,,,HRV,HRV_0262,2022-11-30 20:13:18
,wl-rdm,207,705797,0.0-8.88-0.88,False,,1.0,205.0,,,,,,,[],,,,,,73.6,1.0,i,1.0,True,942.5000002384186,57.0,60.0,40.0,205.39371543901078,[],"[960, 540]",ColorTask,125.0,89.0,,,HRV,HRV_0262,2022-11-30 20:13:18
,wl-rdm,208,708929,0.0-8.89-0.89,False,,1.0,206.0,,,,,,,[],,,,,,56.4,1.0,i,1.0,True,1761.2999999523163,106.0,60.0,40.0,309.90730256632844,[],"[960, 540]",ColorTask,126.0,90.0,,,HRV,HRV_0262,2022-11-30 20:13:18
,wl-rdm,209,712096,0.0-8.90-0.90,False,,1.0,207.0,,,,,,,[],,,,,,56.4,1.0,i,1.0,True,1805.7999999523163,109.0,60.0,40.0,279.87770218986566,[],"[960, 540]",ColorTask,127.0,91.0,,,HRV,HRV_0262,2022-11-30 20:13:18
,wl-rdm,210,715029,0.0-8.91-0.91,False,,1.0,208.0,,,,,,,[],,,,,,50.0,1.0,u,0.0,False,1649.0,99.0,60.0,40.0,210.773756526883,[],"[960, 540]",ColorTask,126.0,92.0,,,HRV,HRV_0262,2022-11-30 20:13:18
,wl-rdm,211,718263,0.0-8.92-0.92,False,,1.0,209.0,,,,,,,[],,,,,,53.2,1.0,i,1.0,True,1839.5999999046326,111.0,60.0,40.0,312.5596072330491,[],"[960, 540]",ColorTask,127.0,93.0,,,HRV,HRV_0262,2022-11-30 20:13:18
,wl-rdm,212,721230,0.0-8.93-0.93,False,,1.0,210.0,,,,,,,[],,,,,,53.2,1.0,i,1.0,True,1682.2999999523163,101.0,60.0,40.0,215.75913353389618,[],"[960, 540]",ColorTask,128.0,94.0,,,HRV,HRV_0262,2022-11-30 20:13:18
,wl-rdm,213,724513,0.0-8.94-0.94,False,,1.0,211.0,,,,,,,[],,,,,,62.5,1.0,i,1.0,True,1821.0,110.0,60.0,40.0,369.8312266749813,[],"[960, 540]",ColorTask,129.0,95.0,,,HRV,HRV_0262,2022-11-30 20:13:18
,wl-rdm,214,728063,0.0-8.95-0.95,False,,1.0,212.0,,,,,,,[],,,,,,56.4,0.0,i,1.0,False,2197.0999999046326,132.0,60.0,40.0,269.7061931639345,[],"[960, 540]",ColorTask,128.0,96.0,,,HRV,HRV_0262,2022-11-30 20:13:18
,wl-rdm,215,730780,0.0-8.96-0.96,False,,1.0,213.0,,,,,,,[],,,,,,53.2,1.0,i,1.0,True,1433.5,86.0,60.0,40.0,225.9608898873866,[],"[960, 540]",ColorTask,129.0,97.0,,,HRV,HRV_0262,2022-11-30 20:13:18
,wl-rdm,216,733831,0.0-8.97-0.97,False,,1.0,214.0,,,,,,,[],,,,,,56.4,0.0,u,0.0,True,1598.6999998092651,96.0,60.0,40.0,381.5590788196807,[],"[960, 540]",ColorTask,130.0,98.0,,,HRV,HRV_0262,2022-11-30 20:13:18
,wl-rdm,217,736180,0.0-8.98-0.98,False,,1.0,215.0,,,,,,,[],,,,,,73.6,1.0,i,1.0,True,934.5999999046326,57.0,60.0,40.0,321.6265781491405,[],"[960, 540]",ColorTask,131.0,99.0,,,HRV,HRV_0262,2022-11-30 20:13:18
,wl-rdm,218,738548,0.0-8.99-0.99,False,,1.0,216.0,,,,,,,[],,,,,,73.6,1.0,i,1.0,True,1086.4000000953674,66.0,60.0,40.0,207.49267140798693,[],"[960, 540]",ColorTask,132.0,100.0,,,HRV,HRV_0262,2022-11-30 20:13:18
,wl-rdm,219,741798,0.0-8.100-0.100,False,,1.0,217.0,,,,,,,[],,,,,,53.2,0.0,u,0.0,True,1883.5999999046326,113.0,60.0,40.0,290.75407644540815,[],"[960, 540]",ColorTask,133.0,101.0,,,HRV,HRV_0262,2022-11-30 20:13:18
,wl-rdm,220,744048,0.0-8.101-0.101,False,,1.0,218.0,,,,,,,[],,,,,,87.9,0.0,u,0.0,True,904.6000001430511,55.0,60.0,40.0,255.40364157141067,[],"[960, 540]",ColorTask,134.0,102.0,,,HRV,HRV_0262,2022-11-30 20:13:18
,wl-rdm,221,747114,0.0-8.102-0.102,False,,1.0,219.0,,,,,,,[],,,,,,53.2,0.0,u,0.0,True,1695.2999999523163,102.0,60.0,40.0,298.095914769326,[],"[960, 540]",ColorTask,135.0,103.0,,,HRV,HRV_0262,2022-11-30 20:13:18
,wl-rdm,222,750131,0.0-8.103-0.103,False,,1.0,220.0,,,,,,,[],,,,,,56.4,1.0,i,1.0,True,1652.3999998569489,100.0,60.0,40.0,301.56523556071136,[],"[960, 540]",ColorTask,136.0,104.0,,,HRV,HRV_0262,2022-11-30 20:13:18
,wl-rdm,223,752981,0.0-8.104-0.104,False,,1.0,221.0,,,,,,,[],,,,,,62.5,1.0,u,0.0,False,1549.2000002861023,93.0,60.0,40.0,245.9891088439989,[],"[960, 540]",ColorTask,135.0,105.0,,,HRV,HRV_0262,2022-11-30 20:13:18
,wl-rdm,224,755248,0.0-8.105-0.105,False,,1.0,222.0,,,,,,,[],,,,,,87.9,1.0,i,1.0,True,938.3999998569489,57.0,60.0,40.0,251.53751444024093,[],"[960, 540]",ColorTask,136.0,106.0,,,HRV,HRV_0262,2022-11-30 20:13:18
,wl-rdm,225,759381,0.0-8.106-0.106,False,,1.0,223.0,,,,,,,[],,,,,,50.0,0.0,u,0.0,True,2807.9999997615814,169.0,60.0,40.0,250.34777650976298,[],"[960, 540]",ColorTask,137.0,107.0,,,HRV,HRV_0262,2022-11-30 20:13:18
,wl-rdm,226,761898,0.0-8.107-0.107,False,,1.0,224.0,,,,,,,[],,,,,,87.9,1.0,i,1.0,True,1070.3000001907349,65.0,60.0,40.0,357.56558478982225,[],"[960, 540]",ColorTask,138.0,108.0,,,HRV,HRV_0262,2022-11-30 20:13:18
,wl-html-button-response,227,764426,0.0-9.0-0.0,,,,,,,,,,,,2524.2999999523163,,0,,,,,,,,,,,,,,,,,,<h3>End of this session. Thank you!</h3><br>,['Close window'],HRV,HRV_0262,2022-11-30 20:13:18
