trialN,stimuli,trialStartTime,trialStartTime_UNIX,stimulus1,stimulus2,stimulus1Bid,stimulus2Bid,delta,selected,rt,rt_UNIX,rt_perfnow,receivedResponse,rsp,trialEndTime,trialDuration,trialEndTime_UNIX,trialDuration_UNIX,exp,subjectId,date
0,"[{'imgObject': {}, 'id': 'burger', 'src': '/static/foodstim60/burger.jpg', 'key': 'u', 'origWidth': 409, 'origHeight': 409, 'width': 409, 'height': 409, 'widthPercent': 0.45, 'rescaleHeight': False, 'trialN': 0, 'loaded': True, 'loadedTime': 2205.2000000476837, 'positionName': 'LEFT', 'positionCoords': [512.6, 335.5], 'bid': 4.84}, {'imgObject': {}, 'id': 'avocado', 'src': '/static/foodstim60/avocado.jpg', 'key': 'i', 'origWidth': 409, 'origHeight': 409, 'width': 409, 'height': 409, 'widthPercent': 0.45, 'rescaleHeight': False, 'trialN': 0, 'loaded': True, 'loadedTime': 2315, 'positionName': 'RIGHT', 'positionCoords': [998.4, 335.5], 'bid': 0.14}]",3325.399999856949,1669836856173,burger,avocado,4.84,0.14,-4.7,burger,1679.5,1681,1680.6000001430511,True,u,5523.799999952316,2198.4000000953674,1669836858372,2199,HRV,HRV_0262,2022-11-30 19:40:08
1,"[{'imgObject': {}, 'id': 'mashed potato', 'src': '/static/foodstim60/mashed potato.jpg', 'key': 'u', 'origWidth': 409, 'origHeight': 409, 'width': 409, 'height': 409, 'widthPercent': 0.45, 'rescaleHeight': False, 'trialN': 1, 'loaded': True, 'loadedTime': 2322.7999999523163, 'positionName': 'LEFT', 'positionCoords': [512.6, 335.5], 'bid': 4.9}, {'imgObject': {}, 'id': 'seaweed', 'src': '/static/foodstim60/seaweed.jpg', 'key': 'i', 'origWidth': 410, 'origHeight': 410, 'width': 410, 'height': 410, 'widthPercent': 0.45, 'rescaleHeight': False, 'trialN': 1, 'loaded': True, 'loadedTime': 2333.7000000476837, 'positionName': 'RIGHT', 'positionCoords': [998.4, 335], 'bid': 0.17}]",5524.399999856949,1669836858372,mashed potato,seaweed,4.9,0.17,-4.73,mashed potato,1192.8000001907349,1193,1193.2000000476837,True,u,7229.0,1704.6000001430511,1669836860077,1705,HRV,HRV_0262,2022-11-30 19:40:08
2,"[{'imgObject': {}, 'id': 'shreddedwheatwithmilk', 'src': '/static/foodstim60/shreddedwheatwithmilk.jpg', 'key': 'u', 'origWidth': 410, 'origHeight': 410, 'width': 410, 'height': 410, 'widthPercent': 0.45, 'rescaleHeight': False, 'trialN': 2, 'loaded': True, 'loadedTime': 2376.2999999523163, 'positionName': 'LEFT', 'positionCoords': [511.6, 335], 'bid': 0}, {'imgObject': {}, 'id': 'cherries', 'src': '/static/foodstim60/cherries.jpg', 'key': 'i', 'origWidth': 410, 'origHeight': 411, 'width': 410, 'height': 411, 'widthPercent': 0.45, 'rescaleHeight': False, 'trialN': 2, 'loaded': True, 'loadedTime': 2415.0999999046326, 'positionName': 'RIGHT', 'positionCoords': [998.4, 334.5], 'bid': 2.97}]",7229.200000047684,1669836860077,shreddedwheatwithmilk,cherries,0.0,2.97,2.97,cherries,1111.7999999523163,1112,1112.1999998092651,True,i,8854.799999952316,1625.5999999046326,1669836861703,1626,HRV,HRV_0262,2022-11-30 19:40:08
3,"[{'imgObject': {}, 'id': 'turkeysandwich', 'src': '/static/foodstim60/turkeysandwich.jpg', 'key': 'u', 'origWidth': 409, 'origHeight': 409, 'width': 409, 'height': 409, 'widthPercent': 0.45, 'rescaleHeight': False, 'trialN': 3, 'loaded': True, 'loadedTime': 2434.5999999046326, 'positionName': 'LEFT', 'positionCoords': [512.6, 335.5], 'bid': 7.92}, {'imgObject': {}, 'id': 'ice cream sundae 002', 'src': '/static/foodstim60/ice cream sundae 002.jpg', 'key': 'i', 'origWidth': 409, 'origHeight': 409, 'width': 409, 'height': 409, 'widthPercent': 0.45, 'rescaleHeight': False, 'trialN': 3, 'loaded': True, 'loadedTime': 2477.5999999046326, 'positionName': 'RIGHT', 'positionCoords': [998.4, 335.5], 'bid': 4.88}]",8855.099999904633,1669836861703,turkeysandwich,ice cream sundae 002,7.92,4.88,-3.04,turkeysandwich,1022.1000001430511,1022,1022.4000000953674,True,u,10388.700000047684,1533.6000001430511,1669836863237,1534,HRV,HRV_0262,2022-11-30 19:40:08
4,"[{'imgObject': {}, 'id': 'popsicles', 'src': '/static/foodstim60/popsicles.jpg', 'key': 'u', 'origWidth': 410, 'origHeight': 410, 'width': 410, 'height': 410, 'widthPercent': 0.45, 'rescaleHeight': False, 'trialN': 4, 'loaded': True, 'loadedTime': 3182.399999856949, 'positionName': 'LEFT', 'positionCoords': [511.6, 335], 'bid': 3.12}, {'imgObject': {}, 'id': 'cherries', 'src': '/static/foodstim60/cherries.jpg', 'key': 'i', 'origWidth': 410, 'origHeight': 411, 'width': 410, 'height': 411, 'widthPercent': 0.45, 'rescaleHeight': False, 'trialN': 4, 'loaded': True, 'loadedTime': 2399, 'positionName': 'RIGHT', 'positionCoords': [998.4, 334.5], 'bid': 2.97}]",10389.0,1669836863237,popsicles,cherries,3.12,2.97,-0.1499999999999999,cherries,1488.5,1489,1489.0,True,i,12393.599999904633,2004.5999999046326,1669836865241,2004,HRV,HRV_0262,2022-11-30 19:40:08
5,"[{'imgObject': {}, 'id': 'lox', 'src': '/static/foodstim60/lox.jpg', 'key': 'u', 'origWidth': 410, 'origHeight': 411, 'width': 410, 'height': 411, 'widthPercent': 0.45, 'rescaleHeight': False, 'trialN': 5, 'loaded': True, 'loadedTime': 2501.0999999046326, 'positionName': 'LEFT', 'positionCoords': [511.6, 334.5], 'bid': 0}, {'imgObject': {}, 'id': 'mango', 'src': '/static/foodstim60/mango.jpg', 'key': 'i', 'origWidth': 411, 'origHeight': 411, 'width': 411, 'height': 411, 'widthPercent': 0.45, 'rescaleHeight': False, 'trialN': 5, 'loaded': True, 'loadedTime': 2539.899999856949, 'positionName': 'RIGHT', 'positionCoords': [998.4, 334.5], 'bid': 2.96}]",12394.099999904633,1669836865242,lox,mango,0.0,2.96,2.96,mango,1962.9000000953674,1963,1963.4000000953674,True,i,14872.799999952316,2478.7000000476837,1669836867721,2479,HRV,HRV_0262,2022-11-30 19:40:08
6,"[{'imgObject': {}, 'id': 'turkey sandwich', 'src': '/static/foodstim60/turkey sandwich.jpg', 'key': 'u', 'origWidth': 409, 'origHeight': 409, 'width': 409, 'height': 409, 'widthPercent': 0.45, 'rescaleHeight': False, 'trialN': 6, 'loaded': True, 'loadedTime': 2568.2999999523163, 'positionName': 'LEFT', 'positionCoords': [512.6, 335.5], 'bid': 9.37}, {'imgObject': {}, 'id': 'blueberries', 'src': '/static/foodstim60/blueberries.jpg', 'key': 'i', 'origWidth': 411, 'origHeight': 411, 'width': 411, 'height': 411, 'widthPercent': 0.45, 'rescaleHeight': False, 'trialN': 6, 'loaded': True, 'loadedTime': 2606.399999856949, 'positionName': 'RIGHT', 'positionCoords': [998.4, 334.5], 'bid': 2.2}]",14873.200000047684,1669836867721,turkey sandwich,blueberries,9.37,2.2,-7.169999999999999,turkey sandwich,876.1999998092651,877,876.6999998092651,True,u,16261.200000047684,1388.0,1669836869109,1388,HRV,HRV_0262,2022-11-30 19:40:08
7,"[{'imgObject': {}, 'id': 'strawberries', 'src': '/static/foodstim60/strawberries.jpg', 'key': 'u', 'origWidth': 410, 'origHeight': 410, 'width': 410, 'height': 410, 'widthPercent': 0.45, 'rescaleHeight': False, 'trialN': 7, 'loaded': True, 'loadedTime': 2608.399999856949, 'positionName': 'LEFT', 'positionCoords': [511.6, 335], 'bid': 8.71}, {'imgObject': {}, 'id': 'baked potato', 'src': '/static/foodstim60/baked potato.jpg', 'key': 'i', 'origWidth': 409, 'origHeight': 410, 'width': 409, 'height': 410, 'widthPercent': 0.45, 'rescaleHeight': False, 'trialN': 7, 'loaded': True, 'loadedTime': 2635.5999999046326, 'positionName': 'RIGHT', 'positionCoords': [998.4, 335], 'bid': 5.11}]",16261.399999856949,1669836869109,strawberries,baked potato,8.71,5.11,-3.6000000000000005,strawberries,1007.7000000476837,1008,1008.2000000476837,True,u,17787.0,1525.6000001430511,1669836870635,1526,HRV,HRV_0262,2022-11-30 19:40:08
8,"[{'imgObject': {}, 'id': 'omelette', 'src': '/static/foodstim60/omelette.jpg', 'key': 'u', 'origWidth': 410, 'origHeight': 409, 'width': 410, 'height': 409, 'widthPercent': 0.45, 'rescaleHeight': False, 'trialN': 8, 'loaded': True, 'loadedTime': 2649.5999999046326, 'positionName': 'LEFT', 'positionCoords': [511.6, 335.5], 'bid': 1.62}, {'imgObject': {}, 'id': 'eggsalad', 'src': '/static/foodstim60/eggsalad.jpg', 'key': 'i', 'origWidth': 410, 'origHeight': 409, 'width': 410, 'height': 409, 'widthPercent': 0.45, 'rescaleHeight': False, 'trialN': 8, 'loaded': True, 'loadedTime': 2691.0999999046326, 'positionName': 'RIGHT', 'positionCoords': [998.4, 335.5], 'bid': 0.11}]",17787.099999904633,1669836870635,omelette,eggsalad,1.62,0.11,-1.51,eggsalad,1282.2000000476837,1282,1282.5,True,i,19579.39999985695,1792.2999999523163,1669836872427,1792,HRV,HRV_0262,2022-11-30 19:40:08
9,"[{'imgObject': {}, 'id': 'lox', 'src': '/static/foodstim60/lox.jpg', 'key': 'u', 'origWidth': 410, 'origHeight': 411, 'width': 410, 'height': 411, 'widthPercent': 0.45, 'rescaleHeight': False, 'trialN': 9, 'loaded': True, 'loadedTime': 2517.399999856949, 'positionName': 'LEFT', 'positionCoords': [511.6, 334.5], 'bid': 0}, {'imgObject': {}, 'id': 'blackbeanswithrice', 'src': '/static/foodstim60/blackbeanswithrice.jpg', 'key': 'i', 'origWidth': 410, 'origHeight': 410, 'width': 410, 'height': 410, 'widthPercent': 0.45, 'rescaleHeight': False, 'trialN': 9, 'loaded': True, 'loadedTime': 2795.7000000476837, 'positionName': 'RIGHT', 'positionCoords': [998.4, 335], 'bid': 0.09}]",19579.89999985695,1669836872428,lox,blackbeanswithrice,0.0,0.09,0.09,blackbeanswithrice,1257.4000000953674,1258,1257.9000000953674,True,i,21351.39999985695,1771.5,1669836874199,1771,HRV,HRV_0262,2022-11-30 19:40:08
10,"[{'imgObject': {}, 'id': 'yogurt no spoon', 'src': '/static/foodstim60/yogurt no spoon.jpg', 'key': 'u', 'origWidth': 411, 'origHeight': 410, 'width': 411, 'height': 410, 'widthPercent': 0.45, 'rescaleHeight': False, 'trialN': 10, 'loaded': True, 'loadedTime': 2851, 'positionName': 'LEFT', 'positionCoords': [510.6, 335], 'bid': 6.84}, {'imgObject': {}, 'id': 'strawberries', 'src': '/static/foodstim60/strawberries.jpg', 'key': 'i', 'origWidth': 410, 'origHeight': 410, 'width': 410, 'height': 410, 'widthPercent': 0.45, 'rescaleHeight': False, 'trialN': 10, 'loaded': True, 'loadedTime': 2627.7000000476837, 'positionName': 'RIGHT', 'positionCoords': [998.4, 335], 'bid': 8.71}]",21351.700000047684,1669836874200,yogurt no spoon,strawberries,6.84,8.71,1.870000000000001,strawberries,1214.2999999523163,1214,1214.7999999523163,True,i,23072.700000047684,1721.0,1669836875920,1720,HRV,HRV_0262,2022-11-30 19:40:08
11,"[{'imgObject': {}, 'id': 'raisin bran w milk', 'src': '/static/foodstim60/raisin bran w milk.jpg', 'key': 'u', 'origWidth': 411, 'origHeight': 411, 'width': 411, 'height': 411, 'widthPercent': 0.45, 'rescaleHeight': False, 'trialN': 11, 'loaded': True, 'loadedTime': 2881.899999856949, 'positionName': 'LEFT', 'positionCoords': [510.6, 334.5], 'bid': 0.15}, {'imgObject': {}, 'id': 'blueberries', 'src': '/static/foodstim60/blueberries.jpg', 'key': 'i', 'origWidth': 411, 'origHeight': 411, 'width': 411, 'height': 411, 'widthPercent': 0.45, 'rescaleHeight': False, 'trialN': 11, 'loaded': True, 'loadedTime': 2589, 'positionName': 'RIGHT', 'positionCoords': [998.4, 334.5], 'bid': 2.2}]",23073.200000047684,1669836875921,raisin bran w milk,blueberries,0.15,2.2,2.0500000000000003,blueberries,1060.0,1060,1060.3999998569489,True,i,24650.099999904633,1576.8999998569489,1669836877498,1577,HRV,HRV_0262,2022-11-30 19:40:08
12,"[{'imgObject': {}, 'id': 'salmon', 'src': '/static/foodstim60/salmon.jpg', 'key': 'u', 'origWidth': 410, 'origHeight': 409, 'width': 410, 'height': 409, 'widthPercent': 0.45, 'rescaleHeight': False, 'trialN': 12, 'loaded': True, 'loadedTime': 2888.0999999046326, 'positionName': 'LEFT', 'positionCoords': [511.6, 335.5], 'bid': 0.22}, {'imgObject': {}, 'id': 'rigatoni', 'src': '/static/foodstim60/rigatoni.jpg', 'key': 'i', 'origWidth': 411, 'origHeight': 411, 'width': 411, 'height': 411, 'widthPercent': 0.45, 'rescaleHeight': False, 'trialN': 12, 'loaded': True, 'loadedTime': 2894.7999999523163, 'positionName': 'RIGHT', 'positionCoords': [998.4, 334.5], 'bid': 1.58}]",24650.299999952316,1669836877498,salmon,rigatoni,0.22,1.58,1.36,rigatoni,1371.4000000953674,1372,1371.9000000953674,True,i,26539.099999904633,1888.7999999523163,1669836879387,1889,HRV,HRV_0262,2022-11-30 19:40:08
13,"[{'imgObject': {}, 'id': 'burger', 'src': '/static/foodstim60/burger.jpg', 'key': 'u', 'origWidth': 409, 'origHeight': 409, 'width': 409, 'height': 409, 'widthPercent': 0.45, 'rescaleHeight': False, 'trialN': 13, 'loaded': True, 'loadedTime': 2207.5999999046326, 'positionName': 'LEFT', 'positionCoords': [512.6, 335.5], 'bid': 4.84}, {'imgObject': {}, 'id': 'orange slices', 'src': '/static/foodstim60/orange slices.jpg', 'key': 'i', 'origWidth': 409, 'origHeight': 410, 'width': 409, 'height': 410, 'widthPercent': 0.45, 'rescaleHeight': False, 'trialN': 13, 'loaded': True, 'loadedTime': 2896.2999999523163, 'positionName': 'RIGHT', 'positionCoords': [998.4, 335], 'bid': 7.57}]",26539.39999985695,1669836879387,burger,orange slices,4.84,7.57,2.7300000000000004,orange slices,1002.0,1003,1002.5,True,i,28057.599999904633,1518.2000000476837,1669836880905,1518,HRV,HRV_0262,2022-11-30 19:40:08
14,"[{'imgObject': {}, 'id': 'mango', 'src': '/static/foodstim60/mango.jpg', 'key': 'u', 'origWidth': 411, 'origHeight': 411, 'width': 411, 'height': 411, 'widthPercent': 0.45, 'rescaleHeight': False, 'trialN': 14, 'loaded': True, 'loadedTime': 2518.399999856949, 'positionName': 'LEFT', 'positionCoords': [510.6, 334.5], 'bid': 2.96}, {'imgObject': {}, 'id': 'roastedpotatoes', 'src': '/static/foodstim60/roastedpotatoes.jpg', 'key': 'i', 'origWidth': 409, 'origHeight': 410, 'width': 409, 'height': 410, 'widthPercent': 0.45, 'rescaleHeight': False, 'trialN': 14, 'loaded': True, 'loadedTime': 2240.399999856949, 'positionName': 'RIGHT', 'positionCoords': [998.4, 335], 'bid': 2.96}]",28057.89999985695,1669836880906,mango,roastedpotatoes,2.96,2.96,0.0,roastedpotatoes,1395.9000000953674,1396,1396.5,True,i,29965.5,1907.6000001430511,1669836882813,1907,HRV,HRV_0262,2022-11-30 19:40:08
15,"[{'imgObject': {}, 'id': 'veggieswithdip', 'src': '/static/foodstim60/veggieswithdip.jpg', 'key': 'u', 'origWidth': 409, 'origHeight': 409, 'width': 409, 'height': 409, 'widthPercent': 0.45, 'rescaleHeight': False, 'trialN': 15, 'loaded': True, 'loadedTime': 2248.7000000476837, 'positionName': 'LEFT', 'positionCoords': [512.6, 335.5], 'bid': 2.05}, {'imgObject': {}, 'id': 'blueberries', 'src': '/static/foodstim60/blueberries.jpg', 'key': 'i', 'origWidth': 411, 'origHeight': 411, 'width': 411, 'height': 411, 'widthPercent': 0.45, 'rescaleHeight': False, 'trialN': 15, 'loaded': True, 'loadedTime': 2605.899999856949, 'positionName': 'RIGHT', 'positionCoords': [998.4, 334.5], 'bid': 2.2}]",29965.700000047684,1669836882813,veggieswithdip,blueberries,2.05,2.2,0.15000000000000036,veggieswithdip,1759.8999998569489,1761,1760.2999999523163,True,u,32235.099999904633,2269.399999856949,1669836885083,2270,HRV,HRV_0262,2022-11-30 19:40:08
16,"[{'imgObject': {}, 'id': 'kiwi', 'src': '/static/foodstim60/kiwi.jpg', 'key': 'u', 'origWidth': 410, 'origHeight': 410, 'width': 410, 'height': 410, 'widthPercent': 0.45, 'rescaleHeight': False, 'trialN': 16, 'loaded': True, 'loadedTime': 2297.0999999046326, 'positionName': 'LEFT', 'positionCoords': [511.6, 335], 'bid': 3.43}, {'imgObject': {}, 'id': 'bagel and cc', 'src': '/static/foodstim60/bagel and cc.jpg', 'key': 'i', 'origWidth': 410, 'origHeight': 410, 'width': 410, 'height': 410, 'widthPercent': 0.45, 'rescaleHeight': False, 'trialN': 16, 'loaded': True, 'loadedTime': 2304.899999856949, 'positionName': 'RIGHT', 'positionCoords': [998.4, 335], 'bid': 3.35}]",32235.299999952316,1669836885083,kiwi,bagel and cc,3.43,3.35,-0.08000000000000007,bagel and cc,1339.0999999046326,1340,1339.5999999046326,True,i,34091.09999990463,1855.7999999523163,1669836886939,1856,HRV,HRV_0262,2022-11-30 19:40:08
17,"[{'imgObject': {}, 'id': 'hashbrowns', 'src': '/static/foodstim60/hashbrowns.jpg', 'key': 'u', 'origWidth': 411, 'origHeight': 410, 'width': 411, 'height': 410, 'widthPercent': 0.45, 'rescaleHeight': False, 'trialN': 17, 'loaded': True, 'loadedTime': 2306.899999856949, 'positionName': 'LEFT', 'positionCoords': [510.6, 335], 'bid': 0}, {'imgObject': {}, 'id': 'cocktailshrimp', 'src': '/static/foodstim60/cocktailshrimp.jpg', 'key': 'i', 'origWidth': 410, 'origHeight': 410, 'width': 410, 'height': 410, 'widthPercent': 0.45, 'rescaleHeight': False, 'trialN': 17, 'loaded': True, 'loadedTime': 2458.2999999523163, 'positionName': 'RIGHT', 'positionCoords': [998.4, 335], 'bid': 0}]",34091.39999985695,1669836886939,hashbrowns,cocktailshrimp,0.0,0.0,0.0,hashbrowns,1594.5,1596,1595.3000001907349,True,u,36194.89999985695,2103.5,1669836889043,2104,HRV,HRV_0262,2022-11-30 19:40:08
18,"[{'imgObject': {}, 'id': 'froot loops w milk', 'src': '/static/foodstim60/froot loops w milk.jpg', 'key': 'u', 'origWidth': 410, 'origHeight': 410, 'width': 410, 'height': 410, 'widthPercent': 0.45, 'rescaleHeight': False, 'trialN': 18, 'loaded': True, 'loadedTime': 2657.899999856949, 'positionName': 'LEFT', 'positionCoords': [511.6, 335], 'bid': 4.5600000000000005}, {'imgObject': {}, 'id': 'sushi w_condiments', 'src': '/static/foodstim60/sushi w_condiments.jpg', 'key': 'i', 'origWidth': 410, 'origHeight': 410, 'width': 410, 'height': 410, 'widthPercent': 0.45, 'rescaleHeight': False, 'trialN': 18, 'loaded': True, 'loadedTime': 2693.899999856949, 'positionName': 'RIGHT', 'positionCoords': [998.4, 335], 'bid': 0.14}]",36195.200000047684,1669836889043,froot loops w milk,sushi w_condiments,4.5600000000000005,0.14,-4.420000000000001,froot loops w milk,1122.7999999523163,1123,1123.5,True,u,37837.200000047684,1642.0,1669836890685,1642,HRV,HRV_0262,2022-11-30 19:40:08
19,"[{'imgObject': {}, 'id': 'mac & cheese', 'src': '/static/foodstim60/mac & cheese.jpg', 'key': 'u', 'origWidth': 410, 'origHeight': 410, 'width': 410, 'height': 410, 'widthPercent': 0.45, 'rescaleHeight': False, 'trialN': 19, 'loaded': True, 'loadedTime': 2709.5, 'positionName': 'LEFT', 'positionCoords': [511.6, 335], 'bid': 2.41}, {'imgObject': {}, 'id': 'cheerios', 'src': '/static/foodstim60/cheerios.jpg', 'key': 'i', 'origWidth': 409, 'origHeight': 410, 'width': 409, 'height': 410, 'widthPercent': 0.45, 'rescaleHeight': False, 'trialN': 19, 'loaded': True, 'loadedTime': 2715.899999856949, 'positionName': 'RIGHT', 'positionCoords': [998.4, 335], 'bid': 2.39}]",37837.39999985695,1669836890685,mac & cheese,cheerios,2.41,2.39,-0.020000000000000018,mac & cheese,1512.5,1513,1513.2000000476837,True,u,39857.0,2019.6000001430511,1669836892705,2020,HRV,HRV_0262,2022-11-30 19:40:08
20,"[{'imgObject': {}, 'id': 'edamame', 'src': '/static/foodstim60/edamame.jpg', 'key': 'u', 'origWidth': 409, 'origHeight': 410, 'width': 409, 'height': 410, 'widthPercent': 0.45, 'rescaleHeight': False, 'trialN': 20, 'loaded': True, 'loadedTime': 2799, 'positionName': 'LEFT', 'positionCoords': [512.6, 335], 'bid': 0.05}, {'imgObject': {}, 'id': 'fried eggs', 'src': '/static/foodstim60/fried eggs.jpg', 'key': 'i', 'origWidth': 410, 'origHeight': 410, 'width': 410, 'height': 410, 'widthPercent': 0.45, 'rescaleHeight': False, 'trialN': 20, 'loaded': True, 'loadedTime': 2901.5, 'positionName': 'RIGHT', 'positionCoords': [998.4, 335], 'bid': 1.22}]",39857.200000047684,1669836892705,edamame,fried eggs,0.05,1.22,1.17,fried eggs,1140.3999998569489,1141,1141.0,True,i,41506.799999952316,1649.5999999046326,1669836894355,1650,HRV,HRV_0262,2022-11-30 19:40:08
21,"[{'imgObject': {}, 'id': 'cocktailshrimp', 'src': '/static/foodstim60/cocktailshrimp.jpg', 'key': 'u', 'origWidth': 410, 'origHeight': 410, 'width': 410, 'height': 410, 'widthPercent': 0.45, 'rescaleHeight': False, 'trialN': 21, 'loaded': True, 'loadedTime': 2457.5999999046326, 'positionName': 'LEFT', 'positionCoords': [511.6, 335], 'bid': 0}, {'imgObject': {}, 'id': 'avocado', 'src': '/static/foodstim60/avocado.jpg', 'key': 'i', 'origWidth': 409, 'origHeight': 409, 'width': 409, 'height': 409, 'widthPercent': 0.45, 'rescaleHeight': False, 'trialN': 21, 'loaded': True, 'loadedTime': 2314.2999999523163, 'positionName': 'RIGHT', 'positionCoords': [998.4, 335.5], 'bid': 0.14}]",41507.200000047684,1669836894355,cocktailshrimp,avocado,0.0,0.14,0.14,avocado,1330.3999998569489,1331,1330.8999998569489,True,i,43347.59999990463,1840.3999998569489,1669836896195,1840,HRV,HRV_0262,2022-11-30 19:40:08
22,"[{'imgObject': {}, 'id': 'cherry tomato', 'src': '/static/foodstim60/cherry tomato.jpg', 'key': 'u', 'origWidth': 410, 'origHeight': 410, 'width': 410, 'height': 410, 'widthPercent': 0.45, 'rescaleHeight': False, 'trialN': 22, 'loaded': True, 'loadedTime': 2946.7999999523163, 'positionName': 'LEFT', 'positionCoords': [511.6, 335], 'bid': 3.09}, {'imgObject': {}, 'id': 'hashbrowns', 'src': '/static/foodstim60/hashbrowns.jpg', 'key': 'i', 'origWidth': 411, 'origHeight': 410, 'width': 411, 'height': 410, 'widthPercent': 0.45, 'rescaleHeight': False, 'trialN': 22, 'loaded': True, 'loadedTime': 2310.5, 'positionName': 'RIGHT', 'positionCoords': [998.4, 335], 'bid': 0}]",43347.700000047684,1669836896195,cherry tomato,hashbrowns,3.09,0.0,-3.09,cherry tomato,1266.5999999046326,1268,1267.0,True,u,45134.700000047684,1787.0,1669836897983,1788,HRV,HRV_0262,2022-11-30 19:40:08
23,"[{'imgObject': {}, 'id': 'steak', 'src': '/static/foodstim60/steak.jpg', 'key': 'u', 'origWidth': 410, 'origHeight': 410, 'width': 410, 'height': 410, 'widthPercent': 0.45, 'rescaleHeight': False, 'trialN': 23, 'loaded': True, 'loadedTime': 2976.899999856949, 'positionName': 'LEFT', 'positionCoords': [511.6, 335], 'bid': 5.97}, {'imgObject': {}, 'id': 'cherry tomato', 'src': '/static/foodstim60/cherry tomato.jpg', 'key': 'i', 'origWidth': 410, 'origHeight': 410, 'width': 410, 'height': 410, 'widthPercent': 0.45, 'rescaleHeight': False, 'trialN': 23, 'loaded': True, 'loadedTime': 2949.5, 'positionName': 'RIGHT', 'positionCoords': [998.4, 335], 'bid': 3.09}]",45135.09999990463,1669836897983,steak,cherry tomato,5.97,3.09,-2.88,steak,1295.1000001430511,1295,1295.6000001430511,True,u,46938.700000047684,1803.6000001430511,1669836899787,1804,HRV,HRV_0262,2022-11-30 19:40:08
24,"[{'imgObject': {}, 'id': 'mashed potato', 'src': '/static/foodstim60/mashed potato.jpg', 'key': 'u', 'origWidth': 409, 'origHeight': 409, 'width': 409, 'height': 409, 'widthPercent': 0.45, 'rescaleHeight': False, 'trialN': 24, 'loaded': True, 'loadedTime': 2320.7999999523163, 'positionName': 'LEFT', 'positionCoords': [512.6, 335.5], 'bid': 4.9}, {'imgObject': {}, 'id': 'grilled chicken strips', 'src': '/static/foodstim60/grilled chicken strips.jpg', 'key': 'i', 'origWidth': 410, 'origHeight': 411, 'width': 410, 'height': 411, 'widthPercent': 0.45, 'rescaleHeight': False, 'trialN': 24, 'loaded': True, 'loadedTime': 3001.899999856949, 'positionName': 'RIGHT', 'positionCoords': [998.4, 334.5], 'bid': 8.4}]",46938.89999985695,1669836899787,mashed potato,grilled chicken strips,4.9,8.4,3.5,grilled chicken strips,1707.3000001907349,1708,1707.9000000953674,True,i,49163.89999985695,2225.0,1669836902012,2225,HRV,HRV_0262,2022-11-30 19:40:08
25,"[{'imgObject': {}, 'id': 'cheerios', 'src': '/static/foodstim60/cheerios.jpg', 'key': 'u', 'origWidth': 409, 'origHeight': 410, 'width': 409, 'height': 410, 'widthPercent': 0.45, 'rescaleHeight': False, 'trialN': 25, 'loaded': True, 'loadedTime': 2765.7000000476837, 'positionName': 'LEFT', 'positionCoords': [512.6, 335], 'bid': 2.39}, {'imgObject': {}, 'id': 'seaweed', 'src': '/static/foodstim60/seaweed.jpg', 'key': 'i', 'origWidth': 410, 'origHeight': 410, 'width': 410, 'height': 410, 'widthPercent': 0.45, 'rescaleHeight': False, 'trialN': 25, 'loaded': True, 'loadedTime': 2334.0999999046326, 'positionName': 'RIGHT', 'positionCoords': [998.4, 335], 'bid': 0.17}]",49164.299999952316,1669836902012,cheerios,seaweed,2.39,0.17,-2.22,cheerios,1450.0999999046326,1451,1450.9000000953674,True,u,51123.299999952316,1959.0,1669836903971,1959,HRV,HRV_0262,2022-11-30 19:40:08
26,"[{'imgObject': {}, 'id': 'shreddedwheatwithmilk', 'src': '/static/foodstim60/shreddedwheatwithmilk.jpg', 'key': 'u', 'origWidth': 410, 'origHeight': 410, 'width': 410, 'height': 410, 'widthPercent': 0.45, 'rescaleHeight': False, 'trialN': 26, 'loaded': True, 'loadedTime': 2379.5999999046326, 'positionName': 'LEFT', 'positionCoords': [511.6, 335], 'bid': 0}, {'imgObject': {}, 'id': 'hashbrowns', 'src': '/static/foodstim60/hashbrowns.jpg', 'key': 'i', 'origWidth': 411, 'origHeight': 410, 'width': 411, 'height': 410, 'widthPercent': 0.45, 'rescaleHeight': False, 'trialN': 26, 'loaded': True, 'loadedTime': 2308.5999999046326, 'positionName': 'RIGHT', 'positionCoords': [998.4, 335], 'bid': 0}]",51123.5,1669836903971,shreddedwheatwithmilk,hashbrowns,0.0,0.0,0.0,hashbrowns,1586.7999999523163,1588,1587.5,True,i,53228.700000047684,2105.2000000476837,1669836906077,2106,HRV,HRV_0262,2022-11-30 19:40:08
27,"[{'imgObject': {}, 'id': 'eggsalad', 'src': '/static/foodstim60/eggsalad.jpg', 'key': 'u', 'origWidth': 410, 'origHeight': 409, 'width': 410, 'height': 409, 'widthPercent': 0.45, 'rescaleHeight': False, 'trialN': 27, 'loaded': True, 'loadedTime': 2659.7000000476837, 'positionName': 'LEFT', 'positionCoords': [511.6, 335.5], 'bid': 0.11}, {'imgObject': {}, 'id': 'blackbeanswithrice', 'src': '/static/foodstim60/blackbeanswithrice.jpg', 'key': 'i', 'origWidth': 410, 'origHeight': 410, 'width': 410, 'height': 410, 'widthPercent': 0.45, 'rescaleHeight': False, 'trialN': 27, 'loaded': True, 'loadedTime': 2796.2999999523163, 'positionName': 'RIGHT', 'positionCoords': [998.4, 335], 'bid': 0.09}]",53229.09999990463,1669836906077,eggsalad,blackbeanswithrice,0.11,0.09,-0.020000000000000004,eggsalad,1305.6000001430511,1306,1306.2000000476837,True,u,55059.5,1830.4000000953674,1669836907907,1830,HRV,HRV_0262,2022-11-30 19:40:08
28,"[{'imgObject': {}, 'id': 'cantaloupe', 'src': '/static/foodstim60/cantaloupe.jpg', 'key': 'u', 'origWidth': 409, 'origHeight': 409, 'width': 409, 'height': 409, 'widthPercent': 0.45, 'rescaleHeight': False, 'trialN': 28, 'loaded': True, 'loadedTime': 3009.5, 'positionName': 'LEFT', 'positionCoords': [512.6, 335.5], 'bid': 0.14}, {'imgObject': {}, 'id': 'eggs', 'src': '/static/foodstim60/eggs.jpg', 'key': 'i', 'origWidth': 409, 'origHeight': 409, 'width': 409, 'height': 409, 'widthPercent': 0.45, 'rescaleHeight': False, 'trialN': 28, 'loaded': True, 'loadedTime': 3036.0999999046326, 'positionName': 'RIGHT', 'positionCoords': [998.4, 335.5], 'bid': 1.97}]",55060.0,1669836907908,cantaloupe,eggs,0.14,1.97,1.83,eggs,1266.2999999523163,1267,1267.0,True,i,56837.39999985695,1777.3999998569489,1669836909685,1777,HRV,HRV_0262,2022-11-30 19:40:08
29,"[{'imgObject': {}, 'id': 'eggs', 'src': '/static/foodstim60/eggs.jpg', 'key': 'u', 'origWidth': 409, 'origHeight': 409, 'width': 409, 'height': 409, 'widthPercent': 0.45, 'rescaleHeight': False, 'trialN': 29, 'loaded': True, 'loadedTime': 3039, 'positionName': 'LEFT', 'positionCoords': [512.6, 335.5], 'bid': 1.97}, {'imgObject': {}, 'id': 'veggieswithdip', 'src': '/static/foodstim60/veggieswithdip.jpg', 'key': 'i', 'origWidth': 409, 'origHeight': 409, 'width': 409, 'height': 409, 'widthPercent': 0.45, 'rescaleHeight': False, 'trialN': 29, 'loaded': True, 'loadedTime': 2253.0999999046326, 'positionName': 'RIGHT', 'positionCoords': [998.4, 335.5], 'bid': 2.05}]",56837.59999990463,1669836909685,eggs,veggieswithdip,1.97,2.05,0.07999999999999985,eggs,1032.4000000953674,1033,1032.7999999523163,True,u,58383.799999952316,1546.2000000476837,1669836911232,1547,HRV,HRV_0262,2022-11-30 19:40:08
30,"[{'imgObject': {}, 'id': 'chicken nuggets2', 'src': '/static/foodstim60/chicken nuggets2.jpg', 'key': 'u', 'origWidth': 410, 'origHeight': 409, 'width': 410, 'height': 409, 'widthPercent': 0.45, 'rescaleHeight': False, 'trialN': 30, 'loaded': True, 'loadedTime': 3063.7000000476837, 'positionName': 'LEFT', 'positionCoords': [511.6, 335.5], 'bid': 0.8200000000000001}, {'imgObject': {}, 'id': 'raisin bran w milk', 'src': '/static/foodstim60/raisin bran w milk.jpg', 'key': 'i', 'origWidth': 411, 'origHeight': 411, 'width': 411, 'height': 411, 'widthPercent': 0.45, 'rescaleHeight': False, 'trialN': 30, 'loaded': True, 'loadedTime': 2880.5, 'positionName': 'RIGHT', 'positionCoords': [998.4, 334.5], 'bid': 0.15}]",58384.200000047684,1669836911232,chicken nuggets2,raisin bran w milk,0.8200000000000001,0.15,-0.67,chicken nuggets2,1117.5999999046326,1116,1118.1999998092651,True,u,60017.700000047684,1633.5,1669836912864,1632,HRV,HRV_0262,2022-11-30 19:40:08
31,"[{'imgObject': {}, 'id': 'banana', 'src': '/static/foodstim60/banana.jpg', 'key': 'u', 'origWidth': 410, 'origHeight': 410, 'width': 410, 'height': 410, 'widthPercent': 0.45, 'rescaleHeight': False, 'trialN': 31, 'loaded': True, 'loadedTime': 3090.399999856949, 'positionName': 'LEFT', 'positionCoords': [511.6, 335], 'bid': 1.13}, {'imgObject': {}, 'id': 'cantaloupe', 'src': '/static/foodstim60/cantaloupe.jpg', 'key': 'i', 'origWidth': 409, 'origHeight': 409, 'width': 409, 'height': 409, 'widthPercent': 0.45, 'rescaleHeight': False, 'trialN': 31, 'loaded': True, 'loadedTime': 3002.2000000476837, 'positionName': 'RIGHT', 'positionCoords': [998.4, 335.5], 'bid': 0.14}]",60017.89999985695,1669836912864,banana,cantaloupe,1.13,0.14,-0.9899999999999999,banana,1708.5,1709,1709.3000001907349,True,u,62236.89999985695,2219.0,1669836915083,2219,HRV,HRV_0262,2022-11-30 19:40:08
32,"[{'imgObject': {}, 'id': 'orange slices', 'src': '/static/foodstim60/orange slices.jpg', 'key': 'u', 'origWidth': 409, 'origHeight': 410, 'width': 409, 'height': 410, 'widthPercent': 0.45, 'rescaleHeight': False, 'trialN': 32, 'loaded': True, 'loadedTime': 2898, 'positionName': 'LEFT', 'positionCoords': [512.6, 335], 'bid': 7.57}, {'imgObject': {}, 'id': 'yogurt no spoon', 'src': '/static/foodstim60/yogurt no spoon.jpg', 'key': 'i', 'origWidth': 411, 'origHeight': 410, 'width': 411, 'height': 410, 'widthPercent': 0.45, 'rescaleHeight': False, 'trialN': 32, 'loaded': True, 'loadedTime': 2850.2000000476837, 'positionName': 'RIGHT', 'positionCoords': [998.4, 335], 'bid': 6.84}]",62237.09999990463,1669836915083,orange slices,yogurt no spoon,7.57,6.84,-0.7300000000000004,orange slices,1673.2999999523163,1674,1674.1000001430511,True,u,64425.0,2187.9000000953674,1669836917271,2188,HRV,HRV_0262,2022-11-30 19:40:08
33,"[{'imgObject': {}, 'id': 'hashbrowns', 'src': '/static/foodstim60/hashbrowns.jpg', 'key': 'u', 'origWidth': 411, 'origHeight': 410, 'width': 411, 'height': 410, 'widthPercent': 0.45, 'rescaleHeight': False, 'trialN': 33, 'loaded': True, 'loadedTime': 2311.899999856949, 'positionName': 'LEFT', 'positionCoords': [510.6, 335], 'bid': 0}, {'imgObject': {}, 'id': 'cantaloupe', 'src': '/static/foodstim60/cantaloupe.jpg', 'key': 'i', 'origWidth': 409, 'origHeight': 409, 'width': 409, 'height': 409, 'widthPercent': 0.45, 'rescaleHeight': False, 'trialN': 33, 'loaded': True, 'loadedTime': 3032.0999999046326, 'positionName': 'RIGHT', 'positionCoords': [998.4, 335.5], 'bid': 0.14}]",64425.299999952316,1669836917271,hashbrowns,cantaloupe,0.0,0.14,0.14,hashbrowns,1469.0,1470,1469.4000000953674,True,u,66412.59999990463,1987.2999999523163,1669836919259,1988,HRV,HRV_0262,2022-11-30 19:40:08
34,"[{'imgObject': {}, 'id': 'luckycharms', 'src': '/static/foodstim60/luckycharms.jpg', 'key': 'u', 'origWidth': 410, 'origHeight': 409, 'width': 410, 'height': 409, 'widthPercent': 0.45, 'rescaleHeight': False, 'trialN': 34, 'loaded': True, 'loadedTime': 3116.7000000476837, 'positionName': 'LEFT', 'positionCoords': [511.6, 335.5], 'bid': 3.17}, {'imgObject': {}, 'id': 'chickenfingers', 'src': '/static/foodstim60/chickenfingers.jpg', 'key': 'i', 'origWidth': 410, 'origHeight': 410, 'width': 410, 'height': 410, 'widthPercent': 0.45, 'rescaleHeight': False, 'trialN': 34, 'loaded': True, 'loadedTime': 3121, 'positionName': 'RIGHT', 'positionCoords': [998.4, 335], 'bid': 6.8500000000000005}]",66412.79999995232,1669836919259,luckycharms,chickenfingers,3.17,6.8500000000000005,3.6800000000000006,chickenfingers,1426.0,1427,1426.9000000953674,True,i,68347.0,1934.2000000476837,1669836921193,1934,HRV,HRV_0262,2022-11-30 19:40:08
35,"[{'imgObject': {}, 'id': 'bagel and cc', 'src': '/static/foodstim60/bagel and cc.jpg', 'key': 'u', 'origWidth': 410, 'origHeight': 410, 'width': 410, 'height': 410, 'widthPercent': 0.45, 'rescaleHeight': False, 'trialN': 35, 'loaded': True, 'loadedTime': 2303.399999856949, 'positionName': 'LEFT', 'positionCoords': [511.6, 335], 'bid': 3.35}, {'imgObject': {}, 'id': 'ice cream sundae 002', 'src': '/static/foodstim60/ice cream sundae 002.jpg', 'key': 'i', 'origWidth': 409, 'origHeight': 409, 'width': 409, 'height': 409, 'widthPercent': 0.45, 'rescaleHeight': False, 'trialN': 35, 'loaded': True, 'loadedTime': 2478.2000000476837, 'positionName': 'RIGHT', 'positionCoords': [998.4, 335.5], 'bid': 4.88}]",68347.20000004768,1669836921193,bagel and cc,ice cream sundae 002,3.35,4.88,1.5299999999999998,ice cream sundae 002,1714.8999998569489,1716,1715.2999999523163,True,i,70568.09999990463,2220.899999856949,1669836923414,2221,HRV,HRV_0262,2022-11-30 19:40:08
36,"[{'imgObject': {}, 'id': 'salad w chicken', 'src': '/static/foodstim60/salad w chicken.jpg', 'key': 'u', 'origWidth': 411, 'origHeight': 411, 'width': 411, 'height': 411, 'widthPercent': 0.45, 'rescaleHeight': False, 'trialN': 36, 'loaded': True, 'loadedTime': 3154.399999856949, 'positionName': 'LEFT', 'positionCoords': [510.6, 334.5], 'bid': 9.43}, {'imgObject': {}, 'id': 'mashed potato', 'src': '/static/foodstim60/mashed potato.jpg', 'key': 'i', 'origWidth': 409, 'origHeight': 409, 'width': 409, 'height': 409, 'widthPercent': 0.45, 'rescaleHeight': False, 'trialN': 36, 'loaded': True, 'loadedTime': 2323.399999856949, 'positionName': 'RIGHT', 'positionCoords': [998.4, 335.5], 'bid': 4.9}]",70568.39999985695,1669836923414,salad w chicken,mashed potato,9.43,4.9,-4.529999999999999,salad w chicken,1582.1000001430511,1583,1582.9000000953674,True,u,72665.59999990463,2097.2000000476837,1669836925512,2098,HRV,HRV_0262,2022-11-30 19:40:08
37,"[{'imgObject': {}, 'id': 'turkey sandwich', 'src': '/static/foodstim60/turkey sandwich.jpg', 'key': 'u', 'origWidth': 409, 'origHeight': 409, 'width': 409, 'height': 409, 'widthPercent': 0.45, 'rescaleHeight': False, 'trialN': 37, 'loaded': True, 'loadedTime': 2542.0999999046326, 'positionName': 'LEFT', 'positionCoords': [512.6, 335.5], 'bid': 9.37}, {'imgObject': {}, 'id': 'burrito', 'src': '/static/foodstim60/burrito.jpg', 'key': 'i', 'origWidth': 410, 'origHeight': 410, 'width': 410, 'height': 410, 'widthPercent': 0.45, 'rescaleHeight': False, 'trialN': 37, 'loaded': True, 'loadedTime': 3177.0999999046326, 'positionName': 'RIGHT', 'positionCoords': [998.4, 335], 'bid': 5.8100000000000005}]",72665.89999985695,1669836925512,turkey sandwich,burrito,9.37,5.8100000000000005,-3.5599999999999987,turkey sandwich,772.8000001907349,773,773.5,True,u,73953.09999990463,1287.2000000476837,1669836926799,1287,HRV,HRV_0262,2022-11-30 19:40:08
38,"[{'imgObject': {}, 'id': 'banana', 'src': '/static/foodstim60/banana.jpg', 'key': 'u', 'origWidth': 410, 'origHeight': 410, 'width': 410, 'height': 410, 'widthPercent': 0.45, 'rescaleHeight': False, 'trialN': 38, 'loaded': True, 'loadedTime': 3090.7000000476837, 'positionName': 'LEFT', 'positionCoords': [511.6, 335], 'bid': 1.13}, {'imgObject': {}, 'id': 'yogurt no spoon', 'src': '/static/foodstim60/yogurt no spoon.jpg', 'key': 'i', 'origWidth': 411, 'origHeight': 410, 'width': 411, 'height': 410, 'widthPercent': 0.45, 'rescaleHeight': False, 'trialN': 38, 'loaded': True, 'loadedTime': 2827.5, 'positionName': 'RIGHT', 'positionCoords': [998.4, 335], 'bid': 6.84}]",73953.5,1669836926800,banana,yogurt no spoon,1.13,6.84,5.71,yogurt no spoon,1557.2000000476837,1558,1558.0,True,i,76019.0,2065.5,1669836928865,2065,HRV,HRV_0262,2022-11-30 19:40:08
39,"[{'imgObject': {}, 'id': 'baked potato', 'src': '/static/foodstim60/baked potato.jpg', 'key': 'u', 'origWidth': 409, 'origHeight': 410, 'width': 409, 'height': 410, 'widthPercent': 0.45, 'rescaleHeight': False, 'trialN': 39, 'loaded': True, 'loadedTime': 2633.2000000476837, 'positionName': 'LEFT', 'positionCoords': [512.6, 335], 'bid': 5.11}, {'imgObject': {}, 'id': 'apple slices', 'src': '/static/foodstim60/apple slices.jpg', 'key': 'i', 'origWidth': 409, 'origHeight': 410, 'width': 409, 'height': 410, 'widthPercent': 0.45, 'rescaleHeight': False, 'trialN': 39, 'loaded': True, 'loadedTime': 3208.7000000476837, 'positionName': 'RIGHT', 'positionCoords': [998.4, 335], 'bid': 5.01}]",76019.20000004768,1669836928865,baked potato,apple slices,5.11,5.01,-0.10000000000000053,apple slices,1683.5999999046326,1685,1684.2999999523163,True,i,78209.09999990463,2189.899999856949,1669836931055,2190,HRV,HRV_0262,2022-11-30 19:40:08
40,"[{'imgObject': {}, 'id': 'granola w milk', 'src': '/static/foodstim60/granola w milk.jpg', 'key': 'u', 'origWidth': 410, 'origHeight': 410, 'width': 410, 'height': 410, 'widthPercent': 0.45, 'rescaleHeight': False, 'trialN': 40, 'loaded': True, 'loadedTime': 3221.5, 'positionName': 'LEFT', 'positionCoords': [511.6, 335], 'bid': 0.13}, {'imgObject': {}, 'id': 'hotdog w must', 'src': '/static/foodstim60/hotdog w must.jpg', 'key': 'i', 'origWidth': 409, 'origHeight': 409, 'width': 409, 'height': 409, 'widthPercent': 0.45, 'rescaleHeight': False, 'trialN': 40, 'loaded': True, 'loadedTime': 3249.7999999523163, 'positionName': 'RIGHT', 'positionCoords': [998.4, 335.5], 'bid': 1.81}]",78209.29999995232,1669836931055,granola w milk,hotdog w must,0.13,1.81,1.6800000000000002,hotdog w must,1509.7000000476837,1511,1510.2000000476837,True,i,80235.29999995232,2026.0,1669836933081,2026,HRV,HRV_0262,2022-11-30 19:40:08
41,"[{'imgObject': {}, 'id': 'sweetpotato', 'src': '/static/foodstim60/sweetpotato.jpg', 'key': 'u', 'origWidth': 410, 'origHeight': 410, 'width': 410, 'height': 410, 'widthPercent': 0.45, 'rescaleHeight': False, 'trialN': 41, 'loaded': True, 'loadedTime': 3252.7000000476837, 'positionName': 'LEFT', 'positionCoords': [511.6, 335], 'bid': 0.28}, {'imgObject': {}, 'id': 'omelette', 'src': '/static/foodstim60/omelette.jpg', 'key': 'i', 'origWidth': 410, 'origHeight': 409, 'width': 410, 'height': 409, 'widthPercent': 0.45, 'rescaleHeight': False, 'trialN': 41, 'loaded': True, 'loadedTime': 2640.5999999046326, 'positionName': 'RIGHT', 'positionCoords': [998.4, 335.5], 'bid': 1.62}]",80235.39999985695,1669836933082,sweetpotato,omelette,0.28,1.62,1.34,omelette,1451.4000000953674,1452,1452.3000001907349,True,i,82191.59999990463,1956.2000000476837,1669836935038,1956,HRV,HRV_0262,2022-11-30 19:40:08
42,"[{'imgObject': {}, 'id': 'bagel and cc', 'src': '/static/foodstim60/bagel and cc.jpg', 'key': 'u', 'origWidth': 410, 'origHeight': 410, 'width': 410, 'height': 410, 'widthPercent': 0.45, 'rescaleHeight': False, 'trialN': 42, 'loaded': True, 'loadedTime': 2302.2999999523163, 'positionName': 'LEFT', 'positionCoords': [511.6, 335], 'bid': 3.35}, {'imgObject': {}, 'id': 'bagel plain', 'src': '/static/foodstim60/bagel plain.jpg', 'key': 'i', 'origWidth': 410, 'origHeight': 410, 'width': 410, 'height': 410, 'widthPercent': 0.45, 'rescaleHeight': False, 'trialN': 42, 'loaded': True, 'loadedTime': 3253.399999856949, 'positionName': 'RIGHT', 'positionCoords': [998.4, 335], 'bid': 2.18}]",82191.70000004768,1669836935038,bagel and cc,bagel plain,3.35,2.18,-1.17,bagel and cc,1342.7999999523163,1343,1343.5,True,u,84043.29999995232,1851.5999999046326,1669836936890,1852,HRV,HRV_0262,2022-11-30 19:40:08
43,"[{'imgObject': {}, 'id': 'fruitsalad', 'src': '/static/foodstim60/fruitsalad.jpg', 'key': 'u', 'origWidth': 410, 'origHeight': 410, 'width': 410, 'height': 410, 'widthPercent': 0.45, 'rescaleHeight': False, 'trialN': 43, 'loaded': True, 'loadedTime': 3280.5999999046326, 'positionName': 'LEFT', 'positionCoords': [511.6, 335], 'bid': 8.81}, {'imgObject': {}, 'id': 'turkey sandwich', 'src': '/static/foodstim60/turkey sandwich.jpg', 'key': 'i', 'origWidth': 409, 'origHeight': 409, 'width': 409, 'height': 409, 'widthPercent': 0.45, 'rescaleHeight': False, 'trialN': 43, 'loaded': True, 'loadedTime': 2570.899999856949, 'positionName': 'RIGHT', 'positionCoords': [998.4, 335.5], 'bid': 9.37}]",84043.70000004768,1669836936890,fruitsalad,turkey sandwich,8.81,9.37,0.5599999999999987,turkey sandwich,1579.0,1579,1579.5,True,i,86129.59999990463,2085.899999856949,1669836938976,2086,HRV,HRV_0262,2022-11-30 19:40:08
44,"[{'imgObject': {}, 'id': 'turkeysandwich', 'src': '/static/foodstim60/turkeysandwich.jpg', 'key': 'u', 'origWidth': 409, 'origHeight': 409, 'width': 409, 'height': 409, 'widthPercent': 0.45, 'rescaleHeight': False, 'trialN': 44, 'loaded': True, 'loadedTime': 2418.7999999523163, 'positionName': 'LEFT', 'positionCoords': [512.6, 335.5], 'bid': 7.92}, {'imgObject': {}, 'id': 'Grapes', 'src': '/static/foodstim60/Grapes.jpg', 'key': 'i', 'origWidth': 411, 'origHeight': 411, 'width': 411, 'height': 411, 'widthPercent': 0.45, 'rescaleHeight': False, 'trialN': 44, 'loaded': True, 'loadedTime': 3284, 'positionName': 'RIGHT', 'positionCoords': [998.4, 334.5], 'bid': 8.67}]",86129.79999995232,1669836938976,turkeysandwich,Grapes,7.92,8.67,0.75,Grapes,1533.0,1533,1533.4000000953674,True,i,88179.59999990463,2049.7999999523163,1669836941026,2050,HRV,HRV_0262,2022-11-30 19:40:08
45,"[{'imgObject': {}, 'id': 'sushi w_condiments', 'src': '/static/foodstim60/sushi w_condiments.jpg', 'key': 'u', 'origWidth': 410, 'origHeight': 410, 'width': 410, 'height': 410, 'widthPercent': 0.45, 'rescaleHeight': False, 'trialN': 45, 'loaded': True, 'loadedTime': 2696.5999999046326, 'positionName': 'LEFT', 'positionCoords': [511.6, 335], 'bid': 0.14}, {'imgObject': {}, 'id': 'lox', 'src': '/static/foodstim60/lox.jpg', 'key': 'i', 'origWidth': 410, 'origHeight': 411, 'width': 410, 'height': 411, 'widthPercent': 0.45, 'rescaleHeight': False, 'trialN': 45, 'loaded': True, 'loadedTime': 2498.7999999523163, 'positionName': 'RIGHT', 'positionCoords': [998.4, 334.5], 'bid': 0}]",88179.79999995232,1669836941026,sushi w_condiments,lox,0.14,0.0,-0.14,lox,1579.5,1580,1580.4000000953674,True,i,90266.70000004768,2086.9000000953674,1669836943113,2087,HRV,HRV_0262,2022-11-30 19:40:08
46,"[{'imgObject': {}, 'id': 'strawberries', 'src': '/static/foodstim60/strawberries.jpg', 'key': 'u', 'origWidth': 410, 'origHeight': 410, 'width': 410, 'height': 410, 'widthPercent': 0.45, 'rescaleHeight': False, 'trialN': 46, 'loaded': True, 'loadedTime': 2628.5, 'positionName': 'LEFT', 'positionCoords': [511.6, 335], 'bid': 8.71}, {'imgObject': {}, 'id': 'grilled chicken strips', 'src': '/static/foodstim60/grilled chicken strips.jpg', 'key': 'i', 'origWidth': 410, 'origHeight': 411, 'width': 410, 'height': 411, 'widthPercent': 0.45, 'rescaleHeight': False, 'trialN': 46, 'loaded': True, 'loadedTime': 2989.2000000476837, 'positionName': 'RIGHT', 'positionCoords': [998.4, 334.5], 'bid': 8.4}]",90266.89999985695,1669836943113,strawberries,grilled chicken strips,8.71,8.4,-0.3100000000000005,grilled chicken strips,1692.1000001430511,1693,1692.5,True,i,92471.29999995232,2204.4000000953674,1669836945317,2204,HRV,HRV_0262,2022-11-30 19:40:08
47,"[{'imgObject': {}, 'id': 'apple slices', 'src': '/static/foodstim60/apple slices.jpg', 'key': 'u', 'origWidth': 409, 'origHeight': 410, 'width': 409, 'height': 410, 'widthPercent': 0.45, 'rescaleHeight': False, 'trialN': 47, 'loaded': True, 'loadedTime': 3196.899999856949, 'positionName': 'LEFT', 'positionCoords': [512.6, 335], 'bid': 5.01}, {'imgObject': {}, 'id': 'olives', 'src': '/static/foodstim60/olives.jpg', 'key': 'i', 'origWidth': 410, 'origHeight': 410, 'width': 410, 'height': 410, 'widthPercent': 0.45, 'rescaleHeight': False, 'trialN': 47, 'loaded': True, 'loadedTime': 3286.7999999523163, 'positionName': 'RIGHT', 'positionCoords': [998.4, 335], 'bid': 0.18}]",92471.59999990463,1669836945318,apple slices,olives,5.01,0.18,-4.83,apple slices,943.4000000953674,943,943.7999999523163,True,u,93919.09999990463,1447.5,1669836946765,1447,HRV,HRV_0262,2022-11-30 19:40:08
48,"[{'imgObject': {}, 'id': 'popsicles', 'src': '/static/foodstim60/popsicles.jpg', 'key': 'u', 'origWidth': 410, 'origHeight': 410, 'width': 410, 'height': 410, 'widthPercent': 0.45, 'rescaleHeight': False, 'trialN': 48, 'loaded': True, 'loadedTime': 3178.5999999046326, 'positionName': 'LEFT', 'positionCoords': [511.6, 335], 'bid': 3.12}, {'imgObject': {}, 'id': 'Tribe humus pita', 'src': '/static/foodstim60/Tribe humus pita.jpg', 'key': 'i', 'origWidth': 411, 'origHeight': 411, 'width': 411, 'height': 411, 'widthPercent': 0.45, 'rescaleHeight': False, 'trialN': 48, 'loaded': True, 'loadedTime': 3306.899999856949, 'positionName': 'RIGHT', 'positionCoords': [998.4, 334.5], 'bid': 0.05}]",93919.39999985695,1669836946766,popsicles,Tribe humus pita,3.12,0.05,-3.0700000000000003,popsicles,1559.7000000476837,1560,1560.5,True,u,95985.0,2065.600000143051,1669836948831,2065,HRV,HRV_0262,2022-11-30 19:40:08
49,"[{'imgObject': {}, 'id': 'hotdog w must', 'src': '/static/foodstim60/hotdog w must.jpg', 'key': 'u', 'origWidth': 409, 'origHeight': 409, 'width': 409, 'height': 409, 'widthPercent': 0.45, 'rescaleHeight': False, 'trialN': 49, 'loaded': True, 'loadedTime': 3226.7000000476837, 'positionName': 'LEFT', 'positionCoords': [512.6, 335.5], 'bid': 1.81}, {'imgObject': {}, 'id': 'rigatoni and sauce', 'src': '/static/foodstim60/rigatoni and sauce.jpg', 'key': 'i', 'origWidth': 410, 'origHeight': 411, 'width': 410, 'height': 411, 'widthPercent': 0.45, 'rescaleHeight': False, 'trialN': 49, 'loaded': True, 'loadedTime': 3309.7000000476837, 'positionName': 'RIGHT', 'positionCoords': [998.4, 334.5], 'bid': 0.67}]",95985.59999990463,1669836948832,hotdog w must,rigatoni and sauce,1.81,0.67,-1.1400000000000001,rigatoni and sauce,1365.5,1366,1365.9000000953674,True,i,97858.59999990463,1873.0,1669836950705,1873,HRV,HRV_0262,2022-11-30 19:40:08
50,"[{'imgObject': {}, 'id': 'turkeysandwich', 'src': '/static/foodstim60/turkeysandwich.jpg', 'key': 'u', 'origWidth': 409, 'origHeight': 409, 'width': 409, 'height': 409, 'widthPercent': 0.45, 'rescaleHeight': False, 'trialN': 50, 'loaded': True, 'loadedTime': 2435.5, 'positionName': 'LEFT', 'positionCoords': [512.6, 335.5], 'bid': 7.92}, {'imgObject': {}, 'id': 'grilled chicken strips', 'src': '/static/foodstim60/grilled chicken strips.jpg', 'key': 'i', 'origWidth': 410, 'origHeight': 411, 'width': 410, 'height': 411, 'widthPercent': 0.45, 'rescaleHeight': False, 'trialN': 50, 'loaded': True, 'loadedTime': 2993.399999856949, 'positionName': 'RIGHT', 'positionCoords': [998.4, 334.5], 'bid': 8.4}]",97858.89999985695,1669836950705,turkeysandwich,grilled chicken strips,7.92,8.4,0.4800000000000004,turkeysandwich,900.2000000476837,901,900.9000000953674,True,u,99278.39999985695,1419.5,1669836952125,1420,HRV,HRV_0262,2022-11-30 19:40:08
51,"[{'imgObject': {}, 'id': 'grilled chicken strips', 'src': '/static/foodstim60/grilled chicken strips.jpg', 'key': 'u', 'origWidth': 410, 'origHeight': 411, 'width': 410, 'height': 411, 'widthPercent': 0.45, 'rescaleHeight': False, 'trialN': 51, 'loaded': True, 'loadedTime': 3000.399999856949, 'positionName': 'LEFT', 'positionCoords': [511.6, 334.5], 'bid': 8.4}, {'imgObject': {}, 'id': 'tacos', 'src': '/static/foodstim60/tacos.jpg', 'key': 'i', 'origWidth': 411, 'origHeight': 411, 'width': 411, 'height': 411, 'widthPercent': 0.45, 'rescaleHeight': False, 'trialN': 51, 'loaded': True, 'loadedTime': 3312, 'positionName': 'RIGHT', 'positionCoords': [998.4, 334.5], 'bid': 9.86}]",99278.70000004768,1669836952125,grilled chicken strips,tacos,8.4,9.86,1.459999999999999,tacos,1048.7999999523163,1049,1049.2999999523163,True,i,100849.70000004768,1571.0,1669836953696,1571,HRV,HRV_0262,2022-11-30 19:40:08
52,"[{'imgObject': {}, 'id': 'ice cream sundae 002', 'src': '/static/foodstim60/ice cream sundae 002.jpg', 'key': 'u', 'origWidth': 409, 'origHeight': 409, 'width': 409, 'height': 409, 'widthPercent': 0.45, 'rescaleHeight': False, 'trialN': 52, 'loaded': True, 'loadedTime': 2474.2999999523163, 'positionName': 'LEFT', 'positionCoords': [512.6, 335.5], 'bid': 4.88}, {'imgObject': {}, 'id': 'froot loops w milk', 'src': '/static/foodstim60/froot loops w milk.jpg', 'key': 'i', 'origWidth': 410, 'origHeight': 410, 'width': 410, 'height': 410, 'widthPercent': 0.45, 'rescaleHeight': False, 'trialN': 52, 'loaded': True, 'loadedTime': 2650.2999999523163, 'positionName': 'RIGHT', 'positionCoords': [998.4, 335], 'bid': 4.5600000000000005}]",100850.0,1669836953696,ice cream sundae 002,froot loops w milk,4.88,4.5600000000000005,-0.3199999999999994,ice cream sundae 002,2165.2000000476837,2166,2165.899999856949,True,u,103533.29999995232,2683.2999999523163,1669836956379,2683,HRV,HRV_0262,2022-11-30 19:40:08
53,"[{'imgObject': {}, 'id': 'burrito', 'src': '/static/foodstim60/burrito.jpg', 'key': 'u', 'origWidth': 410, 'origHeight': 410, 'width': 410, 'height': 410, 'widthPercent': 0.45, 'rescaleHeight': False, 'trialN': 53, 'loaded': True, 'loadedTime': 3155.2000000476837, 'positionName': 'LEFT', 'positionCoords': [511.6, 335], 'bid': 5.8100000000000005}, {'imgObject': {}, 'id': 'pear', 'src': '/static/foodstim60/pear.jpg', 'key': 'i', 'origWidth': 411, 'origHeight': 410, 'width': 411, 'height': 410, 'widthPercent': 0.45, 'rescaleHeight': False, 'trialN': 53, 'loaded': True, 'loadedTime': 3315.399999856949, 'positionName': 'RIGHT', 'positionCoords': [998.4, 335], 'bid': 5.76}]",103533.59999990463,1669836956380,burrito,pear,5.8100000000000005,5.76,-0.05000000000000071,pear,2121.7000000476837,2122,2122.4000000953674,True,i,106170.39999985695,2636.7999999523163,1669836959017,2637,HRV,HRV_0262,2022-11-30 19:40:08
54,"[{'imgObject': {}, 'id': 'orange slices', 'src': '/static/foodstim60/orange slices.jpg', 'key': 'u', 'origWidth': 409, 'origHeight': 410, 'width': 409, 'height': 410, 'widthPercent': 0.45, 'rescaleHeight': False, 'trialN': 54, 'loaded': True, 'loadedTime': 2901.2999999523163, 'positionName': 'LEFT', 'positionCoords': [512.6, 335], 'bid': 7.57}, {'imgObject': {}, 'id': 'turkey sandwich', 'src': '/static/foodstim60/turkey sandwich.jpg', 'key': 'i', 'origWidth': 409, 'origHeight': 409, 'width': 409, 'height': 409, 'widthPercent': 0.45, 'rescaleHeight': False, 'trialN': 54, 'loaded': True, 'loadedTime': 2568.7000000476837, 'positionName': 'RIGHT', 'positionCoords': [998.4, 335.5], 'bid': 9.37}]",106170.79999995232,1669836959017,orange slices,turkey sandwich,7.57,9.37,1.799999999999999,turkey sandwich,956.5,957,956.9000000953674,True,i,107645.70000004768,1474.9000000953674,1669836960492,1475,HRV,HRV_0262,2022-11-30 19:40:08
55,"[{'imgObject': {}, 'id': 'granola w milk', 'src': '/static/foodstim60/granola w milk.jpg', 'key': 'u', 'origWidth': 410, 'origHeight': 410, 'width': 410, 'height': 410, 'widthPercent': 0.45, 'rescaleHeight': False, 'trialN': 55, 'loaded': True, 'loadedTime': 3218, 'positionName': 'LEFT', 'positionCoords': [511.6, 335], 'bid': 0.13}, {'imgObject': {}, 'id': 'sushi w_condiments', 'src': '/static/foodstim60/sushi w_condiments.jpg', 'key': 'i', 'origWidth': 410, 'origHeight': 410, 'width': 410, 'height': 410, 'widthPercent': 0.45, 'rescaleHeight': False, 'trialN': 55, 'loaded': True, 'loadedTime': 2695, 'positionName': 'RIGHT', 'positionCoords': [998.4, 335], 'bid': 0.14}]",107645.89999985695,1669836960492,granola w milk,sushi w_condiments,0.13,0.14,0.010000000000000009,granola w milk,1489.5,1490,1490.2000000476837,True,u,109650.59999990463,2004.7000000476837,1669836962497,2005,HRV,HRV_0262,2022-11-30 19:40:08
56,"[{'imgObject': {}, 'id': 'strawberries', 'src': '/static/foodstim60/strawberries.jpg', 'key': 'u', 'origWidth': 410, 'origHeight': 410, 'width': 410, 'height': 410, 'widthPercent': 0.45, 'rescaleHeight': False, 'trialN': 56, 'loaded': True, 'loadedTime': 2608.2000000476837, 'positionName': 'LEFT', 'positionCoords': [511.6, 335], 'bid': 8.71}, {'imgObject': {}, 'id': 'veggieswithdip', 'src': '/static/foodstim60/veggieswithdip.jpg', 'key': 'i', 'origWidth': 409, 'origHeight': 409, 'width': 409, 'height': 409, 'widthPercent': 0.45, 'rescaleHeight': False, 'trialN': 56, 'loaded': True, 'loadedTime': 2252.5, 'positionName': 'RIGHT', 'positionCoords': [998.4, 335.5], 'bid': 2.05}]",109650.89999985695,1669836962497,strawberries,veggieswithdip,8.71,2.05,-6.660000000000001,strawberries,1300.5,1301,1301.0,True,u,111468.89999985695,1818.0,1669836964315,1818,HRV,HRV_0262,2022-11-30 19:40:08
57,"[{'imgObject': {}, 'id': 'apple slices', 'src': '/static/foodstim60/apple slices.jpg', 'key': 'u', 'origWidth': 409, 'origHeight': 410, 'width': 409, 'height': 410, 'widthPercent': 0.45, 'rescaleHeight': False, 'trialN': 57, 'loaded': True, 'loadedTime': 3186.0999999046326, 'positionName': 'LEFT', 'positionCoords': [512.6, 335], 'bid': 5.01}, {'imgObject': {}, 'id': 'pear', 'src': '/static/foodstim60/pear.jpg', 'key': 'i', 'origWidth': 411, 'origHeight': 410, 'width': 411, 'height': 410, 'widthPercent': 0.45, 'rescaleHeight': False, 'trialN': 57, 'loaded': True, 'loadedTime': 3316.399999856949, 'positionName': 'RIGHT', 'positionCoords': [998.4, 335], 'bid': 5.76}]",111469.20000004768,1669836964315,apple slices,pear,5.01,5.76,0.75,apple slices,2026.0999999046326,2027,2026.6999998092651,True,u,114011.5,2542.2999999523163,1669836966858,2543,HRV,HRV_0262,2022-11-30 19:40:08
58,"[{'imgObject': {}, 'id': 'raisin bran w milk', 'src': '/static/foodstim60/raisin bran w milk.jpg', 'key': 'u', 'origWidth': 411, 'origHeight': 411, 'width': 411, 'height': 411, 'widthPercent': 0.45, 'rescaleHeight': False, 'trialN': 58, 'loaded': True, 'loadedTime': 2882.2000000476837, 'positionName': 'LEFT', 'positionCoords': [510.6, 334.5], 'bid': 0.15}, {'imgObject': {}, 'id': 'shreddedwheatwithmilk', 'src': '/static/foodstim60/shreddedwheatwithmilk.jpg', 'key': 'i', 'origWidth': 410, 'origHeight': 410, 'width': 410, 'height': 410, 'widthPercent': 0.45, 'rescaleHeight': False, 'trialN': 58, 'loaded': True, 'loadedTime': 2379, 'positionName': 'RIGHT', 'positionCoords': [998.4, 335], 'bid': 0}]",114011.70000004768,1669836966858,raisin bran w milk,shreddedwheatwithmilk,0.15,0.0,-0.15,shreddedwheatwithmilk,1235.5999999046326,1236,1236.3999998569489,True,i,115763.0,1751.2999999523163,1669836968609,1751,HRV,HRV_0262,2022-11-30 19:40:08
59,"[{'imgObject': {}, 'id': 'ice cream sundae 002', 'src': '/static/foodstim60/ice cream sundae 002.jpg', 'key': 'u', 'origWidth': 409, 'origHeight': 409, 'width': 409, 'height': 409, 'widthPercent': 0.45, 'rescaleHeight': False, 'trialN': 59, 'loaded': True, 'loadedTime': 2477, 'positionName': 'LEFT', 'positionCoords': [512.6, 335.5], 'bid': 4.88}, {'imgObject': {}, 'id': 'raisin bran w milk', 'src': '/static/foodstim60/raisin bran w milk.jpg', 'key': 'i', 'origWidth': 411, 'origHeight': 411, 'width': 411, 'height': 411, 'widthPercent': 0.45, 'rescaleHeight': False, 'trialN': 59, 'loaded': True, 'loadedTime': 2879, 'positionName': 'RIGHT', 'positionCoords': [998.4, 334.5], 'bid': 0.15}]",115763.29999995232,1669836968609,ice cream sundae 002,raisin bran w milk,4.88,0.15,-4.7299999999999995,ice cream sundae 002,1340.5,1342,1341.0999999046326,True,u,117619.79999995232,1856.5,1669836970466,1857,HRV,HRV_0262,2022-11-30 19:40:08
60,"[{'imgObject': {}, 'id': 'fruitsalad', 'src': '/static/foodstim60/fruitsalad.jpg', 'key': 'u', 'origWidth': 410, 'origHeight': 410, 'width': 410, 'height': 410, 'widthPercent': 0.45, 'rescaleHeight': False, 'trialN': 60, 'loaded': True, 'loadedTime': 3280.7999999523163, 'positionName': 'LEFT', 'positionCoords': [511.6, 335], 'bid': 8.81}, {'imgObject': {}, 'id': 'salad w chicken', 'src': '/static/foodstim60/salad w chicken.jpg', 'key': 'i', 'origWidth': 411, 'origHeight': 411, 'width': 411, 'height': 411, 'widthPercent': 0.45, 'rescaleHeight': False, 'trialN': 60, 'loaded': True, 'loadedTime': 3121.899999856949, 'positionName': 'RIGHT', 'positionCoords': [998.4, 334.5], 'bid': 9.43}]",117620.29999995232,1669836970466,fruitsalad,salad w chicken,8.81,9.43,0.6199999999999992,salad w chicken,1202.7999999523163,1204,1203.2000000476837,True,i,119326.39999985695,1706.0999999046326,1669836972173,1707,HRV,HRV_0262,2022-11-30 19:40:08
61,"[{'imgObject': {}, 'id': 'avocado', 'src': '/static/foodstim60/avocado.jpg', 'key': 'u', 'origWidth': 409, 'origHeight': 409, 'width': 409, 'height': 409, 'widthPercent': 0.45, 'rescaleHeight': False, 'trialN': 61, 'loaded': True, 'loadedTime': 2320, 'positionName': 'LEFT', 'positionCoords': [512.6, 335.5], 'bid': 0.14}, {'imgObject': {}, 'id': 'sushi w_condiments', 'src': '/static/foodstim60/sushi w_condiments.jpg', 'key': 'i', 'origWidth': 410, 'origHeight': 410, 'width': 410, 'height': 410, 'widthPercent': 0.45, 'rescaleHeight': False, 'trialN': 61, 'loaded': True, 'loadedTime': 2691.399999856949, 'positionName': 'RIGHT', 'positionCoords': [998.4, 335], 'bid': 0.14}]",119326.79999995232,1669836972173,avocado,sushi w_condiments,0.14,0.14,0.0,avocado,1713.2999999523163,1715,1713.9000000953674,True,u,121551.09999990463,2224.2999999523163,1669836974399,2226,HRV,HRV_0262,2022-11-30 19:40:08
62,"[{'imgObject': {}, 'id': 'turkeysandwich', 'src': '/static/foodstim60/turkeysandwich.jpg', 'key': 'u', 'origWidth': 409, 'origHeight': 409, 'width': 409, 'height': 409, 'widthPercent': 0.45, 'rescaleHeight': False, 'trialN': 62, 'loaded': True, 'loadedTime': 2453.5, 'positionName': 'LEFT', 'positionCoords': [512.6, 335.5], 'bid': 7.92}, {'imgObject': {}, 'id': 'kiwi', 'src': '/static/foodstim60/kiwi.jpg', 'key': 'i', 'origWidth': 410, 'origHeight': 410, 'width': 410, 'height': 410, 'widthPercent': 0.45, 'rescaleHeight': False, 'trialN': 62, 'loaded': True, 'loadedTime': 2275.7000000476837, 'positionName': 'RIGHT', 'positionCoords': [998.4, 335], 'bid': 3.43}]",121551.29999995232,1669836974399,turkeysandwich,kiwi,7.92,3.43,-4.49,turkeysandwich,960.2999999523163,961,961.0,True,u,123017.70000004768,1466.4000000953674,1669836975865,1466,HRV,HRV_0262,2022-11-30 19:40:08
63,"[{'imgObject': {}, 'id': 'froot loops w milk', 'src': '/static/foodstim60/froot loops w milk.jpg', 'key': 'u', 'origWidth': 410, 'origHeight': 410, 'width': 410, 'height': 410, 'widthPercent': 0.45, 'rescaleHeight': False, 'trialN': 63, 'loaded': True, 'loadedTime': 2652, 'positionName': 'LEFT', 'positionCoords': [511.6, 335], 'bid': 4.5600000000000005}, {'imgObject': {}, 'id': 'strawberries', 'src': '/static/foodstim60/strawberries.jpg', 'key': 'i', 'origWidth': 410, 'origHeight': 410, 'width': 410, 'height': 410, 'widthPercent': 0.45, 'rescaleHeight': False, 'trialN': 63, 'loaded': True, 'loadedTime': 2606.7999999523163, 'positionName': 'RIGHT', 'positionCoords': [998.4, 335], 'bid': 8.71}]",123018.0,1669836975866,froot loops w milk,strawberries,4.5600000000000005,8.71,4.15,strawberries,1213.3999998569489,1214,1213.8999998569489,True,i,124736.70000004768,1718.7000000476837,1669836977584,1718,HRV,HRV_0262,2022-11-30 19:40:08
64,"[{'imgObject': {}, 'id': 'mac & cheese', 'src': '/static/foodstim60/mac & cheese.jpg', 'key': 'u', 'origWidth': 410, 'origHeight': 410, 'width': 410, 'height': 410, 'widthPercent': 0.45, 'rescaleHeight': False, 'trialN': 64, 'loaded': True, 'loadedTime': 2705.399999856949, 'positionName': 'LEFT', 'positionCoords': [511.6, 335], 'bid': 2.41}, {'imgObject': {}, 'id': 'tacos', 'src': '/static/foodstim60/tacos.jpg', 'key': 'i', 'origWidth': 411, 'origHeight': 411, 'width': 411, 'height': 411, 'widthPercent': 0.45, 'rescaleHeight': False, 'trialN': 64, 'loaded': True, 'loadedTime': 3312.399999856949, 'positionName': 'RIGHT', 'positionCoords': [998.4, 334.5], 'bid': 9.86}]",124736.89999985695,1669836977585,mac & cheese,tacos,2.41,9.86,7.449999999999999,tacos,806.7000000476837,807,807.3000001907349,True,i,126055.29999995232,1318.4000000953674,1669836978903,1318,HRV,HRV_0262,2022-11-30 19:40:08
65,"[{'imgObject': {}, 'id': 'chicken nuggets2', 'src': '/static/foodstim60/chicken nuggets2.jpg', 'key': 'u', 'origWidth': 410, 'origHeight': 409, 'width': 410, 'height': 409, 'widthPercent': 0.45, 'rescaleHeight': False, 'trialN': 65, 'loaded': True, 'loadedTime': 3061.7999999523163, 'positionName': 'LEFT', 'positionCoords': [511.6, 335.5], 'bid': 0.8200000000000001}, {'imgObject': {}, 'id': 'steak', 'src': '/static/foodstim60/steak.jpg', 'key': 'i', 'origWidth': 410, 'origHeight': 410, 'width': 410, 'height': 410, 'widthPercent': 0.45, 'rescaleHeight': False, 'trialN': 65, 'loaded': True, 'loadedTime': 2979.2000000476837, 'positionName': 'RIGHT', 'positionCoords': [998.4, 335], 'bid': 5.97}]",126055.5,1669836978903,chicken nuggets2,steak,0.8200000000000001,5.97,5.1499999999999995,steak,1464.5999999046326,1465,1465.2999999523163,True,i,128024.09999990463,1968.5999999046326,1669836980872,1969,HRV,HRV_0262,2022-11-30 19:40:08
66,"[{'imgObject': {}, 'id': 'turkeysandwich', 'src': '/static/foodstim60/turkeysandwich.jpg', 'key': 'u', 'origWidth': 409, 'origHeight': 409, 'width': 409, 'height': 409, 'widthPercent': 0.45, 'rescaleHeight': False, 'trialN': 66, 'loaded': True, 'loadedTime': 2435.0999999046326, 'positionName': 'LEFT', 'positionCoords': [512.6, 335.5], 'bid': 7.92}, {'imgObject': {}, 'id': 'salad w chicken', 'src': '/static/foodstim60/salad w chicken.jpg', 'key': 'i', 'origWidth': 411, 'origHeight': 411, 'width': 411, 'height': 411, 'widthPercent': 0.45, 'rescaleHeight': False, 'trialN': 66, 'loaded': True, 'loadedTime': 3150.899999856949, 'positionName': 'RIGHT', 'positionCoords': [998.4, 334.5], 'bid': 9.43}]",128024.5,1669836980872,turkeysandwich,salad w chicken,7.92,9.43,1.5099999999999998,turkeysandwich,1190.8999998569489,1191,1191.2999999523163,True,u,129727.5,1703.0,1669836982575,1703,HRV,HRV_0262,2022-11-30 19:40:08
67,"[{'imgObject': {}, 'id': 'corn cob', 'src': '/static/foodstim60/corn cob.jpg', 'key': 'u', 'origWidth': 411, 'origHeight': 411, 'width': 411, 'height': 411, 'widthPercent': 0.45, 'rescaleHeight': False, 'trialN': 67, 'loaded': True, 'loadedTime': 3320.899999856949, 'positionName': 'LEFT', 'positionCoords': [510.6, 334.5], 'bid': 3.88}, {'imgObject': {}, 'id': 'kiwi', 'src': '/static/foodstim60/kiwi.jpg', 'key': 'i', 'origWidth': 410, 'origHeight': 410, 'width': 410, 'height': 410, 'widthPercent': 0.45, 'rescaleHeight': False, 'trialN': 67, 'loaded': True, 'loadedTime': 2277.2000000476837, 'positionName': 'RIGHT', 'positionCoords': [998.4, 335], 'bid': 3.43}]",129727.70000004768,1669836982575,corn cob,kiwi,3.88,3.43,-0.44999999999999973,corn cob,1400.0999999046326,1401,1400.5,True,u,131642.59999990463,1914.8999998569489,1669836984490,1915,HRV,HRV_0262,2022-11-30 19:40:08
68,"[{'imgObject': {}, 'id': 'veggieswithdip', 'src': '/static/foodstim60/veggieswithdip.jpg', 'key': 'u', 'origWidth': 409, 'origHeight': 409, 'width': 409, 'height': 409, 'widthPercent': 0.45, 'rescaleHeight': False, 'trialN': 68, 'loaded': True, 'loadedTime': 2251.2999999523163, 'positionName': 'LEFT', 'positionCoords': [512.6, 335.5], 'bid': 2.05}, {'imgObject': {}, 'id': 'sushi w_condiments', 'src': '/static/foodstim60/sushi w_condiments.jpg', 'key': 'i', 'origWidth': 410, 'origHeight': 410, 'width': 410, 'height': 410, 'widthPercent': 0.45, 'rescaleHeight': False, 'trialN': 68, 'loaded': True, 'loadedTime': 2696.0999999046326, 'positionName': 'RIGHT', 'positionCoords': [998.4, 335], 'bid': 0.14}]",131642.79999995232,1669836984490,veggieswithdip,sushi w_condiments,2.05,0.14,-1.9099999999999997,veggieswithdip,2517.2000000476837,2518,2517.7999999523163,True,u,134670.89999985695,3028.0999999046326,1669836987518,3028,HRV,HRV_0262,2022-11-30 19:40:08
69,"[{'imgObject': {}, 'id': 'rigatoni and sauce', 'src': '/static/foodstim60/rigatoni and sauce.jpg', 'key': 'u', 'origWidth': 410, 'origHeight': 411, 'width': 410, 'height': 411, 'widthPercent': 0.45, 'rescaleHeight': False, 'trialN': 69, 'loaded': True, 'loadedTime': 3309.5, 'positionName': 'LEFT', 'positionCoords': [511.6, 334.5], 'bid': 0.67}, {'imgObject': {}, 'id': 'banana', 'src': '/static/foodstim60/banana.jpg', 'key': 'i', 'origWidth': 410, 'origHeight': 410, 'width': 410, 'height': 410, 'widthPercent': 0.45, 'rescaleHeight': False, 'trialN': 69, 'loaded': True, 'loadedTime': 3092, 'positionName': 'RIGHT', 'positionCoords': [998.4, 335], 'bid': 1.13}]",134671.0,1669836987519,rigatoni and sauce,banana,0.67,1.13,0.45999999999999985,rigatoni and sauce,1864.8999998569489,1865,1865.5999999046326,True,u,137047.79999995232,2376.7999999523163,1669836989895,2376,HRV,HRV_0262,2022-11-30 19:40:08
70,"[{'imgObject': {}, 'id': 'blueberries', 'src': '/static/foodstim60/blueberries.jpg', 'key': 'u', 'origWidth': 411, 'origHeight': 411, 'width': 411, 'height': 411, 'widthPercent': 0.45, 'rescaleHeight': False, 'trialN': 70, 'loaded': True, 'loadedTime': 2587.399999856949, 'positionName': 'LEFT', 'positionCoords': [510.6, 334.5], 'bid': 2.2}, {'imgObject': {}, 'id': 'kiwi', 'src': '/static/foodstim60/kiwi.jpg', 'key': 'i', 'origWidth': 410, 'origHeight': 410, 'width': 410, 'height': 410, 'widthPercent': 0.45, 'rescaleHeight': False, 'trialN': 70, 'loaded': True, 'loadedTime': 2277.5999999046326, 'positionName': 'RIGHT', 'positionCoords': [998.4, 335], 'bid': 3.43}]",137048.09999990463,1669836989896,blueberries,kiwi,2.2,3.43,1.23,blueberries,1151.7999999523163,1152,1152.5,True,u,138713.79999995232,1665.7000000476837,1669836991561,1665,HRV,HRV_0262,2022-11-30 19:40:08
71,"[{'imgObject': {}, 'id': 'edamame', 'src': '/static/foodstim60/edamame.jpg', 'key': 'u', 'origWidth': 409, 'origHeight': 410, 'width': 409, 'height': 410, 'widthPercent': 0.45, 'rescaleHeight': False, 'trialN': 71, 'loaded': True, 'loadedTime': 2823.5, 'positionName': 'LEFT', 'positionCoords': [512.6, 335], 'bid': 0.05}, {'imgObject': {}, 'id': 'luckycharms', 'src': '/static/foodstim60/luckycharms.jpg', 'key': 'i', 'origWidth': 410, 'origHeight': 409, 'width': 410, 'height': 409, 'widthPercent': 0.45, 'rescaleHeight': False, 'trialN': 71, 'loaded': True, 'loadedTime': 3118.899999856949, 'positionName': 'RIGHT', 'positionCoords': [998.4, 335.5], 'bid': 3.17}]",138714.0,1669836991562,edamame,luckycharms,0.05,3.17,3.12,luckycharms,965.8999998569489,966,966.7999999523163,True,i,140201.39999985695,1487.3999998569489,1669836993049,1487,HRV,HRV_0262,2022-11-30 19:40:08
72,"[{'imgObject': {}, 'id': 'salad w chicken', 'src': '/static/foodstim60/salad w chicken.jpg', 'key': 'u', 'origWidth': 411, 'origHeight': 411, 'width': 411, 'height': 411, 'widthPercent': 0.45, 'rescaleHeight': False, 'trialN': 72, 'loaded': True, 'loadedTime': 3154.7000000476837, 'positionName': 'LEFT', 'positionCoords': [510.6, 334.5], 'bid': 9.43}, {'imgObject': {}, 'id': 'cheerios', 'src': '/static/foodstim60/cheerios.jpg', 'key': 'i', 'origWidth': 409, 'origHeight': 410, 'width': 409, 'height': 410, 'widthPercent': 0.45, 'rescaleHeight': False, 'trialN': 72, 'loaded': True, 'loadedTime': 2746.7000000476837, 'positionName': 'RIGHT', 'positionCoords': [998.4, 335], 'bid': 2.39}]",140201.70000004768,1669836993049,salad w chicken,cheerios,9.43,2.39,-7.039999999999999,salad w chicken,966.5,967,966.8999998569489,True,u,141682.5,1480.7999999523163,1669836994530,1481,HRV,HRV_0262,2022-11-30 19:40:08
73,"[{'imgObject': {}, 'id': 'granola w milk', 'src': '/static/foodstim60/granola w milk.jpg', 'key': 'u', 'origWidth': 410, 'origHeight': 410, 'width': 410, 'height': 410, 'widthPercent': 0.45, 'rescaleHeight': False, 'trialN': 73, 'loaded': True, 'loadedTime': 3221.2000000476837, 'positionName': 'LEFT', 'positionCoords': [511.6, 335], 'bid': 0.13}, {'imgObject': {}, 'id': 'cantaloupe', 'src': '/static/foodstim60/cantaloupe.jpg', 'key': 'i', 'origWidth': 409, 'origHeight': 409, 'width': 409, 'height': 409, 'widthPercent': 0.45, 'rescaleHeight': False, 'trialN': 73, 'loaded': True, 'loadedTime': 3011.0999999046326, 'positionName': 'RIGHT', 'positionCoords': [998.4, 335.5], 'bid': 0.14}]",141682.70000004768,1669836994530,granola w milk,cantaloupe,0.13,0.14,0.010000000000000009,cantaloupe,1429.1999998092651,1430,1429.5999999046326,True,i,143628.79999995232,1946.0999999046326,1669836996476,1946,HRV,HRV_0262,2022-11-30 19:40:08
74,"[{'imgObject': {}, 'id': 'mac & cheese', 'src': '/static/foodstim60/mac & cheese.jpg', 'key': 'u', 'origWidth': 410, 'origHeight': 410, 'width': 410, 'height': 410, 'widthPercent': 0.45, 'rescaleHeight': False, 'trialN': 74, 'loaded': True, 'loadedTime': 2708.399999856949, 'positionName': 'LEFT', 'positionCoords': [511.6, 335], 'bid': 2.41}, {'imgObject': {}, 'id': 'olives', 'src': '/static/foodstim60/olives.jpg', 'key': 'i', 'origWidth': 410, 'origHeight': 410, 'width': 410, 'height': 410, 'widthPercent': 0.45, 'rescaleHeight': False, 'trialN': 74, 'loaded': True, 'loadedTime': 3284.5999999046326, 'positionName': 'RIGHT', 'positionCoords': [998.4, 335], 'bid': 0.18}]",143629.0,1669836996477,mac & cheese,olives,2.41,0.18,-2.23,mac & cheese,915.0999999046326,915,915.7000000476837,True,u,145047.59999990463,1418.5999999046326,1669836997895,1418,HRV,HRV_0262,2022-11-30 19:40:08
75,"[{'imgObject': {}, 'id': 'hotdog w must', 'src': '/static/foodstim60/hotdog w must.jpg', 'key': 'u', 'origWidth': 409, 'origHeight': 409, 'width': 409, 'height': 409, 'widthPercent': 0.45, 'rescaleHeight': False, 'trialN': 75, 'loaded': True, 'loadedTime': 3250.399999856949, 'positionName': 'LEFT', 'positionCoords': [512.6, 335.5], 'bid': 1.81}, {'imgObject': {}, 'id': 'omelette', 'src': '/static/foodstim60/omelette.jpg', 'key': 'i', 'origWidth': 410, 'origHeight': 409, 'width': 410, 'height': 409, 'widthPercent': 0.45, 'rescaleHeight': False, 'trialN': 75, 'loaded': True, 'loadedTime': 2642.5, 'positionName': 'RIGHT', 'positionCoords': [998.4, 335.5], 'bid': 1.62}]",145048.0,1669836997896,hotdog w must,omelette,1.81,1.62,-0.18999999999999995,hotdog w must,2200.2000000476837,2200,2200.7999999523163,True,u,147754.59999990463,2706.5999999046326,1669837000602,2706,HRV,HRV_0262,2022-11-30 19:40:08
76,"[{'imgObject': {}, 'id': 'yogurt no spoon', 'src': '/static/foodstim60/yogurt no spoon.jpg', 'key': 'u', 'origWidth': 411, 'origHeight': 410, 'width': 411, 'height': 410, 'widthPercent': 0.45, 'rescaleHeight': False, 'trialN': 76, 'loaded': True, 'loadedTime': 2851.7000000476837, 'positionName': 'LEFT', 'positionCoords': [510.6, 335], 'bid': 6.84}, {'imgObject': {}, 'id': 'popsicles', 'src': '/static/foodstim60/popsicles.jpg', 'key': 'i', 'origWidth': 410, 'origHeight': 410, 'width': 410, 'height': 410, 'widthPercent': 0.45, 'rescaleHeight': False, 'trialN': 76, 'loaded': True, 'loadedTime': 3179.0999999046326, 'positionName': 'RIGHT', 'positionCoords': [998.4, 335], 'bid': 3.12}]",147754.89999985695,1669837000602,yogurt no spoon,popsicles,6.84,3.12,-3.7199999999999998,yogurt no spoon,1316.8000001907349,1318,1317.4000000953674,True,u,149576.09999990463,1821.2000000476837,1669837002424,1822,HRV,HRV_0262,2022-11-30 19:40:08
77,"[{'imgObject': {}, 'id': 'rigatoni', 'src': '/static/foodstim60/rigatoni.jpg', 'key': 'u', 'origWidth': 411, 'origHeight': 411, 'width': 411, 'height': 411, 'widthPercent': 0.45, 'rescaleHeight': False, 'trialN': 77, 'loaded': True, 'loadedTime': 2892.899999856949, 'positionName': 'LEFT', 'positionCoords': [510.6, 334.5], 'bid': 1.58}, {'imgObject': {}, 'id': 'roastedpotatoes', 'src': '/static/foodstim60/roastedpotatoes.jpg', 'key': 'i', 'origWidth': 409, 'origHeight': 410, 'width': 409, 'height': 410, 'widthPercent': 0.45, 'rescaleHeight': False, 'trialN': 77, 'loaded': True, 'loadedTime': 2242.5, 'positionName': 'RIGHT', 'positionCoords': [998.4, 335], 'bid': 2.96}]",149576.5,1669837002424,rigatoni,roastedpotatoes,1.58,2.96,1.38,roastedpotatoes,1311.2999999523163,1312,1311.5999999046326,True,i,151395.5,1819.0,1669837004243,1819,HRV,HRV_0262,2022-11-30 19:40:08
78,"[{'imgObject': {}, 'id': 'cherry tomato', 'src': '/static/foodstim60/cherry tomato.jpg', 'key': 'u', 'origWidth': 410, 'origHeight': 410, 'width': 410, 'height': 410, 'widthPercent': 0.45, 'rescaleHeight': False, 'trialN': 78, 'loaded': True, 'loadedTime': 2941.399999856949, 'positionName': 'LEFT', 'positionCoords': [511.6, 335], 'bid': 3.09}, {'imgObject': {}, 'id': 'cherries', 'src': '/static/foodstim60/cherries.jpg', 'key': 'i', 'origWidth': 410, 'origHeight': 411, 'width': 410, 'height': 411, 'widthPercent': 0.45, 'rescaleHeight': False, 'trialN': 78, 'loaded': True, 'loadedTime': 2415.5999999046326, 'positionName': 'RIGHT', 'positionCoords': [998.4, 334.5], 'bid': 2.97}]",151395.89999985695,1669837004243,cherry tomato,cherries,3.09,2.97,-0.11999999999999966,cherry tomato,1708.7000000476837,1710,1709.4000000953674,True,u,153615.89999985695,2220.0,1669837006463,2220,HRV,HRV_0262,2022-11-30 19:40:08
79,"[{'imgObject': {}, 'id': 'fruitsalad', 'src': '/static/foodstim60/fruitsalad.jpg', 'key': 'u', 'origWidth': 410, 'origHeight': 410, 'width': 410, 'height': 410, 'widthPercent': 0.45, 'rescaleHeight': False, 'trialN': 79, 'loaded': True, 'loadedTime': 3277.7000000476837, 'positionName': 'LEFT', 'positionCoords': [511.6, 335], 'bid': 8.81}, {'imgObject': {}, 'id': 'pear', 'src': '/static/foodstim60/pear.jpg', 'key': 'i', 'origWidth': 411, 'origHeight': 410, 'width': 411, 'height': 410, 'widthPercent': 0.45, 'rescaleHeight': False, 'trialN': 79, 'loaded': True, 'loadedTime': 3313.7000000476837, 'positionName': 'RIGHT', 'positionCoords': [998.4, 335], 'bid': 5.76}]",153616.09999990463,1669837006464,fruitsalad,pear,8.81,5.76,-3.0500000000000007,fruitsalad,1264.0,1264,1264.5,True,u,155387.0,1770.9000000953674,1669837008235,1771,HRV,HRV_0262,2022-11-30 19:40:08
80,"[{'imgObject': {}, 'id': 'sweetpotato', 'src': '/static/foodstim60/sweetpotato.jpg', 'key': 'u', 'origWidth': 410, 'origHeight': 410, 'width': 410, 'height': 410, 'widthPercent': 0.45, 'rescaleHeight': False, 'trialN': 80, 'loaded': True, 'loadedTime': 3253.0999999046326, 'positionName': 'LEFT', 'positionCoords': [511.6, 335], 'bid': 0.28}, {'imgObject': {}, 'id': 'rigatoni and sauce', 'src': '/static/foodstim60/rigatoni and sauce.jpg', 'key': 'i', 'origWidth': 410, 'origHeight': 411, 'width': 410, 'height': 411, 'widthPercent': 0.45, 'rescaleHeight': False, 'trialN': 80, 'loaded': True, 'loadedTime': 3309, 'positionName': 'RIGHT', 'positionCoords': [998.4, 334.5], 'bid': 0.67}]",155387.20000004768,1669837008235,sweetpotato,rigatoni and sauce,0.28,0.67,0.39,rigatoni and sauce,1373.0,1373,1373.3999998569489,True,i,157275.89999985695,1888.6999998092651,1669837010123,1888,HRV,HRV_0262,2022-11-30 19:40:08
81,"[{'imgObject': {}, 'id': 'cheerios', 'src': '/static/foodstim60/cheerios.jpg', 'key': 'u', 'origWidth': 409, 'origHeight': 410, 'width': 409, 'height': 410, 'widthPercent': 0.45, 'rescaleHeight': False, 'trialN': 81, 'loaded': True, 'loadedTime': 2718.5999999046326, 'positionName': 'LEFT', 'positionCoords': [512.6, 335], 'bid': 2.39}, {'imgObject': {}, 'id': 'popsicles', 'src': '/static/foodstim60/popsicles.jpg', 'key': 'i', 'origWidth': 410, 'origHeight': 410, 'width': 410, 'height': 410, 'widthPercent': 0.45, 'rescaleHeight': False, 'trialN': 81, 'loaded': True, 'loadedTime': 3179.399999856949, 'positionName': 'RIGHT', 'positionCoords': [998.4, 335], 'bid': 3.12}]",157276.0,1669837010124,cheerios,popsicles,2.39,3.12,0.73,cheerios,1604.3999998569489,1605,1605.2000000476837,True,u,159395.39999985695,2119.399999856949,1669837012243,2119,HRV,HRV_0262,2022-11-30 19:40:08
82,"[{'imgObject': {}, 'id': 'cheerios', 'src': '/static/foodstim60/cheerios.jpg', 'key': 'u', 'origWidth': 409, 'origHeight': 410, 'width': 409, 'height': 410, 'widthPercent': 0.45, 'rescaleHeight': False, 'trialN': 82, 'loaded': True, 'loadedTime': 2741.899999856949, 'positionName': 'LEFT', 'positionCoords': [512.6, 335], 'bid': 2.39}, {'imgObject': {}, 'id': 'raspberries', 'src': '/static/foodstim60/raspberries.jpg', 'key': 'i', 'origWidth': 411, 'origHeight': 411, 'width': 411, 'height': 411, 'widthPercent': 0.45, 'rescaleHeight': False, 'trialN': 82, 'loaded': True, 'loadedTime': 3323.399999856949, 'positionName': 'RIGHT', 'positionCoords': [998.4, 334.5], 'bid': 3.82}]",159395.59999990463,1669837012243,cheerios,raspberries,2.39,3.82,1.4299999999999997,raspberries,1052.7999999523163,1054,1053.5,True,i,160962.29999995232,1566.7000000476837,1669837013810,1567,HRV,HRV_0262,2022-11-30 19:40:08
83,"[{'imgObject': {}, 'id': 'steak', 'src': '/static/foodstim60/steak.jpg', 'key': 'u', 'origWidth': 410, 'origHeight': 410, 'width': 410, 'height': 410, 'widthPercent': 0.45, 'rescaleHeight': False, 'trialN': 83, 'loaded': True, 'loadedTime': 2982.5999999046326, 'positionName': 'LEFT', 'positionCoords': [511.6, 335], 'bid': 5.97}, {'imgObject': {}, 'id': 'Grapes', 'src': '/static/foodstim60/Grapes.jpg', 'key': 'i', 'origWidth': 411, 'origHeight': 411, 'width': 411, 'height': 411, 'widthPercent': 0.45, 'rescaleHeight': False, 'trialN': 83, 'loaded': True, 'loadedTime': 3283.5999999046326, 'positionName': 'RIGHT', 'positionCoords': [998.4, 334.5], 'bid': 8.67}]",160962.5,1669837013810,steak,Grapes,5.97,8.67,2.7,steak,1590.0,1591,1590.5999999046326,True,u,163073.70000004768,2111.2000000476837,1669837015921,2111,HRV,HRV_0262,2022-11-30 19:40:08
84,"[{'imgObject': {}, 'id': 'cherries', 'src': '/static/foodstim60/cherries.jpg', 'key': 'u', 'origWidth': 410, 'origHeight': 411, 'width': 410, 'height': 411, 'widthPercent': 0.45, 'rescaleHeight': False, 'trialN': 84, 'loaded': True, 'loadedTime': 2398.5999999046326, 'positionName': 'LEFT', 'positionCoords': [511.6, 334.5], 'bid': 2.97}, {'imgObject': {}, 'id': 'bagel plain', 'src': '/static/foodstim60/bagel plain.jpg', 'key': 'i', 'origWidth': 410, 'origHeight': 410, 'width': 410, 'height': 410, 'widthPercent': 0.45, 'rescaleHeight': False, 'trialN': 84, 'loaded': True, 'loadedTime': 3255.5999999046326, 'positionName': 'RIGHT', 'positionCoords': [998.4, 335], 'bid': 2.18}]",163074.0,1669837015922,cherries,bagel plain,2.97,2.18,-0.79,bagel plain,1654.7999999523163,1655,1655.7000000476837,True,i,165242.89999985695,2168.899999856949,1669837018091,2169,HRV,HRV_0262,2022-11-30 19:40:08
85,"[{'imgObject': {}, 'id': 'corn cob', 'src': '/static/foodstim60/corn cob.jpg', 'key': 'u', 'origWidth': 411, 'origHeight': 411, 'width': 411, 'height': 411, 'widthPercent': 0.45, 'rescaleHeight': False, 'trialN': 85, 'loaded': True, 'loadedTime': 3319.2000000476837, 'positionName': 'LEFT', 'positionCoords': [510.6, 334.5], 'bid': 3.88}, {'imgObject': {}, 'id': 'raspberries', 'src': '/static/foodstim60/raspberries.jpg', 'key': 'i', 'origWidth': 411, 'origHeight': 411, 'width': 411, 'height': 411, 'widthPercent': 0.45, 'rescaleHeight': False, 'trialN': 85, 'loaded': True, 'loadedTime': 3323, 'positionName': 'RIGHT', 'positionCoords': [998.4, 334.5], 'bid': 3.82}]",165243.29999995232,1669837018091,corn cob,raspberries,3.88,3.82,-0.06000000000000005,raspberries,1413.2000000476837,1414,1413.9000000953674,True,i,167169.0,1925.7000000476837,1669837020017,1926,HRV,HRV_0262,2022-11-30 19:40:08
86,"[{'imgObject': {}, 'id': 'orange slices', 'src': '/static/foodstim60/orange slices.jpg', 'key': 'u', 'origWidth': 409, 'origHeight': 410, 'width': 409, 'height': 410, 'widthPercent': 0.45, 'rescaleHeight': False, 'trialN': 86, 'loaded': True, 'loadedTime': 2898.5999999046326, 'positionName': 'LEFT', 'positionCoords': [512.6, 335], 'bid': 7.57}, {'imgObject': {}, 'id': 'chickenfingers', 'src': '/static/foodstim60/chickenfingers.jpg', 'key': 'i', 'origWidth': 410, 'origHeight': 410, 'width': 410, 'height': 410, 'widthPercent': 0.45, 'rescaleHeight': False, 'trialN': 86, 'loaded': True, 'loadedTime': 3120.899999856949, 'positionName': 'RIGHT', 'positionCoords': [998.4, 335], 'bid': 6.8500000000000005}]",167169.39999985695,1669837020017,orange slices,chickenfingers,7.57,6.8500000000000005,-0.7199999999999998,chickenfingers,911.5,912,912.2000000476837,True,i,168587.09999990463,1417.7000000476837,1669837021435,1418,HRV,HRV_0262,2022-11-30 19:40:08
87,"[{'imgObject': {}, 'id': 'eggs', 'src': '/static/foodstim60/eggs.jpg', 'key': 'u', 'origWidth': 409, 'origHeight': 409, 'width': 409, 'height': 409, 'widthPercent': 0.45, 'rescaleHeight': False, 'trialN': 87, 'loaded': True, 'loadedTime': 3038, 'positionName': 'LEFT', 'positionCoords': [512.6, 335.5], 'bid': 1.97}, {'imgObject': {}, 'id': 'popsicles', 'src': '/static/foodstim60/popsicles.jpg', 'key': 'i', 'origWidth': 410, 'origHeight': 410, 'width': 410, 'height': 410, 'widthPercent': 0.45, 'rescaleHeight': False, 'trialN': 87, 'loaded': True, 'loadedTime': 3177.399999856949, 'positionName': 'RIGHT', 'positionCoords': [998.4, 335], 'bid': 3.12}]",168587.39999985695,1669837021435,eggs,popsicles,1.97,3.12,1.1500000000000001,eggs,1397.2000000476837,1398,1397.7000000476837,True,u,170491.89999985695,1904.5,1669837023340,1905,HRV,HRV_0262,2022-11-30 19:40:08
88,"[{'imgObject': {}, 'id': 'mango', 'src': '/static/foodstim60/mango.jpg', 'key': 'u', 'origWidth': 411, 'origHeight': 411, 'width': 411, 'height': 411, 'widthPercent': 0.45, 'rescaleHeight': False, 'trialN': 88, 'loaded': True, 'loadedTime': 2520.2000000476837, 'positionName': 'LEFT', 'positionCoords': [510.6, 334.5], 'bid': 2.96}, {'imgObject': {}, 'id': 'cheerios', 'src': '/static/foodstim60/cheerios.jpg', 'key': 'i', 'origWidth': 409, 'origHeight': 410, 'width': 409, 'height': 410, 'widthPercent': 0.45, 'rescaleHeight': False, 'trialN': 88, 'loaded': True, 'loadedTime': 2768.2000000476837, 'positionName': 'RIGHT', 'positionCoords': [998.4, 335], 'bid': 2.39}]",170492.20000004768,1669837023340,mango,cheerios,2.96,2.39,-0.5699999999999998,cheerios,1356.5,1357,1357.2999999523163,True,i,172358.5,1866.2999999523163,1669837025206,1866,HRV,HRV_0262,2022-11-30 19:40:08
89,"[{'imgObject': {}, 'id': 'strawberries', 'src': '/static/foodstim60/strawberries.jpg', 'key': 'u', 'origWidth': 410, 'origHeight': 410, 'width': 410, 'height': 410, 'widthPercent': 0.45, 'rescaleHeight': False, 'trialN': 89, 'loaded': True, 'loadedTime': 2625.399999856949, 'positionName': 'LEFT', 'positionCoords': [511.6, 335], 'bid': 8.71}, {'imgObject': {}, 'id': 'Grapes', 'src': '/static/foodstim60/Grapes.jpg', 'key': 'i', 'origWidth': 411, 'origHeight': 411, 'width': 411, 'height': 411, 'widthPercent': 0.45, 'rescaleHeight': False, 'trialN': 89, 'loaded': True, 'loadedTime': 3281, 'positionName': 'RIGHT', 'positionCoords': [998.4, 334.5], 'bid': 8.67}]",172358.89999985695,1669837025206,strawberries,Grapes,8.71,8.67,-0.040000000000000924,strawberries,2345.600000143051,2347,2346.2000000476837,True,u,175215.79999995232,2856.9000000953674,1669837028063,2857,HRV,HRV_0262,2022-11-30 19:40:08
90,"[{'imgObject': {}, 'id': 'fruitsalad', 'src': '/static/foodstim60/fruitsalad.jpg', 'key': 'u', 'origWidth': 410, 'origHeight': 410, 'width': 410, 'height': 410, 'widthPercent': 0.45, 'rescaleHeight': False, 'trialN': 90, 'loaded': True, 'loadedTime': 3280.399999856949, 'positionName': 'LEFT', 'positionCoords': [511.6, 335], 'bid': 8.81}, {'imgObject': {}, 'id': 'chickenfingers', 'src': '/static/foodstim60/chickenfingers.jpg', 'key': 'i', 'origWidth': 410, 'origHeight': 410, 'width': 410, 'height': 410, 'widthPercent': 0.45, 'rescaleHeight': False, 'trialN': 90, 'loaded': True, 'loadedTime': 3119, 'positionName': 'RIGHT', 'positionCoords': [998.4, 335], 'bid': 6.8500000000000005}]",178000.09999990463,1669837030848,fruitsalad,chickenfingers,8.81,6.8500000000000005,-1.96,chickenfingers,2912.5,2913,2913.100000143051,True,i,181428.20000004768,3428.100000143051,1669837034276,3428,HRV,HRV_0262,2022-11-30 19:40:08
91,"[{'imgObject': {}, 'id': 'froot loops w milk', 'src': '/static/foodstim60/froot loops w milk.jpg', 'key': 'u', 'origWidth': 410, 'origHeight': 410, 'width': 410, 'height': 410, 'widthPercent': 0.45, 'rescaleHeight': False, 'trialN': 91, 'loaded': True, 'loadedTime': 2657.2000000476837, 'positionName': 'LEFT', 'positionCoords': [511.6, 335], 'bid': 4.5600000000000005}, {'imgObject': {}, 'id': 'chickenfingers', 'src': '/static/foodstim60/chickenfingers.jpg', 'key': 'i', 'origWidth': 410, 'origHeight': 410, 'width': 410, 'height': 410, 'widthPercent': 0.45, 'rescaleHeight': False, 'trialN': 91, 'loaded': True, 'loadedTime': 3120.5, 'positionName': 'RIGHT', 'positionCoords': [998.4, 335], 'bid': 6.8500000000000005}]",181428.5,1669837034276,froot loops w milk,chickenfingers,4.5600000000000005,6.8500000000000005,2.29,chickenfingers,1316.3999998569489,1317,1317.0999999046326,True,i,183246.39999985695,1817.8999998569489,1669837036094,1818,HRV,HRV_0262,2022-11-30 19:40:08
92,"[{'imgObject': {}, 'id': 'Grapes', 'src': '/static/foodstim60/Grapes.jpg', 'key': 'u', 'origWidth': 411, 'origHeight': 411, 'width': 411, 'height': 411, 'widthPercent': 0.45, 'rescaleHeight': False, 'trialN': 92, 'loaded': True, 'loadedTime': 3282.899999856949, 'positionName': 'LEFT', 'positionCoords': [510.6, 334.5], 'bid': 8.67}, {'imgObject': {}, 'id': 'eggs', 'src': '/static/foodstim60/eggs.jpg', 'key': 'i', 'origWidth': 409, 'origHeight': 409, 'width': 409, 'height': 409, 'widthPercent': 0.45, 'rescaleHeight': False, 'trialN': 92, 'loaded': True, 'loadedTime': 3039.2999999523163, 'positionName': 'RIGHT', 'positionCoords': [998.4, 335.5], 'bid': 1.97}]",183246.79999995232,1669837036094,Grapes,eggs,8.67,1.97,-6.7,Grapes,1194.2000000476837,1195,1194.9000000953674,True,u,184948.89999985695,1702.0999999046326,1669837037797,1703,HRV,HRV_0262,2022-11-30 19:40:08
93,"[{'imgObject': {}, 'id': 'ice cream sundae 002', 'src': '/static/foodstim60/ice cream sundae 002.jpg', 'key': 'u', 'origWidth': 409, 'origHeight': 409, 'width': 409, 'height': 409, 'widthPercent': 0.45, 'rescaleHeight': False, 'trialN': 93, 'loaded': True, 'loadedTime': 2477.7999999523163, 'positionName': 'LEFT', 'positionCoords': [512.6, 335.5], 'bid': 4.88}, {'imgObject': {}, 'id': 'mashed potato', 'src': '/static/foodstim60/mashed potato.jpg', 'key': 'i', 'origWidth': 409, 'origHeight': 409, 'width': 409, 'height': 409, 'widthPercent': 0.45, 'rescaleHeight': False, 'trialN': 93, 'loaded': True, 'loadedTime': 2323, 'positionName': 'RIGHT', 'positionCoords': [998.4, 335.5], 'bid': 4.9}]",184949.20000004768,1669837037797,ice cream sundae 002,mashed potato,4.88,4.9,0.020000000000000462,mashed potato,1907.5,1908,1907.8999998569489,True,i,187365.09999990463,2415.899999856949,1669837040213,2416,HRV,HRV_0262,2022-11-30 19:40:08
94,"[{'imgObject': {}, 'id': 'ice cream sundae 002', 'src': '/static/foodstim60/ice cream sundae 002.jpg', 'key': 'u', 'origWidth': 409, 'origHeight': 409, 'width': 409, 'height': 409, 'widthPercent': 0.45, 'rescaleHeight': False, 'trialN': 94, 'loaded': True, 'loadedTime': 2478.5999999046326, 'positionName': 'LEFT', 'positionCoords': [512.6, 335.5], 'bid': 4.88}, {'imgObject': {}, 'id': 'turkey sandwich', 'src': '/static/foodstim60/turkey sandwich.jpg', 'key': 'i', 'origWidth': 409, 'origHeight': 409, 'width': 409, 'height': 409, 'widthPercent': 0.45, 'rescaleHeight': False, 'trialN': 94, 'loaded': True, 'loadedTime': 2540.5999999046326, 'positionName': 'RIGHT', 'positionCoords': [998.4, 335.5], 'bid': 9.37}]",187365.39999985695,1669837040213,ice cream sundae 002,turkey sandwich,4.88,9.37,4.489999999999999,turkey sandwich,979.9000000953674,981,980.7000000476837,True,i,188868.39999985695,1503.0,1669837041716,1503,HRV,HRV_0262,2022-11-30 19:40:08
95,"[{'imgObject': {}, 'id': 'blackbeanswithrice', 'src': '/static/foodstim60/blackbeanswithrice.jpg', 'key': 'u', 'origWidth': 410, 'origHeight': 410, 'width': 410, 'height': 410, 'widthPercent': 0.45, 'rescaleHeight': False, 'trialN': 95, 'loaded': True, 'loadedTime': 2770.5999999046326, 'positionName': 'LEFT', 'positionCoords': [511.6, 335], 'bid': 0.09}, {'imgObject': {}, 'id': 'bagel and cc', 'src': '/static/foodstim60/bagel and cc.jpg', 'key': 'i', 'origWidth': 410, 'origHeight': 410, 'width': 410, 'height': 410, 'widthPercent': 0.45, 'rescaleHeight': False, 'trialN': 95, 'loaded': True, 'loadedTime': 2306.0999999046326, 'positionName': 'RIGHT', 'positionCoords': [998.4, 335], 'bid': 3.35}]",188868.59999990463,1669837041716,blackbeanswithrice,bagel and cc,0.09,3.35,3.2600000000000002,bagel and cc,1276.4000000953674,1277,1277.0,True,i,190656.5,1787.9000000953674,1669837043504,1788,HRV,HRV_0262,2022-11-30 19:40:08
96,"[{'imgObject': {}, 'id': 'cherry tomato', 'src': '/static/foodstim60/cherry tomato.jpg', 'key': 'u', 'origWidth': 410, 'origHeight': 410, 'width': 410, 'height': 410, 'widthPercent': 0.45, 'rescaleHeight': False, 'trialN': 96, 'loaded': True, 'loadedTime': 2946.2000000476837, 'positionName': 'LEFT', 'positionCoords': [511.6, 335], 'bid': 3.09}, {'imgObject': {}, 'id': 'blueberries', 'src': '/static/foodstim60/blueberries.jpg', 'key': 'i', 'origWidth': 411, 'origHeight': 411, 'width': 411, 'height': 411, 'widthPercent': 0.45, 'rescaleHeight': False, 'trialN': 96, 'loaded': True, 'loadedTime': 2606.5, 'positionName': 'RIGHT', 'positionCoords': [998.4, 334.5], 'bid': 2.2}]",190656.70000004768,1669837043504,cherry tomato,blueberries,3.09,2.2,-0.8899999999999997,blueberries,1808.3999998569489,1809,1809.0,True,i,192977.59999990463,2320.899999856949,1669837045825,2321,HRV,HRV_0262,2022-11-30 19:40:08
97,"[{'imgObject': {}, 'id': 'luckycharms', 'src': '/static/foodstim60/luckycharms.jpg', 'key': 'u', 'origWidth': 410, 'origHeight': 409, 'width': 410, 'height': 409, 'widthPercent': 0.45, 'rescaleHeight': False, 'trialN': 97, 'loaded': True, 'loadedTime': 3117.2999999523163, 'positionName': 'LEFT', 'positionCoords': [511.6, 335.5], 'bid': 3.17}, {'imgObject': {}, 'id': 'mac & cheese', 'src': '/static/foodstim60/mac & cheese.jpg', 'key': 'i', 'origWidth': 410, 'origHeight': 410, 'width': 410, 'height': 410, 'widthPercent': 0.45, 'rescaleHeight': False, 'trialN': 97, 'loaded': True, 'loadedTime': 2714.7000000476837, 'positionName': 'RIGHT', 'positionCoords': [998.4, 335], 'bid': 2.41}]",192977.79999995232,1669837045826,luckycharms,mac & cheese,3.17,2.41,-0.7599999999999998,mac & cheese,1887.2999999523163,1887,1887.9000000953674,True,i,195381.09999990463,2403.2999999523163,1669837048229,2403,HRV,HRV_0262,2022-11-30 19:40:08
98,"[{'imgObject': {}, 'id': 'bagel plain', 'src': '/static/foodstim60/bagel plain.jpg', 'key': 'u', 'origWidth': 410, 'origHeight': 410, 'width': 410, 'height': 410, 'widthPercent': 0.45, 'rescaleHeight': False, 'trialN': 98, 'loaded': True, 'loadedTime': 3255.0999999046326, 'positionName': 'LEFT', 'positionCoords': [511.6, 335], 'bid': 2.18}, {'imgObject': {}, 'id': 'eggs', 'src': '/static/foodstim60/eggs.jpg', 'key': 'i', 'origWidth': 409, 'origHeight': 409, 'width': 409, 'height': 409, 'widthPercent': 0.45, 'rescaleHeight': False, 'trialN': 98, 'loaded': True, 'loadedTime': 3039.7999999523163, 'positionName': 'RIGHT', 'positionCoords': [998.4, 335.5], 'bid': 1.97}]",195381.20000004768,1669837048229,bagel plain,eggs,2.18,1.97,-0.2100000000000002,bagel plain,1964.0,1965,1964.7999999523163,True,u,197854.5,2473.2999999523163,1669837050702,2473,HRV,HRV_0262,2022-11-30 19:40:08
99,"[{'imgObject': {}, 'id': 'seaweed', 'src': '/static/foodstim60/seaweed.jpg', 'key': 'u', 'origWidth': 410, 'origHeight': 410, 'width': 410, 'height': 410, 'widthPercent': 0.45, 'rescaleHeight': False, 'trialN': 99, 'loaded': True, 'loadedTime': 2332, 'positionName': 'LEFT', 'positionCoords': [511.6, 335], 'bid': 0.17}, {'imgObject': {}, 'id': 'hashbrowns', 'src': '/static/foodstim60/hashbrowns.jpg', 'key': 'i', 'origWidth': 411, 'origHeight': 410, 'width': 411, 'height': 410, 'widthPercent': 0.45, 'rescaleHeight': False, 'trialN': 99, 'loaded': True, 'loadedTime': 2311.2000000476837, 'positionName': 'RIGHT', 'positionCoords': [998.4, 335], 'bid': 0}]",197854.70000004768,1669837050702,seaweed,hashbrowns,0.17,0.0,-0.17,hashbrowns,1594.7999999523163,1596,1595.5,True,i,199959.09999990463,2104.399999856949,1669837052807,2105,HRV,HRV_0262,2022-11-30 19:40:08
100,"[{'imgObject': {}, 'id': 'granola w milk', 'src': '/static/foodstim60/granola w milk.jpg', 'key': 'u', 'origWidth': 410, 'origHeight': 410, 'width': 410, 'height': 410, 'widthPercent': 0.45, 'rescaleHeight': False, 'trialN': 100, 'loaded': True, 'loadedTime': 3222.5, 'positionName': 'LEFT', 'positionCoords': [511.6, 335], 'bid': 0.13}, {'imgObject': {}, 'id': 'chicken nuggets2', 'src': '/static/foodstim60/chicken nuggets2.jpg', 'key': 'i', 'origWidth': 410, 'origHeight': 409, 'width': 410, 'height': 409, 'widthPercent': 0.45, 'rescaleHeight': False, 'trialN': 100, 'loaded': True, 'loadedTime': 3065.2000000476837, 'positionName': 'RIGHT', 'positionCoords': [998.4, 335.5], 'bid': 0.8200000000000001}]",199959.20000004768,1669837052807,granola w milk,chicken nuggets2,0.13,0.8200000000000001,0.6900000000000001,chicken nuggets2,1330.0,1331,1330.6999998092651,True,i,201791.70000004768,1832.5,1669837054639,1832,HRV,HRV_0262,2022-11-30 19:40:08
101,"[{'imgObject': {}, 'id': 'bagel plain', 'src': '/static/foodstim60/bagel plain.jpg', 'key': 'u', 'origWidth': 410, 'origHeight': 410, 'width': 410, 'height': 410, 'widthPercent': 0.45, 'rescaleHeight': False, 'trialN': 101, 'loaded': True, 'loadedTime': 3256.2000000476837, 'positionName': 'LEFT', 'positionCoords': [511.6, 335], 'bid': 2.18}, {'imgObject': {}, 'id': 'fruitsalad', 'src': '/static/foodstim60/fruitsalad.jpg', 'key': 'i', 'origWidth': 410, 'origHeight': 410, 'width': 410, 'height': 410, 'widthPercent': 0.45, 'rescaleHeight': False, 'trialN': 101, 'loaded': True, 'loadedTime': 3279.899999856949, 'positionName': 'RIGHT', 'positionCoords': [998.4, 335], 'bid': 8.81}]",201792.0,1669837054640,bagel plain,fruitsalad,2.18,8.81,6.630000000000001,fruitsalad,1393.3999998569489,1394,1394.0,True,i,203695.39999985695,1903.3999998569489,1669837056543,1903,HRV,HRV_0262,2022-11-30 19:40:08
102,"[{'imgObject': {}, 'id': 'pear', 'src': '/static/foodstim60/pear.jpg', 'key': 'u', 'origWidth': 411, 'origHeight': 410, 'width': 411, 'height': 410, 'widthPercent': 0.45, 'rescaleHeight': False, 'trialN': 102, 'loaded': True, 'loadedTime': 3315.899999856949, 'positionName': 'LEFT', 'positionCoords': [510.6, 335], 'bid': 5.76}, {'imgObject': {}, 'id': 'froot loops w milk', 'src': '/static/foodstim60/froot loops w milk.jpg', 'key': 'i', 'origWidth': 410, 'origHeight': 410, 'width': 410, 'height': 410, 'widthPercent': 0.45, 'rescaleHeight': False, 'trialN': 102, 'loaded': True, 'loadedTime': 2652.2000000476837, 'positionName': 'RIGHT', 'positionCoords': [998.4, 335], 'bid': 4.5600000000000005}]",203695.59999990463,1669837056543,pear,froot loops w milk,5.76,4.5600000000000005,-1.1999999999999993,froot loops w milk,2249.600000143051,2250,2250.100000143051,True,i,206452.5,2756.9000000953674,1669837059300,2757,HRV,HRV_0262,2022-11-30 19:40:08
103,"[{'imgObject': {}, 'id': 'hotdog w must', 'src': '/static/foodstim60/hotdog w must.jpg', 'key': 'u', 'origWidth': 409, 'origHeight': 409, 'width': 409, 'height': 409, 'widthPercent': 0.45, 'rescaleHeight': False, 'trialN': 103, 'loaded': True, 'loadedTime': 3226.2999999523163, 'positionName': 'LEFT', 'positionCoords': [512.6, 335.5], 'bid': 1.81}, {'imgObject': {}, 'id': 'grilled chicken strips', 'src': '/static/foodstim60/grilled chicken strips.jpg', 'key': 'i', 'origWidth': 410, 'origHeight': 411, 'width': 410, 'height': 411, 'widthPercent': 0.45, 'rescaleHeight': False, 'trialN': 103, 'loaded': True, 'loadedTime': 2999.2999999523163, 'positionName': 'RIGHT', 'positionCoords': [998.4, 334.5], 'bid': 8.4}]",206453.0,1669837059301,hotdog w must,grilled chicken strips,1.81,8.4,6.59,grilled chicken strips,1356.2999999523163,1357,1356.7999999523163,True,i,208312.5,1859.5,1669837061160,1859,HRV,HRV_0262,2022-11-30 19:40:08
104,"[{'imgObject': {}, 'id': 'baked potato', 'src': '/static/foodstim60/baked potato.jpg', 'key': 'u', 'origWidth': 409, 'origHeight': 410, 'width': 409, 'height': 410, 'widthPercent': 0.45, 'rescaleHeight': False, 'trialN': 104, 'loaded': True, 'loadedTime': 2634.5999999046326, 'positionName': 'LEFT', 'positionCoords': [512.6, 335], 'bid': 5.11}, {'imgObject': {}, 'id': 'mango', 'src': '/static/foodstim60/mango.jpg', 'key': 'i', 'origWidth': 411, 'origHeight': 411, 'width': 411, 'height': 411, 'widthPercent': 0.45, 'rescaleHeight': False, 'trialN': 104, 'loaded': True, 'loadedTime': 2519.7000000476837, 'positionName': 'RIGHT', 'positionCoords': [998.4, 334.5], 'bid': 2.96}]",208312.79999995232,1669837061161,baked potato,mango,5.11,2.96,-2.1500000000000004,baked potato,1904.7999999523163,1905,1905.2999999523163,True,u,210732.5,2419.7000000476837,1669837063580,2419,HRV,HRV_0262,2022-11-30 19:40:08
105,"[{'imgObject': {}, 'id': 'veggieswithdip', 'src': '/static/foodstim60/veggieswithdip.jpg', 'key': 'u', 'origWidth': 409, 'origHeight': 409, 'width': 409, 'height': 409, 'widthPercent': 0.45, 'rescaleHeight': False, 'trialN': 105, 'loaded': True, 'loadedTime': 2255.5, 'positionName': 'LEFT', 'positionCoords': [512.6, 335.5], 'bid': 2.05}, {'imgObject': {}, 'id': 'luckycharms', 'src': '/static/foodstim60/luckycharms.jpg', 'key': 'i', 'origWidth': 410, 'origHeight': 409, 'width': 410, 'height': 409, 'widthPercent': 0.45, 'rescaleHeight': False, 'trialN': 105, 'loaded': True, 'loadedTime': 3118.5999999046326, 'positionName': 'RIGHT', 'positionCoords': [998.4, 335.5], 'bid': 3.17}]",210732.59999990463,1669837063580,veggieswithdip,luckycharms,2.05,3.17,1.12,luckycharms,1060.7999999523163,1062,1061.6000001430511,True,i,212304.70000004768,1572.1000001430511,1669837065152,1572,HRV,HRV_0262,2022-11-30 19:40:08
106,"[{'imgObject': {}, 'id': 'baked potato', 'src': '/static/foodstim60/baked potato.jpg', 'key': 'u', 'origWidth': 409, 'origHeight': 410, 'width': 409, 'height': 410, 'widthPercent': 0.45, 'rescaleHeight': False, 'trialN': 106, 'loaded': True, 'loadedTime': 2634.899999856949, 'positionName': 'LEFT', 'positionCoords': [512.6, 335], 'bid': 5.11}, {'imgObject': {}, 'id': 'salmon', 'src': '/static/foodstim60/salmon.jpg', 'key': 'i', 'origWidth': 410, 'origHeight': 409, 'width': 410, 'height': 409, 'widthPercent': 0.45, 'rescaleHeight': False, 'trialN': 106, 'loaded': True, 'loadedTime': 2882.399999856949, 'positionName': 'RIGHT', 'positionCoords': [998.4, 335.5], 'bid': 0.22}]",212304.89999985695,1669837065153,baked potato,salmon,5.11,0.22,-4.890000000000001,baked potato,1144.6000001430511,1145,1145.2000000476837,True,u,213969.89999985695,1665.0,1669837066818,1665,HRV,HRV_0262,2022-11-30 19:40:08
107,"[{'imgObject': {}, 'id': 'burrito', 'src': '/static/foodstim60/burrito.jpg', 'key': 'u', 'origWidth': 410, 'origHeight': 410, 'width': 410, 'height': 410, 'widthPercent': 0.45, 'rescaleHeight': False, 'trialN': 107, 'loaded': True, 'loadedTime': 3176.399999856949, 'positionName': 'LEFT', 'positionCoords': [511.6, 335], 'bid': 5.8100000000000005}, {'imgObject': {}, 'id': 'burger', 'src': '/static/foodstim60/burger.jpg', 'key': 'i', 'origWidth': 409, 'origHeight': 409, 'width': 409, 'height': 409, 'widthPercent': 0.45, 'rescaleHeight': False, 'trialN': 107, 'loaded': True, 'loadedTime': 2204.7000000476837, 'positionName': 'RIGHT', 'positionCoords': [998.4, 335.5], 'bid': 4.84}]",213970.0,1669837066818,burrito,burger,5.8100000000000005,4.84,-0.9700000000000006,burrito,1615.2999999523163,1616,1615.8999998569489,True,u,216108.09999990463,2138.0999999046326,1669837068956,2138,HRV,HRV_0262,2022-11-30 19:40:08
108,"[{'imgObject': {}, 'id': 'raspberries', 'src': '/static/foodstim60/raspberries.jpg', 'key': 'u', 'origWidth': 411, 'origHeight': 411, 'width': 411, 'height': 411, 'widthPercent': 0.45, 'rescaleHeight': False, 'trialN': 108, 'loaded': True, 'loadedTime': 3324.0999999046326, 'positionName': 'LEFT', 'positionCoords': [510.6, 334.5], 'bid': 3.82}, {'imgObject': {}, 'id': 'bagel and cc', 'src': '/static/foodstim60/bagel and cc.jpg', 'key': 'i', 'origWidth': 410, 'origHeight': 410, 'width': 410, 'height': 410, 'widthPercent': 0.45, 'rescaleHeight': False, 'trialN': 108, 'loaded': True, 'loadedTime': 2305.2000000476837, 'positionName': 'RIGHT', 'positionCoords': [998.4, 335], 'bid': 3.35}]",216108.39999985695,1669837068956,raspberries,bagel and cc,3.82,3.35,-0.46999999999999975,bagel and cc,2557.2000000476837,2558,2557.600000143051,True,i,219177.20000004768,3068.800000190735,1669837072025,3069,HRV,HRV_0262,2022-11-30 19:40:08
