success,trial_type,trial_index,time_elapsed,internal_node_id,Block,TrialNumber,TrialTime,trialTimeDiff,FPS_avg,FPS_med,FPS_mode,TrialDur,winResizeTime,rt,block,button_pressed,MotCoh,MotDir,ColCoh,Color,ChoiceKey,Choice,Accuracy,RT,nFrames,FPS,PPD,missTrial,missTrialMsg,onsetDelay,fullScreenExitTime,canvCenter,TrialType,Score,BlockTrial,stimulus,button_labels,exp,subjectId,date
True,fullscreen,0,5003,0.0-0.0,0.0,1.0,,,,,,,,,,,,,,,,,,,,,,,,,,,,,,,,HRV,HRV_0268,2022-11-30 20:15:30
,wl-check-fps,1,9993,0.0-1.0,0.0,2.0,"[5664.9, 5671.4, 5688.3, 5704.7, 5721.4, 5737.9, 5754.8, 5771.6, 5788.4, 5804.5, 5822.8, 5840.4, 5854.9, 5873.6, 5888.2, 5904.5, 5924.2, 5937.6, 5954.2, 5970.9, 5988.3, 6004.3, 6021.1, 6037.8, 6054.8, 6075.2, 6087.5, 6104.6, 6120.7, 6138, 6154.1, 6170.7, 6187.4, 6204, 6220.8, 6237.3, 6254, 6270.6, 6287.3, 6303.9, 6320.6, 6337.3, 6353.9, 6370.7, 6387.3, 6404, 6420.7, 6437.3, 6454, 6470.5, 6487.1, 6503.9, 6520.9, 6537.7, 6554.3, 6571.1, 6587.6, 6604.3, 6621.2, 6637.8, 6654.9, 6673.4, 6687.8, 6704.1, 6720.5, 6737.3, 6754, 6770.6, 6787.3, 6804.2, 6820.6, 6837.2, 6854.2, 6870.4, 6887.2, 6903.7, 6920.3, 6937.1, 6953.9, 6970.4, 6986.9, 7003.7, 7020.3, 7037.1, 7053.6, 7070.4, 7087.3, 7104.3, 7121, 7137.7, 7155.5, 7172, 7187.2, 7203.7, 7220, 7236.7, 7254.8, 7270.3, 7287, 7304.6, 7320.3, 7337, 7355.3, 7370.5, 7387.3, 7404.6, 7420.5, 7436.6, 7454, 7470.5, 7486.4, 7504.9, 7519.8, 7536.6, 7553.2, 7570.4, 7586.3, 7603, 7619.9, 7636.2, 7654.3, 7669.6, 7687.8, 7704.2, 7719.6, 7736.1, 7752.8, 7769.9, 7786.2, 7803.7, 7820.2, 7836.4, 7853.7, 7870, 7886.1, 7904.4, 7919.9, 7936.2, 7954.6, 7972.1, 7985.9, 8004.3, 8019.4, 8035.8, 8052.7, 8069.1, 8085.7, 8103.3, 8119.1, 8135.8, 8153.1, 8169, 8185.6, 8204.3, 8219.2, 8235.7, 8252.3, 8268.9, 8285.6, 8304, 8318.9, 8336, 8352.3, 8368.9, 8385.4, 8402.1, 8418.8, 8435.5, 8452.2, 8468.7, 8485.4, 8502.5, 8518.8, 8536.4, 8552.1, 8568.8, 8585.4, 8601.9, 8618.6, 8635.3, 8651.9, 8668.8, 8685.2, 8701.9, 8718.5, 8735.1, 8751.8, 8768.5, 8785.4, 8802.1, 8818.7, 8835.1, 8851.8, 8868.5, 8885.1, 8904.6, 8918.7, 8935.1, 8951.7, 8968.3, 8984.9, 9002.5, 9018.2, 9035, 9051.6, 9068.2, 9084.8, 9101.6, 9118.2, 9134.9, 9151.5, 9168.2, 9184.7, 9201.4, 9218, 9234.8, 9251.5, 9268, 9284.7, 9301.4, 9318.2, 9335.7, 9351.5, 9368.3, 9385.2, 9401.8, 9418.3, 9435, 9451.6, 9468.5, 9485.4, 9501.8, 9518.4, 9535.1, 9551.6, 9569.6, 9585.7, 9601.5, 9618.2, 9635.1, 9652.1, 9669, 9684.9, 9701.6, 9718.2, 9734.9, 9751.8, 9768.4, 9784.9, 9801.5, 9818.5, 9834.9, 9851.1, 9868.6, 9885.6, 9902.4, 9918.7, 9936.3, 9951, 9967.9, 9985.8, 10001, 10017.6, 10034.2, 10050.7, 10067.5, 10084.1, 10100.7, 10117.5, 10134, 10150.6, 10167.5, 10184, 10200.6, 10217.5, 10234.2, 10250.8, 10267.5, 10284.1, 10300.5, 10317.2, 10333.8, 10350.5, 10367.2, 10383.9, 10400.4, 10417, 10433.6, 10450.5, 10467.1, 10483.8, 10500.5, 10517, 10533.6, 10550.4, 10567.1, 10583.6, 10600.2, 10617, 10633.6]","[1.6, 6.5, 16.9, 16.4, 16.7, 16.5, 16.9, 16.8, 16.8, 16.1, 18.3, 17.6, 14.5, 18.7, 14.6, 16.3, 19.7, 13.4, 16.6, 16.7, 17.4, 16, 16.8, 16.7, 17, 20.4, 12.3, 17.1, 16.1, 17.3, 16.1, 16.6, 16.7, 16.6, 16.8, 16.5, 16.7, 16.6, 16.7, 16.6, 16.7, 16.7, 16.6, 16.8, 16.6, 16.7, 16.7, 16.6, 16.7, 16.5, 16.6, 16.8, 17, 16.8, 16.6, 16.8, 16.5, 16.7, 16.9, 16.6, 17.1, 18.5, 14.4, 16.3, 16.4, 16.8, 16.7, 16.6, 16.7, 16.9, 16.4, 16.6, 17, 16.2, 16.8, 16.5, 16.6, 16.8, 16.8, 16.5, 16.5, 16.8, 16.6, 16.8, 16.5, 16.8, 16.9, 17, 16.7, 16.7, 17.8, 16.5, 15.2, 16.5, 16.3, 16.7, 18.1, 15.5, 16.7, 17.6, 15.7, 16.7, 18.3, 15.2, 16.8, 17.3, 15.9, 16.1, 17.4, 16.5, 15.9, 18.5, 14.9, 16.8, 16.6, 17.2, 15.9, 16.7, 16.9, 16.3, 18.1, 15.3, 18.2, 16.4, 15.4, 16.5, 16.7, 17.1, 16.3, 17.5, 16.5, 16.2, 17.3, 16.3, 16.1, 18.3, 15.5, 16.3, 18.4, 17.5, 13.8, 18.4, 15.1, 16.4, 16.9, 16.4, 16.6, 17.6, 15.8, 16.7, 17.3, 15.9, 16.6, 18.7, 14.9, 16.5, 16.6, 16.6, 16.7, 18.4, 14.9, 17.1, 16.3, 16.6, 16.5, 16.7, 16.7, 16.7, 16.7, 16.5, 16.7, 17.1, 16.3, 17.6, 15.7, 16.7, 16.6, 16.5, 16.7, 16.7, 16.6, 16.9, 16.4, 16.7, 16.6, 16.6, 16.7, 16.7, 16.9, 16.7, 16.6, 16.4, 16.7, 16.7, 16.6, 19.5, 14.1, 16.4, 16.6, 16.6, 16.6, 17.6, 15.7, 16.8, 16.6, 16.6, 16.6, 16.8, 16.6, 16.7, 16.6, 16.7, 16.5, 16.7, 16.6, 16.8, 16.7, 16.5, 16.7, 16.7, 16.8, 17.5, 15.8, 16.8, 16.9, 16.6, 16.5, 16.7, 16.6, 16.9, 16.9, 16.4, 16.6, 16.7, 16.5, 18, 16.1, 15.8, 16.7, 16.9, 17, 16.9, 15.9, 16.7, 16.6, 16.7, 16.9, 16.6, 16.5, 16.6, 17, 16.4, 16.2, 17.5, 17, 16.8, 16.3, 17.6, 14.7, 16.9, 17.9, 15.2, 16.6, 16.6, 16.5, 16.8, 16.6, 16.6, 16.8, 16.5, 16.6, 16.9, 16.5, 16.6, 16.9, 16.7, 16.6, 16.7, 16.6, 16.4, 16.7, 16.6, 16.7, 16.7, 16.7, 16.5, 16.6, 16.6, 16.9, 16.6, 16.7, 16.7, 16.5, 16.6, 16.8, 16.7, 16.5, 16.6, 16.8, 16.6]",60.0,59.0,60.0,4986.9,[],,,,,,,,,,,,,,,,,,,,,,,,,HRV,HRV_0268,2022-11-30 20:15:30
,wl-html-keyboard-response,2,27273,0.0-2.0-0.0,0.0,3.0,,,,,,,,15269.299999952316,0.0,0,,,,,,,,,,,,,,,,,,,,,,HRV,HRV_0268,2022-11-30 20:15:30
,wl-rdm,3,34738,0.0-3.0-0.0,0.0,4.0,,,,,,,[],,,,0.0,0.0,87.9,0.0,u,0.0,True,1874.7000000476837,113.0,60.0,40.0,False,,3000.0,[],"[768, 432]",ColorTask_Demo,,,,,HRV,HRV_0268,2022-11-30 20:15:30
,wl-rdm,4,40166,0.0-3.0-1.0,0.0,5.0,,,,,,,[],,,,0.0,0.0,87.9,1.0,i,1.0,True,1348.7999999523163,81.0,60.0,40.0,False,,2000.0,[],"[768, 432]",ColorTask_Demo,,,,,HRV,HRV_0268,2022-11-30 20:15:30
,wl-html-keyboard-response,5,46982,0.0-3.0-2.0,0.0,6.0,,,,,,,,4805.199999928474,0.0,1,,,,,,,,,,,,,,,,,,,,,,HRV,HRV_0268,2022-11-30 20:15:30
,wl-html-keyboard-response,6,59550,0.0-4.0-0.0,0.0,7.0,,,,,,,,10558.600000023842,0.0,0,,,,,,,,,,,,,,,,,,,,,,HRV,HRV_0268,2022-11-30 20:15:30
,wl-html-keyboard-response,7,84307,0.0-5.0-0.0,0.0,8.0,,,,,,,,22743.600000023842,0.0,0,,,,,,,,,,,,,,,,,,,,,,HRV,HRV_0268,2022-11-30 20:15:30
,wl-rdm,8,87192,0.0-6.0-0.0,0.0,9.0,,,,,,,[],,,,,,50.0,0.0,i,1.0,False,1565.7000000476837,94.0,60.0,40.0,False,,246.6103218187381,[],"[768, 432]",ColorTask,-1.0,1.0,,,HRV,HRV_0268,2022-11-30 20:15:30
,wl-rdm,9,89690,0.0-6.1-0.1,0.0,10.0,,,,,,,[],,,,,,73.6,0.0,u,0.0,True,1185.0,72.0,60.0,40.0,False,,222.10735064657146,[],"[768, 432]",ColorTask,0.0,2.0,,,HRV,HRV_0268,2022-11-30 20:15:30
,wl-rdm,10,91905,0.0-6.2-0.2,0.0,11.0,,,,,,,[],,,,,,62.5,0.0,u,0.0,True,913.7999999523163,55.0,60.0,40.0,False,,221.83231131098842,[],"[768, 432]",ColorTask,1.0,3.0,,,HRV,HRV_0268,2022-11-30 20:15:30
,wl-rdm,11,94103,0.0-6.3-0.3,0.0,12.0,,,,,,,[],,,,,,73.6,0.0,u,0.0,True,901.7000000476837,54.0,60.0,40.0,False,,220.60277575125815,[],"[768, 432]",ColorTask,2.0,4.0,,,HRV,HRV_0268,2022-11-30 20:15:30
,wl-rdm,12,96617,0.0-6.4-0.4,0.0,13.0,,,,,,,[],,,,,,56.4,0.0,u,0.0,True,1138.8999999761581,69.0,60.0,40.0,False,,286.5686652015595,[],"[768, 432]",ColorTask,3.0,5.0,,,HRV,HRV_0268,2022-11-30 20:15:30
,wl-rdm,13,99082,0.0-6.5-0.5,0.0,14.0,,,,,,,[],,,,,,53.2,1.0,i,1.0,True,1180.2000000476837,71.0,60.0,40.0,False,,214.7714763993083,[],"[768, 432]",ColorTask,4.0,6.0,,,HRV,HRV_0268,2022-11-30 20:15:30
,wl-rdm,14,101180,0.0-6.6-0.6,0.0,15.0,,,,,,,[],,,,,,73.6,0.0,u,0.0,True,752.7000000476837,46.0,60.0,40.0,False,,256.7464329039313,[],"[768, 432]",ColorTask,5.0,7.0,,,HRV,HRV_0268,2022-11-30 20:15:30
,wl-rdm,15,103462,0.0-6.7-0.7,0.0,16.0,,,,,,,[],,,,,,50.0,1.0,i,1.0,True,961.9000000953674,58.0,60.0,40.0,False,,238.10528287632525,[],"[768, 432]",ColorTask,6.0,8.0,,,HRV,HRV_0268,2022-11-30 20:15:30
,wl-rdm,16,105576,0.0-6.8-0.8,0.0,17.0,,,,,,,[],,,,,,87.9,1.0,i,1.0,True,825.2000000476837,50.0,60.0,40.0,False,,202.6579245995728,[],"[768, 432]",ColorTask,7.0,9.0,,,HRV,HRV_0268,2022-11-30 20:15:30
,wl-rdm,17,107591,0.0-6.9-0.9,0.0,18.0,,,,,,,[],,,,,,62.5,1.0,i,1.0,True,700.9000000953674,43.0,60.0,40.0,False,,221.47604158882825,[],"[768, 432]",ColorTask,8.0,10.0,,,HRV,HRV_0268,2022-11-30 20:15:30
,wl-rdm,18,110023,0.0-6.10-0.10,0.0,19.0,,,,,,,[],,,,,,50.0,0.0,i,1.0,False,1004.4000000953674,61.0,60.0,40.0,False,,335.79407582216743,[],"[768, 432]",ColorTask,7.0,11.0,,,HRV,HRV_0268,2022-11-30 20:15:30
,wl-rdm,19,112737,0.0-6.11-0.11,0.0,20.0,,,,,,,[],,,,,,56.4,1.0,i,1.0,True,1273.7999999523163,77.0,60.0,40.0,False,,368.2621346974638,[],"[768, 432]",ColorTask,8.0,12.0,,,HRV,HRV_0268,2022-11-30 20:15:30
,wl-rdm,20,115106,0.0-6.12-0.12,0.0,21.0,,,,,,,[],,,,,,53.2,0.0,u,0.0,True,1064.5,64.0,60.0,40.0,False,,218.53102230148306,[],"[768, 432]",ColorTask,9.0,13.0,,,HRV,HRV_0268,2022-11-30 20:15:30
,wl-rdm,21,117083,0.0-6.13-0.13,0.0,22.0,,,,,,,[],,,,,,87.9,0.0,u,0.0,True,644.0000001192093,39.0,60.0,40.0,False,,258.72095969641254,[],"[768, 432]",ColorTask,10.0,14.0,,,HRV,HRV_0268,2022-11-30 20:15:30
,wl-rdm,22,119481,0.0-6.14-0.14,0.0,23.0,,,,,,,[],,,,,,56.4,1.0,u,0.0,False,943.2000000476837,57.0,60.0,40.0,False,,369.87117340980205,[],"[768, 432]",ColorTask,9.0,15.0,,,HRV,HRV_0268,2022-11-30 20:15:30
,wl-rdm,23,121395,0.0-6.15-0.15,0.0,24.0,,,,,,,[],,,,,,56.4,1.0,i,1.0,True,633.8000000715256,38.0,60.0,40.0,False,,216.22324451266846,[],"[768, 432]",ColorTask,10.0,16.0,,,HRV,HRV_0268,2022-11-30 20:15:30
,wl-rdm,24,123660,0.0-6.16-0.16,0.0,25.0,,,,,,,[],,,,,,50.0,1.0,i,1.0,True,908.5,55.0,60.0,40.0,False,,268.38109696368815,[],"[768, 432]",ColorTask,11.0,17.0,,,HRV,HRV_0268,2022-11-30 20:15:30
,wl-rdm,25,125825,0.0-6.17-0.17,0.0,26.0,,,,,,,[],,,,,,50.0,1.0,i,1.0,True,851.9000000953674,51.0,60.0,40.0,False,,235.9222255534786,[],"[768, 432]",ColorTask,12.0,18.0,,,HRV,HRV_0268,2022-11-30 20:15:30
,wl-rdm,26,127790,0.0-6.18-0.18,0.0,27.0,,,,,,,[],,,,,,87.9,0.0,u,0.0,True,640.0,39.0,60.0,40.0,False,,244.09768923000075,[],"[768, 432]",ColorTask,13.0,19.0,,,HRV,HRV_0268,2022-11-30 20:15:30
,wl-rdm,27,129838,0.0-6.19-0.19,0.0,28.0,,,,,,,[],,,,,,53.2,0.0,i,1.0,False,704.0999999046326,43.0,60.0,40.0,False,,253.21580216665865,[],"[768, 432]",ColorTask,12.0,20.0,,,HRV,HRV_0268,2022-11-30 20:15:30
,wl-rdm,28,132154,0.0-6.20-0.20,0.0,29.0,,,,,,,[],,,,,,56.4,0.0,i,1.0,False,997.1999999284744,60.0,60.0,40.0,False,,244.6642111895391,[],"[768, 432]",ColorTask,11.0,21.0,,,HRV,HRV_0268,2022-11-30 20:15:30
,wl-rdm,29,134685,0.0-6.21-0.21,0.0,30.0,,,,,,,[],,,,,,56.4,1.0,i,1.0,True,1246.7000000476837,75.0,60.0,40.0,False,,216.334521602466,[],"[768, 432]",ColorTask,12.0,22.0,,,HRV,HRV_0268,2022-11-30 20:15:30
,wl-rdm,30,136932,0.0-6.22-0.22,0.0,31.0,,,,,,,[],,,,,,73.6,1.0,i,1.0,True,935.0999999046326,57.0,60.0,40.0,False,,231.63815214953362,[],"[768, 432]",ColorTask,13.0,23.0,,,HRV,HRV_0268,2022-11-30 20:15:30
,wl-rdm,31,139213,0.0-6.23-0.23,0.0,32.0,,,,,,,[],,,,,,53.2,0.0,u,0.0,True,988.7999999523163,60.0,60.0,40.0,False,,217.3951445006366,[],"[768, 432]",ColorTask,14.0,24.0,,,HRV,HRV_0268,2022-11-30 20:15:30
,wl-rdm,32,141195,0.0-6.24-0.24,0.0,33.0,,,,,,,[],,,,,,87.9,1.0,i,1.0,True,631.2000000476837,38.0,60.0,40.0,False,,272.652616178544,[],"[768, 432]",ColorTask,15.0,25.0,,,HRV,HRV_0268,2022-11-30 20:15:30
,wl-rdm,33,143176,0.0-6.25-0.25,0.0,34.0,,,,,,,[],,,,,,87.9,0.0,u,0.0,True,651.8999999761581,40.0,60.0,40.0,False,,246.29056161706788,[],"[768, 432]",ColorTask,16.0,26.0,,,HRV,HRV_0268,2022-11-30 20:15:30
,wl-rdm,34,145443,0.0-6.26-0.26,0.0,35.0,,,,,,,[],,,,,,62.5,0.0,u,0.0,True,895.1999999284744,54.0,60.0,40.0,False,,289.359921150378,[],"[768, 432]",ColorTask,17.0,27.0,,,HRV,HRV_0268,2022-11-30 20:15:30
,wl-rdm,35,147555,0.0-6.27-0.27,0.0,36.0,,,,,,,[],,,,,,53.2,0.0,u,0.0,True,830.5,50.0,60.0,40.0,False,,208.98143974770122,[],"[768, 432]",ColorTask,18.0,28.0,,,HRV,HRV_0268,2022-11-30 20:15:30
,wl-rdm,36,149636,0.0-6.28-0.28,0.0,37.0,,,,,,,[],,,,,,53.2,1.0,i,1.0,True,774.3999998569489,47.0,60.0,40.0,False,,218.53834388457847,[],"[768, 432]",ColorTask,19.0,29.0,,,HRV,HRV_0268,2022-11-30 20:15:30
,wl-rdm,37,152118,0.0-6.29-0.29,0.0,38.0,,,,,,,[],,,,,,50.0,0.0,i,1.0,False,1180.3999999761581,71.0,60.0,40.0,False,,231.74352147423448,[],"[768, 432]",ColorTask,18.0,30.0,,,HRV,HRV_0268,2022-11-30 20:15:30
,wl-rdm,38,154716,0.0-6.30-0.30,0.0,39.0,,,,,,,[],,,,,,53.2,0.0,i,1.0,False,1267.8999999761581,77.0,60.0,40.0,False,,237.00356311202842,[],"[768, 432]",ColorTask,17.0,31.0,,,HRV,HRV_0268,2022-11-30 20:15:30
,wl-rdm,39,157630,0.0-6.31-0.31,0.0,40.0,,,,,,,[],,,,,,50.0,0.0,i,1.0,False,1486.5999999046326,90.0,60.0,40.0,False,,348.0579482087312,[],"[768, 432]",ColorTask,16.0,32.0,,,HRV,HRV_0268,2022-11-30 20:15:30
,wl-rdm,40,159828,0.0-6.32-0.32,0.0,41.0,,,,,,,[],,,,,,56.4,0.0,u,0.0,True,728.9999998807907,44.0,60.0,40.0,False,,388.73002316929126,[],"[768, 432]",ColorTask,17.0,33.0,,,HRV,HRV_0268,2022-11-30 20:15:30
,wl-rdm,41,161876,0.0-6.33-0.33,0.0,42.0,,,,,,,[],,,,,,87.9,0.0,u,0.0,True,606.1000000238419,37.0,60.0,40.0,False,,363.60470411580627,[],"[768, 432]",ColorTask,18.0,34.0,,,HRV,HRV_0268,2022-11-30 20:15:30
,wl-rdm,42,164374,0.0-6.34-0.34,0.0,43.0,,,,,,,[],,,,,,53.2,0.0,u,0.0,True,1063.7000000476837,64.0,60.0,40.0,False,,361.18305759763007,[],"[768, 432]",ColorTask,19.0,35.0,,,HRV,HRV_0268,2022-11-30 20:15:30
,wl-rdm,43,166472,0.0-6.35-0.35,0.0,44.0,,,,,,,[],,,,,,50.0,1.0,u,0.0,False,757.1000000238419,46.0,60.0,40.0,False,,251.49609374540103,[],"[768, 432]",ColorTask,18.0,36.0,,,HRV,HRV_0268,2022-11-30 20:15:30
,wl-rdm,44,168720,0.0-6.36-0.36,0.0,45.0,,,,,,,[],,,,,,56.4,0.0,i,1.0,False,878.4999998807907,53.0,60.0,40.0,False,,297.0315953818326,[],"[768, 432]",ColorTask,17.0,37.0,,,HRV,HRV_0268,2022-11-30 20:15:30
,wl-rdm,45,171135,0.0-6.37-0.37,0.0,46.0,,,,,,,[],,,,,,62.5,0.0,i,1.0,False,1033.8000000715256,62.0,60.0,40.0,False,,305.6023388115906,[],"[768, 432]",ColorTask,16.0,38.0,,,HRV,HRV_0268,2022-11-30 20:15:30
,wl-rdm,46,174049,0.0-6.38-0.38,0.0,47.0,,,,,,,[],,,,,,56.4,0.0,i,1.0,False,1448.0999999046326,87.0,60.0,40.0,False,,393.25062442688557,[],"[768, 432]",ColorTask,15.0,39.0,,,HRV,HRV_0268,2022-11-30 20:15:30
,wl-rdm,47,176314,0.0-6.39-0.39,0.0,48.0,,,,,,,[],,,,,,50.0,0.0,i,1.0,False,951.6999999284744,58.0,60.0,40.0,False,,220.69645792496246,[],"[768, 432]",ColorTask,14.0,40.0,,,HRV,HRV_0268,2022-11-30 20:15:30
,wl-rdm,48,178495,0.0-6.40-0.40,0.0,49.0,,,,,,,[],,,,,,56.4,1.0,u,0.0,False,751.6000000238419,46.0,60.0,40.0,False,,334.7001458306361,[],"[768, 432]",ColorTask,13.0,41.0,,,HRV,HRV_0268,2022-11-30 20:15:30
,wl-rdm,49,181376,0.0-6.41-0.41,0.0,50.0,,,,,,,[],,,,,,56.4,1.0,i,1.0,True,1437.2999999523163,87.0,60.0,40.0,False,,354.38486592378604,[],"[768, 432]",ColorTask,14.0,42.0,,,HRV,HRV_0268,2022-11-30 20:15:30
,wl-rdm,50,184306,0.0-6.42-0.42,0.0,51.0,,,,,,,[],,,,,,53.2,0.0,i,1.0,False,1638.8000000715256,99.0,60.0,40.0,False,,202.04009259475615,[],"[768, 432]",ColorTask,13.0,43.0,,,HRV,HRV_0268,2022-11-30 20:15:30
,wl-rdm,51,185389,0.0-6.43-0.43,0.0,51.0,,,,,,,[],,,,,,56.4,0.0,u,,,394.10000002384186,0.0,60.0,40.0,True,too_early ,254.07475481544535,[],"[768, 432]",ColorTask,12.0,44.0,,,HRV,HRV_0268,2022-11-30 20:15:30
,wl-rdm,52,187504,0.0-6.44-0.44,0.0,52.0,,,,,,,[],,,,,,73.6,1.0,i,1.0,True,789.6000000238419,48.0,60.0,40.0,False,,240.65649864493903,[],"[768, 432]",ColorTask,13.0,45.0,,,HRV,HRV_0268,2022-11-30 20:15:30
,wl-rdm,53,189868,0.0-6.45-0.45,0.0,53.0,,,,,,,[],,,,,,73.6,0.0,u,0.0,True,960.5000001192093,58.0,60.0,40.0,False,,317.1417535399037,[],"[768, 432]",ColorTask,14.0,46.0,,,HRV,HRV_0268,2022-11-30 20:15:30
,wl-rdm,54,192018,0.0-6.46-0.46,0.0,54.0,,,,,,,[],,,,,,87.9,1.0,i,1.0,True,743.6999999284744,45.0,60.0,40.0,False,,321.47644574758,[],"[768, 432]",ColorTask,15.0,47.0,,,HRV,HRV_0268,2022-11-30 20:15:30
,wl-rdm,55,194281,0.0-6.47-0.47,0.0,55.0,,,,,,,[],,,,,,50.0,1.0,u,0.0,False,982.0,59.0,60.0,40.0,False,,210.1971653815364,[],"[768, 432]",ColorTask,14.0,48.0,,,HRV,HRV_0268,2022-11-30 20:15:30
,wl-rdm,56,196564,0.0-6.48-0.48,0.0,56.0,,,,,,,[],,,,,,56.4,0.0,i,1.0,False,903.3000000715256,55.0,60.0,40.0,False,,289.25866016307964,[],"[768, 432]",ColorTask,13.0,49.0,,,HRV,HRV_0268,2022-11-30 20:15:30
,wl-rdm,57,199694,0.0-6.49-0.49,0.0,57.0,,,,,,,[],,,,,,56.4,0.0,u,0.0,True,1698.7000000476837,102.0,60.0,40.0,False,,357.3499339163109,[],"[768, 432]",ColorTask,14.0,50.0,,,HRV,HRV_0268,2022-11-30 20:15:30
,wl-rdm,58,202641,0.0-6.50-0.50,0.0,58.0,,,,,,,[],,,,,,73.6,1.0,i,1.0,True,1568.6999998092651,95.0,60.0,40.0,False,,300.8233052537279,[],"[768, 432]",ColorTask,15.0,51.0,,,HRV,HRV_0268,2022-11-30 20:15:30
,wl-rdm,59,204639,0.0-6.51-0.51,0.0,59.0,,,,,,,[],,,,,,87.9,1.0,i,1.0,True,635.6000000238419,39.0,60.0,40.0,False,,267.08721239966644,[],"[768, 432]",ColorTask,16.0,52.0,,,HRV,HRV_0268,2022-11-30 20:15:30
,wl-rdm,60,208653,0.0-6.52-0.52,0.0,60.0,,,,,,,[],,,,,,50.0,1.0,u,0.0,False,2728.2999999523163,164.0,60.0,40.0,False,,203.64649983246372,[],"[768, 432]",ColorTask,15.0,53.0,,,HRV,HRV_0268,2022-11-30 20:15:30
,wl-rdm,61,210634,0.0-6.53-0.53,0.0,61.0,,,,,,,[],,,,,,87.9,1.0,i,1.0,True,610.6999999284744,37.0,60.0,40.0,False,,292.72097406412263,[],"[768, 432]",ColorTask,16.0,54.0,,,HRV,HRV_0268,2022-11-30 20:15:30
,wl-rdm,62,214148,0.0-6.54-0.54,0.0,62.0,,,,,,,[],,,,,,53.2,1.0,u,0.0,False,2224.7999999523163,134.0,60.0,40.0,False,,214.55757634462287,[],"[768, 432]",ColorTask,15.0,55.0,,,HRV,HRV_0268,2022-11-30 20:15:30
,wl-rdm,63,216064,0.0-6.55-0.55,0.0,63.0,,,,,,,[],,,,,,56.4,1.0,i,1.0,True,580.1000000238419,35.0,60.0,40.0,False,,263.22049091184095,[],"[768, 432]",ColorTask,16.0,56.0,,,HRV,HRV_0268,2022-11-30 20:15:30
,wl-rdm,64,218377,0.0-6.56-0.56,0.0,64.0,,,,,,,[],,,,,,53.2,0.0,i,1.0,False,952.1999999284744,58.0,60.0,40.0,False,,267.24613848494744,[],"[768, 432]",ColorTask,15.0,57.0,,,HRV,HRV_0268,2022-11-30 20:15:30
,wl-rdm,65,220326,0.0-6.57-0.57,0.0,65.0,,,,,,,[],,,,,,73.6,1.0,i,1.0,True,577.3000000715256,35.0,60.0,40.0,False,,307.93620564034063,[],"[768, 432]",ColorTask,16.0,58.0,,,HRV,HRV_0268,2022-11-30 20:15:30
,wl-rdm,66,223141,0.0-6.58-0.58,0.0,66.0,,,,,,,[],,,,,,53.2,1.0,u,0.0,False,1402.6000000238419,85.0,60.0,40.0,False,,317.00896781169683,[],"[768, 432]",ColorTask,15.0,59.0,,,HRV,HRV_0268,2022-11-30 20:15:30
,wl-rdm,67,225038,0.0-6.59-0.59,0.0,67.0,,,,,,,[],,,,,,73.6,1.0,i,1.0,True,573.2000000476837,35.0,60.0,40.0,False,,235.44536282815184,[],"[768, 432]",ColorTask,16.0,60.0,,,HRV,HRV_0268,2022-11-30 20:15:30
,wl-rdm,68,228685,0.0-6.60-0.60,0.0,68.0,,,,,,,[],,,,,,50.0,0.0,u,0.0,True,2266.9000000953674,137.0,60.0,40.0,False,,298.0821886496813,[],"[768, 432]",ColorTask,17.0,61.0,,,HRV,HRV_0268,2022-11-30 20:15:30
,wl-rdm,69,232032,0.0-6.61-0.61,0.0,69.0,,,,,,,[],,,,,,50.0,0.0,u,0.0,True,2025.2000000476837,122.0,60.0,40.0,False,,238.5764075181288,[],"[768, 432]",ColorTask,18.0,62.0,,,HRV,HRV_0268,2022-11-30 20:15:30
,wl-rdm,70,234879,0.0-6.62-0.62,0.0,70.0,,,,,,,[],,,,,,73.6,1.0,i,1.0,True,1484.1999999284744,90.0,60.0,40.0,False,,281.7389309835981,[],"[768, 432]",ColorTask,19.0,63.0,,,HRV,HRV_0268,2022-11-30 20:15:30
,wl-rdm,71,236878,0.0-6.63-0.63,0.0,71.0,,,,,,,[],,,,,,73.6,0.0,u,0.0,True,693.1000000238419,42.0,60.0,40.0,False,,232.19723013515224,[],"[768, 432]",ColorTask,20.0,64.0,,,HRV,HRV_0268,2022-11-30 20:15:30
,wl-rdm,72,238942,0.0-6.64-0.64,0.0,72.0,,,,,,,[],,,,,,56.4,0.0,u,0.0,True,748.6000000238419,45.0,60.0,40.0,False,,242.53434835860253,[],"[768, 432]",ColorTask,21.0,65.0,,,HRV,HRV_0268,2022-11-30 20:15:30
,wl-rdm,73,241341,0.0-6.65-0.65,0.0,73.0,,,,,,,[],,,,,,62.5,0.0,u,0.0,True,1024.8999999761581,62.0,60.0,40.0,False,,298.5930939604524,[],"[768, 432]",ColorTask,22.0,66.0,,,HRV,HRV_0268,2022-11-30 20:15:30
,wl-rdm,74,244089,0.0-6.66-0.66,0.0,74.0,,,,,,,[],,,,,,53.2,1.0,u,0.0,False,1391.3999999761581,84.0,60.0,40.0,False,,285.0014209022737,[],"[768, 432]",ColorTask,21.0,67.0,,,HRV,HRV_0268,2022-11-30 20:15:30
,wl-rdm,75,245954,0.0-6.67-0.67,0.0,75.0,,,,,,,[],,,,,,73.6,1.0,i,1.0,True,587.0999999046326,36.0,60.0,40.0,False,,213.868506241837,[],"[768, 432]",ColorTask,22.0,68.0,,,HRV,HRV_0268,2022-11-30 20:15:30
,wl-rdm,76,248468,0.0-6.68-0.68,0.0,76.0,,,,,,,[],,,,,,62.5,0.0,u,0.0,True,1128.5,68.0,60.0,40.0,False,,320.9071736107228,[],"[768, 432]",ColorTask,23.0,69.0,,,HRV,HRV_0268,2022-11-30 20:15:30
,wl-rdm,77,250466,0.0-6.69-0.69,0.0,77.0,,,,,,,[],,,,,,73.6,0.0,u,0.0,True,607.8999999761581,37.0,60.0,40.0,False,,328.23484744968573,[],"[768, 432]",ColorTask,24.0,70.0,,,HRV,HRV_0268,2022-11-30 20:15:30
,wl-rdm,78,252864,0.0-6.70-0.70,0.0,78.0,,,,,,,[],,,,,,53.2,1.0,u,0.0,False,1035.8000000715256,63.0,60.0,40.0,False,,269.86357275279784,[],"[768, 432]",ColorTask,23.0,71.0,,,HRV,HRV_0268,2022-11-30 20:15:30
,wl-rdm,79,254713,0.0-6.71-0.71,0.0,79.0,,,,,,,[],,,,,,87.9,0.0,u,0.0,True,564.5000001192093,34.0,60.0,40.0,False,,220.1506760285779,[],"[768, 432]",ColorTask,24.0,72.0,,,HRV,HRV_0268,2022-11-30 20:15:30
,wl-rdm,80,257310,0.0-6.72-0.72,0.0,80.0,,,,,,,[],,,,,,50.0,1.0,i,1.0,True,1253.3999999761581,76.0,60.0,40.0,False,,280.6160278088082,[],"[768, 432]",ColorTask,25.0,73.0,,,HRV,HRV_0268,2022-11-30 20:15:30
,wl-rdm,81,260291,0.0-6.73-0.73,0.0,81.0,,,,,,,[],,,,,,50.0,0.0,i,1.0,False,1685.2000000476837,102.0,60.0,40.0,False,,216.26186177491897,[],"[768, 432]",ColorTask,24.0,74.0,,,HRV,HRV_0268,2022-11-30 20:15:30
,wl-rdm,82,262524,0.0-6.74-0.74,0.0,82.0,,,,,,,[],,,,,,62.5,1.0,i,1.0,True,898.5,54.0,60.0,40.0,False,,259.3005724205623,[],"[768, 432]",ColorTask,25.0,75.0,,,HRV,HRV_0268,2022-11-30 20:15:30
,wl-rdm,83,265335,0.0-6.75-0.75,0.0,83.0,,,,,,,[],,,,,,62.5,0.0,u,0.0,True,1519.1000000238419,92.0,60.0,40.0,False,,214.10160861369596,[],"[768, 432]",ColorTask,26.0,76.0,,,HRV,HRV_0268,2022-11-30 20:15:30
,wl-rdm,84,267869,0.0-6.76-0.76,0.0,84.0,,,,,,,[],,,,,,53.2,1.0,u,0.0,False,1203.0,73.0,60.0,40.0,False,,239.07181698890452,[],"[768, 432]",ColorTask,25.0,77.0,,,HRV,HRV_0268,2022-11-30 20:15:30
,wl-rdm,85,269816,0.0-6.77-0.77,0.0,85.0,,,,,,,[],,,,,,87.9,1.0,i,1.0,True,625.7000000476837,38.0,60.0,40.0,False,,251.31714362098512,[],"[768, 432]",ColorTask,26.0,78.0,,,HRV,HRV_0268,2022-11-30 20:15:30
,wl-rdm,86,272880,0.0-6.78-0.78,0.0,86.0,,,,,,,[],,,,,,62.5,0.0,u,0.0,True,1652.6999999284744,100.0,60.0,40.0,False,,329.0441016664796,[],"[768, 432]",ColorTask,27.0,79.0,,,HRV,HRV_0268,2022-11-30 20:15:30
,wl-rdm,87,274894,0.0-6.79-0.79,0.0,87.0,,,,,,,[],,,,,,87.9,0.0,u,0.0,True,561.2000000476837,34.0,60.0,40.0,False,,382.9654370701072,[],"[768, 432]",ColorTask,28.0,80.0,,,HRV,HRV_0268,2022-11-30 20:15:30
,wl-rdm,88,276793,0.0-6.80-0.80,0.0,88.0,,,,,,,[],,,,,,62.5,0.0,u,0.0,True,513.6999999284744,31.0,60.0,40.0,False,,314.75294136087166,[],"[768, 432]",ColorTask,29.0,81.0,,,HRV,HRV_0268,2022-11-30 20:15:30
,wl-rdm,89,279023,0.0-6.81-0.81,0.0,89.0,,,,,,,[],,,,,,73.6,0.0,u,0.0,True,891.3000000715256,54.0,60.0,40.0,False,,257.37984315440764,[],"[768, 432]",ColorTask,30.0,82.0,,,HRV,HRV_0268,2022-11-30 20:15:30
,wl-rdm,90,280856,0.0-6.82-0.82,0.0,90.0,,,,,,,[],,,,,,87.9,0.0,u,0.0,True,546.6000000238419,33.0,60.0,40.0,False,,207.48085854124923,[],"[768, 432]",ColorTask,31.0,83.0,,,HRV,HRV_0268,2022-11-30 20:15:30
,wl-rdm,91,282820,0.0-6.83-0.83,0.0,91.0,,,,,,,[],,,,,,87.9,1.0,i,1.0,True,653.0,40.0,60.0,40.0,False,,208.30811323478838,[],"[768, 432]",ColorTask,32.0,84.0,,,HRV,HRV_0268,2022-11-30 20:15:30
,wl-rdm,92,287135,0.0-6.84-0.84,0.0,91.0,,,,,,,[],,,,,,53.2,1.0,u,,,3086.399999856949,179.0,60.0,40.0,True,RT_timeout ,200.39464783918842,[],"[768, 432]",ColorTask,31.0,85.0,,,HRV,HRV_0268,2022-11-30 20:15:30
,wl-rdm,93,289132,0.0-6.85-0.85,0.0,92.0,,,,,,,[],,,,,,62.5,1.0,i,1.0,True,689.5,42.0,60.0,40.0,False,,217.67681670848032,[],"[768, 432]",ColorTask,32.0,86.0,,,HRV,HRV_0268,2022-11-30 20:15:30
,wl-rdm,94,291580,0.0-6.86-0.86,0.0,93.0,,,,,,,[],,,,,,50.0,0.0,i,1.0,False,1068.7000000476837,65.0,60.0,40.0,False,,271.203108270348,[],"[768, 432]",ColorTask,31.0,87.0,,,HRV,HRV_0268,2022-11-30 20:15:30
,wl-rdm,95,294444,0.0-6.87-0.87,0.0,94.0,,,,,,,[],,,,,,50.0,1.0,u,0.0,False,1392.9000000953674,84.0,60.0,40.0,False,,386.8661704468294,[],"[768, 432]",ColorTask,30.0,88.0,,,HRV,HRV_0268,2022-11-30 20:15:30
,wl-rdm,96,296960,0.0-6.88-0.88,0.0,95.0,,,,,,,[],,,,,,73.6,0.0,u,0.0,True,1039.6999999284744,63.0,60.0,40.0,False,,390.9104753432947,[],"[768, 432]",ColorTask,31.0,89.0,,,HRV,HRV_0268,2022-11-30 20:15:30
,wl-rdm,97,298774,0.0-6.89-0.89,0.0,96.0,,,,,,,[],,,,,,87.9,0.0,u,0.0,True,529.9000000953674,32.0,60.0,40.0,False,,211.03084480250448,[],"[768, 432]",ColorTask,32.0,90.0,,,HRV,HRV_0268,2022-11-30 20:15:30
,wl-rdm,98,300940,0.0-6.90-0.90,0.0,97.0,,,,,,,[],,,,,,73.6,0.0,u,0.0,True,696.2999999523163,42.0,60.0,40.0,False,,387.88804561002553,[],"[768, 432]",ColorTask,33.0,91.0,,,HRV,HRV_0268,2022-11-30 20:15:30
,wl-rdm,99,303136,0.0-6.91-0.91,0.0,98.0,,,,,,,[],,,,,,53.2,1.0,u,0.0,False,892.3999999761581,54.0,60.0,40.0,False,,236.47528074041134,[],"[768, 432]",ColorTask,32.0,92.0,,,HRV,HRV_0268,2022-11-30 20:15:30
,wl-rdm,100,305218,0.0-6.92-0.92,0.0,99.0,,,,,,,[],,,,,,62.5,1.0,i,1.0,True,667.7999999523163,39.0,60.0,40.0,False,,339.7987270338266,[],"[768, 432]",ColorTask,33.0,93.0,,,HRV,HRV_0268,2022-11-30 20:15:30
,wl-rdm,101,307400,0.0-6.93-0.93,0.0,100.0,,,,,,,[],,,,,,53.2,0.0,i,1.0,False,907.3000000715256,55.0,60.0,40.0,False,,209.18719282265445,[],"[768, 432]",ColorTask,32.0,94.0,,,HRV,HRV_0268,2022-11-30 20:15:30
,wl-rdm,102,309447,0.0-6.94-0.94,0.0,101.0,,,,,,,[],,,,,,87.9,1.0,i,1.0,True,597.9000000953674,36.0,60.0,40.0,False,,381.8234846469092,[],"[768, 432]",ColorTask,33.0,95.0,,,HRV,HRV_0268,2022-11-30 20:15:30
,wl-rdm,103,311445,0.0-6.95-0.95,0.0,102.0,,,,,,,[],,,,,,62.5,1.0,i,1.0,True,552.5,34.0,60.0,40.0,False,,353.5970152049472,[],"[768, 432]",ColorTask,34.0,96.0,,,HRV,HRV_0268,2022-11-30 20:15:30
,wl-rdm,104,313327,0.0-6.96-0.96,0.0,103.0,,,,,,,[],,,,,,73.6,1.0,i,1.0,True,549.3999999761581,33.0,60.0,40.0,False,,255.99676262286414,[],"[768, 432]",ColorTask,35.0,97.0,,,HRV,HRV_0268,2022-11-30 20:15:30
,wl-rdm,105,315275,0.0-6.97-0.97,0.0,104.0,,,,,,,[],,,,,,56.4,1.0,i,1.0,True,525.2999999523163,32.0,60.0,40.0,False,,348.87887691074025,[],"[768, 432]",ColorTask,36.0,98.0,,,HRV,HRV_0268,2022-11-30 20:15:30
,wl-rdm,106,317823,0.0-6.98-0.98,0.0,105.0,,,,,,,[],,,,,,56.4,1.0,i,1.0,True,1265.6999999284744,76.0,60.0,40.0,False,,204.88145795632644,[],"[768, 432]",ColorTask,37.0,99.0,,,HRV,HRV_0268,2022-11-30 20:15:30
,wl-rdm,107,319971,0.0-6.99-0.99,0.0,106.0,,,,,,,[],,,,,,87.9,0.0,u,0.0,True,780.3999999761581,47.0,60.0,40.0,False,,291.70992645159356,[],"[768, 432]",ColorTask,38.0,100.0,,,HRV,HRV_0268,2022-11-30 20:15:30
,wl-rdm,108,322053,0.0-6.100-0.100,0.0,107.0,,,,,,,[],,,,,,62.5,1.0,i,1.0,True,731.3000000715256,44.0,60.0,40.0,False,,279.6304249570234,[],"[768, 432]",ColorTask,39.0,101.0,,,HRV,HRV_0268,2022-11-30 20:15:30
,wl-rdm,109,324018,0.0-6.101-0.101,0.0,108.0,,,,,,,[],,,,,,62.5,1.0,i,1.0,True,605.1000000238419,37.0,60.0,40.0,False,,272.3827095653713,[],"[768, 432]",ColorTask,40.0,102.0,,,HRV,HRV_0268,2022-11-30 20:15:30
,wl-rdm,110,325916,0.0-6.102-0.102,0.0,109.0,,,,,,,[],,,,,,73.6,1.0,i,1.0,True,574.3000000715256,35.0,60.0,40.0,False,,247.14517941193478,[],"[768, 432]",ColorTask,41.0,103.0,,,HRV,HRV_0268,2022-11-30 20:15:30
,wl-rdm,111,327865,0.0-6.103-0.103,0.0,110.0,,,,,,,[],,,,,,50.0,1.0,i,1.0,True,605.0,37.0,60.0,40.0,False,,262.26740497462083,[],"[768, 432]",ColorTask,42.0,104.0,,,HRV,HRV_0268,2022-11-30 20:15:30
,wl-rdm,112,330029,0.0-6.104-0.104,0.0,111.0,,,,,,,[],,,,,,62.5,0.0,u,0.0,True,853.1999999284744,52.0,60.0,40.0,False,,232.84677918399092,[],"[768, 432]",ColorTask,43.0,105.0,,,HRV,HRV_0268,2022-11-30 20:15:30
,wl-rdm,113,332111,0.0-6.105-0.105,0.0,112.0,,,,,,,[],,,,,,56.4,0.0,u,0.0,True,745.6000000238419,45.0,60.0,40.0,False,,263.94686677831726,[],"[768, 432]",ColorTask,44.0,106.0,,,HRV,HRV_0268,2022-11-30 20:15:30
,wl-rdm,114,334109,0.0-6.106-0.106,0.0,113.0,,,,,,,[],,,,,,87.9,1.0,i,1.0,True,677.0,41.0,60.0,40.0,False,,234.07651255204803,[],"[768, 432]",ColorTask,45.0,107.0,,,HRV,HRV_0268,2022-11-30 20:15:30
,wl-rdm,115,336074,0.0-6.107-0.107,0.0,114.0,,,,,,,[],,,,,,62.5,1.0,i,1.0,True,577.5,35.0,60.0,40.0,False,,315.8960578889646,[],"[768, 432]",ColorTask,46.0,108.0,,,HRV,HRV_0268,2022-11-30 20:15:30
,wl-rdm,116,339138,0.0-6.108-0.108,0.0,115.0,,,,,,,[],,,,,,53.2,1.0,i,1.0,True,1620.7999999523163,98.0,60.0,40.0,False,,370.9992486197557,[],"[768, 432]",ColorTask,47.0,109.0,,,HRV,HRV_0268,2022-11-30 20:15:30
,wl-rdm,117,341103,0.0-6.109-0.109,0.0,116.0,,,,,,,[],,,,,,62.5,1.0,i,1.0,True,564.9000000953674,34.0,60.0,40.0,False,,317.5918342565765,[],"[768, 432]",ColorTask,48.0,110.0,,,HRV,HRV_0268,2022-11-30 20:15:30
,wl-html-keyboard-response,118,363870,0.0-7.0-0.0,1.0,117.0,,,,,,,,20759.699999928474,1.0,0,,,,,,,,,,,,,,,,,,,,,,HRV,HRV_0268,2022-11-30 20:15:30
,wl-rdm,119,366064,0.0-8.0-0.0,1.0,118.0,,,,,,,[],,,,,,87.9,0.0,u,0.0,True,893.3999998569489,53.0,60.0,40.0,False,,247.45730386887539,[],"[768, 432]",ColorTask,49.0,1.0,,,HRV,HRV_0268,2022-11-30 20:15:30
,wl-rdm,120,368162,0.0-8.1-0.1,1.0,119.0,,,,,,,[],,,,,,62.5,1.0,i,1.0,True,673.9000000953674,41.0,60.0,40.0,False,,336.8765162827351,[],"[768, 432]",ColorTask,50.0,2.0,,,HRV,HRV_0268,2022-11-30 20:15:30
,wl-rdm,121,371244,0.0-8.2-0.2,1.0,120.0,,,,,,,[],,,,,,56.4,0.0,u,0.0,True,1795.7000000476837,108.0,60.0,40.0,False,,232.54489061009292,[],"[768, 432]",ColorTask,51.0,3.0,,,HRV,HRV_0268,2022-11-30 20:15:30
,wl-rdm,122,373608,0.0-8.3-0.3,1.0,121.0,,,,,,,[],,,,,,53.2,1.0,i,1.0,True,910.5,55.0,60.0,40.0,False,,374.51299807824034,[],"[768, 432]",ColorTask,52.0,4.0,,,HRV,HRV_0268,2022-11-30 20:15:30
,wl-rdm,123,376438,0.0-8.4-0.4,1.0,122.0,,,,,,,[],,,,,,50.0,0.0,u,0.0,True,1470.4000000953674,89.0,60.0,40.0,False,,276.3525470363871,[],"[768, 432]",ColorTask,53.0,5.0,,,HRV,HRV_0268,2022-11-30 20:15:30
,wl-rdm,124,378670,0.0-8.5-0.5,1.0,123.0,,,,,,,[],,,,,,56.4,0.0,u,0.0,True,861.2000000476837,52.0,60.0,40.0,False,,292.2615647164682,[],"[768, 432]",ColorTask,54.0,6.0,,,HRV,HRV_0268,2022-11-30 20:15:30
,wl-rdm,125,381185,0.0-8.6-0.6,1.0,124.0,,,,,,,[],,,,,,53.2,0.0,u,0.0,True,1176.8000000715256,71.0,60.0,40.0,False,,252.99910230808868,[],"[768, 432]",ColorTask,55.0,7.0,,,HRV,HRV_0268,2022-11-30 20:15:30
,wl-rdm,126,383216,0.0-8.7-0.7,1.0,125.0,,,,,,,[],,,,,,87.9,0.0,u,0.0,True,747.7000000476837,45.0,60.0,40.0,False,,226.14582385175487,[],"[768, 432]",ColorTask,56.0,8.0,,,HRV,HRV_0268,2022-11-30 20:15:30
,wl-rdm,127,385281,0.0-8.8-0.8,1.0,126.0,,,,,,,[],,,,,,87.9,1.0,i,1.0,True,586.8999999761581,36.0,60.0,40.0,False,,397.5188074027383,[],"[768, 432]",ColorTask,57.0,9.0,,,HRV,HRV_0268,2022-11-30 20:15:30
,wl-rdm,128,388595,0.0-8.9-0.9,1.0,127.0,,,,,,,[],,,,,,56.4,0.0,u,0.0,True,1872.3000000715256,113.0,60.0,40.0,False,,355.24030530826576,[],"[768, 432]",ColorTask,58.0,10.0,,,HRV,HRV_0268,2022-11-30 20:15:30
,wl-rdm,129,390594,0.0-8.10-0.10,1.0,128.0,,,,,,,[],,,,,,56.4,0.0,u,0.0,True,713.2999999523163,43.0,60.0,40.0,False,,200.70294339931135,[],"[768, 432]",ColorTask,59.0,11.0,,,HRV,HRV_0268,2022-11-30 20:15:30
,wl-rdm,130,393025,0.0-8.11-0.11,1.0,129.0,,,,,,,[],,,,,,62.5,1.0,i,1.0,True,1067.7000000476837,65.0,60.0,40.0,False,,269.0141162393984,[],"[768, 432]",ColorTask,60.0,12.0,,,HRV,HRV_0268,2022-11-30 20:15:30
,wl-rdm,131,395256,0.0-8.12-0.12,1.0,130.0,,,,,,,[],,,,,,62.5,0.0,u,0.0,True,855.8000000715256,52.0,60.0,40.0,False,,291.80818540411303,[],"[768, 432]",ColorTask,61.0,13.0,,,HRV,HRV_0268,2022-11-30 20:15:30
,wl-rdm,132,397187,0.0-8.13-0.13,1.0,131.0,,,,,,,[],,,,,,87.9,0.0,u,0.0,True,618.0,38.0,60.0,40.0,False,,231.83192316590402,[],"[768, 432]",ColorTask,62.0,14.0,,,HRV,HRV_0268,2022-11-30 20:15:30
,wl-rdm,133,399819,0.0-8.14-0.14,1.0,132.0,,,,,,,[],,,,,,53.2,1.0,u,0.0,False,1314.3999999761581,80.0,60.0,40.0,False,,223.50714919457022,[],"[768, 432]",ColorTask,61.0,15.0,,,HRV,HRV_0268,2022-11-30 20:15:30
,wl-rdm,134,402252,0.0-8.15-0.15,1.0,133.0,,,,,,,[],,,,,,56.4,1.0,i,1.0,True,976.1000000238419,59.0,60.0,40.0,False,,376.8325378896667,[],"[768, 432]",ColorTask,62.0,16.0,,,HRV,HRV_0268,2022-11-30 20:15:30
,wl-rdm,135,404332,0.0-8.16-0.16,1.0,134.0,,,,,,,[],,,,,,50.0,1.0,i,1.0,True,713.7999999523163,43.0,60.0,40.0,False,,299.26884246893906,[],"[768, 432]",ColorTask,63.0,17.0,,,HRV,HRV_0268,2022-11-30 20:15:30
,wl-rdm,136,407013,0.0-8.17-0.17,1.0,135.0,,,,,,,[],,,,,,50.0,0.0,i,1.0,False,1366.7000000476837,83.0,60.0,40.0,False,,223.031314661055,[],"[768, 432]",ColorTask,62.0,18.0,,,HRV,HRV_0268,2022-11-30 20:15:30
,wl-rdm,137,409876,0.0-8.18-0.18,1.0,136.0,,,,,,,[],,,,,,53.2,1.0,i,1.0,True,1420.1000000238419,86.0,60.0,40.0,False,,363.2205989355448,[],"[768, 432]",ColorTask,63.0,19.0,,,HRV,HRV_0268,2022-11-30 20:15:30
,wl-rdm,138,412391,0.0-8.19-0.19,1.0,137.0,,,,,,,[],,,,,,56.4,0.0,i,1.0,False,1168.8999999761581,71.0,60.0,40.0,False,,259.4343147478931,[],"[768, 432]",ColorTask,62.0,20.0,,,HRV,HRV_0268,2022-11-30 20:15:30
,wl-rdm,139,414639,0.0-8.20-0.20,1.0,138.0,,,,,,,[],,,,,,56.4,1.0,i,1.0,True,861.2000000476837,52.0,60.0,40.0,False,,306.6532343672734,[],"[768, 432]",ColorTask,63.0,21.0,,,HRV,HRV_0268,2022-11-30 20:15:30
,wl-rdm,140,416687,0.0-8.21-0.21,1.0,139.0,,,,,,,[],,,,,,87.9,0.0,u,0.0,True,687.3999999761581,42.0,60.0,40.0,False,,273.0532971544355,[],"[768, 432]",ColorTask,64.0,22.0,,,HRV,HRV_0268,2022-11-30 20:15:30
,wl-rdm,141,419435,0.0-8.22-0.22,1.0,140.0,,,,,,,[],,,,,,56.4,0.0,u,0.0,True,1398.6999999284744,85.0,60.0,40.0,False,,270.33693434533313,[],"[768, 432]",ColorTask,65.0,23.0,,,HRV,HRV_0268,2022-11-30 20:15:30
,wl-rdm,142,422099,0.0-8.23-0.23,1.0,141.0,,,,,,,[],,,,,,53.2,1.0,i,1.0,True,1186.5,72.0,60.0,40.0,False,,399.45849519460126,[],"[768, 432]",ColorTask,66.0,24.0,,,HRV,HRV_0268,2022-11-30 20:15:30
,wl-rdm,143,424431,0.0-8.24-0.24,1.0,142.0,,,,,,,[],,,,,,50.0,0.0,u,0.0,True,953.9999998807907,58.0,60.0,40.0,False,,291.46939291413963,[],"[768, 432]",ColorTask,67.0,25.0,,,HRV,HRV_0268,2022-11-30 20:15:30
,wl-rdm,144,427011,0.0-8.25-0.25,1.0,143.0,,,,,,,[],,,,,,62.5,0.0,u,0.0,True,1157.3999999761581,70.0,60.0,40.0,False,,336.4769072095771,[],"[768, 432]",ColorTask,68.0,26.0,,,HRV,HRV_0268,2022-11-30 20:15:30
,wl-rdm,145,429043,0.0-8.26-0.26,1.0,144.0,,,,,,,[],,,,,,87.9,1.0,i,1.0,True,625.7000000476837,38.0,60.0,40.0,False,,321.85830968737974,[],"[768, 432]",ColorTask,69.0,27.0,,,HRV,HRV_0268,2022-11-30 20:15:30
,wl-rdm,146,431407,0.0-8.27-0.27,1.0,145.0,,,,,,,[],,,,,,73.6,0.0,u,0.0,True,1001.8999999761581,61.0,60.0,40.0,False,,267.420636220387,[],"[768, 432]",ColorTask,70.0,28.0,,,HRV,HRV_0268,2022-11-30 20:15:30
,wl-rdm,147,433556,0.0-8.28-0.28,1.0,146.0,,,,,,,[],,,,,,73.6,0.0,u,0.0,True,689.6000000238419,42.0,60.0,40.0,False,,370.6964070703526,[],"[768, 432]",ColorTask,71.0,29.0,,,HRV,HRV_0268,2022-11-30 20:15:30
,wl-rdm,148,435621,0.0-8.29-0.29,1.0,147.0,,,,,,,[],,,,,,87.9,0.0,u,0.0,True,689.8999999761581,42.0,60.0,40.0,False,,290.2039708342557,[],"[768, 432]",ColorTask,72.0,30.0,,,HRV,HRV_0268,2022-11-30 20:15:30
,wl-rdm,149,437652,0.0-8.30-0.30,1.0,148.0,,,,,,,[],,,,,,87.9,0.0,u,0.0,True,583.5,35.0,60.0,40.0,False,,378.16718728793916,[],"[768, 432]",ColorTask,73.0,31.0,,,HRV,HRV_0268,2022-11-30 20:15:30
,wl-rdm,150,439734,0.0-8.31-0.31,1.0,149.0,,,,,,,[],,,,,,73.6,1.0,i,1.0,True,683.1999999284744,42.0,60.0,40.0,False,,307.531347163487,[],"[768, 432]",ColorTask,74.0,32.0,,,HRV,HRV_0268,2022-11-30 20:15:30
,wl-rdm,151,441682,0.0-8.32-0.32,1.0,150.0,,,,,,,[],,,,,,73.6,1.0,i,1.0,True,646.6000000238419,39.0,60.0,40.0,False,,223.6919087725936,[],"[768, 432]",ColorTask,75.0,33.0,,,HRV,HRV_0268,2022-11-30 20:15:30
,wl-rdm,152,445012,0.0-8.33-0.33,1.0,151.0,,,,,,,[],,,,,,53.2,0.0,i,1.0,False,2021.7999999523163,122.0,60.0,40.0,False,,231.07769491422965,[],"[768, 432]",ColorTask,74.0,34.0,,,HRV,HRV_0268,2022-11-30 20:15:30
,wl-rdm,153,447093,0.0-8.34-0.34,1.0,152.0,,,,,,,[],,,,,,62.5,1.0,i,1.0,True,782.0,47.0,60.0,40.0,False,,224.16448373551222,[],"[768, 432]",ColorTask,75.0,35.0,,,HRV,HRV_0268,2022-11-30 20:15:30
,wl-rdm,154,449058,0.0-8.35-0.35,1.0,153.0,,,,,,,[],,,,,,73.6,0.0,u,0.0,True,523.6000000238419,32.0,60.0,40.0,False,,363.2018004454787,[],"[768, 432]",ColorTask,76.0,36.0,,,HRV,HRV_0268,2022-11-30 20:15:30
,wl-rdm,155,450890,0.0-8.36-0.36,1.0,154.0,,,,,,,[],,,,,,87.9,1.0,i,1.0,True,539.7000000476837,33.0,60.0,40.0,False,,203.5337293011575,[],"[768, 432]",ColorTask,77.0,37.0,,,HRV,HRV_0268,2022-11-30 20:15:30
,wl-rdm,156,453084,0.0-8.37-0.37,1.0,155.0,,,,,,,[],,,,,,62.5,1.0,i,1.0,True,790.3000000715256,48.0,60.0,40.0,False,,313.49819266046893,[],"[768, 432]",ColorTask,78.0,38.0,,,HRV,HRV_0268,2022-11-30 20:15:30
,wl-rdm,157,454953,0.0-8.38-0.38,1.0,156.0,,,,,,,[],,,,,,73.6,1.0,i,1.0,True,562.6999999284744,34.0,60.0,40.0,False,,236.76015964404027,[],"[768, 432]",ColorTask,79.0,39.0,,,HRV,HRV_0268,2022-11-30 20:15:30
,wl-rdm,158,457134,0.0-8.39-0.39,1.0,157.0,,,,,,,[],,,,,,56.4,1.0,i,1.0,True,869.8000000715256,53.0,60.0,40.0,False,,217.59313295682912,[],"[768, 432]",ColorTask,80.0,40.0,,,HRV,HRV_0268,2022-11-30 20:15:30
,wl-rdm,159,459249,0.0-8.40-0.40,1.0,158.0,,,,,,,[],,,,,,50.0,1.0,i,1.0,True,802.2999999523163,49.0,60.0,40.0,False,,217.996330551791,[],"[768, 432]",ColorTask,81.0,41.0,,,HRV,HRV_0268,2022-11-30 20:15:30
,wl-rdm,160,461081,0.0-8.41-0.41,1.0,159.0,,,,,,,[],,,,,,87.9,1.0,i,1.0,True,523.1000000238419,32.0,60.0,40.0,False,,219.53657109054572,[],"[768, 432]",ColorTask,82.0,42.0,,,HRV,HRV_0268,2022-11-30 20:15:30
,wl-rdm,161,463229,0.0-8.42-0.42,1.0,160.0,,,,,,,[],,,,,,62.5,0.0,u,0.0,True,703.5,43.0,60.0,40.0,False,,351.4831554469199,[],"[768, 432]",ColorTask,83.0,43.0,,,HRV,HRV_0268,2022-11-30 20:15:30
,wl-rdm,162,465161,0.0-8.43-0.43,1.0,161.0,,,,,,,[],,,,,,73.6,1.0,i,1.0,True,647.2000000476837,39.0,60.0,40.0,False,,200.6557795836287,[],"[768, 432]",ColorTask,84.0,44.0,,,HRV,HRV_0268,2022-11-30 20:15:30
,wl-rdm,163,468225,0.0-8.44-0.44,1.0,162.0,,,,,,,[],,,,,,62.5,0.0,u,0.0,True,1713.6000000238419,103.0,60.0,40.0,False,,274.30506572039457,[],"[768, 432]",ColorTask,85.0,45.0,,,HRV,HRV_0268,2022-11-30 20:15:30
,wl-rdm,164,470373,0.0-8.45-0.45,1.0,163.0,,,,,,,[],,,,,,50.0,1.0,i,1.0,True,810.1000000238419,49.0,60.0,40.0,False,,265.71755795415163,[],"[768, 432]",ColorTask,86.0,46.0,,,HRV,HRV_0268,2022-11-30 20:15:30
,wl-rdm,165,473254,0.0-8.46-0.46,1.0,164.0,,,,,,,[],,,,,,62.5,0.0,u,0.0,True,1529.6000000238419,92.0,60.0,40.0,False,,271.8888930611288,[],"[768, 432]",ColorTask,87.0,47.0,,,HRV,HRV_0268,2022-11-30 20:15:30
,wl-rdm,166,475269,0.0-8.47-0.47,1.0,165.0,,,,,,,[],,,,,,62.5,1.0,i,1.0,True,673.3000000715256,41.0,60.0,40.0,False,,262.25902596103026,[],"[768, 432]",ColorTask,88.0,48.0,,,HRV,HRV_0268,2022-11-30 20:15:30
,wl-rdm,167,477300,0.0-8.48-0.48,1.0,166.0,,,,,,,[],,,,,,87.9,0.0,u,0.0,True,664.5,40.0,60.0,40.0,False,,288.41570917830524,[],"[768, 432]",ColorTask,89.0,49.0,,,HRV,HRV_0268,2022-11-30 20:15:30
,wl-rdm,168,479465,0.0-8.49-0.49,1.0,167.0,,,,,,,[],,,,,,62.5,1.0,i,1.0,True,839.8999999761581,51.0,60.0,40.0,False,,247.887832942467,[],"[768, 432]",ColorTask,90.0,50.0,,,HRV,HRV_0268,2022-11-30 20:15:30
,wl-rdm,169,481580,0.0-8.50-0.50,1.0,168.0,,,,,,,[],,,,,,56.4,0.0,i,1.0,False,729.1999999284744,44.0,60.0,40.0,False,,304.03796250561004,[],"[768, 432]",ColorTask,89.0,51.0,,,HRV,HRV_0268,2022-11-30 20:15:30
,wl-rdm,170,483828,0.0-8.51-0.51,1.0,169.0,,,,,,,[],,,,,,53.2,0.0,i,1.0,False,815.5,49.0,60.0,40.0,False,,358.6105589573649,[],"[768, 432]",ColorTask,88.0,52.0,,,HRV,HRV_0268,2022-11-30 20:15:30
,wl-rdm,171,485976,0.0-8.52-0.52,1.0,170.0,,,,,,,[],,,,,,56.4,1.0,i,1.0,True,670.6000000238419,41.0,60.0,40.0,False,,386.60735025230326,[],"[768, 432]",ColorTask,89.0,53.0,,,HRV,HRV_0268,2022-11-30 20:15:30
,wl-rdm,172,488075,0.0-8.53-0.53,1.0,171.0,,,,,,,[],,,,,,73.6,1.0,i,1.0,True,806.6000000238419,49.0,60.0,40.0,False,,210.32883808185684,[],"[768, 432]",ColorTask,90.0,54.0,,,HRV,HRV_0268,2022-11-30 20:15:30
,wl-rdm,173,489989,0.0-8.54-0.54,1.0,172.0,,,,,,,[],,,,,,87.9,1.0,i,1.0,True,613.7999999523163,37.0,60.0,40.0,False,,224.0817804307029,[],"[768, 432]",ColorTask,91.0,55.0,,,HRV,HRV_0268,2022-11-30 20:15:30
,wl-rdm,174,492853,0.0-8.55-0.55,1.0,173.0,,,,,,,[],,,,,,53.2,1.0,i,1.0,True,1517.7999999523163,92.0,60.0,40.0,False,,265.8239995393149,[],"[768, 432]",ColorTask,92.0,56.0,,,HRV,HRV_0268,2022-11-30 20:15:30
,wl-rdm,175,495501,0.0-8.56-0.56,1.0,174.0,,,,,,,[],,,,,,53.2,0.0,u,0.0,True,1296.2999999523163,78.0,60.0,40.0,False,,272.1694021486113,[],"[768, 432]",ColorTask,93.0,57.0,,,HRV,HRV_0268,2022-11-30 20:15:30
,wl-rdm,176,497299,0.0-8.57-0.57,1.0,175.0,,,,,,,[],,,,,,53.2,0.0,u,0.0,True,503.90000009536743,31.0,60.0,40.0,False,,205.10765441222233,[],"[768, 432]",ColorTask,94.0,58.0,,,HRV,HRV_0268,2022-11-30 20:15:30
,wl-rdm,177,499267,0.0-8.58-0.58,1.0,176.0,,,,,,,[],,,,,,73.6,0.0,u,0.0,True,504.60000002384186,31.0,60.0,40.0,False,,371.9903281850146,[],"[768, 432]",ColorTask,95.0,59.0,,,HRV,HRV_0268,2022-11-30 20:15:30
,wl-rdm,178,501313,0.0-8.59-0.59,1.0,177.0,,,,,,,[],,,,,,87.9,1.0,i,1.0,True,586.6000000238419,36.0,60.0,40.0,False,,380.74684960822117,[],"[768, 432]",ColorTask,96.0,60.0,,,HRV,HRV_0268,2022-11-30 20:15:30
,wl-rdm,179,503577,0.0-8.60-0.60,1.0,178.0,,,,,,,[],,,,,,50.0,0.0,u,0.0,True,821.0,50.0,60.0,40.0,False,,339.52239551587564,[],"[768, 432]",ColorTask,97.0,61.0,,,HRV,HRV_0268,2022-11-30 20:15:30
,wl-rdm,180,506192,0.0-8.61-0.61,1.0,179.0,,,,,,,[],,,,,,62.5,0.0,u,0.0,True,1318.5,80.0,60.0,40.0,False,,208.29493306217697,[],"[768, 432]",ColorTask,98.0,62.0,,,HRV,HRV_0268,2022-11-30 20:15:30
,wl-rdm,181,508140,0.0-8.62-0.62,1.0,180.0,,,,,,,[],,,,,,87.9,0.0,u,0.0,True,602.8999999761581,37.0,60.0,40.0,False,,263.90751698399276,[],"[768, 432]",ColorTask,99.0,63.0,,,HRV,HRV_0268,2022-11-30 20:15:30
,wl-rdm,182,510721,0.0-8.63-0.63,1.0,181.0,,,,,,,[],,,,,,50.0,1.0,i,1.0,True,1277.0,77.0,60.0,40.0,False,,220.67628001879012,[],"[768, 432]",ColorTask,100.0,64.0,,,HRV,HRV_0268,2022-11-30 20:15:30
,wl-rdm,183,512936,0.0-8.64-0.64,1.0,182.0,,,,,,,[],,,,,,53.2,0.0,i,1.0,False,920.2999999523163,56.0,60.0,40.0,False,,214.80249349864042,[],"[768, 432]",ColorTask,99.0,65.0,,,HRV,HRV_0268,2022-11-30 20:15:30
,wl-rdm,184,515067,0.0-8.65-0.65,1.0,183.0,,,,,,,[],,,,,,73.6,0.0,u,0.0,True,806.7000000476837,49.0,60.0,40.0,False,,253.25593007036952,[],"[768, 432]",ColorTask,100.0,66.0,,,HRV,HRV_0268,2022-11-30 20:15:30
,wl-rdm,185,517199,0.0-8.66-0.66,1.0,184.0,,,,,,,[],,,,,,53.2,1.0,i,1.0,True,828.2000000476837,50.0,60.0,40.0,False,,219.5931324719074,[],"[768, 432]",ColorTask,101.0,67.0,,,HRV,HRV_0268,2022-11-30 20:15:30
,wl-rdm,186,519263,0.0-8.67-0.67,1.0,185.0,,,,,,,[],,,,,,50.0,0.0,i,1.0,False,771.6999999284744,47.0,60.0,40.0,False,,200.12466430693334,[],"[768, 432]",ColorTask,100.0,68.0,,,HRV,HRV_0268,2022-11-30 20:15:30
,wl-rdm,187,521478,0.0-8.68-0.68,1.0,186.0,,,,,,,[],,,,,,62.5,0.0,u,0.0,True,921.0999999046326,56.0,60.0,40.0,False,,208.57845835850947,[],"[768, 432]",ColorTask,101.0,69.0,,,HRV,HRV_0268,2022-11-30 20:15:30
,wl-rdm,188,523610,0.0-8.69-0.69,1.0,187.0,,,,,,,[],,,,,,50.0,1.0,u,0.0,False,771.6000000238419,47.0,60.0,40.0,False,,275.9038404284387,[],"[768, 432]",ColorTask,100.0,70.0,,,HRV,HRV_0268,2022-11-30 20:15:30
,wl-rdm,189,525608,0.0-8.70-0.70,1.0,188.0,,,,,,,[],,,,,,87.9,1.0,i,1.0,True,713.5,43.0,60.0,40.0,False,,206.63801139446423,[],"[768, 432]",ColorTask,101.0,71.0,,,HRV,HRV_0268,2022-11-30 20:15:30
,wl-rdm,190,527573,0.0-8.71-0.71,1.0,189.0,,,,,,,[],,,,,,56.4,1.0,i,1.0,True,646.1999999284744,39.0,60.0,40.0,False,,237.97962320486533,[],"[768, 432]",ColorTask,102.0,72.0,,,HRV,HRV_0268,2022-11-30 20:15:30
,wl-rdm,191,529988,0.0-8.72-0.72,1.0,190.0,,,,,,,[],,,,,,50.0,1.0,i,1.0,True,954.0,58.0,60.0,40.0,False,,378.28425791920904,[],"[768, 432]",ColorTask,103.0,73.0,,,HRV,HRV_0268,2022-11-30 20:15:30
,wl-rdm,192,532103,0.0-8.73-0.73,1.0,191.0,,,,,,,[],,,,,,56.4,1.0,i,1.0,True,758.799999833107,46.0,60.0,40.0,False,,277.20666741777234,[],"[768, 432]",ColorTask,104.0,74.0,,,HRV,HRV_0268,2022-11-30 20:15:30
,wl-rdm,193,534100,0.0-8.74-0.74,1.0,192.0,,,,,,,[],,,,,,62.5,1.0,i,1.0,True,661.0,40.0,60.0,40.0,False,,251.71639534839238,[],"[768, 432]",ColorTask,105.0,75.0,,,HRV,HRV_0268,2022-11-30 20:15:30
,wl-rdm,194,536848,0.0-8.75-0.75,1.0,193.0,,,,,,,[],,,,,,50.0,0.0,i,1.0,False,1440.5,87.0,60.0,40.0,False,,223.77512154763457,[],"[768, 432]",ColorTask,104.0,76.0,,,HRV,HRV_0268,2022-11-30 20:15:30
,wl-rdm,195,539779,0.0-8.76-0.76,1.0,194.0,,,,,,,[],,,,,,53.2,0.0,i,1.0,False,1627.6999999284744,98.0,60.0,40.0,False,,217.0147716042996,[],"[768, 432]",ColorTask,103.0,77.0,,,HRV,HRV_0268,2022-11-30 20:15:30
,wl-rdm,196,542044,0.0-8.77-0.77,1.0,195.0,,,,,,,[],,,,,,73.6,1.0,i,1.0,True,820.4000000953674,50.0,60.0,40.0,False,,352.1869309926325,[],"[768, 432]",ColorTask,104.0,78.0,,,HRV,HRV_0268,2022-11-30 20:15:30
,wl-rdm,197,544175,0.0-8.78-0.78,1.0,196.0,,,,,,,[],,,,,,50.0,1.0,i,1.0,True,839.8999999761581,51.0,60.0,40.0,False,,207.47228447858004,[],"[768, 432]",ColorTask,105.0,79.0,,,HRV,HRV_0268,2022-11-30 20:15:30
,wl-rdm,198,546290,0.0-8.79-0.79,1.0,197.0,,,,,,,[],,,,,,73.6,0.0,u,0.0,True,794.2999999523163,48.0,60.0,40.0,False,,245.5186288302561,[],"[768, 432]",ColorTask,106.0,80.0,,,HRV,HRV_0268,2022-11-30 20:15:30
,wl-rdm,199,548905,0.0-8.80-0.80,1.0,198.0,,,,,,,[],,,,,,50.0,1.0,u,0.0,False,1318.9000000953674,80.0,60.0,40.0,False,,204.02692290576323,[],"[768, 432]",ColorTask,105.0,81.0,,,HRV,HRV_0268,2022-11-30 20:15:30
,wl-rdm,200,551602,0.0-8.81-0.81,1.0,199.0,,,,,,,[],,,,,,62.5,1.0,i,1.0,True,1364.4000000953674,82.0,60.0,40.0,False,,250.19218627333345,[],"[768, 432]",ColorTask,106.0,82.0,,,HRV,HRV_0268,2022-11-30 20:15:30
,wl-rdm,201,553434,0.0-8.82-0.82,1.0,200.0,,,,,,,[],,,,,,73.6,1.0,i,1.0,True,515.2999999523163,31.0,60.0,40.0,False,,242.50126673858878,[],"[768, 432]",ColorTask,107.0,83.0,,,HRV,HRV_0268,2022-11-30 20:15:30
,wl-rdm,202,555582,0.0-8.83-0.83,1.0,201.0,,,,,,,[],,,,,,62.5,0.0,u,0.0,True,813.4000000953674,49.0,60.0,40.0,False,,259.5017644636516,[],"[768, 432]",ColorTask,108.0,84.0,,,HRV,HRV_0268,2022-11-30 20:15:30
,wl-rdm,203,557631,0.0-8.84-0.84,1.0,202.0,,,,,,,[],,,,,,50.0,0.0,u,0.0,True,761.0,46.0,60.0,40.0,False,,209.1366619044711,[],"[768, 432]",ColorTask,109.0,85.0,,,HRV,HRV_0268,2022-11-30 20:15:30
,wl-rdm,204,560827,0.0-8.85-0.85,1.0,203.0,,,,,,,[],,,,,,56.4,1.0,i,1.0,True,1796.4000000953674,108.0,60.0,40.0,False,,326.09500909349464,[],"[768, 432]",ColorTask,110.0,86.0,,,HRV,HRV_0268,2022-11-30 20:15:30
,wl-rdm,205,563708,0.0-8.86-0.86,1.0,204.0,,,,,,,[],,,,,,53.2,1.0,u,0.0,False,1596.7000000476837,96.0,60.0,40.0,False,,202.77466000504006,[],"[768, 432]",ColorTask,109.0,87.0,,,HRV,HRV_0268,2022-11-30 20:15:30
,wl-rdm,206,565623,0.0-8.87-0.87,1.0,205.0,,,,,,,[],,,,,,87.9,0.0,u,0.0,True,605.6000000238419,37.0,60.0,40.0,False,,216.75250265789697,[],"[768, 432]",ColorTask,110.0,88.0,,,HRV,HRV_0268,2022-11-30 20:15:30
,wl-rdm,207,567706,0.0-8.88-0.88,1.0,206.0,,,,,,,[],,,,,,73.6,1.0,i,1.0,True,745.5,45.0,60.0,40.0,False,,250.0553469200447,[],"[768, 432]",ColorTask,111.0,89.0,,,HRV,HRV_0268,2022-11-30 20:15:30
,wl-rdm,208,569720,0.0-8.89-0.89,1.0,207.0,,,,,,,[],,,,,,87.9,1.0,i,1.0,True,598.1000000238419,36.0,60.0,40.0,False,,356.9876690835796,[],"[768, 432]",ColorTask,112.0,90.0,,,HRV,HRV_0268,2022-11-30 20:15:30
,wl-rdm,209,571568,0.0-8.90-0.90,1.0,208.0,,,,,,,[],,,,,,87.9,1.0,i,1.0,True,457.60000002384186,28.0,60.0,40.0,False,,311.1316113399911,[],"[768, 432]",ColorTask,113.0,91.0,,,HRV,HRV_0268,2022-11-30 20:15:30
,wl-rdm,210,573337,0.0-8.91-0.91,1.0,209.0,,,,,,,[],,,,,,56.4,1.0,i,1.0,True,428.2000000476837,26.0,60.0,40.0,False,,253.98035113460628,[],"[768, 432]",ColorTask,114.0,92.0,,,HRV,HRV_0268,2022-11-30 20:15:30
,wl-rdm,211,576414,0.0-8.92-0.92,1.0,210.0,,,,,,,[],,,,,,53.2,1.0,u,0.0,False,1746.6000000238419,104.0,60.0,40.0,False,,251.94217554176484,[],"[768, 432]",ColorTask,113.0,93.0,,,HRV,HRV_0268,2022-11-30 20:15:30
,wl-rdm,212,579045,0.0-8.93-0.93,1.0,211.0,,,,,,,[],,,,,,73.6,0.0,u,0.0,True,1169.4000000953674,71.0,60.0,40.0,False,,361.45395851600534,[],"[768, 432]",ColorTask,114.0,94.0,,,HRV,HRV_0268,2022-11-30 20:15:30
,wl-rdm,213,581310,0.0-8.94-0.94,1.0,212.0,,,,,,,[],,,,,,62.5,1.0,i,1.0,True,788.7000000476837,48.0,60.0,40.0,False,,395.24504292137,[],"[768, 432]",ColorTask,115.0,95.0,,,HRV,HRV_0268,2022-11-30 20:15:30
,wl-rdm,214,582392,0.0-8.95-0.95,1.0,212.0,,,,,,,[],,,,,,56.4,1.0,u,,,507.0,0.0,60.0,40.0,True,too_early ,376.8516992538744,[],"[768, 432]",ColorTask,114.0,96.0,,,HRV,HRV_0268,2022-11-30 20:15:30
,wl-rdm,215,584790,0.0-8.96-0.96,1.0,213.0,,,,,,,[],,,,,,50.0,1.0,u,0.0,False,1113.6999999284744,67.0,60.0,40.0,False,,204.05281334166872,[],"[768, 432]",ColorTask,113.0,97.0,,,HRV,HRV_0268,2022-11-30 20:15:30
,wl-rdm,216,587604,0.0-8.97-0.97,1.0,214.0,,,,,,,[],,,,,,53.2,0.0,i,1.0,False,1383.1000000238419,83.0,60.0,40.0,False,,355.0483326593819,[],"[768, 432]",ColorTask,112.0,98.0,,,HRV,HRV_0268,2022-11-30 20:15:30
,wl-rdm,217,589969,0.0-8.98-0.98,1.0,215.0,,,,,,,[],,,,,,53.2,0.0,i,1.0,False,1075.5999999046326,65.0,60.0,40.0,False,,203.81026309891288,[],"[768, 432]",ColorTask,111.0,99.0,,,HRV,HRV_0268,2022-11-30 20:15:30
,wl-rdm,218,592134,0.0-8.99-0.99,1.0,216.0,,,,,,,[],,,,,,73.6,0.0,u,0.0,True,754.7999999523163,46.0,60.0,40.0,False,,331.2966592903053,[],"[768, 432]",ColorTask,112.0,100.0,,,HRV,HRV_0268,2022-11-30 20:15:30
,wl-rdm,219,594432,0.0-8.100-0.100,1.0,217.0,,,,,,,[],,,,,,53.2,1.0,u,0.0,False,888.1999999284744,54.0,60.0,40.0,False,,328.9407741347735,[],"[768, 432]",ColorTask,111.0,101.0,,,HRV,HRV_0268,2022-11-30 20:15:30
,wl-rdm,220,596430,0.0-8.101-0.101,1.0,218.0,,,,,,,[],,,,,,50.0,0.0,u,0.0,True,714.8000000715256,43.0,60.0,40.0,False,,204.13436746893083,[],"[768, 432]",ColorTask,112.0,102.0,,,HRV,HRV_0268,2022-11-30 20:15:30
,wl-rdm,221,598495,0.0-8.102-0.102,1.0,219.0,,,,,,,[],,,,,,73.6,0.0,u,0.0,True,713.7000000476837,43.0,60.0,40.0,False,,269.53137542518994,[],"[768, 432]",ColorTask,113.0,103.0,,,HRV,HRV_0268,2022-11-30 20:15:30
,wl-rdm,222,600693,0.0-8.103-0.103,1.0,220.0,,,,,,,[],,,,,,50.0,0.0,u,0.0,True,895.7999999523163,54.0,60.0,40.0,False,,231.7767791892415,[],"[768, 432]",ColorTask,114.0,104.0,,,HRV,HRV_0268,2022-11-30 20:15:30
,wl-rdm,223,603291,0.0-8.104-0.104,1.0,221.0,,,,,,,[],,,,,,56.4,0.0,u,0.0,True,1258.2999999523163,76.0,60.0,40.0,False,,263.8595604750077,[],"[768, 432]",ColorTask,115.0,105.0,,,HRV,HRV_0268,2022-11-30 20:15:30
,wl-rdm,224,605206,0.0-8.105-0.105,1.0,222.0,,,,,,,[],,,,,,62.5,0.0,u,0.0,True,619.5,38.0,60.0,40.0,False,,205.60504923460064,[],"[768, 432]",ColorTask,116.0,106.0,,,HRV,HRV_0268,2022-11-30 20:15:30
,wl-rdm,225,607587,0.0-8.106-0.106,1.0,223.0,,,,,,,[],,,,,,56.4,1.0,u,0.0,False,902.6000000238419,55.0,60.0,40.0,False,,395.56910411115587,[],"[768, 432]",ColorTask,115.0,107.0,,,HRV,HRV_0268,2022-11-30 20:15:30
,wl-rdm,226,609735,0.0-8.107-0.107,1.0,224.0,,,,,,,[],,,,,,56.4,0.0,u,0.0,True,677.7000000476837,41.0,60.0,40.0,False,,388.9749496885769,[],"[768, 432]",ColorTask,116.0,108.0,,,HRV,HRV_0268,2022-11-30 20:15:30
,wl-rdm,227,611866,0.0-8.108-0.108,1.0,225.0,,,,,,,[],,,,,,73.6,1.0,i,1.0,True,708.8999999761581,43.0,60.0,40.0,False,,363.5736926473264,[],"[768, 432]",ColorTask,117.0,109.0,,,HRV,HRV_0268,2022-11-30 20:15:30
,wl-html-button-response,228,616446,0.0-9.0-0.0,,,,,,,,,,4575.899999976158,,0,,,,,,,,,,,,,,,,,,,,<h3>End of this session. Thank you!</h3><br>,['Close window'],HRV,HRV_0268,2022-11-30 20:15:30
