trialN,stimuli,trialStartTime,trialStartTime_UNIX,stimulus1,stimulus2,stimulus1Bid,stimulus2Bid,delta,selected,rt,rt_UNIX,rt_perfnow,receivedResponse,rsp,trialEndTime,trialDuration,trialEndTime_UNIX,trialDuration_UNIX,exp,subjectId,date
0,"[{'imgObject': {}, 'id': 'mashed potato', 'src': '/static/foodstim60/mashed potato.jpg', 'key': 'u', 'origWidth': 409, 'origHeight': 409, 'width': 409, 'height': 409, 'widthPercent': 0.45, 'rescaleHeight': False, 'trialN': 0, 'loaded': True, 'loadedTime': 2473.5, 'positionName': 'LEFT', 'positionCoords': [328.28, 227.5], 'bid': 8.47}, {'imgObject': {}, 'id': 'fried eggs', 'src': '/static/foodstim60/fried eggs.jpg', 'key': 'i', 'origWidth': 410, 'origHeight': 410, 'width': 410, 'height': 410, 'widthPercent': 0.45, 'rescaleHeight': False, 'trialN': 0, 'loaded': True, 'loadedTime': 2499.399999976158, 'positionName': 'RIGHT', 'positionCoords': [798.72, 227], 'bid': 4.53}]",2858.0,1669837527300,mashed potato,fried eggs,8.47,4.53,-3.9400000000000004,mashed potato,1270.8999999761581,1272,1271.5,True,u,4636.5,1778.5,1669837529079,1779,HRV,HRV_0268,2022-11-30 19:51:11
1,"[{'imgObject': {}, 'id': 'veggieswithdip', 'src': '/static/foodstim60/veggieswithdip.jpg', 'key': 'u', 'origWidth': 409, 'origHeight': 409, 'width': 409, 'height': 409, 'widthPercent': 0.45, 'rescaleHeight': False, 'trialN': 1, 'loaded': True, 'loadedTime': 2501.5, 'positionName': 'LEFT', 'positionCoords': [328.28, 227.5], 'bid': 7.04}, {'imgObject': {}, 'id': 'hashbrowns', 'src': '/static/foodstim60/hashbrowns.jpg', 'key': 'i', 'origWidth': 411, 'origHeight': 410, 'width': 411, 'height': 410, 'widthPercent': 0.45, 'rescaleHeight': False, 'trialN': 1, 'loaded': True, 'loadedTime': 2502.7999999523163, 'positionName': 'RIGHT', 'positionCoords': [798.72, 227], 'bid': 6.61}]",4636.899999976158,1669837529079,veggieswithdip,hashbrowns,7.04,6.61,-0.4299999999999997,veggieswithdip,1403.1000000238419,1404,1403.6000000238419,True,u,6556.699999928474,1919.7999999523163,1669837530999,1920,HRV,HRV_0268,2022-11-30 19:51:11
2,"[{'imgObject': {}, 'id': 'edamame', 'src': '/static/foodstim60/edamame.jpg', 'key': 'u', 'origWidth': 409, 'origHeight': 410, 'width': 409, 'height': 410, 'widthPercent': 0.45, 'rescaleHeight': False, 'trialN': 2, 'loaded': True, 'loadedTime': 2504.6999999284744, 'positionName': 'LEFT', 'positionCoords': [328.28, 227], 'bid': 4.0600000000000005}, {'imgObject': {}, 'id': 'mango', 'src': '/static/foodstim60/mango.jpg', 'key': 'i', 'origWidth': 411, 'origHeight': 411, 'width': 411, 'height': 411, 'widthPercent': 0.45, 'rescaleHeight': False, 'trialN': 2, 'loaded': True, 'loadedTime': 2506.7999999523163, 'positionName': 'RIGHT', 'positionCoords': [798.72, 226.5], 'bid': 4.08}]",6556.899999976158,1669837530999,edamame,mango,4.0600000000000005,4.08,0.019999999999999574,mango,1129.0,1130,1129.6000000238419,True,i,8205.0,1648.1000000238419,1669837532647,1648,HRV,HRV_0268,2022-11-30 19:51:11
3,"[{'imgObject': {}, 'id': 'granola w milk', 'src': '/static/foodstim60/granola w milk.jpg', 'key': 'u', 'origWidth': 410, 'origHeight': 410, 'width': 410, 'height': 410, 'widthPercent': 0.45, 'rescaleHeight': False, 'trialN': 3, 'loaded': True, 'loadedTime': 2509, 'positionName': 'LEFT', 'positionCoords': [327.28, 227], 'bid': 5.67}, {'imgObject': {}, 'id': 'fruitsalad', 'src': '/static/foodstim60/fruitsalad.jpg', 'key': 'i', 'origWidth': 410, 'origHeight': 410, 'width': 410, 'height': 410, 'widthPercent': 0.45, 'rescaleHeight': False, 'trialN': 3, 'loaded': True, 'loadedTime': 2510.600000023842, 'positionName': 'RIGHT', 'positionCoords': [798.72, 227], 'bid': 6.11}]",8205.5,1669837532648,granola w milk,fruitsalad,5.67,6.11,0.4400000000000004,fruitsalad,730.3999999761581,731,730.7999999523163,True,i,9457.899999976158,1252.3999999761581,1669837533900,1252,HRV,HRV_0268,2022-11-30 19:51:11
4,"[{'imgObject': {}, 'id': 'fruitsalad', 'src': '/static/foodstim60/fruitsalad.jpg', 'key': 'u', 'origWidth': 410, 'origHeight': 410, 'width': 410, 'height': 410, 'widthPercent': 0.45, 'rescaleHeight': False, 'trialN': 4, 'loaded': True, 'loadedTime': 2509.6999999284744, 'positionName': 'LEFT', 'positionCoords': [327.28, 227], 'bid': 6.11}, {'imgObject': {}, 'id': 'cherry tomato', 'src': '/static/foodstim60/cherry tomato.jpg', 'key': 'i', 'origWidth': 410, 'origHeight': 410, 'width': 410, 'height': 410, 'widthPercent': 0.45, 'rescaleHeight': False, 'trialN': 4, 'loaded': True, 'loadedTime': 2512.2999999523163, 'positionName': 'RIGHT', 'positionCoords': [798.72, 227], 'bid': 1.67}]",9458.100000023842,1669837533900,fruitsalad,cherry tomato,6.11,1.67,-4.44,fruitsalad,896.5,897,896.8999999761581,True,u,10865.199999928474,1407.0999999046326,1669837535308,1408,HRV,HRV_0268,2022-11-30 19:51:11
5,"[{'imgObject': {}, 'id': 'chickenfingers', 'src': '/static/foodstim60/chickenfingers.jpg', 'key': 'u', 'origWidth': 410, 'origHeight': 410, 'width': 410, 'height': 410, 'widthPercent': 0.45, 'rescaleHeight': False, 'trialN': 5, 'loaded': True, 'loadedTime': 2512.6999999284744, 'positionName': 'LEFT', 'positionCoords': [327.28, 227], 'bid': 8.120000000000001}, {'imgObject': {}, 'id': 'rigatoni and sauce', 'src': '/static/foodstim60/rigatoni and sauce.jpg', 'key': 'i', 'origWidth': 410, 'origHeight': 411, 'width': 410, 'height': 411, 'widthPercent': 0.45, 'rescaleHeight': False, 'trialN': 5, 'loaded': True, 'loadedTime': 2538.899999976158, 'positionName': 'RIGHT', 'positionCoords': [798.72, 226.5], 'bid': 8.25}]",10865.399999976158,1669837535308,chickenfingers,rigatoni and sauce,8.120000000000001,8.25,0.129999999999999,rigatoni and sauce,1391.2999999523163,1392,1391.7000000476837,True,i,12771.199999928474,1905.7999999523163,1669837537214,1906,HRV,HRV_0268,2022-11-30 19:51:11
6,"[{'imgObject': {}, 'id': 'avocado', 'src': '/static/foodstim60/avocado.jpg', 'key': 'u', 'origWidth': 409, 'origHeight': 409, 'width': 409, 'height': 409, 'widthPercent': 0.45, 'rescaleHeight': False, 'trialN': 6, 'loaded': True, 'loadedTime': 2539.100000023842, 'positionName': 'LEFT', 'positionCoords': [328.28, 227.5], 'bid': 4.0200000000000005}, {'imgObject': {}, 'id': 'cherries', 'src': '/static/foodstim60/cherries.jpg', 'key': 'i', 'origWidth': 410, 'origHeight': 411, 'width': 410, 'height': 411, 'widthPercent': 0.45, 'rescaleHeight': False, 'trialN': 6, 'loaded': True, 'loadedTime': 2586.899999976158, 'positionName': 'RIGHT', 'positionCoords': [798.72, 226.5], 'bid': 2.77}]",12771.600000023842,1669837537214,avocado,cherries,4.0200000000000005,2.77,-1.2500000000000004,avocado,1056.8999999761581,1057,1057.1999999284744,True,u,14339.399999976158,1567.7999999523163,1669837538782,1568,HRV,HRV_0268,2022-11-30 19:51:11
7,"[{'imgObject': {}, 'id': 'blueberries', 'src': '/static/foodstim60/blueberries.jpg', 'key': 'u', 'origWidth': 411, 'origHeight': 411, 'width': 411, 'height': 411, 'widthPercent': 0.45, 'rescaleHeight': False, 'trialN': 7, 'loaded': True, 'loadedTime': 2595.899999976158, 'positionName': 'LEFT', 'positionCoords': [326.28, 226.5], 'bid': 3.46}, {'imgObject': {}, 'id': 'eggs', 'src': '/static/foodstim60/eggs.jpg', 'key': 'i', 'origWidth': 409, 'origHeight': 409, 'width': 409, 'height': 409, 'widthPercent': 0.45, 'rescaleHeight': False, 'trialN': 7, 'loaded': True, 'loadedTime': 2597, 'positionName': 'RIGHT', 'positionCoords': [798.72, 227.5], 'bid': 4.46}]",14339.699999928474,1669837538782,blueberries,eggs,3.46,4.46,1.0,eggs,995.3000000715256,996,995.6000000238419,True,i,15855.399999976158,1515.7000000476837,1669837540298,1516,HRV,HRV_0268,2022-11-30 19:51:11
8,"[{'imgObject': {}, 'id': 'eggsalad', 'src': '/static/foodstim60/eggsalad.jpg', 'key': 'u', 'origWidth': 410, 'origHeight': 409, 'width': 410, 'height': 409, 'widthPercent': 0.45, 'rescaleHeight': False, 'trialN': 8, 'loaded': True, 'loadedTime': 2600.7999999523163, 'positionName': 'LEFT', 'positionCoords': [327.28, 227.5], 'bid': 2.96}, {'imgObject': {}, 'id': 'banana', 'src': '/static/foodstim60/banana.jpg', 'key': 'i', 'origWidth': 410, 'origHeight': 410, 'width': 410, 'height': 410, 'widthPercent': 0.45, 'rescaleHeight': False, 'trialN': 8, 'loaded': True, 'loadedTime': 2604, 'positionName': 'RIGHT', 'positionCoords': [798.72, 227], 'bid': 4.0200000000000005}]",15855.699999928474,1669837540298,eggsalad,banana,2.96,4.0200000000000005,1.0600000000000005,banana,1219.3000000715256,1220,1219.7000000476837,True,i,17585.899999976158,1730.2000000476837,1669837542028,1730,HRV,HRV_0268,2022-11-30 19:51:11
9,"[{'imgObject': {}, 'id': 'sweetpotato', 'src': '/static/foodstim60/sweetpotato.jpg', 'key': 'u', 'origWidth': 410, 'origHeight': 410, 'width': 410, 'height': 410, 'widthPercent': 0.45, 'rescaleHeight': False, 'trialN': 9, 'loaded': True, 'loadedTime': 2609.100000023842, 'positionName': 'LEFT', 'positionCoords': [327.28, 227], 'bid': 2.61}, {'imgObject': {}, 'id': 'raspberries', 'src': '/static/foodstim60/raspberries.jpg', 'key': 'i', 'origWidth': 411, 'origHeight': 411, 'width': 411, 'height': 411, 'widthPercent': 0.45, 'rescaleHeight': False, 'trialN': 9, 'loaded': True, 'loadedTime': 2611.5, 'positionName': 'RIGHT', 'positionCoords': [798.72, 226.5], 'bid': 2.43}]",17586.100000023842,1669837542029,sweetpotato,raspberries,2.61,2.43,-0.17999999999999972,raspberries,1380.2999999523163,1380,1380.8999999761581,True,i,19486.799999952316,1900.6999999284744,1669837543929,1900,HRV,HRV_0268,2022-11-30 19:51:11
10,"[{'imgObject': {}, 'id': 'popsicles', 'src': '/static/foodstim60/popsicles.jpg', 'key': 'u', 'origWidth': 410, 'origHeight': 410, 'width': 410, 'height': 410, 'widthPercent': 0.45, 'rescaleHeight': False, 'trialN': 10, 'loaded': True, 'loadedTime': 2856.6999999284744, 'positionName': 'LEFT', 'positionCoords': [327.28, 227], 'bid': 5.36}, {'imgObject': {}, 'id': 'raisin bran w milk', 'src': '/static/foodstim60/raisin bran w milk.jpg', 'key': 'i', 'origWidth': 411, 'origHeight': 411, 'width': 411, 'height': 411, 'widthPercent': 0.45, 'rescaleHeight': False, 'trialN': 10, 'loaded': True, 'loadedTime': 2615.6999999284744, 'positionName': 'RIGHT', 'positionCoords': [798.72, 226.5], 'bid': 4.0600000000000005}]",19487.100000023842,1669837543930,popsicles,raisin bran w milk,5.36,4.0600000000000005,-1.2999999999999998,popsicles,1573.6999999284744,1574,1574.0,True,u,21565.699999928474,2078.5999999046326,1669837546008,2078,HRV,HRV_0268,2022-11-30 19:51:11
11,"[{'imgObject': {}, 'id': 'mango', 'src': '/static/foodstim60/mango.jpg', 'key': 'u', 'origWidth': 411, 'origHeight': 411, 'width': 411, 'height': 411, 'widthPercent': 0.45, 'rescaleHeight': False, 'trialN': 11, 'loaded': True, 'loadedTime': 2507.1999999284744, 'positionName': 'LEFT', 'positionCoords': [326.28, 226.5], 'bid': 4.08}, {'imgObject': {}, 'id': 'Tribe humus pita', 'src': '/static/foodstim60/Tribe humus pita.jpg', 'key': 'i', 'origWidth': 411, 'origHeight': 411, 'width': 411, 'height': 411, 'widthPercent': 0.45, 'rescaleHeight': False, 'trialN': 11, 'loaded': True, 'loadedTime': 2637.2999999523163, 'positionName': 'RIGHT', 'positionCoords': [798.72, 226.5], 'bid': 2.03}]",21565.899999976158,1669837546008,mango,Tribe humus pita,4.08,2.03,-2.0500000000000003,mango,1147.0,1148,1147.2999999523163,True,u,23232.100000023842,1666.2000000476837,1669837547675,1667,HRV,HRV_0268,2022-11-30 19:51:11
12,"[{'imgObject': {}, 'id': 'chicken nuggets2', 'src': '/static/foodstim60/chicken nuggets2.jpg', 'key': 'u', 'origWidth': 410, 'origHeight': 409, 'width': 410, 'height': 409, 'widthPercent': 0.45, 'rescaleHeight': False, 'trialN': 12, 'loaded': True, 'loadedTime': 2647.899999976158, 'positionName': 'LEFT', 'positionCoords': [327.28, 227.5], 'bid': 8.56}, {'imgObject': {}, 'id': 'sushi w_condiments', 'src': '/static/foodstim60/sushi w_condiments.jpg', 'key': 'i', 'origWidth': 410, 'origHeight': 410, 'width': 410, 'height': 410, 'widthPercent': 0.45, 'rescaleHeight': False, 'trialN': 12, 'loaded': True, 'loadedTime': 2668, 'positionName': 'RIGHT', 'positionCoords': [798.72, 227], 'bid': 7.2}]",23232.399999976158,1669837547675,chicken nuggets2,sushi w_condiments,8.56,7.2,-1.3600000000000003,chicken nuggets2,1178.7000000476837,1179,1179.2000000476837,True,u,24915.699999928474,1683.2999999523163,1669837549358,1683,HRV,HRV_0268,2022-11-30 19:51:11
13,"[{'imgObject': {}, 'id': 'pear', 'src': '/static/foodstim60/pear.jpg', 'key': 'u', 'origWidth': 411, 'origHeight': 410, 'width': 411, 'height': 410, 'widthPercent': 0.45, 'rescaleHeight': False, 'trialN': 13, 'loaded': True, 'loadedTime': 2669.6999999284744, 'positionName': 'LEFT', 'positionCoords': [326.28, 227], 'bid': 6.11}, {'imgObject': {}, 'id': 'hotdog w must', 'src': '/static/foodstim60/hotdog w must.jpg', 'key': 'i', 'origWidth': 409, 'origHeight': 409, 'width': 409, 'height': 409, 'widthPercent': 0.45, 'rescaleHeight': False, 'trialN': 13, 'loaded': True, 'loadedTime': 2678.100000023842, 'positionName': 'RIGHT', 'positionCoords': [798.72, 227.5], 'bid': 5.11}]",24916.399999976158,1669837549359,pear,hotdog w must,6.11,5.11,-1.0,hotdog w must,1627.1000000238419,1628,1627.6000000238419,True,i,27062.899999976158,2146.5,1669837551505,2146,HRV,HRV_0268,2022-11-30 19:51:11
14,"[{'imgObject': {}, 'id': 'turkeysandwich', 'src': '/static/foodstim60/turkeysandwich.jpg', 'key': 'u', 'origWidth': 409, 'origHeight': 409, 'width': 409, 'height': 409, 'widthPercent': 0.45, 'rescaleHeight': False, 'trialN': 14, 'loaded': True, 'loadedTime': 2680.6999999284744, 'positionName': 'LEFT', 'positionCoords': [328.28, 227.5], 'bid': 5.46}, {'imgObject': {}, 'id': 'sushi w_condiments', 'src': '/static/foodstim60/sushi w_condiments.jpg', 'key': 'i', 'origWidth': 410, 'origHeight': 410, 'width': 410, 'height': 410, 'widthPercent': 0.45, 'rescaleHeight': False, 'trialN': 14, 'loaded': True, 'loadedTime': 2653.1999999284744, 'positionName': 'RIGHT', 'positionCoords': [798.72, 227], 'bid': 7.2}]",27063.199999928474,1669837551506,turkeysandwich,sushi w_condiments,5.46,7.2,1.7400000000000002,sushi w_condiments,1153.3000000715256,1153,1153.6000000238419,True,i,28727.199999928474,1664.0,1669837553170,1664,HRV,HRV_0268,2022-11-30 19:51:11
15,"[{'imgObject': {}, 'id': 'avocado', 'src': '/static/foodstim60/avocado.jpg', 'key': 'u', 'origWidth': 409, 'origHeight': 409, 'width': 409, 'height': 409, 'widthPercent': 0.45, 'rescaleHeight': False, 'trialN': 15, 'loaded': True, 'loadedTime': 2541.899999976158, 'positionName': 'LEFT', 'positionCoords': [328.28, 227.5], 'bid': 4.0200000000000005}, {'imgObject': {}, 'id': 'lox', 'src': '/static/foodstim60/lox.jpg', 'key': 'i', 'origWidth': 410, 'origHeight': 411, 'width': 410, 'height': 411, 'widthPercent': 0.45, 'rescaleHeight': False, 'trialN': 15, 'loaded': True, 'loadedTime': 2686.1999999284744, 'positionName': 'RIGHT', 'positionCoords': [798.72, 226.5], 'bid': 2.12}]",28727.699999928474,1669837553170,avocado,lox,4.0200000000000005,2.12,-1.9000000000000004,avocado,1430.9000000953674,1432,1431.4000000953674,True,u,30677.199999928474,1949.5,1669837555120,1950,HRV,HRV_0268,2022-11-30 19:51:11
16,"[{'imgObject': {}, 'id': 'luckycharms', 'src': '/static/foodstim60/luckycharms.jpg', 'key': 'u', 'origWidth': 410, 'origHeight': 409, 'width': 410, 'height': 409, 'widthPercent': 0.45, 'rescaleHeight': False, 'trialN': 16, 'loaded': True, 'loadedTime': 2699.6999999284744, 'positionName': 'LEFT', 'positionCoords': [327.28, 227.5], 'bid': 0.72}, {'imgObject': {}, 'id': 'froot loops w milk', 'src': '/static/foodstim60/froot loops w milk.jpg', 'key': 'i', 'origWidth': 410, 'origHeight': 410, 'width': 410, 'height': 410, 'widthPercent': 0.45, 'rescaleHeight': False, 'trialN': 16, 'loaded': True, 'loadedTime': 2706.2999999523163, 'positionName': 'RIGHT', 'positionCoords': [798.72, 227], 'bid': 0.97}]",30677.299999952316,1669837555120,luckycharms,froot loops w milk,0.72,0.97,0.25,luckycharms,1521.3999999761581,1522,1521.8000000715256,True,u,32712.899999976158,2035.6000000238419,1669837557155,2035,HRV,HRV_0268,2022-11-30 19:51:11
17,"[{'imgObject': {}, 'id': 'froot loops w milk', 'src': '/static/foodstim60/froot loops w milk.jpg', 'key': 'u', 'origWidth': 410, 'origHeight': 410, 'width': 410, 'height': 410, 'widthPercent': 0.45, 'rescaleHeight': False, 'trialN': 17, 'loaded': True, 'loadedTime': 2706.100000023842, 'positionName': 'LEFT', 'positionCoords': [327.28, 227], 'bid': 0.97}, {'imgObject': {}, 'id': 'eggsalad', 'src': '/static/foodstim60/eggsalad.jpg', 'key': 'i', 'origWidth': 410, 'origHeight': 409, 'width': 410, 'height': 409, 'widthPercent': 0.45, 'rescaleHeight': False, 'trialN': 17, 'loaded': True, 'loadedTime': 2600.2999999523163, 'positionName': 'RIGHT', 'positionCoords': [798.72, 227.5], 'bid': 2.96}]",32713.199999928474,1669837557156,froot loops w milk,eggsalad,0.97,2.96,1.99,eggsalad,1718.5,1719,1719.5,True,i,34943.0,2229.8000000715256,1669837559386,2230,HRV,HRV_0268,2022-11-30 19:51:11
18,"[{'imgObject': {}, 'id': 'kiwi', 'src': '/static/foodstim60/kiwi.jpg', 'key': 'u', 'origWidth': 410, 'origHeight': 410, 'width': 410, 'height': 410, 'widthPercent': 0.45, 'rescaleHeight': False, 'trialN': 18, 'loaded': True, 'loadedTime': 2706.2999999523163, 'positionName': 'LEFT', 'positionCoords': [327.28, 227], 'bid': 1.58}, {'imgObject': {}, 'id': 'cherry tomato', 'src': '/static/foodstim60/cherry tomato.jpg', 'key': 'i', 'origWidth': 410, 'origHeight': 410, 'width': 410, 'height': 410, 'widthPercent': 0.45, 'rescaleHeight': False, 'trialN': 18, 'loaded': True, 'loadedTime': 2511.1999999284744, 'positionName': 'RIGHT', 'positionCoords': [798.72, 227], 'bid': 1.67}]",34943.10000002384,1669837559386,kiwi,cherry tomato,1.58,1.67,0.08999999999999986,kiwi,1250.1999999284744,1250,1250.5,True,u,36703.5,1760.3999999761581,1669837561146,1760,HRV,HRV_0268,2022-11-30 19:51:11
19,"[{'imgObject': {}, 'id': 'luckycharms', 'src': '/static/foodstim60/luckycharms.jpg', 'key': 'u', 'origWidth': 410, 'origHeight': 409, 'width': 410, 'height': 409, 'widthPercent': 0.45, 'rescaleHeight': False, 'trialN': 19, 'loaded': True, 'loadedTime': 2704.399999976158, 'positionName': 'LEFT', 'positionCoords': [327.28, 227.5], 'bid': 0.72}, {'imgObject': {}, 'id': 'blueberries', 'src': '/static/foodstim60/blueberries.jpg', 'key': 'i', 'origWidth': 411, 'origHeight': 411, 'width': 411, 'height': 411, 'widthPercent': 0.45, 'rescaleHeight': False, 'trialN': 19, 'loaded': True, 'loadedTime': 2596.1999999284744, 'positionName': 'RIGHT', 'positionCoords': [798.72, 226.5], 'bid': 3.46}]",36704.199999928474,1669837561147,luckycharms,blueberries,0.72,3.46,2.74,blueberries,1004.8000000715256,1005,1005.3000000715256,True,i,38224.299999952316,1520.1000000238419,1669837562667,1520,HRV,HRV_0268,2022-11-30 19:51:11
20,"[{'imgObject': {}, 'id': 'blueberries', 'src': '/static/foodstim60/blueberries.jpg', 'key': 'u', 'origWidth': 411, 'origHeight': 411, 'width': 411, 'height': 411, 'widthPercent': 0.45, 'rescaleHeight': False, 'trialN': 20, 'loaded': True, 'loadedTime': 2593.7999999523163, 'positionName': 'LEFT', 'positionCoords': [326.28, 226.5], 'bid': 3.46}, {'imgObject': {}, 'id': 'sushi w_condiments', 'src': '/static/foodstim60/sushi w_condiments.jpg', 'key': 'i', 'origWidth': 410, 'origHeight': 410, 'width': 410, 'height': 410, 'widthPercent': 0.45, 'rescaleHeight': False, 'trialN': 20, 'loaded': True, 'loadedTime': 2653.1999999284744, 'positionName': 'RIGHT', 'positionCoords': [798.72, 227], 'bid': 7.2}]",38224.39999997616,1669837562667,blueberries,sushi w_condiments,3.46,7.2,3.74,sushi w_condiments,924.3999999761581,925,924.7000000476837,True,i,39661.39999997616,1437.0,1669837564104,1437,HRV,HRV_0268,2022-11-30 19:51:11
21,"[{'imgObject': {}, 'id': 'raspberries', 'src': '/static/foodstim60/raspberries.jpg', 'key': 'u', 'origWidth': 411, 'origHeight': 411, 'width': 411, 'height': 411, 'widthPercent': 0.45, 'rescaleHeight': False, 'trialN': 21, 'loaded': True, 'loadedTime': 2609.7999999523163, 'positionName': 'LEFT', 'positionCoords': [326.28, 226.5], 'bid': 2.43}, {'imgObject': {}, 'id': 'lox', 'src': '/static/foodstim60/lox.jpg', 'key': 'i', 'origWidth': 410, 'origHeight': 411, 'width': 410, 'height': 411, 'widthPercent': 0.45, 'rescaleHeight': False, 'trialN': 21, 'loaded': True, 'loadedTime': 2689.600000023842, 'positionName': 'RIGHT', 'positionCoords': [798.72, 226.5], 'bid': 2.12}]",39661.5,1669837564104,raspberries,lox,2.43,2.12,-0.31000000000000005,raspberries,1666.6000000238419,1667,1666.8999999761581,True,u,41848.89999997616,2187.399999976158,1669837566292,2188,HRV,HRV_0268,2022-11-30 19:51:11
22,"[{'imgObject': {}, 'id': 'blueberries', 'src': '/static/foodstim60/blueberries.jpg', 'key': 'u', 'origWidth': 411, 'origHeight': 411, 'width': 411, 'height': 411, 'widthPercent': 0.45, 'rescaleHeight': False, 'trialN': 22, 'loaded': True, 'loadedTime': 2595.399999976158, 'positionName': 'LEFT', 'positionCoords': [326.28, 226.5], 'bid': 3.46}, {'imgObject': {}, 'id': 'shreddedwheatwithmilk', 'src': '/static/foodstim60/shreddedwheatwithmilk.jpg', 'key': 'i', 'origWidth': 410, 'origHeight': 410, 'width': 410, 'height': 410, 'widthPercent': 0.45, 'rescaleHeight': False, 'trialN': 22, 'loaded': True, 'loadedTime': 2731.6999999284744, 'positionName': 'RIGHT', 'positionCoords': [798.72, 227], 'bid': 3.37}]",41849.199999928474,1669837566292,blueberries,shreddedwheatwithmilk,3.46,3.37,-0.08999999999999986,blueberries,914.7000000476837,915,914.9000000953674,True,u,43266.89999997616,1417.7000000476837,1669837567709,1417,HRV,HRV_0268,2022-11-30 19:51:11
23,"[{'imgObject': {}, 'id': 'Grapes', 'src': '/static/foodstim60/Grapes.jpg', 'key': 'u', 'origWidth': 411, 'origHeight': 411, 'width': 411, 'height': 411, 'widthPercent': 0.45, 'rescaleHeight': False, 'trialN': 23, 'loaded': True, 'loadedTime': 2759.100000023842, 'positionName': 'LEFT', 'positionCoords': [326.28, 226.5], 'bid': 5.3500000000000005}, {'imgObject': {}, 'id': 'popsicles', 'src': '/static/foodstim60/popsicles.jpg', 'key': 'i', 'origWidth': 410, 'origHeight': 410, 'width': 410, 'height': 410, 'widthPercent': 0.45, 'rescaleHeight': False, 'trialN': 23, 'loaded': True, 'loadedTime': 2857, 'positionName': 'RIGHT', 'positionCoords': [798.72, 227], 'bid': 5.36}]",43267.10000002384,1669837567710,Grapes,popsicles,5.3500000000000005,5.36,0.009999999999999787,Grapes,1751.3999999761581,1751,1751.8999999761581,True,u,45529.39999997616,2262.2999999523163,1669837569972,2262,HRV,HRV_0268,2022-11-30 19:51:11
24,"[{'imgObject': {}, 'id': 'turkeysandwich', 'src': '/static/foodstim60/turkeysandwich.jpg', 'key': 'u', 'origWidth': 409, 'origHeight': 409, 'width': 409, 'height': 409, 'widthPercent': 0.45, 'rescaleHeight': False, 'trialN': 24, 'loaded': True, 'loadedTime': 2681.899999976158, 'positionName': 'LEFT', 'positionCoords': [328.28, 227.5], 'bid': 5.46}, {'imgObject': {}, 'id': 'mango', 'src': '/static/foodstim60/mango.jpg', 'key': 'i', 'origWidth': 411, 'origHeight': 411, 'width': 411, 'height': 411, 'widthPercent': 0.45, 'rescaleHeight': False, 'trialN': 24, 'loaded': True, 'loadedTime': 2506.7999999523163, 'positionName': 'RIGHT', 'positionCoords': [798.72, 226.5], 'bid': 4.08}]",45529.60000002384,1669837569972,turkeysandwich,mango,5.46,4.08,-1.38,mango,1802.0999999046326,1803,1802.3999999761581,True,i,47842.699999928474,2313.0999999046326,1669837572285,2313,HRV,HRV_0268,2022-11-30 19:51:11
25,"[{'imgObject': {}, 'id': 'salad w chicken', 'src': '/static/foodstim60/salad w chicken.jpg', 'key': 'u', 'origWidth': 411, 'origHeight': 411, 'width': 411, 'height': 411, 'widthPercent': 0.45, 'rescaleHeight': False, 'trialN': 25, 'loaded': True, 'loadedTime': 2759.399999976158, 'positionName': 'LEFT', 'positionCoords': [326.28, 226.5], 'bid': 9.33}, {'imgObject': {}, 'id': 'chickenfingers', 'src': '/static/foodstim60/chickenfingers.jpg', 'key': 'i', 'origWidth': 410, 'origHeight': 410, 'width': 410, 'height': 410, 'widthPercent': 0.45, 'rescaleHeight': False, 'trialN': 25, 'loaded': True, 'loadedTime': 2514, 'positionName': 'RIGHT', 'positionCoords': [798.72, 227], 'bid': 8.120000000000001}]",47843.10000002384,1669837572286,salad w chicken,chickenfingers,9.33,8.120000000000001,-1.209999999999999,salad w chicken,1260.2999999523163,1260,1260.5999999046326,True,u,49614.0,1770.8999999761581,1669837574057,1771,HRV,HRV_0268,2022-11-30 19:51:11
26,"[{'imgObject': {}, 'id': 'Tribe humus pita', 'src': '/static/foodstim60/Tribe humus pita.jpg', 'key': 'u', 'origWidth': 411, 'origHeight': 411, 'width': 411, 'height': 411, 'widthPercent': 0.45, 'rescaleHeight': False, 'trialN': 26, 'loaded': True, 'loadedTime': 2637.2999999523163, 'positionName': 'LEFT', 'positionCoords': [326.28, 226.5], 'bid': 2.03}, {'imgObject': {}, 'id': 'blueberries', 'src': '/static/foodstim60/blueberries.jpg', 'key': 'i', 'origWidth': 411, 'origHeight': 411, 'width': 411, 'height': 411, 'widthPercent': 0.45, 'rescaleHeight': False, 'trialN': 26, 'loaded': True, 'loadedTime': 2596.5, 'positionName': 'RIGHT', 'positionCoords': [798.72, 226.5], 'bid': 3.46}]",49614.199999928474,1669837574057,Tribe humus pita,blueberries,2.03,3.46,1.4300000000000002,blueberries,835.1000000238419,835,835.7000000476837,True,i,50957.89999997616,1343.7000000476837,1669837575400,1343,HRV,HRV_0268,2022-11-30 19:51:11
27,"[{'imgObject': {}, 'id': 'raisin bran w milk', 'src': '/static/foodstim60/raisin bran w milk.jpg', 'key': 'u', 'origWidth': 411, 'origHeight': 411, 'width': 411, 'height': 411, 'widthPercent': 0.45, 'rescaleHeight': False, 'trialN': 27, 'loaded': True, 'loadedTime': 2630.600000023842, 'positionName': 'LEFT', 'positionCoords': [326.28, 226.5], 'bid': 4.0600000000000005}, {'imgObject': {}, 'id': 'cheerios', 'src': '/static/foodstim60/cheerios.jpg', 'key': 'i', 'origWidth': 409, 'origHeight': 410, 'width': 409, 'height': 410, 'widthPercent': 0.45, 'rescaleHeight': False, 'trialN': 27, 'loaded': True, 'loadedTime': 2764, 'positionName': 'RIGHT', 'positionCoords': [798.72, 227], 'bid': 2}]",50958.10000002384,1669837575401,raisin bran w milk,cheerios,4.0600000000000005,2.0,-2.0600000000000005,raisin bran w milk,940.5,941,941.0999999046326,True,u,52405.60000002384,1447.5,1669837576848,1447,HRV,HRV_0268,2022-11-30 19:51:11
28,"[{'imgObject': {}, 'id': 'strawberries', 'src': '/static/foodstim60/strawberries.jpg', 'key': 'u', 'origWidth': 410, 'origHeight': 410, 'width': 410, 'height': 410, 'widthPercent': 0.45, 'rescaleHeight': False, 'trialN': 28, 'loaded': True, 'loadedTime': 2768.2999999523163, 'positionName': 'LEFT', 'positionCoords': [327.28, 227], 'bid': 6.23}, {'imgObject': {}, 'id': 'hashbrowns', 'src': '/static/foodstim60/hashbrowns.jpg', 'key': 'i', 'origWidth': 411, 'origHeight': 410, 'width': 411, 'height': 410, 'widthPercent': 0.45, 'rescaleHeight': False, 'trialN': 28, 'loaded': True, 'loadedTime': 2503.100000023842, 'positionName': 'RIGHT', 'positionCoords': [798.72, 227], 'bid': 6.61}]",52405.799999952316,1669837576848,strawberries,hashbrowns,6.23,6.61,0.3799999999999999,strawberries,1055.0,1056,1055.5,True,u,53970.89999997616,1565.1000000238419,1669837578413,1565,HRV,HRV_0268,2022-11-30 19:51:11
29,"[{'imgObject': {}, 'id': 'edamame', 'src': '/static/foodstim60/edamame.jpg', 'key': 'u', 'origWidth': 409, 'origHeight': 410, 'width': 409, 'height': 410, 'widthPercent': 0.45, 'rescaleHeight': False, 'trialN': 29, 'loaded': True, 'loadedTime': 2505, 'positionName': 'LEFT', 'positionCoords': [328.28, 227], 'bid': 4.0600000000000005}, {'imgObject': {}, 'id': 'raisin bran w milk', 'src': '/static/foodstim60/raisin bran w milk.jpg', 'key': 'i', 'origWidth': 411, 'origHeight': 411, 'width': 411, 'height': 411, 'widthPercent': 0.45, 'rescaleHeight': False, 'trialN': 29, 'loaded': True, 'loadedTime': 2613.600000023842, 'positionName': 'RIGHT', 'positionCoords': [798.72, 226.5], 'bid': 4.0600000000000005}]",53971.10000002384,1669837578414,edamame,raisin bran w milk,4.0600000000000005,4.0600000000000005,0.0,raisin bran w milk,1642.5999999046326,1643,1643.1999999284744,True,i,56136.699999928474,2165.5999999046326,1669837580579,2165,HRV,HRV_0268,2022-11-30 19:51:11
30,"[{'imgObject': {}, 'id': 'raspberries', 'src': '/static/foodstim60/raspberries.jpg', 'key': 'u', 'origWidth': 411, 'origHeight': 411, 'width': 411, 'height': 411, 'widthPercent': 0.45, 'rescaleHeight': False, 'trialN': 30, 'loaded': True, 'loadedTime': 2613.5, 'positionName': 'LEFT', 'positionCoords': [326.28, 226.5], 'bid': 2.43}, {'imgObject': {}, 'id': 'banana', 'src': '/static/foodstim60/banana.jpg', 'key': 'i', 'origWidth': 410, 'origHeight': 410, 'width': 410, 'height': 410, 'widthPercent': 0.45, 'rescaleHeight': False, 'trialN': 30, 'loaded': True, 'loadedTime': 2604.2999999523163, 'positionName': 'RIGHT', 'positionCoords': [798.72, 227], 'bid': 4.0200000000000005}]",56136.89999997616,1669837580579,raspberries,banana,2.43,4.0200000000000005,1.5900000000000003,banana,1019.8999999761581,1021,1020.3999999761581,True,i,57670.699999928474,1533.7999999523163,1669837582113,1534,HRV,HRV_0268,2022-11-30 19:51:11
31,"[{'imgObject': {}, 'id': 'veggieswithdip', 'src': '/static/foodstim60/veggieswithdip.jpg', 'key': 'u', 'origWidth': 409, 'origHeight': 409, 'width': 409, 'height': 409, 'widthPercent': 0.45, 'rescaleHeight': False, 'trialN': 31, 'loaded': True, 'loadedTime': 2501.5, 'positionName': 'LEFT', 'positionCoords': [328.28, 227.5], 'bid': 7.04}, {'imgObject': {}, 'id': 'Grapes', 'src': '/static/foodstim60/Grapes.jpg', 'key': 'i', 'origWidth': 411, 'origHeight': 411, 'width': 411, 'height': 411, 'widthPercent': 0.45, 'rescaleHeight': False, 'trialN': 31, 'loaded': True, 'loadedTime': 2759.1999999284744, 'positionName': 'RIGHT', 'positionCoords': [798.72, 226.5], 'bid': 5.3500000000000005}]",57671.0,1669837582114,veggieswithdip,Grapes,7.04,5.3500000000000005,-1.6899999999999995,veggieswithdip,1175.6999999284744,1175,1176.0,True,u,59367.10000002384,1696.1000000238419,1669837583810,1696,HRV,HRV_0268,2022-11-30 19:51:11
32,"[{'imgObject': {}, 'id': 'lox', 'src': '/static/foodstim60/lox.jpg', 'key': 'u', 'origWidth': 410, 'origHeight': 411, 'width': 410, 'height': 411, 'widthPercent': 0.45, 'rescaleHeight': False, 'trialN': 32, 'loaded': True, 'loadedTime': 2689.2999999523163, 'positionName': 'LEFT', 'positionCoords': [327.28, 226.5], 'bid': 2.12}, {'imgObject': {}, 'id': 'omelette', 'src': '/static/foodstim60/omelette.jpg', 'key': 'i', 'origWidth': 410, 'origHeight': 409, 'width': 410, 'height': 409, 'widthPercent': 0.45, 'rescaleHeight': False, 'trialN': 32, 'loaded': True, 'loadedTime': 2770.600000023842, 'positionName': 'RIGHT', 'positionCoords': [798.72, 227.5], 'bid': 2.59}]",59367.299999952316,1669837583810,lox,omelette,2.12,2.59,0.46999999999999975,omelette,1456.8999999761581,1457,1457.3000000715256,True,i,61349.89999997616,1982.6000000238419,1669837585792,1982,HRV,HRV_0268,2022-11-30 19:51:11
33,"[{'imgObject': {}, 'id': 'turkey sandwich', 'src': '/static/foodstim60/turkey sandwich.jpg', 'key': 'u', 'origWidth': 409, 'origHeight': 409, 'width': 409, 'height': 409, 'widthPercent': 0.45, 'rescaleHeight': False, 'trialN': 33, 'loaded': True, 'loadedTime': 2772.6999999284744, 'positionName': 'LEFT', 'positionCoords': [328.28, 227.5], 'bid': 6.34}, {'imgObject': {}, 'id': 'sushi w_condiments', 'src': '/static/foodstim60/sushi w_condiments.jpg', 'key': 'i', 'origWidth': 410, 'origHeight': 410, 'width': 410, 'height': 410, 'widthPercent': 0.45, 'rescaleHeight': False, 'trialN': 33, 'loaded': True, 'loadedTime': 2651.399999976158, 'positionName': 'RIGHT', 'positionCoords': [798.72, 227], 'bid': 7.2}]",61350.10000002384,1669837585793,turkey sandwich,sushi w_condiments,6.34,7.2,0.8600000000000003,sushi w_condiments,1180.8999999761581,1181,1181.0999999046326,True,i,63047.0,1696.8999999761581,1669837587490,1697,HRV,HRV_0268,2022-11-30 19:51:11
34,"[{'imgObject': {}, 'id': 'edamame', 'src': '/static/foodstim60/edamame.jpg', 'key': 'u', 'origWidth': 409, 'origHeight': 410, 'width': 409, 'height': 410, 'widthPercent': 0.45, 'rescaleHeight': False, 'trialN': 34, 'loaded': True, 'loadedTime': 2503.6999999284744, 'positionName': 'LEFT', 'positionCoords': [328.28, 227], 'bid': 4.0600000000000005}, {'imgObject': {}, 'id': 'corn cob', 'src': '/static/foodstim60/corn cob.jpg', 'key': 'i', 'origWidth': 411, 'origHeight': 411, 'width': 411, 'height': 411, 'widthPercent': 0.45, 'rescaleHeight': False, 'trialN': 34, 'loaded': True, 'loadedTime': 2774.5, 'positionName': 'RIGHT', 'positionCoords': [798.72, 226.5], 'bid': 3}]",63047.299999952316,1669837587490,edamame,corn cob,4.0600000000000005,3.0,-1.0600000000000005,corn cob,1786.8999999761581,1787,1787.1000000238419,True,i,65346.60000002384,2299.3000000715256,1669837589789,2299,HRV,HRV_0268,2022-11-30 19:51:11
35,"[{'imgObject': {}, 'id': 'cherry tomato', 'src': '/static/foodstim60/cherry tomato.jpg', 'key': 'u', 'origWidth': 410, 'origHeight': 410, 'width': 410, 'height': 410, 'widthPercent': 0.45, 'rescaleHeight': False, 'trialN': 35, 'loaded': True, 'loadedTime': 2512, 'positionName': 'LEFT', 'positionCoords': [327.28, 227], 'bid': 1.67}, {'imgObject': {}, 'id': 'steak', 'src': '/static/foodstim60/steak.jpg', 'key': 'i', 'origWidth': 410, 'origHeight': 410, 'width': 410, 'height': 410, 'widthPercent': 0.45, 'rescaleHeight': False, 'trialN': 35, 'loaded': True, 'loadedTime': 2777.6999999284744, 'positionName': 'RIGHT', 'positionCoords': [798.72, 227], 'bid': 3.34}]",65346.699999928474,1669837589789,cherry tomato,steak,1.67,3.34,1.67,steak,1292.9000000953674,1294,1293.5,True,i,67159.29999995232,1812.6000000238419,1669837591602,1813,HRV,HRV_0268,2022-11-30 19:51:11
36,"[{'imgObject': {}, 'id': 'lox', 'src': '/static/foodstim60/lox.jpg', 'key': 'u', 'origWidth': 410, 'origHeight': 411, 'width': 410, 'height': 411, 'widthPercent': 0.45, 'rescaleHeight': False, 'trialN': 36, 'loaded': True, 'loadedTime': 2699.6999999284744, 'positionName': 'LEFT', 'positionCoords': [327.28, 226.5], 'bid': 2.12}, {'imgObject': {}, 'id': 'eggs', 'src': '/static/foodstim60/eggs.jpg', 'key': 'i', 'origWidth': 409, 'origHeight': 409, 'width': 409, 'height': 409, 'widthPercent': 0.45, 'rescaleHeight': False, 'trialN': 36, 'loaded': True, 'loadedTime': 2598.399999976158, 'positionName': 'RIGHT', 'positionCoords': [798.72, 227.5], 'bid': 4.46}]",67159.29999995232,1669837591602,lox,eggs,2.12,4.46,2.34,eggs,1351.7000000476837,1352,1352.0,True,i,69025.5,1866.2000000476837,1669837593468,1866,HRV,HRV_0268,2022-11-30 19:51:11
37,"[{'imgObject': {}, 'id': 'kiwi', 'src': '/static/foodstim60/kiwi.jpg', 'key': 'u', 'origWidth': 410, 'origHeight': 410, 'width': 410, 'height': 410, 'widthPercent': 0.45, 'rescaleHeight': False, 'trialN': 37, 'loaded': True, 'loadedTime': 2707, 'positionName': 'LEFT', 'positionCoords': [327.28, 227], 'bid': 1.58}, {'imgObject': {}, 'id': 'omelette', 'src': '/static/foodstim60/omelette.jpg', 'key': 'i', 'origWidth': 410, 'origHeight': 409, 'width': 410, 'height': 409, 'widthPercent': 0.45, 'rescaleHeight': False, 'trialN': 37, 'loaded': True, 'loadedTime': 2770.1999999284744, 'positionName': 'RIGHT', 'positionCoords': [798.72, 227.5], 'bid': 2.59}]",69025.69999992847,1669837593468,kiwi,omelette,1.58,2.59,1.0099999999999998,kiwi,1059.1000000238419,1060,1059.6000000238419,True,u,70598.5,1572.8000000715256,1669837595041,1573,HRV,HRV_0268,2022-11-30 19:51:11
38,"[{'imgObject': {}, 'id': 'turkey sandwich', 'src': '/static/foodstim60/turkey sandwich.jpg', 'key': 'u', 'origWidth': 409, 'origHeight': 409, 'width': 409, 'height': 409, 'widthPercent': 0.45, 'rescaleHeight': False, 'trialN': 38, 'loaded': True, 'loadedTime': 2773.2999999523163, 'positionName': 'LEFT', 'positionCoords': [328.28, 227.5], 'bid': 6.34}, {'imgObject': {}, 'id': 'ice cream sundae 002', 'src': '/static/foodstim60/ice cream sundae 002.jpg', 'key': 'i', 'origWidth': 409, 'origHeight': 409, 'width': 409, 'height': 409, 'widthPercent': 0.45, 'rescaleHeight': False, 'trialN': 38, 'loaded': True, 'loadedTime': 2784.5, 'positionName': 'RIGHT', 'positionCoords': [798.72, 227.5], 'bid': 6.49}]",70598.79999995232,1669837595041,turkey sandwich,ice cream sundae 002,6.34,6.49,0.15000000000000036,ice cream sundae 002,1173.0,1174,1173.7000000476837,True,i,72288.89999997616,1690.1000000238419,1669837596731,1690,HRV,HRV_0268,2022-11-30 19:51:11
39,"[{'imgObject': {}, 'id': 'grilled chicken strips', 'src': '/static/foodstim60/grilled chicken strips.jpg', 'key': 'u', 'origWidth': 410, 'origHeight': 411, 'width': 410, 'height': 411, 'widthPercent': 0.45, 'rescaleHeight': False, 'trialN': 39, 'loaded': True, 'loadedTime': 2798.7999999523163, 'positionName': 'LEFT', 'positionCoords': [327.28, 226.5], 'bid': 6.11}, {'imgObject': {}, 'id': 'yogurt no spoon', 'src': '/static/foodstim60/yogurt no spoon.jpg', 'key': 'i', 'origWidth': 411, 'origHeight': 410, 'width': 411, 'height': 410, 'widthPercent': 0.45, 'rescaleHeight': False, 'trialN': 39, 'loaded': True, 'loadedTime': 2799.2999999523163, 'positionName': 'RIGHT', 'positionCoords': [798.72, 227], 'bid': 6.49}]",72289.10000002384,1669837596732,grilled chicken strips,yogurt no spoon,6.11,6.49,0.3799999999999999,yogurt no spoon,1520.2999999523163,1520,1520.5,True,i,74320.5,2031.3999999761581,1669837598763,2031,HRV,HRV_0268,2022-11-30 19:51:11
40,"[{'imgObject': {}, 'id': 'cheerios', 'src': '/static/foodstim60/cheerios.jpg', 'key': 'u', 'origWidth': 409, 'origHeight': 410, 'width': 409, 'height': 410, 'widthPercent': 0.45, 'rescaleHeight': False, 'trialN': 40, 'loaded': True, 'loadedTime': 2761.5, 'positionName': 'LEFT', 'positionCoords': [328.28, 227], 'bid': 2}, {'imgObject': {}, 'id': 'Tribe humus pita', 'src': '/static/foodstim60/Tribe humus pita.jpg', 'key': 'i', 'origWidth': 411, 'origHeight': 411, 'width': 411, 'height': 411, 'widthPercent': 0.45, 'rescaleHeight': False, 'trialN': 40, 'loaded': True, 'loadedTime': 2637.399999976158, 'positionName': 'RIGHT', 'positionCoords': [798.72, 226.5], 'bid': 2.03}]",74320.69999992847,1669837598763,cheerios,Tribe humus pita,2.0,2.03,0.029999999999999805,cheerios,1376.3000000715256,1377,1376.9000000953674,True,u,76205.60000002384,1884.9000000953674,1669837600648,1885,HRV,HRV_0268,2022-11-30 19:51:11
41,"[{'imgObject': {}, 'id': 'hotdog w must', 'src': '/static/foodstim60/hotdog w must.jpg', 'key': 'u', 'origWidth': 409, 'origHeight': 409, 'width': 409, 'height': 409, 'widthPercent': 0.45, 'rescaleHeight': False, 'trialN': 41, 'loaded': True, 'loadedTime': 2678.899999976158, 'positionName': 'LEFT', 'positionCoords': [328.28, 227.5], 'bid': 5.11}, {'imgObject': {}, 'id': 'roastedpotatoes', 'src': '/static/foodstim60/roastedpotatoes.jpg', 'key': 'i', 'origWidth': 409, 'origHeight': 410, 'width': 409, 'height': 410, 'widthPercent': 0.45, 'rescaleHeight': False, 'trialN': 41, 'loaded': True, 'loadedTime': 2802.5, 'positionName': 'RIGHT', 'positionCoords': [798.72, 227], 'bid': 5.26}]",76205.79999995232,1669837600648,hotdog w must,roastedpotatoes,5.11,5.26,0.14999999999999947,hotdog w must,1673.8999999761581,1675,1674.2000000476837,True,u,78389.69999992847,2183.899999976158,1669837602832,2184,HRV,HRV_0268,2022-11-30 19:51:11
42,"[{'imgObject': {}, 'id': 'eggsalad', 'src': '/static/foodstim60/eggsalad.jpg', 'key': 'u', 'origWidth': 410, 'origHeight': 409, 'width': 410, 'height': 409, 'widthPercent': 0.45, 'rescaleHeight': False, 'trialN': 42, 'loaded': True, 'loadedTime': 2601.100000023842, 'positionName': 'LEFT', 'positionCoords': [327.28, 227.5], 'bid': 2.96}, {'imgObject': {}, 'id': 'hotdog w must', 'src': '/static/foodstim60/hotdog w must.jpg', 'key': 'i', 'origWidth': 409, 'origHeight': 409, 'width': 409, 'height': 409, 'widthPercent': 0.45, 'rescaleHeight': False, 'trialN': 42, 'loaded': True, 'loadedTime': 2679.7999999523163, 'positionName': 'RIGHT', 'positionCoords': [798.72, 227.5], 'bid': 5.11}]",78389.89999997616,1669837602832,eggsalad,hotdog w must,2.96,5.11,2.1500000000000004,hotdog w must,1051.7999999523163,1053,1052.2000000476837,True,i,79949.29999995232,1559.3999999761581,1669837604392,1560,HRV,HRV_0268,2022-11-30 19:51:11
43,"[{'imgObject': {}, 'id': 'banana', 'src': '/static/foodstim60/banana.jpg', 'key': 'u', 'origWidth': 410, 'origHeight': 410, 'width': 410, 'height': 410, 'widthPercent': 0.45, 'rescaleHeight': False, 'trialN': 43, 'loaded': True, 'loadedTime': 2605.600000023842, 'positionName': 'LEFT', 'positionCoords': [327.28, 227], 'bid': 4.0200000000000005}, {'imgObject': {}, 'id': 'blueberries', 'src': '/static/foodstim60/blueberries.jpg', 'key': 'i', 'origWidth': 411, 'origHeight': 411, 'width': 411, 'height': 411, 'widthPercent': 0.45, 'rescaleHeight': False, 'trialN': 43, 'loaded': True, 'loadedTime': 2596.6999999284744, 'positionName': 'RIGHT', 'positionCoords': [798.72, 226.5], 'bid': 3.46}]",79949.5,1669837604392,banana,blueberries,4.0200000000000005,3.46,-0.5600000000000005,banana,1228.1000000238419,1228,1228.2999999523163,True,u,81693.89999997616,1744.3999999761581,1669837606136,1744,HRV,HRV_0268,2022-11-30 19:51:11
44,"[{'imgObject': {}, 'id': 'fruitsalad', 'src': '/static/foodstim60/fruitsalad.jpg', 'key': 'u', 'origWidth': 410, 'origHeight': 410, 'width': 410, 'height': 410, 'widthPercent': 0.45, 'rescaleHeight': False, 'trialN': 44, 'loaded': True, 'loadedTime': 2510.6999999284744, 'positionName': 'LEFT', 'positionCoords': [327.28, 227], 'bid': 6.11}, {'imgObject': {}, 'id': 'pear', 'src': '/static/foodstim60/pear.jpg', 'key': 'i', 'origWidth': 411, 'origHeight': 410, 'width': 411, 'height': 410, 'widthPercent': 0.45, 'rescaleHeight': False, 'trialN': 44, 'loaded': True, 'loadedTime': 2669.2999999523163, 'positionName': 'RIGHT', 'positionCoords': [798.72, 227], 'bid': 6.11}]",81694.19999992847,1669837606137,fruitsalad,pear,6.11,6.11,0.0,fruitsalad,988.3000000715256,989,988.8000000715256,True,u,83236.10000002384,1541.9000000953674,1669837607679,1542,HRV,HRV_0268,2022-11-30 19:51:11
45,"[{'imgObject': {}, 'id': 'kiwi', 'src': '/static/foodstim60/kiwi.jpg', 'key': 'u', 'origWidth': 410, 'origHeight': 410, 'width': 410, 'height': 410, 'widthPercent': 0.45, 'rescaleHeight': False, 'trialN': 45, 'loaded': True, 'loadedTime': 2707.2999999523163, 'positionName': 'LEFT', 'positionCoords': [327.28, 227], 'bid': 1.58}, {'imgObject': {}, 'id': 'cheerios', 'src': '/static/foodstim60/cheerios.jpg', 'key': 'i', 'origWidth': 409, 'origHeight': 410, 'width': 409, 'height': 410, 'widthPercent': 0.45, 'rescaleHeight': False, 'trialN': 45, 'loaded': True, 'loadedTime': 2762.5, 'positionName': 'RIGHT', 'positionCoords': [798.72, 227], 'bid': 2}]",83236.29999995232,1669837607679,kiwi,cheerios,1.58,2.0,0.41999999999999993,kiwi,1377.5,1378,1377.8000000715256,True,u,85123.60000002384,1887.3000000715256,1669837609566,1887,HRV,HRV_0268,2022-11-30 19:51:11
46,"[{'imgObject': {}, 'id': 'seaweed', 'src': '/static/foodstim60/seaweed.jpg', 'key': 'u', 'origWidth': 410, 'origHeight': 410, 'width': 410, 'height': 410, 'widthPercent': 0.45, 'rescaleHeight': False, 'trialN': 46, 'loaded': True, 'loadedTime': 2810.1999999284744, 'positionName': 'LEFT', 'positionCoords': [327.28, 227], 'bid': 0.54}, {'imgObject': {}, 'id': 'froot loops w milk', 'src': '/static/foodstim60/froot loops w milk.jpg', 'key': 'i', 'origWidth': 410, 'origHeight': 410, 'width': 410, 'height': 410, 'widthPercent': 0.45, 'rescaleHeight': False, 'trialN': 46, 'loaded': True, 'loadedTime': 2706.100000023842, 'positionName': 'RIGHT', 'positionCoords': [798.72, 227], 'bid': 0.97}]",85124.0,1669837609567,seaweed,froot loops w milk,0.54,0.97,0.42999999999999994,froot loops w milk,1016.6000000238419,1017,1016.7999999523163,True,i,86658.79999995232,1534.7999999523163,1669837611101,1534,HRV,HRV_0268,2022-11-30 19:51:11
47,"[{'imgObject': {}, 'id': 'Grapes', 'src': '/static/foodstim60/Grapes.jpg', 'key': 'u', 'origWidth': 411, 'origHeight': 411, 'width': 411, 'height': 411, 'widthPercent': 0.45, 'rescaleHeight': False, 'trialN': 47, 'loaded': True, 'loadedTime': 2755.5, 'positionName': 'LEFT', 'positionCoords': [326.28, 226.5], 'bid': 5.3500000000000005}, {'imgObject': {}, 'id': 'hotdog w must', 'src': '/static/foodstim60/hotdog w must.jpg', 'key': 'i', 'origWidth': 409, 'origHeight': 409, 'width': 409, 'height': 409, 'widthPercent': 0.45, 'rescaleHeight': False, 'trialN': 47, 'loaded': True, 'loadedTime': 2679.2999999523163, 'positionName': 'RIGHT', 'positionCoords': [798.72, 227.5], 'bid': 5.11}]",86659.0,1669837611102,Grapes,hotdog w must,5.3500000000000005,5.11,-0.2400000000000002,hotdog w must,1526.5,1527,1526.8999999761581,True,i,88704.39999997616,2045.3999999761581,1669837613147,2045,HRV,HRV_0268,2022-11-30 19:51:11
48,"[{'imgObject': {}, 'id': 'mac & cheese', 'src': '/static/foodstim60/mac & cheese.jpg', 'key': 'u', 'origWidth': 410, 'origHeight': 410, 'width': 410, 'height': 410, 'widthPercent': 0.45, 'rescaleHeight': False, 'trialN': 48, 'loaded': True, 'loadedTime': 2814.7999999523163, 'positionName': 'LEFT', 'positionCoords': [327.28, 227], 'bid': 7.72}, {'imgObject': {}, 'id': 'burger', 'src': '/static/foodstim60/burger.jpg', 'key': 'i', 'origWidth': 409, 'origHeight': 409, 'width': 409, 'height': 409, 'widthPercent': 0.45, 'rescaleHeight': False, 'trialN': 48, 'loaded': True, 'loadedTime': 2816.5, 'positionName': 'RIGHT', 'positionCoords': [798.72, 227.5], 'bid': 7.51}]",88704.5,1669837613147,mac & cheese,burger,7.72,7.51,-0.20999999999999996,burger,1375.5,1376,1375.7999999523163,True,i,90588.10000002384,1883.6000000238419,1669837615031,1884,HRV,HRV_0268,2022-11-30 19:51:11
49,"[{'imgObject': {}, 'id': 'banana', 'src': '/static/foodstim60/banana.jpg', 'key': 'u', 'origWidth': 410, 'origHeight': 410, 'width': 410, 'height': 410, 'widthPercent': 0.45, 'rescaleHeight': False, 'trialN': 49, 'loaded': True, 'loadedTime': 2601.6999999284744, 'positionName': 'LEFT', 'positionCoords': [327.28, 227], 'bid': 4.0200000000000005}, {'imgObject': {}, 'id': 'burger', 'src': '/static/foodstim60/burger.jpg', 'key': 'i', 'origWidth': 409, 'origHeight': 409, 'width': 409, 'height': 409, 'widthPercent': 0.45, 'rescaleHeight': False, 'trialN': 49, 'loaded': True, 'loadedTime': 2816.2999999523163, 'positionName': 'RIGHT', 'positionCoords': [798.72, 227.5], 'bid': 7.51}]",90588.60000002384,1669837615031,banana,burger,4.0200000000000005,7.51,3.4899999999999993,burger,1376.5,1377,1376.7999999523163,True,i,92470.69999992847,1882.0999999046326,1669837616913,1882,HRV,HRV_0268,2022-11-30 19:51:11
50,"[{'imgObject': {}, 'id': 'grilled chicken strips', 'src': '/static/foodstim60/grilled chicken strips.jpg', 'key': 'u', 'origWidth': 410, 'origHeight': 411, 'width': 410, 'height': 411, 'widthPercent': 0.45, 'rescaleHeight': False, 'trialN': 50, 'loaded': True, 'loadedTime': 2785.899999976158, 'positionName': 'LEFT', 'positionCoords': [327.28, 226.5], 'bid': 6.11}, {'imgObject': {}, 'id': 'mac & cheese', 'src': '/static/foodstim60/mac & cheese.jpg', 'key': 'i', 'origWidth': 410, 'origHeight': 410, 'width': 410, 'height': 410, 'widthPercent': 0.45, 'rescaleHeight': False, 'trialN': 50, 'loaded': True, 'loadedTime': 2814.6999999284744, 'positionName': 'RIGHT', 'positionCoords': [798.72, 227], 'bid': 7.72}]",92470.89999997616,1669837616913,grilled chicken strips,mac & cheese,6.11,7.72,1.6099999999999994,grilled chicken strips,1975.0,1976,1975.2999999523163,True,u,94954.10000002384,2483.2000000476837,1669837619397,2484,HRV,HRV_0268,2022-11-30 19:51:11
51,"[{'imgObject': {}, 'id': 'shreddedwheatwithmilk', 'src': '/static/foodstim60/shreddedwheatwithmilk.jpg', 'key': 'u', 'origWidth': 410, 'origHeight': 410, 'width': 410, 'height': 410, 'widthPercent': 0.45, 'rescaleHeight': False, 'trialN': 51, 'loaded': True, 'loadedTime': 2732.899999976158, 'positionName': 'LEFT', 'positionCoords': [327.28, 227], 'bid': 3.37}, {'imgObject': {}, 'id': 'cheerios', 'src': '/static/foodstim60/cheerios.jpg', 'key': 'i', 'origWidth': 409, 'origHeight': 410, 'width': 409, 'height': 410, 'widthPercent': 0.45, 'rescaleHeight': False, 'trialN': 51, 'loaded': True, 'loadedTime': 2764.1999999284744, 'positionName': 'RIGHT', 'positionCoords': [798.72, 227], 'bid': 2}]",94954.19999992847,1669837619397,shreddedwheatwithmilk,cheerios,3.37,2.0,-1.37,cheerios,1374.4000000953674,1375,1375.4000000953674,True,i,96837.89999997616,1883.7000000476837,1669837621281,1884,HRV,HRV_0268,2022-11-30 19:51:11
52,"[{'imgObject': {}, 'id': 'veggieswithdip', 'src': '/static/foodstim60/veggieswithdip.jpg', 'key': 'u', 'origWidth': 409, 'origHeight': 409, 'width': 409, 'height': 409, 'widthPercent': 0.45, 'rescaleHeight': False, 'trialN': 52, 'loaded': True, 'loadedTime': 2501, 'positionName': 'LEFT', 'positionCoords': [328.28, 227.5], 'bid': 7.04}, {'imgObject': {}, 'id': 'steak', 'src': '/static/foodstim60/steak.jpg', 'key': 'i', 'origWidth': 410, 'origHeight': 410, 'width': 410, 'height': 410, 'widthPercent': 0.45, 'rescaleHeight': False, 'trialN': 52, 'loaded': True, 'loadedTime': 2780.2999999523163, 'positionName': 'RIGHT', 'positionCoords': [798.72, 227], 'bid': 3.34}]",96838.10000002384,1669837621281,veggieswithdip,steak,7.04,3.34,-3.7,veggieswithdip,1674.5,1675,1674.7999999523163,True,u,99031.29999995232,2193.1999999284744,1669837623474,2193,HRV,HRV_0268,2022-11-30 19:51:11
53,"[{'imgObject': {}, 'id': 'apple slices', 'src': '/static/foodstim60/apple slices.jpg', 'key': 'u', 'origWidth': 409, 'origHeight': 410, 'width': 409, 'height': 410, 'widthPercent': 0.45, 'rescaleHeight': False, 'trialN': 53, 'loaded': True, 'loadedTime': 2818, 'positionName': 'LEFT', 'positionCoords': [328.28, 227], 'bid': 6.3}, {'imgObject': {}, 'id': 'blackbeanswithrice', 'src': '/static/foodstim60/blackbeanswithrice.jpg', 'key': 'i', 'origWidth': 410, 'origHeight': 410, 'width': 410, 'height': 410, 'widthPercent': 0.45, 'rescaleHeight': False, 'trialN': 53, 'loaded': True, 'loadedTime': 2818.2999999523163, 'positionName': 'RIGHT', 'positionCoords': [798.72, 227], 'bid': 6.17}]",99031.39999997616,1669837623474,apple slices,blackbeanswithrice,6.3,6.17,-0.1299999999999999,blackbeanswithrice,1319.7999999523163,1320,1320.1000000238419,True,i,100860.0,1828.6000000238419,1669837625303,1829,HRV,HRV_0268,2022-11-30 19:51:11
54,"[{'imgObject': {}, 'id': 'veggieswithdip', 'src': '/static/foodstim60/veggieswithdip.jpg', 'key': 'u', 'origWidth': 409, 'origHeight': 409, 'width': 409, 'height': 409, 'widthPercent': 0.45, 'rescaleHeight': False, 'trialN': 54, 'loaded': True, 'loadedTime': 2501.600000023842, 'positionName': 'LEFT', 'positionCoords': [328.28, 227.5], 'bid': 7.04}, {'imgObject': {}, 'id': 'apple slices', 'src': '/static/foodstim60/apple slices.jpg', 'key': 'i', 'origWidth': 409, 'origHeight': 410, 'width': 409, 'height': 410, 'widthPercent': 0.45, 'rescaleHeight': False, 'trialN': 54, 'loaded': True, 'loadedTime': 2817.600000023842, 'positionName': 'RIGHT', 'positionCoords': [798.72, 227], 'bid': 6.3}]",100860.19999992847,1669837625303,veggieswithdip,apple slices,7.04,6.3,-0.7400000000000002,veggieswithdip,1133.7000000476837,1134,1134.0,True,u,102508.79999995232,1648.6000000238419,1669837626951,1648,HRV,HRV_0268,2022-11-30 19:51:11
55,"[{'imgObject': {}, 'id': 'lox', 'src': '/static/foodstim60/lox.jpg', 'key': 'u', 'origWidth': 410, 'origHeight': 411, 'width': 410, 'height': 411, 'widthPercent': 0.45, 'rescaleHeight': False, 'trialN': 55, 'loaded': True, 'loadedTime': 2688.6999999284744, 'positionName': 'LEFT', 'positionCoords': [327.28, 226.5], 'bid': 2.12}, {'imgObject': {}, 'id': 'strawberries', 'src': '/static/foodstim60/strawberries.jpg', 'key': 'i', 'origWidth': 410, 'origHeight': 410, 'width': 410, 'height': 410, 'widthPercent': 0.45, 'rescaleHeight': False, 'trialN': 55, 'loaded': True, 'loadedTime': 2767.7999999523163, 'positionName': 'RIGHT', 'positionCoords': [798.72, 227], 'bid': 6.23}]",102509.10000002384,1669837626952,lox,strawberries,2.12,6.23,4.11,strawberries,1038.8999999761581,1039,1039.1999999284744,True,i,104052.29999995232,1543.1999999284744,1669837628495,1543,HRV,HRV_0268,2022-11-30 19:51:11
56,"[{'imgObject': {}, 'id': 'olives', 'src': '/static/foodstim60/olives.jpg', 'key': 'u', 'origWidth': 410, 'origHeight': 410, 'width': 410, 'height': 410, 'widthPercent': 0.45, 'rescaleHeight': False, 'trialN': 56, 'loaded': True, 'loadedTime': 2821.2999999523163, 'positionName': 'LEFT', 'positionCoords': [327.28, 227], 'bid': 0.1}, {'imgObject': {}, 'id': 'steak', 'src': '/static/foodstim60/steak.jpg', 'key': 'i', 'origWidth': 410, 'origHeight': 410, 'width': 410, 'height': 410, 'widthPercent': 0.45, 'rescaleHeight': False, 'trialN': 56, 'loaded': True, 'loadedTime': 2779.1999999284744, 'positionName': 'RIGHT', 'positionCoords': [798.72, 227], 'bid': 3.34}]",104052.39999997616,1669837628495,olives,steak,0.1,3.34,3.2399999999999998,steak,955.7000000476837,956,956.0,True,i,105526.60000002384,1474.2000000476837,1669837629969,1474,HRV,HRV_0268,2022-11-30 19:51:11
57,"[{'imgObject': {}, 'id': 'raspberries', 'src': '/static/foodstim60/raspberries.jpg', 'key': 'u', 'origWidth': 411, 'origHeight': 411, 'width': 411, 'height': 411, 'widthPercent': 0.45, 'rescaleHeight': False, 'trialN': 57, 'loaded': True, 'loadedTime': 2611.6999999284744, 'positionName': 'LEFT', 'positionCoords': [326.28, 226.5], 'bid': 2.43}, {'imgObject': {}, 'id': 'salmon', 'src': '/static/foodstim60/salmon.jpg', 'key': 'i', 'origWidth': 410, 'origHeight': 409, 'width': 410, 'height': 409, 'widthPercent': 0.45, 'rescaleHeight': False, 'trialN': 57, 'loaded': True, 'loadedTime': 2823.100000023842, 'positionName': 'RIGHT', 'positionCoords': [798.72, 227.5], 'bid': 4.46}]",105526.89999997616,1669837629970,raspberries,salmon,2.43,4.46,2.03,salmon,1612.7000000476837,1613,1613.2999999523163,True,i,107657.39999997616,2130.5,1669837632100,2130,HRV,HRV_0268,2022-11-30 19:51:11
58,"[{'imgObject': {}, 'id': 'rigatoni', 'src': '/static/foodstim60/rigatoni.jpg', 'key': 'u', 'origWidth': 411, 'origHeight': 411, 'width': 411, 'height': 411, 'widthPercent': 0.45, 'rescaleHeight': False, 'trialN': 58, 'loaded': True, 'loadedTime': 2826.2999999523163, 'positionName': 'LEFT', 'positionCoords': [326.28, 226.5], 'bid': 7.08}, {'imgObject': {}, 'id': 'sushi w_condiments', 'src': '/static/foodstim60/sushi w_condiments.jpg', 'key': 'i', 'origWidth': 410, 'origHeight': 410, 'width': 410, 'height': 410, 'widthPercent': 0.45, 'rescaleHeight': False, 'trialN': 58, 'loaded': True, 'loadedTime': 2668.100000023842, 'positionName': 'RIGHT', 'positionCoords': [798.72, 227], 'bid': 7.2}]",107657.69999992847,1669837632100,rigatoni,sushi w_condiments,7.08,7.2,0.1200000000000001,sushi w_condiments,1835.4000000953674,1836,1836.1000000238419,True,i,110006.0,2348.3000000715256,1669837634449,2349,HRV,HRV_0268,2022-11-30 19:51:11
59,"[{'imgObject': {}, 'id': 'baked potato', 'src': '/static/foodstim60/baked potato.jpg', 'key': 'u', 'origWidth': 409, 'origHeight': 410, 'width': 409, 'height': 410, 'widthPercent': 0.45, 'rescaleHeight': False, 'trialN': 59, 'loaded': True, 'loadedTime': 2829.899999976158, 'positionName': 'LEFT', 'positionCoords': [328.28, 227], 'bid': 4.64}, {'imgObject': {}, 'id': 'chicken nuggets2', 'src': '/static/foodstim60/chicken nuggets2.jpg', 'key': 'i', 'origWidth': 410, 'origHeight': 409, 'width': 410, 'height': 409, 'widthPercent': 0.45, 'rescaleHeight': False, 'trialN': 59, 'loaded': True, 'loadedTime': 2647.2999999523163, 'positionName': 'RIGHT', 'positionCoords': [798.72, 227.5], 'bid': 8.56}]",110006.10000002384,1669837634449,baked potato,chicken nuggets2,4.64,8.56,3.920000000000001,chicken nuggets2,1121.0,1121,1121.2999999523163,True,i,111637.39999997616,1631.2999999523163,1669837636080,1631,HRV,HRV_0268,2022-11-30 19:51:11
60,"[{'imgObject': {}, 'id': 'cantaloupe', 'src': '/static/foodstim60/cantaloupe.jpg', 'key': 'u', 'origWidth': 409, 'origHeight': 409, 'width': 409, 'height': 409, 'widthPercent': 0.45, 'rescaleHeight': False, 'trialN': 60, 'loaded': True, 'loadedTime': 2850.1999999284744, 'positionName': 'LEFT', 'positionCoords': [328.28, 227.5], 'bid': 4.53}, {'imgObject': {}, 'id': 'baked potato', 'src': '/static/foodstim60/baked potato.jpg', 'key': 'i', 'origWidth': 409, 'origHeight': 410, 'width': 409, 'height': 410, 'widthPercent': 0.45, 'rescaleHeight': False, 'trialN': 60, 'loaded': True, 'loadedTime': 2827.600000023842, 'positionName': 'RIGHT', 'positionCoords': [798.72, 227], 'bid': 4.64}]",111637.69999992847,1669837636080,cantaloupe,baked potato,4.53,4.64,0.10999999999999943,cantaloupe,1521.1000000238419,1522,1521.4000000953674,True,u,113669.29999995232,2031.6000000238419,1669837638112,2032,HRV,HRV_0268,2022-11-30 19:51:11
61,"[{'imgObject': {}, 'id': 'sweetpotato', 'src': '/static/foodstim60/sweetpotato.jpg', 'key': 'u', 'origWidth': 410, 'origHeight': 410, 'width': 410, 'height': 410, 'widthPercent': 0.45, 'rescaleHeight': False, 'trialN': 61, 'loaded': True, 'loadedTime': 2607.600000023842, 'positionName': 'LEFT', 'positionCoords': [327.28, 227], 'bid': 2.61}, {'imgObject': {}, 'id': 'seaweed', 'src': '/static/foodstim60/seaweed.jpg', 'key': 'i', 'origWidth': 410, 'origHeight': 410, 'width': 410, 'height': 410, 'widthPercent': 0.45, 'rescaleHeight': False, 'trialN': 61, 'loaded': True, 'loadedTime': 2807.399999976158, 'positionName': 'RIGHT', 'positionCoords': [798.72, 227], 'bid': 0.54}]",113669.5,1669837638112,sweetpotato,seaweed,2.61,0.54,-2.07,sweetpotato,823.5,824,824.0,True,u,115004.29999995232,1334.7999999523163,1669837639447,1335,HRV,HRV_0268,2022-11-30 19:51:11
62,"[{'imgObject': {}, 'id': 'fruitsalad', 'src': '/static/foodstim60/fruitsalad.jpg', 'key': 'u', 'origWidth': 410, 'origHeight': 410, 'width': 410, 'height': 410, 'widthPercent': 0.45, 'rescaleHeight': False, 'trialN': 62, 'loaded': True, 'loadedTime': 2510.899999976158, 'positionName': 'LEFT', 'positionCoords': [327.28, 227], 'bid': 6.11}, {'imgObject': {}, 'id': 'cantaloupe', 'src': '/static/foodstim60/cantaloupe.jpg', 'key': 'i', 'origWidth': 409, 'origHeight': 409, 'width': 409, 'height': 409, 'widthPercent': 0.45, 'rescaleHeight': False, 'trialN': 62, 'loaded': True, 'loadedTime': 2849.5, 'positionName': 'RIGHT', 'positionCoords': [798.72, 227.5], 'bid': 4.53}]",115004.89999997616,1669837639448,fruitsalad,cantaloupe,6.11,4.53,-1.58,fruitsalad,844.6000000238419,844,844.8999999761581,True,u,116365.10000002384,1360.2000000476837,1669837640808,1360,HRV,HRV_0268,2022-11-30 19:51:11
63,"[{'imgObject': {}, 'id': 'eggsalad', 'src': '/static/foodstim60/eggsalad.jpg', 'key': 'u', 'origWidth': 410, 'origHeight': 409, 'width': 410, 'height': 409, 'widthPercent': 0.45, 'rescaleHeight': False, 'trialN': 63, 'loaded': True, 'loadedTime': 2599.7999999523163, 'positionName': 'LEFT', 'positionCoords': [327.28, 227.5], 'bid': 2.96}, {'imgObject': {}, 'id': 'ice cream sundae 002', 'src': '/static/foodstim60/ice cream sundae 002.jpg', 'key': 'i', 'origWidth': 409, 'origHeight': 409, 'width': 409, 'height': 409, 'widthPercent': 0.45, 'rescaleHeight': False, 'trialN': 63, 'loaded': True, 'loadedTime': 2784.6999999284744, 'positionName': 'RIGHT', 'positionCoords': [798.72, 227.5], 'bid': 6.49}]",116365.39999997616,1669837640808,eggsalad,ice cream sundae 002,2.96,6.49,3.5300000000000002,ice cream sundae 002,1088.2000000476837,1089,1088.7000000476837,True,i,117967.39999997616,1602.0,1669837642410,1602,HRV,HRV_0268,2022-11-30 19:51:11
64,"[{'imgObject': {}, 'id': 'avocado', 'src': '/static/foodstim60/avocado.jpg', 'key': 'u', 'origWidth': 409, 'origHeight': 409, 'width': 409, 'height': 409, 'widthPercent': 0.45, 'rescaleHeight': False, 'trialN': 64, 'loaded': True, 'loadedTime': 2585.600000023842, 'positionName': 'LEFT', 'positionCoords': [328.28, 227.5], 'bid': 4.0200000000000005}, {'imgObject': {}, 'id': 'bagel plain', 'src': '/static/foodstim60/bagel plain.jpg', 'key': 'i', 'origWidth': 410, 'origHeight': 410, 'width': 410, 'height': 410, 'widthPercent': 0.45, 'rescaleHeight': False, 'trialN': 64, 'loaded': True, 'loadedTime': 2851.899999976158, 'positionName': 'RIGHT', 'positionCoords': [798.72, 227], 'bid': 7.4}]",117967.69999992847,1669837642410,avocado,bagel plain,4.0200000000000005,7.4,3.38,bagel plain,1990.1000000238419,1991,1990.3000000715256,True,i,120478.19999992847,2510.5,1669837644921,2511,HRV,HRV_0268,2022-11-30 19:51:11
65,"[{'imgObject': {}, 'id': 'roastedpotatoes', 'src': '/static/foodstim60/roastedpotatoes.jpg', 'key': 'u', 'origWidth': 409, 'origHeight': 410, 'width': 409, 'height': 410, 'widthPercent': 0.45, 'rescaleHeight': False, 'trialN': 65, 'loaded': True, 'loadedTime': 2802.5, 'positionName': 'LEFT', 'positionCoords': [328.28, 227], 'bid': 5.26}, {'imgObject': {}, 'id': 'apple slices', 'src': '/static/foodstim60/apple slices.jpg', 'key': 'i', 'origWidth': 409, 'origHeight': 410, 'width': 409, 'height': 410, 'widthPercent': 0.45, 'rescaleHeight': False, 'trialN': 65, 'loaded': True, 'loadedTime': 2817.6999999284744, 'positionName': 'RIGHT', 'positionCoords': [798.72, 227], 'bid': 6.3}]",120478.29999995232,1669837644921,roastedpotatoes,apple slices,5.26,6.3,1.04,roastedpotatoes,1842.8000000715256,1843,1843.0,True,u,122835.29999995232,2357.0,1669837647278,2357,HRV,HRV_0268,2022-11-30 19:51:11
66,"[{'imgObject': {}, 'id': 'corn cob', 'src': '/static/foodstim60/corn cob.jpg', 'key': 'u', 'origWidth': 411, 'origHeight': 411, 'width': 411, 'height': 411, 'widthPercent': 0.45, 'rescaleHeight': False, 'trialN': 66, 'loaded': True, 'loadedTime': 2776.2999999523163, 'positionName': 'LEFT', 'positionCoords': [326.28, 226.5], 'bid': 3}, {'imgObject': {}, 'id': 'roastedpotatoes', 'src': '/static/foodstim60/roastedpotatoes.jpg', 'key': 'i', 'origWidth': 409, 'origHeight': 410, 'width': 409, 'height': 410, 'widthPercent': 0.45, 'rescaleHeight': False, 'trialN': 66, 'loaded': True, 'loadedTime': 2800.899999976158, 'positionName': 'RIGHT', 'positionCoords': [798.72, 227], 'bid': 5.26}]",122835.60000002384,1669837647278,corn cob,roastedpotatoes,3.0,5.26,2.26,roastedpotatoes,1867.8999999761581,1869,1868.3999999761581,True,i,125225.89999997616,2390.2999999523163,1669837649669,2391,HRV,HRV_0268,2022-11-30 19:51:11
67,"[{'imgObject': {}, 'id': 'Tribe humus pita', 'src': '/static/foodstim60/Tribe humus pita.jpg', 'key': 'u', 'origWidth': 411, 'origHeight': 411, 'width': 411, 'height': 411, 'widthPercent': 0.45, 'rescaleHeight': False, 'trialN': 67, 'loaded': True, 'loadedTime': 2636.899999976158, 'positionName': 'LEFT', 'positionCoords': [326.28, 226.5], 'bid': 2.03}, {'imgObject': {}, 'id': 'cherry tomato', 'src': '/static/foodstim60/cherry tomato.jpg', 'key': 'i', 'origWidth': 410, 'origHeight': 410, 'width': 410, 'height': 410, 'widthPercent': 0.45, 'rescaleHeight': False, 'trialN': 67, 'loaded': True, 'loadedTime': 2512.1999999284744, 'positionName': 'RIGHT', 'positionCoords': [798.72, 227], 'bid': 1.67}]",125226.0,1669837649669,Tribe humus pita,cherry tomato,2.03,1.67,-0.3599999999999999,cherry tomato,1072.0,1072,1072.3999999761581,True,i,126802.10000002384,1576.1000000238419,1669837651245,1576,HRV,HRV_0268,2022-11-30 19:51:11
68,"[{'imgObject': {}, 'id': 'salmon', 'src': '/static/foodstim60/salmon.jpg', 'key': 'u', 'origWidth': 410, 'origHeight': 409, 'width': 410, 'height': 409, 'widthPercent': 0.45, 'rescaleHeight': False, 'trialN': 68, 'loaded': True, 'loadedTime': 2824.100000023842, 'positionName': 'LEFT', 'positionCoords': [327.28, 227.5], 'bid': 4.46}, {'imgObject': {}, 'id': 'fried eggs', 'src': '/static/foodstim60/fried eggs.jpg', 'key': 'i', 'origWidth': 410, 'origHeight': 410, 'width': 410, 'height': 410, 'widthPercent': 0.45, 'rescaleHeight': False, 'trialN': 68, 'loaded': True, 'loadedTime': 2498.899999976158, 'positionName': 'RIGHT', 'positionCoords': [798.72, 227], 'bid': 4.53}]",126802.29999995232,1669837651245,salmon,fried eggs,4.46,4.53,0.07000000000000028,salmon,1662.7000000476837,1663,1662.8000000715256,True,u,128972.0,2169.7000000476837,1669837653415,2170,HRV,HRV_0268,2022-11-30 19:51:11
69,"[{'imgObject': {}, 'id': 'cantaloupe', 'src': '/static/foodstim60/cantaloupe.jpg', 'key': 'u', 'origWidth': 409, 'origHeight': 409, 'width': 409, 'height': 409, 'widthPercent': 0.45, 'rescaleHeight': False, 'trialN': 69, 'loaded': True, 'loadedTime': 2831.1999999284744, 'positionName': 'LEFT', 'positionCoords': [328.28, 227.5], 'bid': 4.53}, {'imgObject': {}, 'id': 'popsicles', 'src': '/static/foodstim60/popsicles.jpg', 'key': 'i', 'origWidth': 410, 'origHeight': 410, 'width': 410, 'height': 410, 'widthPercent': 0.45, 'rescaleHeight': False, 'trialN': 69, 'loaded': True, 'loadedTime': 2857, 'positionName': 'RIGHT', 'positionCoords': [798.72, 227], 'bid': 5.36}]",128972.19999992847,1669837653415,cantaloupe,popsicles,4.53,5.36,0.8300000000000001,popsicles,1298.8000000715256,1299,1299.2000000476837,True,i,130784.39999997616,1812.2000000476837,1669837655227,1812,HRV,HRV_0268,2022-11-30 19:51:11
70,"[{'imgObject': {}, 'id': 'cherries', 'src': '/static/foodstim60/cherries.jpg', 'key': 'u', 'origWidth': 410, 'origHeight': 411, 'width': 410, 'height': 411, 'widthPercent': 0.45, 'rescaleHeight': False, 'trialN': 70, 'loaded': True, 'loadedTime': 2592.6999999284744, 'positionName': 'LEFT', 'positionCoords': [327.28, 226.5], 'bid': 2.77}, {'imgObject': {}, 'id': 'corn cob', 'src': '/static/foodstim60/corn cob.jpg', 'key': 'i', 'origWidth': 411, 'origHeight': 411, 'width': 411, 'height': 411, 'widthPercent': 0.45, 'rescaleHeight': False, 'trialN': 70, 'loaded': True, 'loadedTime': 2777.5, 'positionName': 'RIGHT', 'positionCoords': [798.72, 226.5], 'bid': 3}]",130784.5,1669837655227,cherries,corn cob,2.77,3.0,0.22999999999999998,corn cob,1011.6999999284744,1012,1012.1000000238419,True,i,132301.39999997616,1516.8999999761581,1669837656744,1517,HRV,HRV_0268,2022-11-30 19:51:11
71,"[{'imgObject': {}, 'id': 'froot loops w milk', 'src': '/static/foodstim60/froot loops w milk.jpg', 'key': 'u', 'origWidth': 410, 'origHeight': 410, 'width': 410, 'height': 410, 'widthPercent': 0.45, 'rescaleHeight': False, 'trialN': 71, 'loaded': True, 'loadedTime': 2705.100000023842, 'positionName': 'LEFT', 'positionCoords': [327.28, 227], 'bid': 0.97}, {'imgObject': {}, 'id': 'granola w milk', 'src': '/static/foodstim60/granola w milk.jpg', 'key': 'i', 'origWidth': 410, 'origHeight': 410, 'width': 410, 'height': 410, 'widthPercent': 0.45, 'rescaleHeight': False, 'trialN': 71, 'loaded': True, 'loadedTime': 2509.399999976158, 'positionName': 'RIGHT', 'positionCoords': [798.72, 227], 'bid': 5.67}]",132301.79999995232,1669837656744,froot loops w milk,granola w milk,0.97,5.67,4.7,granola w milk,1166.7000000476837,1167,1167.0,True,i,133971.69999992847,1669.8999999761581,1669837658414,1670,HRV,HRV_0268,2022-11-30 19:51:11
72,"[{'imgObject': {}, 'id': 'mac & cheese', 'src': '/static/foodstim60/mac & cheese.jpg', 'key': 'u', 'origWidth': 410, 'origHeight': 410, 'width': 410, 'height': 410, 'widthPercent': 0.45, 'rescaleHeight': False, 'trialN': 72, 'loaded': True, 'loadedTime': 2815.5, 'positionName': 'LEFT', 'positionCoords': [327.28, 227], 'bid': 7.72}, {'imgObject': {}, 'id': 'raisin bran w milk', 'src': '/static/foodstim60/raisin bran w milk.jpg', 'key': 'i', 'origWidth': 411, 'origHeight': 411, 'width': 411, 'height': 411, 'widthPercent': 0.45, 'rescaleHeight': False, 'trialN': 72, 'loaded': True, 'loadedTime': 2615.100000023842, 'positionName': 'RIGHT', 'positionCoords': [798.72, 226.5], 'bid': 4.0600000000000005}]",133972.0,1669837658415,mac & cheese,raisin bran w milk,7.72,4.0600000000000005,-3.6599999999999993,mac & cheese,1813.0,1813,1813.6000000238419,True,u,136300.79999995232,2328.7999999523163,1669837660743,2328,HRV,HRV_0268,2022-11-30 19:51:11
73,"[{'imgObject': {}, 'id': 'Grapes', 'src': '/static/foodstim60/Grapes.jpg', 'key': 'u', 'origWidth': 411, 'origHeight': 411, 'width': 411, 'height': 411, 'widthPercent': 0.45, 'rescaleHeight': False, 'trialN': 73, 'loaded': True, 'loadedTime': 2757.7999999523163, 'positionName': 'LEFT', 'positionCoords': [326.28, 226.5], 'bid': 5.3500000000000005}, {'imgObject': {}, 'id': 'edamame', 'src': '/static/foodstim60/edamame.jpg', 'key': 'i', 'origWidth': 409, 'origHeight': 410, 'width': 409, 'height': 410, 'widthPercent': 0.45, 'rescaleHeight': False, 'trialN': 73, 'loaded': True, 'loadedTime': 2504.899999976158, 'positionName': 'RIGHT', 'positionCoords': [798.72, 227], 'bid': 4.0600000000000005}]",136301.10000002384,1669837660744,Grapes,edamame,5.3500000000000005,4.0600000000000005,-1.29,Grapes,1023.2999999523163,1024,1023.7999999523163,True,u,137831.0,1529.8999999761581,1669837662274,1530,HRV,HRV_0268,2022-11-30 19:51:11
74,"[{'imgObject': {}, 'id': 'chickenfingers', 'src': '/static/foodstim60/chickenfingers.jpg', 'key': 'u', 'origWidth': 410, 'origHeight': 410, 'width': 410, 'height': 410, 'widthPercent': 0.45, 'rescaleHeight': False, 'trialN': 74, 'loaded': True, 'loadedTime': 2514.2999999523163, 'positionName': 'LEFT', 'positionCoords': [327.28, 227], 'bid': 8.120000000000001}, {'imgObject': {}, 'id': 'tacos', 'src': '/static/foodstim60/tacos.jpg', 'key': 'i', 'origWidth': 411, 'origHeight': 411, 'width': 411, 'height': 411, 'widthPercent': 0.45, 'rescaleHeight': False, 'trialN': 74, 'loaded': True, 'loadedTime': 2853, 'positionName': 'RIGHT', 'positionCoords': [798.72, 226.5], 'bid': 8.24}]",137831.19999992847,1669837662274,chickenfingers,tacos,8.120000000000001,8.24,0.11999999999999922,tacos,1005.6000000238419,1024,1023.8000000715256,True,i,139365.29999995232,1534.1000000238419,1669837663808,1534,HRV,HRV_0268,2022-11-30 19:51:11
75,"[{'imgObject': {}, 'id': 'corn cob', 'src': '/static/foodstim60/corn cob.jpg', 'key': 'u', 'origWidth': 411, 'origHeight': 411, 'width': 411, 'height': 411, 'widthPercent': 0.45, 'rescaleHeight': False, 'trialN': 75, 'loaded': True, 'loadedTime': 2777.399999976158, 'positionName': 'LEFT', 'positionCoords': [326.28, 226.5], 'bid': 3}, {'imgObject': {}, 'id': 'kiwi', 'src': '/static/foodstim60/kiwi.jpg', 'key': 'i', 'origWidth': 410, 'origHeight': 410, 'width': 410, 'height': 410, 'widthPercent': 0.45, 'rescaleHeight': False, 'trialN': 75, 'loaded': True, 'loadedTime': 2728.399999976158, 'positionName': 'RIGHT', 'positionCoords': [798.72, 227], 'bid': 1.58}]",139365.60000002384,1669837663808,corn cob,kiwi,3.0,1.58,-1.42,kiwi,974.5999999046326,975,974.8999999761581,True,i,140853.39999997616,1487.7999999523163,1669837665296,1488,HRV,HRV_0268,2022-11-30 19:51:11
76,"[{'imgObject': {}, 'id': 'orange slices', 'src': '/static/foodstim60/orange slices.jpg', 'key': 'u', 'origWidth': 409, 'origHeight': 410, 'width': 409, 'height': 410, 'widthPercent': 0.45, 'rescaleHeight': False, 'trialN': 76, 'loaded': True, 'loadedTime': 2854, 'positionName': 'LEFT', 'positionCoords': [328.28, 227], 'bid': 6.32}, {'imgObject': {}, 'id': 'cocktailshrimp', 'src': '/static/foodstim60/cocktailshrimp.jpg', 'key': 'i', 'origWidth': 410, 'origHeight': 410, 'width': 410, 'height': 410, 'widthPercent': 0.45, 'rescaleHeight': False, 'trialN': 76, 'loaded': True, 'loadedTime': 2492, 'positionName': 'RIGHT', 'positionCoords': [798.72, 227], 'bid': 8.290000000000001}]",140853.60000002384,1669837665296,orange slices,cocktailshrimp,6.32,8.290000000000001,1.9700000000000006,cocktailshrimp,1031.6999999284744,1032,1032.0999999046326,True,i,142396.10000002384,1542.5,1669837666839,1543,HRV,HRV_0268,2022-11-30 19:51:11
77,"[{'imgObject': {}, 'id': 'salad w chicken', 'src': '/static/foodstim60/salad w chicken.jpg', 'key': 'u', 'origWidth': 411, 'origHeight': 411, 'width': 411, 'height': 411, 'widthPercent': 0.45, 'rescaleHeight': False, 'trialN': 77, 'loaded': True, 'loadedTime': 2760.6999999284744, 'positionName': 'LEFT', 'positionCoords': [326.28, 226.5], 'bid': 9.33}, {'imgObject': {}, 'id': 'ice cream sundae 002', 'src': '/static/foodstim60/ice cream sundae 002.jpg', 'key': 'i', 'origWidth': 409, 'origHeight': 409, 'width': 409, 'height': 409, 'widthPercent': 0.45, 'rescaleHeight': False, 'trialN': 77, 'loaded': True, 'loadedTime': 2784.600000023842, 'positionName': 'RIGHT', 'positionCoords': [798.72, 227.5], 'bid': 6.49}]",142396.69999992847,1669837666839,salad w chicken,ice cream sundae 002,9.33,6.49,-2.84,salad w chicken,805.7000000476837,806,806.0,True,u,143709.69999992847,1313.0,1669837668152,1313,HRV,HRV_0268,2022-11-30 19:51:11
78,"[{'imgObject': {}, 'id': 'veggieswithdip', 'src': '/static/foodstim60/veggieswithdip.jpg', 'key': 'u', 'origWidth': 409, 'origHeight': 409, 'width': 409, 'height': 409, 'widthPercent': 0.45, 'rescaleHeight': False, 'trialN': 78, 'loaded': True, 'loadedTime': 2499.7999999523163, 'positionName': 'LEFT', 'positionCoords': [328.28, 227.5], 'bid': 7.04}, {'imgObject': {}, 'id': 'cocktailshrimp', 'src': '/static/foodstim60/cocktailshrimp.jpg', 'key': 'i', 'origWidth': 410, 'origHeight': 410, 'width': 410, 'height': 410, 'widthPercent': 0.45, 'rescaleHeight': False, 'trialN': 78, 'loaded': True, 'loadedTime': 2493.2999999523163, 'positionName': 'RIGHT', 'positionCoords': [798.72, 227], 'bid': 8.290000000000001}]",143710.0,1669837668153,veggieswithdip,cocktailshrimp,7.04,8.290000000000001,1.2500000000000009,veggieswithdip,2399.6999999284744,2390,2400.0,True,u,146613.60000002384,2903.600000023842,1669837671047,2894,HRV,HRV_0268,2022-11-30 19:51:11
79,"[{'imgObject': {}, 'id': 'mashed potato', 'src': '/static/foodstim60/mashed potato.jpg', 'key': 'u', 'origWidth': 409, 'origHeight': 409, 'width': 409, 'height': 409, 'widthPercent': 0.45, 'rescaleHeight': False, 'trialN': 79, 'loaded': True, 'loadedTime': 2472.6999999284744, 'positionName': 'LEFT', 'positionCoords': [328.28, 227.5], 'bid': 8.47}, {'imgObject': {}, 'id': 'rigatoni', 'src': '/static/foodstim60/rigatoni.jpg', 'key': 'i', 'origWidth': 411, 'origHeight': 411, 'width': 411, 'height': 411, 'widthPercent': 0.45, 'rescaleHeight': False, 'trialN': 79, 'loaded': True, 'loadedTime': 2826.2999999523163, 'positionName': 'RIGHT', 'positionCoords': [798.72, 226.5], 'bid': 7.08}]",146613.89999997616,1669837671047,mashed potato,rigatoni,8.47,7.08,-1.3900000000000006,mashed potato,1686.2999999523163,1687,1686.6000000238419,True,u,148814.89999997616,2201.0,1669837673248,2201,HRV,HRV_0268,2022-11-30 19:51:11
80,"[{'imgObject': {}, 'id': 'lox', 'src': '/static/foodstim60/lox.jpg', 'key': 'u', 'origWidth': 410, 'origHeight': 411, 'width': 410, 'height': 411, 'widthPercent': 0.45, 'rescaleHeight': False, 'trialN': 80, 'loaded': True, 'loadedTime': 2689.7999999523163, 'positionName': 'LEFT', 'positionCoords': [327.28, 226.5], 'bid': 2.12}, {'imgObject': {}, 'id': 'luckycharms', 'src': '/static/foodstim60/luckycharms.jpg', 'key': 'i', 'origWidth': 410, 'origHeight': 409, 'width': 410, 'height': 409, 'widthPercent': 0.45, 'rescaleHeight': False, 'trialN': 80, 'loaded': True, 'loadedTime': 2704.600000023842, 'positionName': 'RIGHT', 'positionCoords': [798.72, 227.5], 'bid': 0.72}]",148815.39999997616,1669837673249,lox,luckycharms,2.12,0.72,-1.4000000000000001,luckycharms,957.3999999761581,957,957.7000000476837,True,i,150287.0,1471.6000000238419,1669837674720,1471,HRV,HRV_0268,2022-11-30 19:51:11
81,"[{'imgObject': {}, 'id': 'turkeysandwich', 'src': '/static/foodstim60/turkeysandwich.jpg', 'key': 'u', 'origWidth': 409, 'origHeight': 409, 'width': 409, 'height': 409, 'widthPercent': 0.45, 'rescaleHeight': False, 'trialN': 81, 'loaded': True, 'loadedTime': 2686.100000023842, 'positionName': 'LEFT', 'positionCoords': [328.28, 227.5], 'bid': 5.46}, {'imgObject': {}, 'id': 'pear', 'src': '/static/foodstim60/pear.jpg', 'key': 'i', 'origWidth': 411, 'origHeight': 410, 'width': 411, 'height': 410, 'widthPercent': 0.45, 'rescaleHeight': False, 'trialN': 81, 'loaded': True, 'loadedTime': 2674.1999999284744, 'positionName': 'RIGHT', 'positionCoords': [798.72, 227], 'bid': 6.11}]",150287.29999995232,1669837674721,turkeysandwich,pear,5.46,6.11,0.6500000000000004,turkeysandwich,3051.100000023842,3051,3051.5,True,u,153851.69999992847,3564.399999976158,1669837678285,3564,HRV,HRV_0268,2022-11-30 19:51:11
82,"[{'imgObject': {}, 'id': 'mashed potato', 'src': '/static/foodstim60/mashed potato.jpg', 'key': 'u', 'origWidth': 409, 'origHeight': 409, 'width': 409, 'height': 409, 'widthPercent': 0.45, 'rescaleHeight': False, 'trialN': 82, 'loaded': True, 'loadedTime': 2471.899999976158, 'positionName': 'LEFT', 'positionCoords': [328.28, 227.5], 'bid': 8.47}, {'imgObject': {}, 'id': 'bagel and cc', 'src': '/static/foodstim60/bagel and cc.jpg', 'key': 'i', 'origWidth': 410, 'origHeight': 410, 'width': 410, 'height': 410, 'widthPercent': 0.45, 'rescaleHeight': False, 'trialN': 82, 'loaded': True, 'loadedTime': 2493.899999976158, 'positionName': 'RIGHT', 'positionCoords': [798.72, 227], 'bid': 7.66}]",153852.10000002384,1669837678285,mashed potato,bagel and cc,8.47,7.66,-0.8100000000000005,mashed potato,1865.3999999761581,1866,1866.0,True,u,156231.69999992847,2379.5999999046326,1669837680665,2380,HRV,HRV_0268,2022-11-30 19:51:11
83,"[{'imgObject': {}, 'id': 'popsicles', 'src': '/static/foodstim60/popsicles.jpg', 'key': 'u', 'origWidth': 410, 'origHeight': 410, 'width': 410, 'height': 410, 'widthPercent': 0.45, 'rescaleHeight': False, 'trialN': 83, 'loaded': True, 'loadedTime': 2856.899999976158, 'positionName': 'LEFT', 'positionCoords': [327.28, 227], 'bid': 5.36}, {'imgObject': {}, 'id': 'seaweed', 'src': '/static/foodstim60/seaweed.jpg', 'key': 'i', 'origWidth': 410, 'origHeight': 410, 'width': 410, 'height': 410, 'widthPercent': 0.45, 'rescaleHeight': False, 'trialN': 83, 'loaded': True, 'loadedTime': 2808.5, 'positionName': 'RIGHT', 'positionCoords': [798.72, 227], 'bid': 0.54}]",156232.0,1669837680665,popsicles,seaweed,5.36,0.54,-4.82,popsicles,810.1999999284744,811,810.6999999284744,True,u,157548.89999997616,1316.8999999761581,1669837681982,1317,HRV,HRV_0268,2022-11-30 19:51:11
84,"[{'imgObject': {}, 'id': 'apple slices', 'src': '/static/foodstim60/apple slices.jpg', 'key': 'u', 'origWidth': 409, 'origHeight': 410, 'width': 409, 'height': 410, 'widthPercent': 0.45, 'rescaleHeight': False, 'trialN': 84, 'loaded': True, 'loadedTime': 2817.899999976158, 'positionName': 'LEFT', 'positionCoords': [328.28, 227], 'bid': 6.3}, {'imgObject': {}, 'id': 'strawberries', 'src': '/static/foodstim60/strawberries.jpg', 'key': 'i', 'origWidth': 410, 'origHeight': 410, 'width': 410, 'height': 410, 'widthPercent': 0.45, 'rescaleHeight': False, 'trialN': 84, 'loaded': True, 'loadedTime': 2764.399999976158, 'positionName': 'RIGHT', 'positionCoords': [798.72, 227], 'bid': 6.23}]",157549.10000002384,1669837681982,apple slices,strawberries,6.3,6.23,-0.0699999999999994,strawberries,1039.5,1040,1039.8999999761581,True,i,159095.0,1545.8999999761581,1669837683528,1546,HRV,HRV_0268,2022-11-30 19:51:11
85,"[{'imgObject': {}, 'id': 'roastedpotatoes', 'src': '/static/foodstim60/roastedpotatoes.jpg', 'key': 'u', 'origWidth': 409, 'origHeight': 410, 'width': 409, 'height': 410, 'widthPercent': 0.45, 'rescaleHeight': False, 'trialN': 85, 'loaded': True, 'loadedTime': 2802, 'positionName': 'LEFT', 'positionCoords': [328.28, 227], 'bid': 5.26}, {'imgObject': {}, 'id': 'popsicles', 'src': '/static/foodstim60/popsicles.jpg', 'key': 'i', 'origWidth': 410, 'origHeight': 410, 'width': 410, 'height': 410, 'widthPercent': 0.45, 'rescaleHeight': False, 'trialN': 85, 'loaded': True, 'loadedTime': 2857.100000023842, 'positionName': 'RIGHT', 'positionCoords': [798.72, 227], 'bid': 5.36}]",159095.69999992847,1669837683529,roastedpotatoes,popsicles,5.26,5.36,0.10000000000000053,roastedpotatoes,2238.4000000953674,2239,2239.0,True,u,161844.79999995232,2749.100000023842,1669837686278,2749,HRV,HRV_0268,2022-11-30 19:51:11
86,"[{'imgObject': {}, 'id': 'rigatoni and sauce', 'src': '/static/foodstim60/rigatoni and sauce.jpg', 'key': 'u', 'origWidth': 410, 'origHeight': 411, 'width': 410, 'height': 411, 'widthPercent': 0.45, 'rescaleHeight': False, 'trialN': 86, 'loaded': True, 'loadedTime': 2515.600000023842, 'positionName': 'LEFT', 'positionCoords': [327.28, 226.5], 'bid': 8.25}, {'imgObject': {}, 'id': 'salmon', 'src': '/static/foodstim60/salmon.jpg', 'key': 'i', 'origWidth': 410, 'origHeight': 409, 'width': 410, 'height': 409, 'widthPercent': 0.45, 'rescaleHeight': False, 'trialN': 86, 'loaded': True, 'loadedTime': 2824.100000023842, 'positionName': 'RIGHT', 'positionCoords': [798.72, 227.5], 'bid': 4.46}]",161845.10000002384,1669837686278,rigatoni and sauce,salmon,8.25,4.46,-3.79,rigatoni and sauce,1255.7999999523163,1256,1256.1999999284744,True,u,163608.5,1763.3999999761581,1669837688042,1764,HRV,HRV_0268,2022-11-30 19:51:11
87,"[{'imgObject': {}, 'id': 'hotdog w must', 'src': '/static/foodstim60/hotdog w must.jpg', 'key': 'u', 'origWidth': 409, 'origHeight': 409, 'width': 409, 'height': 409, 'widthPercent': 0.45, 'rescaleHeight': False, 'trialN': 87, 'loaded': True, 'loadedTime': 2680, 'positionName': 'LEFT', 'positionCoords': [328.28, 227.5], 'bid': 5.11}, {'imgObject': {}, 'id': 'salad w chicken', 'src': '/static/foodstim60/salad w chicken.jpg', 'key': 'i', 'origWidth': 411, 'origHeight': 411, 'width': 411, 'height': 411, 'widthPercent': 0.45, 'rescaleHeight': False, 'trialN': 87, 'loaded': True, 'loadedTime': 2761.100000023842, 'positionName': 'RIGHT', 'positionCoords': [798.72, 226.5], 'bid': 9.33}]",163608.69999992847,1669837688042,hotdog w must,salad w chicken,5.11,9.33,4.22,salad w chicken,765.2000000476837,766,765.7000000476837,True,i,164895.0,1286.3000000715256,1669837689328,1286,HRV,HRV_0268,2022-11-30 19:51:11
88,"[{'imgObject': {}, 'id': 'popsicles', 'src': '/static/foodstim60/popsicles.jpg', 'key': 'u', 'origWidth': 410, 'origHeight': 410, 'width': 410, 'height': 410, 'widthPercent': 0.45, 'rescaleHeight': False, 'trialN': 88, 'loaded': True, 'loadedTime': 2855.6999999284744, 'positionName': 'LEFT', 'positionCoords': [327.28, 227], 'bid': 5.36}, {'imgObject': {}, 'id': 'rigatoni', 'src': '/static/foodstim60/rigatoni.jpg', 'key': 'i', 'origWidth': 411, 'origHeight': 411, 'width': 411, 'height': 411, 'widthPercent': 0.45, 'rescaleHeight': False, 'trialN': 88, 'loaded': True, 'loadedTime': 2825.7999999523163, 'positionName': 'RIGHT', 'positionCoords': [798.72, 226.5], 'bid': 7.08}]",164895.19999992847,1669837689328,popsicles,rigatoni,5.36,7.08,1.7199999999999998,popsicles,2399.9000000953674,2401,2400.7000000476837,True,u,167809.10000002384,2913.9000000953674,1669837692242,2914,HRV,HRV_0268,2022-11-30 19:51:11
89,"[{'imgObject': {}, 'id': 'chickenfingers', 'src': '/static/foodstim60/chickenfingers.jpg', 'key': 'u', 'origWidth': 410, 'origHeight': 410, 'width': 410, 'height': 410, 'widthPercent': 0.45, 'rescaleHeight': False, 'trialN': 89, 'loaded': True, 'loadedTime': 2513.7999999523163, 'positionName': 'LEFT', 'positionCoords': [327.28, 227], 'bid': 8.120000000000001}, {'imgObject': {}, 'id': 'blackbeanswithrice', 'src': '/static/foodstim60/blackbeanswithrice.jpg', 'key': 'i', 'origWidth': 410, 'origHeight': 410, 'width': 410, 'height': 410, 'widthPercent': 0.45, 'rescaleHeight': False, 'trialN': 89, 'loaded': True, 'loadedTime': 2819.600000023842, 'positionName': 'RIGHT', 'positionCoords': [798.72, 227], 'bid': 6.17}]",167809.39999997616,1669837692243,chickenfingers,blackbeanswithrice,8.120000000000001,6.17,-1.950000000000001,chickenfingers,1497.7999999523163,1498,1498.3999999761581,True,u,169847.69999992847,2038.2999999523163,1669837694281,2038,HRV,HRV_0268,2022-11-30 19:51:11
90,"[{'imgObject': {}, 'id': 'avocado', 'src': '/static/foodstim60/avocado.jpg', 'key': 'u', 'origWidth': 409, 'origHeight': 409, 'width': 409, 'height': 409, 'widthPercent': 0.45, 'rescaleHeight': False, 'trialN': 90, 'loaded': True, 'loadedTime': 2541, 'positionName': 'LEFT', 'positionCoords': [328.28, 227.5], 'bid': 4.0200000000000005}, {'imgObject': {}, 'id': 'froot loops w milk', 'src': '/static/foodstim60/froot loops w milk.jpg', 'key': 'i', 'origWidth': 410, 'origHeight': 410, 'width': 410, 'height': 410, 'widthPercent': 0.45, 'rescaleHeight': False, 'trialN': 90, 'loaded': True, 'loadedTime': 2706.2999999523163, 'positionName': 'RIGHT', 'positionCoords': [798.72, 227], 'bid': 0.97}]",177170.29999995232,1669837701604,avocado,froot loops w milk,4.0200000000000005,0.97,-3.0500000000000007,avocado,2605.3000000715256,2605,2605.600000023842,True,u,180294.29999995232,3124.0,1669837704728,3124,HRV,HRV_0268,2022-11-30 19:51:11
91,"[{'imgObject': {}, 'id': 'salad w chicken', 'src': '/static/foodstim60/salad w chicken.jpg', 'key': 'u', 'origWidth': 411, 'origHeight': 411, 'width': 411, 'height': 411, 'widthPercent': 0.45, 'rescaleHeight': False, 'trialN': 91, 'loaded': True, 'loadedTime': 2761.1999999284744, 'positionName': 'LEFT', 'positionCoords': [326.28, 226.5], 'bid': 9.33}, {'imgObject': {}, 'id': 'bagel plain', 'src': '/static/foodstim60/bagel plain.jpg', 'key': 'i', 'origWidth': 410, 'origHeight': 410, 'width': 410, 'height': 410, 'widthPercent': 0.45, 'rescaleHeight': False, 'trialN': 91, 'loaded': True, 'loadedTime': 2851.899999976158, 'positionName': 'RIGHT', 'positionCoords': [798.72, 227], 'bid': 7.4}]",180294.5,1669837704728,salad w chicken,bagel plain,9.33,7.4,-1.9299999999999997,salad w chicken,667.1000000238419,667,667.5,True,u,181477.19999992847,1182.6999999284744,1669837705910,1182,HRV,HRV_0268,2022-11-30 19:51:11
92,"[{'imgObject': {}, 'id': 'luckycharms', 'src': '/static/foodstim60/luckycharms.jpg', 'key': 'u', 'origWidth': 410, 'origHeight': 409, 'width': 410, 'height': 409, 'widthPercent': 0.45, 'rescaleHeight': False, 'trialN': 92, 'loaded': True, 'loadedTime': 2703, 'positionName': 'LEFT', 'positionCoords': [327.28, 227.5], 'bid': 0.72}, {'imgObject': {}, 'id': 'cherries', 'src': '/static/foodstim60/cherries.jpg', 'key': 'i', 'origWidth': 410, 'origHeight': 411, 'width': 410, 'height': 411, 'widthPercent': 0.45, 'rescaleHeight': False, 'trialN': 92, 'loaded': True, 'loadedTime': 2587, 'positionName': 'RIGHT', 'positionCoords': [798.72, 226.5], 'bid': 2.77}]",181477.5,1669837705911,luckycharms,cherries,0.72,2.77,2.05,luckycharms,1676.7999999523163,1677,1677.3999999761581,True,u,183659.5,2182.0,1669837708093,2182,HRV,HRV_0268,2022-11-30 19:51:11
93,"[{'imgObject': {}, 'id': 'tacos', 'src': '/static/foodstim60/tacos.jpg', 'key': 'u', 'origWidth': 411, 'origHeight': 411, 'width': 411, 'height': 411, 'widthPercent': 0.45, 'rescaleHeight': False, 'trialN': 93, 'loaded': True, 'loadedTime': 2853, 'positionName': 'LEFT', 'positionCoords': [326.28, 226.5], 'bid': 8.24}, {'imgObject': {}, 'id': 'cocktailshrimp', 'src': '/static/foodstim60/cocktailshrimp.jpg', 'key': 'i', 'origWidth': 410, 'origHeight': 410, 'width': 410, 'height': 410, 'widthPercent': 0.45, 'rescaleHeight': False, 'trialN': 93, 'loaded': True, 'loadedTime': 2493.6999999284744, 'positionName': 'RIGHT', 'positionCoords': [798.72, 227], 'bid': 8.290000000000001}]",183659.60000002384,1669837708093,tacos,cocktailshrimp,8.24,8.290000000000001,0.05000000000000071,tacos,1336.0,1336,1336.2999999523163,True,u,185506.79999995232,1847.1999999284744,1669837709940,1847,HRV,HRV_0268,2022-11-30 19:51:11
94,"[{'imgObject': {}, 'id': 'turkeysandwich', 'src': '/static/foodstim60/turkeysandwich.jpg', 'key': 'u', 'origWidth': 409, 'origHeight': 409, 'width': 409, 'height': 409, 'widthPercent': 0.45, 'rescaleHeight': False, 'trialN': 94, 'loaded': True, 'loadedTime': 2684.7999999523163, 'positionName': 'LEFT', 'positionCoords': [328.28, 227.5], 'bid': 5.46}, {'imgObject': {}, 'id': 'granola w milk', 'src': '/static/foodstim60/granola w milk.jpg', 'key': 'i', 'origWidth': 410, 'origHeight': 410, 'width': 410, 'height': 410, 'widthPercent': 0.45, 'rescaleHeight': False, 'trialN': 94, 'loaded': True, 'loadedTime': 2509.5, 'positionName': 'RIGHT', 'positionCoords': [798.72, 227], 'bid': 5.67}]",185506.89999997616,1669837709940,turkeysandwich,granola w milk,5.46,5.67,0.20999999999999996,turkeysandwich,1857.0,1857,1857.2000000476837,True,u,187876.5,2369.600000023842,1669837712310,2370,HRV,HRV_0268,2022-11-30 19:51:11
95,"[{'imgObject': {}, 'id': 'raisin bran w milk', 'src': '/static/foodstim60/raisin bran w milk.jpg', 'key': 'u', 'origWidth': 411, 'origHeight': 411, 'width': 411, 'height': 411, 'widthPercent': 0.45, 'rescaleHeight': False, 'trialN': 95, 'loaded': True, 'loadedTime': 2630.7999999523163, 'positionName': 'LEFT', 'positionCoords': [326.28, 226.5], 'bid': 4.0600000000000005}, {'imgObject': {}, 'id': 'steak', 'src': '/static/foodstim60/steak.jpg', 'key': 'i', 'origWidth': 410, 'origHeight': 410, 'width': 410, 'height': 410, 'widthPercent': 0.45, 'rescaleHeight': False, 'trialN': 95, 'loaded': True, 'loadedTime': 2780.899999976158, 'positionName': 'RIGHT', 'positionCoords': [798.72, 227], 'bid': 3.34}]",187876.60000002384,1669837712310,raisin bran w milk,steak,4.0600000000000005,3.34,-0.7200000000000006,steak,1017.6999999284744,1018,1018.0999999046326,True,i,189411.69999992847,1535.0999999046326,1669837713845,1535,HRV,HRV_0268,2022-11-30 19:51:11
96,"[{'imgObject': {}, 'id': 'olives', 'src': '/static/foodstim60/olives.jpg', 'key': 'u', 'origWidth': 410, 'origHeight': 410, 'width': 410, 'height': 410, 'widthPercent': 0.45, 'rescaleHeight': False, 'trialN': 96, 'loaded': True, 'loadedTime': 2822.899999976158, 'positionName': 'LEFT', 'positionCoords': [327.28, 227], 'bid': 0.1}, {'imgObject': {}, 'id': 'seaweed', 'src': '/static/foodstim60/seaweed.jpg', 'key': 'i', 'origWidth': 410, 'origHeight': 410, 'width': 410, 'height': 410, 'widthPercent': 0.45, 'rescaleHeight': False, 'trialN': 96, 'loaded': True, 'loadedTime': 2809.100000023842, 'positionName': 'RIGHT', 'positionCoords': [798.72, 227], 'bid': 0.54}]",189411.89999997616,1669837713845,olives,seaweed,0.1,0.54,0.44000000000000006,olives,707.1000000238419,708,707.5,True,u,190639.89999997616,1228.0,1669837715073,1228,HRV,HRV_0268,2022-11-30 19:51:11
97,"[{'imgObject': {}, 'id': 'edamame', 'src': '/static/foodstim60/edamame.jpg', 'key': 'u', 'origWidth': 409, 'origHeight': 410, 'width': 409, 'height': 410, 'widthPercent': 0.45, 'rescaleHeight': False, 'trialN': 97, 'loaded': True, 'loadedTime': 2505.100000023842, 'positionName': 'LEFT', 'positionCoords': [328.28, 227], 'bid': 4.0600000000000005}, {'imgObject': {}, 'id': 'cherry tomato', 'src': '/static/foodstim60/cherry tomato.jpg', 'key': 'i', 'origWidth': 410, 'origHeight': 410, 'width': 410, 'height': 410, 'widthPercent': 0.45, 'rescaleHeight': False, 'trialN': 97, 'loaded': True, 'loadedTime': 2512.399999976158, 'positionName': 'RIGHT', 'positionCoords': [798.72, 227], 'bid': 1.67}]",190640.10000002384,1669837715073,edamame,cherry tomato,4.0600000000000005,1.67,-2.3900000000000006,edamame,2478.5999999046326,2479,2478.899999976158,True,u,193641.69999992847,3001.5999999046326,1669837718075,3002,HRV,HRV_0268,2022-11-30 19:51:11
98,"[{'imgObject': {}, 'id': 'cocktailshrimp', 'src': '/static/foodstim60/cocktailshrimp.jpg', 'key': 'u', 'origWidth': 410, 'origHeight': 410, 'width': 410, 'height': 410, 'widthPercent': 0.45, 'rescaleHeight': False, 'trialN': 98, 'loaded': True, 'loadedTime': 2493.399999976158, 'positionName': 'LEFT', 'positionCoords': [327.28, 227], 'bid': 8.290000000000001}, {'imgObject': {}, 'id': 'burger', 'src': '/static/foodstim60/burger.jpg', 'key': 'i', 'origWidth': 409, 'origHeight': 409, 'width': 409, 'height': 409, 'widthPercent': 0.45, 'rescaleHeight': False, 'trialN': 98, 'loaded': True, 'loadedTime': 2816.2999999523163, 'positionName': 'RIGHT', 'positionCoords': [798.72, 227.5], 'bid': 7.51}]",193641.89999997616,1669837718075,cocktailshrimp,burger,8.290000000000001,7.51,-0.7800000000000011,burger,1547.1000000238419,1548,1547.5,True,i,195694.19999992847,2052.2999999523163,1669837720127,2052,HRV,HRV_0268,2022-11-30 19:51:11
99,"[{'imgObject': {}, 'id': 'raspberries', 'src': '/static/foodstim60/raspberries.jpg', 'key': 'u', 'origWidth': 411, 'origHeight': 411, 'width': 411, 'height': 411, 'widthPercent': 0.45, 'rescaleHeight': False, 'trialN': 99, 'loaded': True, 'loadedTime': 2612.399999976158, 'positionName': 'LEFT', 'positionCoords': [326.28, 226.5], 'bid': 2.43}, {'imgObject': {}, 'id': 'froot loops w milk', 'src': '/static/foodstim60/froot loops w milk.jpg', 'key': 'i', 'origWidth': 410, 'origHeight': 410, 'width': 410, 'height': 410, 'widthPercent': 0.45, 'rescaleHeight': False, 'trialN': 99, 'loaded': True, 'loadedTime': 2705.899999976158, 'positionName': 'RIGHT', 'positionCoords': [798.72, 227], 'bid': 0.97}]",195694.39999997616,1669837720128,raspberries,froot loops w milk,2.43,0.97,-1.4600000000000002,raspberries,1715.2000000476837,1715,1715.6000000238419,True,u,197918.29999995232,2223.899999976158,1669837722352,2224,HRV,HRV_0268,2022-11-30 19:51:11
100,"[{'imgObject': {}, 'id': 'burger', 'src': '/static/foodstim60/burger.jpg', 'key': 'u', 'origWidth': 409, 'origHeight': 409, 'width': 409, 'height': 409, 'widthPercent': 0.45, 'rescaleHeight': False, 'trialN': 100, 'loaded': True, 'loadedTime': 2815.5, 'positionName': 'LEFT', 'positionCoords': [328.28, 227.5], 'bid': 7.51}, {'imgObject': {}, 'id': 'burrito', 'src': '/static/foodstim60/burrito.jpg', 'key': 'i', 'origWidth': 410, 'origHeight': 410, 'width': 410, 'height': 410, 'widthPercent': 0.45, 'rescaleHeight': False, 'trialN': 100, 'loaded': True, 'loadedTime': 2497.100000023842, 'positionName': 'RIGHT', 'positionCoords': [798.72, 227], 'bid': 9.58}]",197918.5,1669837722352,burger,burrito,7.51,9.58,2.0700000000000003,burrito,887.5,887,887.6999999284744,True,i,199325.89999997616,1407.3999999761581,1669837723759,1407,HRV,HRV_0268,2022-11-30 19:51:11
101,"[{'imgObject': {}, 'id': 'cocktailshrimp', 'src': '/static/foodstim60/cocktailshrimp.jpg', 'key': 'u', 'origWidth': 410, 'origHeight': 410, 'width': 410, 'height': 410, 'widthPercent': 0.45, 'rescaleHeight': False, 'trialN': 101, 'loaded': True, 'loadedTime': 2493, 'positionName': 'LEFT', 'positionCoords': [327.28, 227], 'bid': 8.290000000000001}, {'imgObject': {}, 'id': 'rigatoni and sauce', 'src': '/static/foodstim60/rigatoni and sauce.jpg', 'key': 'i', 'origWidth': 410, 'origHeight': 411, 'width': 410, 'height': 411, 'widthPercent': 0.45, 'rescaleHeight': False, 'trialN': 101, 'loaded': True, 'loadedTime': 2516, 'positionName': 'RIGHT', 'positionCoords': [798.72, 226.5], 'bid': 8.25}]",199326.10000002384,1669837723759,cocktailshrimp,rigatoni and sauce,8.290000000000001,8.25,-0.040000000000000924,rigatoni and sauce,2262.1999999284744,2263,2262.5,True,i,202094.79999995232,2768.6999999284744,1669837726528,2769,HRV,HRV_0268,2022-11-30 19:51:11
102,"[{'imgObject': {}, 'id': 'avocado', 'src': '/static/foodstim60/avocado.jpg', 'key': 'u', 'origWidth': 409, 'origHeight': 409, 'width': 409, 'height': 409, 'widthPercent': 0.45, 'rescaleHeight': False, 'trialN': 102, 'loaded': True, 'loadedTime': 2542.2999999523163, 'positionName': 'LEFT', 'positionCoords': [328.28, 227.5], 'bid': 4.0200000000000005}, {'imgObject': {}, 'id': 'shreddedwheatwithmilk', 'src': '/static/foodstim60/shreddedwheatwithmilk.jpg', 'key': 'i', 'origWidth': 410, 'origHeight': 410, 'width': 410, 'height': 410, 'widthPercent': 0.45, 'rescaleHeight': False, 'trialN': 102, 'loaded': True, 'loadedTime': 2729.899999976158, 'positionName': 'RIGHT', 'positionCoords': [798.72, 227], 'bid': 3.37}]",202095.0,1669837726528,avocado,shreddedwheatwithmilk,4.0200000000000005,3.37,-0.6500000000000004,avocado,1790.7999999523163,1791,1791.0,True,u,204396.60000002384,2301.600000023842,1669837728830,2302,HRV,HRV_0268,2022-11-30 19:51:11
103,"[{'imgObject': {}, 'id': 'seaweed', 'src': '/static/foodstim60/seaweed.jpg', 'key': 'u', 'origWidth': 410, 'origHeight': 410, 'width': 410, 'height': 410, 'widthPercent': 0.45, 'rescaleHeight': False, 'trialN': 103, 'loaded': True, 'loadedTime': 2809.899999976158, 'positionName': 'LEFT', 'positionCoords': [327.28, 227], 'bid': 0.54}, {'imgObject': {}, 'id': 'shreddedwheatwithmilk', 'src': '/static/foodstim60/shreddedwheatwithmilk.jpg', 'key': 'i', 'origWidth': 410, 'origHeight': 410, 'width': 410, 'height': 410, 'widthPercent': 0.45, 'rescaleHeight': False, 'trialN': 103, 'loaded': True, 'loadedTime': 2731.5, 'positionName': 'RIGHT', 'positionCoords': [798.72, 227], 'bid': 3.37}]",204396.79999995232,1669837728830,seaweed,shreddedwheatwithmilk,0.54,3.37,2.83,shreddedwheatwithmilk,873.5,874,873.8000000715256,True,i,205788.79999995232,1392.0,1669837730222,1392,HRV,HRV_0268,2022-11-30 19:51:11
104,"[{'imgObject': {}, 'id': 'shreddedwheatwithmilk', 'src': '/static/foodstim60/shreddedwheatwithmilk.jpg', 'key': 'u', 'origWidth': 410, 'origHeight': 410, 'width': 410, 'height': 410, 'widthPercent': 0.45, 'rescaleHeight': False, 'trialN': 104, 'loaded': True, 'loadedTime': 2730.600000023842, 'positionName': 'LEFT', 'positionCoords': [327.28, 227], 'bid': 3.37}, {'imgObject': {}, 'id': 'mango', 'src': '/static/foodstim60/mango.jpg', 'key': 'i', 'origWidth': 411, 'origHeight': 411, 'width': 411, 'height': 411, 'widthPercent': 0.45, 'rescaleHeight': False, 'trialN': 104, 'loaded': True, 'loadedTime': 2505.399999976158, 'positionName': 'RIGHT', 'positionCoords': [798.72, 226.5], 'bid': 4.08}]",205789.10000002384,1669837730222,shreddedwheatwithmilk,mango,3.37,4.08,0.71,mango,1131.8999999761581,1142,1132.5,True,i,207428.5,1639.3999999761581,1669837731871,1649,HRV,HRV_0268,2022-11-30 19:51:11
105,"[{'imgObject': {}, 'id': 'steak', 'src': '/static/foodstim60/steak.jpg', 'key': 'u', 'origWidth': 410, 'origHeight': 410, 'width': 410, 'height': 410, 'widthPercent': 0.45, 'rescaleHeight': False, 'trialN': 105, 'loaded': True, 'loadedTime': 2780.5, 'positionName': 'LEFT', 'positionCoords': [327.28, 227], 'bid': 3.34}, {'imgObject': {}, 'id': 'corn cob', 'src': '/static/foodstim60/corn cob.jpg', 'key': 'i', 'origWidth': 411, 'origHeight': 411, 'width': 411, 'height': 411, 'widthPercent': 0.45, 'rescaleHeight': False, 'trialN': 105, 'loaded': True, 'loadedTime': 2776.899999976158, 'positionName': 'RIGHT', 'positionCoords': [798.72, 226.5], 'bid': 3}]",207428.69999992847,1669837731871,steak,corn cob,3.34,3.0,-0.33999999999999986,steak,926.4000000953674,927,926.7000000476837,True,u,208860.19999992847,1431.5,1669837733303,1432,HRV,HRV_0268,2022-11-30 19:51:11
106,"[{'imgObject': {}, 'id': 'salmon', 'src': '/static/foodstim60/salmon.jpg', 'key': 'u', 'origWidth': 410, 'origHeight': 409, 'width': 410, 'height': 409, 'widthPercent': 0.45, 'rescaleHeight': False, 'trialN': 106, 'loaded': True, 'loadedTime': 2824.7999999523163, 'positionName': 'LEFT', 'positionCoords': [327.28, 227.5], 'bid': 4.46}, {'imgObject': {}, 'id': 'pear', 'src': '/static/foodstim60/pear.jpg', 'key': 'i', 'origWidth': 411, 'origHeight': 410, 'width': 411, 'height': 410, 'widthPercent': 0.45, 'rescaleHeight': False, 'trialN': 106, 'loaded': True, 'loadedTime': 2669.5, 'positionName': 'RIGHT', 'positionCoords': [798.72, 227], 'bid': 6.11}]",208860.5,1669837733303,salmon,pear,4.46,6.11,1.6500000000000004,salmon,1152.2999999523163,1153,1152.7999999523163,True,u,210514.79999995232,1654.2999999523163,1669837734957,1654,HRV,HRV_0268,2022-11-30 19:51:11
107,"[{'imgObject': {}, 'id': 'cocktailshrimp', 'src': '/static/foodstim60/cocktailshrimp.jpg', 'key': 'u', 'origWidth': 410, 'origHeight': 410, 'width': 410, 'height': 410, 'widthPercent': 0.45, 'rescaleHeight': False, 'trialN': 107, 'loaded': True, 'loadedTime': 2493.5, 'positionName': 'LEFT', 'positionCoords': [327.28, 227], 'bid': 8.290000000000001}, {'imgObject': {}, 'id': 'cantaloupe', 'src': '/static/foodstim60/cantaloupe.jpg', 'key': 'i', 'origWidth': 409, 'origHeight': 409, 'width': 409, 'height': 409, 'widthPercent': 0.45, 'rescaleHeight': False, 'trialN': 107, 'loaded': True, 'loadedTime': 2830.100000023842, 'positionName': 'RIGHT', 'positionCoords': [798.72, 227.5], 'bid': 4.53}]",210514.79999995232,1669837734957,cocktailshrimp,cantaloupe,8.290000000000001,4.53,-3.7600000000000007,cocktailshrimp,1165.0,1166,1165.3999999761581,True,u,212199.5,1684.7000000476837,1669837736642,1685,HRV,HRV_0268,2022-11-30 19:51:11
