trialN,stimuli,trialStartTime,trialStartTime_UNIX,stimulus1,stimulus2,stimulus1Bid,stimulus2Bid,delta,selected,rt,rt_UNIX,rt_perfnow,receivedResponse,rsp,trialEndTime,trialDuration,trialEndTime_UNIX,trialDuration_UNIX,exp,subjectId,date
0,"[{'imgObject': {}, 'id': 'kiwi', 'src': '/static/foodstim60/kiwi.jpg', 'key': 'u', 'origWidth': 410, 'origHeight': 410, 'width': 410, 'height': 410, 'widthPercent': 0.45, 'rescaleHeight': False, 'trialN': 0, 'loaded': True, 'loadedTime': 1994.3000000715256, 'positionName': 'LEFT', 'positionCoords': [327.28, 227], 'bid': 5.48}, {'imgObject': {}, 'id': 'eggs', 'src': '/static/foodstim60/eggs.jpg', 'key': 'i', 'origWidth': 409, 'origHeight': 409, 'width': 409, 'height': 409, 'widthPercent': 0.45, 'rescaleHeight': False, 'trialN': 0, 'loaded': True, 'loadedTime': 2012.7000000476837, 'positionName': 'RIGHT', 'positionCoords': [798.72, 227.5], 'bid': 5.54}]",2557.0,1669829994255,kiwi,eggs,5.48,5.54,0.05999999999999961,eggs,269.5,270,269.7000000476837,True,i,3334.100000023842,777.1000000238419,1669829995032,777,HRV,HRV_0029,2022-11-30 17:43:20
1,"[{'imgObject': {}, 'id': 'strawberries', 'src': '/static/foodstim60/strawberries.jpg', 'key': 'u', 'origWidth': 410, 'origHeight': 410, 'width': 410, 'height': 410, 'widthPercent': 0.45, 'rescaleHeight': False, 'trialN': 1, 'loaded': True, 'loadedTime': 2015, 'positionName': 'LEFT', 'positionCoords': [327.28, 227], 'bid': 4.88}, {'imgObject': {}, 'id': 'lox', 'src': '/static/foodstim60/lox.jpg', 'key': 'i', 'origWidth': 410, 'origHeight': 411, 'width': 410, 'height': 411, 'widthPercent': 0.45, 'rescaleHeight': False, 'trialN': 1, 'loaded': True, 'loadedTime': 2016.6000000238419, 'positionName': 'RIGHT', 'positionCoords': [798.72, 226.5], 'bid': 4.17}]",3334.3000000715256,1669829995032,strawberries,lox,4.88,4.17,-0.71,lox,79.89999997615814,80,80.09999990463257,True,i,3932.2000000476837,597.8999999761581,1669829995630,598,HRV,HRV_0029,2022-11-30 17:43:20
2,"[{'imgObject': {}, 'id': 'froot loops w milk', 'src': '/static/foodstim60/froot loops w milk.jpg', 'key': 'u', 'origWidth': 410, 'origHeight': 410, 'width': 410, 'height': 410, 'widthPercent': 0.45, 'rescaleHeight': False, 'trialN': 2, 'loaded': True, 'loadedTime': 2018.3000000715256, 'positionName': 'LEFT', 'positionCoords': [327.28, 227], 'bid': 4.03}, {'imgObject': {}, 'id': 'fruitsalad', 'src': '/static/foodstim60/fruitsalad.jpg', 'key': 'i', 'origWidth': 410, 'origHeight': 410, 'width': 410, 'height': 410, 'widthPercent': 0.45, 'rescaleHeight': False, 'trialN': 2, 'loaded': True, 'loadedTime': 2021.8000000715256, 'positionName': 'RIGHT', 'positionCoords': [798.72, 227], 'bid': 4.86}]",3932.3000000715256,1669829995630,froot loops w milk,fruitsalad,4.03,4.86,0.8300000000000001,fruitsalad,247.09999990463257,248,247.39999997615814,True,i,4690.100000023842,757.7999999523163,1669829996388,758,HRV,HRV_0029,2022-11-30 17:43:20
3,"[{'imgObject': {}, 'id': 'hotdog w must', 'src': '/static/foodstim60/hotdog w must.jpg', 'key': 'u', 'origWidth': 409, 'origHeight': 409, 'width': 409, 'height': 409, 'widthPercent': 0.45, 'rescaleHeight': False, 'trialN': 3, 'loaded': True, 'loadedTime': 2011.5, 'positionName': 'LEFT', 'positionCoords': [328.28, 227.5], 'bid': 4.68}, {'imgObject': {}, 'id': 'ice cream sundae 002', 'src': '/static/foodstim60/ice cream sundae 002.jpg', 'key': 'i', 'origWidth': 409, 'origHeight': 409, 'width': 409, 'height': 409, 'widthPercent': 0.45, 'rescaleHeight': False, 'trialN': 3, 'loaded': True, 'loadedTime': 2019.6000000238419, 'positionName': 'RIGHT', 'positionCoords': [798.72, 227.5], 'bid': 4.7}]",4690.200000047684,1669829996388,hotdog w must,ice cream sundae 002,4.68,4.7,0.020000000000000462,ice cream sundae 002,106,106,106.29999995231628,True,i,5297.0,606.7999999523163,1669829996995,607,HRV,HRV_0029,2022-11-30 17:43:20
4,"[{'imgObject': {}, 'id': 'froot loops w milk', 'src': '/static/foodstim60/froot loops w milk.jpg', 'key': 'u', 'origWidth': 410, 'origHeight': 410, 'width': 410, 'height': 410, 'widthPercent': 0.45, 'rescaleHeight': False, 'trialN': 4, 'loaded': True, 'loadedTime': 2018.6000000238419, 'positionName': 'LEFT', 'positionCoords': [327.28, 227], 'bid': 4.03}, {'imgObject': {}, 'id': 'hotdog w must', 'src': '/static/foodstim60/hotdog w must.jpg', 'key': 'i', 'origWidth': 409, 'origHeight': 409, 'width': 409, 'height': 409, 'widthPercent': 0.45, 'rescaleHeight': False, 'trialN': 4, 'loaded': True, 'loadedTime': 2010.2000000476837, 'positionName': 'RIGHT', 'positionCoords': [798.72, 227.5], 'bid': 4.68}]",5297.200000047684,1669829996995,froot loops w milk,hotdog w must,4.03,4.68,0.6499999999999995,hotdog w must,117.79999995231628,118,118.0,True,i,5928.899999976158,631.6999999284744,1669829997627,632,HRV,HRV_0029,2022-11-30 17:43:20
5,"[{'imgObject': {}, 'id': 'banana', 'src': '/static/foodstim60/banana.jpg', 'key': 'u', 'origWidth': 410, 'origHeight': 410, 'width': 410, 'height': 410, 'widthPercent': 0.45, 'rescaleHeight': False, 'trialN': 5, 'loaded': True, 'loadedTime': 2023.5, 'positionName': 'LEFT', 'positionCoords': [327.28, 227], 'bid': 5.3100000000000005}, {'imgObject': {}, 'id': 'granola w milk', 'src': '/static/foodstim60/granola w milk.jpg', 'key': 'i', 'origWidth': 410, 'origHeight': 410, 'width': 410, 'height': 410, 'widthPercent': 0.45, 'rescaleHeight': False, 'trialN': 5, 'loaded': True, 'loadedTime': 2023.7000000476837, 'positionName': 'RIGHT', 'positionCoords': [798.72, 227], 'bid': 5.32}]",5929.0,1669829997627,banana,granola w milk,5.3100000000000005,5.32,0.009999999999999787,granola w milk,1061.5,1062,1061.7000000476837,True,i,7496.0,1567.0,1669829999194,1567,HRV,HRV_0029,2022-11-30 17:43:20
6,"[{'imgObject': {}, 'id': 'yogurt no spoon', 'src': '/static/foodstim60/yogurt no spoon.jpg', 'key': 'u', 'origWidth': 411, 'origHeight': 410, 'width': 411, 'height': 410, 'widthPercent': 0.45, 'rescaleHeight': False, 'trialN': 6, 'loaded': True, 'loadedTime': 2027.2000000476837, 'positionName': 'LEFT', 'positionCoords': [326.28, 227], 'bid': 5.4}, {'imgObject': {}, 'id': 'raisin bran w milk', 'src': '/static/foodstim60/raisin bran w milk.jpg', 'key': 'i', 'origWidth': 411, 'origHeight': 411, 'width': 411, 'height': 411, 'widthPercent': 0.45, 'rescaleHeight': False, 'trialN': 6, 'loaded': True, 'loadedTime': 2028.6000000238419, 'positionName': 'RIGHT', 'positionCoords': [798.72, 226.5], 'bid': 5.65}]",7496.100000023842,1669829999194,yogurt no spoon,raisin bran w milk,5.4,5.65,0.25,raisin bran w milk,917.6000000238419,918,917.7999999523163,True,i,8926.100000023842,1430.0,1669830000624,1430,HRV,HRV_0029,2022-11-30 17:43:20
7,"[{'imgObject': {}, 'id': 'sweetpotato', 'src': '/static/foodstim60/sweetpotato.jpg', 'key': 'u', 'origWidth': 410, 'origHeight': 410, 'width': 410, 'height': 410, 'widthPercent': 0.45, 'rescaleHeight': False, 'trialN': 7, 'loaded': True, 'loadedTime': 2040.3000000715256, 'positionName': 'LEFT', 'positionCoords': [327.28, 227], 'bid': 5.15}, {'imgObject': {}, 'id': 'roastedpotatoes', 'src': '/static/foodstim60/roastedpotatoes.jpg', 'key': 'i', 'origWidth': 409, 'origHeight': 410, 'width': 409, 'height': 410, 'widthPercent': 0.45, 'rescaleHeight': False, 'trialN': 7, 'loaded': True, 'loadedTime': 2043.8999999761581, 'positionName': 'RIGHT', 'positionCoords': [798.72, 227], 'bid': 5.8500000000000005}]",8926.300000071526,1669830000624,sweetpotato,roastedpotatoes,5.15,5.8500000000000005,0.7000000000000002,roastedpotatoes,1296.5999999046326,1297,1296.8999999761581,True,i,10737.0,1810.6999999284744,1669830002435,1811,HRV,HRV_0029,2022-11-30 17:43:20
8,"[{'imgObject': {}, 'id': 'avocado', 'src': '/static/foodstim60/avocado.jpg', 'key': 'u', 'origWidth': 409, 'origHeight': 409, 'width': 409, 'height': 409, 'widthPercent': 0.45, 'rescaleHeight': False, 'trialN': 8, 'loaded': True, 'loadedTime': 2044.3999999761581, 'positionName': 'LEFT', 'positionCoords': [328.28, 227.5], 'bid': 4.58}, {'imgObject': {}, 'id': 'blackbeanswithrice', 'src': '/static/foodstim60/blackbeanswithrice.jpg', 'key': 'i', 'origWidth': 410, 'origHeight': 410, 'width': 410, 'height': 410, 'widthPercent': 0.45, 'rescaleHeight': False, 'trialN': 8, 'loaded': True, 'loadedTime': 2048.600000023842, 'positionName': 'RIGHT', 'positionCoords': [798.72, 227], 'bid': 5.03}]",10737.100000023842,1669830002435,avocado,blackbeanswithrice,4.58,5.03,0.4500000000000002,blackbeanswithrice,255.70000004768372,256,256.0,True,i,11496.300000071526,759.2000000476837,1669830003194,759,HRV,HRV_0029,2022-11-30 17:43:20
9,"[{'imgObject': {}, 'id': 'bagel and cc', 'src': '/static/foodstim60/bagel and cc.jpg', 'key': 'u', 'origWidth': 410, 'origHeight': 410, 'width': 410, 'height': 410, 'widthPercent': 0.45, 'rescaleHeight': False, 'trialN': 9, 'loaded': True, 'loadedTime': 2049.600000023842, 'positionName': 'LEFT', 'positionCoords': [327.28, 227], 'bid': 5.29}, {'imgObject': {}, 'id': 'burger', 'src': '/static/foodstim60/burger.jpg', 'key': 'i', 'origWidth': 409, 'origHeight': 409, 'width': 409, 'height': 409, 'widthPercent': 0.45, 'rescaleHeight': False, 'trialN': 9, 'loaded': True, 'loadedTime': 2056.100000023842, 'positionName': 'RIGHT', 'positionCoords': [798.72, 227.5], 'bid': 5.54}]",11496.399999976158,1669830003194,bagel and cc,burger,5.29,5.54,0.25,burger,90.60000002384186,91,90.80000007152557,True,i,12101.5,605.1000000238419,1669830003799,605,HRV,HRV_0029,2022-11-30 17:43:20
10,"[{'imgObject': {}, 'id': 'cheerios', 'src': '/static/foodstim60/cheerios.jpg', 'key': 'u', 'origWidth': 409, 'origHeight': 410, 'width': 409, 'height': 410, 'widthPercent': 0.45, 'rescaleHeight': False, 'trialN': 10, 'loaded': True, 'loadedTime': 2057, 'positionName': 'LEFT', 'positionCoords': [328.28, 227], 'bid': 4.8}, {'imgObject': {}, 'id': 'hashbrowns', 'src': '/static/foodstim60/hashbrowns.jpg', 'key': 'i', 'origWidth': 411, 'origHeight': 410, 'width': 411, 'height': 410, 'widthPercent': 0.45, 'rescaleHeight': False, 'trialN': 10, 'loaded': True, 'loadedTime': 2072.7000000476837, 'positionName': 'RIGHT', 'positionCoords': [798.72, 227], 'bid': 4.98}]",12101.700000047684,1669830003800,cheerios,hashbrowns,4.8,4.98,0.1800000000000006,hashbrowns,81.89999997615814,82,82.10000002384186,True,i,12690.899999976158,589.1999999284744,1669830004389,589,HRV,HRV_0029,2022-11-30 17:43:20
11,"[{'imgObject': {}, 'id': 'cherry tomato', 'src': '/static/foodstim60/cherry tomato.jpg', 'key': 'u', 'origWidth': 410, 'origHeight': 410, 'width': 410, 'height': 410, 'widthPercent': 0.45, 'rescaleHeight': False, 'trialN': 11, 'loaded': True, 'loadedTime': 2082.600000023842, 'positionName': 'LEFT', 'positionCoords': [327.28, 227], 'bid': 5.1000000000000005}, {'imgObject': {}, 'id': 'cantaloupe', 'src': '/static/foodstim60/cantaloupe.jpg', 'key': 'i', 'origWidth': 409, 'origHeight': 409, 'width': 409, 'height': 409, 'widthPercent': 0.45, 'rescaleHeight': False, 'trialN': 11, 'loaded': True, 'loadedTime': 2090.2000000476837, 'positionName': 'RIGHT', 'positionCoords': [798.72, 227.5], 'bid': 4.7}]",12691.0,1669830004389,cherry tomato,cantaloupe,5.1000000000000005,4.7,-0.40000000000000036,cantaloupe,89.5,89,89.70000004768372,True,i,13296.800000071526,605.8000000715256,1669830004994,605,HRV,HRV_0029,2022-11-30 17:43:20
12,"[{'imgObject': {}, 'id': 'pear', 'src': '/static/foodstim60/pear.jpg', 'key': 'u', 'origWidth': 411, 'origHeight': 410, 'width': 411, 'height': 410, 'widthPercent': 0.45, 'rescaleHeight': False, 'trialN': 12, 'loaded': True, 'loadedTime': 2090.399999976158, 'positionName': 'LEFT', 'positionCoords': [326.28, 227], 'bid': 5.3100000000000005}, {'imgObject': {}, 'id': 'mashed potato', 'src': '/static/foodstim60/mashed potato.jpg', 'key': 'i', 'origWidth': 409, 'origHeight': 409, 'width': 409, 'height': 409, 'widthPercent': 0.45, 'rescaleHeight': False, 'trialN': 12, 'loaded': True, 'loadedTime': 2097.7000000476837, 'positionName': 'RIGHT', 'positionCoords': [798.72, 227.5], 'bid': 5.54}]",13297.0,1669830004995,pear,mashed potato,5.3100000000000005,5.54,0.22999999999999954,mashed potato,144.30000007152557,144,144.5,True,i,13946.5,649.5,1669830005644,649,HRV,HRV_0029,2022-11-30 17:43:20
13,"[{'imgObject': {}, 'id': 'raisin bran w milk', 'src': '/static/foodstim60/raisin bran w milk.jpg', 'key': 'u', 'origWidth': 411, 'origHeight': 411, 'width': 411, 'height': 411, 'widthPercent': 0.45, 'rescaleHeight': False, 'trialN': 13, 'loaded': True, 'loadedTime': 2028.5, 'positionName': 'LEFT', 'positionCoords': [326.28, 226.5], 'bid': 5.65}, {'imgObject': {}, 'id': 'mango', 'src': '/static/foodstim60/mango.jpg', 'key': 'i', 'origWidth': 411, 'origHeight': 411, 'width': 411, 'height': 411, 'widthPercent': 0.45, 'rescaleHeight': False, 'trialN': 13, 'loaded': True, 'loadedTime': 2103.600000023842, 'positionName': 'RIGHT', 'positionCoords': [798.72, 226.5], 'bid': 5.78}]",13946.600000023842,1669830005644,raisin bran w milk,mango,5.65,5.78,0.1299999999999999,mango,439.89999997615814,440,440.10000002384186,True,i,14892.200000047684,945.6000000238419,1669830006590,946,HRV,HRV_0029,2022-11-30 17:43:20
14,"[{'imgObject': {}, 'id': 'grilled chicken strips', 'src': '/static/foodstim60/grilled chicken strips.jpg', 'key': 'u', 'origWidth': 410, 'origHeight': 411, 'width': 410, 'height': 411, 'widthPercent': 0.45, 'rescaleHeight': False, 'trialN': 14, 'loaded': True, 'loadedTime': 2104.5, 'positionName': 'LEFT', 'positionCoords': [327.28, 226.5], 'bid': 5.44}, {'imgObject': {}, 'id': 'fried eggs', 'src': '/static/foodstim60/fried eggs.jpg', 'key': 'i', 'origWidth': 410, 'origHeight': 410, 'width': 410, 'height': 410, 'widthPercent': 0.45, 'rescaleHeight': False, 'trialN': 14, 'loaded': True, 'loadedTime': 2105.5, 'positionName': 'RIGHT', 'positionCoords': [798.72, 227], 'bid': 5.44}]",14892.399999976158,1669830006590,grilled chicken strips,fried eggs,5.44,5.44,0.0,fried eggs,142.80000007152557,143,142.90000009536743,True,i,15544.800000071526,652.4000000953674,1669830007242,652,HRV,HRV_0029,2022-11-30 17:43:20
15,"[{'imgObject': {}, 'id': 'omelette', 'src': '/static/foodstim60/omelette.jpg', 'key': 'u', 'origWidth': 410, 'origHeight': 409, 'width': 410, 'height': 409, 'widthPercent': 0.45, 'rescaleHeight': False, 'trialN': 15, 'loaded': True, 'loadedTime': 2117.100000023842, 'positionName': 'LEFT', 'positionCoords': [327.28, 227.5], 'bid': 5.44}, {'imgObject': {}, 'id': 'mango', 'src': '/static/foodstim60/mango.jpg', 'key': 'i', 'origWidth': 411, 'origHeight': 411, 'width': 411, 'height': 411, 'widthPercent': 0.45, 'rescaleHeight': False, 'trialN': 15, 'loaded': True, 'loadedTime': 2098.399999976158, 'positionName': 'RIGHT', 'positionCoords': [798.72, 226.5], 'bid': 5.78}]",15545.0,1669830007243,omelette,mango,5.44,5.78,0.33999999999999986,mango,157.39999997615814,157,157.5,True,i,16212.5,667.5,1669830007910,667,HRV,HRV_0029,2022-11-30 17:43:20
16,"[{'imgObject': {}, 'id': 'popsicles', 'src': '/static/foodstim60/popsicles.jpg', 'key': 'u', 'origWidth': 410, 'origHeight': 410, 'width': 410, 'height': 410, 'widthPercent': 0.45, 'rescaleHeight': False, 'trialN': 16, 'loaded': True, 'loadedTime': 2556.3000000715256, 'positionName': 'LEFT', 'positionCoords': [327.28, 227], 'bid': 4.88}, {'imgObject': {}, 'id': 'strawberries', 'src': '/static/foodstim60/strawberries.jpg', 'key': 'i', 'origWidth': 410, 'origHeight': 410, 'width': 410, 'height': 410, 'widthPercent': 0.45, 'rescaleHeight': False, 'trialN': 16, 'loaded': True, 'loadedTime': 2014.7000000476837, 'positionName': 'RIGHT', 'positionCoords': [798.72, 227], 'bid': 4.88}]",16212.600000023842,1669830007910,popsicles,strawberries,4.88,4.88,0.0,strawberries,820.3999999761581,821,820.7000000476837,True,i,17540.0,1327.3999999761581,1669830009238,1328,HRV,HRV_0029,2022-11-30 17:43:20
17,"[{'imgObject': {}, 'id': 'rigatoni and sauce', 'src': '/static/foodstim60/rigatoni and sauce.jpg', 'key': 'u', 'origWidth': 410, 'origHeight': 411, 'width': 410, 'height': 411, 'widthPercent': 0.45, 'rescaleHeight': False, 'trialN': 17, 'loaded': True, 'loadedTime': 2126.5, 'positionName': 'LEFT', 'positionCoords': [327.28, 226.5], 'bid': 5.22}, {'imgObject': {}, 'id': 'cocktailshrimp', 'src': '/static/foodstim60/cocktailshrimp.jpg', 'key': 'i', 'origWidth': 410, 'origHeight': 410, 'width': 410, 'height': 410, 'widthPercent': 0.45, 'rescaleHeight': False, 'trialN': 17, 'loaded': True, 'loadedTime': 2135.5, 'positionName': 'RIGHT', 'positionCoords': [798.72, 227], 'bid': 5.23}]",17540.200000047684,1669830009238,rigatoni and sauce,cocktailshrimp,5.22,5.23,0.010000000000000675,cocktailshrimp,2951,2951,2951.100000023842,True,i,21002.600000023842,3462.399999976158,1669830012700,3462,HRV,HRV_0029,2022-11-30 17:43:20
18,"[{'imgObject': {}, 'id': 'burrito', 'src': '/static/foodstim60/burrito.jpg', 'key': 'u', 'origWidth': 410, 'origHeight': 410, 'width': 410, 'height': 410, 'widthPercent': 0.45, 'rescaleHeight': False, 'trialN': 18, 'loaded': True, 'loadedTime': 2143.5, 'positionName': 'LEFT', 'positionCoords': [327.28, 227], 'bid': 4.76}, {'imgObject': {}, 'id': 'granola w milk', 'src': '/static/foodstim60/granola w milk.jpg', 'key': 'i', 'origWidth': 410, 'origHeight': 410, 'width': 410, 'height': 410, 'widthPercent': 0.45, 'rescaleHeight': False, 'trialN': 18, 'loaded': True, 'loadedTime': 2024.8999999761581, 'positionName': 'RIGHT', 'positionCoords': [798.72, 227], 'bid': 5.32}]",21002.899999976158,1669830012701,burrito,granola w milk,4.76,5.32,0.5600000000000005,NaN,NaN,NaN,,False,NaN,25025.5,4022.600000023842,1669830016723,4022,HRV,HRV_0029,2022-11-30 17:43:20
19,"[{'imgObject': {}, 'id': 'corn cob', 'src': '/static/foodstim60/corn cob.jpg', 'key': 'u', 'origWidth': 411, 'origHeight': 411, 'width': 411, 'height': 411, 'widthPercent': 0.45, 'rescaleHeight': False, 'trialN': 19, 'loaded': True, 'loadedTime': 2145.2000000476837, 'positionName': 'LEFT', 'positionCoords': [326.28, 226.5], 'bid': 4.89}, {'imgObject': {}, 'id': 'cantaloupe', 'src': '/static/foodstim60/cantaloupe.jpg', 'key': 'i', 'origWidth': 409, 'origHeight': 409, 'width': 409, 'height': 409, 'widthPercent': 0.45, 'rescaleHeight': False, 'trialN': 19, 'loaded': True, 'loadedTime': 2083, 'positionName': 'RIGHT', 'positionCoords': [798.72, 227.5], 'bid': 4.7}]",25025.600000023842,1669830016723,corn cob,cantaloupe,4.89,4.7,-0.1899999999999995,cantaloupe,622.7999999523163,623,623.1000000238419,True,i,26161.600000023842,1136.0,1669830017859,1136,HRV,HRV_0029,2022-11-30 17:43:20
20,"[{'imgObject': {}, 'id': 'apple slices', 'src': '/static/foodstim60/apple slices.jpg', 'key': 'u', 'origWidth': 409, 'origHeight': 410, 'width': 409, 'height': 410, 'widthPercent': 0.45, 'rescaleHeight': False, 'trialN': 20, 'loaded': True, 'loadedTime': 2146.100000023842, 'positionName': 'LEFT', 'positionCoords': [328.28, 227], 'bid': 5.26}, {'imgObject': {}, 'id': 'olives', 'src': '/static/foodstim60/olives.jpg', 'key': 'i', 'origWidth': 410, 'origHeight': 410, 'width': 410, 'height': 410, 'widthPercent': 0.45, 'rescaleHeight': False, 'trialN': 20, 'loaded': True, 'loadedTime': 2156.600000023842, 'positionName': 'RIGHT', 'positionCoords': [798.72, 227], 'bid': 5.26}]",26161.600000023842,1669830017859,apple slices,olives,5.26,5.26,0.0,olives,454,454,454.2000000476837,True,i,27128.800000071526,967.2000000476837,1669830018826,967,HRV,HRV_0029,2022-11-30 17:43:20
21,"[{'imgObject': {}, 'id': 'salmon', 'src': '/static/foodstim60/salmon.jpg', 'key': 'u', 'origWidth': 410, 'origHeight': 409, 'width': 410, 'height': 409, 'widthPercent': 0.45, 'rescaleHeight': False, 'trialN': 21, 'loaded': True, 'loadedTime': 2163.100000023842, 'positionName': 'LEFT', 'positionCoords': [327.28, 227.5], 'bid': 5.3100000000000005}, {'imgObject': {}, 'id': 'granola w milk', 'src': '/static/foodstim60/granola w milk.jpg', 'key': 'i', 'origWidth': 410, 'origHeight': 410, 'width': 410, 'height': 410, 'widthPercent': 0.45, 'rescaleHeight': False, 'trialN': 21, 'loaded': True, 'loadedTime': 2025.1000000238419, 'positionName': 'RIGHT', 'positionCoords': [798.72, 227], 'bid': 5.32}]",27128.800000071526,1669830018826,salmon,granola w milk,5.3100000000000005,5.32,0.009999999999999787,granola w milk,401.7999999523163,402,401.89999997615814,True,i,28042.100000023842,913.2999999523163,1669830019740,914,HRV,HRV_0029,2022-11-30 17:43:20
22,"[{'imgObject': {}, 'id': 'turkey sandwich', 'src': '/static/foodstim60/turkey sandwich.jpg', 'key': 'u', 'origWidth': 409, 'origHeight': 409, 'width': 409, 'height': 409, 'widthPercent': 0.45, 'rescaleHeight': False, 'trialN': 22, 'loaded': True, 'loadedTime': 2164.8000000715256, 'positionName': 'LEFT', 'positionCoords': [328.28, 227.5], 'bid': 4.2700000000000005}, {'imgObject': {}, 'id': 'blueberries', 'src': '/static/foodstim60/blueberries.jpg', 'key': 'i', 'origWidth': 411, 'origHeight': 411, 'width': 411, 'height': 411, 'widthPercent': 0.45, 'rescaleHeight': False, 'trialN': 22, 'loaded': True, 'loadedTime': 2172.8000000715256, 'positionName': 'RIGHT', 'positionCoords': [798.72, 226.5], 'bid': 4.89}]",28042.300000071526,1669830019740,turkey sandwich,blueberries,4.2700000000000005,4.89,0.6199999999999992,blueberries,415.5,416,415.59999990463257,True,i,28964.0,921.6999999284744,1669830020662,922,HRV,HRV_0029,2022-11-30 17:43:20
23,"[{'imgObject': {}, 'id': 'cheerios', 'src': '/static/foodstim60/cheerios.jpg', 'key': 'u', 'origWidth': 409, 'origHeight': 410, 'width': 409, 'height': 410, 'widthPercent': 0.45, 'rescaleHeight': False, 'trialN': 23, 'loaded': True, 'loadedTime': 2056.2000000476837, 'positionName': 'LEFT', 'positionCoords': [328.28, 227], 'bid': 4.8}, {'imgObject': {}, 'id': 'turkeysandwich', 'src': '/static/foodstim60/turkeysandwich.jpg', 'key': 'i', 'origWidth': 409, 'origHeight': 409, 'width': 409, 'height': 409, 'widthPercent': 0.45, 'rescaleHeight': False, 'trialN': 23, 'loaded': True, 'loadedTime': 2174.5, 'positionName': 'RIGHT', 'positionCoords': [798.72, 227.5], 'bid': 5.3500000000000005}]",28964.100000023842,1669830020662,cheerios,turkeysandwich,4.8,5.3500000000000005,0.5500000000000007,turkeysandwich,308.89999997615814,309,309.10000002384186,True,i,29787.0,822.8999999761581,1669830021485,823,HRV,HRV_0029,2022-11-30 17:43:20
24,"[{'imgObject': {}, 'id': 'rigatoni', 'src': '/static/foodstim60/rigatoni.jpg', 'key': 'u', 'origWidth': 411, 'origHeight': 411, 'width': 411, 'height': 411, 'widthPercent': 0.45, 'rescaleHeight': False, 'trialN': 24, 'loaded': True, 'loadedTime': 2182.5, 'positionName': 'LEFT', 'positionCoords': [326.28, 226.5], 'bid': 5.22}, {'imgObject': {}, 'id': 'salad w chicken', 'src': '/static/foodstim60/salad w chicken.jpg', 'key': 'i', 'origWidth': 411, 'origHeight': 411, 'width': 411, 'height': 411, 'widthPercent': 0.45, 'rescaleHeight': False, 'trialN': 24, 'loaded': True, 'loadedTime': 2183.899999976158, 'positionName': 'RIGHT', 'positionCoords': [798.72, 226.5], 'bid': 4.24}]",29787.200000047684,1669830021485,rigatoni,salad w chicken,5.22,4.24,-0.9799999999999995,salad w chicken,18.299999952316284,18,18.5,True,i,30317.100000023842,529.8999999761581,1669830022015,530,HRV,HRV_0029,2022-11-30 17:43:20
25,"[{'imgObject': {}, 'id': 'grilled chicken strips', 'src': '/static/foodstim60/grilled chicken strips.jpg', 'key': 'u', 'origWidth': 410, 'origHeight': 411, 'width': 410, 'height': 411, 'widthPercent': 0.45, 'rescaleHeight': False, 'trialN': 25, 'loaded': True, 'loadedTime': 2104.7000000476837, 'positionName': 'LEFT', 'positionCoords': [327.28, 226.5], 'bid': 5.44}, {'imgObject': {}, 'id': 'cocktailshrimp', 'src': '/static/foodstim60/cocktailshrimp.jpg', 'key': 'i', 'origWidth': 410, 'origHeight': 410, 'width': 410, 'height': 410, 'widthPercent': 0.45, 'rescaleHeight': False, 'trialN': 25, 'loaded': True, 'loadedTime': 2133.5, 'positionName': 'RIGHT', 'positionCoords': [798.72, 227], 'bid': 5.23}]",30317.200000047684,1669830022015,grilled chicken strips,cocktailshrimp,5.44,5.23,-0.20999999999999996,cocktailshrimp,59.199999928474426,59,59.39999997615814,True,i,30891.399999976158,574.1999999284744,1669830022589,574,HRV,HRV_0029,2022-11-30 17:43:20
26,"[{'imgObject': {}, 'id': 'granola w milk', 'src': '/static/foodstim60/granola w milk.jpg', 'key': 'u', 'origWidth': 410, 'origHeight': 410, 'width': 410, 'height': 410, 'widthPercent': 0.45, 'rescaleHeight': False, 'trialN': 26, 'loaded': True, 'loadedTime': 2024.5, 'positionName': 'LEFT', 'positionCoords': [327.28, 227], 'bid': 5.32}, {'imgObject': {}, 'id': 'olives', 'src': '/static/foodstim60/olives.jpg', 'key': 'i', 'origWidth': 410, 'origHeight': 410, 'width': 410, 'height': 410, 'widthPercent': 0.45, 'rescaleHeight': False, 'trialN': 26, 'loaded': True, 'loadedTime': 2156.399999976158, 'positionName': 'RIGHT', 'positionCoords': [798.72, 227], 'bid': 5.26}]",30891.600000023842,1669830022589,granola w milk,olives,5.32,5.26,-0.0600000000000005,olives,1397.7000000476837,1398,1397.8999999761581,True,i,32803.800000071526,1912.2000000476837,1669830024501,1912,HRV,HRV_0029,2022-11-30 17:43:20
27,"[{'imgObject': {}, 'id': 'seaweed', 'src': '/static/foodstim60/seaweed.jpg', 'key': 'u', 'origWidth': 410, 'origHeight': 410, 'width': 410, 'height': 410, 'widthPercent': 0.45, 'rescaleHeight': False, 'trialN': 27, 'loaded': True, 'loadedTime': 2185, 'positionName': 'LEFT', 'positionCoords': [327.28, 227], 'bid': 5.4}, {'imgObject': {}, 'id': 'bagel and cc', 'src': '/static/foodstim60/bagel and cc.jpg', 'key': 'i', 'origWidth': 410, 'origHeight': 410, 'width': 410, 'height': 410, 'widthPercent': 0.45, 'rescaleHeight': False, 'trialN': 27, 'loaded': True, 'loadedTime': 2049.5, 'positionName': 'RIGHT', 'positionCoords': [798.72, 227], 'bid': 5.29}]",32803.89999997616,1669830024502,seaweed,bagel and cc,5.4,5.29,-0.11000000000000032,NaN,NaN,NaN,,False,NaN,36819.700000047684,4015.8000000715256,1669830028517,4015,HRV,HRV_0029,2022-11-30 17:43:20
28,"[{'imgObject': {}, 'id': 'luckycharms', 'src': '/static/foodstim60/luckycharms.jpg', 'key': 'u', 'origWidth': 410, 'origHeight': 409, 'width': 410, 'height': 409, 'widthPercent': 0.45, 'rescaleHeight': False, 'trialN': 28, 'loaded': True, 'loadedTime': 2185.8000000715256, 'positionName': 'LEFT', 'positionCoords': [327.28, 227.5], 'bid': 5.44}, {'imgObject': {}, 'id': 'fried eggs', 'src': '/static/foodstim60/fried eggs.jpg', 'key': 'i', 'origWidth': 410, 'origHeight': 410, 'width': 410, 'height': 410, 'widthPercent': 0.45, 'rescaleHeight': False, 'trialN': 28, 'loaded': True, 'loadedTime': 2105.600000023842, 'positionName': 'RIGHT', 'positionCoords': [798.72, 227], 'bid': 5.44}]",36819.89999997616,1669830028518,luckycharms,fried eggs,5.44,5.44,0.0,fried eggs,198.30000007152557,198,198.40000009536743,True,i,37533.700000047684,713.8000000715256,1669830029231,713,HRV,HRV_0029,2022-11-30 17:43:20
29,"[{'imgObject': {}, 'id': 'edamame', 'src': '/static/foodstim60/edamame.jpg', 'key': 'u', 'origWidth': 409, 'origHeight': 410, 'width': 409, 'height': 410, 'widthPercent': 0.45, 'rescaleHeight': False, 'trialN': 29, 'loaded': True, 'loadedTime': 2193.5, 'positionName': 'LEFT', 'positionCoords': [328.28, 227], 'bid': 5.78}, {'imgObject': {}, 'id': 'fried eggs', 'src': '/static/foodstim60/fried eggs.jpg', 'key': 'i', 'origWidth': 410, 'origHeight': 410, 'width': 410, 'height': 410, 'widthPercent': 0.45, 'rescaleHeight': False, 'trialN': 29, 'loaded': True, 'loadedTime': 2104.899999976158, 'positionName': 'RIGHT', 'positionCoords': [798.72, 227], 'bid': 5.44}]",37533.800000071526,1669830029231,edamame,fried eggs,5.78,5.44,-0.33999999999999986,fried eggs,65.89999997615814,67,66.19999992847443,True,i,38108.5,574.6999999284744,1669830029806,575,HRV,HRV_0029,2022-11-30 17:43:20
30,"[{'imgObject': {}, 'id': 'raisin bran w milk', 'src': '/static/foodstim60/raisin bran w milk.jpg', 'key': 'u', 'origWidth': 411, 'origHeight': 411, 'width': 411, 'height': 411, 'widthPercent': 0.45, 'rescaleHeight': False, 'trialN': 30, 'loaded': True, 'loadedTime': 2027.3999999761581, 'positionName': 'LEFT', 'positionCoords': [326.28, 226.5], 'bid': 5.65}, {'imgObject': {}, 'id': 'edamame', 'src': '/static/foodstim60/edamame.jpg', 'key': 'i', 'origWidth': 409, 'origHeight': 410, 'width': 409, 'height': 410, 'widthPercent': 0.45, 'rescaleHeight': False, 'trialN': 30, 'loaded': True, 'loadedTime': 2188.399999976158, 'positionName': 'RIGHT', 'positionCoords': [798.72, 227], 'bid': 5.78}]",38108.60000002384,1669830029806,raisin bran w milk,edamame,5.65,5.78,0.1299999999999999,NaN,NaN,NaN,,False,NaN,42131.700000047684,4023.100000023842,1669830033829,4023,HRV,HRV_0029,2022-11-30 17:43:20
31,"[{'imgObject': {}, 'id': 'luckycharms', 'src': '/static/foodstim60/luckycharms.jpg', 'key': 'u', 'origWidth': 410, 'origHeight': 409, 'width': 410, 'height': 409, 'widthPercent': 0.45, 'rescaleHeight': False, 'trialN': 31, 'loaded': True, 'loadedTime': 2185.8000000715256, 'positionName': 'LEFT', 'positionCoords': [327.28, 227.5], 'bid': 5.44}, {'imgObject': {}, 'id': 'mashed potato', 'src': '/static/foodstim60/mashed potato.jpg', 'key': 'i', 'origWidth': 409, 'origHeight': 409, 'width': 409, 'height': 409, 'widthPercent': 0.45, 'rescaleHeight': False, 'trialN': 31, 'loaded': True, 'loadedTime': 2097.3000000715256, 'positionName': 'RIGHT', 'positionCoords': [798.72, 227.5], 'bid': 5.54}]",42131.800000071526,1669830033829,luckycharms,mashed potato,5.44,5.54,0.09999999999999964,NaN,NaN,NaN,,False,NaN,46165.39999997616,4033.5999999046326,1669830037863,4034,HRV,HRV_0029,2022-11-30 17:43:20
32,"[{'imgObject': {}, 'id': 'seaweed', 'src': '/static/foodstim60/seaweed.jpg', 'key': 'u', 'origWidth': 410, 'origHeight': 410, 'width': 410, 'height': 410, 'widthPercent': 0.45, 'rescaleHeight': False, 'trialN': 32, 'loaded': True, 'loadedTime': 2185, 'positionName': 'LEFT', 'positionCoords': [327.28, 227], 'bid': 5.4}, {'imgObject': {}, 'id': 'turkeysandwich', 'src': '/static/foodstim60/turkeysandwich.jpg', 'key': 'i', 'origWidth': 409, 'origHeight': 409, 'width': 409, 'height': 409, 'widthPercent': 0.45, 'rescaleHeight': False, 'trialN': 32, 'loaded': True, 'loadedTime': 2174.600000023842, 'positionName': 'RIGHT', 'positionCoords': [798.72, 227.5], 'bid': 5.3500000000000005}]",46165.60000002384,1669830037863,seaweed,turkeysandwich,5.4,5.3500000000000005,-0.04999999999999982,turkeysandwich,529.7000000476837,530,529.8999999761581,True,i,47204.200000047684,1038.6000000238419,1669830038902,1039,HRV,HRV_0029,2022-11-30 17:43:20
33,"[{'imgObject': {}, 'id': 'raisin bran w milk', 'src': '/static/foodstim60/raisin bran w milk.jpg', 'key': 'u', 'origWidth': 411, 'origHeight': 411, 'width': 411, 'height': 411, 'widthPercent': 0.45, 'rescaleHeight': False, 'trialN': 33, 'loaded': True, 'loadedTime': 2028.6000000238419, 'positionName': 'LEFT', 'positionCoords': [326.28, 226.5], 'bid': 5.65}, {'imgObject': {}, 'id': 'sushi w_condiments', 'src': '/static/foodstim60/sushi w_condiments.jpg', 'key': 'i', 'origWidth': 410, 'origHeight': 410, 'width': 410, 'height': 410, 'widthPercent': 0.45, 'rescaleHeight': False, 'trialN': 33, 'loaded': True, 'loadedTime': 2195.100000023842, 'positionName': 'RIGHT', 'positionCoords': [798.72, 227], 'bid': 5.05}]",47204.39999997616,1669830038902,raisin bran w milk,sushi w_condiments,5.65,5.05,-0.6000000000000005,sushi w_condiments,40,40,40.200000047683716,True,i,47762.10000002384,557.7000000476837,1669830039460,558,HRV,HRV_0029,2022-11-30 17:43:20
34,"[{'imgObject': {}, 'id': 'seaweed', 'src': '/static/foodstim60/seaweed.jpg', 'key': 'u', 'origWidth': 410, 'origHeight': 410, 'width': 410, 'height': 410, 'widthPercent': 0.45, 'rescaleHeight': False, 'trialN': 34, 'loaded': True, 'loadedTime': 2185.100000023842, 'positionName': 'LEFT', 'positionCoords': [327.28, 227], 'bid': 5.4}, {'imgObject': {}, 'id': 'chickenfingers', 'src': '/static/foodstim60/chickenfingers.jpg', 'key': 'i', 'origWidth': 410, 'origHeight': 410, 'width': 410, 'height': 410, 'widthPercent': 0.45, 'rescaleHeight': False, 'trialN': 34, 'loaded': True, 'loadedTime': 2196.600000023842, 'positionName': 'RIGHT', 'positionCoords': [798.72, 227], 'bid': 5.16}]",47762.200000047684,1669830039460,seaweed,chickenfingers,5.4,5.16,-0.2400000000000002,chickenfingers,1461.5,1462,1461.7999999523163,True,i,49741.700000047684,1979.5,1669830041439,1979,HRV,HRV_0029,2022-11-30 17:43:20
35,"[{'imgObject': {}, 'id': 'apple slices', 'src': '/static/foodstim60/apple slices.jpg', 'key': 'u', 'origWidth': 409, 'origHeight': 410, 'width': 409, 'height': 410, 'widthPercent': 0.45, 'rescaleHeight': False, 'trialN': 35, 'loaded': True, 'loadedTime': 2152.899999976158, 'positionName': 'LEFT', 'positionCoords': [328.28, 227], 'bid': 5.26}, {'imgObject': {}, 'id': 'baked potato', 'src': '/static/foodstim60/baked potato.jpg', 'key': 'i', 'origWidth': 409, 'origHeight': 410, 'width': 409, 'height': 410, 'widthPercent': 0.45, 'rescaleHeight': False, 'trialN': 35, 'loaded': True, 'loadedTime': 2198.3000000715256, 'positionName': 'RIGHT', 'positionCoords': [798.72, 227], 'bid': 5.28}]",49741.800000071526,1669830041439,apple slices,baked potato,5.26,5.28,0.020000000000000462,baked potato,294,295,294.1999999284744,True,i,50546.5,804.6999999284744,1669830042244,805,HRV,HRV_0029,2022-11-30 17:43:20
36,"[{'imgObject': {}, 'id': 'lox', 'src': '/static/foodstim60/lox.jpg', 'key': 'u', 'origWidth': 410, 'origHeight': 411, 'width': 410, 'height': 411, 'widthPercent': 0.45, 'rescaleHeight': False, 'trialN': 36, 'loaded': True, 'loadedTime': 2016.6000000238419, 'positionName': 'LEFT', 'positionCoords': [327.28, 226.5], 'bid': 4.17}, {'imgObject': {}, 'id': 'ice cream sundae 002', 'src': '/static/foodstim60/ice cream sundae 002.jpg', 'key': 'i', 'origWidth': 409, 'origHeight': 409, 'width': 409, 'height': 409, 'widthPercent': 0.45, 'rescaleHeight': False, 'trialN': 36, 'loaded': True, 'loadedTime': 2020.3000000715256, 'positionName': 'RIGHT', 'positionCoords': [798.72, 227.5], 'bid': 4.7}]",50546.60000002384,1669830042244,lox,ice cream sundae 002,4.17,4.7,0.5300000000000002,ice cream sundae 002,113.79999995231628,114,113.89999997615814,True,i,51181.0,634.3999999761581,1669830042879,635,HRV,HRV_0029,2022-11-30 17:43:20
37,"[{'imgObject': {}, 'id': 'hotdog w must', 'src': '/static/foodstim60/hotdog w must.jpg', 'key': 'u', 'origWidth': 409, 'origHeight': 409, 'width': 409, 'height': 409, 'widthPercent': 0.45, 'rescaleHeight': False, 'trialN': 37, 'loaded': True, 'loadedTime': 2011.7000000476837, 'positionName': 'LEFT', 'positionCoords': [328.28, 227.5], 'bid': 4.68}, {'imgObject': {}, 'id': 'tacos', 'src': '/static/foodstim60/tacos.jpg', 'key': 'i', 'origWidth': 411, 'origHeight': 411, 'width': 411, 'height': 411, 'widthPercent': 0.45, 'rescaleHeight': False, 'trialN': 37, 'loaded': True, 'loadedTime': 2206.2000000476837, 'positionName': 'RIGHT', 'positionCoords': [798.72, 226.5], 'bid': 4.4}]",51181.0,1669830042879,hotdog w must,tacos,4.68,4.4,-0.27999999999999936,tacos,2507.2000000476837,2507,2507.399999976158,True,i,54192.200000047684,3011.2000000476837,1669830045890,3011,HRV,HRV_0029,2022-11-30 17:43:20
38,"[{'imgObject': {}, 'id': 'hotdog w must', 'src': '/static/foodstim60/hotdog w must.jpg', 'key': 'u', 'origWidth': 409, 'origHeight': 409, 'width': 409, 'height': 409, 'widthPercent': 0.45, 'rescaleHeight': False, 'trialN': 38, 'loaded': True, 'loadedTime': 2011.3999999761581, 'positionName': 'LEFT', 'positionCoords': [328.28, 227.5], 'bid': 4.68}, {'imgObject': {}, 'id': 'turkey sandwich', 'src': '/static/foodstim60/turkey sandwich.jpg', 'key': 'i', 'origWidth': 409, 'origHeight': 409, 'width': 409, 'height': 409, 'widthPercent': 0.45, 'rescaleHeight': False, 'trialN': 38, 'loaded': True, 'loadedTime': 2164.7000000476837, 'positionName': 'RIGHT', 'positionCoords': [798.72, 227.5], 'bid': 4.2700000000000005}]",54192.39999997616,1669830045890,hotdog w must,turkey sandwich,4.68,4.2700000000000005,-0.40999999999999925,turkey sandwich,15.900000095367432,16,16.100000023841858,True,i,54723.60000002384,531.2000000476837,1669830046421,531,HRV,HRV_0029,2022-11-30 17:43:20
39,"[{'imgObject': {}, 'id': 'roastedpotatoes', 'src': '/static/foodstim60/roastedpotatoes.jpg', 'key': 'u', 'origWidth': 409, 'origHeight': 410, 'width': 409, 'height': 410, 'widthPercent': 0.45, 'rescaleHeight': False, 'trialN': 39, 'loaded': True, 'loadedTime': 2044.3999999761581, 'positionName': 'LEFT', 'positionCoords': [328.28, 227], 'bid': 5.8500000000000005}, {'imgObject': {}, 'id': 'eggs', 'src': '/static/foodstim60/eggs.jpg', 'key': 'i', 'origWidth': 409, 'origHeight': 409, 'width': 409, 'height': 409, 'widthPercent': 0.45, 'rescaleHeight': False, 'trialN': 39, 'loaded': True, 'loadedTime': 2013.3999999761581, 'positionName': 'RIGHT', 'positionCoords': [798.72, 227.5], 'bid': 5.54}]",54723.700000047684,1669830046421,roastedpotatoes,eggs,5.8500000000000005,5.54,-0.3100000000000005,eggs,223.19999992847443,224,223.39999997615814,True,i,55451.0,727.2999999523163,1669830047149,728,HRV,HRV_0029,2022-11-30 17:43:20
40,"[{'imgObject': {}, 'id': 'veggieswithdip', 'src': '/static/foodstim60/veggieswithdip.jpg', 'key': 'u', 'origWidth': 409, 'origHeight': 409, 'width': 409, 'height': 409, 'widthPercent': 0.45, 'rescaleHeight': False, 'trialN': 40, 'loaded': True, 'loadedTime': 2206.2000000476837, 'positionName': 'LEFT', 'positionCoords': [328.28, 227.5], 'bid': 5.14}, {'imgObject': {}, 'id': 'burrito', 'src': '/static/foodstim60/burrito.jpg', 'key': 'i', 'origWidth': 410, 'origHeight': 410, 'width': 410, 'height': 410, 'widthPercent': 0.45, 'rescaleHeight': False, 'trialN': 40, 'loaded': True, 'loadedTime': 2143.7000000476837, 'positionName': 'RIGHT', 'positionCoords': [798.72, 227], 'bid': 4.76}]",55451.200000047684,1669830047149,veggieswithdip,burrito,5.14,4.76,-0.3799999999999999,burrito,204.29999995231628,204,204.5,True,i,56168.89999997616,717.6999999284744,1669830047867,718,HRV,HRV_0029,2022-11-30 17:43:20
41,"[{'imgObject': {}, 'id': 'eggsalad', 'src': '/static/foodstim60/eggsalad.jpg', 'key': 'u', 'origWidth': 410, 'origHeight': 409, 'width': 410, 'height': 409, 'widthPercent': 0.45, 'rescaleHeight': False, 'trialN': 41, 'loaded': True, 'loadedTime': 2222.3000000715256, 'positionName': 'LEFT', 'positionCoords': [327.28, 227.5], 'bid': 5}, {'imgObject': {}, 'id': 'strawberries', 'src': '/static/foodstim60/strawberries.jpg', 'key': 'i', 'origWidth': 410, 'origHeight': 410, 'width': 410, 'height': 410, 'widthPercent': 0.45, 'rescaleHeight': False, 'trialN': 41, 'loaded': True, 'loadedTime': 2015, 'positionName': 'RIGHT', 'positionCoords': [798.72, 227], 'bid': 4.88}]",56169.300000071526,1669830047867,eggsalad,strawberries,5.0,4.88,-0.1200000000000001,strawberries,322,322,322.2999999523163,True,i,56991.700000047684,822.3999999761581,1669830048689,822,HRV,HRV_0029,2022-11-30 17:43:20
42,"[{'imgObject': {}, 'id': 'omelette', 'src': '/static/foodstim60/omelette.jpg', 'key': 'u', 'origWidth': 410, 'origHeight': 409, 'width': 410, 'height': 409, 'widthPercent': 0.45, 'rescaleHeight': False, 'trialN': 42, 'loaded': True, 'loadedTime': 2118.2000000476837, 'positionName': 'LEFT', 'positionCoords': [327.28, 227.5], 'bid': 5.44}, {'imgObject': {}, 'id': 'burger', 'src': '/static/foodstim60/burger.jpg', 'key': 'i', 'origWidth': 409, 'origHeight': 409, 'width': 409, 'height': 409, 'widthPercent': 0.45, 'rescaleHeight': False, 'trialN': 42, 'loaded': True, 'loadedTime': 2055.8000000715256, 'positionName': 'RIGHT', 'positionCoords': [798.72, 227.5], 'bid': 5.54}]",56991.89999997616,1669830048690,omelette,burger,5.44,5.54,0.09999999999999964,burger,258.40000009536743,258,258.60000002384186,True,i,57756.300000071526,764.4000000953674,1669830049454,764,HRV,HRV_0029,2022-11-30 17:43:20
43,"[{'imgObject': {}, 'id': 'blackbeanswithrice', 'src': '/static/foodstim60/blackbeanswithrice.jpg', 'key': 'u', 'origWidth': 410, 'origHeight': 410, 'width': 410, 'height': 410, 'widthPercent': 0.45, 'rescaleHeight': False, 'trialN': 43, 'loaded': True, 'loadedTime': 2048.399999976158, 'positionName': 'LEFT', 'positionCoords': [327.28, 227], 'bid': 5.03}, {'imgObject': {}, 'id': 'sushi w_condiments', 'src': '/static/foodstim60/sushi w_condiments.jpg', 'key': 'i', 'origWidth': 410, 'origHeight': 410, 'width': 410, 'height': 410, 'widthPercent': 0.45, 'rescaleHeight': False, 'trialN': 43, 'loaded': True, 'loadedTime': 2195.2000000476837, 'positionName': 'RIGHT', 'positionCoords': [798.72, 227], 'bid': 5.05}]",57756.39999997616,1669830049454,blackbeanswithrice,sushi w_condiments,5.03,5.05,0.019999999999999574,sushi w_condiments,689.2000000476837,689,689.4000000953674,True,i,58963.300000071526,1206.9000000953674,1669830050661,1207,HRV,HRV_0029,2022-11-30 17:43:20
44,"[{'imgObject': {}, 'id': 'turkeysandwich', 'src': '/static/foodstim60/turkeysandwich.jpg', 'key': 'u', 'origWidth': 409, 'origHeight': 409, 'width': 409, 'height': 409, 'widthPercent': 0.45, 'rescaleHeight': False, 'trialN': 44, 'loaded': True, 'loadedTime': 2173.7000000476837, 'positionName': 'LEFT', 'positionCoords': [328.28, 227.5], 'bid': 5.3500000000000005}, {'imgObject': {}, 'id': 'roastedpotatoes', 'src': '/static/foodstim60/roastedpotatoes.jpg', 'key': 'i', 'origWidth': 409, 'origHeight': 410, 'width': 409, 'height': 410, 'widthPercent': 0.45, 'rescaleHeight': False, 'trialN': 44, 'loaded': True, 'loadedTime': 2044, 'positionName': 'RIGHT', 'positionCoords': [798.72, 227], 'bid': 5.8500000000000005}]",58963.39999997616,1669830050661,turkeysandwich,roastedpotatoes,5.3500000000000005,5.8500000000000005,0.5,roastedpotatoes,398.5,399,398.60000002384186,True,i,59870.700000047684,907.3000000715256,1669830051568,907,HRV,HRV_0029,2022-11-30 17:43:20
45,"[{'imgObject': {}, 'id': 'turkey sandwich', 'src': '/static/foodstim60/turkey sandwich.jpg', 'key': 'u', 'origWidth': 409, 'origHeight': 409, 'width': 409, 'height': 409, 'widthPercent': 0.45, 'rescaleHeight': False, 'trialN': 45, 'loaded': True, 'loadedTime': 2163.5, 'positionName': 'LEFT', 'positionCoords': [328.28, 227.5], 'bid': 4.2700000000000005}, {'imgObject': {}, 'id': 'Tribe humus pita', 'src': '/static/foodstim60/Tribe humus pita.jpg', 'key': 'i', 'origWidth': 411, 'origHeight': 411, 'width': 411, 'height': 411, 'widthPercent': 0.45, 'rescaleHeight': False, 'trialN': 45, 'loaded': True, 'loadedTime': 2231.3000000715256, 'positionName': 'RIGHT', 'positionCoords': [798.72, 226.5], 'bid': 4.2700000000000005}]",59870.800000071526,1669830051568,turkey sandwich,Tribe humus pita,4.2700000000000005,4.2700000000000005,0.0,Tribe humus pita,652.0999999046326,653,652.1999999284744,True,i,61032.800000071526,1162.0,1669830052730,1162,HRV,HRV_0029,2022-11-30 17:43:20
46,"[{'imgObject': {}, 'id': 'hashbrowns', 'src': '/static/foodstim60/hashbrowns.jpg', 'key': 'u', 'origWidth': 411, 'origHeight': 410, 'width': 411, 'height': 410, 'widthPercent': 0.45, 'rescaleHeight': False, 'trialN': 46, 'loaded': True, 'loadedTime': 2064.3000000715256, 'positionName': 'LEFT', 'positionCoords': [326.28, 227], 'bid': 4.98}, {'imgObject': {}, 'id': 'grilled chicken strips', 'src': '/static/foodstim60/grilled chicken strips.jpg', 'key': 'i', 'origWidth': 410, 'origHeight': 411, 'width': 410, 'height': 411, 'widthPercent': 0.45, 'rescaleHeight': False, 'trialN': 46, 'loaded': True, 'loadedTime': 2104.7000000476837, 'positionName': 'RIGHT', 'positionCoords': [798.72, 226.5], 'bid': 5.44}]",61032.89999997616,1669830052731,hashbrowns,grilled chicken strips,4.98,5.44,0.45999999999999996,grilled chicken strips,177.70000004768372,177,178.0,True,i,61727.60000002384,694.7000000476837,1669830053425,694,HRV,HRV_0029,2022-11-30 17:43:20
47,"[{'imgObject': {}, 'id': 'pear', 'src': '/static/foodstim60/pear.jpg', 'key': 'u', 'origWidth': 411, 'origHeight': 410, 'width': 411, 'height': 410, 'widthPercent': 0.45, 'rescaleHeight': False, 'trialN': 47, 'loaded': True, 'loadedTime': 2095.8000000715256, 'positionName': 'LEFT', 'positionCoords': [326.28, 227], 'bid': 5.3100000000000005}, {'imgObject': {}, 'id': 'banana', 'src': '/static/foodstim60/banana.jpg', 'key': 'i', 'origWidth': 410, 'origHeight': 410, 'width': 410, 'height': 410, 'widthPercent': 0.45, 'rescaleHeight': False, 'trialN': 47, 'loaded': True, 'loadedTime': 2023.1000000238419, 'positionName': 'RIGHT', 'positionCoords': [798.72, 227], 'bid': 5.3100000000000005}]",61727.700000047684,1669830053425,pear,banana,5.3100000000000005,5.3100000000000005,0.0,NaN,NaN,NaN,,False,NaN,65743.70000004768,4016.0,1669830057441,4016,HRV,HRV_0029,2022-11-30 17:43:20
48,"[{'imgObject': {}, 'id': 'sweetpotato', 'src': '/static/foodstim60/sweetpotato.jpg', 'key': 'u', 'origWidth': 410, 'origHeight': 410, 'width': 410, 'height': 410, 'widthPercent': 0.45, 'rescaleHeight': False, 'trialN': 48, 'loaded': True, 'loadedTime': 2034.3000000715256, 'positionName': 'LEFT', 'positionCoords': [327.28, 227], 'bid': 5.15}, {'imgObject': {}, 'id': 'cheerios', 'src': '/static/foodstim60/cheerios.jpg', 'key': 'i', 'origWidth': 409, 'origHeight': 410, 'width': 409, 'height': 410, 'widthPercent': 0.45, 'rescaleHeight': False, 'trialN': 48, 'loaded': True, 'loadedTime': 2056.899999976158, 'positionName': 'RIGHT', 'positionCoords': [798.72, 227], 'bid': 4.8}]",65743.80000007153,1669830057441,sweetpotato,cheerios,5.15,4.8,-0.35000000000000053,cheerios,1592.0999999046326,1593,1592.1999999284744,True,i,67852.20000004768,2108.399999976158,1669830059550,2109,HRV,HRV_0029,2022-11-30 17:43:20
49,"[{'imgObject': {}, 'id': 'steak', 'src': '/static/foodstim60/steak.jpg', 'key': 'u', 'origWidth': 410, 'origHeight': 410, 'width': 410, 'height': 410, 'widthPercent': 0.45, 'rescaleHeight': False, 'trialN': 49, 'loaded': True, 'loadedTime': 2232.5, 'positionName': 'LEFT', 'positionCoords': [327.28, 227], 'bid': 5.0200000000000005}, {'imgObject': {}, 'id': 'rigatoni', 'src': '/static/foodstim60/rigatoni.jpg', 'key': 'i', 'origWidth': 411, 'origHeight': 411, 'width': 411, 'height': 411, 'widthPercent': 0.45, 'rescaleHeight': False, 'trialN': 49, 'loaded': True, 'loadedTime': 2175, 'positionName': 'RIGHT', 'positionCoords': [798.72, 226.5], 'bid': 5.22}]",67852.39999997616,1669830059550,steak,rigatoni,5.0200000000000005,5.22,0.1999999999999993,rigatoni,1180.6000000238419,1181,1180.8000000715256,True,i,69544.60000002384,1692.2000000476837,1669830061242,1692,HRV,HRV_0029,2022-11-30 17:43:20
50,"[{'imgObject': {}, 'id': 'popsicles', 'src': '/static/foodstim60/popsicles.jpg', 'key': 'u', 'origWidth': 410, 'origHeight': 410, 'width': 410, 'height': 410, 'widthPercent': 0.45, 'rescaleHeight': False, 'trialN': 50, 'loaded': True, 'loadedTime': 2556.5, 'positionName': 'LEFT', 'positionCoords': [327.28, 227], 'bid': 4.88}, {'imgObject': {}, 'id': 'cherries', 'src': '/static/foodstim60/cherries.jpg', 'key': 'i', 'origWidth': 410, 'origHeight': 411, 'width': 410, 'height': 411, 'widthPercent': 0.45, 'rescaleHeight': False, 'trialN': 50, 'loaded': True, 'loadedTime': 2233.899999976158, 'positionName': 'RIGHT', 'positionCoords': [798.72, 226.5], 'bid': 5.41}]",69544.70000004768,1669830061242,popsicles,cherries,4.88,5.41,0.5300000000000002,cherries,1577.6999999284744,1578,1577.7999999523163,True,i,71629.30000007153,2084.600000023842,1669830063327,2085,HRV,HRV_0029,2022-11-30 17:43:20
51,"[{'imgObject': {}, 'id': 'chickenfingers', 'src': '/static/foodstim60/chickenfingers.jpg', 'key': 'u', 'origWidth': 410, 'origHeight': 410, 'width': 410, 'height': 410, 'widthPercent': 0.45, 'rescaleHeight': False, 'trialN': 51, 'loaded': True, 'loadedTime': 2196.8000000715256, 'positionName': 'LEFT', 'positionCoords': [327.28, 227], 'bid': 5.16}, {'imgObject': {}, 'id': 'shreddedwheatwithmilk', 'src': '/static/foodstim60/shreddedwheatwithmilk.jpg', 'key': 'i', 'origWidth': 410, 'origHeight': 410, 'width': 410, 'height': 410, 'widthPercent': 0.45, 'rescaleHeight': False, 'trialN': 51, 'loaded': True, 'loadedTime': 2243.100000023842, 'positionName': 'RIGHT', 'positionCoords': [798.72, 227], 'bid': 5.19}]",71629.39999997616,1669830063327,chickenfingers,shreddedwheatwithmilk,5.16,5.19,0.03000000000000025,shreddedwheatwithmilk,91,91,91.20000004768372,True,i,72233.30000007153,603.9000000953674,1669830063931,604,HRV,HRV_0029,2022-11-30 17:43:20
52,"[{'imgObject': {}, 'id': 'hashbrowns', 'src': '/static/foodstim60/hashbrowns.jpg', 'key': 'u', 'origWidth': 411, 'origHeight': 410, 'width': 411, 'height': 410, 'widthPercent': 0.45, 'rescaleHeight': False, 'trialN': 52, 'loaded': True, 'loadedTime': 2063.399999976158, 'positionName': 'LEFT', 'positionCoords': [326.28, 227], 'bid': 4.98}, {'imgObject': {}, 'id': 'Tribe humus pita', 'src': '/static/foodstim60/Tribe humus pita.jpg', 'key': 'i', 'origWidth': 411, 'origHeight': 411, 'width': 411, 'height': 411, 'widthPercent': 0.45, 'rescaleHeight': False, 'trialN': 52, 'loaded': True, 'loadedTime': 2231.100000023842, 'positionName': 'RIGHT', 'positionCoords': [798.72, 226.5], 'bid': 4.2700000000000005}]",72233.60000002384,1669830063931,hashbrowns,Tribe humus pita,4.98,4.2700000000000005,-0.71,Tribe humus pita,203.70000004768372,204,204.0,True,i,72946.60000002384,713.0,1669830064644,713,HRV,HRV_0029,2022-11-30 17:43:20
53,"[{'imgObject': {}, 'id': 'cherries', 'src': '/static/foodstim60/cherries.jpg', 'key': 'u', 'origWidth': 410, 'origHeight': 411, 'width': 410, 'height': 411, 'widthPercent': 0.45, 'rescaleHeight': False, 'trialN': 53, 'loaded': True, 'loadedTime': 2233.7000000476837, 'positionName': 'LEFT', 'positionCoords': [327.28, 226.5], 'bid': 5.41}, {'imgObject': {}, 'id': 'edamame', 'src': '/static/foodstim60/edamame.jpg', 'key': 'i', 'origWidth': 409, 'origHeight': 410, 'width': 409, 'height': 410, 'widthPercent': 0.45, 'rescaleHeight': False, 'trialN': 53, 'loaded': True, 'loadedTime': 2188.399999976158, 'positionName': 'RIGHT', 'positionCoords': [798.72, 227], 'bid': 5.78}]",72946.70000004768,1669830064645,cherries,edamame,5.41,5.78,0.3700000000000001,edamame,782.1999999284744,782,782.3999999761581,True,i,74240.0,1293.2999999523163,1669830065938,1293,HRV,HRV_0029,2022-11-30 17:43:20
54,"[{'imgObject': {}, 'id': 'roastedpotatoes', 'src': '/static/foodstim60/roastedpotatoes.jpg', 'key': 'u', 'origWidth': 409, 'origHeight': 410, 'width': 409, 'height': 410, 'widthPercent': 0.45, 'rescaleHeight': False, 'trialN': 54, 'loaded': True, 'loadedTime': 2042.1000000238419, 'positionName': 'LEFT', 'positionCoords': [328.28, 227], 'bid': 5.8500000000000005}, {'imgObject': {}, 'id': 'mango', 'src': '/static/foodstim60/mango.jpg', 'key': 'i', 'origWidth': 411, 'origHeight': 411, 'width': 411, 'height': 411, 'widthPercent': 0.45, 'rescaleHeight': False, 'trialN': 54, 'loaded': True, 'loadedTime': 2097.7000000476837, 'positionName': 'RIGHT', 'positionCoords': [798.72, 226.5], 'bid': 5.78}]",74240.20000004768,1669830065938,roastedpotatoes,mango,5.8500000000000005,5.78,-0.07000000000000028,mango,148.69999992847443,149,148.79999995231628,True,i,74909.80000007153,669.6000000238419,1669830066608,670,HRV,HRV_0029,2022-11-30 17:43:20
55,"[{'imgObject': {}, 'id': 'pear', 'src': '/static/foodstim60/pear.jpg', 'key': 'u', 'origWidth': 411, 'origHeight': 410, 'width': 411, 'height': 410, 'widthPercent': 0.45, 'rescaleHeight': False, 'trialN': 55, 'loaded': True, 'loadedTime': 2096.100000023842, 'positionName': 'LEFT', 'positionCoords': [326.28, 227], 'bid': 5.3100000000000005}, {'imgObject': {}, 'id': 'yogurt no spoon', 'src': '/static/foodstim60/yogurt no spoon.jpg', 'key': 'i', 'origWidth': 411, 'origHeight': 410, 'width': 411, 'height': 410, 'widthPercent': 0.45, 'rescaleHeight': False, 'trialN': 55, 'loaded': True, 'loadedTime': 2027, 'positionName': 'RIGHT', 'positionCoords': [798.72, 227], 'bid': 5.4}]",74910.0,1669830066608,pear,yogurt no spoon,5.3100000000000005,5.4,0.08999999999999986,yogurt no spoon,182.10000002384186,182,182.39999997615814,True,i,75607.10000002384,697.1000000238419,1669830067305,697,HRV,HRV_0029,2022-11-30 17:43:20
56,"[{'imgObject': {}, 'id': 'avocado', 'src': '/static/foodstim60/avocado.jpg', 'key': 'u', 'origWidth': 409, 'origHeight': 409, 'width': 409, 'height': 409, 'widthPercent': 0.45, 'rescaleHeight': False, 'trialN': 56, 'loaded': True, 'loadedTime': 2045.8000000715256, 'positionName': 'LEFT', 'positionCoords': [328.28, 227.5], 'bid': 4.58}, {'imgObject': {}, 'id': 'salad w chicken', 'src': '/static/foodstim60/salad w chicken.jpg', 'key': 'i', 'origWidth': 411, 'origHeight': 411, 'width': 411, 'height': 411, 'widthPercent': 0.45, 'rescaleHeight': False, 'trialN': 56, 'loaded': True, 'loadedTime': 2182.8000000715256, 'positionName': 'RIGHT', 'positionCoords': [798.72, 226.5], 'bid': 4.24}]",75607.30000007153,1669830067305,avocado,salad w chicken,4.58,4.24,-0.33999999999999986,salad w chicken,449.39999997615814,450,449.59999990463257,True,i,76564.80000007153,957.5,1669830068263,958,HRV,HRV_0029,2022-11-30 17:43:20
57,"[{'imgObject': {}, 'id': 'mango', 'src': '/static/foodstim60/mango.jpg', 'key': 'u', 'origWidth': 411, 'origHeight': 411, 'width': 411, 'height': 411, 'widthPercent': 0.45, 'rescaleHeight': False, 'trialN': 57, 'loaded': True, 'loadedTime': 2098.5, 'positionName': 'LEFT', 'positionCoords': [326.28, 226.5], 'bid': 5.78}, {'imgObject': {}, 'id': 'veggieswithdip', 'src': '/static/foodstim60/veggieswithdip.jpg', 'key': 'i', 'origWidth': 409, 'origHeight': 409, 'width': 409, 'height': 409, 'widthPercent': 0.45, 'rescaleHeight': False, 'trialN': 57, 'loaded': True, 'loadedTime': 2207.100000023842, 'positionName': 'RIGHT', 'positionCoords': [798.72, 227.5], 'bid': 5.14}]",76565.0,1669830068263,mango,veggieswithdip,5.78,5.14,-0.6400000000000006,veggieswithdip,330.2000000476837,330,330.39999997615814,True,i,77403.39999997616,838.3999999761581,1669830069101,838,HRV,HRV_0029,2022-11-30 17:43:20
58,"[{'imgObject': {}, 'id': 'burrito', 'src': '/static/foodstim60/burrito.jpg', 'key': 'u', 'origWidth': 410, 'origHeight': 410, 'width': 410, 'height': 410, 'widthPercent': 0.45, 'rescaleHeight': False, 'trialN': 58, 'loaded': True, 'loadedTime': 2135.5, 'positionName': 'LEFT', 'positionCoords': [327.28, 227], 'bid': 4.76}, {'imgObject': {}, 'id': 'salad w chicken', 'src': '/static/foodstim60/salad w chicken.jpg', 'key': 'i', 'origWidth': 411, 'origHeight': 411, 'width': 411, 'height': 411, 'widthPercent': 0.45, 'rescaleHeight': False, 'trialN': 58, 'loaded': True, 'loadedTime': 2183.7000000476837, 'positionName': 'RIGHT', 'positionCoords': [798.72, 226.5], 'bid': 4.24}]",77403.5,1669830069101,burrito,salad w chicken,4.76,4.24,-0.5199999999999996,salad w chicken,7.200000047683716,8,7.399999976158142,True,i,77931.60000002384,528.1000000238419,1669830069630,529,HRV,HRV_0029,2022-11-30 17:43:20
59,"[{'imgObject': {}, 'id': 'mac & cheese', 'src': '/static/foodstim60/mac & cheese.jpg', 'key': 'u', 'origWidth': 410, 'origHeight': 410, 'width': 410, 'height': 410, 'widthPercent': 0.45, 'rescaleHeight': False, 'trialN': 59, 'loaded': True, 'loadedTime': 2245.100000023842, 'positionName': 'LEFT', 'positionCoords': [327.28, 227], 'bid': 5.05}, {'imgObject': {}, 'id': 'cherry tomato', 'src': '/static/foodstim60/cherry tomato.jpg', 'key': 'i', 'origWidth': 410, 'origHeight': 410, 'width': 410, 'height': 410, 'widthPercent': 0.45, 'rescaleHeight': False, 'trialN': 59, 'loaded': True, 'loadedTime': 2074.600000023842, 'positionName': 'RIGHT', 'positionCoords': [798.72, 227], 'bid': 5.1000000000000005}]",77931.80000007153,1669830069630,mac & cheese,cherry tomato,5.05,5.1000000000000005,0.05000000000000071,cherry tomato,2416.7999999523163,2417,2417.0,True,i,80854.80000007153,2923.0,1669830072553,2923,HRV,HRV_0029,2022-11-30 17:43:20
60,"[{'imgObject': {}, 'id': 'strawberries', 'src': '/static/foodstim60/strawberries.jpg', 'key': 'u', 'origWidth': 410, 'origHeight': 410, 'width': 410, 'height': 410, 'widthPercent': 0.45, 'rescaleHeight': False, 'trialN': 60, 'loaded': True, 'loadedTime': 2014.8000000715256, 'positionName': 'LEFT', 'positionCoords': [327.28, 227], 'bid': 4.88}, {'imgObject': {}, 'id': 'corn cob', 'src': '/static/foodstim60/corn cob.jpg', 'key': 'i', 'origWidth': 411, 'origHeight': 411, 'width': 411, 'height': 411, 'widthPercent': 0.45, 'rescaleHeight': False, 'trialN': 60, 'loaded': True, 'loadedTime': 2144.7000000476837, 'positionName': 'RIGHT', 'positionCoords': [798.72, 226.5], 'bid': 4.89}]",80854.80000007153,1669830072553,strawberries,corn cob,4.88,4.89,0.009999999999999787,corn cob,475.89999997615814,476,476.1999999284744,True,i,81844.20000004768,989.3999999761581,1669830073542,989,HRV,HRV_0029,2022-11-30 17:43:20
61,"[{'imgObject': {}, 'id': 'bagel plain', 'src': '/static/foodstim60/bagel plain.jpg', 'key': 'u', 'origWidth': 410, 'origHeight': 410, 'width': 410, 'height': 410, 'widthPercent': 0.45, 'rescaleHeight': False, 'trialN': 61, 'loaded': True, 'loadedTime': 2247.5, 'positionName': 'LEFT', 'positionCoords': [327.28, 227], 'bid': 4.21}, {'imgObject': {}, 'id': 'salad w chicken', 'src': '/static/foodstim60/salad w chicken.jpg', 'key': 'i', 'origWidth': 411, 'origHeight': 411, 'width': 411, 'height': 411, 'widthPercent': 0.45, 'rescaleHeight': False, 'trialN': 61, 'loaded': True, 'loadedTime': 2183.600000023842, 'positionName': 'RIGHT', 'positionCoords': [798.72, 226.5], 'bid': 4.24}]",81844.5,1669830073542,bagel plain,salad w chicken,4.21,4.24,0.03000000000000025,salad w chicken,2519.899999976158,2520,2520.100000023842,True,i,84879.5,3035.0,1669830076577,3035,HRV,HRV_0029,2022-11-30 17:43:20
62,"[{'imgObject': {}, 'id': 'blueberries', 'src': '/static/foodstim60/blueberries.jpg', 'key': 'u', 'origWidth': 411, 'origHeight': 411, 'width': 411, 'height': 411, 'widthPercent': 0.45, 'rescaleHeight': False, 'trialN': 62, 'loaded': True, 'loadedTime': 2173.600000023842, 'positionName': 'LEFT', 'positionCoords': [326.28, 226.5], 'bid': 4.89}, {'imgObject': {}, 'id': 'burrito', 'src': '/static/foodstim60/burrito.jpg', 'key': 'i', 'origWidth': 410, 'origHeight': 410, 'width': 410, 'height': 410, 'widthPercent': 0.45, 'rescaleHeight': False, 'trialN': 62, 'loaded': True, 'loadedTime': 2136.8000000715256, 'positionName': 'RIGHT', 'positionCoords': [798.72, 227], 'bid': 4.76}]",84879.70000004768,1669830076577,blueberries,burrito,4.89,4.76,-0.1299999999999999,NaN,NaN,NaN,,False,NaN,88905.30000007153,4025.600000023842,1669830080603,4026,HRV,HRV_0029,2022-11-30 17:43:20
63,"[{'imgObject': {}, 'id': 'strawberries', 'src': '/static/foodstim60/strawberries.jpg', 'key': 'u', 'origWidth': 410, 'origHeight': 410, 'width': 410, 'height': 410, 'widthPercent': 0.45, 'rescaleHeight': False, 'trialN': 63, 'loaded': True, 'loadedTime': 2013.8999999761581, 'positionName': 'LEFT', 'positionCoords': [327.28, 227], 'bid': 4.88}, {'imgObject': {}, 'id': 'yogurt no spoon', 'src': '/static/foodstim60/yogurt no spoon.jpg', 'key': 'i', 'origWidth': 411, 'origHeight': 410, 'width': 411, 'height': 410, 'widthPercent': 0.45, 'rescaleHeight': False, 'trialN': 63, 'loaded': True, 'loadedTime': 2026.8999999761581, 'positionName': 'RIGHT', 'positionCoords': [798.72, 227], 'bid': 5.4}]",88905.5,1669830080603,strawberries,yogurt no spoon,4.88,5.4,0.5200000000000005,NaN,NaN,NaN,,False,NaN,92921.30000007153,4015.8000000715256,1669830084619,4016,HRV,HRV_0029,2022-11-30 17:43:20
64,"[{'imgObject': {}, 'id': 'steak', 'src': '/static/foodstim60/steak.jpg', 'key': 'u', 'origWidth': 410, 'origHeight': 410, 'width': 410, 'height': 410, 'widthPercent': 0.45, 'rescaleHeight': False, 'trialN': 64, 'loaded': True, 'loadedTime': 2232.7000000476837, 'positionName': 'LEFT', 'positionCoords': [327.28, 227], 'bid': 5.0200000000000005}, {'imgObject': {}, 'id': 'popsicles', 'src': '/static/foodstim60/popsicles.jpg', 'key': 'i', 'origWidth': 410, 'origHeight': 410, 'width': 410, 'height': 410, 'widthPercent': 0.45, 'rescaleHeight': False, 'trialN': 64, 'loaded': True, 'loadedTime': 2556.399999976158, 'positionName': 'RIGHT', 'positionCoords': [798.72, 227], 'bid': 4.88}]",92921.39999997616,1669830084619,steak,popsicles,5.0200000000000005,4.88,-0.14000000000000057,NaN,NaN,NaN,,False,NaN,96938.60000002384,4017.2000000476837,1669830088636,4017,HRV,HRV_0029,2022-11-30 17:43:20
65,"[{'imgObject': {}, 'id': 'fried eggs', 'src': '/static/foodstim60/fried eggs.jpg', 'key': 'u', 'origWidth': 410, 'origHeight': 410, 'width': 410, 'height': 410, 'widthPercent': 0.45, 'rescaleHeight': False, 'trialN': 65, 'loaded': True, 'loadedTime': 2111.3000000715256, 'positionName': 'LEFT', 'positionCoords': [327.28, 227], 'bid': 5.44}, {'imgObject': {}, 'id': 'apple slices', 'src': '/static/foodstim60/apple slices.jpg', 'key': 'i', 'origWidth': 409, 'origHeight': 410, 'width': 409, 'height': 410, 'widthPercent': 0.45, 'rescaleHeight': False, 'trialN': 65, 'loaded': True, 'loadedTime': 2145.399999976158, 'positionName': 'RIGHT', 'positionCoords': [798.72, 227], 'bid': 5.26}]",96938.80000007153,1669830088637,fried eggs,apple slices,5.44,5.26,-0.1800000000000006,NaN,NaN,NaN,,False,NaN,100959.5,4020.6999999284744,1669830092657,4020,HRV,HRV_0029,2022-11-30 17:43:20
66,"[{'imgObject': {}, 'id': 'grilled chicken strips', 'src': '/static/foodstim60/grilled chicken strips.jpg', 'key': 'u', 'origWidth': 410, 'origHeight': 411, 'width': 410, 'height': 411, 'widthPercent': 0.45, 'rescaleHeight': False, 'trialN': 66, 'loaded': True, 'loadedTime': 2104.899999976158, 'positionName': 'LEFT', 'positionCoords': [327.28, 226.5], 'bid': 5.44}, {'imgObject': {}, 'id': 'raisin bran w milk', 'src': '/static/foodstim60/raisin bran w milk.jpg', 'key': 'i', 'origWidth': 411, 'origHeight': 411, 'width': 411, 'height': 411, 'widthPercent': 0.45, 'rescaleHeight': False, 'trialN': 66, 'loaded': True, 'loadedTime': 2028.3000000715256, 'positionName': 'RIGHT', 'positionCoords': [798.72, 226.5], 'bid': 5.65}]",100959.60000002384,1669830092657,grilled chicken strips,raisin bran w milk,5.44,5.65,0.20999999999999996,raisin bran w milk,1570.8999999761581,1572,1571.1000000238419,True,i,103037.60000002384,2078.0,1669830094736,2079,HRV,HRV_0029,2022-11-30 17:43:20
67,"[{'imgObject': {}, 'id': 'yogurt no spoon', 'src': '/static/foodstim60/yogurt no spoon.jpg', 'key': 'u', 'origWidth': 411, 'origHeight': 410, 'width': 411, 'height': 410, 'widthPercent': 0.45, 'rescaleHeight': False, 'trialN': 67, 'loaded': True, 'loadedTime': 2026.7000000476837, 'positionName': 'LEFT', 'positionCoords': [326.28, 227], 'bid': 5.4}, {'imgObject': {}, 'id': 'cherries', 'src': '/static/foodstim60/cherries.jpg', 'key': 'i', 'origWidth': 410, 'origHeight': 411, 'width': 410, 'height': 411, 'widthPercent': 0.45, 'rescaleHeight': False, 'trialN': 67, 'loaded': True, 'loadedTime': 2233.100000023842, 'positionName': 'RIGHT', 'positionCoords': [798.72, 226.5], 'bid': 5.41}]",103037.80000007153,1669830094736,yogurt no spoon,cherries,5.4,5.41,0.009999999999999787,NaN,NaN,NaN,,False,NaN,107063.39999997616,4025.5999999046326,1669830098761,4025,HRV,HRV_0029,2022-11-30 17:43:20
68,"[{'imgObject': {}, 'id': 'cherry tomato', 'src': '/static/foodstim60/cherry tomato.jpg', 'key': 'u', 'origWidth': 410, 'origHeight': 410, 'width': 410, 'height': 410, 'widthPercent': 0.45, 'rescaleHeight': False, 'trialN': 68, 'loaded': True, 'loadedTime': 2082, 'positionName': 'LEFT', 'positionCoords': [327.28, 227], 'bid': 5.1000000000000005}, {'imgObject': {}, 'id': 'olives', 'src': '/static/foodstim60/olives.jpg', 'key': 'i', 'origWidth': 410, 'origHeight': 410, 'width': 410, 'height': 410, 'widthPercent': 0.45, 'rescaleHeight': False, 'trialN': 68, 'loaded': True, 'loadedTime': 2155.8000000715256, 'positionName': 'RIGHT', 'positionCoords': [798.72, 227], 'bid': 5.26}]",107063.5,1669830098761,cherry tomato,olives,5.1000000000000005,5.26,0.15999999999999925,olives,1046.3000000715256,1047,1046.6000000238419,True,i,108620.30000007153,1556.8000000715256,1669830100318,1557,HRV,HRV_0029,2022-11-30 17:43:20
69,"[{'imgObject': {}, 'id': 'pear', 'src': '/static/foodstim60/pear.jpg', 'key': 'u', 'origWidth': 411, 'origHeight': 410, 'width': 411, 'height': 410, 'widthPercent': 0.45, 'rescaleHeight': False, 'trialN': 69, 'loaded': True, 'loadedTime': 2091.2000000476837, 'positionName': 'LEFT', 'positionCoords': [326.28, 227], 'bid': 5.3100000000000005}, {'imgObject': {}, 'id': 'grilled chicken strips', 'src': '/static/foodstim60/grilled chicken strips.jpg', 'key': 'i', 'origWidth': 410, 'origHeight': 411, 'width': 410, 'height': 411, 'widthPercent': 0.45, 'rescaleHeight': False, 'trialN': 69, 'loaded': True, 'loadedTime': 2103.8000000715256, 'positionName': 'RIGHT', 'positionCoords': [798.72, 226.5], 'bid': 5.44}]",108620.39999997616,1669830100318,pear,grilled chicken strips,5.3100000000000005,5.44,0.1299999999999999,grilled chicken strips,126.20000004768372,127,126.40000009536743,True,i,109259.39999997616,639.0,1669830100957,639,HRV,HRV_0029,2022-11-30 17:43:20
70,"[{'imgObject': {}, 'id': 'tacos', 'src': '/static/foodstim60/tacos.jpg', 'key': 'u', 'origWidth': 411, 'origHeight': 411, 'width': 411, 'height': 411, 'widthPercent': 0.45, 'rescaleHeight': False, 'trialN': 70, 'loaded': True, 'loadedTime': 2206, 'positionName': 'LEFT', 'positionCoords': [326.28, 226.5], 'bid': 4.4}, {'imgObject': {}, 'id': 'steak', 'src': '/static/foodstim60/steak.jpg', 'key': 'i', 'origWidth': 410, 'origHeight': 410, 'width': 410, 'height': 410, 'widthPercent': 0.45, 'rescaleHeight': False, 'trialN': 70, 'loaded': True, 'loadedTime': 2232.899999976158, 'positionName': 'RIGHT', 'positionCoords': [798.72, 227], 'bid': 5.0200000000000005}]",109259.60000002384,1669830100957,tacos,steak,4.4,5.0200000000000005,0.6200000000000001,NaN,NaN,NaN,,False,NaN,113279.60000002384,4020.0,1669830104977,4020,HRV,HRV_0029,2022-11-30 17:43:20
71,"[{'imgObject': {}, 'id': 'orange slices', 'src': '/static/foodstim60/orange slices.jpg', 'key': 'u', 'origWidth': 409, 'origHeight': 410, 'width': 409, 'height': 410, 'widthPercent': 0.45, 'rescaleHeight': False, 'trialN': 71, 'loaded': True, 'loadedTime': 2254.2000000476837, 'positionName': 'LEFT', 'positionCoords': [328.28, 227], 'bid': 5}, {'imgObject': {}, 'id': 'fruitsalad', 'src': '/static/foodstim60/fruitsalad.jpg', 'key': 'i', 'origWidth': 410, 'origHeight': 410, 'width': 410, 'height': 410, 'widthPercent': 0.45, 'rescaleHeight': False, 'trialN': 71, 'loaded': True, 'loadedTime': 2021.7000000476837, 'positionName': 'RIGHT', 'positionCoords': [798.72, 227], 'bid': 4.86}]",113279.70000004768,1669830104978,orange slices,fruitsalad,5.0,4.86,-0.13999999999999968,NaN,NaN,NaN,,False,NaN,117299.39999997616,4019.6999999284744,1669830108997,4019,HRV,HRV_0029,2022-11-30 17:43:20
72,"[{'imgObject': {}, 'id': 'bagel plain', 'src': '/static/foodstim60/bagel plain.jpg', 'key': 'u', 'origWidth': 410, 'origHeight': 410, 'width': 410, 'height': 410, 'widthPercent': 0.45, 'rescaleHeight': False, 'trialN': 72, 'loaded': True, 'loadedTime': 2246.8000000715256, 'positionName': 'LEFT', 'positionCoords': [327.28, 227], 'bid': 4.21}, {'imgObject': {}, 'id': 'chicken nuggets2', 'src': '/static/foodstim60/chicken nuggets2.jpg', 'key': 'i', 'origWidth': 410, 'origHeight': 409, 'width': 410, 'height': 409, 'widthPercent': 0.45, 'rescaleHeight': False, 'trialN': 72, 'loaded': True, 'loadedTime': 2255.5, 'positionName': 'RIGHT', 'positionCoords': [798.72, 227.5], 'bid': 5.19}]",117299.60000002384,1669830108997,bagel plain,chicken nuggets2,4.21,5.19,0.9800000000000004,chicken nuggets2,1258.3999999761581,1259,1258.7000000476837,True,i,119071.30000007153,1771.7000000476837,1669830110769,1772,HRV,HRV_0029,2022-11-30 17:43:20
73,"[{'imgObject': {}, 'id': 'Tribe humus pita', 'src': '/static/foodstim60/Tribe humus pita.jpg', 'key': 'u', 'origWidth': 411, 'origHeight': 411, 'width': 411, 'height': 411, 'widthPercent': 0.45, 'rescaleHeight': False, 'trialN': 73, 'loaded': True, 'loadedTime': 2231.2000000476837, 'positionName': 'LEFT', 'positionCoords': [326.28, 226.5], 'bid': 4.2700000000000005}, {'imgObject': {}, 'id': 'fruitsalad', 'src': '/static/foodstim60/fruitsalad.jpg', 'key': 'i', 'origWidth': 410, 'origHeight': 410, 'width': 410, 'height': 410, 'widthPercent': 0.45, 'rescaleHeight': False, 'trialN': 73, 'loaded': True, 'loadedTime': 2022, 'positionName': 'RIGHT', 'positionCoords': [798.72, 227], 'bid': 4.86}]",119071.30000007153,1669830110769,Tribe humus pita,fruitsalad,4.2700000000000005,4.86,0.5899999999999999,fruitsalad,2698.6999999284744,2699,2698.7999999523163,True,i,122272.39999997616,3201.0999999046326,1669830113970,3201,HRV,HRV_0029,2022-11-30 17:43:20
74,"[{'imgObject': {}, 'id': 'avocado', 'src': '/static/foodstim60/avocado.jpg', 'key': 'u', 'origWidth': 409, 'origHeight': 409, 'width': 409, 'height': 409, 'widthPercent': 0.45, 'rescaleHeight': False, 'trialN': 74, 'loaded': True, 'loadedTime': 2046.5, 'positionName': 'LEFT', 'positionCoords': [328.28, 227.5], 'bid': 4.58}, {'imgObject': {}, 'id': 'bagel and cc', 'src': '/static/foodstim60/bagel and cc.jpg', 'key': 'i', 'origWidth': 410, 'origHeight': 410, 'width': 410, 'height': 410, 'widthPercent': 0.45, 'rescaleHeight': False, 'trialN': 74, 'loaded': True, 'loadedTime': 2049.7000000476837, 'positionName': 'RIGHT', 'positionCoords': [798.72, 227], 'bid': 5.29}]",122272.39999997616,1669830113970,avocado,bagel and cc,4.58,5.29,0.71,bagel and cc,1693.4000000953674,1694,1693.5,True,i,124477.20000004768,2204.8000000715256,1669830116175,2205,HRV,HRV_0029,2022-11-30 17:43:20
75,"[{'imgObject': {}, 'id': 'kiwi', 'src': '/static/foodstim60/kiwi.jpg', 'key': 'u', 'origWidth': 410, 'origHeight': 410, 'width': 410, 'height': 410, 'widthPercent': 0.45, 'rescaleHeight': False, 'trialN': 75, 'loaded': True, 'loadedTime': 2003.2000000476837, 'positionName': 'LEFT', 'positionCoords': [327.28, 227], 'bid': 5.48}, {'imgObject': {}, 'id': 'mango', 'src': '/static/foodstim60/mango.jpg', 'key': 'i', 'origWidth': 411, 'origHeight': 411, 'width': 411, 'height': 411, 'widthPercent': 0.45, 'rescaleHeight': False, 'trialN': 75, 'loaded': True, 'loadedTime': 2098.3000000715256, 'positionName': 'RIGHT', 'positionCoords': [798.72, 226.5], 'bid': 5.78}]",124477.30000007153,1669830116175,kiwi,mango,5.48,5.78,0.2999999999999998,kiwi,994.3999999761581,995,994.7999999523163,True,u,125976.5,1499.1999999284744,1669830117674,1499,HRV,HRV_0029,2022-11-30 17:43:20
76,"[{'imgObject': {}, 'id': 'salmon', 'src': '/static/foodstim60/salmon.jpg', 'key': 'u', 'origWidth': 410, 'origHeight': 409, 'width': 410, 'height': 409, 'widthPercent': 0.45, 'rescaleHeight': False, 'trialN': 76, 'loaded': True, 'loadedTime': 2163.2000000476837, 'positionName': 'LEFT', 'positionCoords': [327.28, 227.5], 'bid': 5.3100000000000005}, {'imgObject': {}, 'id': 'pear', 'src': '/static/foodstim60/pear.jpg', 'key': 'i', 'origWidth': 411, 'origHeight': 410, 'width': 411, 'height': 410, 'widthPercent': 0.45, 'rescaleHeight': False, 'trialN': 76, 'loaded': True, 'loadedTime': 2091.100000023842, 'positionName': 'RIGHT', 'positionCoords': [798.72, 227], 'bid': 5.3100000000000005}]",125976.60000002384,1669830117674,salmon,pear,5.3100000000000005,5.3100000000000005,0.0,salmon,67.5,68,67.70000004768372,True,u,126551.39999997616,574.7999999523163,1669830118249,575,HRV,HRV_0029,2022-11-30 17:43:20
77,"[{'imgObject': {}, 'id': 'banana', 'src': '/static/foodstim60/banana.jpg', 'key': 'u', 'origWidth': 410, 'origHeight': 410, 'width': 410, 'height': 410, 'widthPercent': 0.45, 'rescaleHeight': False, 'trialN': 77, 'loaded': True, 'loadedTime': 2023.3000000715256, 'positionName': 'LEFT', 'positionCoords': [327.28, 227], 'bid': 5.3100000000000005}, {'imgObject': {}, 'id': 'raisin bran w milk', 'src': '/static/foodstim60/raisin bran w milk.jpg', 'key': 'i', 'origWidth': 411, 'origHeight': 411, 'width': 411, 'height': 411, 'widthPercent': 0.45, 'rescaleHeight': False, 'trialN': 77, 'loaded': True, 'loadedTime': 2028.7000000476837, 'positionName': 'RIGHT', 'positionCoords': [798.72, 226.5], 'bid': 5.65}]",126551.60000002384,1669830118249,banana,raisin bran w milk,5.3100000000000005,5.65,0.33999999999999986,banana,82.89999997615814,84,83.10000002384186,True,u,127156.30000007153,604.7000000476837,1669830118854,605,HRV,HRV_0029,2022-11-30 17:43:20
78,"[{'imgObject': {}, 'id': 'mashed potato', 'src': '/static/foodstim60/mashed potato.jpg', 'key': 'u', 'origWidth': 409, 'origHeight': 409, 'width': 409, 'height': 409, 'widthPercent': 0.45, 'rescaleHeight': False, 'trialN': 78, 'loaded': True, 'loadedTime': 2096.399999976158, 'positionName': 'LEFT', 'positionCoords': [328.28, 227.5], 'bid': 5.54}, {'imgObject': {}, 'id': 'seaweed', 'src': '/static/foodstim60/seaweed.jpg', 'key': 'i', 'origWidth': 410, 'origHeight': 410, 'width': 410, 'height': 410, 'widthPercent': 0.45, 'rescaleHeight': False, 'trialN': 78, 'loaded': True, 'loadedTime': 2185.100000023842, 'positionName': 'RIGHT', 'positionCoords': [798.72, 227], 'bid': 5.4}]",127156.5,1669830118854,mashed potato,seaweed,5.54,5.4,-0.13999999999999968,seaweed,34.10000002384186,35,34.200000047683716,True,i,127697.0,540.5,1669830119395,541,HRV,HRV_0029,2022-11-30 17:43:20
79,"[{'imgObject': {}, 'id': 'cocktailshrimp', 'src': '/static/foodstim60/cocktailshrimp.jpg', 'key': 'u', 'origWidth': 410, 'origHeight': 410, 'width': 410, 'height': 410, 'widthPercent': 0.45, 'rescaleHeight': False, 'trialN': 79, 'loaded': True, 'loadedTime': 2135, 'positionName': 'LEFT', 'positionCoords': [327.28, 227], 'bid': 5.23}, {'imgObject': {}, 'id': 'sweetpotato', 'src': '/static/foodstim60/sweetpotato.jpg', 'key': 'i', 'origWidth': 410, 'origHeight': 410, 'width': 410, 'height': 410, 'widthPercent': 0.45, 'rescaleHeight': False, 'trialN': 79, 'loaded': True, 'loadedTime': 2031.8000000715256, 'positionName': 'RIGHT', 'positionCoords': [798.72, 227], 'bid': 5.15}]",127697.10000002384,1669830119395,cocktailshrimp,sweetpotato,5.23,5.15,-0.08000000000000007,cocktailshrimp,198.5,199,198.79999995231628,True,u,128408.0,710.8999999761581,1669830120106,711,HRV,HRV_0029,2022-11-30 17:43:20
80,"[{'imgObject': {}, 'id': 'raspberries', 'src': '/static/foodstim60/raspberries.jpg', 'key': 'u', 'origWidth': 411, 'origHeight': 411, 'width': 411, 'height': 411, 'widthPercent': 0.45, 'rescaleHeight': False, 'trialN': 80, 'loaded': True, 'loadedTime': 2257.2000000476837, 'positionName': 'LEFT', 'positionCoords': [326.28, 226.5], 'bid': 4.34}, {'imgObject': {}, 'id': 'orange slices', 'src': '/static/foodstim60/orange slices.jpg', 'key': 'i', 'origWidth': 409, 'origHeight': 410, 'width': 409, 'height': 410, 'widthPercent': 0.45, 'rescaleHeight': False, 'trialN': 80, 'loaded': True, 'loadedTime': 2248.5, 'positionName': 'RIGHT', 'positionCoords': [798.72, 227], 'bid': 5}]",128408.0,1669830120106,raspberries,orange slices,4.34,5.0,0.6600000000000001,orange slices,33.10000002384186,33,33.300000071525574,True,i,128957.10000002384,549.1000000238419,1669830120655,549,HRV,HRV_0029,2022-11-30 17:43:20
81,"[{'imgObject': {}, 'id': 'burrito', 'src': '/static/foodstim60/burrito.jpg', 'key': 'u', 'origWidth': 410, 'origHeight': 410, 'width': 410, 'height': 410, 'widthPercent': 0.45, 'rescaleHeight': False, 'trialN': 81, 'loaded': True, 'loadedTime': 2143.2000000476837, 'positionName': 'LEFT', 'positionCoords': [327.28, 227], 'bid': 4.76}, {'imgObject': {}, 'id': 'fruitsalad', 'src': '/static/foodstim60/fruitsalad.jpg', 'key': 'i', 'origWidth': 410, 'origHeight': 410, 'width': 410, 'height': 410, 'widthPercent': 0.45, 'rescaleHeight': False, 'trialN': 81, 'loaded': True, 'loadedTime': 2021.8999999761581, 'positionName': 'RIGHT', 'positionCoords': [798.72, 227], 'bid': 4.86}]",128957.20000004768,1669830120655,burrito,fruitsalad,4.76,4.86,0.10000000000000053,fruitsalad,68.79999995231628,69,69.0,True,i,129533.70000004768,576.5,1669830121232,577,HRV,HRV_0029,2022-11-30 17:43:20
82,"[{'imgObject': {}, 'id': 'edamame', 'src': '/static/foodstim60/edamame.jpg', 'key': 'u', 'origWidth': 409, 'origHeight': 410, 'width': 409, 'height': 410, 'widthPercent': 0.45, 'rescaleHeight': False, 'trialN': 82, 'loaded': True, 'loadedTime': 2187.7000000476837, 'positionName': 'LEFT', 'positionCoords': [328.28, 227], 'bid': 5.78}, {'imgObject': {}, 'id': 'salmon', 'src': '/static/foodstim60/salmon.jpg', 'key': 'i', 'origWidth': 410, 'origHeight': 409, 'width': 410, 'height': 409, 'widthPercent': 0.45, 'rescaleHeight': False, 'trialN': 82, 'loaded': True, 'loadedTime': 2161.7000000476837, 'positionName': 'RIGHT', 'positionCoords': [798.72, 227.5], 'bid': 5.3100000000000005}]",129533.89999997616,1669830121232,edamame,salmon,5.78,5.3100000000000005,-0.46999999999999975,salmon,5.5,5,5.700000047683716,True,i,130049.10000002384,515.2000000476837,1669830121747,515,HRV,HRV_0029,2022-11-30 17:43:20
83,"[{'imgObject': {}, 'id': 'omelette', 'src': '/static/foodstim60/omelette.jpg', 'key': 'u', 'origWidth': 410, 'origHeight': 409, 'width': 410, 'height': 409, 'widthPercent': 0.45, 'rescaleHeight': False, 'trialN': 83, 'loaded': True, 'loadedTime': 2118.2000000476837, 'positionName': 'LEFT', 'positionCoords': [327.28, 227.5], 'bid': 5.44}, {'imgObject': {}, 'id': 'corn cob', 'src': '/static/foodstim60/corn cob.jpg', 'key': 'i', 'origWidth': 411, 'origHeight': 411, 'width': 411, 'height': 411, 'widthPercent': 0.45, 'rescaleHeight': False, 'trialN': 83, 'loaded': True, 'loadedTime': 2145.100000023842, 'positionName': 'RIGHT', 'positionCoords': [798.72, 226.5], 'bid': 4.89}]",130049.30000007153,1669830121747,omelette,corn cob,5.44,4.89,-0.5500000000000007,omelette,232.59999990463257,233,232.79999995231628,True,u,130796.10000002384,746.7999999523163,1669830122494,747,HRV,HRV_0029,2022-11-30 17:43:20
84,"[{'imgObject': {}, 'id': 'hotdog w must', 'src': '/static/foodstim60/hotdog w must.jpg', 'key': 'u', 'origWidth': 409, 'origHeight': 409, 'width': 409, 'height': 409, 'widthPercent': 0.45, 'rescaleHeight': False, 'trialN': 84, 'loaded': True, 'loadedTime': 2012.3999999761581, 'positionName': 'LEFT', 'positionCoords': [328.28, 227.5], 'bid': 4.68}, {'imgObject': {}, 'id': 'mac & cheese', 'src': '/static/foodstim60/mac & cheese.jpg', 'key': 'i', 'origWidth': 410, 'origHeight': 410, 'width': 410, 'height': 410, 'widthPercent': 0.45, 'rescaleHeight': False, 'trialN': 84, 'loaded': True, 'loadedTime': 2246.7000000476837, 'positionName': 'RIGHT', 'positionCoords': [798.72, 227], 'bid': 5.05}]",130796.30000007153,1669830122494,hotdog w must,mac & cheese,4.68,5.05,0.3700000000000001,mac & cheese,105.09999990463257,106,105.29999995231628,True,i,131405.5,609.1999999284744,1669830123103,609,HRV,HRV_0029,2022-11-30 17:43:20
85,"[{'imgObject': {}, 'id': 'Grapes', 'src': '/static/foodstim60/Grapes.jpg', 'key': 'u', 'origWidth': 411, 'origHeight': 411, 'width': 411, 'height': 411, 'widthPercent': 0.45, 'rescaleHeight': False, 'trialN': 85, 'loaded': True, 'loadedTime': 2269.100000023842, 'positionName': 'LEFT', 'positionCoords': [326.28, 226.5], 'bid': 4.36}, {'imgObject': {}, 'id': 'Tribe humus pita', 'src': '/static/foodstim60/Tribe humus pita.jpg', 'key': 'i', 'origWidth': 411, 'origHeight': 411, 'width': 411, 'height': 411, 'widthPercent': 0.45, 'rescaleHeight': False, 'trialN': 85, 'loaded': True, 'loadedTime': 2231.3000000715256, 'positionName': 'RIGHT', 'positionCoords': [798.72, 226.5], 'bid': 4.2700000000000005}]",131405.70000004768,1669830123104,Grapes,Tribe humus pita,4.36,4.2700000000000005,-0.08999999999999986,Tribe humus pita,251.5,251,251.69999992847443,True,i,132166.70000004768,761.0,1669830123865,761,HRV,HRV_0029,2022-11-30 17:43:20
86,"[{'imgObject': {}, 'id': 'popsicles', 'src': '/static/foodstim60/popsicles.jpg', 'key': 'u', 'origWidth': 410, 'origHeight': 410, 'width': 410, 'height': 410, 'widthPercent': 0.45, 'rescaleHeight': False, 'trialN': 86, 'loaded': True, 'loadedTime': 2556.5, 'positionName': 'LEFT', 'positionCoords': [327.28, 227], 'bid': 4.88}, {'imgObject': {}, 'id': 'Grapes', 'src': '/static/foodstim60/Grapes.jpg', 'key': 'i', 'origWidth': 411, 'origHeight': 411, 'width': 411, 'height': 411, 'widthPercent': 0.45, 'rescaleHeight': False, 'trialN': 86, 'loaded': True, 'loadedTime': 2268.2000000476837, 'positionName': 'RIGHT', 'positionCoords': [798.72, 226.5], 'bid': 4.36}]",132166.89999997616,1669830123865,popsicles,Grapes,4.88,4.36,-0.5199999999999996,popsicles,11.600000023841858,11,11.700000047683716,True,u,132696.5,529.6000000238419,1669830124394,529,HRV,HRV_0029,2022-11-30 17:43:20
87,"[{'imgObject': {}, 'id': 'orange slices', 'src': '/static/foodstim60/orange slices.jpg', 'key': 'u', 'origWidth': 409, 'origHeight': 410, 'width': 409, 'height': 410, 'widthPercent': 0.45, 'rescaleHeight': False, 'trialN': 87, 'loaded': True, 'loadedTime': 2247.7000000476837, 'positionName': 'LEFT', 'positionCoords': [328.28, 227], 'bid': 5}, {'imgObject': {}, 'id': 'steak', 'src': '/static/foodstim60/steak.jpg', 'key': 'i', 'origWidth': 410, 'origHeight': 410, 'width': 410, 'height': 410, 'widthPercent': 0.45, 'rescaleHeight': False, 'trialN': 87, 'loaded': True, 'loadedTime': 2231.5, 'positionName': 'RIGHT', 'positionCoords': [798.72, 227], 'bid': 5.0200000000000005}]",132696.89999997616,1669830124395,orange slices,steak,5.0,5.0200000000000005,0.020000000000000462,orange slices,179.5,180,179.90000009536743,True,u,133383.80000007153,686.9000000953674,1669830125081,686,HRV,HRV_0029,2022-11-30 17:43:20
88,"[{'imgObject': {}, 'id': 'cantaloupe', 'src': '/static/foodstim60/cantaloupe.jpg', 'key': 'u', 'origWidth': 409, 'origHeight': 409, 'width': 409, 'height': 409, 'widthPercent': 0.45, 'rescaleHeight': False, 'trialN': 88, 'loaded': True, 'loadedTime': 2090.3000000715256, 'positionName': 'LEFT', 'positionCoords': [328.28, 227.5], 'bid': 4.7}, {'imgObject': {}, 'id': 'salmon', 'src': '/static/foodstim60/salmon.jpg', 'key': 'i', 'origWidth': 410, 'origHeight': 409, 'width': 410, 'height': 409, 'widthPercent': 0.45, 'rescaleHeight': False, 'trialN': 88, 'loaded': True, 'loadedTime': 2163.399999976158, 'positionName': 'RIGHT', 'positionCoords': [798.72, 227.5], 'bid': 5.3100000000000005}]",133384.10000002384,1669830125082,cantaloupe,salmon,4.7,5.3100000000000005,0.6100000000000003,cantaloupe,504.89999997615814,505,505.0,True,u,134394.70000004768,1010.6000000238419,1669830126092,1010,HRV,HRV_0029,2022-11-30 17:43:20
89,"[{'imgObject': {}, 'id': 'salad w chicken', 'src': '/static/foodstim60/salad w chicken.jpg', 'key': 'u', 'origWidth': 411, 'origHeight': 411, 'width': 411, 'height': 411, 'widthPercent': 0.45, 'rescaleHeight': False, 'trialN': 89, 'loaded': True, 'loadedTime': 2183.899999976158, 'positionName': 'LEFT', 'positionCoords': [326.28, 226.5], 'bid': 4.24}, {'imgObject': {}, 'id': 'lox', 'src': '/static/foodstim60/lox.jpg', 'key': 'i', 'origWidth': 410, 'origHeight': 411, 'width': 410, 'height': 411, 'widthPercent': 0.45, 'rescaleHeight': False, 'trialN': 89, 'loaded': True, 'loadedTime': 2016.3000000715256, 'positionName': 'RIGHT', 'positionCoords': [798.72, 226.5], 'bid': 4.17}]",134394.89999997616,1669830126092,salad w chicken,lox,4.24,4.17,-0.07000000000000028,salad w chicken,50.800000071525574,51,51.10000002384186,True,u,134956.39999997616,561.5,1669830126654,562,HRV,HRV_0029,2022-11-30 17:43:20
90,"[{'imgObject': {}, 'id': 'rigatoni', 'src': '/static/foodstim60/rigatoni.jpg', 'key': 'u', 'origWidth': 411, 'origHeight': 411, 'width': 411, 'height': 411, 'widthPercent': 0.45, 'rescaleHeight': False, 'trialN': 90, 'loaded': True, 'loadedTime': 2176, 'positionName': 'LEFT', 'positionCoords': [326.28, 226.5], 'bid': 5.22}, {'imgObject': {}, 'id': 'cherry tomato', 'src': '/static/foodstim60/cherry tomato.jpg', 'key': 'i', 'origWidth': 410, 'origHeight': 410, 'width': 410, 'height': 410, 'widthPercent': 0.45, 'rescaleHeight': False, 'trialN': 90, 'loaded': True, 'loadedTime': 2074.5, 'positionName': 'RIGHT', 'positionCoords': [798.72, 227], 'bid': 5.1000000000000005}]",141703.70000004768,1669830133401,rigatoni,cherry tomato,5.22,5.1000000000000005,-0.11999999999999922,rigatoni,540.7999999523163,541,541.0,True,u,142750.89999997616,1047.1999999284744,1669830134448,1047,HRV,HRV_0029,2022-11-30 17:43:20
91,"[{'imgObject': {}, 'id': 'shreddedwheatwithmilk', 'src': '/static/foodstim60/shreddedwheatwithmilk.jpg', 'key': 'u', 'origWidth': 410, 'origHeight': 410, 'width': 410, 'height': 410, 'widthPercent': 0.45, 'rescaleHeight': False, 'trialN': 91, 'loaded': True, 'loadedTime': 2242, 'positionName': 'LEFT', 'positionCoords': [327.28, 227], 'bid': 5.19}, {'imgObject': {}, 'id': 'orange slices', 'src': '/static/foodstim60/orange slices.jpg', 'key': 'i', 'origWidth': 409, 'origHeight': 410, 'width': 409, 'height': 410, 'widthPercent': 0.45, 'rescaleHeight': False, 'trialN': 91, 'loaded': True, 'loadedTime': 2254.600000023842, 'positionName': 'RIGHT', 'positionCoords': [798.72, 227], 'bid': 5}]",142751.0,1669830134448,shreddedwheatwithmilk,orange slices,5.19,5.0,-0.1900000000000004,orange slices,205.60000002384186,206,205.70000004768372,True,i,143463.80000007153,712.8000000715256,1669830135161,713,HRV,HRV_0029,2022-11-30 17:43:20
92,"[{'imgObject': {}, 'id': 'fried eggs', 'src': '/static/foodstim60/fried eggs.jpg', 'key': 'u', 'origWidth': 410, 'origHeight': 410, 'width': 410, 'height': 410, 'widthPercent': 0.45, 'rescaleHeight': False, 'trialN': 92, 'loaded': True, 'loadedTime': 2111.600000023842, 'positionName': 'LEFT', 'positionCoords': [327.28, 227], 'bid': 5.44}, {'imgObject': {}, 'id': 'orange slices', 'src': '/static/foodstim60/orange slices.jpg', 'key': 'i', 'origWidth': 409, 'origHeight': 410, 'width': 409, 'height': 410, 'widthPercent': 0.45, 'rescaleHeight': False, 'trialN': 92, 'loaded': True, 'loadedTime': 2248.399999976158, 'positionName': 'RIGHT', 'positionCoords': [798.72, 227], 'bid': 5}]",143463.89999997616,1669830135161,fried eggs,orange slices,5.44,5.0,-0.4400000000000004,fried eggs,176.80000007152557,177,176.90000009536743,True,u,144145.80000007153,681.9000000953674,1669830135843,682,HRV,HRV_0029,2022-11-30 17:43:20
93,"[{'imgObject': {}, 'id': 'granola w milk', 'src': '/static/foodstim60/granola w milk.jpg', 'key': 'u', 'origWidth': 410, 'origHeight': 410, 'width': 410, 'height': 410, 'widthPercent': 0.45, 'rescaleHeight': False, 'trialN': 93, 'loaded': True, 'loadedTime': 2025, 'positionName': 'LEFT', 'positionCoords': [327.28, 227], 'bid': 5.32}, {'imgObject': {}, 'id': 'eggs', 'src': '/static/foodstim60/eggs.jpg', 'key': 'i', 'origWidth': 409, 'origHeight': 409, 'width': 409, 'height': 409, 'widthPercent': 0.45, 'rescaleHeight': False, 'trialN': 93, 'loaded': True, 'loadedTime': 2013.7000000476837, 'positionName': 'RIGHT', 'positionCoords': [798.72, 227.5], 'bid': 5.54}]",144146.0,1669830135843,granola w milk,eggs,5.32,5.54,0.21999999999999975,eggs,95.60000002384186,96,95.70000004768372,True,i,144748.60000002384,602.6000000238419,1669830136446,603,HRV,HRV_0029,2022-11-30 17:43:20
94,"[{'imgObject': {}, 'id': 'eggsalad', 'src': '/static/foodstim60/eggsalad.jpg', 'key': 'u', 'origWidth': 410, 'origHeight': 409, 'width': 410, 'height': 409, 'widthPercent': 0.45, 'rescaleHeight': False, 'trialN': 94, 'loaded': True, 'loadedTime': 2222.5, 'positionName': 'LEFT', 'positionCoords': [327.28, 227.5], 'bid': 5}, {'imgObject': {}, 'id': 'chicken nuggets2', 'src': '/static/foodstim60/chicken nuggets2.jpg', 'key': 'i', 'origWidth': 410, 'origHeight': 409, 'width': 410, 'height': 409, 'widthPercent': 0.45, 'rescaleHeight': False, 'trialN': 94, 'loaded': True, 'loadedTime': 2256.5, 'positionName': 'RIGHT', 'positionCoords': [798.72, 227.5], 'bid': 5.19}]",144748.70000004768,1669830136446,eggsalad,chicken nuggets2,5.0,5.19,0.1900000000000004,eggsalad,94.60000002384186,95,94.79999995231628,True,u,145356.10000002384,607.3999999761581,1669830137053,607,HRV,HRV_0029,2022-11-30 17:43:20
95,"[{'imgObject': {}, 'id': 'olives', 'src': '/static/foodstim60/olives.jpg', 'key': 'u', 'origWidth': 410, 'origHeight': 410, 'width': 410, 'height': 410, 'widthPercent': 0.45, 'rescaleHeight': False, 'trialN': 95, 'loaded': True, 'loadedTime': 2156.5, 'positionName': 'LEFT', 'positionCoords': [327.28, 227], 'bid': 5.26}, {'imgObject': {}, 'id': 'bagel and cc', 'src': '/static/foodstim60/bagel and cc.jpg', 'key': 'i', 'origWidth': 410, 'origHeight': 410, 'width': 410, 'height': 410, 'widthPercent': 0.45, 'rescaleHeight': False, 'trialN': 95, 'loaded': True, 'loadedTime': 2049.2000000476837, 'positionName': 'RIGHT', 'positionCoords': [798.72, 227], 'bid': 5.29}]",145356.20000004768,1669830137054,olives,bagel and cc,5.26,5.29,0.03000000000000025,olives,162.29999995231628,162,162.5,True,u,146038.5,682.2999999523163,1669830137736,682,HRV,HRV_0029,2022-11-30 17:43:20
96,"[{'imgObject': {}, 'id': 'eggs', 'src': '/static/foodstim60/eggs.jpg', 'key': 'u', 'origWidth': 409, 'origHeight': 409, 'width': 409, 'height': 409, 'widthPercent': 0.45, 'rescaleHeight': False, 'trialN': 96, 'loaded': True, 'loadedTime': 2013.6000000238419, 'positionName': 'LEFT', 'positionCoords': [328.28, 227.5], 'bid': 5.54}, {'imgObject': {}, 'id': 'baked potato', 'src': '/static/foodstim60/baked potato.jpg', 'key': 'i', 'origWidth': 409, 'origHeight': 410, 'width': 409, 'height': 410, 'widthPercent': 0.45, 'rescaleHeight': False, 'trialN': 96, 'loaded': True, 'loadedTime': 2198.100000023842, 'positionName': 'RIGHT', 'positionCoords': [798.72, 227], 'bid': 5.28}]",146038.70000004768,1669830137736,eggs,baked potato,5.54,5.28,-0.2599999999999998,baked potato,163.10000002384186,163,163.19999992847443,True,i,146703.80000007153,665.1000000238419,1669830138401,665,HRV,HRV_0029,2022-11-30 17:43:20
97,"[{'imgObject': {}, 'id': 'grilled chicken strips', 'src': '/static/foodstim60/grilled chicken strips.jpg', 'key': 'u', 'origWidth': 410, 'origHeight': 411, 'width': 410, 'height': 411, 'widthPercent': 0.45, 'rescaleHeight': False, 'trialN': 97, 'loaded': True, 'loadedTime': 2104.7000000476837, 'positionName': 'LEFT', 'positionCoords': [327.28, 226.5], 'bid': 5.44}, {'imgObject': {}, 'id': 'omelette', 'src': '/static/foodstim60/omelette.jpg', 'key': 'i', 'origWidth': 410, 'origHeight': 409, 'width': 410, 'height': 409, 'widthPercent': 0.45, 'rescaleHeight': False, 'trialN': 97, 'loaded': True, 'loadedTime': 2117.8000000715256, 'positionName': 'RIGHT', 'positionCoords': [798.72, 227.5], 'bid': 5.44}]",146703.80000007153,1669830138401,grilled chicken strips,omelette,5.44,5.44,0.0,omelette,67.39999997615814,68,67.59999990463257,True,i,147283.30000007153,579.5,1669830138981,580,HRV,HRV_0029,2022-11-30 17:43:20
98,"[{'imgObject': {}, 'id': 'chickenfingers', 'src': '/static/foodstim60/chickenfingers.jpg', 'key': 'u', 'origWidth': 410, 'origHeight': 410, 'width': 410, 'height': 410, 'widthPercent': 0.45, 'rescaleHeight': False, 'trialN': 98, 'loaded': True, 'loadedTime': 2197.100000023842, 'positionName': 'LEFT', 'positionCoords': [327.28, 227], 'bid': 5.16}, {'imgObject': {}, 'id': 'veggieswithdip', 'src': '/static/foodstim60/veggieswithdip.jpg', 'key': 'i', 'origWidth': 409, 'origHeight': 409, 'width': 409, 'height': 409, 'widthPercent': 0.45, 'rescaleHeight': False, 'trialN': 98, 'loaded': True, 'loadedTime': 2206.899999976158, 'positionName': 'RIGHT', 'positionCoords': [798.72, 227.5], 'bid': 5.14}]",147283.39999997616,1669830138981,chickenfingers,veggieswithdip,5.16,5.14,-0.020000000000000462,chickenfingers,37.40000009536743,37,37.60000002384186,True,u,147824.89999997616,541.5,1669830139522,541,HRV,HRV_0029,2022-11-30 17:43:20
99,"[{'imgObject': {}, 'id': 'apple slices', 'src': '/static/foodstim60/apple slices.jpg', 'key': 'u', 'origWidth': 409, 'origHeight': 410, 'width': 409, 'height': 410, 'widthPercent': 0.45, 'rescaleHeight': False, 'trialN': 99, 'loaded': True, 'loadedTime': 2153.100000023842, 'positionName': 'LEFT', 'positionCoords': [328.28, 227], 'bid': 5.26}, {'imgObject': {}, 'id': 'raspberries', 'src': '/static/foodstim60/raspberries.jpg', 'key': 'i', 'origWidth': 411, 'origHeight': 411, 'width': 411, 'height': 411, 'widthPercent': 0.45, 'rescaleHeight': False, 'trialN': 99, 'loaded': True, 'loadedTime': 2256.899999976158, 'positionName': 'RIGHT', 'positionCoords': [798.72, 226.5], 'bid': 4.34}]",147825.10000002384,1669830139522,apple slices,raspberries,5.26,4.34,-0.9199999999999999,apple slices,109.79999995231628,111,110.0,True,u,148443.70000004768,618.6000000238419,1669830140141,619,HRV,HRV_0029,2022-11-30 17:43:20
100,"[{'imgObject': {}, 'id': 'rigatoni', 'src': '/static/foodstim60/rigatoni.jpg', 'key': 'u', 'origWidth': 411, 'origHeight': 411, 'width': 411, 'height': 411, 'widthPercent': 0.45, 'rescaleHeight': False, 'trialN': 100, 'loaded': True, 'loadedTime': 2176.3000000715256, 'positionName': 'LEFT', 'positionCoords': [326.28, 226.5], 'bid': 5.22}, {'imgObject': {}, 'id': 'omelette', 'src': '/static/foodstim60/omelette.jpg', 'key': 'i', 'origWidth': 410, 'origHeight': 409, 'width': 410, 'height': 409, 'widthPercent': 0.45, 'rescaleHeight': False, 'trialN': 100, 'loaded': True, 'loadedTime': 2118, 'positionName': 'RIGHT', 'positionCoords': [798.72, 227.5], 'bid': 5.44}]",148443.80000007153,1669830140141,rigatoni,omelette,5.22,5.44,0.22000000000000064,rigatoni,202.59999990463257,203,202.69999992847443,True,u,149161.30000007153,717.5,1669830140859,718,HRV,HRV_0029,2022-11-30 17:43:20
101,"[{'imgObject': {}, 'id': 'fruitsalad', 'src': '/static/foodstim60/fruitsalad.jpg', 'key': 'u', 'origWidth': 410, 'origHeight': 410, 'width': 410, 'height': 410, 'widthPercent': 0.45, 'rescaleHeight': False, 'trialN': 101, 'loaded': True, 'loadedTime': 2022, 'positionName': 'LEFT', 'positionCoords': [327.28, 227], 'bid': 4.86}, {'imgObject': {}, 'id': 'seaweed', 'src': '/static/foodstim60/seaweed.jpg', 'key': 'i', 'origWidth': 410, 'origHeight': 410, 'width': 410, 'height': 410, 'widthPercent': 0.45, 'rescaleHeight': False, 'trialN': 101, 'loaded': True, 'loadedTime': 2184, 'positionName': 'RIGHT', 'positionCoords': [798.72, 227], 'bid': 5.4}]",149161.39999997616,1669830140859,fruitsalad,seaweed,4.86,5.4,0.54,fruitsalad,230,230,230.10000002384186,True,u,149900.89999997616,739.5,1669830141598,739,HRV,HRV_0029,2022-11-30 17:43:20
102,"[{'imgObject': {}, 'id': 'omelette', 'src': '/static/foodstim60/omelette.jpg', 'key': 'u', 'origWidth': 410, 'origHeight': 409, 'width': 410, 'height': 409, 'widthPercent': 0.45, 'rescaleHeight': False, 'trialN': 102, 'loaded': True, 'loadedTime': 2117.8000000715256, 'positionName': 'LEFT', 'positionCoords': [327.28, 227.5], 'bid': 5.44}, {'imgObject': {}, 'id': 'luckycharms', 'src': '/static/foodstim60/luckycharms.jpg', 'key': 'i', 'origWidth': 410, 'origHeight': 409, 'width': 410, 'height': 409, 'widthPercent': 0.45, 'rescaleHeight': False, 'trialN': 102, 'loaded': True, 'loadedTime': 2185.899999976158, 'positionName': 'RIGHT', 'positionCoords': [798.72, 227.5], 'bid': 5.44}]",149901.0,1669830141598,omelette,luckycharms,5.44,5.44,0.0,omelette,121.5,122,121.60000002384186,True,u,150540.60000002384,639.6000000238419,1669830142238,640,HRV,HRV_0029,2022-11-30 17:43:20
103,"[{'imgObject': {}, 'id': 'froot loops w milk', 'src': '/static/foodstim60/froot loops w milk.jpg', 'key': 'u', 'origWidth': 410, 'origHeight': 410, 'width': 410, 'height': 410, 'widthPercent': 0.45, 'rescaleHeight': False, 'trialN': 103, 'loaded': True, 'loadedTime': 2016.8000000715256, 'positionName': 'LEFT', 'positionCoords': [327.28, 227], 'bid': 4.03}, {'imgObject': {}, 'id': 'raspberries', 'src': '/static/foodstim60/raspberries.jpg', 'key': 'i', 'origWidth': 411, 'origHeight': 411, 'width': 411, 'height': 411, 'widthPercent': 0.45, 'rescaleHeight': False, 'trialN': 103, 'loaded': True, 'loadedTime': 2257.2000000476837, 'positionName': 'RIGHT', 'positionCoords': [798.72, 226.5], 'bid': 4.34}]",150540.70000004768,1669830142238,froot loops w milk,raspberries,4.03,4.34,0.3099999999999996,froot loops w milk,339.2999999523163,340,339.60000002384186,True,u,151380.60000002384,839.8999999761581,1669830143078,840,HRV,HRV_0029,2022-11-30 17:43:20
104,"[{'imgObject': {}, 'id': 'ice cream sundae 002', 'src': '/static/foodstim60/ice cream sundae 002.jpg', 'key': 'u', 'origWidth': 409, 'origHeight': 409, 'width': 409, 'height': 409, 'widthPercent': 0.45, 'rescaleHeight': False, 'trialN': 104, 'loaded': True, 'loadedTime': 2020.1000000238419, 'positionName': 'LEFT', 'positionCoords': [328.28, 227.5], 'bid': 4.7}, {'imgObject': {}, 'id': 'Tribe humus pita', 'src': '/static/foodstim60/Tribe humus pita.jpg', 'key': 'i', 'origWidth': 411, 'origHeight': 411, 'width': 411, 'height': 411, 'widthPercent': 0.45, 'rescaleHeight': False, 'trialN': 104, 'loaded': True, 'loadedTime': 2231.399999976158, 'positionName': 'RIGHT', 'positionCoords': [798.72, 226.5], 'bid': 4.2700000000000005}]",151380.80000007153,1669830143078,ice cream sundae 002,Tribe humus pita,4.7,4.2700000000000005,-0.4299999999999997,ice cream sundae 002,558.7999999523163,559,558.8999999761581,True,u,152440.30000007153,1059.5,1669830144138,1060,HRV,HRV_0029,2022-11-30 17:43:20
105,"[{'imgObject': {}, 'id': 'raspberries', 'src': '/static/foodstim60/raspberries.jpg', 'key': 'u', 'origWidth': 411, 'origHeight': 411, 'width': 411, 'height': 411, 'widthPercent': 0.45, 'rescaleHeight': False, 'trialN': 105, 'loaded': True, 'loadedTime': 2257, 'positionName': 'LEFT', 'positionCoords': [326.28, 226.5], 'bid': 4.34}, {'imgObject': {}, 'id': 'strawberries', 'src': '/static/foodstim60/strawberries.jpg', 'key': 'i', 'origWidth': 410, 'origHeight': 410, 'width': 410, 'height': 410, 'widthPercent': 0.45, 'rescaleHeight': False, 'trialN': 105, 'loaded': True, 'loadedTime': 2014.6000000238419, 'positionName': 'RIGHT', 'positionCoords': [798.72, 227], 'bid': 4.88}]",152440.30000007153,1669830144138,raspberries,strawberries,4.34,4.88,0.54,raspberries,159.89999997615814,160,160.09999990463257,True,u,153114.89999997616,674.5999999046326,1669830144812,674,HRV,HRV_0029,2022-11-30 17:43:20
106,"[{'imgObject': {}, 'id': 'rigatoni', 'src': '/static/foodstim60/rigatoni.jpg', 'key': 'u', 'origWidth': 411, 'origHeight': 411, 'width': 411, 'height': 411, 'widthPercent': 0.45, 'rescaleHeight': False, 'trialN': 106, 'loaded': True, 'loadedTime': 2176.399999976158, 'positionName': 'LEFT', 'positionCoords': [326.28, 226.5], 'bid': 5.22}, {'imgObject': {}, 'id': 'chicken nuggets2', 'src': '/static/foodstim60/chicken nuggets2.jpg', 'key': 'i', 'origWidth': 410, 'origHeight': 409, 'width': 410, 'height': 409, 'widthPercent': 0.45, 'rescaleHeight': False, 'trialN': 106, 'loaded': True, 'loadedTime': 2256.399999976158, 'positionName': 'RIGHT', 'positionCoords': [798.72, 227.5], 'bid': 5.19}]",153115.10000002384,1669830144812,rigatoni,chicken nuggets2,5.22,5.19,-0.02999999999999936,rigatoni,142.5,143,142.70000004768372,True,u,153768.30000007153,653.2000000476837,1669830145466,654,HRV,HRV_0029,2022-11-30 17:43:20
107,"[{'imgObject': {}, 'id': 'tacos', 'src': '/static/foodstim60/tacos.jpg', 'key': 'u', 'origWidth': 411, 'origHeight': 411, 'width': 411, 'height': 411, 'widthPercent': 0.45, 'rescaleHeight': False, 'trialN': 107, 'loaded': True, 'loadedTime': 2206.100000023842, 'positionName': 'LEFT', 'positionCoords': [326.28, 226.5], 'bid': 4.4}, {'imgObject': {}, 'id': 'baked potato', 'src': '/static/foodstim60/baked potato.jpg', 'key': 'i', 'origWidth': 409, 'origHeight': 410, 'width': 409, 'height': 410, 'widthPercent': 0.45, 'rescaleHeight': False, 'trialN': 107, 'loaded': True, 'loadedTime': 2198.3000000715256, 'positionName': 'RIGHT', 'positionCoords': [798.72, 227], 'bid': 5.28}]",153768.5,1669830145466,tacos,baked potato,4.4,5.28,0.8799999999999999,tacos,154.70000004768372,155,154.89999997615814,True,u,154435.0,666.5,1669830146132,666,HRV,HRV_0029,2022-11-30 17:43:20
108,"[{'imgObject': {}, 'id': 'turkeysandwich', 'src': '/static/foodstim60/turkeysandwich.jpg', 'key': 'u', 'origWidth': 409, 'origHeight': 409, 'width': 409, 'height': 409, 'widthPercent': 0.45, 'rescaleHeight': False, 'trialN': 108, 'loaded': True, 'loadedTime': 2174.600000023842, 'positionName': 'LEFT', 'positionCoords': [328.28, 227.5], 'bid': 5.3500000000000005}, {'imgObject': {}, 'id': 'burger', 'src': '/static/foodstim60/burger.jpg', 'key': 'i', 'origWidth': 409, 'origHeight': 409, 'width': 409, 'height': 409, 'widthPercent': 0.45, 'rescaleHeight': False, 'trialN': 108, 'loaded': True, 'loadedTime': 2054.399999976158, 'positionName': 'RIGHT', 'positionCoords': [798.72, 227.5], 'bid': 5.54}]",154435.0,1669830146132,turkeysandwich,burger,5.3500000000000005,5.54,0.1899999999999995,turkeysandwich,311.5,312,311.8000000715256,True,u,155253.60000002384,818.6000000238419,1669830146951,819,HRV,HRV_0029,2022-11-30 17:43:20
