success,trial_type,trial_index,time_elapsed,internal_node_id,Block,TrialNumber,TrialTime,trialTimeDiff,FPS_avg,FPS_med,FPS_mode,TrialDur,winResizeTime,rt,block,button_pressed,MotCoh,MotDir,ColCoh,Color,ChoiceKey,Choice,Accuracy,RT,nFrames,FPS,PPD,missTrial,missTrialMsg,onsetDelay,fullScreenExitTime,canvCenter,TrialType,Score,BlockTrial,stimulus,button_labels,exp,subjectId,date
True,fullscreen,0,1297,0.0-0.0,0.0,1.0,,,,,,,,,,,,,,,,,,,,,,,,,,,,,,,,HRV,HRV_0029,2022-11-30 17:52:50
,wl-check-fps,1,6300,0.0-1.0,0.0,2.0,"[1839.8, 1846.2, 1848.8, 1865.1, 1881.9, 1898.9, 1915.2, 1932, 1948.7, 1968.3, 2000.2, 2016.7, 2032.4, 2049.6, 2065.1, 2082.3, 2098.8, 2115.3, 2132.5, 2149.5, 2166, 2182.7, 2199.3, 2215.9, 2232.6, 2249.4, 2266.2, 2282.5, 2299.2, 2315.9, 2332.7, 2349.4, 2365.9, 2382.8, 2399.4, 2415.7, 2432.9, 2449.1, 2465.9, 2482.6, 2499.3, 2516.1, 2532.5, 2548.7, 2565.7, 2582.8, 2598.4, 2615.3, 2631.9, 2648.7, 2665.6, 2682.1, 2699.1, 2715.7, 2732.4, 2749.5, 2766.1, 2782.8, 2799, 2815.6, 2832.8, 2849.1, 2866.1, 2883.1, 2899, 2915.9, 2932.1, 2949, 2966, 2982.6, 2999.9, 3016.1, 3032.1, 3059.6, 3065.6, 3081.8, 3098.5, 3115.5, 3131.9, 3148.6, 3165, 3181.9, 3198.4, 3215, 3232.3, 3248.5, 3265.3, 3282.3, 3298.6, 3315, 3332.2, 3348.5, 3365.5, 3382.1, 3398.8, 3415.6, 3432.1, 3448.6, 3465.5, 3482.2, 3498.8, 3515.4, 3532.1, 3548.8, 3565.4, 3582.1, 3598.7, 3615.2, 3632, 3648.6, 3665.8, 3682.1, 3698.7, 3715.4, 3732.1, 3748.9, 3765.4, 3782.3, 3798.7, 3815.6, 3832.1, 3848.9, 3865.1, 3882.1, 3898.9, 3915.5, 3932, 3948.7, 3965.3, 3982.1, 3998.9, 4015, 4032.2, 4048.7, 4065.6, 4082.2, 4099.1, 4115.4, 4132.1, 4148.8, 4165.6, 4182.1, 4198.7, 4215.5, 4232.3, 4248.6, 4265.6, 4282.2, 4298.7, 4315.5, 4332.3, 4348.8, 4365.4, 4382, 4398.8, 4415.6, 4432, 4448.3, 4465.5, 4482, 4498.9, 4515.6, 4532, 4548.8, 4565.7, 4581.9, 4598.7, 4615, 4631.9, 4648.7, 4665.5, 4682.1, 4698.8, 4715.1, 4732, 4748.7, 4765.6, 4781.8, 4798.8, 4815.3, 4831.9, 4848.6, 4865.6, 4882, 4898.6, 4916.5, 4931.9, 4948.9, 4965.3, 4981.7, 4998.8, 5015.4, 5032, 5048.5, 5065.6, 5082.2, 5099, 5115.4, 5132.1, 5148.7, 5165.4, 5182, 5198.9, 5215.3, 5231.9, 5248.8, 5265.4, 5281.8, 5299.2, 5315.4, 5332.4, 5349, 5366, 5382.8, 5399.2, 5415.7, 5432.4, 5448.5, 5465.4, 5483.6, 5498.9, 5515.8, 5532.9, 5551.4, 5568.8, 5583.5, 5600.3, 5616.7, 5632.4, 5650.2, 5666.7, 5683.5, 5700.3, 5716.7, 5733.7, 5750.6, 5766.4, 5783.5, 5798.8, 5816.1, 5833.6, 5849.7, 5866.7, 5883.4, 5899.4, 5917.1, 5933, 5949.7, 5966.4, 5983.3, 5999.6, 6015.9, 6032.6, 6049.3, 6065.4, 6082.9, 6099.8, 6116.2, 6132.6, 6150.1, 6165, 6182.2, 6198.6, 6215.6, 6231.7, 6248.7, 6265.3, 6282, 6298.6, 6315.1, 6331.6, 6348.5, 6365.4, 6382, 6398.6, 6415.3, 6431.8, 6448.6, 6465.3, 6482.4, 6499.3, 6515.4, 6532.5, 6550.9, 6565.8, 6582.2, 6598.5, 6615.7, 6631.9, 6649, 6665.4, 6682.1, 6698.8, 6715.8, 6731.6, 6749.2, 6765.7, 6782.4, 6798.8, 6815.6]","[7, 6.4, 2.6, 16.3, 16.8, 17, 16.3, 16.8, 16.7, 19.6, 31.9, 16.5, 15.7, 17.2, 15.5, 17.2, 16.5, 16.5, 17.2, 17, 16.5, 16.7, 16.6, 16.6, 16.7, 16.8, 16.8, 16.3, 16.7, 16.7, 16.8, 16.7, 16.5, 16.9, 16.6, 16.3, 17.2, 16.2, 16.8, 16.7, 16.7, 16.8, 16.4, 16.2, 17, 17.1, 15.6, 16.9, 16.6, 16.8, 16.9, 16.5, 17, 16.6, 16.7, 17.1, 16.6, 16.7, 16.2, 16.6, 17.2, 16.3, 17, 17, 15.9, 16.9, 16.2, 16.9, 17, 16.6, 17.3, 16.2, 16, 27.5, 6, 16.2, 16.7, 17, 16.4, 16.7, 16.4, 16.9, 16.5, 16.6, 17.3, 16.2, 16.8, 17, 16.3, 16.4, 17.2, 16.3, 17, 16.6, 16.7, 16.8, 16.5, 16.5, 16.9, 16.7, 16.6, 16.6, 16.7, 16.7, 16.6, 16.7, 16.6, 16.5, 16.8, 16.6, 17.2, 16.3, 16.6, 16.7, 16.7, 16.8, 16.5, 16.9, 16.4, 16.9, 16.5, 16.8, 16.2, 17, 16.8, 16.6, 16.5, 16.7, 16.6, 16.8, 16.8, 16.1, 17.2, 16.5, 16.9, 16.6, 16.9, 16.3, 16.7, 16.7, 16.8, 16.5, 16.6, 16.8, 16.8, 16.3, 17, 16.6, 16.5, 16.8, 16.8, 16.5, 16.6, 16.6, 16.8, 16.8, 16.4, 16.3, 17.2, 16.5, 16.9, 16.7, 16.4, 16.8, 16.9, 16.2, 16.8, 16.3, 16.9, 16.8, 16.8, 16.6, 16.7, 16.3, 16.9, 16.7, 16.9, 16.2, 17, 16.5, 16.6, 16.7, 17, 16.4, 16.6, 17.9, 15.4, 17, 16.4, 16.4, 17.1, 16.6, 16.6, 16.5, 17.1, 16.6, 16.8, 16.4, 16.7, 16.6, 16.7, 16.6, 16.9, 16.4, 16.6, 16.9, 16.6, 16.4, 17.4, 16.2, 17, 16.6, 17, 16.8, 16.4, 16.5, 16.7, 16.1, 16.9, 18.2, 15.3, 16.9, 17.1, 18.5, 17.4, 14.7, 16.8, 16.4, 15.7, 17.8, 16.5, 16.8, 16.8, 16.4, 17, 16.9, 15.8, 17.1, 15.3, 17.3, 17.5, 16.1, 17, 16.7, 16, 17.7, 15.9, 16.7, 16.7, 16.9, 16.3, 16.3, 16.7, 16.7, 16.1, 17.5, 16.9, 16.4, 16.4, 17.5, 14.9, 17.2, 16.4, 17, 16.1, 17, 16.6, 16.7, 16.6, 16.5, 16.5, 16.9, 16.9, 16.6, 16.6, 16.7, 16.5, 16.8, 16.7, 17.1, 16.9, 16.1, 17.1, 18.4, 14.9, 16.4, 16.3, 17.2, 16.2, 17.1, 16.4, 16.7, 16.7, 17, 15.8, 17.6, 16.5, 16.7, 16.4, 16.8]",60.0,60.0,60.0,4999.7,[],,,,,,,,,,,,,,,,,,,,,,,,,HRV,HRV_0029,2022-11-30 17:52:50
,wl-html-keyboard-response,2,13602,0.0-2.0-0.0,0.0,3.0,,,,,,,,5774.900000095367,0.0,0,,,,,,,,,,,,,,,,,,,,,,HRV,HRV_0029,2022-11-30 17:52:50
,wl-rdm,3,30164,0.0-3.0-0.0,0.0,4.0,,,,,,,[],,,,0.0,0.0,87.9,0.0,u,0.0,True,2278.399999976158,137.0,60.0,40.0,False,too_early too_early ,3000.0,[],"[768, 432]",ColorTask_Demo,,,,,HRV,HRV_0029,2022-11-30 17:52:50
,wl-rdm,4,50646,0.0-3.0-1.0,0.0,5.0,,,,,,,[],,,,0.0,0.0,87.9,1.0,i,1.0,True,2298.399999976158,138.0,60.0,40.0,False,RT_timeout too_early ,2000.0,[],"[768, 432]",ColorTask_Demo,,,,,HRV,HRV_0029,2022-11-30 17:52:50
,wl-html-keyboard-response,5,56430,0.0-3.0-2.0,0.0,6.0,,,,,,,,3779.6999999284744,0.0,1,,,,,,,,,,,,,,,,,,,,,,HRV,HRV_0029,2022-11-30 17:52:50
,wl-html-keyboard-response,6,63482,0.0-4.0-0.0,0.0,7.0,,,,,,,,5571.599999904633,0.0,0,,,,,,,,,,,,,,,,,,,,,,HRV,HRV_0029,2022-11-30 17:52:50
,wl-html-keyboard-response,7,70578,0.0-5.0-0.0,0.0,8.0,,,,,,,,5744.0,0.0,0,,,,,,,,,,,,,,,,,,,,,,HRV,HRV_0029,2022-11-30 17:52:50
,wl-rdm,8,74894,0.0-6.0-0.0,0.0,8.0,,,,,,,[],,,,,,53.2,1.0,i,,,3200.7999999523163,179.0,60.0,40.0,True,RT_timeout ,210.3039822279192,[],"[768, 432]",ColorTask,-1.0,1.0,,,HRV,HRV_0029,2022-11-30 17:52:50
,wl-rdm,9,77811,0.0-6.1-0.1,0.0,9.0,,,,,,,[],,,,,,50.0,1.0,i,1.0,True,1469.5,89.0,60.0,40.0,False,,375.64255145788337,[],"[768, 432]",ColorTask,0.0,2.0,,,HRV,HRV_0029,2022-11-30 17:52:50
,wl-rdm,10,80394,0.0-6.2-0.2,0.0,10.0,,,,,,,[],,,,,,56.4,0.0,i,1.0,False,1286.7000000476837,78.0,60.0,40.0,False,,216.25849863309764,[],"[768, 432]",ColorTask,-1.0,3.0,,,HRV,HRV_0029,2022-11-30 17:52:50
,wl-rdm,11,82394,0.0-6.3-0.3,0.0,11.0,,,,,,,[],,,,,,73.6,1.0,u,0.0,False,685.5999999046326,42.0,60.0,40.0,False,,221.46657026607093,[],"[768, 432]",ColorTask,-2.0,4.0,,,HRV,HRV_0029,2022-11-30 17:52:50
,wl-rdm,12,84960,0.0-6.4-0.4,0.0,12.0,,,,,,,[],,,,,,56.4,1.0,i,1.0,True,1185.7000000476837,72.0,60.0,40.0,False,,304.96102554235176,[],"[768, 432]",ColorTask,-1.0,5.0,,,HRV,HRV_0029,2022-11-30 17:52:50
,wl-rdm,13,87643,0.0-6.5-0.5,0.0,13.0,,,,,,,[],,,,,,50.0,1.0,u,0.0,False,1352.6000000238419,82.0,60.0,40.0,False,,261.28109515590324,[],"[768, 432]",ColorTask,-2.0,6.0,,,HRV,HRV_0029,2022-11-30 17:52:50
,wl-rdm,14,90510,0.0-6.6-0.6,0.0,14.0,,,,,,,[],,,,,,50.0,0.0,u,0.0,True,1507.8999999761581,91.0,60.0,40.0,False,,276.47070872954924,[],"[768, 432]",ColorTask,-1.0,7.0,,,HRV,HRV_0029,2022-11-30 17:52:50
,wl-rdm,15,93910,0.0-6.7-0.7,0.0,15.0,,,,,,,[],,,,,,87.9,0.0,i,1.0,False,2107.0,127.0,60.0,40.0,False,,219.7418453550741,[],"[768, 432]",ColorTask,-2.0,8.0,,,HRV,HRV_0029,2022-11-30 17:52:50
,wl-rdm,16,96926,0.0-6.8-0.8,0.0,16.0,,,,,,,[],,,,,,50.0,1.0,i,1.0,True,1730.8000000715256,104.0,60.0,40.0,False,,224.46623771526444,[],"[768, 432]",ColorTask,-1.0,9.0,,,HRV,HRV_0029,2022-11-30 17:52:50
,wl-rdm,17,99159,0.0-6.9-0.9,0.0,17.0,,,,,,,[],,,,,,62.5,1.0,i,1.0,True,873.7000000476837,53.0,60.0,40.0,False,,292.0687179811988,[],"[768, 432]",ColorTask,0.0,10.0,,,HRV,HRV_0029,2022-11-30 17:52:50
,wl-rdm,18,101875,0.0-6.10-0.10,0.0,18.0,,,,,,,[],,,,,,53.2,0.0,i,1.0,False,1290.1000000238419,78.0,60.0,40.0,False,,346.97164436754724,[],"[768, 432]",ColorTask,-1.0,11.0,,,HRV,HRV_0029,2022-11-30 17:52:50
,wl-rdm,19,104625,0.0-6.11-0.11,0.0,19.0,,,,,,,[],,,,,,62.5,0.0,i,1.0,False,1290.0,78.0,60.0,40.0,False,,369.85756322302694,[],"[768, 432]",ColorTask,-2.0,12.0,,,HRV,HRV_0029,2022-11-30 17:52:50
,wl-rdm,20,106841,0.0-6.12-0.12,0.0,20.0,,,,,,,[],,,,,,62.5,1.0,u,0.0,False,838.6000000238419,51.0,60.0,40.0,False,,290.36641645771874,[],"[768, 432]",ColorTask,-3.0,13.0,,,HRV,HRV_0029,2022-11-30 17:52:50
,wl-rdm,21,109375,0.0-6.13-0.13,0.0,21.0,,,,,,,[],,,,,,56.4,1.0,i,1.0,True,1187.4000000953674,72.0,60.0,40.0,False,,276.4272342334566,[],"[768, 432]",ColorTask,-2.0,14.0,,,HRV,HRV_0029,2022-11-30 17:52:50
,wl-rdm,22,112224,0.0-6.14-0.14,0.0,22.0,,,,,,,[],,,,,,62.5,1.0,i,1.0,True,1404.5999999046326,85.0,60.0,40.0,False,,355.99475848359896,[],"[768, 432]",ColorTask,-1.0,15.0,,,HRV,HRV_0029,2022-11-30 17:52:50
,wl-rdm,23,114274,0.0-6.15-0.15,0.0,23.0,,,,,,,[],,,,,,87.9,0.0,u,0.0,True,777.7000000476837,47.0,60.0,40.0,False,,200.29470272037457,[],"[768, 432]",ColorTask,0.0,16.0,,,HRV,HRV_0029,2022-11-30 17:52:50
,wl-rdm,24,116941,0.0-6.16-0.16,0.0,24.0,,,,,,,[],,,,,,53.2,1.0,i,1.0,True,1380.5,83.0,60.0,40.0,False,,200.44976694972632,[],"[768, 432]",ColorTask,1.0,17.0,,,HRV,HRV_0029,2022-11-30 17:52:50
,wl-rdm,25,119891,0.0-6.17-0.17,0.0,25.0,,,,,,,[],,,,,,56.4,0.0,i,1.0,False,1639.8999999761581,99.0,60.0,40.0,False,,226.10667263004294,[],"[768, 432]",ColorTask,0.0,18.0,,,HRV,HRV_0029,2022-11-30 17:52:50
,wl-rdm,26,122574,0.0-6.18-0.18,0.0,26.0,,,,,,,[],,,,,,73.6,1.0,u,0.0,False,1361.7999999523163,82.0,60.0,40.0,False,,261.4557025851495,[],"[768, 432]",ColorTask,-1.0,19.0,,,HRV,HRV_0029,2022-11-30 17:52:50
,wl-rdm,27,125390,0.0-6.19-0.19,0.0,27.0,,,,,,,[],,,,,,53.2,1.0,i,1.0,True,1345.8999999761581,81.0,60.0,40.0,False,,385.55041332042265,[],"[768, 432]",ColorTask,0.0,20.0,,,HRV,HRV_0029,2022-11-30 17:52:50
,wl-rdm,28,127940,0.0-6.20-0.20,0.0,28.0,,,,,,,[],,,,,,53.2,1.0,i,1.0,True,1193.1999999284744,72.0,60.0,40.0,False,,289.77558799758367,[],"[768, 432]",ColorTask,1.0,21.0,,,HRV,HRV_0029,2022-11-30 17:52:50
,wl-rdm,29,130323,0.0-6.21-0.21,0.0,29.0,,,,,,,[],,,,,,56.4,1.0,u,0.0,False,1064.8999999761581,64.0,60.0,40.0,False,,235.8623347668592,[],"[768, 432]",ColorTask,0.0,22.0,,,HRV,HRV_0029,2022-11-30 17:52:50
,wl-rdm,30,134040,0.0-6.22-0.22,0.0,30.0,,,,,,,[],,,,,,73.6,0.0,u,0.0,True,2418.0,146.0,60.0,40.0,False,,208.12325897091924,[],"[768, 432]",ColorTask,1.0,23.0,,,HRV,HRV_0029,2022-11-30 17:52:50
,wl-rdm,31,136256,0.0-6.23-0.23,0.0,31.0,,,,,,,[],,,,,,73.6,1.0,i,1.0,True,826.5,50.0,60.0,40.0,False,,322.31441537550364,[],"[768, 432]",ColorTask,2.0,24.0,,,HRV,HRV_0029,2022-11-30 17:52:50
,wl-rdm,32,138906,0.0-6.24-0.24,0.0,32.0,,,,,,,[],,,,,,50.0,1.0,u,0.0,False,1337.8999999761581,81.0,60.0,40.0,False,,232.01812198012135,[],"[768, 432]",ColorTask,1.0,25.0,,,HRV,HRV_0029,2022-11-30 17:52:50
,wl-rdm,33,140473,0.0-6.25-0.25,0.0,33.0,,,,,,,[],,,,,,56.4,1.0,u,0.0,False,163.89999997615814,10.0,60.0,40.0,False,,327.2717444726579,[],"[768, 432]",ColorTask,0.0,26.0,,,HRV,HRV_0029,2022-11-30 17:52:50
,wl-rdm,34,142622,0.0-6.26-0.26,0.0,34.0,,,,,,,[],,,,,,87.9,1.0,i,1.0,True,734.7999999523163,45.0,60.0,40.0,False,,328.1690771183384,[],"[768, 432]",ColorTask,1.0,27.0,,,HRV,HRV_0029,2022-11-30 17:52:50
,wl-rdm,35,145623,0.0-6.27-0.27,0.0,35.0,,,,,,,[],,,,,,73.6,0.0,u,0.0,True,1579.3000000715256,95.0,60.0,40.0,False,,360.4192049215108,[],"[768, 432]",ColorTask,2.0,28.0,,,HRV,HRV_0029,2022-11-30 17:52:50
,wl-rdm,36,148522,0.0-6.28-0.28,0.0,36.0,,,,,,,[],,,,,,50.0,1.0,i,1.0,True,1500.0,90.0,60.0,40.0,False,,328.21030755997185,[],"[768, 432]",ColorTask,3.0,29.0,,,HRV,HRV_0029,2022-11-30 17:52:50
,wl-rdm,37,151922,0.0-6.29-0.29,0.0,37.0,,,,,,,[],,,,,,73.6,0.0,u,0.0,True,2079.7999999523163,125.0,60.0,40.0,False,,262.6125487626642,[],"[768, 432]",ColorTask,4.0,30.0,,,HRV,HRV_0029,2022-11-30 17:52:50
,wl-rdm,38,154372,0.0-6.30-0.30,0.0,38.0,,,,,,,[],,,,,,87.9,0.0,u,0.0,True,1055.8999999761581,64.0,60.0,40.0,False,,304.86966030224823,[],"[768, 432]",ColorTask,5.0,31.0,,,HRV,HRV_0029,2022-11-30 17:52:50
,wl-rdm,39,156671,0.0-6.31-0.31,0.0,39.0,,,,,,,[],,,,,,53.2,0.0,i,1.0,False,947.6000000238419,57.0,60.0,40.0,False,,273.40197050612664,[],"[768, 432]",ColorTask,4.0,32.0,,,HRV,HRV_0029,2022-11-30 17:52:50
,wl-rdm,40,158805,0.0-6.32-0.32,0.0,40.0,,,,,,,[],,,,,,53.2,1.0,i,1.0,True,773.6000000238419,47.0,60.0,40.0,False,,270.90820525908316,[],"[768, 432]",ColorTask,5.0,33.0,,,HRV,HRV_0029,2022-11-30 17:52:50
,wl-rdm,41,160838,0.0-6.33-0.33,0.0,41.0,,,,,,,[],,,,,,62.5,1.0,i,1.0,True,730.1000000238419,44.0,60.0,40.0,False,,218.52908784545298,[],"[768, 432]",ColorTask,6.0,34.0,,,HRV,HRV_0029,2022-11-30 17:52:50
,wl-rdm,42,164704,0.0-6.34-0.34,0.0,42.0,,,,,,,[],,,,,,62.5,0.0,i,1.0,False,2561.8000000715256,154.0,60.0,40.0,False,,217.87069265426595,[],"[768, 432]",ColorTask,5.0,35.0,,,HRV,HRV_0029,2022-11-30 17:52:50
,wl-rdm,43,167088,0.0-6.35-0.35,0.0,43.0,,,,,,,[],,,,,,73.6,0.0,i,1.0,False,983.7999999523163,60.0,60.0,40.0,False,,330.48429041726536,[],"[768, 432]",ColorTask,4.0,36.0,,,HRV,HRV_0029,2022-11-30 17:52:50
,wl-rdm,44,169487,0.0-6.36-0.36,0.0,44.0,,,,,,,[],,,,,,73.6,1.0,i,1.0,True,1010.2000000476837,61.0,60.0,40.0,False,,323.53592288150446,[],"[768, 432]",ColorTask,5.0,37.0,,,HRV,HRV_0029,2022-11-30 17:52:50
,wl-rdm,45,172171,0.0-6.37-0.37,0.0,45.0,,,,,,,[],,,,,,53.2,0.0,u,0.0,True,1234.7000000476837,75.0,60.0,40.0,False,,367.7912811437322,[],"[768, 432]",ColorTask,6.0,38.0,,,HRV,HRV_0029,2022-11-30 17:52:50
,wl-rdm,46,174620,0.0-6.38-0.38,0.0,46.0,,,,,,,[],,,,,,53.2,0.0,i,1.0,False,1121.1999999284744,68.0,60.0,40.0,False,,261.8350753308785,[],"[768, 432]",ColorTask,5.0,39.0,,,HRV,HRV_0029,2022-11-30 17:52:50
,wl-rdm,47,176404,0.0-6.39-0.39,0.0,47.0,,,,,,,[],,,,,,73.6,1.0,i,1.0,True,322.10000002384186,20.0,60.0,40.0,False,,370.777015607617,[],"[768, 432]",ColorTask,6.0,40.0,,,HRV,HRV_0029,2022-11-30 17:52:50
,wl-rdm,48,177487,0.0-6.40-0.40,0.0,47.0,,,,,,,[],,,,,,62.5,0.0,i,,,291.10000002384186,0.0,60.0,40.0,True,too_early ,256.3394034545685,[],"[768, 432]",ColorTask,5.0,41.0,,,HRV,HRV_0029,2022-11-30 17:52:50
,wl-rdm,49,179804,0.0-6.41-0.41,0.0,48.0,,,,,,,[],,,,,,87.9,0.0,u,0.0,True,919.1000000238419,56.0,60.0,40.0,False,,305.97163835683807,[],"[768, 432]",ColorTask,6.0,42.0,,,HRV,HRV_0029,2022-11-30 17:52:50
,wl-rdm,50,181870,0.0-6.42-0.42,0.0,49.0,,,,,,,[],,,,,,50.0,1.0,i,1.0,True,741.6000000238419,45.0,60.0,40.0,False,,257.886899890712,[],"[768, 432]",ColorTask,7.0,43.0,,,HRV,HRV_0029,2022-11-30 17:52:50
,wl-rdm,51,183953,0.0-6.43-0.43,0.0,50.0,,,,,,,[],,,,,,50.0,0.0,i,1.0,False,789.0,48.0,60.0,40.0,False,,204.47670923464037,[],"[768, 432]",ColorTask,6.0,44.0,,,HRV,HRV_0029,2022-11-30 17:52:50
,wl-rdm,52,188353,0.0-6.44-0.44,0.0,50.0,,,,,,,[],,,,,,56.4,0.0,u,,,3467.7000000476837,179.0,60.0,40.0,True,RT_timeout ,297.7929497610749,[],"[768, 432]",ColorTask,5.0,45.0,,,HRV,HRV_0029,2022-11-30 17:52:50
,wl-rdm,53,190336,0.0-6.45-0.45,0.0,51.0,,,,,,,[],,,,,,56.4,0.0,u,0.0,True,684.3999999761581,42.0,60.0,40.0,False,,216.50350926584434,[],"[768, 432]",ColorTask,6.0,46.0,,,HRV,HRV_0029,2022-11-30 17:52:50
,wl-rdm,54,192536,0.0-6.46-0.46,0.0,52.0,,,,,,,[],,,,,,87.9,0.0,i,1.0,False,878.7999999523163,53.0,60.0,40.0,False,,243.61276525647634,[],"[768, 432]",ColorTask,5.0,47.0,,,HRV,HRV_0029,2022-11-30 17:52:50
,wl-rdm,55,194619,0.0-6.47-0.47,0.0,53.0,,,,,,,[],,,,,,50.0,0.0,i,1.0,False,785.2999999523163,48.0,60.0,40.0,False,,214.29458479613282,[],"[768, 432]",ColorTask,4.0,48.0,,,HRV,HRV_0029,2022-11-30 17:52:50
,wl-rdm,56,196586,0.0-6.48-0.48,0.0,54.0,,,,,,,[],,,,,,87.9,1.0,i,1.0,True,686.7000000476837,42.0,60.0,40.0,False,,200.73629533654656,[],"[768, 432]",ColorTask,5.0,49.0,,,HRV,HRV_0029,2022-11-30 17:52:50
,wl-rdm,57,198636,0.0-6.49-0.49,0.0,55.0,,,,,,,[],,,,,,62.5,0.0,i,1.0,False,631.6000000238419,38.0,60.0,40.0,False,,360.84411529630984,[],"[768, 432]",ColorTask,4.0,50.0,,,HRV,HRV_0029,2022-11-30 17:52:50
,wl-rdm,58,200452,0.0-6.50-0.50,0.0,56.0,,,,,,,[],,,,,,56.4,0.0,u,0.0,True,396.39999997615814,24.0,60.0,40.0,False,,344.9767372956786,[],"[768, 432]",ColorTask,5.0,51.0,,,HRV,HRV_0029,2022-11-30 17:52:50
,wl-rdm,59,202802,0.0-6.51-0.51,0.0,57.0,,,,,,,[],,,,,,50.0,0.0,i,1.0,False,995.7000000476837,60.0,60.0,40.0,False,,278.151558886834,[],"[768, 432]",ColorTask,4.0,52.0,,,HRV,HRV_0029,2022-11-30 17:52:50
,wl-rdm,60,205102,0.0-6.52-0.52,0.0,58.0,,,,,,,[],,,,,,53.2,1.0,u,0.0,False,834.5,51.0,60.0,40.0,False,,381.7379933471909,[],"[768, 432]",ColorTask,3.0,53.0,,,HRV,HRV_0029,2022-11-30 17:52:50
,wl-rdm,61,207018,0.0-6.53-0.53,0.0,59.0,,,,,,,[],,,,,,53.2,1.0,i,1.0,True,630.6999999284744,38.0,60.0,40.0,False,,212.54339576181684,[],"[768, 432]",ColorTask,4.0,54.0,,,HRV,HRV_0029,2022-11-30 17:52:50
,wl-rdm,62,208968,0.0-6.54-0.54,0.0,60.0,,,,,,,[],,,,,,50.0,0.0,i,1.0,False,655.3999999761581,40.0,60.0,40.0,False,,227.8859885911039,[],"[768, 432]",ColorTask,3.0,55.0,,,HRV,HRV_0029,2022-11-30 17:52:50
,wl-rdm,63,210918,0.0-6.55-0.55,0.0,61.0,,,,,,,[],,,,,,87.9,1.0,i,1.0,True,654.5,40.0,60.0,40.0,False,,230.26978678827,[],"[768, 432]",ColorTask,4.0,56.0,,,HRV,HRV_0029,2022-11-30 17:52:50
,wl-rdm,64,213585,0.0-6.56-0.56,0.0,62.0,,,,,,,[],,,,,,62.5,1.0,i,1.0,True,1256.1000000238419,76.0,60.0,40.0,False,,322.43270337273054,[],"[768, 432]",ColorTask,5.0,57.0,,,HRV,HRV_0029,2022-11-30 17:52:50
,wl-rdm,65,215702,0.0-6.57-0.57,0.0,63.0,,,,,,,[],,,,,,73.6,1.0,i,1.0,True,706.4999998807907,43.0,60.0,40.0,False,,320.68471638519236,[],"[768, 432]",ColorTask,6.0,58.0,,,HRV,HRV_0029,2022-11-30 17:52:50
,wl-rdm,66,217734,0.0-6.58-0.58,0.0,64.0,,,,,,,[],,,,,,87.9,1.0,i,1.0,True,634.5,39.0,60.0,40.0,False,,312.7592348597527,[],"[768, 432]",ColorTask,7.0,59.0,,,HRV,HRV_0029,2022-11-30 17:52:50
,wl-rdm,67,219718,0.0-6.59-0.59,0.0,65.0,,,,,,,[],,,,,,73.6,1.0,i,1.0,True,621.2000000476837,38.0,60.0,40.0,False,,286.977227173861,[],"[768, 432]",ColorTask,8.0,60.0,,,HRV,HRV_0029,2022-11-30 17:52:50
,wl-rdm,68,221951,0.0-6.60-0.60,0.0,66.0,,,,,,,[],,,,,,62.5,1.0,i,1.0,True,861.7999999523163,52.0,60.0,40.0,False,,294.97712731436604,[],"[768, 432]",ColorTask,9.0,61.0,,,HRV,HRV_0029,2022-11-30 17:52:50
,wl-rdm,69,223951,0.0-6.61-0.61,0.0,67.0,,,,,,,[],,,,,,56.4,0.0,i,1.0,False,715.1000000238419,43.0,60.0,40.0,False,,216.28774869870227,[],"[768, 432]",ColorTask,8.0,62.0,,,HRV,HRV_0029,2022-11-30 17:52:50
,wl-rdm,70,225718,0.0-6.62-0.62,0.0,68.0,,,,,,,[],,,,,,50.0,0.0,u,0.0,True,486.60000002384186,30.0,60.0,40.0,False,,216.386435630037,[],"[768, 432]",ColorTask,9.0,63.0,,,HRV,HRV_0029,2022-11-30 17:52:50
,wl-rdm,71,228034,0.0-6.63-0.63,0.0,69.0,,,,,,,[],,,,,,73.6,0.0,u,0.0,True,992.2000000476837,60.0,60.0,40.0,False,,252.7904409331473,[],"[768, 432]",ColorTask,10.0,64.0,,,HRV,HRV_0029,2022-11-30 17:52:50
,wl-rdm,72,230167,0.0-6.64-0.64,0.0,70.0,,,,,,,[],,,,,,73.6,0.0,u,0.0,True,675.5,41.0,60.0,40.0,False,,380.6704070415533,[],"[768, 432]",ColorTask,11.0,65.0,,,HRV,HRV_0029,2022-11-30 17:52:50
,wl-rdm,73,232450,0.0-6.65-0.65,0.0,71.0,,,,,,,[],,,,,,56.4,1.0,i,1.0,True,984.7000000476837,60.0,60.0,40.0,False,,213.1639202942864,[],"[768, 432]",ColorTask,12.0,66.0,,,HRV,HRV_0029,2022-11-30 17:52:50
,wl-rdm,74,234551,0.0-6.66-0.66,0.0,72.0,,,,,,,[],,,,,,62.5,1.0,i,1.0,True,795.7999999523163,48.0,60.0,40.0,False,,248.1832919100446,[],"[768, 432]",ColorTask,13.0,67.0,,,HRV,HRV_0029,2022-11-30 17:52:50
,wl-rdm,75,236867,0.0-6.67-0.67,0.0,73.0,,,,,,,[],,,,,,73.6,0.0,u,0.0,True,837.6999999284744,51.0,60.0,40.0,False,,388.2470930009647,[],"[768, 432]",ColorTask,14.0,68.0,,,HRV,HRV_0029,2022-11-30 17:52:50
,wl-rdm,76,239417,0.0-6.68-0.68,0.0,74.0,,,,,,,[],,,,,,50.0,1.0,i,1.0,True,1129.5,68.0,60.0,40.0,False,,361.8413145332378,[],"[768, 432]",ColorTask,15.0,69.0,,,HRV,HRV_0029,2022-11-30 17:52:50
,wl-rdm,77,241683,0.0-6.69-0.69,0.0,75.0,,,,,,,[],,,,,,73.6,1.0,u,0.0,False,956.5,58.0,60.0,40.0,False,,219.29037560375767,[],"[768, 432]",ColorTask,14.0,70.0,,,HRV,HRV_0029,2022-11-30 17:52:50
,wl-rdm,78,244400,0.0-6.70-0.70,0.0,76.0,,,,,,,[],,,,,,53.2,0.0,i,1.0,False,1422.9000000953674,86.0,60.0,40.0,False,,222.87501750870217,[],"[768, 432]",ColorTask,13.0,71.0,,,HRV,HRV_0029,2022-11-30 17:52:50
,wl-rdm,79,246333,0.0-6.71-0.71,0.0,77.0,,,,,,,[],,,,,,87.9,1.0,i,1.0,True,617.6999999284744,38.0,60.0,40.0,False,,244.06838998104013,[],"[768, 432]",ColorTask,14.0,72.0,,,HRV,HRV_0029,2022-11-30 17:52:50
,wl-rdm,80,248683,0.0-6.72-0.72,0.0,78.0,,,,,,,[],,,,,,56.4,0.0,i,1.0,False,1045.1000000238419,63.0,60.0,40.0,False,,231.04581104003802,[],"[768, 432]",ColorTask,13.0,73.0,,,HRV,HRV_0029,2022-11-30 17:52:50
,wl-rdm,81,250799,0.0-6.73-0.73,0.0,79.0,,,,,,,[],,,,,,56.4,0.0,u,0.0,True,802.8999999761581,49.0,60.0,40.0,False,,218.82468805012084,[],"[768, 432]",ColorTask,14.0,74.0,,,HRV,HRV_0029,2022-11-30 17:52:50
,wl-rdm,82,253099,0.0-6.74-0.74,0.0,80.0,,,,,,,[],,,,,,62.5,0.0,u,0.0,True,996.2000000476837,60.0,60.0,40.0,False,,222.15144967631872,[],"[768, 432]",ColorTask,15.0,75.0,,,HRV,HRV_0029,2022-11-30 17:52:50
,wl-rdm,83,255166,0.0-6.75-0.75,0.0,81.0,,,,,,,[],,,,,,62.5,0.0,u,0.0,True,760.2000000476837,46.0,60.0,40.0,False,,226.72993504774118,[],"[768, 432]",ColorTask,16.0,76.0,,,HRV,HRV_0029,2022-11-30 17:52:50
,wl-rdm,84,257132,0.0-6.76-0.76,0.0,82.0,,,,,,,[],,,,,,62.5,0.0,i,1.0,False,581.2999999523163,35.0,60.0,40.0,False,,306.75548897320175,[],"[768, 432]",ColorTask,15.0,77.0,,,HRV,HRV_0029,2022-11-30 17:52:50
,wl-rdm,85,259282,0.0-6.77-0.77,0.0,83.0,,,,,,,[],,,,,,50.0,0.0,i,1.0,False,827.0,50.0,60.0,40.0,False,,258.9648089849777,[],"[768, 432]",ColorTask,14.0,78.0,,,HRV,HRV_0029,2022-11-30 17:52:50
,wl-rdm,86,261449,0.0-6.78-0.78,0.0,84.0,,,,,,,[],,,,,,62.5,0.0,i,1.0,False,781.7000000476837,47.0,60.0,40.0,False,,324.96950429792844,[],"[768, 432]",ColorTask,13.0,79.0,,,HRV,HRV_0029,2022-11-30 17:52:50
,wl-rdm,87,263548,0.0-6.79-0.79,0.0,85.0,,,,,,,[],,,,,,87.9,0.0,u,0.0,True,638.799999833107,39.0,60.0,40.0,False,,394.39578718221395,[],"[768, 432]",ColorTask,14.0,80.0,,,HRV,HRV_0029,2022-11-30 17:52:50
,wl-rdm,88,266232,0.0-6.80-0.80,0.0,86.0,,,,,,,[],,,,,,56.4,1.0,i,1.0,True,1327.0,80.0,60.0,40.0,False,,294.9128987101924,[],"[768, 432]",ColorTask,15.0,81.0,,,HRV,HRV_0029,2022-11-30 17:52:50
,wl-rdm,89,268398,0.0-6.81-0.81,0.0,87.0,,,,,,,[],,,,,,87.9,0.0,u,0.0,True,793.5,48.0,60.0,40.0,False,,285.99703812332484,[],"[768, 432]",ColorTask,16.0,82.0,,,HRV,HRV_0029,2022-11-30 17:52:50
,wl-rdm,90,270465,0.0-6.82-0.82,0.0,88.0,,,,,,,[],,,,,,73.6,0.0,u,0.0,True,754.6000000238419,46.0,60.0,40.0,False,,244.11174777406262,[],"[768, 432]",ColorTask,17.0,83.0,,,HRV,HRV_0029,2022-11-30 17:52:50
,wl-rdm,91,272432,0.0-6.83-0.83,0.0,89.0,,,,,,,[],,,,,,53.2,1.0,u,0.0,False,677.3000000715256,41.0,60.0,40.0,False,,213.73262450476017,[],"[768, 432]",ColorTask,16.0,84.0,,,HRV,HRV_0029,2022-11-30 17:52:50
,wl-rdm,92,274565,0.0-6.84-0.84,0.0,90.0,,,,,,,[],,,,,,73.6,1.0,i,1.0,True,831.5,50.0,60.0,40.0,False,,233.81697017821693,[],"[768, 432]",ColorTask,17.0,85.0,,,HRV,HRV_0029,2022-11-30 17:52:50
,wl-rdm,93,276631,0.0-6.85-0.85,0.0,91.0,,,,,,,[],,,,,,87.9,1.0,i,1.0,True,777.7000000476837,47.0,60.0,40.0,False,,227.6470382232992,[],"[768, 432]",ColorTask,18.0,86.0,,,HRV,HRV_0029,2022-11-30 17:52:50
,wl-rdm,94,278681,0.0-6.86-0.86,0.0,92.0,,,,,,,[],,,,,,56.4,0.0,i,1.0,False,583.6000000238419,36.0,60.0,40.0,False,,372.83829638923766,[],"[768, 432]",ColorTask,17.0,87.0,,,HRV,HRV_0029,2022-11-30 17:52:50
,wl-rdm,95,280264,0.0-6.87-0.87,0.0,93.0,,,,,,,[],,,,,,50.0,1.0,u,0.0,False,146.60000002384186,9.0,60.0,40.0,False,,382.2021830310946,[],"[768, 432]",ColorTask,16.0,88.0,,,HRV,HRV_0029,2022-11-30 17:52:50
,wl-rdm,96,282631,0.0-6.88-0.88,0.0,94.0,,,,,,,[],,,,,,50.0,0.0,i,1.0,False,953.2999999523163,58.0,60.0,40.0,False,,337.7851442061452,[],"[768, 432]",ColorTask,15.0,89.0,,,HRV,HRV_0029,2022-11-30 17:52:50
,wl-rdm,97,283881,0.0-6.89-0.89,0.0,94.0,,,,,,,[],,,,,,87.9,1.0,i,,,730.1999999284744,0.0,60.0,40.0,True,too_early ,241.23895886357914,[],"[768, 432]",ColorTask,14.0,90.0,,,HRV,HRV_0029,2022-11-30 17:52:50
,wl-rdm,98,286064,0.0-6.90-0.90,0.0,95.0,,,,,,,[],,,,,,56.4,0.0,i,1.0,False,878.3000000715256,53.0,60.0,40.0,False,,223.92841565408818,[],"[768, 432]",ColorTask,13.0,91.0,,,HRV,HRV_0029,2022-11-30 17:52:50
,wl-rdm,99,288231,0.0-6.91-0.91,0.0,96.0,,,,,,,[],,,,,,50.0,1.0,i,1.0,True,898.5,54.0,60.0,40.0,False,,202.624818095931,[],"[768, 432]",ColorTask,14.0,92.0,,,HRV,HRV_0029,2022-11-30 17:52:50
,wl-rdm,100,290331,0.0-6.92-0.92,0.0,97.0,,,,,,,[],,,,,,87.9,0.0,i,1.0,False,793.1999999284744,48.0,60.0,40.0,False,,217.6562071767807,[],"[768, 432]",ColorTask,13.0,93.0,,,HRV,HRV_0029,2022-11-30 17:52:50
,wl-rdm,101,291814,0.0-6.93-0.93,0.0,97.0,,,,,,,[],,,,,,53.2,1.0,u,0.0,False,68.69999992847443,5.0,60.0,40.0,True,too_early ,335.86918464745565,[],"[768, 432]",ColorTask,12.0,94.0,,,HRV,HRV_0029,2022-11-30 17:52:50
,wl-rdm,102,293864,0.0-6.94-0.94,0.0,98.0,,,,,,,[],,,,,,62.5,1.0,i,1.0,True,664.2999999523163,40.0,60.0,40.0,False,,300.9815907148884,[],"[768, 432]",ColorTask,13.0,95.0,,,HRV,HRV_0029,2022-11-30 17:52:50
,wl-rdm,103,296180,0.0-6.95-0.95,0.0,99.0,,,,,,,[],,,,,,53.2,0.0,u,0.0,True,1017.6000000238419,62.0,60.0,40.0,False,,227.96066292264044,[],"[768, 432]",ColorTask,14.0,96.0,,,HRV,HRV_0029,2022-11-30 17:52:50
,wl-rdm,104,298263,0.0-6.96-0.96,0.0,100.0,,,,,,,[],,,,,,50.0,0.0,u,0.0,True,778.7000000476837,47.0,60.0,40.0,False,,249.68620947960747,[],"[768, 432]",ColorTask,15.0,97.0,,,HRV,HRV_0029,2022-11-30 17:52:50
,wl-rdm,105,300480,0.0-6.97-0.97,0.0,101.0,,,,,,,[],,,,,,56.4,1.0,i,1.0,True,734.8000000715256,45.0,60.0,40.0,False,,388.03811193953516,[],"[768, 432]",ColorTask,16.0,98.0,,,HRV,HRV_0029,2022-11-30 17:52:50
,wl-rdm,106,302613,0.0-6.98-0.98,0.0,102.0,,,,,,,[],,,,,,53.2,1.0,i,1.0,True,660.6000000238419,40.0,60.0,40.0,False,,384.31033250625114,[],"[768, 432]",ColorTask,17.0,99.0,,,HRV,HRV_0029,2022-11-30 17:52:50
,wl-rdm,107,304930,0.0-6.99-0.99,0.0,103.0,,,,,,,[],,,,,,87.9,1.0,i,1.0,True,834.8000000715256,51.0,60.0,40.0,False,,397.54089873965944,[],"[768, 432]",ColorTask,18.0,100.0,,,HRV,HRV_0029,2022-11-30 17:52:50
,wl-rdm,108,307130,0.0-6.100-0.100,0.0,104.0,,,,,,,[],,,,,,53.2,0.0,i,1.0,False,754.1999999284744,46.0,60.0,40.0,False,,357.6259480073137,[],"[768, 432]",ColorTask,17.0,101.0,,,HRV,HRV_0029,2022-11-30 17:52:50
,wl-rdm,109,309129,0.0-6.101-0.101,0.0,105.0,,,,,,,[],,,,,,53.2,0.0,u,0.0,True,559.0,34.0,60.0,40.0,False,,352.3706860769637,[],"[768, 432]",ColorTask,18.0,102.0,,,HRV,HRV_0029,2022-11-30 17:52:50
,wl-rdm,110,311062,0.0-6.102-0.102,0.0,106.0,,,,,,,[],,,,,,62.5,0.0,u,0.0,True,623.1000000238419,38.0,60.0,40.0,False,,228.32332471126938,[],"[768, 432]",ColorTask,19.0,103.0,,,HRV,HRV_0029,2022-11-30 17:52:50
,wl-rdm,111,312979,0.0-6.103-0.103,0.0,107.0,,,,,,,[],,,,,,87.9,1.0,i,1.0,True,621.1000000238419,38.0,60.0,40.0,False,,216.32776755559613,[],"[768, 432]",ColorTask,20.0,104.0,,,HRV,HRV_0029,2022-11-30 17:52:50
,wl-rdm,112,315096,0.0-6.104-0.104,0.0,108.0,,,,,,,[],,,,,,87.9,0.0,u,0.0,True,820.8000000715256,50.0,60.0,40.0,False,,200.87687371378988,[],"[768, 432]",ColorTask,21.0,105.0,,,HRV,HRV_0029,2022-11-30 17:52:50
,wl-rdm,113,317162,0.0-6.105-0.105,0.0,109.0,,,,,,,[],,,,,,56.4,1.0,i,1.0,True,702.7999999523163,43.0,60.0,40.0,False,,296.98665061718725,[],"[768, 432]",ColorTask,22.0,106.0,,,HRV,HRV_0029,2022-11-30 17:52:50
,wl-rdm,114,319145,0.0-6.106-0.106,0.0,110.0,,,,,,,[],,,,,,53.2,1.0,u,0.0,False,617.3999999761581,38.0,60.0,40.0,False,,275.74367930879373,[],"[768, 432]",ColorTask,21.0,107.0,,,HRV,HRV_0029,2022-11-30 17:52:50
,wl-rdm,115,321478,0.0-6.107-0.107,0.0,111.0,,,,,,,[],,,,,,53.2,0.0,i,1.0,False,995.2000000476837,60.0,60.0,40.0,False,,270.41623436719806,[],"[768, 432]",ColorTask,20.0,108.0,,,HRV,HRV_0029,2022-11-30 17:52:50
,wl-rdm,116,323695,0.0-6.108-0.108,0.0,112.0,,,,,,,[],,,,,,62.5,1.0,i,1.0,True,915.3999999761581,55.0,60.0,40.0,False,,236.03835119897292,[],"[768, 432]",ColorTask,21.0,109.0,,,HRV,HRV_0029,2022-11-30 17:52:50
,wl-rdm,117,326012,0.0-6.109-0.109,0.0,113.0,,,,,,,[],,,,,,87.9,1.0,i,1.0,True,836.6999999284744,51.0,60.0,40.0,False,,389.29226835108716,[],"[768, 432]",ColorTask,22.0,110.0,,,HRV,HRV_0029,2022-11-30 17:52:50
,wl-rdm,118,327845,0.0-6.110-0.110,0.0,114.0,,,,,,,[],,,,,,62.5,0.0,i,1.0,False,563.6000000238419,34.0,60.0,40.0,False,,208.96201176729141,[],"[768, 432]",ColorTask,21.0,111.0,,,HRV,HRV_0029,2022-11-30 17:52:50
,wl-rdm,119,329628,0.0-6.111-0.111,0.0,115.0,,,,,,,[],,,,,,73.6,0.0,u,0.0,True,484.10000002384186,30.0,60.0,40.0,False,,231.4323498480073,[],"[768, 432]",ColorTask,22.0,112.0,,,HRV,HRV_0029,2022-11-30 17:52:50
,wl-rdm,120,331778,0.0-6.112-0.112,0.0,116.0,,,,,,,[],,,,,,56.4,1.0,u,0.0,False,769.2999999523163,47.0,60.0,40.0,False,,292.7775814144623,[],"[768, 432]",ColorTask,21.0,113.0,,,HRV,HRV_0029,2022-11-30 17:52:50
,wl-html-keyboard-response,121,338945,0.0-7.0-0.0,1.0,117.0,,,,,,,,5533.300000071526,1.0,0,,,,,,,,,,,,,,,,,,,,,,HRV,HRV_0029,2022-11-30 17:52:50
,wl-rdm,122,340828,0.0-8.0-0.0,1.0,118.0,,,,,,,[],,,,,,62.5,0.0,i,1.0,False,527.6000000238419,32.0,60.0,40.0,False,,269.45761140263244,[],"[768, 432]",ColorTask,20.0,1.0,,,HRV,HRV_0029,2022-11-30 17:52:50
,wl-rdm,123,342845,0.0-8.1-0.1,1.0,119.0,,,,,,,[],,,,,,53.2,0.0,i,1.0,False,705.7999999523163,43.0,60.0,40.0,False,,221.91367562093268,[],"[768, 432]",ColorTask,19.0,2.0,,,HRV,HRV_0029,2022-11-30 17:52:50
,wl-rdm,124,344695,0.0-8.2-0.2,1.0,120.0,,,,,,,[],,,,,,73.6,0.0,u,0.0,True,506.5,31.0,60.0,40.0,False,,256.08607501398365,[],"[768, 432]",ColorTask,20.0,3.0,,,HRV,HRV_0029,2022-11-30 17:52:50
,wl-rdm,125,346744,0.0-8.3-0.3,1.0,121.0,,,,,,,[],,,,,,62.5,0.0,u,0.0,True,719.3999999761581,44.0,60.0,40.0,False,,248.9946631996621,[],"[768, 432]",ColorTask,21.0,4.0,,,HRV,HRV_0029,2022-11-30 17:52:50
,wl-rdm,126,348744,0.0-8.4-0.4,1.0,122.0,,,,,,,[],,,,,,87.9,1.0,i,1.0,True,607.9000000953674,37.0,60.0,40.0,False,,320.45703715892466,[],"[768, 432]",ColorTask,22.0,5.0,,,HRV,HRV_0029,2022-11-30 17:52:50
,wl-rdm,127,350794,0.0-8.5-0.5,1.0,123.0,,,,,,,[],,,,,,53.2,1.0,u,0.0,False,694.6999999284744,42.0,60.0,40.0,False,,298.96687148339174,[],"[768, 432]",ColorTask,21.0,6.0,,,HRV,HRV_0029,2022-11-30 17:52:50
,wl-rdm,128,352944,0.0-8.6-0.6,1.0,124.0,,,,,,,[],,,,,,56.4,0.0,i,1.0,False,736.1000000238419,45.0,60.0,40.0,False,,328.26594596132384,[],"[768, 432]",ColorTask,20.0,7.0,,,HRV,HRV_0029,2022-11-30 17:52:50
,wl-rdm,129,354894,0.0-8.7-0.7,1.0,125.0,,,,,,,[],,,,,,50.0,0.0,u,0.0,True,595.1000000238419,36.0,60.0,40.0,False,,284.0027133172889,[],"[768, 432]",ColorTask,21.0,8.0,,,HRV,HRV_0029,2022-11-30 17:52:50
,wl-rdm,130,356894,0.0-8.8-0.8,1.0,126.0,,,,,,,[],,,,,,53.2,0.0,u,0.0,True,614.6999999284744,37.0,60.0,40.0,False,,312.11071330623787,[],"[768, 432]",ColorTask,22.0,9.0,,,HRV,HRV_0029,2022-11-30 17:52:50
,wl-rdm,131,358844,0.0-8.9-0.9,1.0,127.0,,,,,,,[],,,,,,50.0,0.0,u,0.0,True,639.5,39.0,60.0,40.0,False,,228.25112459950688,[],"[768, 432]",ColorTask,23.0,10.0,,,HRV,HRV_0029,2022-11-30 17:52:50
,wl-rdm,132,360844,0.0-8.10-0.10,1.0,128.0,,,,,,,[],,,,,,53.2,0.0,u,0.0,True,669.5,41.0,60.0,40.0,False,,234.59976113391724,[],"[768, 432]",ColorTask,24.0,11.0,,,HRV,HRV_0029,2022-11-30 17:52:50
,wl-rdm,133,362777,0.0-8.11-0.11,1.0,129.0,,,,,,,[],,,,,,56.4,0.0,u,0.0,True,551.8999999761581,34.0,60.0,40.0,False,,294.31913167389695,[],"[768, 432]",ColorTask,25.0,12.0,,,HRV,HRV_0029,2022-11-30 17:52:50
,wl-rdm,134,364727,0.0-8.12-0.12,1.0,130.0,,,,,,,[],,,,,,62.5,1.0,u,0.0,False,677.1000000238419,41.0,60.0,40.0,False,,212.74355609949734,[],"[768, 432]",ColorTask,24.0,13.0,,,HRV,HRV_0029,2022-11-30 17:52:50
,wl-rdm,135,366710,0.0-8.13-0.13,1.0,131.0,,,,,,,[],,,,,,50.0,0.0,i,1.0,False,550.1000000238419,33.0,60.0,40.0,False,,361.7763974081414,[],"[768, 432]",ColorTask,23.0,14.0,,,HRV,HRV_0029,2022-11-30 17:52:50
,wl-rdm,136,368526,0.0-8.14-0.14,1.0,132.0,,,,,,,[],,,,,,53.2,1.0,i,1.0,True,414.1999999284744,25.0,60.0,40.0,False,,344.86721313665385,[],"[768, 432]",ColorTask,24.0,15.0,,,HRV,HRV_0029,2022-11-30 17:52:50
,wl-rdm,137,370826,0.0-8.15-0.15,1.0,133.0,,,,,,,[],,,,,,62.5,1.0,i,1.0,True,836.0,51.0,60.0,40.0,False,,372.7730779416271,[],"[768, 432]",ColorTask,25.0,16.0,,,HRV,HRV_0029,2022-11-30 17:52:50
,wl-rdm,138,373176,0.0-8.16-0.16,1.0,134.0,,,,,,,[],,,,,,87.9,1.0,u,0.0,False,948.7999999523163,57.0,60.0,40.0,False,,340.0554690355171,[],"[768, 432]",ColorTask,24.0,17.0,,,HRV,HRV_0029,2022-11-30 17:52:50
,wl-rdm,139,375510,0.0-8.17-0.17,1.0,135.0,,,,,,,[],,,,,,50.0,1.0,i,1.0,True,922.5,56.0,60.0,40.0,False,,329.78599518133746,[],"[768, 432]",ColorTask,25.0,18.0,,,HRV,HRV_0029,2022-11-30 17:52:50
,wl-rdm,140,377443,0.0-8.18-0.18,1.0,136.0,,,,,,,[],,,,,,62.5,1.0,i,1.0,True,469.0,29.0,60.0,40.0,False,,389.73155007090406,[],"[768, 432]",ColorTask,26.0,19.0,,,HRV,HRV_0029,2022-11-30 17:52:50
,wl-rdm,141,379593,0.0-8.19-0.19,1.0,137.0,,,,,,,[],,,,,,53.2,1.0,i,1.0,True,766.6999999284744,46.0,60.0,40.0,False,,321.8423836871541,[],"[768, 432]",ColorTask,27.0,20.0,,,HRV,HRV_0029,2022-11-30 17:52:50
,wl-rdm,142,381909,0.0-8.20-0.20,1.0,138.0,,,,,,,[],,,,,,53.2,0.0,u,0.0,True,897.8000000715256,54.0,60.0,40.0,False,,339.2200309003316,[],"[768, 432]",ColorTask,28.0,21.0,,,HRV,HRV_0029,2022-11-30 17:52:50
,wl-rdm,143,384142,0.0-8.21-0.21,1.0,139.0,,,,,,,[],,,,,,87.9,0.0,i,1.0,False,820.1000000238419,50.0,60.0,40.0,False,,346.987463643089,[],"[768, 432]",ColorTask,27.0,22.0,,,HRV,HRV_0029,2022-11-30 17:52:50
,wl-rdm,144,386343,0.0-8.22-0.22,1.0,140.0,,,,,,,[],,,,,,87.9,1.0,i,1.0,True,758.3999999761581,46.0,60.0,40.0,False,,364.03456691017686,[],"[768, 432]",ColorTask,28.0,23.0,,,HRV,HRV_0029,2022-11-30 17:52:50
,wl-rdm,145,388392,0.0-8.23-0.23,1.0,141.0,,,,,,,[],,,,,,50.0,1.0,i,1.0,True,639.7000000476837,39.0,60.0,40.0,False,,337.9241004665082,[],"[768, 432]",ColorTask,29.0,24.0,,,HRV,HRV_0029,2022-11-30 17:52:50
,wl-rdm,146,390609,0.0-8.24-0.24,1.0,142.0,,,,,,,[],,,,,,53.2,0.0,u,0.0,True,752.0999999046326,46.0,60.0,40.0,False,,395.51527263228047,[],"[768, 432]",ColorTask,30.0,25.0,,,HRV,HRV_0029,2022-11-30 17:52:50
,wl-rdm,147,392642,0.0-8.25-0.25,1.0,143.0,,,,,,,[],,,,,,62.5,0.0,u,0.0,True,582.6000000238419,35.0,60.0,40.0,False,,394.21264588244264,[],"[768, 432]",ColorTask,31.0,26.0,,,HRV,HRV_0029,2022-11-30 17:52:50
,wl-rdm,148,394891,0.0-8.26-0.26,1.0,144.0,,,,,,,[],,,,,,62.5,1.0,i,1.0,True,815.6000000238419,49.0,60.0,40.0,False,,377.9528225526494,[],"[768, 432]",ColorTask,32.0,27.0,,,HRV,HRV_0029,2022-11-30 17:52:50
,wl-rdm,149,396858,0.0-8.27-0.27,1.0,145.0,,,,,,,[],,,,,,62.5,1.0,i,1.0,True,643.5999999046326,39.0,60.0,40.0,False,,247.24733325984326,[],"[768, 432]",ColorTask,33.0,28.0,,,HRV,HRV_0029,2022-11-30 17:52:50
,wl-rdm,150,398858,0.0-8.28-0.28,1.0,146.0,,,,,,,[],,,,,,50.0,0.0,i,1.0,False,548.6999999284744,33.0,60.0,40.0,False,,381.35557691239967,[],"[768, 432]",ColorTask,32.0,29.0,,,HRV,HRV_0029,2022-11-30 17:52:50
,wl-rdm,151,400807,0.0-8.29-0.29,1.0,147.0,,,,,,,[],,,,,,73.6,0.0,u,0.0,True,511.2000000476837,31.0,60.0,40.0,False,,353.8959674103244,[],"[768, 432]",ColorTask,33.0,30.0,,,HRV,HRV_0029,2022-11-30 17:52:50
,wl-rdm,152,402541,0.0-8.30-0.30,1.0,148.0,,,,,,,[],,,,,,56.4,0.0,u,0.0,True,411.10000002384186,25.0,60.0,40.0,False,,257.82899293776006,[],"[768, 432]",ColorTask,34.0,31.0,,,HRV,HRV_0029,2022-11-30 17:52:50
,wl-rdm,153,404274,0.0-8.31-0.31,1.0,149.0,,,,,,,[],,,,,,53.2,0.0,u,0.0,True,380.60000002384186,23.0,60.0,40.0,False,,299.88453977305204,[],"[768, 432]",ColorTask,35.0,32.0,,,HRV,HRV_0029,2022-11-30 17:52:50
,wl-rdm,154,405991,0.0-8.32-0.32,1.0,150.0,,,,,,,[],,,,,,87.9,0.0,u,0.0,True,418.40000009536743,26.0,60.0,40.0,False,,222.81563664291068,[],"[768, 432]",ColorTask,36.0,33.0,,,HRV,HRV_0029,2022-11-30 17:52:50
,wl-rdm,155,407607,0.0-8.33-0.33,1.0,151.0,,,,,,,[],,,,,,87.9,0.0,u,0.0,True,327.0,20.0,60.0,40.0,False,,211.39928822692593,[],"[768, 432]",ColorTask,37.0,34.0,,,HRV,HRV_0029,2022-11-30 17:52:50
,wl-rdm,156,409291,0.0-8.34-0.34,1.0,152.0,,,,,,,[],,,,,,56.4,0.0,u,0.0,True,256.3000000715256,16.0,60.0,40.0,False,,336.2994758575564,[],"[768, 432]",ColorTask,38.0,35.0,,,HRV,HRV_0029,2022-11-30 17:52:50
,wl-rdm,157,410891,0.0-8.35-0.35,1.0,153.0,,,,,,,[],,,,,,50.0,1.0,u,0.0,False,297.89999997615814,18.0,60.0,40.0,False,,223.79225530926757,[],"[768, 432]",ColorTask,37.0,36.0,,,HRV,HRV_0029,2022-11-30 17:52:50
,wl-rdm,158,412541,0.0-8.36-0.36,1.0,154.0,,,,,,,[],,,,,,73.6,0.0,i,1.0,False,352.2000000476837,22.0,60.0,40.0,False,,205.87939174995427,[],"[768, 432]",ColorTask,36.0,37.0,,,HRV,HRV_0029,2022-11-30 17:52:50
,wl-rdm,159,414540,0.0-8.37-0.37,1.0,155.0,,,,,,,[],,,,,,56.4,1.0,i,1.0,True,732.1000000238419,44.0,60.0,40.0,False,,207.30561289897702,[],"[768, 432]",ColorTask,37.0,38.0,,,HRV,HRV_0029,2022-11-30 17:52:50
,wl-rdm,160,416207,0.0-8.38-0.38,1.0,156.0,,,,,,,[],,,,,,50.0,1.0,i,1.0,True,335.3000000715256,21.0,60.0,40.0,False,,257.8389673394051,[],"[768, 432]",ColorTask,38.0,39.0,,,HRV,HRV_0029,2022-11-30 17:52:50
,wl-rdm,161,417907,0.0-8.39-0.39,1.0,157.0,,,,,,,[],,,,,,73.6,1.0,i,1.0,True,304.0,19.0,60.0,40.0,False,,304.54209783707205,[],"[768, 432]",ColorTask,39.0,40.0,,,HRV,HRV_0029,2022-11-30 17:52:50
,wl-rdm,162,419473,0.0-8.40-0.40,1.0,158.0,,,,,,,[],,,,,,53.2,1.0,i,1.0,True,299.299999833107,18.0,60.0,40.0,False,,203.2641542060377,[],"[768, 432]",ColorTask,40.0,41.0,,,HRV,HRV_0029,2022-11-30 17:52:50
,wl-rdm,163,421073,0.0-8.41-0.41,1.0,159.0,,,,,,,[],,,,,,73.6,0.0,i,1.0,False,261.8000000715256,16.0,60.0,40.0,False,,258.45740964883305,[],"[768, 432]",ColorTask,39.0,42.0,,,HRV,HRV_0029,2022-11-30 17:52:50
,wl-rdm,164,422740,0.0-8.42-0.42,1.0,160.0,,,,,,,[],,,,,,53.2,0.0,u,0.0,True,252.79999995231628,16.0,60.0,40.0,False,,317.54266776433894,[],"[768, 432]",ColorTask,40.0,43.0,,,HRV,HRV_0029,2022-11-30 17:52:50
,wl-rdm,165,424323,0.0-8.43-0.43,1.0,161.0,,,,,,,[],,,,,,50.0,0.0,u,0.0,True,160.39999997615814,10.0,60.0,40.0,False,,338.1471326397625,[],"[768, 432]",ColorTask,41.0,44.0,,,HRV,HRV_0029,2022-11-30 17:52:50
,wl-rdm,166,425973,0.0-8.44-0.44,1.0,162.0,,,,,,,[],,,,,,53.2,0.0,u,0.0,True,293.0,18.0,60.0,40.0,False,,281.0041527273297,[],"[768, 432]",ColorTask,42.0,45.0,,,HRV,HRV_0029,2022-11-30 17:52:50
,wl-rdm,167,427756,0.0-8.45-0.45,1.0,163.0,,,,,,,[],,,,,,50.0,1.0,u,0.0,False,469.6999999284744,29.0,60.0,40.0,False,,219.0301204106242,[],"[768, 432]",ColorTask,41.0,46.0,,,HRV,HRV_0029,2022-11-30 17:52:50
,wl-rdm,168,429406,0.0-8.46-0.46,1.0,164.0,,,,,,,[],,,,,,73.6,1.0,i,1.0,True,314.89999997615814,19.0,60.0,40.0,False,,262.06475164476717,[],"[768, 432]",ColorTask,42.0,47.0,,,HRV,HRV_0029,2022-11-30 17:52:50
,wl-rdm,169,431023,0.0-8.47-0.47,1.0,165.0,,,,,,,[],,,,,,73.6,1.0,i,1.0,True,278.7000000476837,17.0,60.0,40.0,False,,259.6731383091576,[],"[768, 432]",ColorTask,43.0,48.0,,,HRV,HRV_0029,2022-11-30 17:52:50
,wl-rdm,170,432639,0.0-8.48-0.48,1.0,166.0,,,,,,,[],,,,,,62.5,0.0,i,1.0,False,190.20000004768372,12.0,60.0,40.0,False,,352.2898019429123,[],"[768, 432]",ColorTask,42.0,49.0,,,HRV,HRV_0029,2022-11-30 17:52:50
,wl-rdm,171,434255,0.0-8.49-0.49,1.0,167.0,,,,,,,[],,,,,,73.6,0.0,u,0.0,True,176.79999995231628,11.0,60.0,40.0,False,,378.14391295271935,[],"[768, 432]",ColorTask,43.0,50.0,,,HRV,HRV_0029,2022-11-30 17:52:50
,wl-rdm,172,435722,0.0-8.50-0.50,1.0,167.0,,,,,,,[],,,,,,50.0,0.0,u,0.0,True,75.39999997615814,5.0,60.0,40.0,True,too_early ,305.3711858096132,[],"[768, 432]",ColorTask,44.0,51.0,,,HRV,HRV_0029,2022-11-30 17:52:50
,wl-rdm,173,437706,0.0-8.51-0.51,1.0,168.0,,,,,,,[],,,,,,62.5,0.0,i,1.0,False,668.5,40.0,60.0,40.0,False,,245.8737548200271,[],"[768, 432]",ColorTask,43.0,52.0,,,HRV,HRV_0029,2022-11-30 17:52:50
,wl-rdm,174,439806,0.0-8.52-0.52,1.0,169.0,,,,,,,[],,,,,,53.2,1.0,u,0.0,False,806.8999999761581,49.0,60.0,40.0,False,,203.86006170265404,[],"[768, 432]",ColorTask,42.0,53.0,,,HRV,HRV_0029,2022-11-30 17:52:50
,wl-rdm,175,441705,0.0-8.53-0.53,1.0,170.0,,,,,,,[],,,,,,73.6,1.0,i,1.0,True,485.5,30.0,60.0,40.0,False,,348.7994173136086,[],"[768, 432]",ColorTask,43.0,54.0,,,HRV,HRV_0029,2022-11-30 17:52:50
,wl-rdm,176,443505,0.0-8.54-0.54,1.0,171.0,,,,,,,[],,,,,,62.5,0.0,i,1.0,False,488.6999999284744,30.0,60.0,40.0,False,,226.3615378352561,[],"[768, 432]",ColorTask,42.0,55.0,,,HRV,HRV_0029,2022-11-30 17:52:50
,wl-rdm,177,445855,0.0-8.55-0.55,1.0,172.0,,,,,,,[],,,,,,73.6,1.0,i,1.0,True,1051.5,64.0,60.0,40.0,False,,221.78371516885704,[],"[768, 432]",ColorTask,43.0,56.0,,,HRV,HRV_0029,2022-11-30 17:52:50
,wl-rdm,178,447755,0.0-8.56-0.56,1.0,173.0,,,,,,,[],,,,,,73.6,0.0,i,1.0,False,475.39999997615814,29.0,60.0,40.0,False,,336.0276243903895,[],"[768, 432]",ColorTask,42.0,57.0,,,HRV,HRV_0029,2022-11-30 17:52:50
,wl-rdm,179,449838,0.0-8.57-0.57,1.0,174.0,,,,,,,[],,,,,,62.5,0.0,u,0.0,True,701.7000000476837,43.0,60.0,40.0,False,,307.46714001520445,[],"[768, 432]",ColorTask,43.0,58.0,,,HRV,HRV_0029,2022-11-30 17:52:50
,wl-rdm,180,452121,0.0-8.58-0.58,1.0,175.0,,,,,,,[],,,,,,50.0,0.0,u,0.0,True,863.5,52.0,60.0,40.0,False,,349.1052437110908,[],"[768, 432]",ColorTask,44.0,59.0,,,HRV,HRV_0029,2022-11-30 17:52:50
,wl-rdm,181,454355,0.0-8.59-0.59,1.0,176.0,,,,,,,[],,,,,,73.6,1.0,i,1.0,True,842.8999998569489,51.0,60.0,40.0,False,,307.60509695473456,[],"[768, 432]",ColorTask,45.0,60.0,,,HRV,HRV_0029,2022-11-30 17:52:50
,wl-rdm,182,456054,0.0-8.60-0.60,1.0,177.0,,,,,,,[],,,,,,56.4,1.0,i,1.0,True,323.10000002384186,20.0,60.0,40.0,False,,290.9282667956354,[],"[768, 432]",ColorTask,46.0,61.0,,,HRV,HRV_0029,2022-11-30 17:52:50
,wl-rdm,183,457821,0.0-8.61-0.61,1.0,178.0,,,,,,,[],,,,,,73.6,0.0,i,1.0,False,385.10000002384186,24.0,60.0,40.0,False,,293.7149855304554,[],"[768, 432]",ColorTask,45.0,62.0,,,HRV,HRV_0029,2022-11-30 17:52:50
,wl-rdm,184,458971,0.0-8.62-0.62,1.0,178.0,,,,,,,[],,,,,,87.9,0.0,u,,,602.1000000238419,0.0,60.0,40.0,True,too_early ,220.68216515185708,[],"[768, 432]",ColorTask,44.0,63.0,,,HRV,HRV_0029,2022-11-30 17:52:50
,wl-rdm,185,460053,0.0-8.63-0.63,1.0,178.0,,,,,,,[],,,,,,56.4,0.0,u,,,494.0,0.0,60.0,40.0,True,too_early ,235.75558487321263,[],"[768, 432]",ColorTask,43.0,64.0,,,HRV,HRV_0029,2022-11-30 17:52:50
,wl-rdm,186,461954,0.0-8.64-0.64,1.0,179.0,,,,,,,[],,,,,,62.5,1.0,u,0.0,False,581.6000000238419,35.0,60.0,40.0,False,,263.87304186261764,[],"[768, 432]",ColorTask,42.0,65.0,,,HRV,HRV_0029,2022-11-30 17:52:50
,wl-rdm,187,463854,0.0-8.65-0.65,1.0,180.0,,,,,,,[],,,,,,73.6,0.0,i,1.0,False,568.1000000238419,35.0,60.0,40.0,False,,245.66557665071244,[],"[768, 432]",ColorTask,41.0,66.0,,,HRV,HRV_0029,2022-11-30 17:52:50
,wl-rdm,188,466053,0.0-8.66-0.66,1.0,181.0,,,,,,,[],,,,,,53.2,1.0,i,1.0,True,769.0,47.0,60.0,40.0,False,,344.5217613207534,[],"[768, 432]",ColorTask,42.0,67.0,,,HRV,HRV_0029,2022-11-30 17:52:50
,wl-rdm,189,467986,0.0-8.67-0.67,1.0,182.0,,,,,,,[],,,,,,62.5,1.0,i,1.0,True,646.1000000238419,39.0,60.0,40.0,False,,223.89606704992434,[],"[768, 432]",ColorTask,43.0,68.0,,,HRV,HRV_0029,2022-11-30 17:52:50
,wl-rdm,190,469670,0.0-8.68-0.68,1.0,183.0,,,,,,,[],,,,,,56.4,1.0,i,1.0,True,309.60000002384186,19.0,60.0,40.0,False,,296.2299420973639,[],"[768, 432]",ColorTask,44.0,69.0,,,HRV,HRV_0029,2022-11-30 17:52:50
,wl-rdm,191,471370,0.0-8.69-0.69,1.0,184.0,,,,,,,[],,,,,,87.9,0.0,i,1.0,False,432.2999999523163,26.0,60.0,40.0,False,,210.74520240230004,[],"[768, 432]",ColorTask,43.0,70.0,,,HRV,HRV_0029,2022-11-30 17:52:50
,wl-rdm,192,472953,0.0-8.70-0.70,1.0,185.0,,,,,,,[],,,,,,56.4,1.0,u,0.0,False,294.6999999284744,18.0,60.0,40.0,False,,223.7022230331285,[],"[768, 432]",ColorTask,42.0,71.0,,,HRV,HRV_0029,2022-11-30 17:52:50
,wl-rdm,193,474703,0.0-8.71-0.71,1.0,186.0,,,,,,,[],,,,,,87.9,1.0,u,0.0,False,304.2999999523163,19.0,60.0,40.0,False,,381.79287206769663,[],"[768, 432]",ColorTask,41.0,72.0,,,HRV,HRV_0029,2022-11-30 17:52:50
,wl-rdm,194,476403,0.0-8.72-0.72,1.0,187.0,,,,,,,[],,,,,,62.5,0.0,u,0.0,True,316.40000009536743,19.0,60.0,40.0,False,,323.4163985558332,[],"[768, 432]",ColorTask,42.0,73.0,,,HRV,HRV_0029,2022-11-30 17:52:50
,wl-rdm,195,478336,0.0-8.73-0.73,1.0,188.0,,,,,,,[],,,,,,87.9,1.0,i,1.0,True,527.9000000953674,33.0,60.0,40.0,False,,304.5225397441012,[],"[768, 432]",ColorTask,43.0,74.0,,,HRV,HRV_0029,2022-11-30 17:52:50
,wl-rdm,196,480252,0.0-8.74-0.74,1.0,189.0,,,,,,,[],,,,,,56.4,0.0,i,1.0,False,539.3999999761581,33.0,60.0,40.0,False,,297.13617370223517,[],"[768, 432]",ColorTask,42.0,75.0,,,HRV,HRV_0029,2022-11-30 17:52:50
,wl-rdm,197,481935,0.0-8.75-0.75,1.0,190.0,,,,,,,[],,,,,,87.9,0.0,i,1.0,False,412.8000000715256,25.0,60.0,40.0,False,,203.62762821994272,[],"[768, 432]",ColorTask,41.0,76.0,,,HRV,HRV_0029,2022-11-30 17:52:50
,wl-rdm,198,483552,0.0-8.76-0.76,1.0,191.0,,,,,,,[],,,,,,73.6,1.0,u,0.0,False,340.89999997615814,21.0,60.0,40.0,False,,210.99547523921336,[],"[768, 432]",ColorTask,40.0,77.0,,,HRV,HRV_0029,2022-11-30 17:52:50
,wl-rdm,199,485186,0.0-8.77-0.77,1.0,192.0,,,,,,,[],,,,,,56.4,1.0,u,0.0,False,281.39999997615814,17.0,60.0,40.0,False,,294.5758046001624,[],"[768, 432]",ColorTask,39.0,78.0,,,HRV,HRV_0029,2022-11-30 17:52:50
,wl-rdm,200,487069,0.0-8.78-0.78,1.0,193.0,,,,,,,[],,,,,,56.4,1.0,i,1.0,True,422.8000000715256,26.0,60.0,40.0,False,,368.86434940806373,[],"[768, 432]",ColorTask,40.0,79.0,,,HRV,HRV_0029,2022-11-30 17:52:50
,wl-rdm,201,488802,0.0-8.79-0.79,1.0,194.0,,,,,,,[],,,,,,53.2,1.0,i,1.0,True,358.0,22.0,60.0,40.0,False,,296.0127410152957,[],"[768, 432]",ColorTask,41.0,80.0,,,HRV,HRV_0029,2022-11-30 17:52:50
,wl-rdm,202,490652,0.0-8.80-0.80,1.0,195.0,,,,,,,[],,,,,,87.9,1.0,i,1.0,True,531.6000000238419,32.0,60.0,40.0,False,,236.56135819321125,[],"[768, 432]",ColorTask,42.0,81.0,,,HRV,HRV_0029,2022-11-30 17:52:50
,wl-rdm,203,492385,0.0-8.81-0.81,1.0,196.0,,,,,,,[],,,,,,73.6,1.0,i,1.0,True,404.59999990463257,25.0,60.0,40.0,False,,255.37988249642086,[],"[768, 432]",ColorTask,43.0,82.0,,,HRV,HRV_0029,2022-11-30 17:52:50
,wl-rdm,204,494285,0.0-8.82-0.82,1.0,197.0,,,,,,,[],,,,,,53.2,1.0,i,1.0,True,595.0,36.0,60.0,40.0,False,,217.7121409414885,[],"[768, 432]",ColorTask,44.0,83.0,,,HRV,HRV_0029,2022-11-30 17:52:50
,wl-rdm,205,495919,0.0-8.83-0.83,1.0,198.0,,,,,,,[],,,,,,87.9,1.0,i,1.0,True,281.2999999523163,17.0,60.0,40.0,False,,270.7825443381821,[],"[768, 432]",ColorTask,45.0,84.0,,,HRV,HRV_0029,2022-11-30 17:52:50
,wl-rdm,206,497268,0.0-8.84-0.84,1.0,198.0,,,,,,,[],,,,,,50.0,1.0,u,0.0,False,42.200000047683716,3.0,60.0,40.0,True,too_early ,229.6294618304024,[],"[768, 432]",ColorTask,44.0,85.0,,,HRV,HRV_0029,2022-11-30 17:52:50
,wl-rdm,207,498652,0.0-8.85-0.85,1.0,198.0,,,,,,,[],,,,,,56.4,0.0,i,,,838.7999999523163,0.0,60.0,40.0,True,too_early ,365.6627241273943,[],"[768, 432]",ColorTask,43.0,86.0,,,HRV,HRV_0029,2022-11-30 17:52:50
,wl-rdm,208,500501,0.0-8.86-0.86,1.0,199.0,,,,,,,[],,,,,,50.0,1.0,i,1.0,True,447.0,27.0,60.0,40.0,False,,331.70058544802873,[],"[768, 432]",ColorTask,44.0,87.0,,,HRV,HRV_0029,2022-11-30 17:52:50
,wl-rdm,209,502368,0.0-8.87-0.87,1.0,200.0,,,,,,,[],,,,,,87.9,1.0,i,1.0,True,582.1000000238419,35.0,60.0,40.0,False,,227.98183593005712,[],"[768, 432]",ColorTask,45.0,88.0,,,HRV,HRV_0029,2022-11-30 17:52:50
,wl-rdm,210,504217,0.0-8.88-0.88,1.0,201.0,,,,,,,[],,,,,,56.4,1.0,i,1.0,True,386.1999999284744,24.0,60.0,40.0,False,,379.5746266935731,[],"[768, 432]",ColorTask,46.0,89.0,,,HRV,HRV_0029,2022-11-30 17:52:50
,wl-rdm,211,506101,0.0-8.89-0.89,1.0,202.0,,,,,,,[],,,,,,87.9,0.0,i,1.0,False,565.4000000953674,34.0,60.0,40.0,False,,237.9918994002208,[],"[768, 432]",ColorTask,45.0,90.0,,,HRV,HRV_0029,2022-11-30 17:52:50
,wl-rdm,212,507784,0.0-8.90-0.90,1.0,203.0,,,,,,,[],,,,,,53.2,1.0,u,0.0,False,294.10000002384186,18.0,60.0,40.0,False,,332.81630962109705,[],"[768, 432]",ColorTask,44.0,91.0,,,HRV,HRV_0029,2022-11-30 17:52:50
,wl-rdm,213,509668,0.0-8.91-0.91,1.0,204.0,,,,,,,[],,,,,,62.5,1.0,u,0.0,False,558.7000000476837,34.0,60.0,40.0,False,,265.53637199323714,[],"[768, 432]",ColorTask,43.0,92.0,,,HRV,HRV_0029,2022-11-30 17:52:50
,wl-rdm,214,511284,0.0-8.92-0.92,1.0,205.0,,,,,,,[],,,,,,56.4,1.0,i,1.0,True,302.5,19.0,60.0,40.0,False,,240.01747548431652,[],"[768, 432]",ColorTask,44.0,93.0,,,HRV,HRV_0029,2022-11-30 17:52:50
,wl-rdm,215,512967,0.0-8.93-0.93,1.0,206.0,,,,,,,[],,,,,,87.9,0.0,i,1.0,False,404.89999997615814,25.0,60.0,40.0,False,,204.4092338816801,[],"[768, 432]",ColorTask,43.0,94.0,,,HRV,HRV_0029,2022-11-30 17:52:50
,wl-rdm,216,514851,0.0-8.94-0.94,1.0,207.0,,,,,,,[],,,,,,50.0,0.0,u,0.0,True,569.8000000715256,35.0,60.0,40.0,False,,229.73899535314794,[],"[768, 432]",ColorTask,44.0,95.0,,,HRV,HRV_0029,2022-11-30 17:52:50
,wl-rdm,217,516950,0.0-8.95-0.95,1.0,208.0,,,,,,,[],,,,,,62.5,1.0,i,1.0,True,811.3000000715256,49.0,60.0,40.0,False,,226.61356870754852,[],"[768, 432]",ColorTask,45.0,96.0,,,HRV,HRV_0029,2022-11-30 17:52:50
,wl-rdm,218,518117,0.0-8.96-0.96,1.0,208.0,,,,,,,[],,,,,,50.0,0.0,u,,,623.7999999523163,0.0,60.0,40.0,True,too_early ,287.29466920808636,[],"[768, 432]",ColorTask,44.0,97.0,,,HRV,HRV_0029,2022-11-30 17:52:50
,wl-rdm,219,519467,0.0-8.97-0.97,1.0,208.0,,,,,,,[],,,,,,56.4,0.0,i,,,826.0,0.0,60.0,40.0,True,too_early ,341.57959278888364,[],"[768, 432]",ColorTask,43.0,98.0,,,HRV,HRV_0029,2022-11-30 17:52:50
,wl-rdm,220,522483,0.0-8.98-0.98,1.0,209.0,,,,,,,[],,,,,,56.4,1.0,i,1.0,True,1535.6999999284744,93.0,60.0,40.0,False,,396.2613591613309,[],"[768, 432]",ColorTask,44.0,99.0,,,HRV,HRV_0029,2022-11-30 17:52:50
,wl-rdm,221,525533,0.0-8.99-0.99,1.0,210.0,,,,,,,[],,,,,,56.4,0.0,u,0.0,True,1682.2999999523163,101.0,60.0,40.0,False,,310.9615341022894,[],"[768, 432]",ColorTask,45.0,100.0,,,HRV,HRV_0029,2022-11-30 17:52:50
,wl-rdm,222,527783,0.0-8.100-0.100,1.0,211.0,,,,,,,[],,,,,,50.0,1.0,u,0.0,False,950.0,57.0,60.0,40.0,False,,220.84497168926887,[],"[768, 432]",ColorTask,44.0,101.0,,,HRV,HRV_0029,2022-11-30 17:52:50
,wl-rdm,223,529733,0.0-8.101-0.101,1.0,212.0,,,,,,,[],,,,,,62.5,0.0,i,1.0,False,637.2999999523163,39.0,60.0,40.0,False,,247.7005697781001,[],"[768, 432]",ColorTask,43.0,102.0,,,HRV,HRV_0029,2022-11-30 17:52:50
,wl-rdm,224,531533,0.0-8.102-0.102,1.0,213.0,,,,,,,[],,,,,,53.2,0.0,i,1.0,False,402.39999997615814,25.0,60.0,40.0,False,,300.40119466805623,[],"[768, 432]",ColorTask,42.0,103.0,,,HRV,HRV_0029,2022-11-30 17:52:50
,wl-rdm,225,533766,0.0-8.103-0.103,1.0,214.0,,,,,,,[],,,,,,50.0,0.0,i,1.0,False,922.5,56.0,60.0,40.0,False,,225.89416196089934,[],"[768, 432]",ColorTask,41.0,104.0,,,HRV,HRV_0029,2022-11-30 17:52:50
,wl-rdm,226,536249,0.0-8.104-0.104,1.0,215.0,,,,,,,[],,,,,,50.0,1.0,i,1.0,True,1115.6999999284744,67.0,60.0,40.0,False,,311.69918363682586,[],"[768, 432]",ColorTask,42.0,105.0,,,HRV,HRV_0029,2022-11-30 17:52:50
,wl-rdm,227,538266,0.0-8.105-0.105,1.0,216.0,,,,,,,[],,,,,,87.9,0.0,i,1.0,False,654.3000000715256,40.0,60.0,40.0,False,,276.5861449265121,[],"[768, 432]",ColorTask,41.0,106.0,,,HRV,HRV_0029,2022-11-30 17:52:50
,wl-rdm,228,540032,0.0-8.106-0.106,1.0,217.0,,,,,,,[],,,,,,50.0,1.0,i,1.0,True,344.09999990463257,21.0,60.0,40.0,False,,361.79686299523223,[],"[768, 432]",ColorTask,42.0,107.0,,,HRV,HRV_0029,2022-11-30 17:52:50
,wl-rdm,229,541732,0.0-8.107-0.107,1.0,218.0,,,,,,,[],,,,,,73.6,1.0,i,1.0,True,359.3000000715256,22.0,60.0,40.0,False,,279.9238027498742,[],"[768, 432]",ColorTask,43.0,108.0,,,HRV,HRV_0029,2022-11-30 17:52:50
,wl-rdm,230,543582,0.0-8.108-0.108,1.0,219.0,,,,,,,[],,,,,,73.6,0.0,i,1.0,False,565.5,34.0,60.0,40.0,False,,203.7069341715497,[],"[768, 432]",ColorTask,42.0,109.0,,,HRV,HRV_0029,2022-11-30 17:52:50
,wl-rdm,231,545266,0.0-8.109-0.109,1.0,220.0,,,,,,,[],,,,,,56.4,0.0,u,0.0,True,405.40000009536743,25.0,60.0,40.0,False,,214.0568405123999,[],"[768, 432]",ColorTask,43.0,110.0,,,HRV,HRV_0029,2022-11-30 17:52:50
,wl-rdm,232,546999,0.0-8.110-0.110,1.0,221.0,,,,,,,[],,,,,,56.4,0.0,u,0.0,True,432.0,26.0,60.0,40.0,False,,228.17050949168376,[],"[768, 432]",ColorTask,44.0,111.0,,,HRV,HRV_0029,2022-11-30 17:52:50
,wl-rdm,233,549032,0.0-8.111-0.111,1.0,222.0,,,,,,,[],,,,,,50.0,0.0,u,0.0,True,713.5,43.0,60.0,40.0,False,,239.39279627391156,[],"[768, 432]",ColorTask,45.0,112.0,,,HRV,HRV_0029,2022-11-30 17:52:50
,wl-rdm,234,550982,0.0-8.112-0.112,1.0,223.0,,,,,,,[],,,,,,87.9,0.0,i,1.0,False,635.1000000238419,39.0,60.0,40.0,False,,238.17278049244143,[],"[768, 432]",ColorTask,44.0,113.0,,,HRV,HRV_0029,2022-11-30 17:52:50
,wl-rdm,235,552882,0.0-8.113-0.113,1.0,224.0,,,,,,,[],,,,,,56.4,0.0,i,1.0,False,582.6999999284744,35.0,60.0,40.0,False,,250.76778968665204,[],"[768, 432]",ColorTask,43.0,114.0,,,HRV,HRV_0029,2022-11-30 17:52:50
,wl-rdm,236,554782,0.0-8.114-0.114,1.0,225.0,,,,,,,[],,,,,,87.9,1.0,i,1.0,True,604.0,37.0,60.0,40.0,False,,208.32658429387303,[],"[768, 432]",ColorTask,44.0,115.0,,,HRV,HRV_0029,2022-11-30 17:52:50
,wl-html-button-response,237,557069,0.0-9.0-0.0,,,,,,,,,,2285.100000023842,,0,,,,,,,,,,,,,,,,,,,,<h3>End of this session. Thank you!</h3><br>,['Close window'],HRV,HRV_0029,2022-11-30 17:52:50
