trialN,stimuli,trialStartTime,trialStartTime_UNIX,stimulus1,stimulus2,stimulus1Bid,stimulus2Bid,delta,selected,rt,rt_UNIX,rt_perfnow,receivedResponse,rsp,trialEndTime,trialDuration,trialEndTime_UNIX,trialDuration_UNIX,exp,subjectId,date
0,"[{'imgObject': {}, 'id': 'eggsalad', 'src': '/static/foodstim60/eggsalad.jpg', 'key': 'u', 'origWidth': 410, 'origHeight': 409, 'width': 410, 'height': 409, 'widthPercent': 0.45, 'rescaleHeight': False, 'trialN': 0, 'loaded': True, 'loadedTime': 1810.2999999970198, 'positionName': 'LEFT', 'positionCoords': [511.6, 335.5], 'bid': 6.63}, {'imgObject': {}, 'id': 'yogurt no spoon', 'src': '/static/foodstim60/yogurt no spoon.jpg', 'key': 'i', 'origWidth': 411, 'origHeight': 410, 'width': 411, 'height': 410, 'widthPercent': 0.45, 'rescaleHeight': False, 'trialN': 0, 'loaded': True, 'loadedTime': 1877.7999999970198, 'positionName': 'RIGHT', 'positionCoords': [998.4, 335], 'bid': 9.81}]",2312.0,1669847384046,eggsalad,yogurt no spoon,6.63,9.81,3.1800000000000006,yogurt no spoon,1258.7999999970198,1259,1259.0,True,i,4081.6999999955297,1769.6999999955297,1669847385815,1769,HRV,HRV_0316,2022-11-30 22:35:22
1,"[{'imgObject': {}, 'id': 'bagel plain', 'src': '/static/foodstim60/bagel plain.jpg', 'key': 'u', 'origWidth': 410, 'origHeight': 410, 'width': 410, 'height': 410, 'widthPercent': 0.45, 'rescaleHeight': False, 'trialN': 1, 'loaded': True, 'loadedTime': 1897.8999999985099, 'positionName': 'LEFT', 'positionCoords': [511.6, 335], 'bid': 6.5}, {'imgObject': {}, 'id': 'Grapes', 'src': '/static/foodstim60/Grapes.jpg', 'key': 'i', 'origWidth': 411, 'origHeight': 411, 'width': 411, 'height': 411, 'widthPercent': 0.45, 'rescaleHeight': False, 'trialN': 1, 'loaded': True, 'loadedTime': 1930.3999999985099, 'positionName': 'RIGHT', 'positionCoords': [998.4, 334.5], 'bid': 7.87}]",4081.7999999970198,1669847385816,bagel plain,Grapes,6.5,7.87,1.37,Grapes,983.3999999985099,983,983.7000000029802,True,i,5576.5999999940395,1494.7999999970198,1669847387310,1494,HRV,HRV_0316,2022-11-30 22:35:22
2,"[{'imgObject': {}, 'id': 'orange slices', 'src': '/static/foodstim60/orange slices.jpg', 'key': 'u', 'origWidth': 409, 'origHeight': 410, 'width': 409, 'height': 410, 'widthPercent': 0.45, 'rescaleHeight': False, 'trialN': 2, 'loaded': True, 'loadedTime': 1942.5999999940395, 'positionName': 'LEFT', 'positionCoords': [512.6, 335], 'bid': 6.28}, {'imgObject': {}, 'id': 'burger', 'src': '/static/foodstim60/burger.jpg', 'key': 'i', 'origWidth': 409, 'origHeight': 409, 'width': 409, 'height': 409, 'widthPercent': 0.45, 'rescaleHeight': False, 'trialN': 2, 'loaded': True, 'loadedTime': 1946.5, 'positionName': 'RIGHT', 'positionCoords': [998.4, 335.5], 'bid': 7.26}]",5576.79999999702,1669847387311,orange slices,burger,6.28,7.26,0.9799999999999995,burger,929.5,929,929.7000000029802,True,i,7023.0999999940395,1446.2999999970198,1669847388757,1446,HRV,HRV_0316,2022-11-30 22:35:22
3,"[{'imgObject': {}, 'id': 'salad w chicken', 'src': '/static/foodstim60/salad w chicken.jpg', 'key': 'u', 'origWidth': 411, 'origHeight': 411, 'width': 411, 'height': 411, 'widthPercent': 0.45, 'rescaleHeight': False, 'trialN': 3, 'loaded': True, 'loadedTime': 1957.0999999940395, 'positionName': 'LEFT', 'positionCoords': [510.6, 334.5], 'bid': 9.46}, {'imgObject': {}, 'id': 'luckycharms', 'src': '/static/foodstim60/luckycharms.jpg', 'key': 'i', 'origWidth': 410, 'origHeight': 409, 'width': 410, 'height': 409, 'widthPercent': 0.45, 'rescaleHeight': False, 'trialN': 3, 'loaded': True, 'loadedTime': 1959.5, 'positionName': 'RIGHT', 'positionCoords': [998.4, 335.5], 'bid': 9.61}]",7023.29999999702,1669847388757,salad w chicken,luckycharms,9.46,9.61,0.14999999999999858,salad w chicken,1263.2000000029802,1264,1263.3999999985099,True,u,8799.79999999702,1776.5,1669847390534,1777,HRV,HRV_0316,2022-11-30 22:35:22
4,"[{'imgObject': {}, 'id': 'mac & cheese', 'src': '/static/foodstim60/mac & cheese.jpg', 'key': 'u', 'origWidth': 410, 'origHeight': 410, 'width': 410, 'height': 410, 'widthPercent': 0.45, 'rescaleHeight': False, 'trialN': 4, 'loaded': True, 'loadedTime': 1968.0999999940395, 'positionName': 'LEFT', 'positionCoords': [511.6, 335], 'bid': 9.78}, {'imgObject': {}, 'id': 'bagel plain', 'src': '/static/foodstim60/bagel plain.jpg', 'key': 'i', 'origWidth': 410, 'origHeight': 410, 'width': 410, 'height': 410, 'widthPercent': 0.45, 'rescaleHeight': False, 'trialN': 4, 'loaded': True, 'loadedTime': 1888.1999999955297, 'positionName': 'RIGHT', 'positionCoords': [998.4, 335], 'bid': 6.5}]",8799.89999999851,1669847390534,mac & cheese,bagel plain,9.78,6.5,-3.2799999999999994,mac & cheese,1008.5,1008,1008.6999999955297,True,u,10312.89999999851,1513.0,1669847392047,1513,HRV,HRV_0316,2022-11-30 22:35:22
5,"[{'imgObject': {}, 'id': 'rigatoni', 'src': '/static/foodstim60/rigatoni.jpg', 'key': 'u', 'origWidth': 411, 'origHeight': 411, 'width': 411, 'height': 411, 'widthPercent': 0.45, 'rescaleHeight': False, 'trialN': 5, 'loaded': True, 'loadedTime': 1968.1999999955297, 'positionName': 'LEFT', 'positionCoords': [510.6, 334.5], 'bid': 2.56}, {'imgObject': {}, 'id': 'shreddedwheatwithmilk', 'src': '/static/foodstim60/shreddedwheatwithmilk.jpg', 'key': 'i', 'origWidth': 410, 'origHeight': 410, 'width': 410, 'height': 410, 'widthPercent': 0.45, 'rescaleHeight': False, 'trialN': 5, 'loaded': True, 'loadedTime': 1972.1999999955297, 'positionName': 'RIGHT', 'positionCoords': [998.4, 335], 'bid': 2.48}]",10313.0,1669847392047,rigatoni,shreddedwheatwithmilk,2.56,2.48,-0.08000000000000007,shreddedwheatwithmilk,1044.5,1044,1044.6999999955297,True,i,11862.09999999404,1549.0999999940395,1669847393596,1549,HRV,HRV_0316,2022-11-30 22:35:22
6,"[{'imgObject': {}, 'id': 'bagel and cc', 'src': '/static/foodstim60/bagel and cc.jpg', 'key': 'u', 'origWidth': 410, 'origHeight': 410, 'width': 410, 'height': 410, 'widthPercent': 0.45, 'rescaleHeight': False, 'trialN': 6, 'loaded': True, 'loadedTime': 1976.3999999985099, 'positionName': 'LEFT', 'positionCoords': [511.6, 335], 'bid': 7.34}, {'imgObject': {}, 'id': 'froot loops w milk', 'src': '/static/foodstim60/froot loops w milk.jpg', 'key': 'i', 'origWidth': 410, 'origHeight': 410, 'width': 410, 'height': 410, 'widthPercent': 0.45, 'rescaleHeight': False, 'trialN': 6, 'loaded': True, 'loadedTime': 1980.0999999940395, 'positionName': 'RIGHT', 'positionCoords': [998.4, 335], 'bid': 9.02}]",11862.29999999702,1669847393596,bagel and cc,froot loops w milk,7.34,9.02,1.6799999999999997,bagel and cc,1127.0,1127,1127.2000000029802,True,u,13502.59999999404,1640.2999999970198,1669847395236,1640,HRV,HRV_0316,2022-11-30 22:35:22
7,"[{'imgObject': {}, 'id': 'popsicles', 'src': '/static/foodstim60/popsicles.jpg', 'key': 'u', 'origWidth': 410, 'origHeight': 410, 'width': 410, 'height': 410, 'widthPercent': 0.45, 'rescaleHeight': False, 'trialN': 7, 'loaded': True, 'loadedTime': 2310.5, 'positionName': 'LEFT', 'positionCoords': [511.6, 335], 'bid': 2.56}, {'imgObject': {}, 'id': 'eggs', 'src': '/static/foodstim60/eggs.jpg', 'key': 'i', 'origWidth': 409, 'origHeight': 409, 'width': 409, 'height': 409, 'widthPercent': 0.45, 'rescaleHeight': False, 'trialN': 7, 'loaded': True, 'loadedTime': 1825.3999999985099, 'positionName': 'RIGHT', 'positionCoords': [998.4, 335.5], 'bid': 5.8500000000000005}]",13502.79999999702,1669847395237,popsicles,eggs,2.56,5.8500000000000005,3.2900000000000005,eggs,919.7000000029802,920,920.0,True,i,14930.0,1427.2000000029802,1669847396664,1427,HRV,HRV_0316,2022-11-30 22:35:22
8,"[{'imgObject': {}, 'id': 'chicken nuggets2', 'src': '/static/foodstim60/chicken nuggets2.jpg', 'key': 'u', 'origWidth': 410, 'origHeight': 409, 'width': 410, 'height': 409, 'widthPercent': 0.45, 'rescaleHeight': False, 'trialN': 8, 'loaded': True, 'loadedTime': 1846.7999999970198, 'positionName': 'LEFT', 'positionCoords': [511.6, 335.5], 'bid': 8.540000000000001}, {'imgObject': {}, 'id': 'sweetpotato', 'src': '/static/foodstim60/sweetpotato.jpg', 'key': 'i', 'origWidth': 410, 'origHeight': 410, 'width': 410, 'height': 410, 'widthPercent': 0.45, 'rescaleHeight': False, 'trialN': 8, 'loaded': True, 'loadedTime': 1909.8999999985099, 'positionName': 'RIGHT', 'positionCoords': [998.4, 335], 'bid': 9.46}]",14930.0,1669847396664,chicken nuggets2,sweetpotato,8.540000000000001,9.46,0.9199999999999999,sweetpotato,1388.2999999970198,1388,1388.5,True,i,16825.0,1895.0,1669847398559,1895,HRV,HRV_0316,2022-11-30 22:35:22
9,"[{'imgObject': {}, 'id': 'rigatoni and sauce', 'src': '/static/foodstim60/rigatoni and sauce.jpg', 'key': 'u', 'origWidth': 410, 'origHeight': 411, 'width': 410, 'height': 411, 'widthPercent': 0.45, 'rescaleHeight': False, 'trialN': 9, 'loaded': True, 'loadedTime': 1950.8999999985099, 'positionName': 'LEFT', 'positionCoords': [511.6, 334.5], 'bid': 6.890000000000001}, {'imgObject': {}, 'id': 'shreddedwheatwithmilk', 'src': '/static/foodstim60/shreddedwheatwithmilk.jpg', 'key': 'i', 'origWidth': 410, 'origHeight': 410, 'width': 410, 'height': 410, 'widthPercent': 0.45, 'rescaleHeight': False, 'trialN': 9, 'loaded': True, 'loadedTime': 1973.8999999985099, 'positionName': 'RIGHT', 'positionCoords': [998.4, 335], 'bid': 2.48}]",16825.09999999404,1669847398559,rigatoni and sauce,shreddedwheatwithmilk,6.890000000000001,2.48,-4.41,rigatoni and sauce,949.3000000044703,949,949.5,True,u,18281.39999999851,1456.3000000044703,1669847400015,1456,HRV,HRV_0316,2022-11-30 22:35:22
10,"[{'imgObject': {}, 'id': 'eggsalad', 'src': '/static/foodstim60/eggsalad.jpg', 'key': 'u', 'origWidth': 410, 'origHeight': 409, 'width': 410, 'height': 409, 'widthPercent': 0.45, 'rescaleHeight': False, 'trialN': 10, 'loaded': True, 'loadedTime': 1810.0999999940395, 'positionName': 'LEFT', 'positionCoords': [511.6, 335.5], 'bid': 6.63}, {'imgObject': {}, 'id': 'pear', 'src': '/static/foodstim60/pear.jpg', 'key': 'i', 'origWidth': 411, 'origHeight': 410, 'width': 411, 'height': 410, 'widthPercent': 0.45, 'rescaleHeight': False, 'trialN': 10, 'loaded': True, 'loadedTime': 1995.6999999955297, 'positionName': 'RIGHT', 'positionCoords': [998.4, 335], 'bid': 8.25}]",18281.59999999404,1669847400015,eggsalad,pear,6.63,8.25,1.62,eggsalad,1057.7000000029802,1058,1057.9000000059605,True,u,19854.59999999404,1573.0,1669847401588,1573,HRV,HRV_0316,2022-11-30 22:35:22
11,"[{'imgObject': {}, 'id': 'grilled chicken strips', 'src': '/static/foodstim60/grilled chicken strips.jpg', 'key': 'u', 'origWidth': 410, 'origHeight': 411, 'width': 410, 'height': 411, 'widthPercent': 0.45, 'rescaleHeight': False, 'trialN': 11, 'loaded': True, 'loadedTime': 1998.0999999940395, 'positionName': 'LEFT', 'positionCoords': [511.6, 334.5], 'bid': 8.55}, {'imgObject': {}, 'id': 'yogurt no spoon', 'src': '/static/foodstim60/yogurt no spoon.jpg', 'key': 'i', 'origWidth': 411, 'origHeight': 410, 'width': 411, 'height': 410, 'widthPercent': 0.45, 'rescaleHeight': False, 'trialN': 11, 'loaded': True, 'loadedTime': 1877.7999999970198, 'positionName': 'RIGHT', 'positionCoords': [998.4, 335], 'bid': 9.81}]",19854.79999999702,1669847401589,grilled chicken strips,yogurt no spoon,8.55,9.81,1.2599999999999998,yogurt no spoon,930.8999999985099,931,931.1000000014901,True,i,21302.5,1447.7000000029802,1669847403036,1447,HRV,HRV_0316,2022-11-30 22:35:22
12,"[{'imgObject': {}, 'id': 'salmon', 'src': '/static/foodstim60/salmon.jpg', 'key': 'u', 'origWidth': 410, 'origHeight': 409, 'width': 410, 'height': 409, 'widthPercent': 0.45, 'rescaleHeight': False, 'trialN': 12, 'loaded': True, 'loadedTime': 1999.0999999940395, 'positionName': 'LEFT', 'positionCoords': [511.6, 335.5], 'bid': 0.16}, {'imgObject': {}, 'id': 'popsicles', 'src': '/static/foodstim60/popsicles.jpg', 'key': 'i', 'origWidth': 410, 'origHeight': 410, 'width': 410, 'height': 410, 'widthPercent': 0.45, 'rescaleHeight': False, 'trialN': 12, 'loaded': True, 'loadedTime': 2310.1999999955297, 'positionName': 'RIGHT', 'positionCoords': [998.4, 335], 'bid': 2.56}]",21302.69999999553,1669847403036,salmon,popsicles,0.16,2.56,2.4,popsicles,1375.8999999985099,1377,1376.1000000014901,True,i,23189.5,1886.8000000044703,1669847404923,1887,HRV,HRV_0316,2022-11-30 22:35:22
13,"[{'imgObject': {}, 'id': 'blueberries', 'src': '/static/foodstim60/blueberries.jpg', 'key': 'u', 'origWidth': 411, 'origHeight': 411, 'width': 411, 'height': 411, 'widthPercent': 0.45, 'rescaleHeight': False, 'trialN': 13, 'loaded': True, 'loadedTime': 2003.5, 'positionName': 'LEFT', 'positionCoords': [510.6, 334.5], 'bid': 3.52}, {'imgObject': {}, 'id': 'granola w milk', 'src': '/static/foodstim60/granola w milk.jpg', 'key': 'i', 'origWidth': 410, 'origHeight': 410, 'width': 410, 'height': 410, 'widthPercent': 0.45, 'rescaleHeight': False, 'trialN': 13, 'loaded': True, 'loadedTime': 2038.0999999940395, 'positionName': 'RIGHT', 'positionCoords': [998.4, 335], 'bid': 3.98}]",23189.59999999404,1669847404923,blueberries,granola w milk,3.52,3.98,0.45999999999999996,granola w milk,1536.8000000044703,1537,1537.0,True,i,25232.0,2042.4000000059605,1669847406966,2043,HRV,HRV_0316,2022-11-30 22:35:22
14,"[{'imgObject': {}, 'id': 'cheerios', 'src': '/static/foodstim60/cheerios.jpg', 'key': 'u', 'origWidth': 409, 'origHeight': 410, 'width': 409, 'height': 410, 'widthPercent': 0.45, 'rescaleHeight': False, 'trialN': 14, 'loaded': True, 'loadedTime': 2050.5999999940395, 'positionName': 'LEFT', 'positionCoords': [512.6, 335], 'bid': 5.92}, {'imgObject': {}, 'id': 'Tribe humus pita', 'src': '/static/foodstim60/Tribe humus pita.jpg', 'key': 'i', 'origWidth': 411, 'origHeight': 411, 'width': 411, 'height': 411, 'widthPercent': 0.45, 'rescaleHeight': False, 'trialN': 14, 'loaded': True, 'loadedTime': 2069.5, 'positionName': 'RIGHT', 'positionCoords': [998.4, 334.5], 'bid': 4.98}]",25232.09999999404,1669847406966,cheerios,Tribe humus pita,5.92,4.98,-0.9399999999999995,cheerios,1416.2000000029802,1416,1416.4000000059605,True,u,27152.5,1920.4000000059605,1669847408886,1920,HRV,HRV_0316,2022-11-30 22:35:22
15,"[{'imgObject': {}, 'id': 'chickenfingers', 'src': '/static/foodstim60/chickenfingers.jpg', 'key': 'u', 'origWidth': 410, 'origHeight': 410, 'width': 410, 'height': 410, 'widthPercent': 0.45, 'rescaleHeight': False, 'trialN': 15, 'loaded': True, 'loadedTime': 2070.5999999940395, 'positionName': 'LEFT', 'positionCoords': [511.6, 335], 'bid': 8.870000000000001}, {'imgObject': {}, 'id': 'banana', 'src': '/static/foodstim60/banana.jpg', 'key': 'i', 'origWidth': 410, 'origHeight': 410, 'width': 410, 'height': 410, 'widthPercent': 0.45, 'rescaleHeight': False, 'trialN': 15, 'loaded': True, 'loadedTime': 2079.6999999955297, 'positionName': 'RIGHT', 'positionCoords': [998.4, 335], 'bid': 9.89}]",27152.69999999553,1669847408886,chickenfingers,banana,8.870000000000001,9.89,1.0199999999999996,chickenfingers,1150.1000000014901,1151,1150.3000000044703,True,u,28805.89999999851,1653.2000000029802,1669847410540,1654,HRV,HRV_0316,2022-11-30 22:35:22
16,"[{'imgObject': {}, 'id': 'cherry tomato', 'src': '/static/foodstim60/cherry tomato.jpg', 'key': 'u', 'origWidth': 410, 'origHeight': 410, 'width': 410, 'height': 410, 'widthPercent': 0.45, 'rescaleHeight': False, 'trialN': 16, 'loaded': True, 'loadedTime': 2093.2999999970198, 'positionName': 'LEFT', 'positionCoords': [511.6, 335], 'bid': 1.36}, {'imgObject': {}, 'id': 'blackbeanswithrice', 'src': '/static/foodstim60/blackbeanswithrice.jpg', 'key': 'i', 'origWidth': 410, 'origHeight': 410, 'width': 410, 'height': 410, 'widthPercent': 0.45, 'rescaleHeight': False, 'trialN': 16, 'loaded': True, 'loadedTime': 2124.5999999940395, 'positionName': 'RIGHT', 'positionCoords': [998.4, 335], 'bid': 0.21}]",28806.0,1669847410540,cherry tomato,blackbeanswithrice,1.36,0.21,-1.1500000000000001,blackbeanswithrice,1727.7999999970198,1728,1727.8999999985099,True,i,31053.0,2247.0,1669847412787,2247,HRV,HRV_0316,2022-11-30 22:35:22
17,"[{'imgObject': {}, 'id': 'pear', 'src': '/static/foodstim60/pear.jpg', 'key': 'u', 'origWidth': 411, 'origHeight': 410, 'width': 411, 'height': 410, 'widthPercent': 0.45, 'rescaleHeight': False, 'trialN': 17, 'loaded': True, 'loadedTime': 1993.7999999970198, 'positionName': 'LEFT', 'positionCoords': [510.6, 335], 'bid': 8.25}, {'imgObject': {}, 'id': 'salad w chicken', 'src': '/static/foodstim60/salad w chicken.jpg', 'key': 'i', 'origWidth': 411, 'origHeight': 411, 'width': 411, 'height': 411, 'widthPercent': 0.45, 'rescaleHeight': False, 'trialN': 17, 'loaded': True, 'loadedTime': 1957.1999999955297, 'positionName': 'RIGHT', 'positionCoords': [998.4, 334.5], 'bid': 9.46}]",31053.09999999404,1669847412787,pear,salad w chicken,8.25,9.46,1.2100000000000009,salad w chicken,952.1000000014901,952,952.4000000059605,True,i,32515.69999999553,1462.6000000014901,1669847414250,1463,HRV,HRV_0316,2022-11-30 22:35:22
18,"[{'imgObject': {}, 'id': 'rigatoni', 'src': '/static/foodstim60/rigatoni.jpg', 'key': 'u', 'origWidth': 411, 'origHeight': 411, 'width': 411, 'height': 411, 'widthPercent': 0.45, 'rescaleHeight': False, 'trialN': 18, 'loaded': True, 'loadedTime': 1969.0999999940395, 'positionName': 'LEFT', 'positionCoords': [510.6, 334.5], 'bid': 2.56}, {'imgObject': {}, 'id': 'burrito', 'src': '/static/foodstim60/burrito.jpg', 'key': 'i', 'origWidth': 410, 'origHeight': 410, 'width': 410, 'height': 410, 'widthPercent': 0.45, 'rescaleHeight': False, 'trialN': 18, 'loaded': True, 'loadedTime': 2135.5, 'positionName': 'RIGHT', 'positionCoords': [998.4, 335], 'bid': 8.93}]",32515.79999999702,1669847414250,rigatoni,burrito,2.56,8.93,6.369999999999999,burrito,1055.2000000029802,1055,1055.3999999985099,True,i,34077.89999999851,1562.1000000014901,1669847415812,1562,HRV,HRV_0316,2022-11-30 22:35:22
19,"[{'imgObject': {}, 'id': 'sushi w_condiments', 'src': '/static/foodstim60/sushi w_condiments.jpg', 'key': 'u', 'origWidth': 410, 'origHeight': 410, 'width': 410, 'height': 410, 'widthPercent': 0.45, 'rescaleHeight': False, 'trialN': 19, 'loaded': True, 'loadedTime': 2136.39999999851, 'positionName': 'LEFT', 'positionCoords': [511.6, 335], 'bid': 0.17}, {'imgObject': {}, 'id': 'blackbeanswithrice', 'src': '/static/foodstim60/blackbeanswithrice.jpg', 'key': 'i', 'origWidth': 410, 'origHeight': 410, 'width': 410, 'height': 410, 'widthPercent': 0.45, 'rescaleHeight': False, 'trialN': 19, 'loaded': True, 'loadedTime': 2124.7999999970198, 'positionName': 'RIGHT', 'positionCoords': [998.4, 335], 'bid': 0.21}]",34078.0,1669847415812,sushi w_condiments,blackbeanswithrice,0.17,0.21,0.03999999999999998,blackbeanswithrice,1049.2999999970198,1049,1049.5,True,i,35634.59999999404,1556.5999999940395,1669847417368,1556,HRV,HRV_0316,2022-11-30 22:35:22
20,"[{'imgObject': {}, 'id': 'mac & cheese', 'src': '/static/foodstim60/mac & cheese.jpg', 'key': 'u', 'origWidth': 410, 'origHeight': 410, 'width': 410, 'height': 410, 'widthPercent': 0.45, 'rescaleHeight': False, 'trialN': 20, 'loaded': True, 'loadedTime': 1965.0999999940395, 'positionName': 'LEFT', 'positionCoords': [511.6, 335], 'bid': 9.78}, {'imgObject': {}, 'id': 'froot loops w milk', 'src': '/static/foodstim60/froot loops w milk.jpg', 'key': 'i', 'origWidth': 410, 'origHeight': 410, 'width': 410, 'height': 410, 'widthPercent': 0.45, 'rescaleHeight': False, 'trialN': 20, 'loaded': True, 'loadedTime': 1981, 'positionName': 'RIGHT', 'positionCoords': [998.4, 335], 'bid': 9.02}]",35634.79999999702,1669847417369,mac & cheese,froot loops w milk,9.78,9.02,-0.7599999999999998,mac & cheese,1025.3999999985099,1025,1025.6000000014901,True,u,37169.59999999404,1534.7999999970198,1669847418903,1534,HRV,HRV_0316,2022-11-30 22:35:22
21,"[{'imgObject': {}, 'id': 'apple slices', 'src': '/static/foodstim60/apple slices.jpg', 'key': 'u', 'origWidth': 409, 'origHeight': 410, 'width': 409, 'height': 410, 'widthPercent': 0.45, 'rescaleHeight': False, 'trialN': 21, 'loaded': True, 'loadedTime': 2146.5999999940395, 'positionName': 'LEFT', 'positionCoords': [512.6, 335], 'bid': 8.47}, {'imgObject': {}, 'id': 'froot loops w milk', 'src': '/static/foodstim60/froot loops w milk.jpg', 'key': 'i', 'origWidth': 410, 'origHeight': 410, 'width': 410, 'height': 410, 'widthPercent': 0.45, 'rescaleHeight': False, 'trialN': 21, 'loaded': True, 'loadedTime': 1980.7999999970198, 'positionName': 'RIGHT', 'positionCoords': [998.4, 335], 'bid': 9.02}]",37169.69999999553,1669847418903,apple slices,froot loops w milk,8.47,9.02,0.5499999999999989,froot loops w milk,803.8999999985099,804,804.0,True,i,38480.89999999851,1311.2000000029802,1669847420215,1312,HRV,HRV_0316,2022-11-30 22:35:22
22,"[{'imgObject': {}, 'id': 'popsicles', 'src': '/static/foodstim60/popsicles.jpg', 'key': 'u', 'origWidth': 410, 'origHeight': 410, 'width': 410, 'height': 410, 'widthPercent': 0.45, 'rescaleHeight': False, 'trialN': 22, 'loaded': True, 'loadedTime': 2310.5, 'positionName': 'LEFT', 'positionCoords': [511.6, 335], 'bid': 2.56}, {'imgObject': {}, 'id': 'strawberries', 'src': '/static/foodstim60/strawberries.jpg', 'key': 'i', 'origWidth': 410, 'origHeight': 410, 'width': 410, 'height': 410, 'widthPercent': 0.45, 'rescaleHeight': False, 'trialN': 22, 'loaded': True, 'loadedTime': 2156.7999999970198, 'positionName': 'RIGHT', 'positionCoords': [998.4, 335], 'bid': 9}]",38481.0,1669847420215,popsicles,strawberries,2.56,9.0,6.4399999999999995,strawberries,921.2999999970198,921,921.5,True,i,39909.59999999404,1428.5999999940395,1669847421643,1428,HRV,HRV_0316,2022-11-30 22:35:22
23,"[{'imgObject': {}, 'id': 'popsicles', 'src': '/static/foodstim60/popsicles.jpg', 'key': 'u', 'origWidth': 410, 'origHeight': 410, 'width': 410, 'height': 410, 'widthPercent': 0.45, 'rescaleHeight': False, 'trialN': 23, 'loaded': True, 'loadedTime': 2310.2999999970198, 'positionName': 'LEFT', 'positionCoords': [511.6, 335], 'bid': 2.56}, {'imgObject': {}, 'id': 'veggieswithdip', 'src': '/static/foodstim60/veggieswithdip.jpg', 'key': 'i', 'origWidth': 409, 'origHeight': 409, 'width': 409, 'height': 409, 'widthPercent': 0.45, 'rescaleHeight': False, 'trialN': 23, 'loaded': True, 'loadedTime': 2158.1999999955297, 'positionName': 'RIGHT', 'positionCoords': [998.4, 335.5], 'bid': 2.79}]",39909.59999999404,1669847421643,popsicles,veggieswithdip,2.56,2.79,0.22999999999999998,veggieswithdip,1648.9000000059605,1649,1649.1000000014901,True,i,42070.59999999404,2161.0,1669847423804,2161,HRV,HRV_0316,2022-11-30 22:35:22
24,"[{'imgObject': {}, 'id': 'bagel and cc', 'src': '/static/foodstim60/bagel and cc.jpg', 'key': 'u', 'origWidth': 410, 'origHeight': 410, 'width': 410, 'height': 410, 'widthPercent': 0.45, 'rescaleHeight': False, 'trialN': 24, 'loaded': True, 'loadedTime': 1977.5, 'positionName': 'LEFT', 'positionCoords': [511.6, 335], 'bid': 7.34}, {'imgObject': {}, 'id': 'hashbrowns', 'src': '/static/foodstim60/hashbrowns.jpg', 'key': 'i', 'origWidth': 411, 'origHeight': 410, 'width': 411, 'height': 410, 'widthPercent': 0.45, 'rescaleHeight': False, 'trialN': 24, 'loaded': True, 'loadedTime': 2178.6999999955297, 'positionName': 'RIGHT', 'positionCoords': [998.4, 335], 'bid': 0.11}]",42070.69999999553,1669847423804,bagel and cc,hashbrowns,7.34,0.11,-7.2299999999999995,bagel and cc,1219.7000000029802,1220,1219.8999999985099,True,u,43813.29999999702,1742.6000000014901,1669847425547,1743,HRV,HRV_0316,2022-11-30 22:35:22
25,"[{'imgObject': {}, 'id': 'roastedpotatoes', 'src': '/static/foodstim60/roastedpotatoes.jpg', 'key': 'u', 'origWidth': 409, 'origHeight': 410, 'width': 409, 'height': 410, 'widthPercent': 0.45, 'rescaleHeight': False, 'trialN': 25, 'loaded': True, 'loadedTime': 2189.39999999851, 'positionName': 'LEFT', 'positionCoords': [512.6, 335], 'bid': 9.42}, {'imgObject': {}, 'id': 'turkeysandwich', 'src': '/static/foodstim60/turkeysandwich.jpg', 'key': 'i', 'origWidth': 409, 'origHeight': 409, 'width': 409, 'height': 409, 'widthPercent': 0.45, 'rescaleHeight': False, 'trialN': 25, 'loaded': True, 'loadedTime': 2209.5999999940395, 'positionName': 'RIGHT', 'positionCoords': [998.4, 335.5], 'bid': 9.38}]",43813.5,1669847425547,roastedpotatoes,turkeysandwich,9.42,9.38,-0.03999999999999915,turkeysandwich,1286.8999999985099,1287,1287.0999999940395,True,i,45608.59999999404,1795.0999999940395,1669847427342,1795,HRV,HRV_0316,2022-11-30 22:35:22
26,"[{'imgObject': {}, 'id': 'orange slices', 'src': '/static/foodstim60/orange slices.jpg', 'key': 'u', 'origWidth': 409, 'origHeight': 410, 'width': 409, 'height': 410, 'widthPercent': 0.45, 'rescaleHeight': False, 'trialN': 26, 'loaded': True, 'loadedTime': 1932.6999999955297, 'positionName': 'LEFT', 'positionCoords': [512.6, 335], 'bid': 6.28}, {'imgObject': {}, 'id': 'cocktailshrimp', 'src': '/static/foodstim60/cocktailshrimp.jpg', 'key': 'i', 'origWidth': 410, 'origHeight': 410, 'width': 410, 'height': 410, 'widthPercent': 0.45, 'rescaleHeight': False, 'trialN': 26, 'loaded': True, 'loadedTime': 2220.0999999940395, 'positionName': 'RIGHT', 'positionCoords': [998.4, 335], 'bid': 0.97}]",45608.69999999553,1669847427342,orange slices,cocktailshrimp,6.28,0.97,-5.3100000000000005,orange slices,912.8000000044703,913,913.0,True,u,47038.0,1429.3000000044703,1669847428772,1430,HRV,HRV_0316,2022-11-30 22:35:22
27,"[{'imgObject': {}, 'id': 'burger', 'src': '/static/foodstim60/burger.jpg', 'key': 'u', 'origWidth': 409, 'origHeight': 409, 'width': 409, 'height': 409, 'widthPercent': 0.45, 'rescaleHeight': False, 'trialN': 27, 'loaded': True, 'loadedTime': 1944.5999999940395, 'positionName': 'LEFT', 'positionCoords': [512.6, 335.5], 'bid': 7.26}, {'imgObject': {}, 'id': 'strawberries', 'src': '/static/foodstim60/strawberries.jpg', 'key': 'i', 'origWidth': 410, 'origHeight': 410, 'width': 410, 'height': 410, 'widthPercent': 0.45, 'rescaleHeight': False, 'trialN': 27, 'loaded': True, 'loadedTime': 2157.0999999940395, 'positionName': 'RIGHT', 'positionCoords': [998.4, 335], 'bid': 9}]",47038.09999999404,1669847428772,burger,strawberries,7.26,9.0,1.7400000000000002,burger,1491.8000000044703,1492,1492.0,True,u,49042.69999999553,2004.6000000014901,1669847430776,2004,HRV,HRV_0316,2022-11-30 22:35:22
28,"[{'imgObject': {}, 'id': 'bagel and cc', 'src': '/static/foodstim60/bagel and cc.jpg', 'key': 'u', 'origWidth': 410, 'origHeight': 410, 'width': 410, 'height': 410, 'widthPercent': 0.45, 'rescaleHeight': False, 'trialN': 28, 'loaded': True, 'loadedTime': 1977.7999999970198, 'positionName': 'LEFT', 'positionCoords': [511.6, 335], 'bid': 7.34}, {'imgObject': {}, 'id': 'cherries', 'src': '/static/foodstim60/cherries.jpg', 'key': 'i', 'origWidth': 410, 'origHeight': 411, 'width': 410, 'height': 411, 'widthPercent': 0.45, 'rescaleHeight': False, 'trialN': 28, 'loaded': True, 'loadedTime': 2220.7999999970198, 'positionName': 'RIGHT', 'positionCoords': [998.4, 334.5], 'bid': 7.37}]",49042.79999999702,1669847430777,bagel and cc,cherries,7.34,7.37,0.03000000000000025,bagel and cc,1124.0,1124,1124.2000000029802,True,u,50674.59999999404,1631.7999999970198,1669847432408,1631,HRV,HRV_0316,2022-11-30 22:35:22
29,"[{'imgObject': {}, 'id': 'froot loops w milk', 'src': '/static/foodstim60/froot loops w milk.jpg', 'key': 'u', 'origWidth': 410, 'origHeight': 410, 'width': 410, 'height': 410, 'widthPercent': 0.45, 'rescaleHeight': False, 'trialN': 29, 'loaded': True, 'loadedTime': 1981, 'positionName': 'LEFT', 'positionCoords': [511.6, 335], 'bid': 9.02}, {'imgObject': {}, 'id': 'burrito', 'src': '/static/foodstim60/burrito.jpg', 'key': 'i', 'origWidth': 410, 'origHeight': 410, 'width': 410, 'height': 410, 'widthPercent': 0.45, 'rescaleHeight': False, 'trialN': 29, 'loaded': True, 'loadedTime': 2125.7999999970198, 'positionName': 'RIGHT', 'positionCoords': [998.4, 335], 'bid': 8.93}]",50674.69999999553,1669847432408,froot loops w milk,burrito,9.02,8.93,-0.08999999999999986,burrito,770.5,771,770.7000000029802,True,i,51959.59999999404,1284.8999999985099,1669847433693,1285,HRV,HRV_0316,2022-11-30 22:35:22
30,"[{'imgObject': {}, 'id': 'veggieswithdip', 'src': '/static/foodstim60/veggieswithdip.jpg', 'key': 'u', 'origWidth': 409, 'origHeight': 409, 'width': 409, 'height': 409, 'widthPercent': 0.45, 'rescaleHeight': False, 'trialN': 30, 'loaded': True, 'loadedTime': 2167.7999999970198, 'positionName': 'LEFT', 'positionCoords': [512.6, 335.5], 'bid': 2.79}, {'imgObject': {}, 'id': 'hashbrowns', 'src': '/static/foodstim60/hashbrowns.jpg', 'key': 'i', 'origWidth': 411, 'origHeight': 410, 'width': 411, 'height': 410, 'widthPercent': 0.45, 'rescaleHeight': False, 'trialN': 30, 'loaded': True, 'loadedTime': 2178.39999999851, 'positionName': 'RIGHT', 'positionCoords': [998.4, 335], 'bid': 0.11}]",51959.69999999553,1669847433693,veggieswithdip,hashbrowns,2.79,0.11,-2.68,veggieswithdip,1057.1000000014901,1058,1057.2000000029802,True,u,53522.79999999702,1563.1000000014901,1669847435257,1564,HRV,HRV_0316,2022-11-30 22:35:22
31,"[{'imgObject': {}, 'id': 'mashed potato', 'src': '/static/foodstim60/mashed potato.jpg', 'key': 'u', 'origWidth': 409, 'origHeight': 409, 'width': 409, 'height': 409, 'widthPercent': 0.45, 'rescaleHeight': False, 'trialN': 31, 'loaded': True, 'loadedTime': 2231.1999999955297, 'positionName': 'LEFT', 'positionCoords': [512.6, 335.5], 'bid': 9.61}, {'imgObject': {}, 'id': 'luckycharms', 'src': '/static/foodstim60/luckycharms.jpg', 'key': 'i', 'origWidth': 410, 'origHeight': 409, 'width': 410, 'height': 409, 'widthPercent': 0.45, 'rescaleHeight': False, 'trialN': 31, 'loaded': True, 'loadedTime': 1961.8999999985099, 'positionName': 'RIGHT', 'positionCoords': [998.4, 335.5], 'bid': 9.61}]",53522.89999999851,1669847435257,mashed potato,luckycharms,9.61,9.61,0.0,mashed potato,1407.0,1407,1407.1000000014901,True,u,55441.69999999553,1918.7999999970198,1669847437175,1918,HRV,HRV_0316,2022-11-30 22:35:22
32,"[{'imgObject': {}, 'id': 'granola w milk', 'src': '/static/foodstim60/granola w milk.jpg', 'key': 'u', 'origWidth': 410, 'origHeight': 410, 'width': 410, 'height': 410, 'widthPercent': 0.45, 'rescaleHeight': False, 'trialN': 32, 'loaded': True, 'loadedTime': 2028.5999999940395, 'positionName': 'LEFT', 'positionCoords': [511.6, 335], 'bid': 3.98}, {'imgObject': {}, 'id': 'fruitsalad', 'src': '/static/foodstim60/fruitsalad.jpg', 'key': 'i', 'origWidth': 410, 'origHeight': 410, 'width': 410, 'height': 410, 'widthPercent': 0.45, 'rescaleHeight': False, 'trialN': 32, 'loaded': True, 'loadedTime': 2241, 'positionName': 'RIGHT', 'positionCoords': [998.4, 335], 'bid': 2.29}]",55441.69999999553,1669847437176,granola w milk,fruitsalad,3.98,2.29,-1.69,fruitsalad,1927.8000000044703,1928,1928.0,True,i,57885.89999999851,2444.2000000029802,1669847439620,2444,HRV,HRV_0316,2022-11-30 22:35:22
33,"[{'imgObject': {}, 'id': 'eggs', 'src': '/static/foodstim60/eggs.jpg', 'key': 'u', 'origWidth': 409, 'origHeight': 409, 'width': 409, 'height': 409, 'widthPercent': 0.45, 'rescaleHeight': False, 'trialN': 33, 'loaded': True, 'loadedTime': 1846.5999999940395, 'positionName': 'LEFT', 'positionCoords': [512.6, 335.5], 'bid': 5.8500000000000005}, {'imgObject': {}, 'id': 'mango', 'src': '/static/foodstim60/mango.jpg', 'key': 'i', 'origWidth': 411, 'origHeight': 411, 'width': 411, 'height': 411, 'widthPercent': 0.45, 'rescaleHeight': False, 'trialN': 33, 'loaded': True, 'loadedTime': 2252.1999999955297, 'positionName': 'RIGHT', 'positionCoords': [998.4, 334.5], 'bid': 0.16}]",57886.0,1669847439620,eggs,mango,5.8500000000000005,0.16,-5.69,eggs,1681.2999999970198,1672,1681.5,True,u,60074.19999999553,2188.1999999955297,1669847441799,2179,HRV,HRV_0316,2022-11-30 22:35:22
34,"[{'imgObject': {}, 'id': 'tacos', 'src': '/static/foodstim60/tacos.jpg', 'key': 'u', 'origWidth': 411, 'origHeight': 411, 'width': 411, 'height': 411, 'widthPercent': 0.45, 'rescaleHeight': False, 'trialN': 34, 'loaded': True, 'loadedTime': 2253.0999999940395, 'positionName': 'LEFT', 'positionCoords': [510.6, 334.5], 'bid': 8.26}, {'imgObject': {}, 'id': 'Grapes', 'src': '/static/foodstim60/Grapes.jpg', 'key': 'i', 'origWidth': 411, 'origHeight': 411, 'width': 411, 'height': 411, 'widthPercent': 0.45, 'rescaleHeight': False, 'trialN': 34, 'loaded': True, 'loadedTime': 1921.0999999940395, 'positionName': 'RIGHT', 'positionCoords': [998.4, 334.5], 'bid': 7.87}]",60074.39999999851,1669847441799,tacos,Grapes,8.26,7.87,-0.3899999999999997,tacos,953.0,953,953.2999999970198,True,u,61543.59999999404,1469.1999999955297,1669847443268,1469,HRV,HRV_0316,2022-11-30 22:35:22
35,"[{'imgObject': {}, 'id': 'apple slices', 'src': '/static/foodstim60/apple slices.jpg', 'key': 'u', 'origWidth': 409, 'origHeight': 410, 'width': 409, 'height': 410, 'widthPercent': 0.45, 'rescaleHeight': False, 'trialN': 35, 'loaded': True, 'loadedTime': 2136.7999999970198, 'positionName': 'LEFT', 'positionCoords': [512.6, 335], 'bid': 8.47}, {'imgObject': {}, 'id': 'roastedpotatoes', 'src': '/static/foodstim60/roastedpotatoes.jpg', 'key': 'i', 'origWidth': 409, 'origHeight': 410, 'width': 409, 'height': 410, 'widthPercent': 0.45, 'rescaleHeight': False, 'trialN': 35, 'loaded': True, 'loadedTime': 2189.6999999955297, 'positionName': 'RIGHT', 'positionCoords': [998.4, 335], 'bid': 9.42}]",61543.69999999553,1669847443268,apple slices,roastedpotatoes,8.47,9.42,0.9499999999999993,roastedpotatoes,1055.7000000029802,1056,1055.8999999985099,True,i,63108.5,1564.8000000044703,1669847444833,1565,HRV,HRV_0316,2022-11-30 22:35:22
36,"[{'imgObject': {}, 'id': 'banana', 'src': '/static/foodstim60/banana.jpg', 'key': 'u', 'origWidth': 410, 'origHeight': 410, 'width': 410, 'height': 410, 'widthPercent': 0.45, 'rescaleHeight': False, 'trialN': 36, 'loaded': True, 'loadedTime': 2080.39999999851, 'positionName': 'LEFT', 'positionCoords': [511.6, 335], 'bid': 9.89}, {'imgObject': {}, 'id': 'yogurt no spoon', 'src': '/static/foodstim60/yogurt no spoon.jpg', 'key': 'i', 'origWidth': 411, 'origHeight': 410, 'width': 411, 'height': 410, 'widthPercent': 0.45, 'rescaleHeight': False, 'trialN': 36, 'loaded': True, 'loadedTime': 1877.5999999940395, 'positionName': 'RIGHT', 'positionCoords': [998.4, 335], 'bid': 9.81}]",63108.59999999404,1669847444833,banana,yogurt no spoon,9.89,9.81,-0.08000000000000007,yogurt no spoon,959.8000000044703,960,960.0,True,i,64579.79999999702,1471.2000000029802,1669847446304,1471,HRV,HRV_0316,2022-11-30 22:35:22
37,"[{'imgObject': {}, 'id': 'fruitsalad', 'src': '/static/foodstim60/fruitsalad.jpg', 'key': 'u', 'origWidth': 410, 'origHeight': 410, 'width': 410, 'height': 410, 'widthPercent': 0.45, 'rescaleHeight': False, 'trialN': 37, 'loaded': True, 'loadedTime': 2240.89999999851, 'positionName': 'LEFT', 'positionCoords': [511.6, 335], 'bid': 2.29}, {'imgObject': {}, 'id': 'eggsalad', 'src': '/static/foodstim60/eggsalad.jpg', 'key': 'i', 'origWidth': 410, 'origHeight': 409, 'width': 410, 'height': 409, 'widthPercent': 0.45, 'rescaleHeight': False, 'trialN': 37, 'loaded': True, 'loadedTime': 1812.5, 'positionName': 'RIGHT', 'positionCoords': [998.4, 335.5], 'bid': 6.63}]",64579.89999999851,1669847446304,fruitsalad,eggsalad,2.29,6.63,4.34,eggsalad,1110.8999999985099,1111,1111.1000000014901,True,i,66205.29999999702,1625.3999999985099,1669847447930,1626,HRV,HRV_0316,2022-11-30 22:35:22
38,"[{'imgObject': {}, 'id': 'pear', 'src': '/static/foodstim60/pear.jpg', 'key': 'u', 'origWidth': 411, 'origHeight': 410, 'width': 411, 'height': 410, 'widthPercent': 0.45, 'rescaleHeight': False, 'trialN': 38, 'loaded': True, 'loadedTime': 1995.1999999955297, 'positionName': 'LEFT', 'positionCoords': [510.6, 335], 'bid': 8.25}, {'imgObject': {}, 'id': 'chickenfingers', 'src': '/static/foodstim60/chickenfingers.jpg', 'key': 'i', 'origWidth': 410, 'origHeight': 410, 'width': 410, 'height': 410, 'widthPercent': 0.45, 'rescaleHeight': False, 'trialN': 38, 'loaded': True, 'loadedTime': 2069.5999999940395, 'positionName': 'RIGHT', 'positionCoords': [998.4, 335], 'bid': 8.870000000000001}]",66205.5,1669847447930,pear,chickenfingers,8.25,8.870000000000001,0.620000000000001,chickenfingers,886.1999999955297,886,886.5,True,i,67610.89999999851,1405.3999999985099,1669847449335,1405,HRV,HRV_0316,2022-11-30 22:35:22
39,"[{'imgObject': {}, 'id': 'blackbeanswithrice', 'src': '/static/foodstim60/blackbeanswithrice.jpg', 'key': 'u', 'origWidth': 410, 'origHeight': 410, 'width': 410, 'height': 410, 'widthPercent': 0.45, 'rescaleHeight': False, 'trialN': 39, 'loaded': True, 'loadedTime': 2114.6999999955297, 'positionName': 'LEFT', 'positionCoords': [511.6, 335], 'bid': 0.21}, {'imgObject': {}, 'id': 'granola w milk', 'src': '/static/foodstim60/granola w milk.jpg', 'key': 'i', 'origWidth': 410, 'origHeight': 410, 'width': 410, 'height': 410, 'widthPercent': 0.45, 'rescaleHeight': False, 'trialN': 39, 'loaded': True, 'loadedTime': 2038.1999999955297, 'positionName': 'RIGHT', 'positionCoords': [998.4, 335], 'bid': 3.98}]",67611.09999999404,1669847449335,blackbeanswithrice,granola w milk,0.21,3.98,3.77,blackbeanswithrice,1118.6000000014901,1119,1118.8000000044703,True,u,69238.59999999404,1627.5,1669847450963,1628,HRV,HRV_0316,2022-11-30 22:35:22
40,"[{'imgObject': {}, 'id': 'avocado', 'src': '/static/foodstim60/avocado.jpg', 'key': 'u', 'origWidth': 409, 'origHeight': 409, 'width': 409, 'height': 409, 'widthPercent': 0.45, 'rescaleHeight': False, 'trialN': 40, 'loaded': True, 'loadedTime': 2253.2999999970198, 'positionName': 'LEFT', 'positionCoords': [512.6, 335.5], 'bid': 0.07}, {'imgObject': {}, 'id': 'mango', 'src': '/static/foodstim60/mango.jpg', 'key': 'i', 'origWidth': 411, 'origHeight': 411, 'width': 411, 'height': 411, 'widthPercent': 0.45, 'rescaleHeight': False, 'trialN': 40, 'loaded': True, 'loadedTime': 2252.1999999955297, 'positionName': 'RIGHT', 'positionCoords': [998.4, 334.5], 'bid': 0.16}]",69238.59999999404,1669847450963,avocado,mango,0.07,0.16,0.09,mango,2617.7000000029802,2618,2617.9000000059605,True,i,72357.5,3118.9000000059605,1669847454082,3119,HRV,HRV_0316,2022-11-30 22:35:22
41,"[{'imgObject': {}, 'id': 'Tribe humus pita', 'src': '/static/foodstim60/Tribe humus pita.jpg', 'key': 'u', 'origWidth': 411, 'origHeight': 411, 'width': 411, 'height': 411, 'widthPercent': 0.45, 'rescaleHeight': False, 'trialN': 41, 'loaded': True, 'loadedTime': 2060.1999999955297, 'positionName': 'LEFT', 'positionCoords': [510.6, 334.5], 'bid': 4.98}, {'imgObject': {}, 'id': 'cantaloupe', 'src': '/static/foodstim60/cantaloupe.jpg', 'key': 'i', 'origWidth': 409, 'origHeight': 409, 'width': 409, 'height': 409, 'widthPercent': 0.45, 'rescaleHeight': False, 'trialN': 41, 'loaded': True, 'loadedTime': 2273.0999999940395, 'positionName': 'RIGHT', 'positionCoords': [998.4, 335.5], 'bid': 4.0600000000000005}]",72357.59999999404,1669847454082,Tribe humus pita,cantaloupe,4.98,4.0600000000000005,-0.9199999999999999,Tribe humus pita,1885.0,1885,1885.2000000029802,True,u,74752.59999999404,2395.0,1669847456477,2395,HRV,HRV_0316,2022-11-30 22:35:22
42,"[{'imgObject': {}, 'id': 'bagel plain', 'src': '/static/foodstim60/bagel plain.jpg', 'key': 'u', 'origWidth': 410, 'origHeight': 410, 'width': 410, 'height': 410, 'widthPercent': 0.45, 'rescaleHeight': False, 'trialN': 42, 'loaded': True, 'loadedTime': 1898.0999999940395, 'positionName': 'LEFT', 'positionCoords': [511.6, 335], 'bid': 6.5}, {'imgObject': {}, 'id': 'fried eggs', 'src': '/static/foodstim60/fried eggs.jpg', 'key': 'i', 'origWidth': 410, 'origHeight': 410, 'width': 410, 'height': 410, 'widthPercent': 0.45, 'rescaleHeight': False, 'trialN': 42, 'loaded': True, 'loadedTime': 2273.1999999955297, 'positionName': 'RIGHT', 'positionCoords': [998.4, 335], 'bid': 6.3}]",74752.69999999553,1669847456477,bagel plain,fried eggs,6.5,6.3,-0.20000000000000018,fried eggs,1064.7000000029802,1065,1064.8999999985099,True,i,76336.19999999553,1583.5,1669847458060,1583,HRV,HRV_0316,2022-11-30 22:35:22
43,"[{'imgObject': {}, 'id': 'chickenfingers', 'src': '/static/foodstim60/chickenfingers.jpg', 'key': 'u', 'origWidth': 410, 'origHeight': 410, 'width': 410, 'height': 410, 'widthPercent': 0.45, 'rescaleHeight': False, 'trialN': 43, 'loaded': True, 'loadedTime': 2070.2999999970198, 'positionName': 'LEFT', 'positionCoords': [511.6, 335], 'bid': 8.870000000000001}, {'imgObject': {}, 'id': 'strawberries', 'src': '/static/foodstim60/strawberries.jpg', 'key': 'i', 'origWidth': 410, 'origHeight': 410, 'width': 410, 'height': 410, 'widthPercent': 0.45, 'rescaleHeight': False, 'trialN': 43, 'loaded': True, 'loadedTime': 2157.2999999970198, 'positionName': 'RIGHT', 'positionCoords': [998.4, 335], 'bid': 9}]",76336.29999999702,1669847458061,chickenfingers,strawberries,8.870000000000001,9.0,0.129999999999999,chickenfingers,998.0,998,998.2000000029802,True,u,77840.29999999702,1504.0,1669847459565,1504,HRV,HRV_0316,2022-11-30 22:35:22
44,"[{'imgObject': {}, 'id': 'baked potato', 'src': '/static/foodstim60/baked potato.jpg', 'key': 'u', 'origWidth': 409, 'origHeight': 410, 'width': 409, 'height': 410, 'widthPercent': 0.45, 'rescaleHeight': False, 'trialN': 44, 'loaded': True, 'loadedTime': 2287, 'positionName': 'LEFT', 'positionCoords': [512.6, 335], 'bid': 8.38}, {'imgObject': {}, 'id': 'luckycharms', 'src': '/static/foodstim60/luckycharms.jpg', 'key': 'i', 'origWidth': 410, 'origHeight': 409, 'width': 410, 'height': 409, 'widthPercent': 0.45, 'rescaleHeight': False, 'trialN': 44, 'loaded': True, 'loadedTime': 1962.6999999955297, 'positionName': 'RIGHT', 'positionCoords': [998.4, 335.5], 'bid': 9.61}]",77840.39999999851,1669847459565,baked potato,luckycharms,8.38,9.61,1.2299999999999986,baked potato,1291.1999999955297,1291,1291.3999999985099,True,u,79639.19999999553,1798.7999999970198,1669847461363,1798,HRV,HRV_0316,2022-11-30 22:35:22
45,"[{'imgObject': {}, 'id': 'mango', 'src': '/static/foodstim60/mango.jpg', 'key': 'u', 'origWidth': 411, 'origHeight': 411, 'width': 411, 'height': 411, 'widthPercent': 0.45, 'rescaleHeight': False, 'trialN': 45, 'loaded': True, 'loadedTime': 2251.89999999851, 'positionName': 'LEFT', 'positionCoords': [510.6, 334.5], 'bid': 0.16}, {'imgObject': {}, 'id': 'Grapes', 'src': '/static/foodstim60/Grapes.jpg', 'key': 'i', 'origWidth': 411, 'origHeight': 411, 'width': 411, 'height': 411, 'widthPercent': 0.45, 'rescaleHeight': False, 'trialN': 45, 'loaded': True, 'loadedTime': 1920.8999999985099, 'positionName': 'RIGHT', 'positionCoords': [998.4, 334.5], 'bid': 7.87}]",79639.29999999702,1669847461364,mango,Grapes,0.16,7.87,7.71,Grapes,1213.0,1213,1213.2999999970198,True,i,81367.19999999553,1727.8999999985099,1669847463092,1728,HRV,HRV_0316,2022-11-30 22:35:22
46,"[{'imgObject': {}, 'id': 'eggs', 'src': '/static/foodstim60/eggs.jpg', 'key': 'u', 'origWidth': 409, 'origHeight': 409, 'width': 409, 'height': 409, 'widthPercent': 0.45, 'rescaleHeight': False, 'trialN': 46, 'loaded': True, 'loadedTime': 1837.3999999985099, 'positionName': 'LEFT', 'positionCoords': [512.6, 335.5], 'bid': 5.8500000000000005}, {'imgObject': {}, 'id': 'bagel and cc', 'src': '/static/foodstim60/bagel and cc.jpg', 'key': 'i', 'origWidth': 410, 'origHeight': 410, 'width': 410, 'height': 410, 'widthPercent': 0.45, 'rescaleHeight': False, 'trialN': 46, 'loaded': True, 'loadedTime': 1975.3999999985099, 'positionName': 'RIGHT', 'positionCoords': [998.4, 335], 'bid': 7.34}]",81367.29999999702,1669847463092,eggs,bagel and cc,5.8500000000000005,7.34,1.4899999999999993,bagel and cc,1135.1000000014901,1135,1135.2999999970198,True,i,83008.59999999404,1641.2999999970198,1669847464733,1641,HRV,HRV_0316,2022-11-30 22:35:22
47,"[{'imgObject': {}, 'id': 'burrito', 'src': '/static/foodstim60/burrito.jpg', 'key': 'u', 'origWidth': 410, 'origHeight': 410, 'width': 410, 'height': 410, 'widthPercent': 0.45, 'rescaleHeight': False, 'trialN': 47, 'loaded': True, 'loadedTime': 2125.89999999851, 'positionName': 'LEFT', 'positionCoords': [511.6, 335], 'bid': 8.93}, {'imgObject': {}, 'id': 'luckycharms', 'src': '/static/foodstim60/luckycharms.jpg', 'key': 'i', 'origWidth': 410, 'origHeight': 409, 'width': 410, 'height': 409, 'widthPercent': 0.45, 'rescaleHeight': False, 'trialN': 47, 'loaded': True, 'loadedTime': 1961.1999999955297, 'positionName': 'RIGHT', 'positionCoords': [998.4, 335.5], 'bid': 9.61}]",83008.69999999553,1669847464733,burrito,luckycharms,8.93,9.61,0.6799999999999997,burrito,1225.6000000014901,1226,1225.8000000044703,True,u,84751.0,1742.3000000044703,1669847466475,1742,HRV,HRV_0316,2022-11-30 22:35:22
48,"[{'imgObject': {}, 'id': 'yogurt no spoon', 'src': '/static/foodstim60/yogurt no spoon.jpg', 'key': 'u', 'origWidth': 411, 'origHeight': 410, 'width': 411, 'height': 410, 'widthPercent': 0.45, 'rescaleHeight': False, 'trialN': 48, 'loaded': True, 'loadedTime': 1866.8999999985099, 'positionName': 'LEFT', 'positionCoords': [510.6, 335], 'bid': 9.81}, {'imgObject': {}, 'id': 'steak', 'src': '/static/foodstim60/steak.jpg', 'key': 'i', 'origWidth': 410, 'origHeight': 410, 'width': 410, 'height': 410, 'widthPercent': 0.45, 'rescaleHeight': False, 'trialN': 48, 'loaded': True, 'loadedTime': 2287.39999999851, 'positionName': 'RIGHT', 'positionCoords': [998.4, 335], 'bid': 9.07}]",84751.0,1669847466475,yogurt no spoon,steak,9.81,9.07,-0.7400000000000002,yogurt no spoon,798.2999999970198,799,798.5,True,u,86066.59999999404,1315.5999999940395,1669847467791,1316,HRV,HRV_0316,2022-11-30 22:35:22
49,"[{'imgObject': {}, 'id': 'baked potato', 'src': '/static/foodstim60/baked potato.jpg', 'key': 'u', 'origWidth': 409, 'origHeight': 410, 'width': 409, 'height': 410, 'widthPercent': 0.45, 'rescaleHeight': False, 'trialN': 49, 'loaded': True, 'loadedTime': 2287.2999999970198, 'positionName': 'LEFT', 'positionCoords': [512.6, 335], 'bid': 8.38}, {'imgObject': {}, 'id': 'apple slices', 'src': '/static/foodstim60/apple slices.jpg', 'key': 'i', 'origWidth': 409, 'origHeight': 410, 'width': 409, 'height': 410, 'widthPercent': 0.45, 'rescaleHeight': False, 'trialN': 49, 'loaded': True, 'loadedTime': 2146.39999999851, 'positionName': 'RIGHT', 'positionCoords': [998.4, 335], 'bid': 8.47}]",86066.69999999553,1669847467791,baked potato,apple slices,8.38,8.47,0.08999999999999986,baked potato,1083.1000000014901,1083,1083.2000000029802,True,u,87656.39999999851,1589.7000000029802,1669847469381,1590,HRV,HRV_0316,2022-11-30 22:35:22
50,"[{'imgObject': {}, 'id': 'yogurt no spoon', 'src': '/static/foodstim60/yogurt no spoon.jpg', 'key': 'u', 'origWidth': 411, 'origHeight': 410, 'width': 411, 'height': 410, 'widthPercent': 0.45, 'rescaleHeight': False, 'trialN': 50, 'loaded': True, 'loadedTime': 1877.3999999985099, 'positionName': 'LEFT', 'positionCoords': [510.6, 335], 'bid': 9.81}, {'imgObject': {}, 'id': 'ice cream sundae 002', 'src': '/static/foodstim60/ice cream sundae 002.jpg', 'key': 'i', 'origWidth': 409, 'origHeight': 409, 'width': 409, 'height': 409, 'widthPercent': 0.45, 'rescaleHeight': False, 'trialN': 50, 'loaded': True, 'loadedTime': 2289.89999999851, 'positionName': 'RIGHT', 'positionCoords': [998.4, 335.5], 'bid': 9.65}]",87656.39999999851,1669847469381,yogurt no spoon,ice cream sundae 002,9.81,9.65,-0.16000000000000014,yogurt no spoon,1110.3999999985099,1110,1110.5,True,u,89272.59999999404,1616.1999999955297,1669847470997,1616,HRV,HRV_0316,2022-11-30 22:35:22
51,"[{'imgObject': {}, 'id': 'Grapes', 'src': '/static/foodstim60/Grapes.jpg', 'key': 'u', 'origWidth': 411, 'origHeight': 411, 'width': 411, 'height': 411, 'widthPercent': 0.45, 'rescaleHeight': False, 'trialN': 51, 'loaded': True, 'loadedTime': 1920.0999999940395, 'positionName': 'LEFT', 'positionCoords': [510.6, 334.5], 'bid': 7.87}, {'imgObject': {}, 'id': 'sweetpotato', 'src': '/static/foodstim60/sweetpotato.jpg', 'key': 'i', 'origWidth': 410, 'origHeight': 410, 'width': 410, 'height': 410, 'widthPercent': 0.45, 'rescaleHeight': False, 'trialN': 51, 'loaded': True, 'loadedTime': 1908.8999999985099, 'positionName': 'RIGHT', 'positionCoords': [998.4, 335], 'bid': 9.46}]",89272.79999999702,1669847470997,Grapes,sweetpotato,7.87,9.46,1.5900000000000007,sweetpotato,1536.2000000029802,1536,1536.3999999985099,True,i,91311.59999999404,2038.7999999970198,1669847473036,2039,HRV,HRV_0316,2022-11-30 22:35:22
52,"[{'imgObject': {}, 'id': 'olives', 'src': '/static/foodstim60/olives.jpg', 'key': 'u', 'origWidth': 410, 'origHeight': 410, 'width': 410, 'height': 410, 'widthPercent': 0.45, 'rescaleHeight': False, 'trialN': 52, 'loaded': True, 'loadedTime': 2291.6999999955297, 'positionName': 'LEFT', 'positionCoords': [511.6, 335], 'bid': 0.16}, {'imgObject': {}, 'id': 'rigatoni', 'src': '/static/foodstim60/rigatoni.jpg', 'key': 'i', 'origWidth': 411, 'origHeight': 411, 'width': 411, 'height': 411, 'widthPercent': 0.45, 'rescaleHeight': False, 'trialN': 52, 'loaded': True, 'loadedTime': 1971.6999999955297, 'positionName': 'RIGHT', 'positionCoords': [998.4, 334.5], 'bid': 2.56}]",91311.69999999553,1669847473036,olives,rigatoni,0.16,2.56,2.4,rigatoni,1101.6000000014901,1102,1101.8000000044703,True,i,92924.89999999851,1613.2000000029802,1669847474649,1613,HRV,HRV_0316,2022-11-30 22:35:22
53,"[{'imgObject': {}, 'id': 'sushi w_condiments', 'src': '/static/foodstim60/sushi w_condiments.jpg', 'key': 'u', 'origWidth': 410, 'origHeight': 410, 'width': 410, 'height': 410, 'widthPercent': 0.45, 'rescaleHeight': False, 'trialN': 53, 'loaded': True, 'loadedTime': 2135.6999999955297, 'positionName': 'LEFT', 'positionCoords': [511.6, 335], 'bid': 0.17}, {'imgObject': {}, 'id': 'blueberries', 'src': '/static/foodstim60/blueberries.jpg', 'key': 'i', 'origWidth': 411, 'origHeight': 411, 'width': 411, 'height': 411, 'widthPercent': 0.45, 'rescaleHeight': False, 'trialN': 53, 'loaded': True, 'loadedTime': 2014.7999999970198, 'positionName': 'RIGHT', 'positionCoords': [998.4, 334.5], 'bid': 3.52}]",92925.0,1669847474649,sushi w_condiments,blueberries,0.17,3.52,3.35,blueberries,1141.3999999985099,1142,1141.5999999940395,True,i,94581.19999999553,1656.1999999955297,1669847476306,1657,HRV,HRV_0316,2022-11-30 22:35:22
54,"[{'imgObject': {}, 'id': 'cherries', 'src': '/static/foodstim60/cherries.jpg', 'key': 'u', 'origWidth': 410, 'origHeight': 411, 'width': 410, 'height': 411, 'widthPercent': 0.45, 'rescaleHeight': False, 'trialN': 54, 'loaded': True, 'loadedTime': 2221.0999999940395, 'positionName': 'LEFT', 'positionCoords': [511.6, 334.5], 'bid': 7.37}, {'imgObject': {}, 'id': 'raspberries', 'src': '/static/foodstim60/raspberries.jpg', 'key': 'i', 'origWidth': 411, 'origHeight': 411, 'width': 411, 'height': 411, 'widthPercent': 0.45, 'rescaleHeight': False, 'trialN': 54, 'loaded': True, 'loadedTime': 2293.0999999940395, 'positionName': 'RIGHT', 'positionCoords': [998.4, 334.5], 'bid': 7.69}]",94581.39999999851,1669847476306,cherries,raspberries,7.37,7.69,0.3200000000000003,raspberries,986.8999999985099,987,987.1000000014901,True,i,96080.79999999702,1499.3999999985099,1669847477805,1499,HRV,HRV_0316,2022-11-30 22:35:22
55,"[{'imgObject': {}, 'id': 'popsicles', 'src': '/static/foodstim60/popsicles.jpg', 'key': 'u', 'origWidth': 410, 'origHeight': 410, 'width': 410, 'height': 410, 'widthPercent': 0.45, 'rescaleHeight': False, 'trialN': 55, 'loaded': True, 'loadedTime': 2310.5, 'positionName': 'LEFT', 'positionCoords': [511.6, 335], 'bid': 2.56}, {'imgObject': {}, 'id': 'blueberries', 'src': '/static/foodstim60/blueberries.jpg', 'key': 'i', 'origWidth': 411, 'origHeight': 411, 'width': 411, 'height': 411, 'widthPercent': 0.45, 'rescaleHeight': False, 'trialN': 55, 'loaded': True, 'loadedTime': 2014.3999999985099, 'positionName': 'RIGHT', 'positionCoords': [998.4, 334.5], 'bid': 3.52}]",96080.89999999851,1669847477805,popsicles,blueberries,2.56,3.52,0.96,popsicles,1199.5,1200,1199.6999999955297,True,u,97785.0,1704.1000000014901,1669847479509,1704,HRV,HRV_0316,2022-11-30 22:35:22
56,"[{'imgObject': {}, 'id': 'olives', 'src': '/static/foodstim60/olives.jpg', 'key': 'u', 'origWidth': 410, 'origHeight': 410, 'width': 410, 'height': 410, 'widthPercent': 0.45, 'rescaleHeight': False, 'trialN': 56, 'loaded': True, 'loadedTime': 2291.7999999970198, 'positionName': 'LEFT', 'positionCoords': [511.6, 335], 'bid': 0.16}, {'imgObject': {}, 'id': 'edamame', 'src': '/static/foodstim60/edamame.jpg', 'key': 'i', 'origWidth': 409, 'origHeight': 410, 'width': 409, 'height': 410, 'widthPercent': 0.45, 'rescaleHeight': False, 'trialN': 56, 'loaded': True, 'loadedTime': 2295, 'positionName': 'RIGHT', 'positionCoords': [998.4, 335], 'bid': 0.13}]",97785.0,1669847479509,olives,edamame,0.16,0.13,-0.03,edamame,1703.1999999955297,1704,1703.5,True,i,100001.59999999404,2216.5999999940395,1669847481726,2217,HRV,HRV_0316,2022-11-30 22:35:22
57,"[{'imgObject': {}, 'id': 'bagel plain', 'src': '/static/foodstim60/bagel plain.jpg', 'key': 'u', 'origWidth': 410, 'origHeight': 410, 'width': 410, 'height': 410, 'widthPercent': 0.45, 'rescaleHeight': False, 'trialN': 57, 'loaded': True, 'loadedTime': 1898.2999999970198, 'positionName': 'LEFT', 'positionCoords': [511.6, 335], 'bid': 6.5}, {'imgObject': {}, 'id': 'cherries', 'src': '/static/foodstim60/cherries.jpg', 'key': 'i', 'origWidth': 410, 'origHeight': 411, 'width': 410, 'height': 411, 'widthPercent': 0.45, 'rescaleHeight': False, 'trialN': 57, 'loaded': True, 'loadedTime': 2221, 'positionName': 'RIGHT', 'positionCoords': [998.4, 334.5], 'bid': 7.37}]",100001.69999999553,1669847481726,bagel plain,cherries,6.5,7.37,0.8700000000000001,bagel plain,1306.8999999985099,1307,1307.1000000014901,True,u,101820.29999999702,1818.6000000014901,1669847483545,1819,HRV,HRV_0316,2022-11-30 22:35:22
58,"[{'imgObject': {}, 'id': 'eggs', 'src': '/static/foodstim60/eggs.jpg', 'key': 'u', 'origWidth': 409, 'origHeight': 409, 'width': 409, 'height': 409, 'widthPercent': 0.45, 'rescaleHeight': False, 'trialN': 58, 'loaded': True, 'loadedTime': 1836.8999999985099, 'positionName': 'LEFT', 'positionCoords': [512.6, 335.5], 'bid': 5.8500000000000005}, {'imgObject': {}, 'id': 'cantaloupe', 'src': '/static/foodstim60/cantaloupe.jpg', 'key': 'i', 'origWidth': 409, 'origHeight': 409, 'width': 409, 'height': 409, 'widthPercent': 0.45, 'rescaleHeight': False, 'trialN': 58, 'loaded': True, 'loadedTime': 2263.89999999851, 'positionName': 'RIGHT', 'positionCoords': [998.4, 335.5], 'bid': 4.0600000000000005}]",101820.39999999851,1669847483545,eggs,cantaloupe,5.8500000000000005,4.0600000000000005,-1.79,eggs,1415.8999999985099,1416,1416.1000000014901,True,u,103748.69999999553,1928.2999999970198,1669847485473,1928,HRV,HRV_0316,2022-11-30 22:35:22
59,"[{'imgObject': {}, 'id': 'seaweed', 'src': '/static/foodstim60/seaweed.jpg', 'key': 'u', 'origWidth': 410, 'origHeight': 410, 'width': 410, 'height': 410, 'widthPercent': 0.45, 'rescaleHeight': False, 'trialN': 59, 'loaded': True, 'loadedTime': 2296.7999999970198, 'positionName': 'LEFT', 'positionCoords': [511.6, 335], 'bid': 7.85}, {'imgObject': {}, 'id': 'roastedpotatoes', 'src': '/static/foodstim60/roastedpotatoes.jpg', 'key': 'i', 'origWidth': 409, 'origHeight': 410, 'width': 409, 'height': 410, 'widthPercent': 0.45, 'rescaleHeight': False, 'trialN': 59, 'loaded': True, 'loadedTime': 2189.5999999940395, 'positionName': 'RIGHT', 'positionCoords': [998.4, 335], 'bid': 9.42}]",103748.69999999553,1669847485473,seaweed,roastedpotatoes,7.85,9.42,1.5700000000000003,roastedpotatoes,1596.8000000044703,1597,1597.0,True,i,105855.59999999404,2106.89999999851,1669847487580,2107,HRV,HRV_0316,2022-11-30 22:35:22
60,"[{'imgObject': {}, 'id': 'fruitsalad', 'src': '/static/foodstim60/fruitsalad.jpg', 'key': 'u', 'origWidth': 410, 'origHeight': 410, 'width': 410, 'height': 410, 'widthPercent': 0.45, 'rescaleHeight': False, 'trialN': 60, 'loaded': True, 'loadedTime': 2241, 'positionName': 'LEFT', 'positionCoords': [511.6, 335], 'bid': 2.29}, {'imgObject': {}, 'id': 'lox', 'src': '/static/foodstim60/lox.jpg', 'key': 'i', 'origWidth': 410, 'origHeight': 411, 'width': 410, 'height': 411, 'widthPercent': 0.45, 'rescaleHeight': False, 'trialN': 60, 'loaded': True, 'loadedTime': 2297.7999999970198, 'positionName': 'RIGHT', 'positionCoords': [998.4, 334.5], 'bid': 0.13}]",105855.69999999553,1669847487580,fruitsalad,lox,2.29,0.13,-2.16,fruitsalad,1239.8999999985099,1240,1240.1000000014901,True,u,107604.39999999851,1748.7000000029802,1669847489329,1749,HRV,HRV_0316,2022-11-30 22:35:22
61,"[{'imgObject': {}, 'id': 'salad w chicken', 'src': '/static/foodstim60/salad w chicken.jpg', 'key': 'u', 'origWidth': 411, 'origHeight': 411, 'width': 411, 'height': 411, 'widthPercent': 0.45, 'rescaleHeight': False, 'trialN': 61, 'loaded': True, 'loadedTime': 1957.6999999955297, 'positionName': 'LEFT', 'positionCoords': [510.6, 334.5], 'bid': 9.46}, {'imgObject': {}, 'id': 'sweetpotato', 'src': '/static/foodstim60/sweetpotato.jpg', 'key': 'i', 'origWidth': 410, 'origHeight': 410, 'width': 410, 'height': 410, 'widthPercent': 0.45, 'rescaleHeight': False, 'trialN': 61, 'loaded': True, 'loadedTime': 1910.0999999940395, 'positionName': 'RIGHT', 'positionCoords': [998.4, 335], 'bid': 9.46}]",107604.5,1669847489329,salad w chicken,sweetpotato,9.46,9.46,0.0,salad w chicken,1343.0999999940395,1343,1343.2999999970198,True,u,109454.89999999851,1850.3999999985099,1669847491179,1850,HRV,HRV_0316,2022-11-30 22:35:22
62,"[{'imgObject': {}, 'id': 'Tribe humus pita', 'src': '/static/foodstim60/Tribe humus pita.jpg', 'key': 'u', 'origWidth': 411, 'origHeight': 411, 'width': 411, 'height': 411, 'widthPercent': 0.45, 'rescaleHeight': False, 'trialN': 62, 'loaded': True, 'loadedTime': 2069.39999999851, 'positionName': 'LEFT', 'positionCoords': [510.6, 334.5], 'bid': 4.98}, {'imgObject': {}, 'id': 'burger', 'src': '/static/foodstim60/burger.jpg', 'key': 'i', 'origWidth': 409, 'origHeight': 409, 'width': 409, 'height': 409, 'widthPercent': 0.45, 'rescaleHeight': False, 'trialN': 62, 'loaded': True, 'loadedTime': 1946.5999999940395, 'positionName': 'RIGHT', 'positionCoords': [998.4, 335.5], 'bid': 7.26}]",109454.89999999851,1669847491179,Tribe humus pita,burger,4.98,7.26,2.2799999999999994,burger,1336.6000000014901,1337,1336.7999999970198,True,i,111293.59999999404,1838.6999999955297,1669847493018,1839,HRV,HRV_0316,2022-11-30 22:35:22
63,"[{'imgObject': {}, 'id': 'ice cream sundae 002', 'src': '/static/foodstim60/ice cream sundae 002.jpg', 'key': 'u', 'origWidth': 409, 'origHeight': 409, 'width': 409, 'height': 409, 'widthPercent': 0.45, 'rescaleHeight': False, 'trialN': 63, 'loaded': True, 'loadedTime': 2289.6999999955297, 'positionName': 'LEFT', 'positionCoords': [512.6, 335.5], 'bid': 9.65}, {'imgObject': {}, 'id': 'mac & cheese', 'src': '/static/foodstim60/mac & cheese.jpg', 'key': 'i', 'origWidth': 410, 'origHeight': 410, 'width': 410, 'height': 410, 'widthPercent': 0.45, 'rescaleHeight': False, 'trialN': 63, 'loaded': True, 'loadedTime': 1963.2999999970198, 'positionName': 'RIGHT', 'positionCoords': [998.4, 335], 'bid': 9.78}]",111293.69999999553,1669847493018,ice cream sundae 002,mac & cheese,9.65,9.78,0.129999999999999,mac & cheese,1070.1000000014901,1070,1070.2000000029802,True,i,112879.79999999702,1586.1000000014901,1669847494604,1586,HRV,HRV_0316,2022-11-30 22:35:22
64,"[{'imgObject': {}, 'id': 'turkey sandwich', 'src': '/static/foodstim60/turkey sandwich.jpg', 'key': 'u', 'origWidth': 409, 'origHeight': 409, 'width': 409, 'height': 409, 'widthPercent': 0.45, 'rescaleHeight': False, 'trialN': 64, 'loaded': True, 'loadedTime': 2299.89999999851, 'positionName': 'LEFT', 'positionCoords': [512.6, 335.5], 'bid': 9.27}, {'imgObject': {}, 'id': 'banana', 'src': '/static/foodstim60/banana.jpg', 'key': 'i', 'origWidth': 410, 'origHeight': 410, 'width': 410, 'height': 410, 'widthPercent': 0.45, 'rescaleHeight': False, 'trialN': 64, 'loaded': True, 'loadedTime': 2080.5999999940395, 'positionName': 'RIGHT', 'positionCoords': [998.4, 335], 'bid': 9.89}]",112879.89999999851,1669847494604,turkey sandwich,banana,9.27,9.89,0.620000000000001,turkey sandwich,1092.5,1093,1092.6999999955297,True,u,114478.5,1598.6000000014901,1669847496203,1599,HRV,HRV_0316,2022-11-30 22:35:22
65,"[{'imgObject': {}, 'id': 'avocado', 'src': '/static/foodstim60/avocado.jpg', 'key': 'u', 'origWidth': 409, 'origHeight': 409, 'width': 409, 'height': 409, 'widthPercent': 0.45, 'rescaleHeight': False, 'trialN': 65, 'loaded': True, 'loadedTime': 2253.89999999851, 'positionName': 'LEFT', 'positionCoords': [512.6, 335.5], 'bid': 0.07}, {'imgObject': {}, 'id': 'lox', 'src': '/static/foodstim60/lox.jpg', 'key': 'i', 'origWidth': 410, 'origHeight': 411, 'width': 410, 'height': 411, 'widthPercent': 0.45, 'rescaleHeight': False, 'trialN': 65, 'loaded': True, 'loadedTime': 2297.89999999851, 'positionName': 'RIGHT', 'positionCoords': [998.4, 334.5], 'bid': 0.13}]",114478.59999999404,1669847496203,avocado,lox,0.07,0.13,0.06,avocado,2949.8000000044703,2950,2950.0,True,u,117938.19999999553,3459.60000000149,1669847499662,3459,HRV,HRV_0316,2022-11-30 22:35:22
66,"[{'imgObject': {}, 'id': 'raisin bran w milk', 'src': '/static/foodstim60/raisin bran w milk.jpg', 'key': 'u', 'origWidth': 411, 'origHeight': 411, 'width': 411, 'height': 411, 'widthPercent': 0.45, 'rescaleHeight': False, 'trialN': 66, 'loaded': True, 'loadedTime': 2300.1999999955297, 'positionName': 'LEFT', 'positionCoords': [510.6, 334.5], 'bid': 7.04}, {'imgObject': {}, 'id': 'cantaloupe', 'src': '/static/foodstim60/cantaloupe.jpg', 'key': 'i', 'origWidth': 409, 'origHeight': 409, 'width': 409, 'height': 409, 'widthPercent': 0.45, 'rescaleHeight': False, 'trialN': 66, 'loaded': True, 'loadedTime': 2273, 'positionName': 'RIGHT', 'positionCoords': [998.4, 335.5], 'bid': 4.0600000000000005}]",117938.29999999702,1669847499662,raisin bran w milk,cantaloupe,7.04,4.0600000000000005,-2.9799999999999995,raisin bran w milk,1675.0,1678,1675.2000000029802,True,u,120122.29999999702,2184.0,1669847501849,2187,HRV,HRV_0316,2022-11-30 22:35:22
67,"[{'imgObject': {}, 'id': 'lox', 'src': '/static/foodstim60/lox.jpg', 'key': 'u', 'origWidth': 410, 'origHeight': 411, 'width': 410, 'height': 411, 'widthPercent': 0.45, 'rescaleHeight': False, 'trialN': 67, 'loaded': True, 'loadedTime': 2298.1999999955297, 'positionName': 'LEFT', 'positionCoords': [511.6, 334.5], 'bid': 0.13}, {'imgObject': {}, 'id': 'hashbrowns', 'src': '/static/foodstim60/hashbrowns.jpg', 'key': 'i', 'origWidth': 411, 'origHeight': 410, 'width': 411, 'height': 410, 'widthPercent': 0.45, 'rescaleHeight': False, 'trialN': 67, 'loaded': True, 'loadedTime': 2168, 'positionName': 'RIGHT', 'positionCoords': [998.4, 335], 'bid': 0.11}]",120122.39999999851,1669847501849,lox,hashbrowns,0.13,0.11,-0.020000000000000004,hashbrowns,1761.8999999985099,1762,1762.1999999955297,True,i,122405.09999999404,2282.6999999955297,1669847504132,2283,HRV,HRV_0316,2022-11-30 22:35:22
68,"[{'imgObject': {}, 'id': 'corn cob', 'src': '/static/foodstim60/corn cob.jpg', 'key': 'u', 'origWidth': 411, 'origHeight': 411, 'width': 411, 'height': 411, 'widthPercent': 0.45, 'rescaleHeight': False, 'trialN': 68, 'loaded': True, 'loadedTime': 2302.39999999851, 'positionName': 'LEFT', 'positionCoords': [510.6, 334.5], 'bid': 0.04}, {'imgObject': {}, 'id': 'raisin bran w milk', 'src': '/static/foodstim60/raisin bran w milk.jpg', 'key': 'i', 'origWidth': 411, 'origHeight': 411, 'width': 411, 'height': 411, 'widthPercent': 0.45, 'rescaleHeight': False, 'trialN': 68, 'loaded': True, 'loadedTime': 2301.1999999955297, 'positionName': 'RIGHT', 'positionCoords': [998.4, 334.5], 'bid': 7.04}]",122405.09999999404,1669847504132,corn cob,raisin bran w milk,0.04,7.04,7.0,raisin bran w milk,1109.5,1109,1109.6000000014901,True,i,124022.5,1617.4000000059605,1669847505749,1617,HRV,HRV_0316,2022-11-30 22:35:22
69,"[{'imgObject': {}, 'id': 'bagel and cc', 'src': '/static/foodstim60/bagel and cc.jpg', 'key': 'u', 'origWidth': 410, 'origHeight': 410, 'width': 410, 'height': 410, 'widthPercent': 0.45, 'rescaleHeight': False, 'trialN': 69, 'loaded': True, 'loadedTime': 1977, 'positionName': 'LEFT', 'positionCoords': [511.6, 335], 'bid': 7.34}, {'imgObject': {}, 'id': 'fried eggs', 'src': '/static/foodstim60/fried eggs.jpg', 'key': 'i', 'origWidth': 410, 'origHeight': 410, 'width': 410, 'height': 410, 'widthPercent': 0.45, 'rescaleHeight': False, 'trialN': 69, 'loaded': True, 'loadedTime': 2283.89999999851, 'positionName': 'RIGHT', 'positionCoords': [998.4, 335], 'bid': 6.3}]",124022.59999999404,1669847505749,bagel and cc,fried eggs,7.34,6.3,-1.04,bagel and cc,1283.7000000029802,1284,1283.8000000044703,True,u,125823.09999999404,1800.5,1669847507550,1801,HRV,HRV_0316,2022-11-30 22:35:22
70,"[{'imgObject': {}, 'id': 'rigatoni', 'src': '/static/foodstim60/rigatoni.jpg', 'key': 'u', 'origWidth': 411, 'origHeight': 411, 'width': 411, 'height': 411, 'widthPercent': 0.45, 'rescaleHeight': False, 'trialN': 70, 'loaded': True, 'loadedTime': 1970.5, 'positionName': 'LEFT', 'positionCoords': [510.6, 334.5], 'bid': 2.56}, {'imgObject': {}, 'id': 'fruitsalad', 'src': '/static/foodstim60/fruitsalad.jpg', 'key': 'i', 'origWidth': 410, 'origHeight': 410, 'width': 410, 'height': 410, 'widthPercent': 0.45, 'rescaleHeight': False, 'trialN': 70, 'loaded': True, 'loadedTime': 2240, 'positionName': 'RIGHT', 'positionCoords': [998.4, 335], 'bid': 2.29}]",125823.19999999553,1669847507550,rigatoni,fruitsalad,2.56,2.29,-0.27,fruitsalad,1039.6000000014901,1040,1039.8000000044703,True,i,127369.79999999702,1546.6000000014901,1669847509096,1546,HRV,HRV_0316,2022-11-30 22:35:22
71,"[{'imgObject': {}, 'id': 'grilled chicken strips', 'src': '/static/foodstim60/grilled chicken strips.jpg', 'key': 'u', 'origWidth': 410, 'origHeight': 411, 'width': 410, 'height': 411, 'widthPercent': 0.45, 'rescaleHeight': False, 'trialN': 71, 'loaded': True, 'loadedTime': 1997.0999999940395, 'positionName': 'LEFT', 'positionCoords': [511.6, 334.5], 'bid': 8.55}, {'imgObject': {}, 'id': 'salad w chicken', 'src': '/static/foodstim60/salad w chicken.jpg', 'key': 'i', 'origWidth': 411, 'origHeight': 411, 'width': 411, 'height': 411, 'widthPercent': 0.45, 'rescaleHeight': False, 'trialN': 71, 'loaded': True, 'loadedTime': 1957.7999999970198, 'positionName': 'RIGHT', 'positionCoords': [998.4, 334.5], 'bid': 9.46}]",127369.89999999851,1669847509096,grilled chicken strips,salad w chicken,8.55,9.46,0.9100000000000001,salad w chicken,1241.5,1242,1241.6999999955297,True,i,129125.39999999851,1755.5,1669847510852,1756,HRV,HRV_0316,2022-11-30 22:35:22
72,"[{'imgObject': {}, 'id': 'rigatoni', 'src': '/static/foodstim60/rigatoni.jpg', 'key': 'u', 'origWidth': 411, 'origHeight': 411, 'width': 411, 'height': 411, 'widthPercent': 0.45, 'rescaleHeight': False, 'trialN': 72, 'loaded': True, 'loadedTime': 1969.1999999955297, 'positionName': 'LEFT', 'positionCoords': [510.6, 334.5], 'bid': 2.56}, {'imgObject': {}, 'id': 'corn cob', 'src': '/static/foodstim60/corn cob.jpg', 'key': 'i', 'origWidth': 411, 'origHeight': 411, 'width': 411, 'height': 411, 'widthPercent': 0.45, 'rescaleHeight': False, 'trialN': 72, 'loaded': True, 'loadedTime': 2303.2999999970198, 'positionName': 'RIGHT', 'positionCoords': [998.4, 334.5], 'bid': 0.04}]",129125.59999999404,1669847510852,rigatoni,corn cob,2.56,0.04,-2.52,rigatoni,1397.6000000014901,1398,1397.8000000044703,True,u,131042.0,1916.4000000059605,1669847512769,1917,HRV,HRV_0316,2022-11-30 22:35:22
73,"[{'imgObject': {}, 'id': 'Tribe humus pita', 'src': '/static/foodstim60/Tribe humus pita.jpg', 'key': 'u', 'origWidth': 411, 'origHeight': 411, 'width': 411, 'height': 411, 'widthPercent': 0.45, 'rescaleHeight': False, 'trialN': 73, 'loaded': True, 'loadedTime': 2069.2999999970198, 'positionName': 'LEFT', 'positionCoords': [510.6, 334.5], 'bid': 4.98}, {'imgObject': {}, 'id': 'salmon', 'src': '/static/foodstim60/salmon.jpg', 'key': 'i', 'origWidth': 410, 'origHeight': 409, 'width': 410, 'height': 409, 'widthPercent': 0.45, 'rescaleHeight': False, 'trialN': 73, 'loaded': True, 'loadedTime': 2000, 'positionName': 'RIGHT', 'positionCoords': [998.4, 335.5], 'bid': 0.16}]",131042.19999999553,1669847512769,Tribe humus pita,salmon,4.98,0.16,-4.82,Tribe humus pita,1022.2000000029802,1022,1022.3000000044703,True,u,132572.69999999553,1530.5,1669847514299,1530,HRV,HRV_0316,2022-11-30 22:35:22
74,"[{'imgObject': {}, 'id': 'grilled chicken strips', 'src': '/static/foodstim60/grilled chicken strips.jpg', 'key': 'u', 'origWidth': 410, 'origHeight': 411, 'width': 410, 'height': 411, 'widthPercent': 0.45, 'rescaleHeight': False, 'trialN': 74, 'loaded': True, 'loadedTime': 1998.0999999940395, 'positionName': 'LEFT', 'positionCoords': [511.6, 334.5], 'bid': 8.55}, {'imgObject': {}, 'id': 'apple slices', 'src': '/static/foodstim60/apple slices.jpg', 'key': 'i', 'origWidth': 409, 'origHeight': 410, 'width': 409, 'height': 410, 'widthPercent': 0.45, 'rescaleHeight': False, 'trialN': 74, 'loaded': True, 'loadedTime': 2146.6999999955297, 'positionName': 'RIGHT', 'positionCoords': [998.4, 335], 'bid': 8.47}]",132572.79999999702,1669847514299,grilled chicken strips,apple slices,8.55,8.47,-0.08000000000000007,grilled chicken strips,1420.8999999985099,1421,1421.1000000014901,True,u,134505.79999999702,1933.0,1669847516232,1933,HRV,HRV_0316,2022-11-30 22:35:22
75,"[{'imgObject': {}, 'id': 'shreddedwheatwithmilk', 'src': '/static/foodstim60/shreddedwheatwithmilk.jpg', 'key': 'u', 'origWidth': 410, 'origHeight': 410, 'width': 410, 'height': 410, 'widthPercent': 0.45, 'rescaleHeight': False, 'trialN': 75, 'loaded': True, 'loadedTime': 1974, 'positionName': 'LEFT', 'positionCoords': [511.6, 335], 'bid': 2.48}, {'imgObject': {}, 'id': 'cantaloupe', 'src': '/static/foodstim60/cantaloupe.jpg', 'key': 'i', 'origWidth': 409, 'origHeight': 409, 'width': 409, 'height': 409, 'widthPercent': 0.45, 'rescaleHeight': False, 'trialN': 75, 'loaded': True, 'loadedTime': 2263.2999999970198, 'positionName': 'RIGHT', 'positionCoords': [998.4, 335.5], 'bid': 4.0600000000000005}]",134506.0,1669847516232,shreddedwheatwithmilk,cantaloupe,2.48,4.0600000000000005,1.5800000000000005,cantaloupe,1262.3999999985099,1263,1262.5,True,i,136271.5,1765.5,1669847517998,1766,HRV,HRV_0316,2022-11-30 22:35:22
76,"[{'imgObject': {}, 'id': 'rigatoni and sauce', 'src': '/static/foodstim60/rigatoni and sauce.jpg', 'key': 'u', 'origWidth': 410, 'origHeight': 411, 'width': 410, 'height': 411, 'widthPercent': 0.45, 'rescaleHeight': False, 'trialN': 76, 'loaded': True, 'loadedTime': 1952, 'positionName': 'LEFT', 'positionCoords': [511.6, 334.5], 'bid': 6.890000000000001}, {'imgObject': {}, 'id': 'tacos', 'src': '/static/foodstim60/tacos.jpg', 'key': 'i', 'origWidth': 411, 'origHeight': 411, 'width': 411, 'height': 411, 'widthPercent': 0.45, 'rescaleHeight': False, 'trialN': 76, 'loaded': True, 'loadedTime': 2252.2999999970198, 'positionName': 'RIGHT', 'positionCoords': [998.4, 334.5], 'bid': 8.26}]",136271.69999999553,1669847517998,rigatoni and sauce,tacos,6.890000000000001,8.26,1.3699999999999992,tacos,1022.7000000029802,1023,1022.8999999985099,True,i,137811.69999999553,1540.0,1669847519538,1540,HRV,HRV_0316,2022-11-30 22:35:22
77,"[{'imgObject': {}, 'id': 'strawberries', 'src': '/static/foodstim60/strawberries.jpg', 'key': 'u', 'origWidth': 410, 'origHeight': 410, 'width': 410, 'height': 410, 'widthPercent': 0.45, 'rescaleHeight': False, 'trialN': 77, 'loaded': True, 'loadedTime': 2146.7999999970198, 'positionName': 'LEFT', 'positionCoords': [511.6, 335], 'bid': 9}, {'imgObject': {}, 'id': 'ice cream sundae 002', 'src': '/static/foodstim60/ice cream sundae 002.jpg', 'key': 'i', 'origWidth': 409, 'origHeight': 409, 'width': 409, 'height': 409, 'widthPercent': 0.45, 'rescaleHeight': False, 'trialN': 77, 'loaded': True, 'loadedTime': 2289.7999999970198, 'positionName': 'RIGHT', 'positionCoords': [998.4, 335.5], 'bid': 9.65}]",137811.79999999702,1669847519538,strawberries,ice cream sundae 002,9.0,9.65,0.6500000000000004,strawberries,1118.0,1119,1118.2000000029802,True,u,139445.5,1633.7000000029802,1669847521172,1634,HRV,HRV_0316,2022-11-30 22:35:22
78,"[{'imgObject': {}, 'id': 'kiwi', 'src': '/static/foodstim60/kiwi.jpg', 'key': 'u', 'origWidth': 410, 'origHeight': 410, 'width': 410, 'height': 410, 'widthPercent': 0.45, 'rescaleHeight': False, 'trialN': 78, 'loaded': True, 'loadedTime': 2304.5, 'positionName': 'LEFT', 'positionCoords': [511.6, 335], 'bid': 2.01}, {'imgObject': {}, 'id': 'hashbrowns', 'src': '/static/foodstim60/hashbrowns.jpg', 'key': 'i', 'origWidth': 411, 'origHeight': 410, 'width': 411, 'height': 410, 'widthPercent': 0.45, 'rescaleHeight': False, 'trialN': 78, 'loaded': True, 'loadedTime': 2178.5, 'positionName': 'RIGHT', 'positionCoords': [998.4, 335], 'bid': 0.11}]",139445.59999999404,1669847521172,kiwi,hashbrowns,2.01,0.11,-1.8999999999999997,kiwi,1969.8000000044703,1970,1970.0,True,u,141918.79999999702,2473.2000000029802,1669847523645,2473,HRV,HRV_0316,2022-11-30 22:35:22
79,"[{'imgObject': {}, 'id': 'apple slices', 'src': '/static/foodstim60/apple slices.jpg', 'key': 'u', 'origWidth': 409, 'origHeight': 410, 'width': 409, 'height': 410, 'widthPercent': 0.45, 'rescaleHeight': False, 'trialN': 79, 'loaded': True, 'loadedTime': 2146.5999999940395, 'positionName': 'LEFT', 'positionCoords': [512.6, 335], 'bid': 8.47}, {'imgObject': {}, 'id': 'ice cream sundae 002', 'src': '/static/foodstim60/ice cream sundae 002.jpg', 'key': 'i', 'origWidth': 409, 'origHeight': 409, 'width': 409, 'height': 409, 'widthPercent': 0.45, 'rescaleHeight': False, 'trialN': 79, 'loaded': True, 'loadedTime': 2290, 'positionName': 'RIGHT', 'positionCoords': [998.4, 335.5], 'bid': 9.65}]",141918.8999999985,1669847523646,apple slices,ice cream sundae 002,8.47,9.65,1.1799999999999997,apple slices,1430.5,1430,1430.6999999955297,True,u,143858.59999999404,1939.6999999955297,1669847525585,1939,HRV,HRV_0316,2022-11-30 22:35:22
80,"[{'imgObject': {}, 'id': 'grilled chicken strips', 'src': '/static/foodstim60/grilled chicken strips.jpg', 'key': 'u', 'origWidth': 410, 'origHeight': 411, 'width': 410, 'height': 411, 'widthPercent': 0.45, 'rescaleHeight': False, 'trialN': 80, 'loaded': True, 'loadedTime': 1998, 'positionName': 'LEFT', 'positionCoords': [511.6, 334.5], 'bid': 8.55}, {'imgObject': {}, 'id': 'Grapes', 'src': '/static/foodstim60/Grapes.jpg', 'key': 'i', 'origWidth': 411, 'origHeight': 411, 'width': 411, 'height': 411, 'widthPercent': 0.45, 'rescaleHeight': False, 'trialN': 80, 'loaded': True, 'loadedTime': 1921.0999999940395, 'positionName': 'RIGHT', 'positionCoords': [998.4, 334.5], 'bid': 7.87}]",143858.69999999553,1669847525585,grilled chicken strips,Grapes,8.55,7.87,-0.6800000000000006,Grapes,1601.8999999985099,1602,1602.2000000029802,True,i,145968.69999999553,2110.0,1669847527695,2110,HRV,HRV_0316,2022-11-30 22:35:22
81,"[{'imgObject': {}, 'id': 'raspberries', 'src': '/static/foodstim60/raspberries.jpg', 'key': 'u', 'origWidth': 411, 'origHeight': 411, 'width': 411, 'height': 411, 'widthPercent': 0.45, 'rescaleHeight': False, 'trialN': 81, 'loaded': True, 'loadedTime': 2293.5, 'positionName': 'LEFT', 'positionCoords': [510.6, 334.5], 'bid': 7.69}, {'imgObject': {}, 'id': 'olives', 'src': '/static/foodstim60/olives.jpg', 'key': 'i', 'origWidth': 410, 'origHeight': 410, 'width': 410, 'height': 410, 'widthPercent': 0.45, 'rescaleHeight': False, 'trialN': 81, 'loaded': True, 'loadedTime': 2291, 'positionName': 'RIGHT', 'positionCoords': [998.4, 335], 'bid': 0.16}]",145968.69999999553,1669847527695,raspberries,olives,7.69,0.16,-7.53,raspberries,999.2000000029802,1000,999.3999999985099,True,u,147477.0,1508.3000000044703,1669847529204,1509,HRV,HRV_0316,2022-11-30 22:35:22
82,"[{'imgObject': {}, 'id': 'avocado', 'src': '/static/foodstim60/avocado.jpg', 'key': 'u', 'origWidth': 409, 'origHeight': 409, 'width': 409, 'height': 409, 'widthPercent': 0.45, 'rescaleHeight': False, 'trialN': 82, 'loaded': True, 'loadedTime': 2263.0999999940395, 'positionName': 'LEFT', 'positionCoords': [512.6, 335.5], 'bid': 0.07}, {'imgObject': {}, 'id': 'cherry tomato', 'src': '/static/foodstim60/cherry tomato.jpg', 'key': 'i', 'origWidth': 410, 'origHeight': 410, 'width': 410, 'height': 410, 'widthPercent': 0.45, 'rescaleHeight': False, 'trialN': 82, 'loaded': True, 'loadedTime': 2103.89999999851, 'positionName': 'RIGHT', 'positionCoords': [998.4, 335], 'bid': 1.36}]",147477.09999999404,1669847529204,avocado,cherry tomato,0.07,1.36,1.29,cherry tomato,1209.4000000059605,1209,1209.6000000014901,True,i,149196.19999999553,1719.1000000014901,1669847530923,1719,HRV,HRV_0316,2022-11-30 22:35:22
83,"[{'imgObject': {}, 'id': 'cherry tomato', 'src': '/static/foodstim60/cherry tomato.jpg', 'key': 'u', 'origWidth': 410, 'origHeight': 410, 'width': 410, 'height': 410, 'widthPercent': 0.45, 'rescaleHeight': False, 'trialN': 83, 'loaded': True, 'loadedTime': 2094.0999999940395, 'positionName': 'LEFT', 'positionCoords': [511.6, 335], 'bid': 1.36}, {'imgObject': {}, 'id': 'fried eggs', 'src': '/static/foodstim60/fried eggs.jpg', 'key': 'i', 'origWidth': 410, 'origHeight': 410, 'width': 410, 'height': 410, 'widthPercent': 0.45, 'rescaleHeight': False, 'trialN': 83, 'loaded': True, 'loadedTime': 2283.7999999970198, 'positionName': 'RIGHT', 'positionCoords': [998.4, 335], 'bid': 6.3}]",149196.3999999985,1669847530923,cherry tomato,fried eggs,1.36,6.3,4.9399999999999995,fried eggs,856.0,856,856.1999999955297,True,i,150565.0,1368.6000000014901,1669847532292,1369,HRV,HRV_0316,2022-11-30 22:35:22
84,"[{'imgObject': {}, 'id': 'sweetpotato', 'src': '/static/foodstim60/sweetpotato.jpg', 'key': 'u', 'origWidth': 410, 'origHeight': 410, 'width': 410, 'height': 410, 'widthPercent': 0.45, 'rescaleHeight': False, 'trialN': 84, 'loaded': True, 'loadedTime': 1909.8999999985099, 'positionName': 'LEFT', 'positionCoords': [511.6, 335], 'bid': 9.46}, {'imgObject': {}, 'id': 'yogurt no spoon', 'src': '/static/foodstim60/yogurt no spoon.jpg', 'key': 'i', 'origWidth': 411, 'origHeight': 410, 'width': 411, 'height': 410, 'widthPercent': 0.45, 'rescaleHeight': False, 'trialN': 84, 'loaded': True, 'loadedTime': 1867.5999999940395, 'positionName': 'RIGHT', 'positionCoords': [998.4, 335], 'bid': 9.81}]",150565.19999999553,1669847532292,sweetpotato,yogurt no spoon,9.46,9.81,0.34999999999999964,yogurt no spoon,873.3000000044703,873,873.5,True,i,151944.3999999985,1379.2000000029802,1669847533671,1379,HRV,HRV_0316,2022-11-30 22:35:22
85,"[{'imgObject': {}, 'id': 'burger', 'src': '/static/foodstim60/burger.jpg', 'key': 'u', 'origWidth': 409, 'origHeight': 409, 'width': 409, 'height': 409, 'widthPercent': 0.45, 'rescaleHeight': False, 'trialN': 85, 'loaded': True, 'loadedTime': 1946.8999999985099, 'positionName': 'LEFT', 'positionCoords': [512.6, 335.5], 'bid': 7.26}, {'imgObject': {}, 'id': 'rigatoni and sauce', 'src': '/static/foodstim60/rigatoni and sauce.jpg', 'key': 'i', 'origWidth': 410, 'origHeight': 411, 'width': 410, 'height': 411, 'widthPercent': 0.45, 'rescaleHeight': False, 'trialN': 85, 'loaded': True, 'loadedTime': 1949.5999999940395, 'positionName': 'RIGHT', 'positionCoords': [998.4, 334.5], 'bid': 6.890000000000001}]",151944.5,1669847533671,burger,rigatoni and sauce,7.26,6.890000000000001,-0.3699999999999992,burger,1072.8999999985099,1073,1073.0999999940395,True,u,153540.19999999553,1595.6999999955297,1669847535267,1596,HRV,HRV_0316,2022-11-30 22:35:22
86,"[{'imgObject': {}, 'id': 'turkey sandwich', 'src': '/static/foodstim60/turkey sandwich.jpg', 'key': 'u', 'origWidth': 409, 'origHeight': 409, 'width': 409, 'height': 409, 'widthPercent': 0.45, 'rescaleHeight': False, 'trialN': 86, 'loaded': True, 'loadedTime': 2299.6999999955297, 'positionName': 'LEFT', 'positionCoords': [512.6, 335.5], 'bid': 9.27}, {'imgObject': {}, 'id': 'luckycharms', 'src': '/static/foodstim60/luckycharms.jpg', 'key': 'i', 'origWidth': 410, 'origHeight': 409, 'width': 410, 'height': 409, 'widthPercent': 0.45, 'rescaleHeight': False, 'trialN': 86, 'loaded': True, 'loadedTime': 1960.6999999955297, 'positionName': 'RIGHT', 'positionCoords': [998.4, 335.5], 'bid': 9.61}]",153540.19999999553,1669847535267,turkey sandwich,luckycharms,9.27,9.61,0.33999999999999986,turkey sandwich,1193.6000000014901,1194,1193.8000000044703,True,u,155238.0,1697.8000000044703,1669847536965,1698,HRV,HRV_0316,2022-11-30 22:35:22
87,"[{'imgObject': {}, 'id': 'omelette', 'src': '/static/foodstim60/omelette.jpg', 'key': 'u', 'origWidth': 410, 'origHeight': 409, 'width': 410, 'height': 409, 'widthPercent': 0.45, 'rescaleHeight': False, 'trialN': 87, 'loaded': True, 'loadedTime': 2305.1999999955297, 'positionName': 'LEFT', 'positionCoords': [511.6, 335.5], 'bid': 7.41}, {'imgObject': {}, 'id': 'bagel and cc', 'src': '/static/foodstim60/bagel and cc.jpg', 'key': 'i', 'origWidth': 410, 'origHeight': 410, 'width': 410, 'height': 410, 'widthPercent': 0.45, 'rescaleHeight': False, 'trialN': 87, 'loaded': True, 'loadedTime': 1977.2999999970198, 'positionName': 'RIGHT', 'positionCoords': [998.4, 335], 'bid': 7.34}]",155238.09999999404,1669847536965,omelette,bagel and cc,7.41,7.34,-0.07000000000000028,bagel and cc,1058.6000000014901,1058,1058.8000000044703,True,i,156809.29999999702,1571.2000000029802,1669847538536,1571,HRV,HRV_0316,2022-11-30 22:35:22
88,"[{'imgObject': {}, 'id': 'baked potato', 'src': '/static/foodstim60/baked potato.jpg', 'key': 'u', 'origWidth': 409, 'origHeight': 410, 'width': 409, 'height': 410, 'widthPercent': 0.45, 'rescaleHeight': False, 'trialN': 88, 'loaded': True, 'loadedTime': 2287, 'positionName': 'LEFT', 'positionCoords': [512.6, 335], 'bid': 8.38}, {'imgObject': {}, 'id': 'strawberries', 'src': '/static/foodstim60/strawberries.jpg', 'key': 'i', 'origWidth': 410, 'origHeight': 410, 'width': 410, 'height': 410, 'widthPercent': 0.45, 'rescaleHeight': False, 'trialN': 88, 'loaded': True, 'loadedTime': 2157.1999999955297, 'positionName': 'RIGHT', 'positionCoords': [998.4, 335], 'bid': 9}]",156809.3999999985,1669847538536,baked potato,strawberries,8.38,9.0,0.6199999999999992,baked potato,1632.0,1632,1632.1000000014901,True,u,158951.29999999702,2141.89999999851,1669847540678,2142,HRV,HRV_0316,2022-11-30 22:35:22
89,"[{'imgObject': {}, 'id': 'hotdog w must', 'src': '/static/foodstim60/hotdog w must.jpg', 'key': 'u', 'origWidth': 409, 'origHeight': 409, 'width': 409, 'height': 409, 'widthPercent': 0.45, 'rescaleHeight': False, 'trialN': 89, 'loaded': True, 'loadedTime': 2306.5, 'positionName': 'LEFT', 'positionCoords': [512.6, 335.5], 'bid': 6.11}, {'imgObject': {}, 'id': 'mashed potato', 'src': '/static/foodstim60/mashed potato.jpg', 'key': 'i', 'origWidth': 409, 'origHeight': 409, 'width': 409, 'height': 409, 'widthPercent': 0.45, 'rescaleHeight': False, 'trialN': 89, 'loaded': True, 'loadedTime': 2230.39999999851, 'positionName': 'RIGHT', 'positionCoords': [998.4, 335.5], 'bid': 9.61}]",158951.3999999985,1669847540678,hotdog w must,mashed potato,6.11,9.61,3.499999999999999,mashed potato,1844.1000000014901,1844,1844.3999999985099,True,i,161313.5,2362.10000000149,1669847543040,2362,HRV,HRV_0316,2022-11-30 22:35:22
90,"[{'imgObject': {}, 'id': 'eggsalad', 'src': '/static/foodstim60/eggsalad.jpg', 'key': 'u', 'origWidth': 410, 'origHeight': 409, 'width': 410, 'height': 409, 'widthPercent': 0.45, 'rescaleHeight': False, 'trialN': 90, 'loaded': True, 'loadedTime': 1810.8999999985099, 'positionName': 'LEFT', 'positionCoords': [511.6, 335.5], 'bid': 6.63}, {'imgObject': {}, 'id': 'raisin bran w milk', 'src': '/static/foodstim60/raisin bran w milk.jpg', 'key': 'i', 'origWidth': 411, 'origHeight': 411, 'width': 411, 'height': 411, 'widthPercent': 0.45, 'rescaleHeight': False, 'trialN': 90, 'loaded': True, 'loadedTime': 2301.89999999851, 'positionName': 'RIGHT', 'positionCoords': [998.4, 334.5], 'bid': 7.04}]",184102.0,1669847565836,eggsalad,raisin bran w milk,6.63,7.04,0.41000000000000014,eggsalad,1642.3999999985099,1642,1642.5,True,u,186249.8999999985,2147.89999999851,1669847567984,2148,HRV,HRV_0316,2022-11-30 22:35:22
91,"[{'imgObject': {}, 'id': 'turkey sandwich', 'src': '/static/foodstim60/turkey sandwich.jpg', 'key': 'u', 'origWidth': 409, 'origHeight': 409, 'width': 409, 'height': 409, 'widthPercent': 0.45, 'rescaleHeight': False, 'trialN': 91, 'loaded': True, 'loadedTime': 2300, 'positionName': 'LEFT', 'positionCoords': [512.6, 335.5], 'bid': 9.27}, {'imgObject': {}, 'id': 'steak', 'src': '/static/foodstim60/steak.jpg', 'key': 'i', 'origWidth': 410, 'origHeight': 410, 'width': 410, 'height': 410, 'widthPercent': 0.45, 'rescaleHeight': False, 'trialN': 91, 'loaded': True, 'loadedTime': 2288.5999999940395, 'positionName': 'RIGHT', 'positionCoords': [998.4, 335], 'bid': 9.07}]",186250.0,1669847567984,turkey sandwich,steak,9.27,9.07,-0.1999999999999993,turkey sandwich,1131.7999999970198,1132,1132.0999999940395,True,u,187892.3999999985,1642.3999999985099,1669847569626,1642,HRV,HRV_0316,2022-11-30 22:35:22
92,"[{'imgObject': {}, 'id': 'hotdog w must', 'src': '/static/foodstim60/hotdog w must.jpg', 'key': 'u', 'origWidth': 409, 'origHeight': 409, 'width': 409, 'height': 409, 'widthPercent': 0.45, 'rescaleHeight': False, 'trialN': 92, 'loaded': True, 'loadedTime': 2306.5999999940395, 'positionName': 'LEFT', 'positionCoords': [512.6, 335.5], 'bid': 6.11}, {'imgObject': {}, 'id': 'omelette', 'src': '/static/foodstim60/omelette.jpg', 'key': 'i', 'origWidth': 410, 'origHeight': 409, 'width': 410, 'height': 409, 'widthPercent': 0.45, 'rescaleHeight': False, 'trialN': 92, 'loaded': True, 'loadedTime': 2305.5, 'positionName': 'RIGHT', 'positionCoords': [998.4, 335.5], 'bid': 7.41}]",187892.59999999404,1669847569626,hotdog w must,omelette,6.11,7.41,1.2999999999999998,omelette,940.0,941,940.2000000029802,True,i,189343.8999999985,1451.3000000044703,1669847571078,1452,HRV,HRV_0316,2022-11-30 22:35:22
93,"[{'imgObject': {}, 'id': 'raspberries', 'src': '/static/foodstim60/raspberries.jpg', 'key': 'u', 'origWidth': 411, 'origHeight': 411, 'width': 411, 'height': 411, 'widthPercent': 0.45, 'rescaleHeight': False, 'trialN': 93, 'loaded': True, 'loadedTime': 2292.39999999851, 'positionName': 'LEFT', 'positionCoords': [510.6, 334.5], 'bid': 7.69}, {'imgObject': {}, 'id': 'turkeysandwich', 'src': '/static/foodstim60/turkeysandwich.jpg', 'key': 'i', 'origWidth': 409, 'origHeight': 409, 'width': 409, 'height': 409, 'widthPercent': 0.45, 'rescaleHeight': False, 'trialN': 93, 'loaded': True, 'loadedTime': 2200.2999999970198, 'positionName': 'RIGHT', 'positionCoords': [998.4, 335.5], 'bid': 9.38}]",189344.0,1669847571078,raspberries,turkeysandwich,7.69,9.38,1.6900000000000004,turkeysandwich,831.5,831,831.5999999940395,True,i,190687.19999999553,1343.1999999955297,1669847572421,1343,HRV,HRV_0316,2022-11-30 22:35:22
94,"[{'imgObject': {}, 'id': 'fruitsalad', 'src': '/static/foodstim60/fruitsalad.jpg', 'key': 'u', 'origWidth': 410, 'origHeight': 410, 'width': 410, 'height': 410, 'widthPercent': 0.45, 'rescaleHeight': False, 'trialN': 94, 'loaded': True, 'loadedTime': 2240.89999999851, 'positionName': 'LEFT', 'positionCoords': [511.6, 335], 'bid': 2.29}, {'imgObject': {}, 'id': 'grilled chicken strips', 'src': '/static/foodstim60/grilled chicken strips.jpg', 'key': 'i', 'origWidth': 410, 'origHeight': 411, 'width': 410, 'height': 411, 'widthPercent': 0.45, 'rescaleHeight': False, 'trialN': 94, 'loaded': True, 'loadedTime': 1998.5999999940395, 'positionName': 'RIGHT', 'positionCoords': [998.4, 334.5], 'bid': 8.55}]",190687.29999999702,1669847572421,fruitsalad,grilled chicken strips,2.29,8.55,6.260000000000001,grilled chicken strips,1110.1000000014901,1110,1110.2999999970198,True,i,192310.8999999985,1623.6000000014901,1669847574045,1624,HRV,HRV_0316,2022-11-30 22:35:22
95,"[{'imgObject': {}, 'id': 'bagel plain', 'src': '/static/foodstim60/bagel plain.jpg', 'key': 'u', 'origWidth': 410, 'origHeight': 410, 'width': 410, 'height': 410, 'widthPercent': 0.45, 'rescaleHeight': False, 'trialN': 95, 'loaded': True, 'loadedTime': 1888.3999999985099, 'positionName': 'LEFT', 'positionCoords': [511.6, 335], 'bid': 6.5}, {'imgObject': {}, 'id': 'kiwi', 'src': '/static/foodstim60/kiwi.jpg', 'key': 'i', 'origWidth': 410, 'origHeight': 410, 'width': 410, 'height': 410, 'widthPercent': 0.45, 'rescaleHeight': False, 'trialN': 95, 'loaded': True, 'loadedTime': 2304.39999999851, 'positionName': 'RIGHT', 'positionCoords': [998.4, 335], 'bid': 2.01}]",192310.8999999985,1669847574045,bagel plain,kiwi,6.5,2.01,-4.49,bagel plain,918.8999999985099,919,919.1000000014901,True,u,193745.79999999702,1434.8999999985099,1669847575480,1435,HRV,HRV_0316,2022-11-30 22:35:22
96,"[{'imgObject': {}, 'id': 'omelette', 'src': '/static/foodstim60/omelette.jpg', 'key': 'u', 'origWidth': 410, 'origHeight': 409, 'width': 410, 'height': 409, 'widthPercent': 0.45, 'rescaleHeight': False, 'trialN': 96, 'loaded': True, 'loadedTime': 2305.2999999970198, 'positionName': 'LEFT', 'positionCoords': [511.6, 335.5], 'bid': 7.41}, {'imgObject': {}, 'id': 'edamame', 'src': '/static/foodstim60/edamame.jpg', 'key': 'i', 'origWidth': 409, 'origHeight': 410, 'width': 409, 'height': 410, 'widthPercent': 0.45, 'rescaleHeight': False, 'trialN': 96, 'loaded': True, 'loadedTime': 2294.39999999851, 'positionName': 'RIGHT', 'positionCoords': [998.4, 335], 'bid': 0.13}]",193745.8999999985,1669847575480,omelette,edamame,7.41,0.13,-7.28,omelette,1060.7999999970198,1061,1061.0,True,u,195316.69999999553,1570.7999999970198,1669847577050,1570,HRV,HRV_0316,2022-11-30 22:35:22
97,"[{'imgObject': {}, 'id': 'cocktailshrimp', 'src': '/static/foodstim60/cocktailshrimp.jpg', 'key': 'u', 'origWidth': 410, 'origHeight': 410, 'width': 410, 'height': 410, 'widthPercent': 0.45, 'rescaleHeight': False, 'trialN': 97, 'loaded': True, 'loadedTime': 2210, 'positionName': 'LEFT', 'positionCoords': [511.6, 335], 'bid': 0.97}, {'imgObject': {}, 'id': 'cherry tomato', 'src': '/static/foodstim60/cherry tomato.jpg', 'key': 'i', 'origWidth': 410, 'origHeight': 410, 'width': 410, 'height': 410, 'widthPercent': 0.45, 'rescaleHeight': False, 'trialN': 97, 'loaded': True, 'loadedTime': 2094.0999999940395, 'positionName': 'RIGHT', 'positionCoords': [998.4, 335], 'bid': 1.36}]",195316.69999999553,1669847577051,cocktailshrimp,cherry tomato,0.97,1.36,0.3900000000000001,cherry tomato,985.8000000044703,986,986.0,True,i,196812.09999999404,1495.3999999985099,1669847578546,1495,HRV,HRV_0316,2022-11-30 22:35:22
98,"[{'imgObject': {}, 'id': 'rigatoni', 'src': '/static/foodstim60/rigatoni.jpg', 'key': 'u', 'origWidth': 411, 'origHeight': 411, 'width': 411, 'height': 411, 'widthPercent': 0.45, 'rescaleHeight': False, 'trialN': 98, 'loaded': True, 'loadedTime': 1971.0999999940395, 'positionName': 'LEFT', 'positionCoords': [510.6, 334.5], 'bid': 2.56}, {'imgObject': {}, 'id': 'Tribe humus pita', 'src': '/static/foodstim60/Tribe humus pita.jpg', 'key': 'i', 'origWidth': 411, 'origHeight': 411, 'width': 411, 'height': 411, 'widthPercent': 0.45, 'rescaleHeight': False, 'trialN': 98, 'loaded': True, 'loadedTime': 2059.39999999851, 'positionName': 'RIGHT', 'positionCoords': [998.4, 334.5], 'bid': 4.98}]",196812.19999999553,1669847578546,rigatoni,Tribe humus pita,2.56,4.98,2.4200000000000004,Tribe humus pita,1077.2000000029802,1077,1077.3000000044703,True,i,198399.5,1587.3000000044703,1669847580133,1587,HRV,HRV_0316,2022-11-30 22:35:22
99,"[{'imgObject': {}, 'id': 'roastedpotatoes', 'src': '/static/foodstim60/roastedpotatoes.jpg', 'key': 'u', 'origWidth': 409, 'origHeight': 410, 'width': 409, 'height': 410, 'widthPercent': 0.45, 'rescaleHeight': False, 'trialN': 99, 'loaded': True, 'loadedTime': 2179.5999999940395, 'positionName': 'LEFT', 'positionCoords': [512.6, 335], 'bid': 9.42}, {'imgObject': {}, 'id': 'turkey sandwich', 'src': '/static/foodstim60/turkey sandwich.jpg', 'key': 'i', 'origWidth': 409, 'origHeight': 409, 'width': 409, 'height': 409, 'widthPercent': 0.45, 'rescaleHeight': False, 'trialN': 99, 'loaded': True, 'loadedTime': 2300, 'positionName': 'RIGHT', 'positionCoords': [998.4, 335.5], 'bid': 9.27}]",198399.59999999404,1669847580133,roastedpotatoes,turkey sandwich,9.42,9.27,-0.15000000000000036,turkey sandwich,1068.3000000044703,1069,1068.5,True,i,199975.29999999702,1575.7000000029802,1669847581709,1576,HRV,HRV_0316,2022-11-30 22:35:22
100,"[{'imgObject': {}, 'id': 'cantaloupe', 'src': '/static/foodstim60/cantaloupe.jpg', 'key': 'u', 'origWidth': 409, 'origHeight': 409, 'width': 409, 'height': 409, 'widthPercent': 0.45, 'rescaleHeight': False, 'trialN': 100, 'loaded': True, 'loadedTime': 2272.7999999970198, 'positionName': 'LEFT', 'positionCoords': [512.6, 335.5], 'bid': 4.0600000000000005}, {'imgObject': {}, 'id': 'turkeysandwich', 'src': '/static/foodstim60/turkeysandwich.jpg', 'key': 'i', 'origWidth': 409, 'origHeight': 409, 'width': 409, 'height': 409, 'widthPercent': 0.45, 'rescaleHeight': False, 'trialN': 100, 'loaded': True, 'loadedTime': 2199.89999999851, 'positionName': 'RIGHT', 'positionCoords': [998.4, 335.5], 'bid': 9.38}]",199975.5,1669847581709,cantaloupe,turkeysandwich,4.0600000000000005,9.38,5.32,turkeysandwich,987.7999999970198,988,988.0,True,i,201475.0,1499.5,1669847583209,1500,HRV,HRV_0316,2022-11-30 22:35:22
101,"[{'imgObject': {}, 'id': 'lox', 'src': '/static/foodstim60/lox.jpg', 'key': 'u', 'origWidth': 410, 'origHeight': 411, 'width': 410, 'height': 411, 'widthPercent': 0.45, 'rescaleHeight': False, 'trialN': 101, 'loaded': True, 'loadedTime': 2297.7999999970198, 'positionName': 'LEFT', 'positionCoords': [511.6, 334.5], 'bid': 0.13}, {'imgObject': {}, 'id': 'blackbeanswithrice', 'src': '/static/foodstim60/blackbeanswithrice.jpg', 'key': 'i', 'origWidth': 410, 'origHeight': 410, 'width': 410, 'height': 410, 'widthPercent': 0.45, 'rescaleHeight': False, 'trialN': 101, 'loaded': True, 'loadedTime': 2114.6999999955297, 'positionName': 'RIGHT', 'positionCoords': [998.4, 335], 'bid': 0.21}]",201475.09999999404,1669847583209,lox,blackbeanswithrice,0.13,0.21,0.07999999999999999,blackbeanswithrice,962.3000000044703,962,962.5,True,i,202938.8999999985,1463.8000000044703,1669847584673,1464,HRV,HRV_0316,2022-11-30 22:35:22
102,"[{'imgObject': {}, 'id': 'raspberries', 'src': '/static/foodstim60/raspberries.jpg', 'key': 'u', 'origWidth': 411, 'origHeight': 411, 'width': 411, 'height': 411, 'widthPercent': 0.45, 'rescaleHeight': False, 'trialN': 102, 'loaded': True, 'loadedTime': 2293.0999999940395, 'positionName': 'LEFT', 'positionCoords': [510.6, 334.5], 'bid': 7.69}, {'imgObject': {}, 'id': 'rigatoni and sauce', 'src': '/static/foodstim60/rigatoni and sauce.jpg', 'key': 'i', 'origWidth': 410, 'origHeight': 411, 'width': 410, 'height': 411, 'widthPercent': 0.45, 'rescaleHeight': False, 'trialN': 102, 'loaded': True, 'loadedTime': 1952.2999999970198, 'positionName': 'RIGHT', 'positionCoords': [998.4, 334.5], 'bid': 6.890000000000001}]",202939.09999999404,1669847584673,raspberries,rigatoni and sauce,7.69,6.890000000000001,-0.7999999999999998,raspberries,1372.7000000029802,1373,1373.0,True,u,204814.0,1874.9000000059605,1669847586548,1875,HRV,HRV_0316,2022-11-30 22:35:22
103,"[{'imgObject': {}, 'id': 'rigatoni and sauce', 'src': '/static/foodstim60/rigatoni and sauce.jpg', 'key': 'u', 'origWidth': 410, 'origHeight': 411, 'width': 410, 'height': 411, 'widthPercent': 0.45, 'rescaleHeight': False, 'trialN': 103, 'loaded': True, 'loadedTime': 1951.6999999955297, 'positionName': 'LEFT', 'positionCoords': [511.6, 334.5], 'bid': 6.890000000000001}, {'imgObject': {}, 'id': 'banana', 'src': '/static/foodstim60/banana.jpg', 'key': 'i', 'origWidth': 410, 'origHeight': 410, 'width': 410, 'height': 410, 'widthPercent': 0.45, 'rescaleHeight': False, 'trialN': 103, 'loaded': True, 'loadedTime': 2080.6999999955297, 'positionName': 'RIGHT', 'positionCoords': [998.4, 335], 'bid': 9.89}]",204814.09999999404,1669847586548,rigatoni and sauce,banana,6.890000000000001,9.89,3.0,banana,1546.5,1547,1546.6000000014901,True,i,206867.59999999404,2053.5,1669847588601,2053,HRV,HRV_0316,2022-11-30 22:35:22
104,"[{'imgObject': {}, 'id': 'cheerios', 'src': '/static/foodstim60/cheerios.jpg', 'key': 'u', 'origWidth': 409, 'origHeight': 410, 'width': 409, 'height': 410, 'widthPercent': 0.45, 'rescaleHeight': False, 'trialN': 104, 'loaded': True, 'loadedTime': 2050.2999999970198, 'positionName': 'LEFT', 'positionCoords': [512.6, 335], 'bid': 5.92}, {'imgObject': {}, 'id': 'cherries', 'src': '/static/foodstim60/cherries.jpg', 'key': 'i', 'origWidth': 410, 'origHeight': 411, 'width': 410, 'height': 411, 'widthPercent': 0.45, 'rescaleHeight': False, 'trialN': 104, 'loaded': True, 'loadedTime': 2230.1999999955297, 'positionName': 'RIGHT', 'positionCoords': [998.4, 334.5], 'bid': 7.37}]",206867.69999999553,1669847588601,cheerios,cherries,5.92,7.37,1.4500000000000002,cheerios,955.8000000044703,956,956.0,True,u,208331.59999999404,1463.8999999985099,1669847590065,1464,HRV,HRV_0316,2022-11-30 22:35:22
105,"[{'imgObject': {}, 'id': 'cherry tomato', 'src': '/static/foodstim60/cherry tomato.jpg', 'key': 'u', 'origWidth': 410, 'origHeight': 410, 'width': 410, 'height': 410, 'widthPercent': 0.45, 'rescaleHeight': False, 'trialN': 105, 'loaded': True, 'loadedTime': 2103.5999999940395, 'positionName': 'LEFT', 'positionCoords': [511.6, 335], 'bid': 1.36}, {'imgObject': {}, 'id': 'apple slices', 'src': '/static/foodstim60/apple slices.jpg', 'key': 'i', 'origWidth': 409, 'origHeight': 410, 'width': 409, 'height': 410, 'widthPercent': 0.45, 'rescaleHeight': False, 'trialN': 105, 'loaded': True, 'loadedTime': 2146.1999999955297, 'positionName': 'RIGHT', 'positionCoords': [998.4, 335], 'bid': 8.47}]",208331.69999999553,1669847590066,cherry tomato,apple slices,1.36,8.47,7.11,apple slices,1274.1000000014901,1274,1274.5,True,i,210114.5,1782.8000000044703,1669847591848,1782,HRV,HRV_0316,2022-11-30 22:35:22
106,"[{'imgObject': {}, 'id': 'raspberries', 'src': '/static/foodstim60/raspberries.jpg', 'key': 'u', 'origWidth': 411, 'origHeight': 411, 'width': 411, 'height': 411, 'widthPercent': 0.45, 'rescaleHeight': False, 'trialN': 106, 'loaded': True, 'loadedTime': 2293.1999999955297, 'positionName': 'LEFT', 'positionCoords': [510.6, 334.5], 'bid': 7.69}, {'imgObject': {}, 'id': 'omelette', 'src': '/static/foodstim60/omelette.jpg', 'key': 'i', 'origWidth': 410, 'origHeight': 409, 'width': 410, 'height': 409, 'widthPercent': 0.45, 'rescaleHeight': False, 'trialN': 106, 'loaded': True, 'loadedTime': 2305.1999999955297, 'positionName': 'RIGHT', 'positionCoords': [998.4, 335.5], 'bid': 7.41}]",210114.59999999404,1669847591848,raspberries,omelette,7.69,7.41,-0.28000000000000025,omelette,1090.9000000059605,1092,1091.1000000014901,True,i,211715.3999999985,1600.8000000044703,1669847593449,1601,HRV,HRV_0316,2022-11-30 22:35:22
107,"[{'imgObject': {}, 'id': 'hotdog w must', 'src': '/static/foodstim60/hotdog w must.jpg', 'key': 'u', 'origWidth': 409, 'origHeight': 409, 'width': 409, 'height': 409, 'widthPercent': 0.45, 'rescaleHeight': False, 'trialN': 107, 'loaded': True, 'loadedTime': 2306.6999999955297, 'positionName': 'LEFT', 'positionCoords': [512.6, 335.5], 'bid': 6.11}, {'imgObject': {}, 'id': 'blackbeanswithrice', 'src': '/static/foodstim60/blackbeanswithrice.jpg', 'key': 'i', 'origWidth': 410, 'origHeight': 410, 'width': 410, 'height': 410, 'widthPercent': 0.45, 'rescaleHeight': False, 'trialN': 107, 'loaded': True, 'loadedTime': 2113.7999999970198, 'positionName': 'RIGHT', 'positionCoords': [998.4, 335], 'bid': 0.21}]",211715.5,1669847593449,hotdog w must,blackbeanswithrice,6.11,0.21,-5.9,blackbeanswithrice,878.7999999970198,879,879.0999999940395,True,i,213108.79999999702,1393.2999999970198,1669847594843,1394,HRV,HRV_0316,2022-11-30 22:35:22
108,"[{'imgObject': {}, 'id': 'chickenfingers', 'src': '/static/foodstim60/chickenfingers.jpg', 'key': 'u', 'origWidth': 410, 'origHeight': 410, 'width': 410, 'height': 410, 'widthPercent': 0.45, 'rescaleHeight': False, 'trialN': 108, 'loaded': True, 'loadedTime': 2079.5, 'positionName': 'LEFT', 'positionCoords': [511.6, 335], 'bid': 8.870000000000001}, {'imgObject': {}, 'id': 'burrito', 'src': '/static/foodstim60/burrito.jpg', 'key': 'i', 'origWidth': 410, 'origHeight': 410, 'width': 410, 'height': 410, 'widthPercent': 0.45, 'rescaleHeight': False, 'trialN': 108, 'loaded': True, 'loadedTime': 2125.89999999851, 'positionName': 'RIGHT', 'positionCoords': [998.4, 335], 'bid': 8.93}]",213108.8999999985,1669847594843,chickenfingers,burrito,8.870000000000001,8.93,0.05999999999999872,chickenfingers,1026.5,1026,1026.7999999970198,True,u,214651.69999999553,1542.7999999970198,1669847596385,1542,HRV,HRV_0316,2022-11-30 22:35:22
