success,trial_type,trial_index,time_elapsed,internal_node_id,Block,TrialNumber,TrialTime,trialTimeDiff,FPS_avg,FPS_med,FPS_mode,TrialDur,winResizeTime,rt,block,button_pressed,MotCoh,MotDir,ColCoh,Color,ChoiceKey,Choice,Accuracy,RT,nFrames,FPS,PPD,missTrial,missTrialMsg,onsetDelay,fullScreenExitTime,canvCenter,TrialType,Score,BlockTrial,stimulus,button_labels,exp,subjectId,date
True,fullscreen,0,2135,0.0-0.0,0.0,1.0,,,,,,,,,,,,,,,,,,,,,,,,,,,,,,,,HRV,HRV_0316,2022-11-30 23:02:09
,wl-check-fps,1,7119,0.0-1.0,0.0,2.0,"[2447.8, 2448.3, 2463.5, 2480.1, 2496.8, 2513.4, 2530.2, 2546.7, 2563.4, 2580.1, 2596.9, 2613.5, 2630.1, 2646.7, 2663.5, 2680.1, 2696.7, 2713.4, 2731, 2746.7, 2763.4, 2780.1, 2796.7, 2813.5, 2830.1, 2846.8, 2863.4, 2880.1, 2896.7, 2913.4, 2930.1, 2946.7, 2963.4, 2980.1, 2996.7, 3013.4, 3030.1, 3046.7, 3063.4, 3080.1, 3096.8, 3113.4, 3130, 3146.9, 3163.4, 3180.1, 3196.8, 3213.4, 3230.1, 3246.8, 3263.4, 3280.5, 3296.7, 3313.5, 3330.1, 3346.9, 3363.4, 3380.4, 3396.7, 3413.4, 3430.1, 3446.7, 3463.4, 3480.1, 3496.7, 3513.4, 3530.1, 3546.6, 3563.4, 3580, 3596.7, 3613.4, 3630, 3646.7, 3663.4, 3680.1, 3696.7, 3713.4, 3730.3, 3746.7, 3763.4, 3780.1, 3796.7, 3813.3, 3830, 3846.7, 3863.3, 3880, 3896.7, 3913.4, 3930, 3946.7, 3963.3, 3980, 3996.7, 4013.3, 4030, 4046.7, 4063.4, 4080, 4096.7, 4113.3, 4130, 4146.6, 4163.3, 4179.9, 4196.7, 4213.4, 4230, 4246.7, 4263.3, 4280.1, 4296.7, 4313.3, 4330.1, 4346.6, 4363.3, 4380, 4396.7, 4413.4, 4429.9, 4446.7, 4463.3, 4480, 4496.7, 4513.3, 4530, 4546.6, 4563.3, 4580, 4596.7, 4613.3, 4630, 4646.6, 4663.4, 4679.9, 4696.6, 4713.2, 4730, 4746.7, 4763.3, 4779.9, 4796.7, 4813.3, 4830, 4846.6, 4863.3, 4880, 4896.6, 4913.2, 4929.9, 4946.7, 4963.3, 4979.9, 4996.6, 5013.3, 5029.9, 5046.6, 5063.3, 5079.9, 5096.6, 5113.3, 5129.9, 5146.6, 5163.3, 5180, 5196.6, 5213.3, 5229.9, 5246.6, 5263.3, 5279.9, 5296.6, 5313.3, 5330, 5346.6, 5363.4, 5380, 5396.6, 5413.3, 5430, 5446.7, 5463.3, 5480, 5496.7, 5513.2, 5529.9, 5546.6, 5563.3, 5579.9, 5596.6, 5613.3, 5629.9, 5646.7, 5663.2, 5680, 5696.6, 5713.3, 5729.9, 5746.7, 5763.2, 5779.9, 5796.8, 5813.3, 5829.9, 5846.6, 5863.2, 5879.9, 5896.7, 5913.3, 5929.9, 5946.6, 5963.3, 5979.9, 5996.7, 6013.2, 6029.9, 6046.6, 6063.3, 6079.9, 6096.6, 6113.2, 6129.8, 6146.6, 6163.3, 6179.9, 6196.6, 6213.2, 6229.9, 6246.5, 6263.2, 6279.8, 6296.5, 6313.2, 6329.9, 6346.5, 6363.2, 6379.9, 6396.5, 6413.2, 6430, 6446.6, 6463.2, 6479.9, 6496.5, 6513.2, 6529.9, 6546.5, 6563.2, 6579.9, 6596.5, 6613.2, 6629.9, 6646.5, 6663.3, 6679.9, 6696.6, 6713.2, 6729.9, 6746.5, 6763.2, 6779.8, 6796.5, 6813.2, 6829.8, 6846.6, 6863.2, 6879.8, 6896.5, 6913.2, 6929.9, 6946.6, 6963.2, 6979.8, 6996.4, 7013.2, 7029.8, 7046.5, 7063.1, 7079.9, 7096.5, 7113.3, 7129.8, 7146.6, 7163.1, 7179.8, 7196.5, 7213.1, 7229.8, 7246.5, 7263.1, 7279.8, 7296.5, 7313.2, 7329.8, 7346.4, 7363.2, 7379.8, 7396.5, 7413.2]","[0.8, 0.5, 15.2, 16.6, 16.7, 16.6, 16.8, 16.5, 16.7, 16.7, 16.8, 16.6, 16.6, 16.6, 16.8, 16.6, 16.6, 16.7, 17.6, 15.7, 16.7, 16.7, 16.6, 16.8, 16.6, 16.7, 16.6, 16.7, 16.6, 16.7, 16.7, 16.6, 16.7, 16.7, 16.6, 16.7, 16.7, 16.6, 16.7, 16.7, 16.7, 16.6, 16.6, 16.9, 16.5, 16.7, 16.7, 16.6, 16.7, 16.7, 16.6, 17.1, 16.2, 16.8, 16.6, 16.8, 16.5, 17, 16.3, 16.7, 16.7, 16.6, 16.7, 16.7, 16.6, 16.7, 16.7, 16.5, 16.8, 16.6, 16.7, 16.7, 16.6, 16.7, 16.7, 16.7, 16.6, 16.7, 16.9, 16.4, 16.7, 16.7, 16.6, 16.6, 16.7, 16.7, 16.6, 16.7, 16.7, 16.7, 16.6, 16.7, 16.6, 16.7, 16.7, 16.6, 16.7, 16.7, 16.7, 16.6, 16.7, 16.6, 16.7, 16.6, 16.7, 16.6, 16.8, 16.7, 16.6, 16.7, 16.6, 16.8, 16.6, 16.6, 16.8, 16.5, 16.7, 16.7, 16.7, 16.7, 16.5, 16.8, 16.6, 16.7, 16.7, 16.6, 16.7, 16.6, 16.7, 16.7, 16.7, 16.6, 16.7, 16.6, 16.8, 16.5, 16.7, 16.6, 16.8, 16.7, 16.6, 16.6, 16.8, 16.6, 16.7, 16.6, 16.7, 16.7, 16.6, 16.6, 16.7, 16.8, 16.6, 16.6, 16.7, 16.7, 16.6, 16.7, 16.7, 16.6, 16.7, 16.7, 16.6, 16.7, 16.7, 16.7, 16.6, 16.7, 16.6, 16.7, 16.7, 16.6, 16.7, 16.7, 16.7, 16.6, 16.8, 16.6, 16.6, 16.7, 16.7, 16.7, 16.6, 16.7, 16.7, 16.5, 16.7, 16.7, 16.7, 16.6, 16.7, 16.7, 16.6, 16.8, 16.5, 16.8, 16.6, 16.7, 16.6, 16.8, 16.5, 16.7, 16.9, 16.5, 16.6, 16.7, 16.6, 16.7, 16.8, 16.6, 16.6, 16.7, 16.7, 16.6, 16.8, 16.5, 16.7, 16.7, 16.7, 16.6, 16.7, 16.6, 16.6, 16.8, 16.7, 16.6, 16.7, 16.6, 16.7, 16.6, 16.7, 16.6, 16.7, 16.7, 16.7, 16.6, 16.7, 16.7, 16.6, 16.7, 16.8, 16.6, 16.6, 16.7, 16.6, 16.7, 16.7, 16.6, 16.7, 16.7, 16.6, 16.7, 16.7, 16.6, 16.8, 16.6, 16.7, 16.6, 16.7, 16.6, 16.7, 16.6, 16.7, 16.7, 16.6, 16.8, 16.6, 16.6, 16.7, 16.7, 16.7, 16.7, 16.6, 16.6, 16.6, 16.8, 16.6, 16.7, 16.6, 16.8, 16.6, 16.8, 16.5, 16.8, 16.5, 16.7, 16.7, 16.6, 16.7, 16.7, 16.6, 16.7, 16.7, 16.7, 16.6, 16.6, 16.8, 16.6, 16.7, 16.7]",60.0,60.0,60.0,4982.9,[],,,,,,,,,,,,,,,,,,,,,,,,,HRV,HRV_0316,2022-11-30 23:02:09
,wl-html-keyboard-response,2,116216,0.0-2.0-0.0,0.0,3.0,,,,,,,,107091.70000000298,0.0,0,,,,,,,,,,,,,,,,,,,,,,HRV,HRV_0316,2022-11-30 23:02:09
,wl-rdm,3,123628,0.0-3.0-0.0,0.0,4.0,,,,,,,[],,,,0.0,0.0,87.9,0.0,u,0.0,True,1829.5,110.0,60.0,40.0,False,,3000.0,[],"[960, 540]",ColorTask_Demo,,,,,HRV,HRV_0316,2022-11-30 23:02:09
,wl-rdm,4,128777,0.0-3.0-1.0,0.0,5.0,,,,,,,[],,,,0.0,0.0,87.9,1.0,i,1.0,True,1056.2999999970198,64.0,60.0,40.0,False,,2000.0,[],"[960, 540]",ColorTask_Demo,,,,,HRV,HRV_0316,2022-11-30 23:02:09
,wl-html-keyboard-response,5,158805,0.0-3.0-2.0,0.0,6.0,,,,,,,,28016.10000000149,0.0,1,,,,,,,,,,,,,,,,,,,,,,HRV,HRV_0316,2022-11-30 23:02:09
,wl-html-keyboard-response,6,175929,0.0-4.0-0.0,0.0,7.0,,,,,,,,15113.79999999702,0.0,0,,,,,,,,,,,,,,,,,,,,,,HRV,HRV_0316,2022-11-30 23:02:09
,wl-html-keyboard-response,7,191736,0.0-5.0-0.0,0.0,8.0,,,,,,,,13801.39999999851,0.0,0,,,,,,,,,,,,,,,,,,,,,,HRV,HRV_0316,2022-11-30 23:02:09
,wl-rdm,8,194806,0.0-6.0-0.0,0.0,9.0,,,,,,,[],,,,,,56.4,1.0,i,1.0,True,1628.5,98.0,60.0,40.0,False,,377.73117113487035,[],"[960, 540]",ColorTask,1.0,1.0,,,HRV,HRV_0316,2022-11-30 23:02:09
,wl-rdm,9,197290,0.0-6.1-0.1,0.0,10.0,,,,,,,[],,,,,,73.6,0.0,u,0.0,True,1054.6999999955297,64.0,60.0,40.0,False,,342.03671121015367,[],"[960, 540]",ColorTask,2.0,2.0,,,HRV,HRV_0316,2022-11-30 23:02:09
,wl-rdm,10,199323,0.0-6.2-0.2,0.0,11.0,,,,,,,[],,,,,,62.5,0.0,u,0.0,True,707.4999999925494,43.0,60.0,40.0,False,,247.18789762588872,[],"[960, 540]",ColorTask,3.0,3.0,,,HRV,HRV_0316,2022-11-30 23:02:09
,wl-rdm,11,201439,0.0-6.3-0.3,0.0,12.0,,,,,,,[],,,,,,50.0,1.0,i,1.0,True,653.2000000029802,40.0,60.0,40.0,False,,377.3823838450815,[],"[960, 540]",ColorTask,4.0,4.0,,,HRV,HRV_0316,2022-11-30 23:02:09
,wl-rdm,12,203456,0.0-6.4-0.4,0.0,13.0,,,,,,,[],,,,,,62.5,1.0,i,1.0,True,711.3999999985099,43.0,60.0,40.0,False,,224.74565905372904,[],"[960, 540]",ColorTask,5.0,5.0,,,HRV,HRV_0316,2022-11-30 23:02:09
,wl-rdm,13,205356,0.0-6.5-0.5,0.0,14.0,,,,,,,[],,,,,,73.6,1.0,i,1.0,True,605.4000000059605,37.0,60.0,40.0,False,,215.8797624230956,[],"[960, 540]",ColorTask,6.0,6.0,,,HRV,HRV_0316,2022-11-30 23:02:09
,wl-rdm,14,207439,0.0-6.6-0.6,0.0,15.0,,,,,,,[],,,,,,56.4,0.0,u,0.0,True,677.0,41.0,60.0,40.0,False,,324.57210754787604,[],"[960, 540]",ColorTask,7.0,7.0,,,HRV,HRV_0316,2022-11-30 23:02:09
,wl-rdm,15,209339,0.0-6.7-0.7,0.0,16.0,,,,,,,[],,,,,,87.9,0.0,u,0.0,True,615.2999999970198,37.0,60.0,40.0,False,,211.66348133333946,[],"[960, 540]",ColorTask,8.0,8.0,,,HRV,HRV_0316,2022-11-30 23:02:09
,wl-rdm,16,211289,0.0-6.8-0.8,0.0,17.0,,,,,,,[],,,,,,53.2,1.0,i,1.0,True,559.5999999940395,34.0,60.0,40.0,False,,315.8409314017365,[],"[960, 540]",ColorTask,9.0,9.0,,,HRV,HRV_0316,2022-11-30 23:02:09
,wl-rdm,17,213205,0.0-6.9-0.9,0.0,18.0,,,,,,,[],,,,,,87.9,0.0,u,0.0,True,636.0,39.0,60.0,40.0,False,,202.08468815769075,[],"[960, 540]",ColorTask,10.0,10.0,,,HRV,HRV_0316,2022-11-30 23:02:09
,wl-rdm,18,215255,0.0-6.10-0.10,0.0,19.0,,,,,,,[],,,,,,56.4,0.0,i,1.0,False,660.0999999940395,40.0,60.0,40.0,False,,306.4760479265822,[],"[960, 540]",ColorTask,9.0,11.0,,,HRV,HRV_0316,2022-11-30 23:02:09
,wl-rdm,19,217255,0.0-6.11-0.11,0.0,20.0,,,,,,,[],,,,,,87.9,1.0,i,1.0,True,530.0,32.0,60.0,40.0,False,,399.13965600006986,[],"[960, 540]",ColorTask,10.0,12.0,,,HRV,HRV_0316,2022-11-30 23:02:09
,wl-rdm,20,219172,0.0-6.12-0.12,0.0,21.0,,,,,,,[],,,,,,62.5,1.0,i,1.0,True,546.3999999985099,33.0,60.0,40.0,False,,295.11163164406224,[],"[960, 540]",ColorTask,11.0,13.0,,,HRV,HRV_0316,2022-11-30 23:02:09
,wl-rdm,21,221022,0.0-6.13-0.13,0.0,22.0,,,,,,,[],,,,,,73.6,0.0,u,0.0,True,545.3999999985099,33.0,60.0,40.0,False,,227.7351190209559,[],"[960, 540]",ColorTask,12.0,14.0,,,HRV,HRV_0316,2022-11-30 23:02:09
,wl-rdm,22,223055,0.0-6.14-0.14,0.0,23.0,,,,,,,[],,,,,,50.0,0.0,i,1.0,False,748.2000000029802,45.0,60.0,40.0,False,,213.11314769386502,[],"[960, 540]",ColorTask,11.0,15.0,,,HRV,HRV_0316,2022-11-30 23:02:09
,wl-rdm,23,225238,0.0-6.15-0.15,0.0,24.0,,,,,,,[],,,,,,50.0,1.0,i,1.0,True,712.0,43.0,60.0,40.0,False,,393.61995068057206,[],"[960, 540]",ColorTask,12.0,16.0,,,HRV,HRV_0316,2022-11-30 23:02:09
,wl-rdm,24,227105,0.0-6.16-0.16,0.0,25.0,,,,,,,[],,,,,,62.5,0.0,u,0.0,True,565.0,34.0,60.0,40.0,False,,218.08262586847115,[],"[960, 540]",ColorTask,13.0,17.0,,,HRV,HRV_0316,2022-11-30 23:02:09
,wl-rdm,25,229105,0.0-6.17-0.17,0.0,26.0,,,,,,,[],,,,,,56.4,1.0,i,1.0,True,611.8999999985099,37.0,60.0,40.0,False,,310.9675891751033,[],"[960, 540]",ColorTask,14.0,18.0,,,HRV,HRV_0316,2022-11-30 23:02:09
,wl-rdm,26,231254,0.0-6.18-0.18,0.0,27.0,,,,,,,[],,,,,,53.2,0.0,i,1.0,False,777.8999999985099,47.0,60.0,40.0,False,,285.4619359602357,[],"[960, 540]",ColorTask,13.0,19.0,,,HRV,HRV_0316,2022-11-30 23:02:09
,wl-rdm,27,233254,0.0-6.19-0.19,0.0,28.0,,,,,,,[],,,,,,62.5,0.0,u,0.0,True,701.1999999955297,43.0,60.0,40.0,False,,214.7196176625935,[],"[960, 540]",ColorTask,14.0,20.0,,,HRV,HRV_0316,2022-11-30 23:02:09
,wl-rdm,28,235138,0.0-6.20-0.20,0.0,29.0,,,,,,,[],,,,,,73.6,1.0,i,1.0,True,580.1999999955297,35.0,60.0,40.0,False,,240.27688275744453,[],"[960, 540]",ColorTask,15.0,21.0,,,HRV,HRV_0316,2022-11-30 23:02:09
,wl-rdm,29,236987,0.0-6.21-0.21,0.0,30.0,,,,,,,[],,,,,,73.6,1.0,i,1.0,True,530.7000000029802,32.0,60.0,40.0,False,,243.24841546989816,[],"[960, 540]",ColorTask,16.0,22.0,,,HRV,HRV_0316,2022-11-30 23:02:09
,wl-rdm,30,238821,0.0-6.22-0.22,0.0,31.0,,,,,,,[],,,,,,50.0,1.0,i,1.0,True,531.7000000029802,32.0,60.0,40.0,False,,220.23050674814533,[],"[960, 540]",ColorTask,17.0,23.0,,,HRV,HRV_0316,2022-11-30 23:02:09
,wl-rdm,31,240754,0.0-6.23-0.23,0.0,32.0,,,,,,,[],,,,,,53.2,0.0,i,1.0,False,602.6999999955297,37.0,60.0,40.0,False,,244.53892817958973,[],"[960, 540]",ColorTask,16.0,24.0,,,HRV,HRV_0316,2022-11-30 23:02:09
,wl-rdm,32,243054,0.0-6.24-0.24,0.0,33.0,,,,,,,[],,,,,,53.2,0.0,i,1.0,False,823.3999999985099,50.0,60.0,40.0,False,,397.29766405872294,[],"[960, 540]",ColorTask,15.0,25.0,,,HRV,HRV_0316,2022-11-30 23:02:09
,wl-rdm,33,245087,0.0-6.25-0.25,0.0,34.0,,,,,,,[],,,,,,62.5,1.0,i,1.0,True,581.2999999970198,35.0,60.0,40.0,False,,369.8673702657836,[],"[960, 540]",ColorTask,16.0,26.0,,,HRV,HRV_0316,2022-11-30 23:02:09
,wl-rdm,34,247203,0.0-6.26-0.26,0.0,35.0,,,,,,,[],,,,,,87.9,0.0,u,0.0,True,682.8999999985099,41.0,60.0,40.0,False,,366.1967078904577,[],"[960, 540]",ColorTask,17.0,27.0,,,HRV,HRV_0316,2022-11-30 23:02:09
,wl-rdm,35,249537,0.0-6.27-0.27,0.0,36.0,,,,,,,[],,,,,,62.5,1.0,i,1.0,True,895.3999999910593,54.0,60.0,40.0,False,,363.7787195730658,[],"[960, 540]",ColorTask,18.0,28.0,,,HRV,HRV_0316,2022-11-30 23:02:09
,wl-rdm,36,252203,0.0-6.28-0.28,0.0,37.0,,,,,,,[],,,,,,56.4,0.0,u,0.0,True,1311.3999999985099,79.0,60.0,40.0,False,,280.53571579154845,[],"[960, 540]",ColorTask,19.0,29.0,,,HRV,HRV_0316,2022-11-30 23:02:09
,wl-rdm,37,254470,0.0-6.29-0.29,0.0,38.0,,,,,,,[],,,,,,73.6,0.0,u,0.0,True,889.7000000029802,54.0,60.0,40.0,False,,303.80375471041,[],"[960, 540]",ColorTask,20.0,30.0,,,HRV,HRV_0316,2022-11-30 23:02:09
,wl-rdm,38,256536,0.0-6.30-0.30,0.0,39.0,,,,,,,[],,,,,,87.9,1.0,i,1.0,True,613.3999999985099,37.0,60.0,40.0,False,,371.100466641681,[],"[960, 540]",ColorTask,21.0,31.0,,,HRV,HRV_0316,2022-11-30 23:02:09
,wl-rdm,39,258653,0.0-6.31-0.31,0.0,40.0,,,,,,,[],,,,,,56.4,1.0,i,1.0,True,778.7000000029802,47.0,60.0,40.0,False,,253.29026920303022,[],"[960, 540]",ColorTask,22.0,32.0,,,HRV,HRV_0316,2022-11-30 23:02:09
,wl-rdm,40,261303,0.0-6.32-0.32,0.0,41.0,,,,,,,[],,,,,,50.0,1.0,i,1.0,True,1305.0,79.0,60.0,40.0,False,,254.71911458376516,[],"[960, 540]",ColorTask,23.0,33.0,,,HRV,HRV_0316,2022-11-30 23:02:09
,wl-rdm,41,263536,0.0-6.33-0.33,0.0,42.0,,,,,,,[],,,,,,56.4,1.0,i,1.0,True,890.1999999955297,54.0,60.0,40.0,False,,253.51611799441696,[],"[960, 540]",ColorTask,24.0,34.0,,,HRV,HRV_0316,2022-11-30 23:02:09
,wl-rdm,42,265836,0.0-6.34-0.34,0.0,43.0,,,,,,,[],,,,,,73.6,1.0,i,1.0,True,908.0,55.0,60.0,40.0,False,,300.6677224119951,[],"[960, 540]",ColorTask,25.0,35.0,,,HRV,HRV_0316,2022-11-30 23:02:09
,wl-rdm,43,267869,0.0-6.35-0.35,0.0,44.0,,,,,,,[],,,,,,87.9,1.0,i,1.0,True,748.1000000014901,45.0,60.0,40.0,False,,207.92532444752217,[],"[960, 540]",ColorTask,26.0,36.0,,,HRV,HRV_0316,2022-11-30 23:02:09
,wl-rdm,44,270152,0.0-6.36-0.36,0.0,45.0,,,,,,,[],,,,,,62.5,1.0,i,1.0,True,921.7000000029802,56.0,60.0,40.0,False,,294.5692053666055,[],"[960, 540]",ColorTask,27.0,37.0,,,HRV,HRV_0316,2022-11-30 23:02:09
,wl-rdm,45,272502,0.0-6.37-0.37,0.0,46.0,,,,,,,[],,,,,,56.4,0.0,i,1.0,False,1041.7000000029802,63.0,60.0,40.0,False,,216.982884691783,[],"[960, 540]",ColorTask,26.0,38.0,,,HRV,HRV_0316,2022-11-30 23:02:09
,wl-rdm,46,275152,0.0-6.38-0.38,0.0,47.0,,,,,,,[],,,,,,56.4,0.0,u,0.0,True,1230.7000000029802,74.0,60.0,40.0,False,,342.65365901000337,[],"[960, 540]",ColorTask,27.0,39.0,,,HRV,HRV_0316,2022-11-30 23:02:09
,wl-rdm,47,277835,0.0-6.39-0.39,0.0,48.0,,,,,,,[],,,,,,62.5,0.0,u,0.0,True,1254.6999999955297,76.0,60.0,40.0,False,,333.9425103674963,[],"[960, 540]",ColorTask,28.0,40.0,,,HRV,HRV_0316,2022-11-30 23:02:09
,wl-rdm,48,280651,0.0-6.40-0.40,0.0,49.0,,,,,,,[],,,,,,50.0,0.0,i,1.0,False,1395.7000000029802,84.0,60.0,40.0,False,,341.97895244530326,[],"[960, 540]",ColorTask,27.0,41.0,,,HRV,HRV_0316,2022-11-30 23:02:09
,wl-rdm,49,282684,0.0-6.41-0.41,0.0,50.0,,,,,,,[],,,,,,87.9,0.0,u,0.0,True,644.5999999940395,39.0,60.0,40.0,False,,320.42741322052314,[],"[960, 540]",ColorTask,28.0,42.0,,,HRV,HRV_0316,2022-11-30 23:02:09
,wl-rdm,50,284884,0.0-6.42-0.42,0.0,51.0,,,,,,,[],,,,,,73.6,0.0,u,0.0,True,794.5999999940395,48.0,60.0,40.0,False,,327.2499741286462,[],"[960, 540]",ColorTask,29.0,43.0,,,HRV,HRV_0316,2022-11-30 23:02:09
,wl-rdm,51,287151,0.0-6.43-0.43,0.0,52.0,,,,,,,[],,,,,,62.5,1.0,i,1.0,True,933.8999999985099,57.0,60.0,40.0,False,,241.10937832527296,[],"[960, 540]",ColorTask,30.0,44.0,,,HRV,HRV_0316,2022-11-30 23:02:09
,wl-rdm,52,289901,0.0-6.44-0.44,0.0,53.0,,,,,,,[],,,,,,53.2,1.0,i,1.0,True,1419.6999999955297,86.0,60.0,40.0,False,,260.9473623994265,[],"[960, 540]",ColorTask,31.0,45.0,,,HRV,HRV_0316,2022-11-30 23:02:09
,wl-rdm,53,292551,0.0-6.45-0.45,0.0,54.0,,,,,,,[],,,,,,56.4,0.0,i,1.0,False,1303.1000000014901,79.0,60.0,40.0,False,,257.94590976624914,[],"[960, 540]",ColorTask,30.0,46.0,,,HRV,HRV_0316,2022-11-30 23:02:09
,wl-rdm,54,295034,0.0-6.46-0.46,0.0,55.0,,,,,,,[],,,,,,62.5,0.0,u,0.0,True,1127.7000000029802,68.0,60.0,40.0,False,,273.43090059307065,[],"[960, 540]",ColorTask,31.0,47.0,,,HRV,HRV_0316,2022-11-30 23:02:09
,wl-rdm,55,297767,0.0-6.47-0.47,0.0,56.0,,,,,,,[],,,,,,50.0,0.0,u,0.0,True,1406.5,85.0,60.0,40.0,False,,234.18764974053732,[],"[960, 540]",ColorTask,32.0,48.0,,,HRV,HRV_0316,2022-11-30 23:02:09
,wl-rdm,56,300233,0.0-6.48-0.48,0.0,57.0,,,,,,,[],,,,,,62.5,1.0,u,0.0,False,1037.3999999985099,63.0,60.0,40.0,False,,336.1564265550562,[],"[960, 540]",ColorTask,31.0,49.0,,,HRV,HRV_0316,2022-11-30 23:02:09
,wl-rdm,57,302450,0.0-6.49-0.49,0.0,58.0,,,,,,,[],,,,,,87.9,0.0,u,0.0,True,753.6000000014901,46.0,60.0,40.0,False,,376.26665883487755,[],"[960, 540]",ColorTask,32.0,50.0,,,HRV,HRV_0316,2022-11-30 23:02:09
,wl-rdm,58,304500,0.0-6.50-0.50,0.0,59.0,,,,,,,[],,,,,,53.2,1.0,i,1.0,True,734.3000000044703,45.0,60.0,40.0,False,,222.03830288291144,[],"[960, 540]",ColorTask,33.0,51.0,,,HRV,HRV_0316,2022-11-30 23:02:09
,wl-rdm,59,306466,0.0-6.51-0.51,0.0,60.0,,,,,,,[],,,,,,87.9,1.0,i,1.0,True,621.8999999985099,38.0,60.0,40.0,False,,258.2164660650609,[],"[960, 540]",ColorTask,34.0,52.0,,,HRV,HRV_0316,2022-11-30 23:02:09
,wl-rdm,60,308800,0.0-6.52-0.52,0.0,61.0,,,,,,,[],,,,,,87.9,0.0,u,0.0,True,970.1000000014901,59.0,60.0,40.0,False,,286.3371967618756,[],"[960, 540]",ColorTask,35.0,53.0,,,HRV,HRV_0316,2022-11-30 23:02:09
,wl-rdm,61,311466,0.0-6.53-0.53,0.0,62.0,,,,,,,[],,,,,,53.2,1.0,u,0.0,False,1353.6000000014901,82.0,60.0,40.0,False,,227.57020560753284,[],"[960, 540]",ColorTask,34.0,54.0,,,HRV,HRV_0316,2022-11-30 23:02:09
,wl-rdm,62,313999,0.0-6.54-0.54,0.0,63.0,,,,,,,[],,,,,,53.2,0.0,u,0.0,True,1100.6000000014901,67.0,60.0,40.0,False,,363.9942915780534,[],"[960, 540]",ColorTask,35.0,55.0,,,HRV,HRV_0316,2022-11-30 23:02:09
,wl-rdm,63,316799,0.0-6.55-0.55,0.0,64.0,,,,,,,[],,,,,,50.0,0.0,i,1.0,False,1514.5,91.0,60.0,40.0,False,,204.65980643282447,[],"[960, 540]",ColorTask,34.0,56.0,,,HRV,HRV_0316,2022-11-30 23:02:09
,wl-rdm,64,319399,0.0-6.56-0.56,0.0,65.0,,,,,,,[],,,,,,50.0,0.0,u,0.0,True,1265.6000000014901,76.0,60.0,40.0,False,,264.32042840805866,[],"[960, 540]",ColorTask,35.0,57.0,,,HRV,HRV_0316,2022-11-30 23:02:09
,wl-rdm,65,321999,0.0-6.57-0.57,0.0,66.0,,,,,,,[],,,,,,50.0,1.0,i,1.0,True,1198.1000000014901,72.0,60.0,40.0,False,,329.02466001522777,[],"[960, 540]",ColorTask,36.0,58.0,,,HRV,HRV_0316,2022-11-30 23:02:09
,wl-rdm,66,324099,0.0-6.58-0.58,0.0,67.0,,,,,,,[],,,,,,73.6,0.0,u,0.0,True,725.7000000029802,44.0,60.0,40.0,False,,288.3075096027542,[],"[960, 540]",ColorTask,37.0,59.0,,,HRV,HRV_0316,2022-11-30 23:02:09
,wl-rdm,67,326032,0.0-6.59-0.59,0.0,68.0,,,,,,,[],,,,,,87.9,1.0,i,1.0,True,551.7999999970198,34.0,60.0,40.0,False,,292.56717205653337,[],"[960, 540]",ColorTask,38.0,60.0,,,HRV,HRV_0316,2022-11-30 23:02:09
,wl-rdm,68,327915,0.0-6.60-0.60,0.0,69.0,,,,,,,[],,,,,,87.9,1.0,i,1.0,True,560.8999999985099,34.0,60.0,40.0,False,,241.68472692848223,[],"[960, 540]",ColorTask,39.0,61.0,,,HRV,HRV_0316,2022-11-30 23:02:09
,wl-rdm,69,329932,0.0-6.61-0.61,0.0,70.0,,,,,,,[],,,,,,87.9,1.0,i,1.0,True,576.0,35.0,60.0,40.0,False,,362.9518778364204,[],"[960, 540]",ColorTask,40.0,62.0,,,HRV,HRV_0316,2022-11-30 23:02:09
,wl-rdm,70,332415,0.0-6.62-0.62,0.0,71.0,,,,,,,[],,,,,,53.2,0.0,u,0.0,True,1153.6000000014901,70.0,60.0,40.0,False,,236.07760256566672,[],"[960, 540]",ColorTask,41.0,63.0,,,HRV,HRV_0316,2022-11-30 23:02:09
,wl-rdm,71,334498,0.0-6.63-0.63,0.0,72.0,,,,,,,[],,,,,,73.6,0.0,u,0.0,True,796.8999999985099,48.0,60.0,40.0,False,,213.5707013979016,[],"[960, 540]",ColorTask,42.0,64.0,,,HRV,HRV_0316,2022-11-30 23:02:09
,wl-rdm,72,337248,0.0-6.64-0.64,0.0,73.0,,,,,,,[],,,,,,50.0,0.0,u,0.0,True,1316.8999999985099,80.0,60.0,40.0,False,,356.4136693626623,[],"[960, 540]",ColorTask,43.0,65.0,,,HRV,HRV_0316,2022-11-30 23:02:09
,wl-rdm,73,339498,0.0-6.65-0.65,0.0,74.0,,,,,,,[],,,,,,56.4,1.0,i,1.0,True,791.6999999955297,48.0,60.0,40.0,False,,379.923350103772,[],"[960, 540]",ColorTask,44.0,66.0,,,HRV,HRV_0316,2022-11-30 23:02:09
,wl-rdm,74,341549,0.0-6.66-0.66,0.0,75.0,,,,,,,[],,,,,,56.4,1.0,i,1.0,True,679.5999999940395,41.0,60.0,40.0,False,,297.21148808159995,[],"[960, 540]",ColorTask,45.0,67.0,,,HRV,HRV_0316,2022-11-30 23:02:09
,wl-rdm,75,344131,0.0-6.67-0.67,0.0,76.0,,,,,,,[],,,,,,50.0,1.0,i,1.0,True,1280.3999999985099,77.0,60.0,40.0,False,,228.82327996171605,[],"[960, 540]",ColorTask,46.0,68.0,,,HRV,HRV_0316,2022-11-30 23:02:09
,wl-rdm,76,346098,0.0-6.68-0.68,0.0,77.0,,,,,,,[],,,,,,62.5,0.0,u,0.0,True,620.0,38.0,60.0,40.0,False,,255.06031950334133,[],"[960, 540]",ColorTask,47.0,69.0,,,HRV,HRV_0316,2022-11-30 23:02:09
,wl-rdm,77,348031,0.0-6.69-0.69,0.0,78.0,,,,,,,[],,,,,,73.6,1.0,i,1.0,True,543.3999999985099,33.0,60.0,40.0,False,,312.30560381248614,[],"[960, 540]",ColorTask,48.0,70.0,,,HRV,HRV_0316,2022-11-30 23:02:09
,wl-rdm,78,350597,0.0-6.70-0.70,0.0,79.0,,,,,,,[],,,,,,62.5,0.0,u,0.0,True,1213.8000000044703,73.0,60.0,40.0,False,,267.84537162064316,[],"[960, 540]",ColorTask,49.0,71.0,,,HRV,HRV_0316,2022-11-30 23:02:09
,wl-rdm,79,352998,0.0-6.71-0.71,0.0,80.0,,,,,,,[],,,,,,56.4,0.0,u,0.0,True,1067.1999999955297,65.0,60.0,40.0,False,,233.805581271453,[],"[960, 540]",ColorTask,50.0,72.0,,,HRV,HRV_0316,2022-11-30 23:02:09
,wl-rdm,80,355081,0.0-6.72-0.72,0.0,81.0,,,,,,,[],,,,,,73.6,0.0,u,0.0,True,675.1999999955297,41.0,60.0,40.0,False,,323.1428234456518,[],"[960, 540]",ColorTask,51.0,73.0,,,HRV,HRV_0316,2022-11-30 23:02:09
,wl-rdm,81,357064,0.0-6.73-0.73,0.0,82.0,,,,,,,[],,,,,,87.9,0.0,u,0.0,True,601.1999999955297,37.0,60.0,40.0,False,,299.8491224402973,[],"[960, 540]",ColorTask,52.0,74.0,,,HRV,HRV_0316,2022-11-30 23:02:09
,wl-rdm,82,359214,0.0-6.74-0.74,0.0,83.0,,,,,,,[],,,,,,53.2,1.0,i,1.0,True,705.3999999985099,43.0,60.0,40.0,False,,356.2724983420828,[],"[960, 540]",ColorTask,53.0,75.0,,,HRV,HRV_0316,2022-11-30 23:02:09
,wl-rdm,83,361913,0.0-6.75-0.75,0.0,84.0,,,,,,,[],,,,,,62.5,1.0,i,1.0,True,1251.8000000044703,76.0,60.0,40.0,False,,363.9976962126777,[],"[960, 540]",ColorTask,54.0,76.0,,,HRV,HRV_0316,2022-11-30 23:02:09
,wl-rdm,84,364263,0.0-6.76-0.76,0.0,85.0,,,,,,,[],,,,,,56.4,0.0,i,1.0,False,887.0,54.0,60.0,40.0,False,,380.40010952082093,[],"[960, 540]",ColorTask,53.0,77.0,,,HRV,HRV_0316,2022-11-30 23:02:09
,wl-rdm,85,366213,0.0-6.77-0.77,0.0,86.0,,,,,,,[],,,,,,87.9,0.0,u,0.0,True,546.1999999955297,33.0,60.0,40.0,False,,325.0379803633019,[],"[960, 540]",ColorTask,54.0,78.0,,,HRV,HRV_0316,2022-11-30 23:02:09
,wl-rdm,86,369230,0.0-6.78-0.78,0.0,87.0,,,,,,,[],,,,,,62.5,0.0,u,0.0,True,1621.0,98.0,60.0,40.0,False,,311.0325990780323,[],"[960, 540]",ColorTask,55.0,79.0,,,HRV,HRV_0316,2022-11-30 23:02:09
,wl-rdm,87,371513,0.0-6.79-0.79,0.0,88.0,,,,,,,[],,,,,,56.4,1.0,i,1.0,True,904.8999999985099,55.0,60.0,40.0,False,,294.988703369359,[],"[960, 540]",ColorTask,56.0,80.0,,,HRV,HRV_0316,2022-11-30 23:02:09
,wl-rdm,88,373929,0.0-6.80-0.80,0.0,89.0,,,,,,,[],,,,,,50.0,1.0,i,1.0,True,1007.0999999940395,61.0,60.0,40.0,False,,316.7185711923399,[],"[960, 540]",ColorTask,57.0,81.0,,,HRV,HRV_0316,2022-11-30 23:02:09
,wl-rdm,89,376479,0.0-6.81-0.81,0.0,90.0,,,,,,,[],,,,,,56.4,1.0,i,1.0,True,1220.5999999940395,74.0,60.0,40.0,False,,242.40156398875902,[],"[960, 540]",ColorTask,58.0,82.0,,,HRV,HRV_0316,2022-11-30 23:02:09
,wl-rdm,90,379612,0.0-6.82-0.82,0.0,91.0,,,,,,,[],,,,,,50.0,0.0,u,0.0,True,1660.6000000014901,100.0,60.0,40.0,False,,395.778785434662,[],"[960, 540]",ColorTask,59.0,83.0,,,HRV,HRV_0316,2022-11-30 23:02:09
,wl-rdm,91,381796,0.0-6.83-0.83,0.0,92.0,,,,,,,[],,,,,,73.6,0.0,u,0.0,True,795.2000000029802,48.0,60.0,40.0,False,,306.1915068509105,[],"[960, 540]",ColorTask,60.0,84.0,,,HRV,HRV_0316,2022-11-30 23:02:09
,wl-rdm,92,384545,0.0-6.84-0.84,0.0,93.0,,,,,,,[],,,,,,53.2,1.0,u,0.0,False,1302.1000000014901,79.0,60.0,40.0,False,,354.79785826844386,[],"[960, 540]",ColorTask,59.0,85.0,,,HRV,HRV_0316,2022-11-30 23:02:09
,wl-rdm,93,387379,0.0-6.85-0.85,0.0,94.0,,,,,,,[],,,,,,50.0,1.0,i,1.0,True,1383.7999999970198,84.0,60.0,40.0,False,,351.09099230907907,[],"[960, 540]",ColorTask,60.0,86.0,,,HRV,HRV_0316,2022-11-30 23:02:09
,wl-rdm,94,389645,0.0-6.86-0.86,0.0,95.0,,,,,,,[],,,,,,53.2,0.0,u,0.0,True,944.2999999970198,57.0,60.0,40.0,False,,233.8849095413235,[],"[960, 540]",ColorTask,61.0,87.0,,,HRV,HRV_0316,2022-11-30 23:02:09
,wl-rdm,95,391662,0.0-6.87-0.87,0.0,96.0,,,,,,,[],,,,,,56.4,1.0,i,1.0,True,693.7999999970198,42.0,60.0,40.0,False,,236.55235141621944,[],"[960, 540]",ColorTask,62.0,88.0,,,HRV,HRV_0316,2022-11-30 23:02:09
,wl-rdm,96,394578,0.0-6.88-0.88,0.0,97.0,,,,,,,[],,,,,,53.2,0.0,i,1.0,False,1536.5,93.0,60.0,40.0,False,,297.8274044411767,[],"[960, 540]",ColorTask,61.0,89.0,,,HRV,HRV_0316,2022-11-30 23:02:09
,wl-rdm,97,396744,0.0-6.89-0.89,0.0,98.0,,,,,,,[],,,,,,53.2,1.0,i,1.0,True,856.7999999970198,52.0,60.0,40.0,False,,229.5069640603517,[],"[960, 540]",ColorTask,62.0,90.0,,,HRV,HRV_0316,2022-11-30 23:02:09
,wl-rdm,98,399444,0.0-6.90-0.90,0.0,99.0,,,,,,,[],,,,,,53.2,1.0,i,1.0,True,1293.2999999970198,78.0,60.0,40.0,False,,345.5221777850858,[],"[960, 540]",ColorTask,63.0,91.0,,,HRV,HRV_0316,2022-11-30 23:02:09
,wl-rdm,99,401644,0.0-6.91-0.91,0.0,100.0,,,,,,,[],,,,,,73.6,1.0,i,1.0,True,820.3999999985099,50.0,60.0,40.0,False,,295.7746606259708,[],"[960, 540]",ColorTask,64.0,92.0,,,HRV,HRV_0316,2022-11-30 23:02:09
,wl-rdm,100,404860,0.0-6.92-0.92,0.0,101.0,,,,,,,[],,,,,,53.2,1.0,u,0.0,False,1862.3999999985099,112.0,60.0,40.0,False,,272.7433604015504,[],"[960, 540]",ColorTask,63.0,93.0,,,HRV,HRV_0316,2022-11-30 23:02:09
,wl-rdm,101,406827,0.0-6.93-0.93,0.0,102.0,,,,,,,[],,,,,,73.6,1.0,i,1.0,True,629.3999999985099,38.0,60.0,40.0,False,,262.5377353023091,[],"[960, 540]",ColorTask,64.0,94.0,,,HRV,HRV_0316,2022-11-30 23:02:09
,wl-rdm,102,409060,0.0-6.94-0.94,0.0,103.0,,,,,,,[],,,,,,87.9,0.0,u,0.0,True,833.8999999985099,51.0,60.0,40.0,False,,301.0200636055131,[],"[960, 540]",ColorTask,65.0,95.0,,,HRV,HRV_0316,2022-11-30 23:02:09
,wl-rdm,103,411560,0.0-6.95-0.95,0.0,104.0,,,,,,,[],,,,,,62.5,1.0,i,1.0,True,1063.7000000029802,64.0,60.0,40.0,False,,351.5809923537316,[],"[960, 540]",ColorTask,66.0,96.0,,,HRV,HRV_0316,2022-11-30 23:02:09
,wl-rdm,104,413577,0.0-6.96-0.96,0.0,105.0,,,,,,,[],,,,,,73.6,1.0,i,1.0,True,672.7999999970198,41.0,60.0,40.0,False,,266.23765506543884,[],"[960, 540]",ColorTask,67.0,97.0,,,HRV,HRV_0316,2022-11-30 23:02:09
,wl-rdm,105,415643,0.0-6.97-0.97,0.0,106.0,,,,,,,[],,,,,,50.0,0.0,i,1.0,False,723.5,44.0,60.0,40.0,False,,253.41780962428228,[],"[960, 540]",ColorTask,66.0,98.0,,,HRV,HRV_0316,2022-11-30 23:02:09
,wl-rdm,106,418710,0.0-6.98-0.98,0.0,107.0,,,,,,,[],,,,,,53.2,0.0,i,1.0,False,1596.2999999970198,96.0,60.0,40.0,False,,388.91636206082137,[],"[960, 540]",ColorTask,65.0,99.0,,,HRV,HRV_0316,2022-11-30 23:02:09
,wl-rdm,107,421043,0.0-6.99-0.99,0.0,108.0,,,,,,,[],,,,,,62.5,0.0,u,0.0,True,1029.6000000014901,62.0,60.0,40.0,False,,230.3474148789812,[],"[960, 540]",ColorTask,66.0,100.0,,,HRV,HRV_0316,2022-11-30 23:02:09
,wl-rdm,108,423126,0.0-6.100-0.100,0.0,109.0,,,,,,,[],,,,,,87.9,1.0,i,1.0,True,743.0,45.0,60.0,40.0,False,,250.30323407296925,[],"[960, 540]",ColorTask,67.0,101.0,,,HRV,HRV_0316,2022-11-30 23:02:09
,wl-rdm,109,425959,0.0-6.101-0.101,0.0,110.0,,,,,,,[],,,,,,53.2,0.0,i,1.0,False,1371.3999999985099,83.0,60.0,40.0,False,,371.5188718563241,[],"[960, 540]",ColorTask,66.0,102.0,,,HRV,HRV_0316,2022-11-30 23:02:09
,wl-rdm,110,428892,0.0-6.102-0.102,0.0,111.0,,,,,,,[],,,,,,50.0,0.0,i,1.0,False,1461.2999999970198,88.0,60.0,40.0,False,,391.0983000607366,[],"[960, 540]",ColorTask,65.0,103.0,,,HRV,HRV_0316,2022-11-30 23:02:09
,wl-rdm,111,431159,0.0-6.103-0.103,0.0,112.0,,,,,,,[],,,,,,73.6,0.0,u,0.0,True,887.5,54.0,60.0,40.0,False,,304.9910702496006,[],"[960, 540]",ColorTask,66.0,104.0,,,HRV,HRV_0316,2022-11-30 23:02:09
,wl-rdm,112,434892,0.0-6.104-0.104,0.0,113.0,,,,,,,[],,,,,,56.4,0.0,u,0.0,True,2329.39999999851,140.0,60.0,40.0,False,,321.6483695875537,[],"[960, 540]",ColorTask,67.0,105.0,,,HRV,HRV_0316,2022-11-30 23:02:09
,wl-rdm,113,437008,0.0-6.105-0.105,0.0,114.0,,,,,,,[],,,,,,73.6,1.0,i,1.0,True,808.3999999985099,49.0,60.0,40.0,False,,218.8166183431836,[],"[960, 540]",ColorTask,68.0,106.0,,,HRV,HRV_0316,2022-11-30 23:02:09
,wl-rdm,114,440158,0.0-6.106-0.106,0.0,115.0,,,,,,,[],,,,,,50.0,1.0,u,0.0,False,1869.1999999955297,113.0,60.0,40.0,False,,202.57611304511698,[],"[960, 540]",ColorTask,67.0,107.0,,,HRV,HRV_0316,2022-11-30 23:02:09
,wl-rdm,115,442175,0.0-6.107-0.107,0.0,116.0,,,,,,,[],,,,,,87.9,1.0,i,1.0,True,603.1000000014901,37.0,60.0,40.0,False,,325.31946015994845,[],"[960, 540]",ColorTask,68.0,108.0,,,HRV,HRV_0316,2022-11-30 23:02:09
,wl-html-keyboard-response,116,479626,0.0-7.0-0.0,1.0,117.0,,,,,,,,35445.70000000298,1.0,0,,,,,,,,,,,,,,,,,,,,,,HRV,HRV_0316,2022-11-30 23:02:09
,wl-rdm,117,482772,0.0-8.0-0.0,1.0,118.0,,,,,,,[],,,,,,56.4,0.0,u,0.0,True,1783.8000000044703,108.0,60.0,40.0,False,,281.55531639948174,[],"[960, 540]",ColorTask,69.0,1.0,,,HRV,HRV_0316,2022-11-30 23:02:09
,wl-rdm,118,485105,0.0-8.1-0.1,1.0,119.0,,,,,,,[],,,,,,53.2,0.0,u,0.0,True,927.0,56.0,60.0,40.0,False,,327.87852104162096,[],"[960, 540]",ColorTask,70.0,2.0,,,HRV,HRV_0316,2022-11-30 23:02:09
,wl-rdm,119,487205,0.0-8.2-0.2,1.0,120.0,,,,,,,[],,,,,,62.5,1.0,i,1.0,True,784.7999999970198,48.0,60.0,40.0,False,,219.3562349852606,[],"[960, 540]",ColorTask,71.0,3.0,,,HRV,HRV_0316,2022-11-30 23:02:09
,wl-rdm,120,489822,0.0-8.3-0.3,1.0,121.0,,,,,,,[],,,,,,50.0,0.0,i,1.0,False,1315.1999999955297,79.0,60.0,40.0,False,,229.23821087343183,[],"[960, 540]",ColorTask,70.0,4.0,,,HRV,HRV_0316,2022-11-30 23:02:09
,wl-rdm,121,492072,0.0-8.4-0.4,1.0,122.0,,,,,,,[],,,,,,53.2,0.0,i,1.0,False,848.3999999985099,51.0,60.0,40.0,False,,317.2804799858085,[],"[960, 540]",ColorTask,69.0,5.0,,,HRV,HRV_0316,2022-11-30 23:02:09
,wl-rdm,122,495355,0.0-8.5-0.5,1.0,123.0,,,,,,,[],,,,,,53.2,0.0,i,1.0,False,1919.6000000014901,116.0,60.0,40.0,False,,270.9334953458484,[],"[960, 540]",ColorTask,68.0,6.0,,,HRV,HRV_0316,2022-11-30 23:02:09
,wl-rdm,123,497538,0.0-8.6-0.6,1.0,124.0,,,,,,,[],,,,,,73.6,0.0,u,0.0,True,859.7000000029802,52.0,60.0,40.0,False,,240.31195305428986,[],"[960, 540]",ColorTask,69.0,7.0,,,HRV,HRV_0316,2022-11-30 23:02:09
,wl-rdm,124,499738,0.0-8.7-0.7,1.0,125.0,,,,,,,[],,,,,,62.5,0.0,u,0.0,True,729.6000000014901,44.0,60.0,40.0,False,,388.13831880527766,[],"[960, 540]",ColorTask,70.0,8.0,,,HRV,HRV_0316,2022-11-30 23:02:09
,wl-rdm,125,501854,0.0-8.8-0.8,1.0,126.0,,,,,,,[],,,,,,73.6,0.0,u,0.0,True,643.9000000059605,39.0,60.0,40.0,False,,395.3252107689665,[],"[960, 540]",ColorTask,71.0,9.0,,,HRV,HRV_0316,2022-11-30 23:02:09
,wl-rdm,126,503854,0.0-8.9-0.9,1.0,127.0,,,,,,,[],,,,,,73.6,1.0,i,1.0,True,642.7000000029802,39.0,60.0,40.0,False,,282.6648567007652,[],"[960, 540]",ColorTask,72.0,10.0,,,HRV,HRV_0316,2022-11-30 23:02:09
,wl-rdm,127,506254,0.0-8.10-0.10,1.0,128.0,,,,,,,[],,,,,,53.2,0.0,u,0.0,True,1081.6000000014901,65.0,60.0,40.0,False,,253.75817085343834,[],"[960, 540]",ColorTask,73.0,11.0,,,HRV,HRV_0316,2022-11-30 23:02:09
,wl-rdm,128,509554,0.0-8.11-0.11,1.0,129.0,,,,,,,[],,,,,,50.0,1.0,u,0.0,False,1967.1000000014901,119.0,60.0,40.0,False,,255.90056128783988,[],"[960, 540]",ColorTask,72.0,12.0,,,HRV,HRV_0316,2022-11-30 23:02:09
,wl-rdm,129,511654,0.0-8.12-0.12,1.0,130.0,,,,,,,[],,,,,,87.9,1.0,i,1.0,True,670.6000000014901,41.0,60.0,40.0,False,,334.4310470258754,[],"[960, 540]",ColorTask,73.0,13.0,,,HRV,HRV_0316,2022-11-30 23:02:09
,wl-rdm,130,513970,0.0-8.13-0.13,1.0,131.0,,,,,,,[],,,,,,56.4,0.0,u,0.0,True,922.3000000044703,56.0,60.0,40.0,False,,326.54859507812705,[],"[960, 540]",ColorTask,74.0,14.0,,,HRV,HRV_0316,2022-11-30 23:02:09
,wl-rdm,131,516120,0.0-8.14-0.14,1.0,132.0,,,,,,,[],,,,,,53.2,1.0,i,1.0,True,731.6000000014901,44.0,60.0,40.0,False,,353.10647948964026,[],"[960, 540]",ColorTask,75.0,15.0,,,HRV,HRV_0316,2022-11-30 23:02:09
,wl-rdm,132,518287,0.0-8.15-0.15,1.0,133.0,,,,,,,[],,,,,,62.5,0.0,u,0.0,True,819.7000000029802,50.0,60.0,40.0,False,,254.6085675464572,[],"[960, 540]",ColorTask,76.0,16.0,,,HRV,HRV_0316,2022-11-30 23:02:09
,wl-rdm,133,520570,0.0-8.16-0.16,1.0,134.0,,,,,,,[],,,,,,87.9,1.0,i,1.0,True,926.5,56.0,60.0,40.0,False,,277.6604653775938,[],"[960, 540]",ColorTask,77.0,17.0,,,HRV,HRV_0316,2022-11-30 23:02:09
,wl-rdm,134,522637,0.0-8.17-0.17,1.0,135.0,,,,,,,[],,,,,,87.9,1.0,i,1.0,True,637.6000000014901,39.0,60.0,40.0,False,,337.55665241176905,[],"[960, 540]",ColorTask,78.0,18.0,,,HRV,HRV_0316,2022-11-30 23:02:09
,wl-rdm,135,526203,0.0-8.18-0.18,1.0,136.0,,,,,,,[],,,,,,56.4,0.0,u,0.0,True,2247.3000000044703,135.0,60.0,40.0,False,,239.7935466211103,[],"[960, 540]",ColorTask,79.0,19.0,,,HRV,HRV_0316,2022-11-30 23:02:09
,wl-rdm,136,528703,0.0-8.19-0.19,1.0,137.0,,,,,,,[],,,,,,50.0,0.0,i,1.0,False,1120.7000000029802,68.0,60.0,40.0,False,,288.70344354139695,[],"[960, 540]",ColorTask,78.0,20.0,,,HRV,HRV_0316,2022-11-30 23:02:09
,wl-rdm,137,531403,0.0-8.20-0.20,1.0,138.0,,,,,,,[],,,,,,50.0,0.0,i,1.0,False,1331.7999999970198,80.0,60.0,40.0,False,,284.60003055026596,[],"[960, 540]",ColorTask,77.0,21.0,,,HRV,HRV_0316,2022-11-30 23:02:09
,wl-rdm,138,534186,0.0-8.21-0.21,1.0,139.0,,,,,,,[],,,,,,56.4,1.0,i,1.0,True,1486.1000000014901,90.0,60.0,40.0,False,,204.02059773105344,[],"[960, 540]",ColorTask,78.0,22.0,,,HRV,HRV_0316,2022-11-30 23:02:09
,wl-rdm,139,536136,0.0-8.22-0.22,1.0,140.0,,,,,,,[],,,,,,87.9,0.0,u,0.0,True,599.6000000014901,36.0,60.0,40.0,False,,274.9128035192668,[],"[960, 540]",ColorTask,79.0,23.0,,,HRV,HRV_0316,2022-11-30 23:02:09
,wl-rdm,140,538169,0.0-8.23-0.23,1.0,141.0,,,,,,,[],,,,,,62.5,0.0,u,0.0,True,744.5,45.0,60.0,40.0,False,,202.67481658559277,[],"[960, 540]",ColorTask,80.0,24.0,,,HRV,HRV_0316,2022-11-30 23:02:09
,wl-rdm,141,540152,0.0-8.24-0.24,1.0,142.0,,,,,,,[],,,,,,87.9,0.0,u,0.0,True,696.1000000014901,42.0,60.0,40.0,False,,213.31412800694932,[],"[960, 540]",ColorTask,81.0,25.0,,,HRV,HRV_0316,2022-11-30 23:02:09
,wl-rdm,142,542485,0.0-8.25-0.25,1.0,143.0,,,,,,,[],,,,,,62.5,1.0,i,1.0,True,853.7000000029802,52.0,60.0,40.0,False,,394.8400927260899,[],"[960, 540]",ColorTask,82.0,26.0,,,HRV,HRV_0316,2022-11-30 23:02:09
,wl-rdm,143,544869,0.0-8.26-0.26,1.0,144.0,,,,,,,[],,,,,,62.5,1.0,i,1.0,True,966.2999999970198,58.0,60.0,40.0,False,,344.8898518327244,[],"[960, 540]",ColorTask,83.0,27.0,,,HRV,HRV_0316,2022-11-30 23:02:09
,wl-rdm,144,546769,0.0-8.27-0.27,1.0,145.0,,,,,,,[],,,,,,73.6,1.0,i,1.0,True,502.3999999985099,31.0,60.0,40.0,False,,304.4494873458127,[],"[960, 540]",ColorTask,84.0,28.0,,,HRV,HRV_0316,2022-11-30 23:02:09
,wl-rdm,145,549535,0.0-8.28-0.28,1.0,146.0,,,,,,,[],,,,,,62.5,1.0,i,1.0,True,1385.5,84.0,60.0,40.0,False,,294.1452046708823,[],"[960, 540]",ColorTask,85.0,29.0,,,HRV,HRV_0316,2022-11-30 23:02:09
,wl-rdm,146,552402,0.0-8.29-0.29,1.0,147.0,,,,,,,[],,,,,,50.0,1.0,i,1.0,True,1577.1000000014901,95.0,60.0,40.0,False,,214.11769332786866,[],"[960, 540]",ColorTask,86.0,30.0,,,HRV,HRV_0316,2022-11-30 23:02:09
,wl-rdm,147,554485,0.0-8.30-0.30,1.0,148.0,,,,,,,[],,,,,,53.2,0.0,u,0.0,True,725.1000000014901,44.0,60.0,40.0,False,,279.66729588137116,[],"[960, 540]",ColorTask,87.0,31.0,,,HRV,HRV_0316,2022-11-30 23:02:09
,wl-rdm,148,556601,0.0-8.31-0.31,1.0,149.0,,,,,,,[],,,,,,62.5,0.0,u,0.0,True,726.5,44.0,60.0,40.0,False,,306.4230697653624,[],"[960, 540]",ColorTask,88.0,32.0,,,HRV,HRV_0316,2022-11-30 23:02:09
,wl-rdm,149,559134,0.0-8.32-0.32,1.0,150.0,,,,,,,[],,,,,,62.5,0.0,u,0.0,True,1200.6000000014901,73.0,60.0,40.0,False,,244.8660090087943,[],"[960, 540]",ColorTask,89.0,33.0,,,HRV,HRV_0316,2022-11-30 23:02:09
,wl-rdm,150,561168,0.0-8.33-0.33,1.0,151.0,,,,,,,[],,,,,,87.9,0.0,u,0.0,True,632.4000000059605,38.0,60.0,40.0,False,,337.0551763343916,[],"[960, 540]",ColorTask,90.0,34.0,,,HRV,HRV_0316,2022-11-30 23:02:09
,wl-rdm,151,563201,0.0-8.34-0.34,1.0,152.0,,,,,,,[],,,,,,73.6,1.0,i,1.0,True,707.6999999955297,43.0,60.0,40.0,False,,242.26603991091844,[],"[960, 540]",ColorTask,91.0,35.0,,,HRV,HRV_0316,2022-11-30 23:02:09
,wl-rdm,152,565067,0.0-8.35-0.35,1.0,153.0,,,,,,,[],,,,,,87.9,1.0,i,1.0,True,520.3999999985099,32.0,60.0,40.0,False,,251.06401353996873,[],"[960, 540]",ColorTask,92.0,36.0,,,HRV,HRV_0316,2022-11-30 23:02:09
,wl-rdm,153,567184,0.0-8.36-0.36,1.0,154.0,,,,,,,[],,,,,,62.5,1.0,i,1.0,True,795.5,48.0,60.0,40.0,False,,241.75612774662326,[],"[960, 540]",ColorTask,93.0,37.0,,,HRV,HRV_0316,2022-11-30 23:02:09
,wl-rdm,154,569317,0.0-8.37-0.37,1.0,155.0,,,,,,,[],,,,,,62.5,0.0,u,0.0,True,730.3999999985099,44.0,60.0,40.0,False,,318.80260745015573,[],"[960, 540]",ColorTask,94.0,38.0,,,HRV,HRV_0316,2022-11-30 23:02:09
,wl-rdm,155,571300,0.0-8.38-0.38,1.0,156.0,,,,,,,[],,,,,,87.9,0.0,u,0.0,True,675.6999999955297,41.0,60.0,40.0,False,,229.00967924426791,[],"[960, 540]",ColorTask,95.0,39.0,,,HRV,HRV_0316,2022-11-30 23:02:09
,wl-rdm,156,573200,0.0-8.39-0.39,1.0,157.0,,,,,,,[],,,,,,62.5,0.0,u,0.0,True,630.7999999970198,38.0,60.0,40.0,False,,209.12455201186128,[],"[960, 540]",ColorTask,96.0,40.0,,,HRV,HRV_0316,2022-11-30 23:02:09
,wl-rdm,157,575500,0.0-8.40-0.40,1.0,158.0,,,,,,,[],,,,,,53.2,1.0,i,1.0,True,957.0,58.0,60.0,40.0,False,,259.54589812432675,[],"[960, 540]",ColorTask,97.0,41.0,,,HRV,HRV_0316,2022-11-30 23:02:09
,wl-rdm,158,577533,0.0-8.41-0.41,1.0,159.0,,,,,,,[],,,,,,87.9,0.0,u,0.0,True,731.5,44.0,60.0,40.0,False,,217.5512867884986,[],"[960, 540]",ColorTask,98.0,42.0,,,HRV,HRV_0316,2022-11-30 23:02:09
,wl-rdm,159,579466,0.0-8.42-0.42,1.0,160.0,,,,,,,[],,,,,,73.6,1.0,i,1.0,True,584.8999999985099,36.0,60.0,40.0,False,,260.2191577122537,[],"[960, 540]",ColorTask,99.0,43.0,,,HRV,HRV_0316,2022-11-30 23:02:09
,wl-rdm,160,581816,0.0-8.43-0.43,1.0,161.0,,,,,,,[],,,,,,50.0,1.0,i,1.0,True,994.2999999970198,60.0,60.0,40.0,False,,279.6340313465144,[],"[960, 540]",ColorTask,100.0,44.0,,,HRV,HRV_0316,2022-11-30 23:02:09
,wl-rdm,161,585016,0.0-8.44-0.44,1.0,162.0,,,,,,,[],,,,,,50.0,0.0,i,1.0,False,1817.3999999985099,110.0,60.0,40.0,False,,299.2769903201775,[],"[960, 540]",ColorTask,99.0,45.0,,,HRV,HRV_0316,2022-11-30 23:02:09
,wl-rdm,162,587683,0.0-8.45-0.45,1.0,163.0,,,,,,,[],,,,,,53.2,0.0,u,0.0,True,1211.3999999985099,73.0,60.0,40.0,False,,371.70469776671945,[],"[960, 540]",ColorTask,100.0,46.0,,,HRV,HRV_0316,2022-11-30 23:02:09
,wl-rdm,163,590066,0.0-8.46-0.46,1.0,164.0,,,,,,,[],,,,,,50.0,0.0,u,0.0,True,911.2000000029802,55.0,60.0,40.0,False,,396.68848037800774,[],"[960, 540]",ColorTask,101.0,47.0,,,HRV,HRV_0316,2022-11-30 23:02:09
,wl-rdm,164,593099,0.0-8.47-0.47,1.0,165.0,,,,,,,[],,,,,,50.0,0.0,i,1.0,False,1650.9000000059605,100.0,60.0,40.0,False,,291.7000163663531,[],"[960, 540]",ColorTask,100.0,48.0,,,HRV,HRV_0316,2022-11-30 23:02:09
,wl-rdm,165,595499,0.0-8.48-0.48,1.0,166.0,,,,,,,[],,,,,,53.2,1.0,i,1.0,True,922.6000000014901,56.0,60.0,40.0,False,,385.6671412767308,[],"[960, 540]",ColorTask,101.0,49.0,,,HRV,HRV_0316,2022-11-30 23:02:09
,wl-rdm,166,598682,0.0-8.49-0.49,1.0,167.0,,,,,,,[],,,,,,56.4,1.0,i,1.0,True,1732.7000000029802,104.0,60.0,40.0,False,,369.314982994868,[],"[960, 540]",ColorTask,102.0,50.0,,,HRV,HRV_0316,2022-11-30 23:02:09
,wl-rdm,167,600748,0.0-8.50-0.50,1.0,168.0,,,,,,,[],,,,,,73.6,0.0,u,0.0,True,686.8999999985099,42.0,60.0,40.0,False,,294.6724087433021,[],"[960, 540]",ColorTask,103.0,51.0,,,HRV,HRV_0316,2022-11-30 23:02:09
,wl-rdm,168,602715,0.0-8.51-0.51,1.0,169.0,,,,,,,[],,,,,,73.6,0.0,u,0.0,True,668.5,41.0,60.0,40.0,False,,204.0976113366086,[],"[960, 540]",ColorTask,104.0,52.0,,,HRV,HRV_0316,2022-11-30 23:02:09
,wl-rdm,169,604932,0.0-8.52-0.52,1.0,170.0,,,,,,,[],,,,,,56.4,0.0,u,0.0,True,913.5,55.0,60.0,40.0,False,,223.26885215749047,[],"[960, 540]",ColorTask,105.0,53.0,,,HRV,HRV_0316,2022-11-30 23:02:09
,wl-rdm,170,607365,0.0-8.53-0.53,1.0,171.0,,,,,,,[],,,,,,53.2,1.0,i,1.0,True,1121.7999999970198,68.0,60.0,40.0,False,,223.49356016136954,[],"[960, 540]",ColorTask,106.0,54.0,,,HRV,HRV_0316,2022-11-30 23:02:09
,wl-rdm,171,610231,0.0-8.54-0.54,1.0,172.0,,,,,,,[],,,,,,56.4,0.0,i,1.0,False,1563.1000000014901,94.0,60.0,40.0,False,,242.61252235034576,[],"[960, 540]",ColorTask,105.0,55.0,,,HRV,HRV_0316,2022-11-30 23:02:09
,wl-rdm,172,612648,0.0-8.55-0.55,1.0,173.0,,,,,,,[],,,,,,56.4,1.0,i,1.0,True,1099.5,66.0,60.0,40.0,False,,234.6080176070111,[],"[960, 540]",ColorTask,106.0,56.0,,,HRV,HRV_0316,2022-11-30 23:02:09
,wl-rdm,173,615264,0.0-8.56-0.56,1.0,174.0,,,,,,,[],,,,,,53.2,1.0,i,1.0,True,1170.6000000014901,71.0,60.0,40.0,False,,357.8021567636878,[],"[960, 540]",ColorTask,107.0,57.0,,,HRV,HRV_0316,2022-11-30 23:02:09
,wl-rdm,174,617364,0.0-8.57-0.57,1.0,175.0,,,,,,,[],,,,,,87.9,1.0,i,1.0,True,652.8999999985099,40.0,60.0,40.0,False,,358.2621645516491,[],"[960, 540]",ColorTask,108.0,58.0,,,HRV,HRV_0316,2022-11-30 23:02:09
,wl-rdm,175,620081,0.0-8.58-0.58,1.0,176.0,,,,,,,[],,,,,,50.0,1.0,i,1.0,True,1430.2999999970198,86.0,60.0,40.0,False,,227.33958700612314,[],"[960, 540]",ColorTask,109.0,59.0,,,HRV,HRV_0316,2022-11-30 23:02:09
,wl-rdm,176,622230,0.0-8.59-0.59,1.0,177.0,,,,,,,[],,,,,,56.4,1.0,i,1.0,True,800.1000000014901,49.0,60.0,40.0,False,,264.1943700599352,[],"[960, 540]",ColorTask,110.0,60.0,,,HRV,HRV_0316,2022-11-30 23:02:09
,wl-rdm,177,624552,0.0-8.60-0.60,1.0,178.0,,,,,,,[],,,,,,56.4,1.0,i,1.0,True,941.3999999985099,57.0,60.0,40.0,False,,296.8792231708561,[],"[960, 540]",ColorTask,111.0,61.0,,,HRV,HRV_0316,2022-11-30 23:02:09
,wl-rdm,178,626497,0.0-8.61-0.61,1.0,179.0,,,,,,,[],,,,,,50.0,0.0,i,1.0,False,647.3999999985099,39.0,60.0,40.0,False,,235.1851218384103,[],"[960, 540]",ColorTask,110.0,62.0,,,HRV,HRV_0316,2022-11-30 23:02:09
,wl-rdm,179,629080,0.0-8.62-0.62,1.0,180.0,,,,,,,[],,,,,,56.4,0.0,i,1.0,False,1157.0,70.0,60.0,40.0,False,,336.5963319418805,[],"[960, 540]",ColorTask,109.0,63.0,,,HRV,HRV_0316,2022-11-30 23:02:09
,wl-rdm,180,631597,0.0-8.63-0.63,1.0,181.0,,,,,,,[],,,,,,56.4,1.0,i,1.0,True,1183.1999999955297,71.0,60.0,40.0,False,,262.95598167932667,[],"[960, 540]",ColorTask,110.0,64.0,,,HRV,HRV_0316,2022-11-30 23:02:09
,wl-rdm,181,634313,0.0-8.64-0.64,1.0,182.0,,,,,,,[],,,,,,62.5,0.0,u,0.0,True,1344.5,81.0,60.0,40.0,False,,310.4164062946523,[],"[960, 540]",ColorTask,111.0,65.0,,,HRV,HRV_0316,2022-11-30 23:02:09
,wl-rdm,182,637330,0.0-8.65-0.65,1.0,183.0,,,,,,,[],,,,,,50.0,1.0,u,0.0,False,1614.6000000014901,97.0,60.0,40.0,False,,326.08694480524133,[],"[960, 540]",ColorTask,110.0,66.0,,,HRV,HRV_0316,2022-11-30 23:02:09
,wl-rdm,183,639529,0.0-8.66-0.66,1.0,184.0,,,,,,,[],,,,,,87.9,1.0,i,1.0,True,731.3000000044703,44.0,60.0,40.0,False,,391.29669227692443,[],"[960, 540]",ColorTask,111.0,67.0,,,HRV,HRV_0316,2022-11-30 23:02:09
,wl-rdm,184,642663,0.0-8.67-0.67,1.0,185.0,,,,,,,[],,,,,,62.5,1.0,i,1.0,True,1748.3999999985099,105.0,60.0,40.0,False,,315.75224062963974,[],"[960, 540]",ColorTask,112.0,68.0,,,HRV,HRV_0316,2022-11-30 23:02:09
,wl-rdm,185,645896,0.0-8.68-0.68,1.0,186.0,,,,,,,[],,,,,,53.2,1.0,i,1.0,True,1861.6000000014901,112.0,60.0,40.0,False,,296.48528946559964,[],"[960, 540]",ColorTask,113.0,69.0,,,HRV,HRV_0316,2022-11-30 23:02:09
,wl-rdm,186,647996,0.0-8.69-0.69,1.0,187.0,,,,,,,[],,,,,,87.9,0.0,u,0.0,True,803.7999999970198,49.0,60.0,40.0,False,,216.3120729631863,[],"[960, 540]",ColorTask,114.0,70.0,,,HRV,HRV_0316,2022-11-30 23:02:09
,wl-rdm,187,650562,0.0-8.70-0.70,1.0,188.0,,,,,,,[],,,,,,53.2,0.0,u,0.0,True,1275.8999999985099,77.0,60.0,40.0,False,,233.28475933132643,[],"[960, 540]",ColorTask,115.0,71.0,,,HRV,HRV_0316,2022-11-30 23:02:09
,wl-rdm,188,652679,0.0-8.71-0.71,1.0,189.0,,,,,,,[],,,,,,73.6,1.0,i,1.0,True,743.9000000059605,45.0,60.0,40.0,False,,296.9695182611552,[],"[960, 540]",ColorTask,116.0,72.0,,,HRV,HRV_0316,2022-11-30 23:02:09
,wl-rdm,189,654929,0.0-8.72-0.72,1.0,190.0,,,,,,,[],,,,,,62.5,0.0,u,0.0,True,882.0,53.0,60.0,40.0,False,,297.11196612586366,[],"[960, 540]",ColorTask,117.0,73.0,,,HRV,HRV_0316,2022-11-30 23:02:09
,wl-rdm,190,657995,0.0-8.73-0.73,1.0,191.0,,,,,,,[],,,,,,50.0,1.0,i,1.0,True,1699.3999999985099,102.0,60.0,40.0,False,,297.43501695203696,[],"[960, 540]",ColorTask,118.0,74.0,,,HRV,HRV_0316,2022-11-30 23:02:09
,wl-rdm,191,661478,0.0-8.74-0.74,1.0,192.0,,,,,,,[],,,,,,50.0,0.0,i,1.0,False,2113.2000000029802,127.0,60.0,40.0,False,,305.5755963271732,[],"[960, 540]",ColorTask,117.0,75.0,,,HRV,HRV_0316,2022-11-30 23:02:09
,wl-rdm,192,663611,0.0-8.75-0.75,1.0,193.0,,,,,,,[],,,,,,50.0,1.0,u,0.0,False,771.3999999985099,47.0,60.0,40.0,False,,270.0484750578306,[],"[960, 540]",ColorTask,116.0,76.0,,,HRV,HRV_0316,2022-11-30 23:02:09
,wl-rdm,193,667461,0.0-8.76-0.76,1.0,194.0,,,,,,,[],,,,,,53.2,1.0,i,1.0,True,2418.5,146.0,60.0,40.0,False,,334.1472318208614,[],"[960, 540]",ColorTask,117.0,77.0,,,HRV,HRV_0316,2022-11-30 23:02:09
,wl-rdm,194,669711,0.0-8.77-0.77,1.0,195.0,,,,,,,[],,,,,,56.4,0.0,u,0.0,True,775.7999999970198,47.0,60.0,40.0,False,,383.54800076970633,[],"[960, 540]",ColorTask,118.0,78.0,,,HRV,HRV_0316,2022-11-30 23:02:09
,wl-rdm,195,671911,0.0-8.78-0.78,1.0,196.0,,,,,,,[],,,,,,73.6,0.0,u,0.0,True,774.1999999955297,47.0,60.0,40.0,False,,345.99886765483205,[],"[960, 540]",ColorTask,119.0,79.0,,,HRV,HRV_0316,2022-11-30 23:02:09
,wl-rdm,196,676277,0.0-8.79-0.79,1.0,196.0,,,,,,,[],,,,,,56.4,0.0,u,,,3110.60000000149,179.0,60.0,40.0,True,RT_timeout ,256.3798582234907,[],"[960, 540]",ColorTask,118.0,80.0,,,HRV,HRV_0316,2022-11-30 23:02:09
,wl-rdm,197,678777,0.0-8.80-0.80,1.0,197.0,,,,,,,[],,,,,,56.4,1.0,i,1.0,True,1192.2000000029802,72.0,60.0,40.0,False,,220.79489747914855,[],"[960, 540]",ColorTask,119.0,81.0,,,HRV,HRV_0316,2022-11-30 23:02:09
,wl-rdm,198,680844,0.0-8.81-0.81,1.0,198.0,,,,,,,[],,,,,,73.6,1.0,i,1.0,True,689.8999999985099,42.0,60.0,40.0,False,,286.0627603440859,[],"[960, 540]",ColorTask,120.0,82.0,,,HRV,HRV_0316,2022-11-30 23:02:09
,wl-rdm,199,682960,0.0-8.82-0.82,1.0,199.0,,,,,,,[],,,,,,50.0,0.0,u,0.0,True,681.8000000044703,41.0,60.0,40.0,False,,350.04564812676324,[],"[960, 540]",ColorTask,121.0,83.0,,,HRV,HRV_0316,2022-11-30 23:02:09
,wl-rdm,200,685310,0.0-8.83-0.83,1.0,200.0,,,,,,,[],,,,,,53.2,1.0,i,1.0,True,1034.1000000014901,63.0,60.0,40.0,False,,225.99140695478167,[],"[960, 540]",ColorTask,122.0,84.0,,,HRV,HRV_0316,2022-11-30 23:02:09
,wl-rdm,201,687543,0.0-8.84-0.84,1.0,201.0,,,,,,,[],,,,,,53.2,0.0,u,0.0,True,943.7000000029802,57.0,60.0,40.0,False,,219.4245110183516,[],"[960, 540]",ColorTask,123.0,85.0,,,HRV,HRV_0316,2022-11-30 23:02:09
,wl-rdm,202,689493,0.0-8.85-0.85,1.0,202.0,,,,,,,[],,,,,,87.9,1.0,i,1.0,True,605.2000000029802,37.0,60.0,40.0,False,,252.37901732757393,[],"[960, 540]",ColorTask,124.0,86.0,,,HRV,HRV_0316,2022-11-30 23:02:09
,wl-rdm,203,691443,0.0-8.86-0.86,1.0,203.0,,,,,,,[],,,,,,73.6,1.0,i,1.0,True,598.6000000014901,36.0,60.0,40.0,False,,274.9247966700326,[],"[960, 540]",ColorTask,125.0,87.0,,,HRV,HRV_0316,2022-11-30 23:02:09
,wl-rdm,204,693343,0.0-8.87-0.87,1.0,204.0,,,,,,,[],,,,,,56.4,0.0,u,0.0,True,577.1999999955297,35.0,60.0,40.0,False,,244.9848949598782,[],"[960, 540]",ColorTask,126.0,88.0,,,HRV,HRV_0316,2022-11-30 23:02:09
,wl-rdm,205,695459,0.0-8.88-0.88,1.0,205.0,,,,,,,[],,,,,,62.5,1.0,i,1.0,True,695.1000000014901,42.0,60.0,40.0,False,,334.198563485142,[],"[960, 540]",ColorTask,127.0,89.0,,,HRV,HRV_0316,2022-11-30 23:02:09
,wl-rdm,206,698076,0.0-8.89-0.89,1.0,206.0,,,,,,,[],,,,,,56.4,0.0,u,0.0,True,1217.7000000029802,74.0,60.0,40.0,False,,304.03080392816054,[],"[960, 540]",ColorTask,128.0,90.0,,,HRV,HRV_0316,2022-11-30 23:02:09
,wl-rdm,207,700009,0.0-8.90-0.90,1.0,207.0,,,,,,,[],,,,,,73.6,1.0,i,1.0,True,609.1000000014901,37.0,60.0,40.0,False,,234.04171301856488,[],"[960, 540]",ColorTask,129.0,91.0,,,HRV,HRV_0316,2022-11-30 23:02:09
,wl-rdm,208,701992,0.0-8.91-0.91,1.0,208.0,,,,,,,[],,,,,,73.6,0.0,u,0.0,True,613.1000000014901,37.0,60.0,40.0,False,,306.5099740143856,[],"[960, 540]",ColorTask,130.0,92.0,,,HRV,HRV_0316,2022-11-30 23:02:09
,wl-rdm,209,704142,0.0-8.92-0.92,1.0,209.0,,,,,,,[],,,,,,62.5,1.0,i,1.0,True,682.0,41.0,60.0,40.0,False,,393.73929485636563,[],"[960, 540]",ColorTask,131.0,93.0,,,HRV,HRV_0316,2022-11-30 23:02:09
,wl-rdm,210,706075,0.0-8.93-0.93,1.0,210.0,,,,,,,[],,,,,,73.6,1.0,i,1.0,True,488.1000000014901,30.0,60.0,40.0,False,,362.8025393236105,[],"[960, 540]",ColorTask,132.0,94.0,,,HRV,HRV_0316,2022-11-30 23:02:09
,wl-rdm,211,708142,0.0-8.94-0.94,1.0,211.0,,,,,,,[],,,,,,50.0,1.0,i,1.0,True,583.8999999985099,36.0,60.0,40.0,False,,394.1424396239163,[],"[960, 540]",ColorTask,133.0,95.0,,,HRV,HRV_0316,2022-11-30 23:02:09
,wl-rdm,212,710058,0.0-8.95-0.95,1.0,212.0,,,,,,,[],,,,,,87.9,1.0,i,1.0,True,544.1999999955297,33.0,60.0,40.0,False,,299.75178261834503,[],"[960, 540]",ColorTask,134.0,96.0,,,HRV,HRV_0316,2022-11-30 23:02:09
,wl-rdm,213,711958,0.0-8.96-0.96,1.0,213.0,,,,,,,[],,,,,,87.9,1.0,i,1.0,True,432.5,26.0,60.0,40.0,False,,395.90788792489707,[],"[960, 540]",ColorTask,135.0,97.0,,,HRV,HRV_0316,2022-11-30 23:02:09
,wl-rdm,214,714241,0.0-8.97-0.97,1.0,214.0,,,,,,,[],,,,,,56.4,1.0,u,0.0,False,877.5,53.0,60.0,40.0,False,,323.7269775893927,[],"[960, 540]",ColorTask,134.0,98.0,,,HRV,HRV_0316,2022-11-30 23:02:09
,wl-rdm,215,716125,0.0-8.98-0.98,1.0,215.0,,,,,,,[],,,,,,87.9,0.0,u,0.0,True,484.6000000014901,30.0,60.0,40.0,False,,302.9375811866134,[],"[960, 540]",ColorTask,135.0,99.0,,,HRV,HRV_0316,2022-11-30 23:02:09
,wl-rdm,216,718191,0.0-8.99-0.99,1.0,216.0,,,,,,,[],,,,,,53.2,1.0,i,1.0,True,762.8999999985099,46.0,60.0,40.0,False,,223.54969527216866,[],"[960, 540]",ColorTask,136.0,100.0,,,HRV,HRV_0316,2022-11-30 23:02:09
,wl-rdm,217,720141,0.0-8.100-0.100,1.0,217.0,,,,,,,[],,,,,,73.6,0.0,u,0.0,True,644.3000000044703,39.0,60.0,40.0,False,,221.66560375258433,[],"[960, 540]",ColorTask,137.0,101.0,,,HRV,HRV_0316,2022-11-30 23:02:09
,wl-rdm,218,722191,0.0-8.101-0.101,1.0,218.0,,,,,,,[],,,,,,56.4,1.0,i,1.0,True,728.8000000044703,44.0,60.0,40.0,False,,247.4093519660362,[],"[960, 540]",ColorTask,138.0,102.0,,,HRV,HRV_0316,2022-11-30 23:02:09
,wl-rdm,219,724091,0.0-8.102-0.102,1.0,219.0,,,,,,,[],,,,,,62.5,1.0,i,1.0,True,516.3000000044703,31.0,60.0,40.0,False,,315.73299139341833,[],"[960, 540]",ColorTask,139.0,103.0,,,HRV,HRV_0316,2022-11-30 23:02:09
,wl-rdm,220,726124,0.0-8.103-0.103,1.0,220.0,,,,,,,[],,,,,,87.9,0.0,u,0.0,True,572.7999999970198,35.0,60.0,40.0,False,,381.9890296014181,[],"[960, 540]",ColorTask,140.0,104.0,,,HRV,HRV_0316,2022-11-30 23:02:09
,wl-rdm,221,728157,0.0-8.104-0.104,1.0,221.0,,,,,,,[],,,,,,53.2,0.0,u,0.0,True,673.5999999940395,41.0,60.0,40.0,False,,267.1806043109054,[],"[960, 540]",ColorTask,141.0,105.0,,,HRV,HRV_0316,2022-11-30 23:02:09
,wl-rdm,222,730007,0.0-8.105-0.105,1.0,222.0,,,,,,,[],,,,,,87.9,0.0,u,0.0,True,512.7999999970198,31.0,60.0,40.0,False,,255.0013024762109,[],"[960, 540]",ColorTask,142.0,106.0,,,HRV,HRV_0316,2022-11-30 23:02:09
,wl-rdm,223,731874,0.0-8.106-0.106,1.0,223.0,,,,,,,[],,,,,,73.6,0.0,u,0.0,True,477.69999999552965,29.0,60.0,40.0,False,,320.0877727122467,[],"[960, 540]",ColorTask,143.0,107.0,,,HRV,HRV_0316,2022-11-30 23:02:09
,wl-rdm,224,734090,0.0-8.107-0.107,1.0,224.0,,,,,,,[],,,,,,50.0,1.0,i,1.0,True,872.3999999985099,53.0,60.0,40.0,False,,256.5704674056566,[],"[960, 540]",ColorTask,144.0,108.0,,,HRV,HRV_0316,2022-11-30 23:02:09
,wl-rdm,225,736107,0.0-8.108-0.108,1.0,225.0,,,,,,,[],,,,,,73.6,0.0,u,0.0,True,692.9000000059605,42.0,60.0,40.0,False,,245.58216645008216,[],"[960, 540]",ColorTask,145.0,109.0,,,HRV,HRV_0316,2022-11-30 23:02:09
,wl-html-button-response,226,739235,0.0-9.0-0.0,,,,,,,,,,3126.2000000029802,,0,,,,,,,,,,,,,,,,,,,,<h3>End of this session. Thank you!</h3><br>,['Close window'],HRV,HRV_0316,2022-11-30 23:02:09
