trialN,stimuli,trialStartTime,trialStartTime_UNIX,stimulus1,stimulus2,stimulus1Bid,stimulus2Bid,delta,selected,rt,rt_UNIX,rt_perfnow,receivedResponse,rsp,trialEndTime,trialDuration,trialEndTime_UNIX,trialDuration_UNIX,exp,subjectId,date
0,"[{'imgObject': {}, 'id': 'mango', 'src': '/static/foodstim60/mango.jpg', 'key': 'u', 'origWidth': 411, 'origHeight': 411, 'width': 411, 'height': 411, 'widthPercent': 0.45, 'rescaleHeight': False, 'trialN': 0, 'loaded': True, 'loadedTime': 2437.2000000476837, 'positionName': 'LEFT', 'positionCoords': [244.68, 178.5], 'bid': 0.12}, {'imgObject': {}, 'id': 'rigatoni', 'src': '/static/foodstim60/rigatoni.jpg', 'key': 'i', 'origWidth': 411, 'origHeight': 411, 'width': 411, 'height': 411, 'widthPercent': 0.45, 'rescaleHeight': False, 'trialN': 0, 'loaded': True, 'loadedTime': 2614.7000000476837, 'positionName': 'RIGHT', 'positionCoords': [710.32, 178.5], 'bid': 0.12}]",2906.300000190735,1669831304979,mango,rigatoni,0.12,0.12,0.0,rigatoni,1145.6999998092651,1146,1146.3999998569489,True,i,4561.200000047684,1654.8999998569489,1669831306634,1655,HRV,HRV_0123,2022-11-30 18:06:17
1,"[{'imgObject': {}, 'id': 'Tribe humus pita', 'src': '/static/foodstim60/Tribe humus pita.jpg', 'key': 'u', 'origWidth': 411, 'origHeight': 411, 'width': 411, 'height': 411, 'widthPercent': 0.45, 'rescaleHeight': False, 'trialN': 1, 'loaded': True, 'loadedTime': 2616.800000190735, 'positionName': 'LEFT', 'positionCoords': [244.68, 178.5], 'bid': 0.06}, {'imgObject': {}, 'id': 'Grapes', 'src': '/static/foodstim60/Grapes.jpg', 'key': 'i', 'origWidth': 411, 'origHeight': 411, 'width': 411, 'height': 411, 'widthPercent': 0.45, 'rescaleHeight': False, 'trialN': 1, 'loaded': True, 'loadedTime': 2638.5, 'positionName': 'RIGHT', 'positionCoords': [710.32, 178.5], 'bid': 0.06}]",4561.600000143051,1669831306634,Tribe humus pita,Grapes,0.06,0.06,0.0,Tribe humus pita,880.7000000476837,881,881.0,True,u,5957.600000143051,1396.0,1669831308030,1396,HRV,HRV_0123,2022-11-30 18:06:17
2,"[{'imgObject': {}, 'id': 'edamame', 'src': '/static/foodstim60/edamame.jpg', 'key': 'u', 'origWidth': 409, 'origHeight': 410, 'width': 409, 'height': 410, 'widthPercent': 0.45, 'rescaleHeight': False, 'trialN': 2, 'loaded': True, 'loadedTime': 2646.600000143051, 'positionName': 'LEFT', 'positionCoords': [246.68, 179], 'bid': 0.06}, {'imgObject': {}, 'id': 'cocktailshrimp', 'src': '/static/foodstim60/cocktailshrimp.jpg', 'key': 'i', 'origWidth': 410, 'origHeight': 410, 'width': 410, 'height': 410, 'widthPercent': 0.45, 'rescaleHeight': False, 'trialN': 2, 'loaded': True, 'loadedTime': 2659.2000000476837, 'positionName': 'RIGHT', 'positionCoords': [710.32, 179], 'bid': 0.03}]",5957.900000095367,1669831308030,edamame,cocktailshrimp,0.06,0.03,-0.03,cocktailshrimp,943.7000000476837,944,943.9000000953674,True,i,7408.900000095367,1451.0,1669831309481,1451,HRV,HRV_0123,2022-11-30 18:06:17
3,"[{'imgObject': {}, 'id': 'sushi w_condiments', 'src': '/static/foodstim60/sushi w_condiments.jpg', 'key': 'u', 'origWidth': 410, 'origHeight': 410, 'width': 410, 'height': 410, 'widthPercent': 0.45, 'rescaleHeight': False, 'trialN': 3, 'loaded': True, 'loadedTime': 2661.5, 'positionName': 'LEFT', 'positionCoords': [245.68, 179], 'bid': 0.28}, {'imgObject': {}, 'id': 'burrito', 'src': '/static/foodstim60/burrito.jpg', 'key': 'i', 'origWidth': 410, 'origHeight': 410, 'width': 410, 'height': 410, 'widthPercent': 0.45, 'rescaleHeight': False, 'trialN': 3, 'loaded': True, 'loadedTime': 2672.800000190735, 'positionName': 'RIGHT', 'positionCoords': [710.32, 179], 'bid': 0.09}]",7409.200000047684,1669831309482,sushi w_condiments,burrito,0.28,0.09,-0.19000000000000003,sushi w_condiments,1517.7999999523163,1518,1518.2000000476837,True,u,9440.400000095367,2031.2000000476837,1669831311513,2031,HRV,HRV_0123,2022-11-30 18:06:17
4,"[{'imgObject': {}, 'id': 'bagel and cc', 'src': '/static/foodstim60/bagel and cc.jpg', 'key': 'u', 'origWidth': 410, 'origHeight': 410, 'width': 410, 'height': 410, 'widthPercent': 0.45, 'rescaleHeight': False, 'trialN': 4, 'loaded': True, 'loadedTime': 2685.800000190735, 'positionName': 'LEFT', 'positionCoords': [245.68, 179], 'bid': 7.48}, {'imgObject': {}, 'id': 'salad w chicken', 'src': '/static/foodstim60/salad w chicken.jpg', 'key': 'i', 'origWidth': 411, 'origHeight': 411, 'width': 411, 'height': 411, 'widthPercent': 0.45, 'rescaleHeight': False, 'trialN': 4, 'loaded': True, 'loadedTime': 2703.7000000476837, 'positionName': 'RIGHT', 'positionCoords': [710.32, 178.5], 'bid': 8.22}]",9440.700000047684,1669831311513,bagel and cc,salad w chicken,7.48,8.22,0.7400000000000002,salad w chicken,2199.7999999523163,2200,2200.100000143051,True,i,12154.0,2713.2999999523163,1669831314227,2714,HRV,HRV_0123,2022-11-30 18:06:17
5,"[{'imgObject': {}, 'id': 'grilled chicken strips', 'src': '/static/foodstim60/grilled chicken strips.jpg', 'key': 'u', 'origWidth': 410, 'origHeight': 411, 'width': 410, 'height': 411, 'widthPercent': 0.45, 'rescaleHeight': False, 'trialN': 5, 'loaded': True, 'loadedTime': 2703.9000000953674, 'positionName': 'LEFT', 'positionCoords': [245.68, 178.5], 'bid': 1.36}, {'imgObject': {}, 'id': 'turkeysandwich', 'src': '/static/foodstim60/turkeysandwich.jpg', 'key': 'i', 'origWidth': 409, 'origHeight': 409, 'width': 409, 'height': 409, 'widthPercent': 0.45, 'rescaleHeight': False, 'trialN': 5, 'loaded': True, 'loadedTime': 2714.5, 'positionName': 'RIGHT', 'positionCoords': [710.32, 179.5], 'bid': 3.12}]",12154.300000190735,1669831314227,grilled chicken strips,turkeysandwich,1.36,3.12,1.76,grilled chicken strips,2011.5,2012,2011.7999999523163,True,u,14671.100000143051,2516.7999999523163,1669831316744,2517,HRV,HRV_0123,2022-11-30 18:06:17
6,"[{'imgObject': {}, 'id': 'bagel and cc', 'src': '/static/foodstim60/bagel and cc.jpg', 'key': 'u', 'origWidth': 410, 'origHeight': 410, 'width': 410, 'height': 410, 'widthPercent': 0.45, 'rescaleHeight': False, 'trialN': 6, 'loaded': True, 'loadedTime': 2687.5, 'positionName': 'LEFT', 'positionCoords': [245.68, 179], 'bid': 7.48}, {'imgObject': {}, 'id': 'tacos', 'src': '/static/foodstim60/tacos.jpg', 'key': 'i', 'origWidth': 411, 'origHeight': 411, 'width': 411, 'height': 411, 'widthPercent': 0.45, 'rescaleHeight': False, 'trialN': 6, 'loaded': True, 'loadedTime': 2719.5, 'positionName': 'RIGHT', 'positionCoords': [710.32, 178.5], 'bid': 9.86}]",14671.400000095367,1669831316744,bagel and cc,tacos,7.48,9.86,2.379999999999999,bagel and cc,1979.7999999523163,1980,1980.0999999046326,True,u,17169.700000047684,2498.2999999523163,1669831319242,2498,HRV,HRV_0123,2022-11-30 18:06:17
7,"[{'imgObject': {}, 'id': 'shreddedwheatwithmilk', 'src': '/static/foodstim60/shreddedwheatwithmilk.jpg', 'key': 'u', 'origWidth': 410, 'origHeight': 410, 'width': 410, 'height': 410, 'widthPercent': 0.45, 'rescaleHeight': False, 'trialN': 7, 'loaded': True, 'loadedTime': 2741.800000190735, 'positionName': 'LEFT', 'positionCoords': [245.68, 179], 'bid': 0}, {'imgObject': {}, 'id': 'raisin bran w milk', 'src': '/static/foodstim60/raisin bran w milk.jpg', 'key': 'i', 'origWidth': 411, 'origHeight': 411, 'width': 411, 'height': 411, 'widthPercent': 0.45, 'rescaleHeight': False, 'trialN': 7, 'loaded': True, 'loadedTime': 2745.4000000953674, 'positionName': 'RIGHT', 'positionCoords': [710.32, 178.5], 'bid': 0}]",17170.0,1669831319243,shreddedwheatwithmilk,raisin bran w milk,0.0,0.0,0.0,shreddedwheatwithmilk,1333.6000001430511,1334,1334.0,True,u,19017.10000014305,1847.1000001430511,1669831321090,1847,HRV,HRV_0123,2022-11-30 18:06:17
8,"[{'imgObject': {}, 'id': 'hotdog w must', 'src': '/static/foodstim60/hotdog w must.jpg', 'key': 'u', 'origWidth': 409, 'origHeight': 409, 'width': 409, 'height': 409, 'widthPercent': 0.45, 'rescaleHeight': False, 'trialN': 8, 'loaded': True, 'loadedTime': 2753.2000000476837, 'positionName': 'LEFT', 'positionCoords': [246.68, 179.5], 'bid': 0.1}, {'imgObject': {}, 'id': 'kiwi', 'src': '/static/foodstim60/kiwi.jpg', 'key': 'i', 'origWidth': 410, 'origHeight': 410, 'width': 410, 'height': 410, 'widthPercent': 0.45, 'rescaleHeight': False, 'trialN': 8, 'loaded': True, 'loadedTime': 2756.800000190735, 'positionName': 'RIGHT', 'positionCoords': [710.32, 179], 'bid': 0.13}]",19017.5,1669831321090,hotdog w must,kiwi,0.1,0.13,0.03,hotdog w must,1168.4000000953674,1169,1168.8000001907349,True,u,20699.10000014305,1681.6000001430511,1669831322772,1682,HRV,HRV_0123,2022-11-30 18:06:17
9,"[{'imgObject': {}, 'id': 'strawberries', 'src': '/static/foodstim60/strawberries.jpg', 'key': 'u', 'origWidth': 410, 'origHeight': 410, 'width': 410, 'height': 410, 'widthPercent': 0.45, 'rescaleHeight': False, 'trialN': 9, 'loaded': True, 'loadedTime': 2758.800000190735, 'positionName': 'LEFT', 'positionCoords': [245.68, 179], 'bid': 0.03}, {'imgObject': {}, 'id': 'avocado', 'src': '/static/foodstim60/avocado.jpg', 'key': 'i', 'origWidth': 409, 'origHeight': 409, 'width': 409, 'height': 409, 'widthPercent': 0.45, 'rescaleHeight': False, 'trialN': 9, 'loaded': True, 'loadedTime': 2771.4000000953674, 'positionName': 'RIGHT', 'positionCoords': [710.32, 179.5], 'bid': 0.03}]",20699.400000095367,1669831322772,strawberries,avocado,0.03,0.03,0.0,strawberries,1310.2999999523163,1311,1310.5999999046326,True,u,22529.800000190735,1830.4000000953674,1669831324602,1830,HRV,HRV_0123,2022-11-30 18:06:17
10,"[{'imgObject': {}, 'id': 'cherry tomato', 'src': '/static/foodstim60/cherry tomato.jpg', 'key': 'u', 'origWidth': 410, 'origHeight': 410, 'width': 410, 'height': 410, 'widthPercent': 0.45, 'rescaleHeight': False, 'trialN': 10, 'loaded': True, 'loadedTime': 2773, 'positionName': 'LEFT', 'positionCoords': [245.68, 179], 'bid': 0.05}, {'imgObject': {}, 'id': 'salmon', 'src': '/static/foodstim60/salmon.jpg', 'key': 'i', 'origWidth': 410, 'origHeight': 409, 'width': 410, 'height': 409, 'widthPercent': 0.45, 'rescaleHeight': False, 'trialN': 10, 'loaded': True, 'loadedTime': 2793.9000000953674, 'positionName': 'RIGHT', 'positionCoords': [710.32, 179.5], 'bid': 0}]",22530.200000047684,1669831324603,cherry tomato,salmon,0.05,0.0,-0.05,cherry tomato,1315.7999999523163,1316,1316.1000001430511,True,u,24349.0,1818.7999999523163,1669831326422,1819,HRV,HRV_0123,2022-11-30 18:06:17
11,"[{'imgObject': {}, 'id': 'apple slices', 'src': '/static/foodstim60/apple slices.jpg', 'key': 'u', 'origWidth': 409, 'origHeight': 410, 'width': 409, 'height': 410, 'widthPercent': 0.45, 'rescaleHeight': False, 'trialN': 11, 'loaded': True, 'loadedTime': 2802.300000190735, 'positionName': 'LEFT', 'positionCoords': [246.68, 179], 'bid': 0.02}, {'imgObject': {}, 'id': 'blackbeanswithrice', 'src': '/static/foodstim60/blackbeanswithrice.jpg', 'key': 'i', 'origWidth': 410, 'origHeight': 410, 'width': 410, 'height': 410, 'widthPercent': 0.45, 'rescaleHeight': False, 'trialN': 11, 'loaded': True, 'loadedTime': 2804, 'positionName': 'RIGHT', 'positionCoords': [710.32, 179], 'bid': 0.05}]",24349.200000047684,1669831326422,apple slices,blackbeanswithrice,0.02,0.05,0.030000000000000002,blackbeanswithrice,1377.4000000953674,1378,1377.7000000476837,True,i,26229.900000095367,1880.7000000476837,1669831328303,1881,HRV,HRV_0123,2022-11-30 18:06:17
12,"[{'imgObject': {}, 'id': 'fruitsalad', 'src': '/static/foodstim60/fruitsalad.jpg', 'key': 'u', 'origWidth': 410, 'origHeight': 410, 'width': 410, 'height': 410, 'widthPercent': 0.45, 'rescaleHeight': False, 'trialN': 12, 'loaded': True, 'loadedTime': 2815.600000143051, 'positionName': 'LEFT', 'positionCoords': [245.68, 179], 'bid': 0.22}, {'imgObject': {}, 'id': 'cheerios', 'src': '/static/foodstim60/cheerios.jpg', 'key': 'i', 'origWidth': 409, 'origHeight': 410, 'width': 409, 'height': 410, 'widthPercent': 0.45, 'rescaleHeight': False, 'trialN': 12, 'loaded': True, 'loadedTime': 2827.800000190735, 'positionName': 'RIGHT', 'positionCoords': [710.32, 179], 'bid': 0.15}]",26230.200000047684,1669831328303,fruitsalad,cheerios,0.22,0.15,-0.07,cheerios,1165.7999999523163,1166,1166.2000000476837,True,i,27913.900000095367,1683.7000000476837,1669831329987,1684,HRV,HRV_0123,2022-11-30 18:06:17
13,"[{'imgObject': {}, 'id': 'avocado', 'src': '/static/foodstim60/avocado.jpg', 'key': 'u', 'origWidth': 409, 'origHeight': 409, 'width': 409, 'height': 409, 'widthPercent': 0.45, 'rescaleHeight': False, 'trialN': 13, 'loaded': True, 'loadedTime': 2771.2000000476837, 'positionName': 'LEFT', 'positionCoords': [246.68, 179.5], 'bid': 0.03}, {'imgObject': {}, 'id': 'seaweed', 'src': '/static/foodstim60/seaweed.jpg', 'key': 'i', 'origWidth': 410, 'origHeight': 410, 'width': 410, 'height': 410, 'widthPercent': 0.45, 'rescaleHeight': False, 'trialN': 13, 'loaded': True, 'loadedTime': 2830.5, 'positionName': 'RIGHT', 'positionCoords': [710.32, 179], 'bid': 0}]",27914.10000014305,1669831329987,avocado,seaweed,0.03,0.0,-0.03,avocado,1013.5,1014,1013.7999999523163,True,u,29443.800000190735,1529.7000000476837,1669831331516,1529,HRV,HRV_0123,2022-11-30 18:06:17
14,"[{'imgObject': {}, 'id': 'cherry tomato', 'src': '/static/foodstim60/cherry tomato.jpg', 'key': 'u', 'origWidth': 410, 'origHeight': 410, 'width': 410, 'height': 410, 'widthPercent': 0.45, 'rescaleHeight': False, 'trialN': 14, 'loaded': True, 'loadedTime': 2773.300000190735, 'positionName': 'LEFT', 'positionCoords': [245.68, 179], 'bid': 0.05}, {'imgObject': {}, 'id': 'blackbeanswithrice', 'src': '/static/foodstim60/blackbeanswithrice.jpg', 'key': 'i', 'origWidth': 410, 'origHeight': 410, 'width': 410, 'height': 410, 'widthPercent': 0.45, 'rescaleHeight': False, 'trialN': 14, 'loaded': True, 'loadedTime': 2802.600000143051, 'positionName': 'RIGHT', 'positionCoords': [710.32, 179], 'bid': 0.05}]",29444.10000014305,1669831331517,cherry tomato,blackbeanswithrice,0.05,0.05,0.0,blackbeanswithrice,941.5,938,941.7999999523163,True,i,30908.0,1463.8999998569489,1669831332977,1460,HRV,HRV_0123,2022-11-30 18:06:17
15,"[{'imgObject': {}, 'id': 'kiwi', 'src': '/static/foodstim60/kiwi.jpg', 'key': 'u', 'origWidth': 410, 'origHeight': 410, 'width': 410, 'height': 410, 'widthPercent': 0.45, 'rescaleHeight': False, 'trialN': 15, 'loaded': True, 'loadedTime': 2756.7000000476837, 'positionName': 'LEFT', 'positionCoords': [245.68, 179], 'bid': 0.13}, {'imgObject': {}, 'id': 'hashbrowns', 'src': '/static/foodstim60/hashbrowns.jpg', 'key': 'i', 'origWidth': 411, 'origHeight': 410, 'width': 411, 'height': 410, 'widthPercent': 0.45, 'rescaleHeight': False, 'trialN': 15, 'loaded': True, 'loadedTime': 2849.800000190735, 'positionName': 'RIGHT', 'positionCoords': [710.32, 179], 'bid': 0.03}]",30908.300000190735,1669831332977,kiwi,hashbrowns,0.13,0.03,-0.1,hashbrowns,1082.5,1083,1082.7999999523163,True,i,32506.200000047684,1597.8999998569489,1669831334575,1598,HRV,HRV_0123,2022-11-30 18:06:17
16,"[{'imgObject': {}, 'id': 'fruitsalad', 'src': '/static/foodstim60/fruitsalad.jpg', 'key': 'u', 'origWidth': 410, 'origHeight': 410, 'width': 410, 'height': 410, 'widthPercent': 0.45, 'rescaleHeight': False, 'trialN': 16, 'loaded': True, 'loadedTime': 2816, 'positionName': 'LEFT', 'positionCoords': [245.68, 179], 'bid': 0.22}, {'imgObject': {}, 'id': 'mashed potato', 'src': '/static/foodstim60/mashed potato.jpg', 'key': 'i', 'origWidth': 409, 'origHeight': 409, 'width': 409, 'height': 409, 'widthPercent': 0.45, 'rescaleHeight': False, 'trialN': 16, 'loaded': True, 'loadedTime': 2857.100000143051, 'positionName': 'RIGHT', 'positionCoords': [710.32, 179.5], 'bid': 0.09}]",32506.5,1669831334575,fruitsalad,mashed potato,0.22,0.09,-0.13,mashed potato,1278.5,1279,1278.8000001907349,True,i,34304.800000190735,1798.3000001907349,1669831336373,1798,HRV,HRV_0123,2022-11-30 18:06:17
17,"[{'imgObject': {}, 'id': 'omelette', 'src': '/static/foodstim60/omelette.jpg', 'key': 'u', 'origWidth': 410, 'origHeight': 409, 'width': 410, 'height': 409, 'widthPercent': 0.45, 'rescaleHeight': False, 'trialN': 17, 'loaded': True, 'loadedTime': 2858.300000190735, 'positionName': 'LEFT', 'positionCoords': [245.68, 179.5], 'bid': 0}, {'imgObject': {}, 'id': 'ice cream sundae 002', 'src': '/static/foodstim60/ice cream sundae 002.jpg', 'key': 'i', 'origWidth': 409, 'origHeight': 409, 'width': 409, 'height': 409, 'widthPercent': 0.45, 'rescaleHeight': False, 'trialN': 17, 'loaded': True, 'loadedTime': 2859.2000000476837, 'positionName': 'RIGHT', 'positionCoords': [710.32, 179.5], 'bid': 0.02}]",34305.0,1669831336374,omelette,ice cream sundae 002,0.0,0.02,0.02,ice cream sundae 002,797.0,797,797.3000001907349,True,i,35606.60000014305,1301.6000001430511,1669831337675,1301,HRV,HRV_0123,2022-11-30 18:06:17
18,"[{'imgObject': {}, 'id': 'avocado', 'src': '/static/foodstim60/avocado.jpg', 'key': 'u', 'origWidth': 409, 'origHeight': 409, 'width': 409, 'height': 409, 'widthPercent': 0.45, 'rescaleHeight': False, 'trialN': 18, 'loaded': True, 'loadedTime': 2771.2000000476837, 'positionName': 'LEFT', 'positionCoords': [246.68, 179.5], 'bid': 0.03}, {'imgObject': {}, 'id': 'raisin bran w milk', 'src': '/static/foodstim60/raisin bran w milk.jpg', 'key': 'i', 'origWidth': 411, 'origHeight': 411, 'width': 411, 'height': 411, 'widthPercent': 0.45, 'rescaleHeight': False, 'trialN': 18, 'loaded': True, 'loadedTime': 2745.600000143051, 'positionName': 'RIGHT', 'positionCoords': [710.32, 178.5], 'bid': 0}]",35607.0,1669831337676,avocado,raisin bran w milk,0.03,0.0,-0.03,raisin bran w milk,1684.1000001430511,1684,1684.5,True,i,37805.0,2198.0,1669831339874,2198,HRV,HRV_0123,2022-11-30 18:06:17
19,"[{'imgObject': {}, 'id': 'hashbrowns', 'src': '/static/foodstim60/hashbrowns.jpg', 'key': 'u', 'origWidth': 411, 'origHeight': 410, 'width': 411, 'height': 410, 'widthPercent': 0.45, 'rescaleHeight': False, 'trialN': 19, 'loaded': True, 'loadedTime': 2832.5, 'positionName': 'LEFT', 'positionCoords': [244.68, 179], 'bid': 0.03}, {'imgObject': {}, 'id': 'pear', 'src': '/static/foodstim60/pear.jpg', 'key': 'i', 'origWidth': 411, 'origHeight': 410, 'width': 411, 'height': 410, 'widthPercent': 0.45, 'rescaleHeight': False, 'trialN': 19, 'loaded': True, 'loadedTime': 2863.9000000953674, 'positionName': 'RIGHT', 'positionCoords': [710.32, 179], 'bid': 0.05}]",37805.300000190735,1669831339874,hashbrowns,pear,0.03,0.05,0.020000000000000004,hashbrowns,952.0,952,952.2999999523163,True,u,39270.5,1465.1999998092651,1669831341339,1465,HRV,HRV_0123,2022-11-30 18:06:17
20,"[{'imgObject': {}, 'id': 'roastedpotatoes', 'src': '/static/foodstim60/roastedpotatoes.jpg', 'key': 'u', 'origWidth': 409, 'origHeight': 410, 'width': 409, 'height': 410, 'widthPercent': 0.45, 'rescaleHeight': False, 'trialN': 20, 'loaded': True, 'loadedTime': 2865, 'positionName': 'LEFT', 'positionCoords': [246.68, 179], 'bid': 0.03}, {'imgObject': {}, 'id': 'avocado', 'src': '/static/foodstim60/avocado.jpg', 'key': 'i', 'origWidth': 409, 'origHeight': 409, 'width': 409, 'height': 409, 'widthPercent': 0.45, 'rescaleHeight': False, 'trialN': 20, 'loaded': True, 'loadedTime': 2769.7000000476837, 'positionName': 'RIGHT', 'positionCoords': [710.32, 179.5], 'bid': 0.03}]",39270.800000190735,1669831341339,roastedpotatoes,avocado,0.03,0.03,0.0,roastedpotatoes,884.6999998092651,885,884.8999998569489,True,u,40668.60000014305,1397.7999999523163,1669831342737,1398,HRV,HRV_0123,2022-11-30 18:06:17
21,"[{'imgObject': {}, 'id': 'rigatoni and sauce', 'src': '/static/foodstim60/rigatoni and sauce.jpg', 'key': 'u', 'origWidth': 410, 'origHeight': 411, 'width': 410, 'height': 411, 'widthPercent': 0.45, 'rescaleHeight': False, 'trialN': 21, 'loaded': True, 'loadedTime': 2868.9000000953674, 'positionName': 'LEFT', 'positionCoords': [245.68, 178.5], 'bid': 0.05}, {'imgObject': {}, 'id': 'Grapes', 'src': '/static/foodstim60/Grapes.jpg', 'key': 'i', 'origWidth': 411, 'origHeight': 411, 'width': 411, 'height': 411, 'widthPercent': 0.45, 'rescaleHeight': False, 'trialN': 21, 'loaded': True, 'loadedTime': 2617.5, 'positionName': 'RIGHT', 'positionCoords': [710.32, 178.5], 'bid': 0.06}]",40668.90000009537,1669831342738,rigatoni and sauce,Grapes,0.05,0.06,0.009999999999999995,rigatoni and sauce,703.7000000476837,704,704.0,True,u,41884.300000190735,1215.4000000953674,1669831343953,1215,HRV,HRV_0123,2022-11-30 18:06:17
22,"[{'imgObject': {}, 'id': 'Tribe humus pita', 'src': '/static/foodstim60/Tribe humus pita.jpg', 'key': 'u', 'origWidth': 411, 'origHeight': 411, 'width': 411, 'height': 411, 'widthPercent': 0.45, 'rescaleHeight': False, 'trialN': 22, 'loaded': True, 'loadedTime': 2614.9000000953674, 'positionName': 'LEFT', 'positionCoords': [244.68, 178.5], 'bid': 0.06}, {'imgObject': {}, 'id': 'ice cream sundae 002', 'src': '/static/foodstim60/ice cream sundae 002.jpg', 'key': 'i', 'origWidth': 409, 'origHeight': 409, 'width': 409, 'height': 409, 'widthPercent': 0.45, 'rescaleHeight': False, 'trialN': 22, 'loaded': True, 'loadedTime': 2860.600000143051, 'positionName': 'RIGHT', 'positionCoords': [710.32, 179.5], 'bid': 0.02}]",41884.5,1669831343953,Tribe humus pita,ice cream sundae 002,0.06,0.02,-0.039999999999999994,Tribe humus pita,777.2000000476837,778,777.6000001430511,True,u,43166.200000047684,1281.7000000476837,1669831345235,1282,HRV,HRV_0123,2022-11-30 18:06:17
23,"[{'imgObject': {}, 'id': 'turkey sandwich', 'src': '/static/foodstim60/turkey sandwich.jpg', 'key': 'u', 'origWidth': 409, 'origHeight': 409, 'width': 409, 'height': 409, 'widthPercent': 0.45, 'rescaleHeight': False, 'trialN': 23, 'loaded': True, 'loadedTime': 2870.4000000953674, 'positionName': 'LEFT', 'positionCoords': [246.68, 179.5], 'bid': 9.9}, {'imgObject': {}, 'id': 'froot loops w milk', 'src': '/static/foodstim60/froot loops w milk.jpg', 'key': 'i', 'origWidth': 410, 'origHeight': 410, 'width': 410, 'height': 410, 'widthPercent': 0.45, 'rescaleHeight': False, 'trialN': 23, 'loaded': True, 'loadedTime': 2871, 'positionName': 'RIGHT', 'positionCoords': [710.32, 179], 'bid': 9.83}]",43166.40000009537,1669831345235,turkey sandwich,froot loops w milk,9.9,9.83,-0.07000000000000028,turkey sandwich,721.2999999523163,722,721.7000000476837,True,u,44399.60000014305,1233.2000000476837,1669831346468,1233,HRV,HRV_0123,2022-11-30 18:06:17
24,"[{'imgObject': {}, 'id': 'cheerios', 'src': '/static/foodstim60/cheerios.jpg', 'key': 'u', 'origWidth': 409, 'origHeight': 410, 'width': 409, 'height': 410, 'widthPercent': 0.45, 'rescaleHeight': False, 'trialN': 24, 'loaded': True, 'loadedTime': 2826.9000000953674, 'positionName': 'LEFT', 'positionCoords': [246.68, 179], 'bid': 0.15}, {'imgObject': {}, 'id': 'turkey sandwich', 'src': '/static/foodstim60/turkey sandwich.jpg', 'key': 'i', 'origWidth': 409, 'origHeight': 409, 'width': 409, 'height': 409, 'widthPercent': 0.45, 'rescaleHeight': False, 'trialN': 24, 'loaded': True, 'loadedTime': 2870.9000000953674, 'positionName': 'RIGHT', 'positionCoords': [710.32, 179.5], 'bid': 9.9}]",44399.800000190735,1669831346468,cheerios,turkey sandwich,0.15,9.9,9.75,turkey sandwich,854.8999998569489,856,855.2999999523163,True,i,45765.10000014305,1365.2999999523163,1669831347834,1366,HRV,HRV_0123,2022-11-30 18:06:17
25,"[{'imgObject': {}, 'id': 'blackbeanswithrice', 'src': '/static/foodstim60/blackbeanswithrice.jpg', 'key': 'u', 'origWidth': 410, 'origHeight': 410, 'width': 410, 'height': 410, 'widthPercent': 0.45, 'rescaleHeight': False, 'trialN': 25, 'loaded': True, 'loadedTime': 2804.600000143051, 'positionName': 'LEFT', 'positionCoords': [245.68, 179], 'bid': 0.05}, {'imgObject': {}, 'id': 'pear', 'src': '/static/foodstim60/pear.jpg', 'key': 'i', 'origWidth': 411, 'origHeight': 410, 'width': 411, 'height': 410, 'widthPercent': 0.45, 'rescaleHeight': False, 'trialN': 25, 'loaded': True, 'loadedTime': 2864, 'positionName': 'RIGHT', 'positionCoords': [710.32, 179], 'bid': 0.05}]",45765.40000009537,1669831347834,blackbeanswithrice,pear,0.05,0.05,0.0,blackbeanswithrice,701.5,702,701.7999999523163,True,u,46974.200000047684,1208.7999999523163,1669831349043,1209,HRV,HRV_0123,2022-11-30 18:06:17
26,"[{'imgObject': {}, 'id': 'eggsalad', 'src': '/static/foodstim60/eggsalad.jpg', 'key': 'u', 'origWidth': 410, 'origHeight': 409, 'width': 410, 'height': 409, 'widthPercent': 0.45, 'rescaleHeight': False, 'trialN': 26, 'loaded': True, 'loadedTime': 2882.7000000476837, 'positionName': 'LEFT', 'positionCoords': [245.68, 179.5], 'bid': 0.06}, {'imgObject': {}, 'id': 'burger', 'src': '/static/foodstim60/burger.jpg', 'key': 'i', 'origWidth': 409, 'origHeight': 409, 'width': 409, 'height': 409, 'widthPercent': 0.45, 'rescaleHeight': False, 'trialN': 26, 'loaded': True, 'loadedTime': 2884.2000000476837, 'positionName': 'RIGHT', 'positionCoords': [710.32, 179.5], 'bid': 0.09}]",46974.5,1669831349043,eggsalad,burger,0.06,0.09,0.03,burger,1093.6000001430511,1094,1094.0,True,i,48579.300000190735,1604.8000001907349,1669831350648,1605,HRV,HRV_0123,2022-11-30 18:06:17
27,"[{'imgObject': {}, 'id': 'steak', 'src': '/static/foodstim60/steak.jpg', 'key': 'u', 'origWidth': 410, 'origHeight': 410, 'width': 410, 'height': 410, 'widthPercent': 0.45, 'rescaleHeight': False, 'trialN': 27, 'loaded': True, 'loadedTime': 2886.4000000953674, 'positionName': 'LEFT', 'positionCoords': [245.68, 179], 'bid': 9.33}, {'imgObject': {}, 'id': 'fruitsalad', 'src': '/static/foodstim60/fruitsalad.jpg', 'key': 'i', 'origWidth': 410, 'origHeight': 410, 'width': 410, 'height': 410, 'widthPercent': 0.45, 'rescaleHeight': False, 'trialN': 27, 'loaded': True, 'loadedTime': 2815.4000000953674, 'positionName': 'RIGHT', 'positionCoords': [710.32, 179], 'bid': 0.22}]",48579.60000014305,1669831350648,steak,fruitsalad,9.33,0.22,-9.11,steak,661.7000000476837,662,661.8999998569489,True,u,49761.90000009537,1182.2999999523163,1669831351831,1183,HRV,HRV_0123,2022-11-30 18:06:17
28,"[{'imgObject': {}, 'id': 'bagel plain', 'src': '/static/foodstim60/bagel plain.jpg', 'key': 'u', 'origWidth': 410, 'origHeight': 410, 'width': 410, 'height': 410, 'widthPercent': 0.45, 'rescaleHeight': False, 'trialN': 28, 'loaded': True, 'loadedTime': 2892, 'positionName': 'LEFT', 'positionCoords': [245.68, 179], 'bid': 0}, {'imgObject': {}, 'id': 'seaweed', 'src': '/static/foodstim60/seaweed.jpg', 'key': 'i', 'origWidth': 410, 'origHeight': 410, 'width': 410, 'height': 410, 'widthPercent': 0.45, 'rescaleHeight': False, 'trialN': 28, 'loaded': True, 'loadedTime': 2830.4000000953674, 'positionName': 'RIGHT', 'positionCoords': [710.32, 179], 'bid': 0}]",49762.200000047684,1669831351831,bagel plain,seaweed,0.0,0.0,0.0,bagel plain,904.0,904,904.5,True,u,51177.60000014305,1415.4000000953674,1669831353246,1415,HRV,HRV_0123,2022-11-30 18:06:17
29,"[{'imgObject': {}, 'id': 'raspberries', 'src': '/static/foodstim60/raspberries.jpg', 'key': 'u', 'origWidth': 411, 'origHeight': 411, 'width': 411, 'height': 411, 'widthPercent': 0.45, 'rescaleHeight': False, 'trialN': 29, 'loaded': True, 'loadedTime': 2458.9000000953674, 'positionName': 'LEFT', 'positionCoords': [244.68, 178.5], 'bid': 0.15}, {'imgObject': {}, 'id': 'avocado', 'src': '/static/foodstim60/avocado.jpg', 'key': 'i', 'origWidth': 409, 'origHeight': 409, 'width': 409, 'height': 409, 'widthPercent': 0.45, 'rescaleHeight': False, 'trialN': 29, 'loaded': True, 'loadedTime': 2770.800000190735, 'positionName': 'RIGHT', 'positionCoords': [710.32, 179.5], 'bid': 0.03}]",51177.800000190735,1669831353247,raspberries,avocado,0.15,0.03,-0.12,raspberries,1287.5999999046326,1287,1287.8999998569489,True,u,52976.5,1798.6999998092651,1669831355045,1798,HRV,HRV_0123,2022-11-30 18:06:17
30,"[{'imgObject': {}, 'id': 'orange slices', 'src': '/static/foodstim60/orange slices.jpg', 'key': 'u', 'origWidth': 409, 'origHeight': 410, 'width': 409, 'height': 410, 'widthPercent': 0.45, 'rescaleHeight': False, 'trialN': 30, 'loaded': True, 'loadedTime': 2463.800000190735, 'positionName': 'LEFT', 'positionCoords': [246.68, 179], 'bid': 0.06}, {'imgObject': {}, 'id': 'cherries', 'src': '/static/foodstim60/cherries.jpg', 'key': 'i', 'origWidth': 410, 'origHeight': 411, 'width': 410, 'height': 411, 'widthPercent': 0.45, 'rescaleHeight': False, 'trialN': 30, 'loaded': True, 'loadedTime': 2466, 'positionName': 'RIGHT', 'positionCoords': [710.32, 178.5], 'bid': 0.1}]",52976.800000190735,1669831355046,orange slices,cherries,0.06,0.1,0.04000000000000001,orange slices,751.6999998092651,751,752.0,True,u,54242.5,1265.6999998092651,1669831356311,1265,HRV,HRV_0123,2022-11-30 18:06:17
31,"[{'imgObject': {}, 'id': 'seaweed', 'src': '/static/foodstim60/seaweed.jpg', 'key': 'u', 'origWidth': 410, 'origHeight': 410, 'width': 410, 'height': 410, 'widthPercent': 0.45, 'rescaleHeight': False, 'trialN': 31, 'loaded': True, 'loadedTime': 2830.100000143051, 'positionName': 'LEFT', 'positionCoords': [245.68, 179], 'bid': 0}, {'imgObject': {}, 'id': 'cantaloupe', 'src': '/static/foodstim60/cantaloupe.jpg', 'key': 'i', 'origWidth': 409, 'origHeight': 409, 'width': 409, 'height': 409, 'widthPercent': 0.45, 'rescaleHeight': False, 'trialN': 31, 'loaded': True, 'loadedTime': 2471, 'positionName': 'RIGHT', 'positionCoords': [710.32, 179.5], 'bid': 0.09}]",54242.700000047684,1669831356311,seaweed,cantaloupe,0.0,0.09,0.09,cantaloupe,1690.2999999523163,1691,1690.7000000476837,True,i,56440.300000190735,2197.600000143051,1669831358509,2198,HRV,HRV_0123,2022-11-30 18:06:17
32,"[{'imgObject': {}, 'id': 'salad w chicken', 'src': '/static/foodstim60/salad w chicken.jpg', 'key': 'u', 'origWidth': 411, 'origHeight': 411, 'width': 411, 'height': 411, 'widthPercent': 0.45, 'rescaleHeight': False, 'trialN': 32, 'loaded': True, 'loadedTime': 2700.9000000953674, 'positionName': 'LEFT', 'positionCoords': [244.68, 178.5], 'bid': 8.22}, {'imgObject': {}, 'id': 'luckycharms', 'src': '/static/foodstim60/luckycharms.jpg', 'key': 'i', 'origWidth': 410, 'origHeight': 409, 'width': 410, 'height': 409, 'widthPercent': 0.45, 'rescaleHeight': False, 'trialN': 32, 'loaded': True, 'loadedTime': 2474.2000000476837, 'positionName': 'RIGHT', 'positionCoords': [710.32, 179.5], 'bid': 9.09}]",56440.60000014305,1669831358509,salad w chicken,luckycharms,8.22,9.09,0.8699999999999992,luckycharms,1322.3999998569489,1323,1322.5999999046326,True,i,58272.800000190735,1832.2000000476837,1669831360342,1833,HRV,HRV_0123,2022-11-30 18:06:17
33,"[{'imgObject': {}, 'id': 'froot loops w milk', 'src': '/static/foodstim60/froot loops w milk.jpg', 'key': 'u', 'origWidth': 410, 'origHeight': 410, 'width': 410, 'height': 410, 'widthPercent': 0.45, 'rescaleHeight': False, 'trialN': 33, 'loaded': True, 'loadedTime': 2872.4000000953674, 'positionName': 'LEFT', 'positionCoords': [245.68, 179], 'bid': 9.83}, {'imgObject': {}, 'id': 'steak', 'src': '/static/foodstim60/steak.jpg', 'key': 'i', 'origWidth': 410, 'origHeight': 410, 'width': 410, 'height': 410, 'widthPercent': 0.45, 'rescaleHeight': False, 'trialN': 33, 'loaded': True, 'loadedTime': 2887, 'positionName': 'RIGHT', 'positionCoords': [710.32, 179], 'bid': 9.33}]",58273.0,1669831360342,froot loops w milk,steak,9.83,9.33,-0.5,steak,938.2000000476837,938,938.5,True,i,59721.5,1448.5,1669831361790,1448,HRV,HRV_0123,2022-11-30 18:06:17
34,"[{'imgObject': {}, 'id': 'blueberries', 'src': '/static/foodstim60/blueberries.jpg', 'key': 'u', 'origWidth': 411, 'origHeight': 411, 'width': 411, 'height': 411, 'widthPercent': 0.45, 'rescaleHeight': False, 'trialN': 34, 'loaded': True, 'loadedTime': 2474.800000190735, 'positionName': 'LEFT', 'positionCoords': [244.68, 178.5], 'bid': 0.08}, {'imgObject': {}, 'id': 'lox', 'src': '/static/foodstim60/lox.jpg', 'key': 'i', 'origWidth': 410, 'origHeight': 411, 'width': 410, 'height': 411, 'widthPercent': 0.45, 'rescaleHeight': False, 'trialN': 34, 'loaded': True, 'loadedTime': 2478.4000000953674, 'positionName': 'RIGHT', 'positionCoords': [710.32, 178.5], 'bid': 0.09}]",59721.800000190735,1669831361790,blueberries,lox,0.08,0.09,0.009999999999999995,blueberries,1769.5,1770,1769.7999999523163,True,u,62003.60000014305,2281.7999999523163,1669831364072,2282,HRV,HRV_0123,2022-11-30 18:06:17
35,"[{'imgObject': {}, 'id': 'mashed potato', 'src': '/static/foodstim60/mashed potato.jpg', 'key': 'u', 'origWidth': 409, 'origHeight': 409, 'width': 409, 'height': 409, 'widthPercent': 0.45, 'rescaleHeight': False, 'trialN': 35, 'loaded': True, 'loadedTime': 2852.7000000476837, 'positionName': 'LEFT', 'positionCoords': [246.68, 179.5], 'bid': 0.09}, {'imgObject': {}, 'id': 'olives', 'src': '/static/foodstim60/olives.jpg', 'key': 'i', 'origWidth': 410, 'origHeight': 410, 'width': 410, 'height': 410, 'widthPercent': 0.45, 'rescaleHeight': False, 'trialN': 35, 'loaded': True, 'loadedTime': 2481.300000190735, 'positionName': 'RIGHT', 'positionCoords': [710.32, 179], 'bid': 0.06}]",62003.800000190735,1669831364072,mashed potato,olives,0.09,0.06,-0.03,mashed potato,836.5999999046326,837,837.0,True,u,63352.60000014305,1348.7999999523163,1669831365421,1349,HRV,HRV_0123,2022-11-30 18:06:17
36,"[{'imgObject': {}, 'id': 'blueberries', 'src': '/static/foodstim60/blueberries.jpg', 'key': 'u', 'origWidth': 411, 'origHeight': 411, 'width': 411, 'height': 411, 'widthPercent': 0.45, 'rescaleHeight': False, 'trialN': 36, 'loaded': True, 'loadedTime': 2476.300000190735, 'positionName': 'LEFT', 'positionCoords': [244.68, 178.5], 'bid': 0.08}, {'imgObject': {}, 'id': 'burger', 'src': '/static/foodstim60/burger.jpg', 'key': 'i', 'origWidth': 409, 'origHeight': 409, 'width': 409, 'height': 409, 'widthPercent': 0.45, 'rescaleHeight': False, 'trialN': 36, 'loaded': True, 'loadedTime': 2884.5, 'positionName': 'RIGHT', 'positionCoords': [710.32, 179.5], 'bid': 0.09}]",63352.90000009537,1669831365422,blueberries,burger,0.08,0.09,0.009999999999999995,burger,831.5,831,831.7999999523163,True,i,64701.10000014305,1348.2000000476837,1669831366770,1348,HRV,HRV_0123,2022-11-30 18:06:17
37,"[{'imgObject': {}, 'id': 'Grapes', 'src': '/static/foodstim60/Grapes.jpg', 'key': 'u', 'origWidth': 411, 'origHeight': 411, 'width': 411, 'height': 411, 'widthPercent': 0.45, 'rescaleHeight': False, 'trialN': 37, 'loaded': True, 'loadedTime': 2619, 'positionName': 'LEFT', 'positionCoords': [244.68, 178.5], 'bid': 0.06}, {'imgObject': {}, 'id': 'bagel and cc', 'src': '/static/foodstim60/bagel and cc.jpg', 'key': 'i', 'origWidth': 410, 'origHeight': 410, 'width': 410, 'height': 410, 'widthPercent': 0.45, 'rescaleHeight': False, 'trialN': 37, 'loaded': True, 'loadedTime': 2700.4000000953674, 'positionName': 'RIGHT', 'positionCoords': [710.32, 179], 'bid': 7.48}]",64701.40000009537,1669831366770,Grapes,bagel and cc,0.06,7.48,7.420000000000001,bagel and cc,708.2000000476837,709,708.5,True,i,65931.70000004768,1230.2999999523163,1669831368000,1230,HRV,HRV_0123,2022-11-30 18:06:17
38,"[{'imgObject': {}, 'id': 'orange slices', 'src': '/static/foodstim60/orange slices.jpg', 'key': 'u', 'origWidth': 409, 'origHeight': 410, 'width': 409, 'height': 410, 'widthPercent': 0.45, 'rescaleHeight': False, 'trialN': 38, 'loaded': True, 'loadedTime': 2465, 'positionName': 'LEFT', 'positionCoords': [246.68, 179], 'bid': 0.06}, {'imgObject': {}, 'id': 'eggsalad', 'src': '/static/foodstim60/eggsalad.jpg', 'key': 'i', 'origWidth': 410, 'origHeight': 409, 'width': 410, 'height': 409, 'widthPercent': 0.45, 'rescaleHeight': False, 'trialN': 38, 'loaded': True, 'loadedTime': 2882.2000000476837, 'positionName': 'RIGHT', 'positionCoords': [710.32, 179.5], 'bid': 0.06}]",65932.0,1669831368001,orange slices,eggsalad,0.06,0.06,0.0,orange slices,577.9000000953674,578,578.2000000476837,True,u,67016.70000004768,1084.7000000476837,1669831369085,1084,HRV,HRV_0123,2022-11-30 18:06:17
39,"[{'imgObject': {}, 'id': 'chickenfingers', 'src': '/static/foodstim60/chickenfingers.jpg', 'key': 'u', 'origWidth': 410, 'origHeight': 410, 'width': 410, 'height': 410, 'widthPercent': 0.45, 'rescaleHeight': False, 'trialN': 39, 'loaded': True, 'loadedTime': 2496.300000190735, 'positionName': 'LEFT', 'positionCoords': [245.68, 179], 'bid': 7.38}, {'imgObject': {}, 'id': 'turkeysandwich', 'src': '/static/foodstim60/turkeysandwich.jpg', 'key': 'i', 'origWidth': 409, 'origHeight': 409, 'width': 409, 'height': 409, 'widthPercent': 0.45, 'rescaleHeight': False, 'trialN': 39, 'loaded': True, 'loadedTime': 2716.300000190735, 'positionName': 'RIGHT', 'positionCoords': [710.32, 179.5], 'bid': 3.12}]",67017.0,1669831369086,chickenfingers,turkeysandwich,7.38,3.12,-4.26,chickenfingers,662.7000000476837,663,663.0,True,u,68198.90000009537,1181.9000000953674,1669831370268,1182,HRV,HRV_0123,2022-11-30 18:06:17
40,"[{'imgObject': {}, 'id': 'omelette', 'src': '/static/foodstim60/omelette.jpg', 'key': 'u', 'origWidth': 410, 'origHeight': 409, 'width': 410, 'height': 409, 'widthPercent': 0.45, 'rescaleHeight': False, 'trialN': 40, 'loaded': True, 'loadedTime': 2858.5, 'positionName': 'LEFT', 'positionCoords': [245.68, 179.5], 'bid': 0}, {'imgObject': {}, 'id': 'burrito', 'src': '/static/foodstim60/burrito.jpg', 'key': 'i', 'origWidth': 410, 'origHeight': 410, 'width': 410, 'height': 410, 'widthPercent': 0.45, 'rescaleHeight': False, 'trialN': 40, 'loaded': True, 'loadedTime': 2676.2000000476837, 'positionName': 'RIGHT', 'positionCoords': [710.32, 179], 'bid': 0.09}]",68199.20000004768,1669831370268,omelette,burrito,0.0,0.09,0.09,burrito,565.6000001430511,566,565.9000000953674,True,i,69281.70000004768,1082.5,1669831371350,1082,HRV,HRV_0123,2022-11-30 18:06:17
41,"[{'imgObject': {}, 'id': 'corn cob', 'src': '/static/foodstim60/corn cob.jpg', 'key': 'u', 'origWidth': 411, 'origHeight': 411, 'width': 411, 'height': 411, 'widthPercent': 0.45, 'rescaleHeight': False, 'trialN': 41, 'loaded': True, 'loadedTime': 2501.100000143051, 'positionName': 'LEFT', 'positionCoords': [244.68, 178.5], 'bid': 0}, {'imgObject': {}, 'id': 'omelette', 'src': '/static/foodstim60/omelette.jpg', 'key': 'i', 'origWidth': 410, 'origHeight': 409, 'width': 410, 'height': 409, 'widthPercent': 0.45, 'rescaleHeight': False, 'trialN': 41, 'loaded': True, 'loadedTime': 2858.600000143051, 'positionName': 'RIGHT', 'positionCoords': [710.32, 179.5], 'bid': 0}]",69281.90000009537,1669831371351,corn cob,omelette,0.0,0.0,0.0,corn cob,891.0999999046326,891,891.4000000953674,True,u,70682.30000019073,1400.4000000953674,1669831372751,1400,HRV,HRV_0123,2022-11-30 18:06:17
42,"[{'imgObject': {}, 'id': 'chickenfingers', 'src': '/static/foodstim60/chickenfingers.jpg', 'key': 'u', 'origWidth': 410, 'origHeight': 410, 'width': 410, 'height': 410, 'widthPercent': 0.45, 'rescaleHeight': False, 'trialN': 42, 'loaded': True, 'loadedTime': 2494.2000000476837, 'positionName': 'LEFT', 'positionCoords': [245.68, 179], 'bid': 7.38}, {'imgObject': {}, 'id': 'veggieswithdip', 'src': '/static/foodstim60/veggieswithdip.jpg', 'key': 'i', 'origWidth': 409, 'origHeight': 409, 'width': 409, 'height': 409, 'widthPercent': 0.45, 'rescaleHeight': False, 'trialN': 42, 'loaded': True, 'loadedTime': 2503.100000143051, 'positionName': 'RIGHT', 'positionCoords': [710.32, 179.5], 'bid': 0.13}]",70682.5,1669831372751,chickenfingers,veggieswithdip,7.38,0.13,-7.25,chickenfingers,704.4000000953674,705,704.8000001907349,True,u,71896.30000019073,1213.8000001907349,1669831373965,1214,HRV,HRV_0123,2022-11-30 18:06:17
43,"[{'imgObject': {}, 'id': 'burger', 'src': '/static/foodstim60/burger.jpg', 'key': 'u', 'origWidth': 409, 'origHeight': 409, 'width': 409, 'height': 409, 'widthPercent': 0.45, 'rescaleHeight': False, 'trialN': 43, 'loaded': True, 'loadedTime': 2884.800000190735, 'positionName': 'LEFT', 'positionCoords': [246.68, 179.5], 'bid': 0.09}, {'imgObject': {}, 'id': 'turkeysandwich', 'src': '/static/foodstim60/turkeysandwich.jpg', 'key': 'i', 'origWidth': 409, 'origHeight': 409, 'width': 409, 'height': 409, 'widthPercent': 0.45, 'rescaleHeight': False, 'trialN': 43, 'loaded': True, 'loadedTime': 2716.4000000953674, 'positionName': 'RIGHT', 'positionCoords': [710.32, 179.5], 'bid': 3.12}]",71896.5,1669831373965,burger,turkeysandwich,0.09,3.12,3.0300000000000002,turkeysandwich,1128.4000000953674,1129,1128.8000001907349,True,i,73546.0,1649.5,1669831375615,1650,HRV,HRV_0123,2022-11-30 18:06:17
44,"[{'imgObject': {}, 'id': 'orange slices', 'src': '/static/foodstim60/orange slices.jpg', 'key': 'u', 'origWidth': 409, 'origHeight': 410, 'width': 409, 'height': 410, 'widthPercent': 0.45, 'rescaleHeight': False, 'trialN': 44, 'loaded': True, 'loadedTime': 2459.800000190735, 'positionName': 'LEFT', 'positionCoords': [246.68, 179], 'bid': 0.06}, {'imgObject': {}, 'id': 'mashed potato', 'src': '/static/foodstim60/mashed potato.jpg', 'key': 'i', 'origWidth': 409, 'origHeight': 409, 'width': 409, 'height': 409, 'widthPercent': 0.45, 'rescaleHeight': False, 'trialN': 44, 'loaded': True, 'loadedTime': 2857, 'positionName': 'RIGHT', 'positionCoords': [710.32, 179.5], 'bid': 0.09}]",73546.20000004768,1669831375615,orange slices,mashed potato,0.06,0.09,0.03,orange slices,604.0,604,604.4000000953674,True,u,74659.80000019073,1113.6000001430511,1669831376728,1113,HRV,HRV_0123,2022-11-30 18:06:17
45,"[{'imgObject': {}, 'id': 'lox', 'src': '/static/foodstim60/lox.jpg', 'key': 'u', 'origWidth': 410, 'origHeight': 411, 'width': 410, 'height': 411, 'widthPercent': 0.45, 'rescaleHeight': False, 'trialN': 45, 'loaded': True, 'loadedTime': 2479.5, 'positionName': 'LEFT', 'positionCoords': [245.68, 178.5], 'bid': 0.09}, {'imgObject': {}, 'id': 'turkey sandwich', 'src': '/static/foodstim60/turkey sandwich.jpg', 'key': 'i', 'origWidth': 409, 'origHeight': 409, 'width': 409, 'height': 409, 'widthPercent': 0.45, 'rescaleHeight': False, 'trialN': 45, 'loaded': True, 'loadedTime': 2870.7000000476837, 'positionName': 'RIGHT', 'positionCoords': [710.32, 179.5], 'bid': 9.9}]",74660.0,1669831376729,lox,turkey sandwich,0.09,9.9,9.81,turkey sandwich,679.4000000953674,679,679.7000000476837,True,i,75844.5,1184.5,1669831377913,1184,HRV,HRV_0123,2022-11-30 18:06:17
46,"[{'imgObject': {}, 'id': 'raisin bran w milk', 'src': '/static/foodstim60/raisin bran w milk.jpg', 'key': 'u', 'origWidth': 411, 'origHeight': 411, 'width': 411, 'height': 411, 'widthPercent': 0.45, 'rescaleHeight': False, 'trialN': 46, 'loaded': True, 'loadedTime': 2743.300000190735, 'positionName': 'LEFT', 'positionCoords': [244.68, 178.5], 'bid': 0}, {'imgObject': {}, 'id': 'cocktailshrimp', 'src': '/static/foodstim60/cocktailshrimp.jpg', 'key': 'i', 'origWidth': 410, 'origHeight': 410, 'width': 410, 'height': 410, 'widthPercent': 0.45, 'rescaleHeight': False, 'trialN': 46, 'loaded': True, 'loadedTime': 2657.100000143051, 'positionName': 'RIGHT', 'positionCoords': [710.32, 179], 'bid': 0.03}]",75844.80000019073,1669831377913,raisin bran w milk,cocktailshrimp,0.0,0.03,0.03,raisin bran w milk,1047.0999999046326,1048,1047.5,True,u,77409.0,1564.1999998092651,1669831379478,1565,HRV,HRV_0123,2022-11-30 18:06:17
47,"[{'imgObject': {}, 'id': 'cherries', 'src': '/static/foodstim60/cherries.jpg', 'key': 'u', 'origWidth': 410, 'origHeight': 411, 'width': 410, 'height': 411, 'widthPercent': 0.45, 'rescaleHeight': False, 'trialN': 47, 'loaded': True, 'loadedTime': 2468.2000000476837, 'positionName': 'LEFT', 'positionCoords': [245.68, 178.5], 'bid': 0.1}, {'imgObject': {}, 'id': 'chicken nuggets2', 'src': '/static/foodstim60/chicken nuggets2.jpg', 'key': 'i', 'origWidth': 410, 'origHeight': 409, 'width': 410, 'height': 409, 'widthPercent': 0.45, 'rescaleHeight': False, 'trialN': 47, 'loaded': True, 'loadedTime': 2508.4000000953674, 'positionName': 'RIGHT', 'positionCoords': [710.32, 179.5], 'bid': 5.01}]",77409.20000004768,1669831379478,cherries,chicken nuggets2,0.1,5.01,4.91,chicken nuggets2,814.6000001430511,815,814.9000000953674,True,i,78742.5,1333.2999999523163,1669831380811,1333,HRV,HRV_0123,2022-11-30 18:06:17
48,"[{'imgObject': {}, 'id': 'seaweed', 'src': '/static/foodstim60/seaweed.jpg', 'key': 'u', 'origWidth': 410, 'origHeight': 410, 'width': 410, 'height': 410, 'widthPercent': 0.45, 'rescaleHeight': False, 'trialN': 48, 'loaded': True, 'loadedTime': 2828, 'positionName': 'LEFT', 'positionCoords': [245.68, 179], 'bid': 0}, {'imgObject': {}, 'id': 'baked potato', 'src': '/static/foodstim60/baked potato.jpg', 'key': 'i', 'origWidth': 409, 'origHeight': 410, 'width': 409, 'height': 410, 'widthPercent': 0.45, 'rescaleHeight': False, 'trialN': 48, 'loaded': True, 'loadedTime': 2510.300000190735, 'positionName': 'RIGHT', 'positionCoords': [710.32, 179], 'bid': 0}]",78742.80000019073,1669831380811,seaweed,baked potato,0.0,0.0,0.0,baked potato,1146.2999999523163,1147,1146.5999999046326,True,i,80407.30000019073,1664.5,1669831382476,1665,HRV,HRV_0123,2022-11-30 18:06:17
49,"[{'imgObject': {}, 'id': 'pear', 'src': '/static/foodstim60/pear.jpg', 'key': 'u', 'origWidth': 411, 'origHeight': 410, 'width': 411, 'height': 410, 'widthPercent': 0.45, 'rescaleHeight': False, 'trialN': 49, 'loaded': True, 'loadedTime': 2864.300000190735, 'positionName': 'LEFT', 'positionCoords': [244.68, 179], 'bid': 0.05}, {'imgObject': {}, 'id': 'corn cob', 'src': '/static/foodstim60/corn cob.jpg', 'key': 'i', 'origWidth': 411, 'origHeight': 411, 'width': 411, 'height': 411, 'widthPercent': 0.45, 'rescaleHeight': False, 'trialN': 49, 'loaded': True, 'loadedTime': 2501.4000000953674, 'positionName': 'RIGHT', 'positionCoords': [710.32, 178.5], 'bid': 0}]",80407.60000014305,1669831382476,pear,corn cob,0.05,0.0,-0.05,corn cob,731.7000000476837,732,732.0,True,i,81651.0,1243.3999998569489,1669831383720,1244,HRV,HRV_0123,2022-11-30 18:06:17
50,"[{'imgObject': {}, 'id': 'cheerios', 'src': '/static/foodstim60/cheerios.jpg', 'key': 'u', 'origWidth': 409, 'origHeight': 410, 'width': 409, 'height': 410, 'widthPercent': 0.45, 'rescaleHeight': False, 'trialN': 50, 'loaded': True, 'loadedTime': 2827.7000000476837, 'positionName': 'LEFT', 'positionCoords': [246.68, 179], 'bid': 0.15}, {'imgObject': {}, 'id': 'rigatoni', 'src': '/static/foodstim60/rigatoni.jpg', 'key': 'i', 'origWidth': 411, 'origHeight': 411, 'width': 411, 'height': 411, 'widthPercent': 0.45, 'rescaleHeight': False, 'trialN': 50, 'loaded': True, 'loadedTime': 2604, 'positionName': 'RIGHT', 'positionCoords': [710.32, 178.5], 'bid': 0.12}]",81651.30000019073,1669831383720,cheerios,rigatoni,0.15,0.12,-0.03,cheerios,760.1999998092651,760,760.5,True,u,82922.20000004768,1270.8999998569489,1669831384991,1271,HRV,HRV_0123,2022-11-30 18:06:17
51,"[{'imgObject': {}, 'id': 'olives', 'src': '/static/foodstim60/olives.jpg', 'key': 'u', 'origWidth': 410, 'origHeight': 410, 'width': 410, 'height': 410, 'widthPercent': 0.45, 'rescaleHeight': False, 'trialN': 51, 'loaded': True, 'loadedTime': 2482, 'positionName': 'LEFT', 'positionCoords': [245.68, 179], 'bid': 0.06}, {'imgObject': {}, 'id': 'chickenfingers', 'src': '/static/foodstim60/chickenfingers.jpg', 'key': 'i', 'origWidth': 410, 'origHeight': 410, 'width': 410, 'height': 410, 'widthPercent': 0.45, 'rescaleHeight': False, 'trialN': 51, 'loaded': True, 'loadedTime': 2492.800000190735, 'positionName': 'RIGHT', 'positionCoords': [710.32, 179], 'bid': 7.38}]",82922.5,1669831384991,olives,chickenfingers,0.06,7.38,7.32,chickenfingers,789.2000000476837,790,789.5,True,i,84221.10000014305,1298.6000001430511,1669831386290,1299,HRV,HRV_0123,2022-11-30 18:06:17
52,"[{'imgObject': {}, 'id': 'burrito', 'src': '/static/foodstim60/burrito.jpg', 'key': 'u', 'origWidth': 410, 'origHeight': 410, 'width': 410, 'height': 410, 'widthPercent': 0.45, 'rescaleHeight': False, 'trialN': 52, 'loaded': True, 'loadedTime': 2679, 'positionName': 'LEFT', 'positionCoords': [245.68, 179], 'bid': 0.09}, {'imgObject': {}, 'id': 'burger', 'src': '/static/foodstim60/burger.jpg', 'key': 'i', 'origWidth': 409, 'origHeight': 409, 'width': 409, 'height': 409, 'widthPercent': 0.45, 'rescaleHeight': False, 'trialN': 52, 'loaded': True, 'loadedTime': 2883, 'positionName': 'RIGHT', 'positionCoords': [710.32, 179.5], 'bid': 0.09}]",84221.40000009537,1669831386290,burrito,burger,0.09,0.09,0.0,burger,1005.7000000476837,1006,1006.0,True,i,85736.70000004768,1515.2999999523163,1669831387805,1515,HRV,HRV_0123,2022-11-30 18:06:17
53,"[{'imgObject': {}, 'id': 'cocktailshrimp', 'src': '/static/foodstim60/cocktailshrimp.jpg', 'key': 'u', 'origWidth': 410, 'origHeight': 410, 'width': 410, 'height': 410, 'widthPercent': 0.45, 'rescaleHeight': False, 'trialN': 53, 'loaded': True, 'loadedTime': 2658.9000000953674, 'positionName': 'LEFT', 'positionCoords': [245.68, 179], 'bid': 0.03}, {'imgObject': {}, 'id': 'baked potato', 'src': '/static/foodstim60/baked potato.jpg', 'key': 'i', 'origWidth': 409, 'origHeight': 410, 'width': 409, 'height': 410, 'widthPercent': 0.45, 'rescaleHeight': False, 'trialN': 53, 'loaded': True, 'loadedTime': 2511, 'positionName': 'RIGHT', 'positionCoords': [710.32, 179], 'bid': 0}]",85737.0,1669831387806,cocktailshrimp,baked potato,0.03,0.0,-0.03,cocktailshrimp,645.4000000953674,645,645.7000000476837,True,u,86888.30000019073,1151.3000001907349,1669831388957,1151,HRV,HRV_0123,2022-11-30 18:06:17
54,"[{'imgObject': {}, 'id': 'mango', 'src': '/static/foodstim60/mango.jpg', 'key': 'u', 'origWidth': 411, 'origHeight': 411, 'width': 411, 'height': 411, 'widthPercent': 0.45, 'rescaleHeight': False, 'trialN': 54, 'loaded': True, 'loadedTime': 2438.300000190735, 'positionName': 'LEFT', 'positionCoords': [244.68, 178.5], 'bid': 0.12}, {'imgObject': {}, 'id': 'lox', 'src': '/static/foodstim60/lox.jpg', 'key': 'i', 'origWidth': 410, 'origHeight': 411, 'width': 410, 'height': 411, 'widthPercent': 0.45, 'rescaleHeight': False, 'trialN': 54, 'loaded': True, 'loadedTime': 2479.300000190735, 'positionName': 'RIGHT', 'positionCoords': [710.32, 178.5], 'bid': 0.09}]",86888.5,1669831388957,mango,lox,0.12,0.09,-0.03,mango,1795.6000001430511,1796,1795.9000000953674,True,u,89200.90000009537,2312.4000000953674,1669831391270,2313,HRV,HRV_0123,2022-11-30 18:06:17
55,"[{'imgObject': {}, 'id': 'granola w milk', 'src': '/static/foodstim60/granola w milk.jpg', 'key': 'u', 'origWidth': 410, 'origHeight': 410, 'width': 410, 'height': 410, 'widthPercent': 0.45, 'rescaleHeight': False, 'trialN': 55, 'loaded': True, 'loadedTime': 2518.9000000953674, 'positionName': 'LEFT', 'positionCoords': [245.68, 179], 'bid': 0.13}, {'imgObject': {}, 'id': 'yogurt no spoon', 'src': '/static/foodstim60/yogurt no spoon.jpg', 'key': 'i', 'origWidth': 411, 'origHeight': 410, 'width': 411, 'height': 410, 'widthPercent': 0.45, 'rescaleHeight': False, 'trialN': 55, 'loaded': True, 'loadedTime': 2540.7000000476837, 'positionName': 'RIGHT', 'positionCoords': [710.32, 179], 'bid': 0.1}]",89201.20000004768,1669831391270,granola w milk,yogurt no spoon,0.13,0.1,-0.03,yogurt no spoon,1338.2000000476837,1333,1338.7000000476837,True,i,91053.0,1851.7999999523163,1669831393117,1847,HRV,HRV_0123,2022-11-30 18:06:17
56,"[{'imgObject': {}, 'id': 'sushi w_condiments', 'src': '/static/foodstim60/sushi w_condiments.jpg', 'key': 'u', 'origWidth': 410, 'origHeight': 410, 'width': 410, 'height': 410, 'widthPercent': 0.45, 'rescaleHeight': False, 'trialN': 56, 'loaded': True, 'loadedTime': 2661.800000190735, 'positionName': 'LEFT', 'positionCoords': [245.68, 179], 'bid': 0.28}, {'imgObject': {}, 'id': 'froot loops w milk', 'src': '/static/foodstim60/froot loops w milk.jpg', 'key': 'i', 'origWidth': 410, 'origHeight': 410, 'width': 410, 'height': 410, 'widthPercent': 0.45, 'rescaleHeight': False, 'trialN': 56, 'loaded': True, 'loadedTime': 2872.300000190735, 'positionName': 'RIGHT', 'positionCoords': [710.32, 179], 'bid': 9.83}]",91053.20000004768,1669831393117,sushi w_condiments,froot loops w milk,0.28,9.83,9.55,froot loops w milk,759.2000000476837,759,759.7000000476837,True,i,92317.20000004768,1264.0,1669831394381,1264,HRV,HRV_0123,2022-11-30 18:06:17
57,"[{'imgObject': {}, 'id': 'banana', 'src': '/static/foodstim60/banana.jpg', 'key': 'u', 'origWidth': 410, 'origHeight': 410, 'width': 410, 'height': 410, 'widthPercent': 0.45, 'rescaleHeight': False, 'trialN': 57, 'loaded': True, 'loadedTime': 2547.7000000476837, 'positionName': 'LEFT', 'positionCoords': [245.68, 179], 'bid': 0.08}, {'imgObject': {}, 'id': 'mac & cheese', 'src': '/static/foodstim60/mac & cheese.jpg', 'key': 'i', 'origWidth': 410, 'origHeight': 410, 'width': 410, 'height': 410, 'widthPercent': 0.45, 'rescaleHeight': False, 'trialN': 57, 'loaded': True, 'loadedTime': 2561.5, 'positionName': 'RIGHT', 'positionCoords': [710.32, 179], 'bid': 0.09}]",92317.40000009537,1669831394381,banana,mac & cheese,0.08,0.09,0.009999999999999995,mac & cheese,734.0999999046326,734,734.4000000953674,True,i,93564.30000019073,1246.9000000953674,1669831395628,1247,HRV,HRV_0123,2022-11-30 18:06:17
58,"[{'imgObject': {}, 'id': 'strawberries', 'src': '/static/foodstim60/strawberries.jpg', 'key': 'u', 'origWidth': 410, 'origHeight': 410, 'width': 410, 'height': 410, 'widthPercent': 0.45, 'rescaleHeight': False, 'trialN': 58, 'loaded': True, 'loadedTime': 2759.300000190735, 'positionName': 'LEFT', 'positionCoords': [245.68, 179], 'bid': 0.03}, {'imgObject': {}, 'id': 'hashbrowns', 'src': '/static/foodstim60/hashbrowns.jpg', 'key': 'i', 'origWidth': 411, 'origHeight': 410, 'width': 411, 'height': 410, 'widthPercent': 0.45, 'rescaleHeight': False, 'trialN': 58, 'loaded': True, 'loadedTime': 2832.2000000476837, 'positionName': 'RIGHT', 'positionCoords': [710.32, 179], 'bid': 0.03}]",93564.60000014305,1669831395628,strawberries,hashbrowns,0.03,0.03,0.0,strawberries,2018.8999998569489,2019,2019.2999999523163,True,u,96097.10000014305,2532.5,1669831398161,2533,HRV,HRV_0123,2022-11-30 18:06:17
59,"[{'imgObject': {}, 'id': 'turkeysandwich', 'src': '/static/foodstim60/turkeysandwich.jpg', 'key': 'u', 'origWidth': 409, 'origHeight': 409, 'width': 409, 'height': 409, 'widthPercent': 0.45, 'rescaleHeight': False, 'trialN': 59, 'loaded': True, 'loadedTime': 2716, 'positionName': 'LEFT', 'positionCoords': [246.68, 179.5], 'bid': 3.12}, {'imgObject': {}, 'id': 'turkey sandwich', 'src': '/static/foodstim60/turkey sandwich.jpg', 'key': 'i', 'origWidth': 409, 'origHeight': 409, 'width': 409, 'height': 409, 'widthPercent': 0.45, 'rescaleHeight': False, 'trialN': 59, 'loaded': True, 'loadedTime': 2870.2000000476837, 'positionName': 'RIGHT', 'positionCoords': [710.32, 179.5], 'bid': 9.9}]",96097.30000019073,1669831398161,turkeysandwich,turkey sandwich,3.12,9.9,6.78,turkey sandwich,791.2999999523163,791,791.5999999046326,True,i,97395.80000019073,1298.5,1669831399459,1298,HRV,HRV_0123,2022-11-30 18:06:17
60,"[{'imgObject': {}, 'id': 'Grapes', 'src': '/static/foodstim60/Grapes.jpg', 'key': 'u', 'origWidth': 411, 'origHeight': 411, 'width': 411, 'height': 411, 'widthPercent': 0.45, 'rescaleHeight': False, 'trialN': 60, 'loaded': True, 'loadedTime': 2636.7000000476837, 'positionName': 'LEFT', 'positionCoords': [244.68, 178.5], 'bid': 0.06}, {'imgObject': {}, 'id': 'burrito', 'src': '/static/foodstim60/burrito.jpg', 'key': 'i', 'origWidth': 410, 'origHeight': 410, 'width': 410, 'height': 410, 'widthPercent': 0.45, 'rescaleHeight': False, 'trialN': 60, 'loaded': True, 'loadedTime': 2674.9000000953674, 'positionName': 'RIGHT', 'positionCoords': [710.32, 179], 'bid': 0.09}]",97396.10000014305,1669831399460,Grapes,burrito,0.06,0.09,0.03,burrito,1144.7999999523163,1145,1145.2000000476837,True,i,99044.80000019073,1648.7000000476837,1669831401108,1648,HRV,HRV_0123,2022-11-30 18:06:17
61,"[{'imgObject': {}, 'id': 'roastedpotatoes', 'src': '/static/foodstim60/roastedpotatoes.jpg', 'key': 'u', 'origWidth': 409, 'origHeight': 410, 'width': 409, 'height': 410, 'widthPercent': 0.45, 'rescaleHeight': False, 'trialN': 61, 'loaded': True, 'loadedTime': 2866.5, 'positionName': 'LEFT', 'positionCoords': [246.68, 179], 'bid': 0.03}, {'imgObject': {}, 'id': 'blackbeanswithrice', 'src': '/static/foodstim60/blackbeanswithrice.jpg', 'key': 'i', 'origWidth': 410, 'origHeight': 410, 'width': 410, 'height': 410, 'widthPercent': 0.45, 'rescaleHeight': False, 'trialN': 61, 'loaded': True, 'loadedTime': 2811.5, 'positionName': 'RIGHT', 'positionCoords': [710.32, 179], 'bid': 0.05}]",99045.0,1669831401109,roastedpotatoes,blackbeanswithrice,0.03,0.05,0.020000000000000004,blackbeanswithrice,1014.2000000476837,1014,1014.6000001430511,True,i,100576.90000009537,1531.9000000953674,1669831402640,1531,HRV,HRV_0123,2022-11-30 18:06:17
62,"[{'imgObject': {}, 'id': 'rigatoni', 'src': '/static/foodstim60/rigatoni.jpg', 'key': 'u', 'origWidth': 411, 'origHeight': 411, 'width': 411, 'height': 411, 'widthPercent': 0.45, 'rescaleHeight': False, 'trialN': 62, 'loaded': True, 'loadedTime': 2601.300000190735, 'positionName': 'LEFT', 'positionCoords': [244.68, 178.5], 'bid': 0.12}, {'imgObject': {}, 'id': 'ice cream sundae 002', 'src': '/static/foodstim60/ice cream sundae 002.jpg', 'key': 'i', 'origWidth': 409, 'origHeight': 409, 'width': 409, 'height': 409, 'widthPercent': 0.45, 'rescaleHeight': False, 'trialN': 62, 'loaded': True, 'loadedTime': 2862.100000143051, 'positionName': 'RIGHT', 'positionCoords': [710.32, 179.5], 'bid': 0.02}]",100577.30000019073,1669831402641,rigatoni,ice cream sundae 002,0.12,0.02,-0.09999999999999999,rigatoni,762.6999998092651,763,763.0999999046326,True,u,101858.40000009537,1281.0999999046326,1669831403922,1281,HRV,HRV_0123,2022-11-30 18:06:17
63,"[{'imgObject': {}, 'id': 'Grapes', 'src': '/static/foodstim60/Grapes.jpg', 'key': 'u', 'origWidth': 411, 'origHeight': 411, 'width': 411, 'height': 411, 'widthPercent': 0.45, 'rescaleHeight': False, 'trialN': 63, 'loaded': True, 'loadedTime': 2641.4000000953674, 'positionName': 'LEFT', 'positionCoords': [244.68, 178.5], 'bid': 0.06}, {'imgObject': {}, 'id': 'salmon', 'src': '/static/foodstim60/salmon.jpg', 'key': 'i', 'origWidth': 410, 'origHeight': 409, 'width': 410, 'height': 409, 'widthPercent': 0.45, 'rescaleHeight': False, 'trialN': 63, 'loaded': True, 'loadedTime': 2799.100000143051, 'positionName': 'RIGHT', 'positionCoords': [710.32, 179.5], 'bid': 0}]",101858.70000004768,1669831403922,Grapes,salmon,0.06,0.0,-0.06,salmon,1649.6000001430511,1650,1649.9000000953674,True,i,104023.60000014305,2164.9000000953674,1669831406087,2165,HRV,HRV_0123,2022-11-30 18:06:17
64,"[{'imgObject': {}, 'id': 'strawberries', 'src': '/static/foodstim60/strawberries.jpg', 'key': 'u', 'origWidth': 410, 'origHeight': 410, 'width': 410, 'height': 410, 'widthPercent': 0.45, 'rescaleHeight': False, 'trialN': 64, 'loaded': True, 'loadedTime': 2759.2000000476837, 'positionName': 'LEFT', 'positionCoords': [245.68, 179], 'bid': 0.03}, {'imgObject': {}, 'id': 'sweetpotato', 'src': '/static/foodstim60/sweetpotato.jpg', 'key': 'i', 'origWidth': 410, 'origHeight': 410, 'width': 410, 'height': 410, 'widthPercent': 0.45, 'rescaleHeight': False, 'trialN': 64, 'loaded': True, 'loadedTime': 2564, 'positionName': 'RIGHT', 'positionCoords': [710.32, 179], 'bid': 0.05}]",104023.90000009537,1669831406087,strawberries,sweetpotato,0.03,0.05,0.020000000000000004,strawberries,895.2000000476837,896,895.5,True,u,105424.30000019073,1400.4000000953674,1669831407488,1401,HRV,HRV_0123,2022-11-30 18:06:17
65,"[{'imgObject': {}, 'id': 'fried eggs', 'src': '/static/foodstim60/fried eggs.jpg', 'key': 'u', 'origWidth': 410, 'origHeight': 410, 'width': 410, 'height': 410, 'widthPercent': 0.45, 'rescaleHeight': False, 'trialN': 65, 'loaded': True, 'loadedTime': 2577, 'positionName': 'LEFT', 'positionCoords': [245.68, 179], 'bid': 0.12}, {'imgObject': {}, 'id': 'luckycharms', 'src': '/static/foodstim60/luckycharms.jpg', 'key': 'i', 'origWidth': 410, 'origHeight': 409, 'width': 410, 'height': 409, 'widthPercent': 0.45, 'rescaleHeight': False, 'trialN': 65, 'loaded': True, 'loadedTime': 2473.7000000476837, 'positionName': 'RIGHT', 'positionCoords': [710.32, 179.5], 'bid': 9.09}]",105424.70000004768,1669831407488,fried eggs,luckycharms,0.12,9.09,8.97,luckycharms,686.2999999523163,687,686.7000000476837,True,i,106621.80000019073,1197.1000001430511,1669831408685,1197,HRV,HRV_0123,2022-11-30 18:06:17
66,"[{'imgObject': {}, 'id': 'cherries', 'src': '/static/foodstim60/cherries.jpg', 'key': 'u', 'origWidth': 410, 'origHeight': 411, 'width': 410, 'height': 411, 'widthPercent': 0.45, 'rescaleHeight': False, 'trialN': 66, 'loaded': True, 'loadedTime': 2468.600000143051, 'positionName': 'LEFT', 'positionCoords': [245.68, 178.5], 'bid': 0.1}, {'imgObject': {}, 'id': 'lox', 'src': '/static/foodstim60/lox.jpg', 'key': 'i', 'origWidth': 410, 'origHeight': 411, 'width': 410, 'height': 411, 'widthPercent': 0.45, 'rescaleHeight': False, 'trialN': 66, 'loaded': True, 'loadedTime': 2478.800000190735, 'positionName': 'RIGHT', 'positionCoords': [710.32, 178.5], 'bid': 0.09}]",106622.20000004768,1669831408686,cherries,lox,0.1,0.09,-0.010000000000000009,cherries,1536.6000001430511,1537,1536.9000000953674,True,u,108671.10000014305,2048.9000000953674,1669831410735,2049,HRV,HRV_0123,2022-11-30 18:06:17
67,"[{'imgObject': {}, 'id': 'omelette', 'src': '/static/foodstim60/omelette.jpg', 'key': 'u', 'origWidth': 410, 'origHeight': 409, 'width': 410, 'height': 409, 'widthPercent': 0.45, 'rescaleHeight': False, 'trialN': 67, 'loaded': True, 'loadedTime': 2858.2000000476837, 'positionName': 'LEFT', 'positionCoords': [245.68, 179.5], 'bid': 0}, {'imgObject': {}, 'id': 'hashbrowns', 'src': '/static/foodstim60/hashbrowns.jpg', 'key': 'i', 'origWidth': 411, 'origHeight': 410, 'width': 411, 'height': 410, 'widthPercent': 0.45, 'rescaleHeight': False, 'trialN': 67, 'loaded': True, 'loadedTime': 2832.4000000953674, 'positionName': 'RIGHT', 'positionCoords': [710.32, 179], 'bid': 0.03}]",108671.40000009537,1669831410735,omelette,hashbrowns,0.0,0.03,0.03,hashbrowns,693.2999999523163,694,693.5999999046326,True,i,109868.30000019073,1196.9000000953674,1669831411932,1197,HRV,HRV_0123,2022-11-30 18:06:17
68,"[{'imgObject': {}, 'id': 'chicken nuggets2', 'src': '/static/foodstim60/chicken nuggets2.jpg', 'key': 'u', 'origWidth': 410, 'origHeight': 409, 'width': 410, 'height': 409, 'widthPercent': 0.45, 'rescaleHeight': False, 'trialN': 68, 'loaded': True, 'loadedTime': 2508, 'positionName': 'LEFT', 'positionCoords': [245.68, 179.5], 'bid': 5.01}, {'imgObject': {}, 'id': 'grilled chicken strips', 'src': '/static/foodstim60/grilled chicken strips.jpg', 'key': 'i', 'origWidth': 410, 'origHeight': 411, 'width': 410, 'height': 411, 'widthPercent': 0.45, 'rescaleHeight': False, 'trialN': 68, 'loaded': True, 'loadedTime': 2705.7000000476837, 'positionName': 'RIGHT', 'positionCoords': [710.32, 178.5], 'bid': 1.36}]",109868.60000014305,1669831411932,chicken nuggets2,grilled chicken strips,5.01,1.36,-3.6499999999999995,chicken nuggets2,589.2000000476837,590,589.5,True,u,110968.70000004768,1100.0999999046326,1669831413032,1100,HRV,HRV_0123,2022-11-30 18:06:17
69,"[{'imgObject': {}, 'id': 'blueberries', 'src': '/static/foodstim60/blueberries.jpg', 'key': 'u', 'origWidth': 411, 'origHeight': 411, 'width': 411, 'height': 411, 'widthPercent': 0.45, 'rescaleHeight': False, 'trialN': 69, 'loaded': True, 'loadedTime': 2476.100000143051, 'positionName': 'LEFT', 'positionCoords': [244.68, 178.5], 'bid': 0.08}, {'imgObject': {}, 'id': 'roastedpotatoes', 'src': '/static/foodstim60/roastedpotatoes.jpg', 'key': 'i', 'origWidth': 409, 'origHeight': 410, 'width': 409, 'height': 410, 'widthPercent': 0.45, 'rescaleHeight': False, 'trialN': 69, 'loaded': True, 'loadedTime': 2866.600000143051, 'positionName': 'RIGHT', 'positionCoords': [710.32, 179], 'bid': 0.03}]",110968.90000009537,1669831413033,blueberries,roastedpotatoes,0.08,0.03,-0.05,roastedpotatoes,565.5999999046326,565,565.9000000953674,True,i,112051.10000014305,1082.2000000476837,1669831414115,1082,HRV,HRV_0123,2022-11-30 18:06:17
70,"[{'imgObject': {}, 'id': 'fruitsalad', 'src': '/static/foodstim60/fruitsalad.jpg', 'key': 'u', 'origWidth': 410, 'origHeight': 410, 'width': 410, 'height': 410, 'widthPercent': 0.45, 'rescaleHeight': False, 'trialN': 70, 'loaded': True, 'loadedTime': 2815.800000190735, 'positionName': 'LEFT', 'positionCoords': [245.68, 179], 'bid': 0.22}, {'imgObject': {}, 'id': 'sushi w_condiments', 'src': '/static/foodstim60/sushi w_condiments.jpg', 'key': 'i', 'origWidth': 410, 'origHeight': 410, 'width': 410, 'height': 410, 'widthPercent': 0.45, 'rescaleHeight': False, 'trialN': 70, 'loaded': True, 'loadedTime': 2671.7000000476837, 'positionName': 'RIGHT', 'positionCoords': [710.32, 179], 'bid': 0.28}]",112051.5,1669831414115,fruitsalad,sushi w_condiments,0.22,0.28,0.060000000000000026,fruitsalad,1420.0,1420,1420.3000001907349,True,u,113983.30000019073,1931.8000001907349,1669831416047,1932,HRV,HRV_0123,2022-11-30 18:06:17
71,"[{'imgObject': {}, 'id': 'cantaloupe', 'src': '/static/foodstim60/cantaloupe.jpg', 'key': 'u', 'origWidth': 409, 'origHeight': 409, 'width': 409, 'height': 409, 'widthPercent': 0.45, 'rescaleHeight': False, 'trialN': 71, 'loaded': True, 'loadedTime': 2471.2000000476837, 'positionName': 'LEFT', 'positionCoords': [246.68, 179.5], 'bid': 0.09}, {'imgObject': {}, 'id': 'blueberries', 'src': '/static/foodstim60/blueberries.jpg', 'key': 'i', 'origWidth': 411, 'origHeight': 411, 'width': 411, 'height': 411, 'widthPercent': 0.45, 'rescaleHeight': False, 'trialN': 71, 'loaded': True, 'loadedTime': 2476, 'positionName': 'RIGHT', 'positionCoords': [710.32, 178.5], 'bid': 0.08}]",113983.90000009537,1669831416047,cantaloupe,blueberries,0.09,0.08,-0.009999999999999995,blueberries,1802.7000000476837,1803,1803.0999999046326,True,i,116298.40000009537,2314.5,1669831418362,2315,HRV,HRV_0123,2022-11-30 18:06:17
72,"[{'imgObject': {}, 'id': 'corn cob', 'src': '/static/foodstim60/corn cob.jpg', 'key': 'u', 'origWidth': 411, 'origHeight': 411, 'width': 411, 'height': 411, 'widthPercent': 0.45, 'rescaleHeight': False, 'trialN': 72, 'loaded': True, 'loadedTime': 2501.600000143051, 'positionName': 'LEFT', 'positionCoords': [244.68, 178.5], 'bid': 0}, {'imgObject': {}, 'id': 'baked potato', 'src': '/static/foodstim60/baked potato.jpg', 'key': 'i', 'origWidth': 409, 'origHeight': 410, 'width': 409, 'height': 410, 'widthPercent': 0.45, 'rescaleHeight': False, 'trialN': 72, 'loaded': True, 'loadedTime': 2510.600000143051, 'positionName': 'RIGHT', 'positionCoords': [710.32, 179], 'bid': 0}]",116298.70000004768,1669831418362,corn cob,baked potato,0.0,0.0,0.0,corn cob,746.9000000953674,747,747.2999999523163,True,u,117548.90000009537,1250.2000000476837,1669831419613,1251,HRV,HRV_0123,2022-11-30 18:06:17
73,"[{'imgObject': {}, 'id': 'tacos', 'src': '/static/foodstim60/tacos.jpg', 'key': 'u', 'origWidth': 411, 'origHeight': 411, 'width': 411, 'height': 411, 'widthPercent': 0.45, 'rescaleHeight': False, 'trialN': 73, 'loaded': True, 'loadedTime': 2717, 'positionName': 'LEFT', 'positionCoords': [244.68, 178.5], 'bid': 9.86}, {'imgObject': {}, 'id': 'grilled chicken strips', 'src': '/static/foodstim60/grilled chicken strips.jpg', 'key': 'i', 'origWidth': 410, 'origHeight': 411, 'width': 410, 'height': 411, 'widthPercent': 0.45, 'rescaleHeight': False, 'trialN': 73, 'loaded': True, 'loadedTime': 2705.5, 'positionName': 'RIGHT', 'positionCoords': [710.32, 178.5], 'bid': 1.36}]",117549.20000004768,1669831419613,tacos,grilled chicken strips,9.86,1.36,-8.5,tacos,949.4000000953674,949,949.6000001430511,True,u,119013.70000004768,1464.5,1669831421077,1464,HRV,HRV_0123,2022-11-30 18:06:17
74,"[{'imgObject': {}, 'id': 'hotdog w must', 'src': '/static/foodstim60/hotdog w must.jpg', 'key': 'u', 'origWidth': 409, 'origHeight': 409, 'width': 409, 'height': 409, 'widthPercent': 0.45, 'rescaleHeight': False, 'trialN': 74, 'loaded': True, 'loadedTime': 2754.7000000476837, 'positionName': 'LEFT', 'positionCoords': [246.68, 179.5], 'bid': 0.1}, {'imgObject': {}, 'id': 'edamame', 'src': '/static/foodstim60/edamame.jpg', 'key': 'i', 'origWidth': 409, 'origHeight': 410, 'width': 409, 'height': 410, 'widthPercent': 0.45, 'rescaleHeight': False, 'trialN': 74, 'loaded': True, 'loadedTime': 2646.2000000476837, 'positionName': 'RIGHT', 'positionCoords': [710.32, 179], 'bid': 0.06}]",119013.90000009537,1669831421077,hotdog w must,edamame,0.1,0.06,-0.04000000000000001,hotdog w must,1858.7999999523163,1860,1859.0999999046326,True,u,121395.0,2381.0999999046326,1669831423459,2382,HRV,HRV_0123,2022-11-30 18:06:17
75,"[{'imgObject': {}, 'id': 'blueberries', 'src': '/static/foodstim60/blueberries.jpg', 'key': 'u', 'origWidth': 411, 'origHeight': 411, 'width': 411, 'height': 411, 'widthPercent': 0.45, 'rescaleHeight': False, 'trialN': 75, 'loaded': True, 'loadedTime': 2476.800000190735, 'positionName': 'LEFT', 'positionCoords': [244.68, 178.5], 'bid': 0.08}, {'imgObject': {}, 'id': 'rigatoni', 'src': '/static/foodstim60/rigatoni.jpg', 'key': 'i', 'origWidth': 411, 'origHeight': 411, 'width': 411, 'height': 411, 'widthPercent': 0.45, 'rescaleHeight': False, 'trialN': 75, 'loaded': True, 'loadedTime': 2614, 'positionName': 'RIGHT', 'positionCoords': [710.32, 178.5], 'bid': 0.12}]",121395.30000019073,1669831423459,blueberries,rigatoni,0.08,0.12,0.039999999999999994,rigatoni,684.1999998092651,684,684.3999998569489,True,i,122594.10000014305,1198.7999999523163,1669831424658,1199,HRV,HRV_0123,2022-11-30 18:06:17
76,"[{'imgObject': {}, 'id': 'bagel plain', 'src': '/static/foodstim60/bagel plain.jpg', 'key': 'u', 'origWidth': 410, 'origHeight': 410, 'width': 410, 'height': 410, 'widthPercent': 0.45, 'rescaleHeight': False, 'trialN': 76, 'loaded': True, 'loadedTime': 2887.300000190735, 'positionName': 'LEFT', 'positionCoords': [245.68, 179], 'bid': 0}, {'imgObject': {}, 'id': 'olives', 'src': '/static/foodstim60/olives.jpg', 'key': 'i', 'origWidth': 410, 'origHeight': 410, 'width': 410, 'height': 410, 'widthPercent': 0.45, 'rescaleHeight': False, 'trialN': 76, 'loaded': True, 'loadedTime': 2482.600000143051, 'positionName': 'RIGHT', 'positionCoords': [710.32, 179], 'bid': 0.06}]",122594.30000019073,1669831424658,bagel plain,olives,0.0,0.06,0.06,bagel plain,558.2999999523163,558,558.5,True,u,123660.20000004768,1065.8999998569489,1669831425724,1066,HRV,HRV_0123,2022-11-30 18:06:17
77,"[{'imgObject': {}, 'id': 'Grapes', 'src': '/static/foodstim60/Grapes.jpg', 'key': 'u', 'origWidth': 411, 'origHeight': 411, 'width': 411, 'height': 411, 'widthPercent': 0.45, 'rescaleHeight': False, 'trialN': 77, 'loaded': True, 'loadedTime': 2639.9000000953674, 'positionName': 'LEFT', 'positionCoords': [244.68, 178.5], 'bid': 0.06}, {'imgObject': {}, 'id': 'sweetpotato', 'src': '/static/foodstim60/sweetpotato.jpg', 'key': 'i', 'origWidth': 410, 'origHeight': 410, 'width': 410, 'height': 410, 'widthPercent': 0.45, 'rescaleHeight': False, 'trialN': 77, 'loaded': True, 'loadedTime': 2562, 'positionName': 'RIGHT', 'positionCoords': [710.32, 179], 'bid': 0.05}]",123660.5,1669831425724,Grapes,sweetpotato,0.06,0.05,-0.009999999999999995,Grapes,694.0,694,694.3000001907349,True,u,124874.30000019073,1213.8000001907349,1669831426938,1214,HRV,HRV_0123,2022-11-30 18:06:17
78,"[{'imgObject': {}, 'id': 'granola w milk', 'src': '/static/foodstim60/granola w milk.jpg', 'key': 'u', 'origWidth': 410, 'origHeight': 410, 'width': 410, 'height': 410, 'widthPercent': 0.45, 'rescaleHeight': False, 'trialN': 78, 'loaded': True, 'loadedTime': 2518.2000000476837, 'positionName': 'LEFT', 'positionCoords': [245.68, 179], 'bid': 0.13}, {'imgObject': {}, 'id': 'salad w chicken', 'src': '/static/foodstim60/salad w chicken.jpg', 'key': 'i', 'origWidth': 411, 'origHeight': 411, 'width': 411, 'height': 411, 'widthPercent': 0.45, 'rescaleHeight': False, 'trialN': 78, 'loaded': True, 'loadedTime': 2703.100000143051, 'positionName': 'RIGHT', 'positionCoords': [710.32, 178.5], 'bid': 8.22}]",124874.5,1669831426938,granola w milk,salad w chicken,0.13,8.22,8.09,salad w chicken,907.9000000953674,908,908.3000001907349,True,i,126291.30000019073,1416.8000001907349,1669831428355,1417,HRV,HRV_0123,2022-11-30 18:06:17
79,"[{'imgObject': {}, 'id': 'shreddedwheatwithmilk', 'src': '/static/foodstim60/shreddedwheatwithmilk.jpg', 'key': 'u', 'origWidth': 410, 'origHeight': 410, 'width': 410, 'height': 410, 'widthPercent': 0.45, 'rescaleHeight': False, 'trialN': 79, 'loaded': True, 'loadedTime': 2740.5, 'positionName': 'LEFT', 'positionCoords': [245.68, 179], 'bid': 0}, {'imgObject': {}, 'id': 'burger', 'src': '/static/foodstim60/burger.jpg', 'key': 'i', 'origWidth': 409, 'origHeight': 409, 'width': 409, 'height': 409, 'widthPercent': 0.45, 'rescaleHeight': False, 'trialN': 79, 'loaded': True, 'loadedTime': 2885, 'positionName': 'RIGHT', 'positionCoords': [710.32, 179.5], 'bid': 0.09}]",126291.60000014305,1669831428355,shreddedwheatwithmilk,burger,0.0,0.09,0.09,burger,1132.8999998569489,1133,1133.0999999046326,True,i,127941.60000014305,1650.0,1669831430005,1650,HRV,HRV_0123,2022-11-30 18:06:17
80,"[{'imgObject': {}, 'id': 'burrito', 'src': '/static/foodstim60/burrito.jpg', 'key': 'u', 'origWidth': 410, 'origHeight': 410, 'width': 410, 'height': 410, 'widthPercent': 0.45, 'rescaleHeight': False, 'trialN': 80, 'loaded': True, 'loadedTime': 2677.9000000953674, 'positionName': 'LEFT', 'positionCoords': [245.68, 179], 'bid': 0.09}, {'imgObject': {}, 'id': 'edamame', 'src': '/static/foodstim60/edamame.jpg', 'key': 'i', 'origWidth': 409, 'origHeight': 410, 'width': 409, 'height': 410, 'widthPercent': 0.45, 'rescaleHeight': False, 'trialN': 80, 'loaded': True, 'loadedTime': 2646.5, 'positionName': 'RIGHT', 'positionCoords': [710.32, 179], 'bid': 0.06}]",127941.90000009537,1669831430005,burrito,edamame,0.09,0.06,-0.03,burrito,767.5,768,767.9000000953674,True,u,129222.40000009537,1280.5,1669831431286,1281,HRV,HRV_0123,2022-11-30 18:06:17
81,"[{'imgObject': {}, 'id': 'Tribe humus pita', 'src': '/static/foodstim60/Tribe humus pita.jpg', 'key': 'u', 'origWidth': 411, 'origHeight': 411, 'width': 411, 'height': 411, 'widthPercent': 0.45, 'rescaleHeight': False, 'trialN': 81, 'loaded': True, 'loadedTime': 2616.5, 'positionName': 'LEFT', 'positionCoords': [244.68, 178.5], 'bid': 0.06}, {'imgObject': {}, 'id': 'cherry tomato', 'src': '/static/foodstim60/cherry tomato.jpg', 'key': 'i', 'origWidth': 410, 'origHeight': 410, 'width': 410, 'height': 410, 'widthPercent': 0.45, 'rescaleHeight': False, 'trialN': 81, 'loaded': True, 'loadedTime': 2772.7000000476837, 'positionName': 'RIGHT', 'positionCoords': [710.32, 179], 'bid': 0.05}]",129222.60000014305,1669831431286,Tribe humus pita,cherry tomato,0.06,0.05,-0.009999999999999995,Tribe humus pita,688.7000000476837,689,689.2000000476837,True,u,130422.20000004768,1199.5999999046326,1669831432486,1200,HRV,HRV_0123,2022-11-30 18:06:17
82,"[{'imgObject': {}, 'id': 'salmon', 'src': '/static/foodstim60/salmon.jpg', 'key': 'u', 'origWidth': 410, 'origHeight': 409, 'width': 410, 'height': 409, 'widthPercent': 0.45, 'rescaleHeight': False, 'trialN': 82, 'loaded': True, 'loadedTime': 2798.800000190735, 'positionName': 'LEFT', 'positionCoords': [245.68, 179.5], 'bid': 0}, {'imgObject': {}, 'id': 'raisin bran w milk', 'src': '/static/foodstim60/raisin bran w milk.jpg', 'key': 'i', 'origWidth': 411, 'origHeight': 411, 'width': 411, 'height': 411, 'widthPercent': 0.45, 'rescaleHeight': False, 'trialN': 82, 'loaded': True, 'loadedTime': 2745.9000000953674, 'positionName': 'RIGHT', 'positionCoords': [710.32, 178.5], 'bid': 0}]",130422.40000009537,1669831432486,salmon,raisin bran w milk,0.0,0.0,0.0,raisin bran w milk,839.2000000476837,839,839.5,True,i,131770.90000009537,1348.5,1669831433834,1348,HRV,HRV_0123,2022-11-30 18:06:17
83,"[{'imgObject': {}, 'id': 'orange slices', 'src': '/static/foodstim60/orange slices.jpg', 'key': 'u', 'origWidth': 409, 'origHeight': 410, 'width': 409, 'height': 410, 'widthPercent': 0.45, 'rescaleHeight': False, 'trialN': 83, 'loaded': True, 'loadedTime': 2465.5, 'positionName': 'LEFT', 'positionCoords': [246.68, 179], 'bid': 0.06}, {'imgObject': {}, 'id': 'luckycharms', 'src': '/static/foodstim60/luckycharms.jpg', 'key': 'i', 'origWidth': 410, 'origHeight': 409, 'width': 410, 'height': 409, 'widthPercent': 0.45, 'rescaleHeight': False, 'trialN': 83, 'loaded': True, 'loadedTime': 2474.5, 'positionName': 'RIGHT', 'positionCoords': [710.32, 179.5], 'bid': 9.09}]",131771.20000004768,1669831433835,orange slices,luckycharms,0.06,9.09,9.03,luckycharms,579.2999999523163,579,579.6000001430511,True,i,132855.0,1083.7999999523163,1669831434919,1084,HRV,HRV_0123,2022-11-30 18:06:17
84,"[{'imgObject': {}, 'id': 'cantaloupe', 'src': '/static/foodstim60/cantaloupe.jpg', 'key': 'u', 'origWidth': 409, 'origHeight': 409, 'width': 409, 'height': 409, 'widthPercent': 0.45, 'rescaleHeight': False, 'trialN': 84, 'loaded': True, 'loadedTime': 2469.100000143051, 'positionName': 'LEFT', 'positionCoords': [246.68, 179.5], 'bid': 0.09}, {'imgObject': {}, 'id': 'eggsalad', 'src': '/static/foodstim60/eggsalad.jpg', 'key': 'i', 'origWidth': 410, 'origHeight': 409, 'width': 410, 'height': 409, 'widthPercent': 0.45, 'rescaleHeight': False, 'trialN': 84, 'loaded': True, 'loadedTime': 2882.600000143051, 'positionName': 'RIGHT', 'positionCoords': [710.32, 179.5], 'bid': 0.06}]",132855.30000019073,1669831434919,cantaloupe,eggsalad,0.09,0.06,-0.03,cantaloupe,765.1999998092651,765,765.3999998569489,True,u,134135.60000014305,1280.2999999523163,1669831436199,1280,HRV,HRV_0123,2022-11-30 18:06:17
85,"[{'imgObject': {}, 'id': 'ice cream sundae 002', 'src': '/static/foodstim60/ice cream sundae 002.jpg', 'key': 'u', 'origWidth': 409, 'origHeight': 409, 'width': 409, 'height': 409, 'widthPercent': 0.45, 'rescaleHeight': False, 'trialN': 85, 'loaded': True, 'loadedTime': 2860.4000000953674, 'positionName': 'LEFT', 'positionCoords': [246.68, 179.5], 'bid': 0.02}, {'imgObject': {}, 'id': 'pear', 'src': '/static/foodstim60/pear.jpg', 'key': 'i', 'origWidth': 411, 'origHeight': 410, 'width': 411, 'height': 410, 'widthPercent': 0.45, 'rescaleHeight': False, 'trialN': 85, 'loaded': True, 'loadedTime': 2863.600000143051, 'positionName': 'RIGHT', 'positionCoords': [710.32, 179], 'bid': 0.05}]",134136.0,1669831436199,ice cream sundae 002,pear,0.02,0.05,0.030000000000000002,ice cream sundae 002,815.8000001907349,817,816.1000001430511,True,u,135467.80000019073,1331.8000001907349,1669831437531,1332,HRV,HRV_0123,2022-11-30 18:06:17
86,"[{'imgObject': {}, 'id': 'sushi w_condiments', 'src': '/static/foodstim60/sushi w_condiments.jpg', 'key': 'u', 'origWidth': 410, 'origHeight': 410, 'width': 410, 'height': 410, 'widthPercent': 0.45, 'rescaleHeight': False, 'trialN': 86, 'loaded': True, 'loadedTime': 2661.2000000476837, 'positionName': 'LEFT', 'positionCoords': [245.68, 179], 'bid': 0.28}, {'imgObject': {}, 'id': 'veggieswithdip', 'src': '/static/foodstim60/veggieswithdip.jpg', 'key': 'i', 'origWidth': 409, 'origHeight': 409, 'width': 409, 'height': 409, 'widthPercent': 0.45, 'rescaleHeight': False, 'trialN': 86, 'loaded': True, 'loadedTime': 2505.600000143051, 'positionName': 'RIGHT', 'positionCoords': [710.32, 179.5], 'bid': 0.13}]",135468.10000014305,1669831437532,sushi w_condiments,veggieswithdip,0.28,0.13,-0.15000000000000002,sushi w_condiments,827.7999999523163,828,828.0999999046326,True,u,136815.80000019073,1347.7000000476837,1669831438879,1347,HRV,HRV_0123,2022-11-30 18:06:17
87,"[{'imgObject': {}, 'id': 'steak', 'src': '/static/foodstim60/steak.jpg', 'key': 'u', 'origWidth': 410, 'origHeight': 410, 'width': 410, 'height': 410, 'widthPercent': 0.45, 'rescaleHeight': False, 'trialN': 87, 'loaded': True, 'loadedTime': 2885.100000143051, 'positionName': 'LEFT', 'positionCoords': [245.68, 179], 'bid': 9.33}, {'imgObject': {}, 'id': 'edamame', 'src': '/static/foodstim60/edamame.jpg', 'key': 'i', 'origWidth': 409, 'origHeight': 410, 'width': 409, 'height': 410, 'widthPercent': 0.45, 'rescaleHeight': False, 'trialN': 87, 'loaded': True, 'loadedTime': 2656, 'positionName': 'RIGHT', 'positionCoords': [710.32, 179], 'bid': 0.06}]",136816.0,1669831438880,steak,edamame,9.33,0.06,-9.27,steak,581.9000000953674,582,582.3000001907349,True,u,137900.70000004768,1084.7000000476837,1669831439964,1084,HRV,HRV_0123,2022-11-30 18:06:17
88,"[{'imgObject': {}, 'id': 'bagel plain', 'src': '/static/foodstim60/bagel plain.jpg', 'key': 'u', 'origWidth': 410, 'origHeight': 410, 'width': 410, 'height': 410, 'widthPercent': 0.45, 'rescaleHeight': False, 'trialN': 88, 'loaded': True, 'loadedTime': 2890.9000000953674, 'positionName': 'LEFT', 'positionCoords': [245.68, 179], 'bid': 0}, {'imgObject': {}, 'id': 'rigatoni and sauce', 'src': '/static/foodstim60/rigatoni and sauce.jpg', 'key': 'i', 'origWidth': 410, 'origHeight': 411, 'width': 410, 'height': 411, 'widthPercent': 0.45, 'rescaleHeight': False, 'trialN': 88, 'loaded': True, 'loadedTime': 2868.600000143051, 'positionName': 'RIGHT', 'positionCoords': [710.32, 178.5], 'bid': 0.05}]",137901.0,1669831439965,bagel plain,rigatoni and sauce,0.0,0.05,0.05,bagel plain,776.2000000476837,776,776.5,True,u,139182.20000004768,1281.2000000476837,1669831441246,1281,HRV,HRV_0123,2022-11-30 18:06:17
89,"[{'imgObject': {}, 'id': 'turkeysandwich', 'src': '/static/foodstim60/turkeysandwich.jpg', 'key': 'u', 'origWidth': 409, 'origHeight': 409, 'width': 409, 'height': 409, 'widthPercent': 0.45, 'rescaleHeight': False, 'trialN': 89, 'loaded': True, 'loadedTime': 2716.600000143051, 'positionName': 'LEFT', 'positionCoords': [246.68, 179.5], 'bid': 3.12}, {'imgObject': {}, 'id': 'blackbeanswithrice', 'src': '/static/foodstim60/blackbeanswithrice.jpg', 'key': 'i', 'origWidth': 410, 'origHeight': 410, 'width': 410, 'height': 410, 'widthPercent': 0.45, 'rescaleHeight': False, 'trialN': 89, 'loaded': True, 'loadedTime': 2804.300000190735, 'positionName': 'RIGHT', 'positionCoords': [710.32, 179], 'bid': 0.05}]",139182.40000009537,1669831441246,turkeysandwich,blackbeanswithrice,3.12,0.05,-3.0700000000000003,turkeysandwich,1356.0,1356,1356.2999999523163,True,u,141048.80000019073,1866.4000000953674,1669831443112,1866,HRV,HRV_0123,2022-11-30 18:06:17
90,"[{'imgObject': {}, 'id': 'eggs', 'src': '/static/foodstim60/eggs.jpg', 'key': 'u', 'origWidth': 409, 'origHeight': 409, 'width': 409, 'height': 409, 'widthPercent': 0.45, 'rescaleHeight': False, 'trialN': 90, 'loaded': True, 'loadedTime': 2577.2000000476837, 'positionName': 'LEFT', 'positionCoords': [246.68, 179.5], 'bid': 0.02}, {'imgObject': {}, 'id': 'cocktailshrimp', 'src': '/static/foodstim60/cocktailshrimp.jpg', 'key': 'i', 'origWidth': 410, 'origHeight': 410, 'width': 410, 'height': 410, 'widthPercent': 0.45, 'rescaleHeight': False, 'trialN': 90, 'loaded': True, 'loadedTime': 2659.300000190735, 'positionName': 'RIGHT', 'positionCoords': [710.32, 179], 'bid': 0.03}]",143332.0,1669831445395,eggs,cocktailshrimp,0.02,0.03,0.009999999999999998,cocktailshrimp,1764.5,1766,1765.0,True,i,145612.0,2280.0,1669831447676,2281,HRV,HRV_0123,2022-11-30 18:06:17
91,"[{'imgObject': {}, 'id': 'mac & cheese', 'src': '/static/foodstim60/mac & cheese.jpg', 'key': 'u', 'origWidth': 410, 'origHeight': 410, 'width': 410, 'height': 410, 'widthPercent': 0.45, 'rescaleHeight': False, 'trialN': 91, 'loaded': True, 'loadedTime': 2561.600000143051, 'positionName': 'LEFT', 'positionCoords': [245.68, 179], 'bid': 0.09}, {'imgObject': {}, 'id': 'corn cob', 'src': '/static/foodstim60/corn cob.jpg', 'key': 'i', 'origWidth': 411, 'origHeight': 411, 'width': 411, 'height': 411, 'widthPercent': 0.45, 'rescaleHeight': False, 'trialN': 91, 'loaded': True, 'loadedTime': 2502.4000000953674, 'positionName': 'RIGHT', 'positionCoords': [710.32, 178.5], 'bid': 0}]",145612.40000009537,1669831447676,mac & cheese,corn cob,0.09,0.0,-0.09,mac & cheese,631.0999999046326,632,631.5999999046326,True,u,146760.40000009537,1148.0,1669831448824,1148,HRV,HRV_0123,2022-11-30 18:06:17
92,"[{'imgObject': {}, 'id': 'rigatoni', 'src': '/static/foodstim60/rigatoni.jpg', 'key': 'u', 'origWidth': 411, 'origHeight': 411, 'width': 411, 'height': 411, 'widthPercent': 0.45, 'rescaleHeight': False, 'trialN': 92, 'loaded': True, 'loadedTime': 2603.4000000953674, 'positionName': 'LEFT', 'positionCoords': [244.68, 178.5], 'bid': 0.12}, {'imgObject': {}, 'id': 'salad w chicken', 'src': '/static/foodstim60/salad w chicken.jpg', 'key': 'i', 'origWidth': 411, 'origHeight': 411, 'width': 411, 'height': 411, 'widthPercent': 0.45, 'rescaleHeight': False, 'trialN': 92, 'loaded': True, 'loadedTime': 2702.300000190735, 'positionName': 'RIGHT', 'positionCoords': [710.32, 178.5], 'bid': 8.22}]",146760.60000014305,1669831448824,rigatoni,salad w chicken,0.12,8.22,8.100000000000001,rigatoni,658.2999999523163,659,658.5999999046326,True,u,147929.70000004768,1169.0999999046326,1669831449993,1169,HRV,HRV_0123,2022-11-30 18:06:17
93,"[{'imgObject': {}, 'id': 'raisin bran w milk', 'src': '/static/foodstim60/raisin bran w milk.jpg', 'key': 'u', 'origWidth': 411, 'origHeight': 411, 'width': 411, 'height': 411, 'widthPercent': 0.45, 'rescaleHeight': False, 'trialN': 93, 'loaded': True, 'loadedTime': 2744.9000000953674, 'positionName': 'LEFT', 'positionCoords': [244.68, 178.5], 'bid': 0}, {'imgObject': {}, 'id': 'cherries', 'src': '/static/foodstim60/cherries.jpg', 'key': 'i', 'origWidth': 410, 'origHeight': 411, 'width': 410, 'height': 411, 'widthPercent': 0.45, 'rescaleHeight': False, 'trialN': 93, 'loaded': True, 'loadedTime': 2467.5, 'positionName': 'RIGHT', 'positionCoords': [710.32, 178.5], 'bid': 0.1}]",147930.0,1669831449994,raisin bran w milk,cherries,0.0,0.1,0.1,raisin bran w milk,796.1000001430511,796,796.4000000953674,True,u,149242.70000004768,1312.7000000476837,1669831451306,1312,HRV,HRV_0123,2022-11-30 18:06:17
94,"[{'imgObject': {}, 'id': 'sweetpotato', 'src': '/static/foodstim60/sweetpotato.jpg', 'key': 'u', 'origWidth': 410, 'origHeight': 410, 'width': 410, 'height': 410, 'widthPercent': 0.45, 'rescaleHeight': False, 'trialN': 94, 'loaded': True, 'loadedTime': 2572.9000000953674, 'positionName': 'LEFT', 'positionCoords': [245.68, 179], 'bid': 0.05}, {'imgObject': {}, 'id': 'raisin bran w milk', 'src': '/static/foodstim60/raisin bran w milk.jpg', 'key': 'i', 'origWidth': 411, 'origHeight': 411, 'width': 411, 'height': 411, 'widthPercent': 0.45, 'rescaleHeight': False, 'trialN': 94, 'loaded': True, 'loadedTime': 2745.300000190735, 'positionName': 'RIGHT', 'positionCoords': [710.32, 178.5], 'bid': 0}]",149243.0,1669831451306,sweetpotato,raisin bran w milk,0.05,0.0,-0.05,raisin bran w milk,746.1000001430511,747,746.4000000953674,True,i,150507.40000009537,1264.4000000953674,1669831452571,1265,HRV,HRV_0123,2022-11-30 18:06:17
95,"[{'imgObject': {}, 'id': 'tacos', 'src': '/static/foodstim60/tacos.jpg', 'key': 'u', 'origWidth': 411, 'origHeight': 411, 'width': 411, 'height': 411, 'widthPercent': 0.45, 'rescaleHeight': False, 'trialN': 95, 'loaded': True, 'loadedTime': 2719.300000190735, 'positionName': 'LEFT', 'positionCoords': [244.68, 178.5], 'bid': 9.86}, {'imgObject': {}, 'id': 'granola w milk', 'src': '/static/foodstim60/granola w milk.jpg', 'key': 'i', 'origWidth': 410, 'origHeight': 410, 'width': 410, 'height': 410, 'widthPercent': 0.45, 'rescaleHeight': False, 'trialN': 95, 'loaded': True, 'loadedTime': 2518.5, 'positionName': 'RIGHT', 'positionCoords': [710.32, 179], 'bid': 0.13}]",150507.60000014305,1669831452571,tacos,granola w milk,9.86,0.13,-9.729999999999999,tacos,581.7000000476837,589,582.0,True,u,151606.60000014305,1099.0,1669831453677,1106,HRV,HRV_0123,2022-11-30 18:06:17
96,"[{'imgObject': {}, 'id': 'apple slices', 'src': '/static/foodstim60/apple slices.jpg', 'key': 'u', 'origWidth': 409, 'origHeight': 410, 'width': 409, 'height': 410, 'widthPercent': 0.45, 'rescaleHeight': False, 'trialN': 96, 'loaded': True, 'loadedTime': 2801.4000000953674, 'positionName': 'LEFT', 'positionCoords': [246.68, 179], 'bid': 0.02}, {'imgObject': {}, 'id': 'cocktailshrimp', 'src': '/static/foodstim60/cocktailshrimp.jpg', 'key': 'i', 'origWidth': 410, 'origHeight': 410, 'width': 410, 'height': 410, 'widthPercent': 0.45, 'rescaleHeight': False, 'trialN': 96, 'loaded': True, 'loadedTime': 2659.4000000953674, 'positionName': 'RIGHT', 'positionCoords': [710.32, 179], 'bid': 0.03}]",151606.90000009537,1669831453677,apple slices,cocktailshrimp,0.02,0.03,0.009999999999999998,cocktailshrimp,792.2000000476837,792,792.5999999046326,True,i,152906.10000014305,1299.2000000476837,1669831454976,1299,HRV,HRV_0123,2022-11-30 18:06:17
97,"[{'imgObject': {}, 'id': 'mashed potato', 'src': '/static/foodstim60/mashed potato.jpg', 'key': 'u', 'origWidth': 409, 'origHeight': 409, 'width': 409, 'height': 409, 'widthPercent': 0.45, 'rescaleHeight': False, 'trialN': 97, 'loaded': True, 'loadedTime': 2856.7000000476837, 'positionName': 'LEFT', 'positionCoords': [246.68, 179.5], 'bid': 0.09}, {'imgObject': {}, 'id': 'lox', 'src': '/static/foodstim60/lox.jpg', 'key': 'i', 'origWidth': 410, 'origHeight': 411, 'width': 410, 'height': 411, 'widthPercent': 0.45, 'rescaleHeight': False, 'trialN': 97, 'loaded': True, 'loadedTime': 2477, 'positionName': 'RIGHT', 'positionCoords': [710.32, 178.5], 'bid': 0.09}]",152906.30000019073,1669831454976,mashed potato,lox,0.09,0.09,0.0,mashed potato,714.1999998092651,715,714.3999998569489,True,u,154137.0,1230.6999998092651,1669831456207,1231,HRV,HRV_0123,2022-11-30 18:06:17
98,"[{'imgObject': {}, 'id': 'cheerios', 'src': '/static/foodstim60/cheerios.jpg', 'key': 'u', 'origWidth': 409, 'origHeight': 410, 'width': 409, 'height': 410, 'widthPercent': 0.45, 'rescaleHeight': False, 'trialN': 98, 'loaded': True, 'loadedTime': 2817.800000190735, 'positionName': 'LEFT', 'positionCoords': [246.68, 179], 'bid': 0.15}, {'imgObject': {}, 'id': 'popsicles', 'src': '/static/foodstim60/popsicles.jpg', 'key': 'i', 'origWidth': 410, 'origHeight': 410, 'width': 410, 'height': 410, 'widthPercent': 0.45, 'rescaleHeight': False, 'trialN': 98, 'loaded': True, 'loadedTime': 2905.800000190735, 'positionName': 'RIGHT', 'positionCoords': [710.32, 179], 'bid': 8.96}]",154137.30000019073,1669831456207,cheerios,popsicles,0.15,8.96,8.81,popsicles,813.2999999523163,814,813.5999999046326,True,i,155456.20000004768,1318.8999998569489,1669831457526,1319,HRV,HRV_0123,2022-11-30 18:06:17
99,"[{'imgObject': {}, 'id': 'tacos', 'src': '/static/foodstim60/tacos.jpg', 'key': 'u', 'origWidth': 411, 'origHeight': 411, 'width': 411, 'height': 411, 'widthPercent': 0.45, 'rescaleHeight': False, 'trialN': 99, 'loaded': True, 'loadedTime': 2719.600000143051, 'positionName': 'LEFT', 'positionCoords': [244.68, 178.5], 'bid': 9.86}, {'imgObject': {}, 'id': 'turkey sandwich', 'src': '/static/foodstim60/turkey sandwich.jpg', 'key': 'i', 'origWidth': 409, 'origHeight': 409, 'width': 409, 'height': 409, 'widthPercent': 0.45, 'rescaleHeight': False, 'trialN': 99, 'loaded': True, 'loadedTime': 2870.7000000476837, 'positionName': 'RIGHT', 'positionCoords': [710.32, 179.5], 'bid': 9.9}]",155456.60000014305,1669831457526,tacos,turkey sandwich,9.86,9.9,0.040000000000000924,turkey sandwich,1474.2000000476837,1475,1474.5,True,i,157451.20000004768,1994.5999999046326,1669831459521,1995,HRV,HRV_0123,2022-11-30 18:06:17
100,"[{'imgObject': {}, 'id': 'strawberries', 'src': '/static/foodstim60/strawberries.jpg', 'key': 'u', 'origWidth': 410, 'origHeight': 410, 'width': 410, 'height': 410, 'widthPercent': 0.45, 'rescaleHeight': False, 'trialN': 100, 'loaded': True, 'loadedTime': 2769.100000143051, 'positionName': 'LEFT', 'positionCoords': [245.68, 179], 'bid': 0.03}, {'imgObject': {}, 'id': 'shreddedwheatwithmilk', 'src': '/static/foodstim60/shreddedwheatwithmilk.jpg', 'key': 'i', 'origWidth': 410, 'origHeight': 410, 'width': 410, 'height': 410, 'widthPercent': 0.45, 'rescaleHeight': False, 'trialN': 100, 'loaded': True, 'loadedTime': 2738.9000000953674, 'positionName': 'RIGHT', 'positionCoords': [710.32, 179], 'bid': 0}]",157451.40000009537,1669831459521,strawberries,shreddedwheatwithmilk,0.03,0.0,-0.03,shreddedwheatwithmilk,1756.5,1757,1756.7000000476837,True,i,159717.90000009537,2266.5,1669831461788,2267,HRV,HRV_0123,2022-11-30 18:06:17
101,"[{'imgObject': {}, 'id': 'yogurt no spoon', 'src': '/static/foodstim60/yogurt no spoon.jpg', 'key': 'u', 'origWidth': 411, 'origHeight': 410, 'width': 411, 'height': 410, 'widthPercent': 0.45, 'rescaleHeight': False, 'trialN': 101, 'loaded': True, 'loadedTime': 2544.4000000953674, 'positionName': 'LEFT', 'positionCoords': [244.68, 179], 'bid': 0.1}, {'imgObject': {}, 'id': 'banana', 'src': '/static/foodstim60/banana.jpg', 'key': 'i', 'origWidth': 410, 'origHeight': 410, 'width': 410, 'height': 410, 'widthPercent': 0.45, 'rescaleHeight': False, 'trialN': 101, 'loaded': True, 'loadedTime': 2557.7000000476837, 'positionName': 'RIGHT', 'positionCoords': [710.32, 179], 'bid': 0.08}]",159718.20000004768,1669831461788,yogurt no spoon,banana,0.1,0.08,-0.020000000000000004,yogurt no spoon,705.7999999523163,706,706.0,True,u,160933.40000009537,1215.2000000476837,1669831463003,1215,HRV,HRV_0123,2022-11-30 18:06:17
102,"[{'imgObject': {}, 'id': 'chicken nuggets2', 'src': '/static/foodstim60/chicken nuggets2.jpg', 'key': 'u', 'origWidth': 410, 'origHeight': 409, 'width': 410, 'height': 409, 'widthPercent': 0.45, 'rescaleHeight': False, 'trialN': 102, 'loaded': True, 'loadedTime': 2506.100000143051, 'positionName': 'LEFT', 'positionCoords': [245.68, 179.5], 'bid': 5.01}, {'imgObject': {}, 'id': 'sweetpotato', 'src': '/static/foodstim60/sweetpotato.jpg', 'key': 'i', 'origWidth': 410, 'origHeight': 410, 'width': 410, 'height': 410, 'widthPercent': 0.45, 'rescaleHeight': False, 'trialN': 102, 'loaded': True, 'loadedTime': 2563.5, 'positionName': 'RIGHT', 'positionCoords': [710.32, 179], 'bid': 0.05}]",160933.60000014305,1669831463004,chicken nuggets2,sweetpotato,5.01,0.05,-4.96,chicken nuggets2,692.5,692,692.8999998569489,True,u,162132.80000019073,1199.2000000476837,1669831464203,1199,HRV,HRV_0123,2022-11-30 18:06:17
103,"[{'imgObject': {}, 'id': 'luckycharms', 'src': '/static/foodstim60/luckycharms.jpg', 'key': 'u', 'origWidth': 410, 'origHeight': 409, 'width': 410, 'height': 409, 'widthPercent': 0.45, 'rescaleHeight': False, 'trialN': 103, 'loaded': True, 'loadedTime': 2473.9000000953674, 'positionName': 'LEFT', 'positionCoords': [245.68, 179.5], 'bid': 9.09}, {'imgObject': {}, 'id': 'raspberries', 'src': '/static/foodstim60/raspberries.jpg', 'key': 'i', 'origWidth': 411, 'origHeight': 411, 'width': 411, 'height': 411, 'widthPercent': 0.45, 'rescaleHeight': False, 'trialN': 103, 'loaded': True, 'loadedTime': 2457.600000143051, 'positionName': 'RIGHT', 'positionCoords': [710.32, 178.5], 'bid': 0.15}]",162133.20000004768,1669831464203,luckycharms,raspberries,9.09,0.15,-8.94,luckycharms,568.1000001430511,569,568.4000000953674,True,u,163214.70000004768,1081.5,1669831465285,1082,HRV,HRV_0123,2022-11-30 18:06:17
104,"[{'imgObject': {}, 'id': 'edamame', 'src': '/static/foodstim60/edamame.jpg', 'key': 'u', 'origWidth': 409, 'origHeight': 410, 'width': 409, 'height': 410, 'widthPercent': 0.45, 'rescaleHeight': False, 'trialN': 104, 'loaded': True, 'loadedTime': 2645.9000000953674, 'positionName': 'LEFT', 'positionCoords': [246.68, 179], 'bid': 0.06}, {'imgObject': {}, 'id': 'eggsalad', 'src': '/static/foodstim60/eggsalad.jpg', 'key': 'i', 'origWidth': 410, 'origHeight': 409, 'width': 410, 'height': 409, 'widthPercent': 0.45, 'rescaleHeight': False, 'trialN': 104, 'loaded': True, 'loadedTime': 2881.300000190735, 'positionName': 'RIGHT', 'positionCoords': [710.32, 179.5], 'bid': 0.06}]",163215.0,1669831465285,edamame,eggsalad,0.06,0.06,0.0,eggsalad,696.7000000476837,697,697.0,True,i,164430.90000009537,1215.9000000953674,1669831466501,1216,HRV,HRV_0123,2022-11-30 18:06:17
105,"[{'imgObject': {}, 'id': 'shreddedwheatwithmilk', 'src': '/static/foodstim60/shreddedwheatwithmilk.jpg', 'key': 'u', 'origWidth': 410, 'origHeight': 410, 'width': 410, 'height': 410, 'widthPercent': 0.45, 'rescaleHeight': False, 'trialN': 105, 'loaded': True, 'loadedTime': 2720.100000143051, 'positionName': 'LEFT', 'positionCoords': [245.68, 179], 'bid': 0}, {'imgObject': {}, 'id': 'bagel plain', 'src': '/static/foodstim60/bagel plain.jpg', 'key': 'i', 'origWidth': 410, 'origHeight': 410, 'width': 410, 'height': 410, 'widthPercent': 0.45, 'rescaleHeight': False, 'trialN': 105, 'loaded': True, 'loadedTime': 2890.2000000476837, 'positionName': 'RIGHT', 'positionCoords': [710.32, 179], 'bid': 0}]",164431.30000019073,1669831466501,shreddedwheatwithmilk,bagel plain,0.0,0.0,0.0,bagel plain,815.1999998092651,816,815.3999998569489,True,i,165747.80000019073,1316.5,1669831467818,1317,HRV,HRV_0123,2022-11-30 18:06:17
106,"[{'imgObject': {}, 'id': 'veggieswithdip', 'src': '/static/foodstim60/veggieswithdip.jpg', 'key': 'u', 'origWidth': 409, 'origHeight': 409, 'width': 409, 'height': 409, 'widthPercent': 0.45, 'rescaleHeight': False, 'trialN': 106, 'loaded': True, 'loadedTime': 2505.2000000476837, 'positionName': 'LEFT', 'positionCoords': [246.68, 179.5], 'bid': 0.13}, {'imgObject': {}, 'id': 'steak', 'src': '/static/foodstim60/steak.jpg', 'key': 'i', 'origWidth': 410, 'origHeight': 410, 'width': 410, 'height': 410, 'widthPercent': 0.45, 'rescaleHeight': False, 'trialN': 106, 'loaded': True, 'loadedTime': 2886.800000190735, 'positionName': 'RIGHT', 'positionCoords': [710.32, 179], 'bid': 9.33}]",165748.10000014305,1669831467818,veggieswithdip,steak,0.13,9.33,9.2,steak,703.5,704,703.7999999523163,True,i,166962.60000014305,1214.5,1669831469033,1215,HRV,HRV_0123,2022-11-30 18:06:17
107,"[{'imgObject': {}, 'id': 'popsicles', 'src': '/static/foodstim60/popsicles.jpg', 'key': 'u', 'origWidth': 410, 'origHeight': 410, 'width': 410, 'height': 410, 'widthPercent': 0.45, 'rescaleHeight': False, 'trialN': 107, 'loaded': True, 'loadedTime': 2901.600000143051, 'positionName': 'LEFT', 'positionCoords': [245.68, 179], 'bid': 8.96}, {'imgObject': {}, 'id': 'mango', 'src': '/static/foodstim60/mango.jpg', 'key': 'i', 'origWidth': 411, 'origHeight': 411, 'width': 411, 'height': 411, 'widthPercent': 0.45, 'rescaleHeight': False, 'trialN': 107, 'loaded': True, 'loadedTime': 2437.600000143051, 'positionName': 'RIGHT', 'positionCoords': [710.32, 178.5], 'bid': 0.12}]",166962.90000009537,1669831469033,popsicles,mango,8.96,0.12,-8.840000000000002,popsicles,563.7000000476837,564,564.2000000476837,True,u,168028.10000014305,1065.2000000476837,1669831470098,1065,HRV,HRV_0123,2022-11-30 18:06:17
108,"[{'imgObject': {}, 'id': 'rigatoni and sauce', 'src': '/static/foodstim60/rigatoni and sauce.jpg', 'key': 'u', 'origWidth': 410, 'origHeight': 411, 'width': 410, 'height': 411, 'widthPercent': 0.45, 'rescaleHeight': False, 'trialN': 108, 'loaded': True, 'loadedTime': 2866.9000000953674, 'positionName': 'LEFT', 'positionCoords': [245.68, 178.5], 'bid': 0.05}, {'imgObject': {}, 'id': 'cherry tomato', 'src': '/static/foodstim60/cherry tomato.jpg', 'key': 'i', 'origWidth': 410, 'origHeight': 410, 'width': 410, 'height': 410, 'widthPercent': 0.45, 'rescaleHeight': False, 'trialN': 108, 'loaded': True, 'loadedTime': 2773.600000143051, 'positionName': 'RIGHT', 'positionCoords': [710.32, 179], 'bid': 0.05}]",168028.40000009537,1669831470098,rigatoni and sauce,cherry tomato,0.05,0.05,0.0,rigatoni and sauce,626.5,627,626.7999999523163,True,u,169161.60000014305,1133.2000000476837,1669831471232,1134,HRV,HRV_0123,2022-11-30 18:06:17
109,"[{'imgObject': {}, 'id': 'banana', 'src': '/static/foodstim60/banana.jpg', 'key': 'u', 'origWidth': 410, 'origHeight': 410, 'width': 410, 'height': 410, 'widthPercent': 0.45, 'rescaleHeight': False, 'trialN': 109, 'loaded': True, 'loadedTime': 2558.7000000476837, 'positionName': 'LEFT', 'positionCoords': [245.68, 179], 'bid': 0.08}, {'imgObject': {}, 'id': 'hashbrowns', 'src': '/static/foodstim60/hashbrowns.jpg', 'key': 'i', 'origWidth': 411, 'origHeight': 410, 'width': 411, 'height': 410, 'widthPercent': 0.45, 'rescaleHeight': False, 'trialN': 109, 'loaded': True, 'loadedTime': 2848.800000190735, 'positionName': 'RIGHT', 'positionCoords': [710.32, 179], 'bid': 0.03}]",169161.90000009537,1669831471232,banana,hashbrowns,0.08,0.03,-0.05,hashbrowns,583.9000000953674,584,584.2000000476837,True,i,170260.80000019073,1098.9000000953674,1669831472331,1099,HRV,HRV_0123,2022-11-30 18:06:17
