success,trial_type,trial_index,time_elapsed,internal_node_id,Block,TrialNumber,TrialTime,trialTimeDiff,FPS_avg,FPS_med,FPS_mode,TrialDur,winResizeTime,rt,block,button_pressed,MotCoh,MotDir,ColCoh,Color,ChoiceKey,Choice,Accuracy,RT,nFrames,FPS,PPD,missTrial,missTrialMsg,onsetDelay,fullScreenExitTime,canvCenter,TrialType,Score,BlockTrial,stimulus,button_labels,exp,subjectId,date
True,fullscreen,0,2707,0.0-0.0,0.0,1.0,,,,,,,,,,,,,,,,,,,,,,,,,,,,,,,,HRV,HRV_0123,2022-11-30 18:16:28
,wl-check-fps,1,7692,0.0-1.0,0.0,2.0,"[3029.6, 3030.3, 3046.9, 3061.1, 3078, 3094.8, 3111.3, 3127.8, 3144.4, 3161.1, 3177.8, 3194.5, 3210.9, 3227.6, 3244.4, 3261, 3277.6, 3294.2, 3310.9, 3327.7, 3344.2, 3360.9, 3377.5, 3394.2, 3410.9, 3427.4, 3444.3, 3460.9, 3477.5, 3494.2, 3511.7, 3527.8, 3544.1, 3560.7, 3577.5, 3594.1, 3610.7, 3627.5, 3644, 3660.7, 3677.3, 3693.9, 3710.8, 3727.3, 3743.9, 3760.6, 3777.2, 3793.9, 3810.6, 3827.1, 3843.9, 3860.5, 3877.2, 3893.9, 3910.5, 3927.2, 3943.8, 3960.5, 3979.1, 3993.8, 4010.4, 4027.1, 4043.8, 4060.4, 4077.1, 4093.7, 4110.4, 4127.1, 4143.9, 4160.5, 4177, 4195.7, 4210.2, 4227, 4243.7, 4260.3, 4276.9, 4293.5, 4310.2, 4327.1, 4343.5, 4360.1, 4376.9, 4393.5, 4410.2, 4428.6, 4444.5, 4460.1, 4476.8, 4493.4, 4510.2, 4528.4, 4545.1, 4560.1, 4576.6, 4593.4, 4610, 4626.6, 4643.3, 4660, 4676.6, 4693.2, 4709.8, 4726.6, 4743.3, 4759.9, 4776.5, 4793.7, 4809.9, 4826.5, 4843.2, 4859.8, 4876.5, 4893.2, 4909.8, 4926.5, 4943.2, 4959.8, 4976.3, 4993.1, 5009.7, 5026.4, 5043, 5059.6, 5076.3, 5093, 5109.6, 5126.3, 5142.9, 5159.6, 5176.3, 5192.8, 5209.6, 5226.3, 5242.8, 5261.2, 5276.1, 5292.8, 5309.4, 5326.3, 5342.8, 5359.4, 5376.1, 5392.8, 5409.4, 5426.1, 5443, 5459.4, 5476, 5492.8, 5509.5, 5526, 5542.7, 5561, 5576.1, 5592.7, 5609.3, 5625.9, 5642.6, 5659.2, 5676, 5692.6, 5709.2, 5725.8, 5742.5, 5759.4, 5775.8, 5792.4, 5809.2, 5825.8, 5842.6, 5859.2, 5875.8, 5892.5, 5909, 5925.7, 5942.4, 5959.1, 5975.6, 5992.4, 6009, 6025.7, 6042.3, 6058.9, 6075.7, 6092.2, 6109.1, 6125.6, 6142.3, 6159, 6175.6, 6192.2, 6208.9, 6225.5, 6242.2, 6258.8, 6275.5, 6292.1, 6308.8, 6325.5, 6342.1, 6358.7, 6375.3, 6392.1, 6408.7, 6425.3, 6442, 6458.8, 6475.3, 6491.9, 6508.6, 6525.3, 6541.9, 6558.6, 6575.2, 6592, 6608.6, 6625.2, 6641.9, 6658.6, 6675.3, 6691.9, 6708.6, 6725.3, 6741.8, 6758.6, 6775.1, 6791.9, 6808.6, 6825.3, 6841.8, 6858.5, 6875.2, 6891.9, 6908.4, 6925, 6941.8, 6958.3, 6975, 6991.7, 7008.5, 7024.9, 7041.6, 7058.3, 7075, 7091.7, 7108.3, 7124.9, 7141.8, 7158.2, 7174.9, 7191.5, 7208.2, 7224.9, 7241.8, 7258.1, 7274.8, 7291.4, 7308.1, 7324.7, 7341.6, 7358.1, 7375.5, 7392.7, 7408.8, 7425.3, 7442, 7458.7, 7475.2, 7492.1, 7509.2, 7525.1, 7541.8, 7558.5, 7575.2, 7592, 7608.5, 7625.4, 7642, 7658.6, 7675.1, 7692, 7709.2, 7725.1, 7741.8, 7758.4, 7775.1, 7791.8, 7808.5, 7825.2, 7841.7, 7858.3, 7875, 7891.7, 7908.3, 7924.9, 7942, 7958.3, 7975.1, 7991.7]","[2.7, 0.7, 16.6, 14.2, 16.9, 16.8, 16.5, 16.5, 16.6, 16.7, 16.7, 16.7, 16.4, 16.7, 16.8, 16.6, 16.6, 16.6, 16.7, 16.8, 16.5, 16.7, 16.6, 16.7, 16.7, 16.5, 16.9, 16.6, 16.6, 16.7, 17.5, 16.1, 16.3, 16.6, 16.8, 16.6, 16.6, 16.8, 16.5, 16.7, 16.6, 16.6, 16.9, 16.5, 16.6, 16.7, 16.6, 16.7, 16.7, 16.5, 16.8, 16.6, 16.7, 16.7, 16.6, 16.7, 16.6, 16.7, 18.6, 14.7, 16.6, 16.7, 16.7, 16.6, 16.7, 16.6, 16.7, 16.7, 16.8, 16.6, 16.5, 18.7, 14.5, 16.8, 16.7, 16.6, 16.6, 16.6, 16.7, 16.9, 16.4, 16.6, 16.8, 16.6, 16.7, 18.4, 15.9, 15.6, 16.7, 16.6, 16.8, 18.2, 16.7, 15, 16.5, 16.8, 16.6, 16.6, 16.7, 16.7, 16.6, 16.6, 16.6, 16.8, 16.7, 16.6, 16.6, 17.2, 16.2, 16.6, 16.7, 16.6, 16.7, 16.7, 16.6, 16.7, 16.7, 16.6, 16.5, 16.8, 16.6, 16.7, 16.6, 16.6, 16.7, 16.7, 16.6, 16.7, 16.6, 16.7, 16.7, 16.5, 16.8, 16.7, 16.5, 18.4, 14.9, 16.7, 16.6, 16.9, 16.5, 16.6, 16.7, 16.7, 16.6, 16.7, 16.9, 16.4, 16.6, 16.8, 16.7, 16.5, 16.7, 18.3, 15.1, 16.6, 16.6, 16.6, 16.7, 16.6, 16.8, 16.6, 16.6, 16.6, 16.7, 16.9, 16.4, 16.6, 16.8, 16.6, 16.8, 16.6, 16.6, 16.7, 16.5, 16.7, 16.7, 16.7, 16.5, 16.8, 16.6, 16.7, 16.6, 16.6, 16.8, 16.5, 16.9, 16.5, 16.7, 16.7, 16.6, 16.6, 16.7, 16.6, 16.7, 16.6, 16.7, 16.6, 16.7, 16.7, 16.6, 16.6, 16.6, 16.8, 16.6, 16.6, 16.7, 16.8, 16.5, 16.6, 16.7, 16.7, 16.6, 16.7, 16.6, 16.8, 16.6, 16.6, 16.7, 16.7, 16.7, 16.6, 16.7, 16.7, 16.5, 16.8, 16.5, 16.8, 16.7, 16.7, 16.5, 16.7, 16.7, 16.7, 16.5, 16.6, 16.8, 16.5, 16.7, 16.7, 16.8, 16.4, 16.7, 16.7, 16.7, 16.7, 16.6, 16.6, 16.9, 16.4, 16.7, 16.6, 16.7, 16.7, 16.9, 16.3, 16.7, 16.6, 16.7, 16.6, 16.9, 16.5, 17.4, 17.2, 16.1, 16.5, 16.7, 16.7, 16.5, 16.9, 17.1, 15.9, 16.7, 16.7, 16.7, 16.8, 16.5, 16.9, 16.6, 16.6, 16.5, 16.9, 17.2, 15.9, 16.7, 16.6, 16.7, 16.7, 16.7, 16.7, 16.5, 16.6, 16.7, 16.7, 16.6, 16.6, 17.1, 16.3, 16.8, 16.6]",60.0,60.0,60.0,4981.4,[],,,,,,,,,,,,,,,,,,,,,,,,,HRV,HRV_0123,2022-11-30 18:16:28
,wl-html-keyboard-response,2,20104,0.0-2.0-0.0,0.0,3.0,,,,,,,,10389.600000143051,0.0,0,,,,,,,,,,,,,,,,,,,,,,HRV,HRV_0123,2022-11-30 18:16:28
,wl-rdm,3,27310,0.0-3.0-0.0,0.0,4.0,,,,,,,[],,,,0.0,0.0,87.9,0.0,u,0.0,True,1607.3999998569489,97.0,60.0,40.0,False,,3000.0,[],"[683, 384]",ColorTask_Demo,,,,,HRV,HRV_0123,2022-11-30 18:16:28
,wl-rdm,4,31923,0.0-3.0-1.0,0.0,5.0,,,,,,,[],,,,0.0,0.0,87.9,1.0,i,1.0,True,528.6999998092651,32.0,60.0,40.0,False,,2000.0,[],"[683, 384]",ColorTask_Demo,,,,,HRV,HRV_0123,2022-11-30 18:16:28
,wl-html-keyboard-response,5,37551,0.0-3.0-2.0,0.0,6.0,,,,,,,,3623.2000000476837,0.0,1,,,,,,,,,,,,,,,,,,,,,,HRV,HRV_0123,2022-11-30 18:16:28
,wl-html-keyboard-response,6,46750,0.0-4.0-0.0,0.0,7.0,,,,,,,,7194.799999952316,0.0,0,,,,,,,,,,,,,,,,,,,,,,HRV,HRV_0123,2022-11-30 18:16:28
,wl-html-keyboard-response,7,64565,0.0-5.0-0.0,0.0,8.0,,,,,,,,15807.799999952316,0.0,0,,,,,,,,,,,,,,,,,,,,,,HRV,HRV_0123,2022-11-30 18:16:28
,wl-rdm,8,67596,0.0-6.0-0.0,0.0,9.0,,,,,,,[],,,,,,62.5,0.0,u,0.0,True,1576.4000000953674,95.0,60.0,40.0,False,,382.97963799134004,[],"[683, 384]",ColorTask,1.0,1.0,,,HRV,HRV_0123,2022-11-30 18:16:28
,wl-rdm,9,69845,0.0-6.1-0.1,0.0,10.0,,,,,,,[],,,,,,56.4,0.0,i,1.0,False,853.0999999046326,52.0,60.0,40.0,False,,301.19996517181306,[],"[683, 384]",ColorTask,0.0,2.0,,,HRV,HRV_0123,2022-11-30 18:16:28
,wl-rdm,10,72476,0.0-6.2-0.2,0.0,11.0,,,,,,,[],,,,,,50.0,0.0,i,1.0,False,1179.7000002861023,71.0,60.0,40.0,False,,377.06378963240127,[],"[683, 384]",ColorTask,-1.0,3.0,,,HRV,HRV_0123,2022-11-30 18:16:28
,wl-rdm,11,75041,0.0-6.3-0.3,0.0,12.0,,,,,,,[],,,,,,50.0,1.0,i,1.0,True,1276.3000001907349,77.0,60.0,40.0,False,,204.58806312074674,[],"[683, 384]",ColorTask,0.0,4.0,,,HRV,HRV_0123,2022-11-30 18:16:28
,wl-rdm,12,77256,0.0-6.4-0.4,0.0,13.0,,,,,,,[],,,,,,73.6,0.0,u,0.0,True,895.3999998569489,54.0,60.0,40.0,False,,246.3028925930961,[],"[683, 384]",ColorTask,1.0,5.0,,,HRV,HRV_0123,2022-11-30 18:16:28
,wl-rdm,13,79837,0.0-6.5-0.5,0.0,14.0,,,,,,,[],,,,,,50.0,1.0,u,0.0,False,1295.0,78.0,60.0,40.0,False,,214.8669297293099,[],"[683, 384]",ColorTask,0.0,6.0,,,HRV,HRV_0123,2022-11-30 18:16:28
,wl-rdm,14,81902,0.0-6.6-0.6,0.0,15.0,,,,,,,[],,,,,,50.0,1.0,i,1.0,True,761.3999998569489,46.0,60.0,40.0,False,,232.82211138122034,[],"[683, 384]",ColorTask,1.0,7.0,,,HRV,HRV_0123,2022-11-30 18:16:28
,wl-rdm,15,84467,0.0-6.7-0.7,0.0,16.0,,,,,,,[],,,,,,53.2,0.0,i,1.0,False,1258.5,76.0,60.0,40.0,False,,217.13284919642322,[],"[683, 384]",ColorTask,0.0,8.0,,,HRV,HRV_0123,2022-11-30 18:16:28
,wl-rdm,16,86649,0.0-6.8-0.8,0.0,17.0,,,,,,,[],,,,,,56.4,0.0,i,1.0,False,713.5999999046326,43.0,60.0,40.0,False,,383.2972330565496,[],"[683, 384]",ColorTask,-1.0,9.0,,,HRV,HRV_0123,2022-11-30 18:16:28
,wl-rdm,17,88714,0.0-6.9-0.9,0.0,18.0,,,,,,,[],,,,,,50.0,0.0,i,1.0,False,720.0999999046326,44.0,60.0,40.0,False,,249.88599553884944,[],"[683, 384]",ColorTask,-2.0,10.0,,,HRV,HRV_0123,2022-11-30 18:16:28
,wl-rdm,18,91163,0.0-6.10-0.10,0.0,19.0,,,,,,,[],,,,,,53.2,0.0,i,1.0,False,1137.1999998092651,69.0,60.0,40.0,False,,231.43325167830827,[],"[683, 384]",ColorTask,-3.0,11.0,,,HRV,HRV_0123,2022-11-30 18:16:28
,wl-rdm,19,93261,0.0-6.11-0.11,0.0,20.0,,,,,,,[],,,,,,87.9,1.0,i,1.0,True,808.0999999046326,49.0,60.0,40.0,False,,202.43504288408013,[],"[683, 384]",ColorTask,-2.0,12.0,,,HRV,HRV_0123,2022-11-30 18:16:28
,wl-rdm,20,95226,0.0-6.12-0.12,0.0,21.0,,,,,,,[],,,,,,87.9,0.0,u,0.0,True,521.9000000953674,32.0,60.0,40.0,False,,355.15818064601757,[],"[683, 384]",ColorTask,-1.0,13.0,,,HRV,HRV_0123,2022-11-30 18:16:28
,wl-rdm,21,97775,0.0-6.13-0.13,0.0,22.0,,,,,,,[],,,,,,53.2,1.0,u,0.0,False,1170.4000000953674,71.0,60.0,40.0,False,,286.4977962831298,[],"[683, 384]",ColorTask,-2.0,14.0,,,HRV,HRV_0123,2022-11-30 18:16:28
,wl-rdm,22,100373,0.0-6.14-0.14,0.0,23.0,,,,,,,[],,,,,,50.0,0.0,i,1.0,False,1136.7000000476837,69.0,60.0,40.0,False,,375.17628337599865,[],"[683, 384]",ColorTask,-3.0,15.0,,,HRV,HRV_0123,2022-11-30 18:16:28
,wl-rdm,23,102471,0.0-6.15-0.15,0.0,24.0,,,,,,,[],,,,,,73.6,1.0,i,1.0,True,776.0,47.0,60.0,40.0,False,,249.1700299264392,[],"[683, 384]",ColorTask,-2.0,16.0,,,HRV,HRV_0123,2022-11-30 18:16:28
,wl-rdm,24,104420,0.0-6.16-0.16,0.0,25.0,,,,,,,[],,,,,,87.9,1.0,i,1.0,True,625.7999999523163,38.0,60.0,40.0,False,,240.01393160167294,[],"[683, 384]",ColorTask,-1.0,17.0,,,HRV,HRV_0123,2022-11-30 18:16:28
,wl-rdm,25,106635,0.0-6.17-0.17,0.0,26.0,,,,,,,[],,,,,,53.2,1.0,i,1.0,True,789.7999999523163,48.0,60.0,40.0,False,,339.7953045868103,[],"[683, 384]",ColorTask,0.0,18.0,,,HRV,HRV_0123,2022-11-30 18:16:28
,wl-rdm,26,109916,0.0-6.18-0.18,0.0,27.0,,,,,,,[],,,,,,56.4,0.0,i,1.0,False,1896.9000000953674,114.0,60.0,40.0,False,,310.5402071702145,[],"[683, 384]",ColorTask,-1.0,19.0,,,HRV,HRV_0123,2022-11-30 18:16:28
,wl-rdm,27,111765,0.0-6.19-0.19,0.0,28.0,,,,,,,[],,,,,,87.9,0.0,u,0.0,True,555.7999999523163,34.0,60.0,40.0,False,,213.42532284842483,[],"[683, 384]",ColorTask,0.0,20.0,,,HRV,HRV_0123,2022-11-30 18:16:28
,wl-rdm,28,114679,0.0-6.20-0.20,0.0,29.0,,,,,,,[],,,,,,62.5,0.0,u,0.0,True,1529.0,92.0,60.0,40.0,False,,302.0299546266381,[],"[683, 384]",ColorTask,1.0,21.0,,,HRV,HRV_0123,2022-11-30 18:16:28
,wl-rdm,29,117095,0.0-6.21-0.21,0.0,30.0,,,,,,,[],,,,,,50.0,0.0,i,1.0,False,1091.6999998092651,66.0,60.0,40.0,False,,244.88874656166087,[],"[683, 384]",ColorTask,0.0,22.0,,,HRV,HRV_0123,2022-11-30 18:16:28
,wl-rdm,30,118977,0.0-6.22-0.22,0.0,31.0,,,,,,,[],,,,,,87.9,0.0,u,0.0,True,520.6000001430511,32.0,60.0,40.0,False,,280.03766607467566,[],"[683, 384]",ColorTask,1.0,23.0,,,HRV,HRV_0123,2022-11-30 18:16:28
,wl-rdm,31,120876,0.0-6.23-0.23,0.0,32.0,,,,,,,[],,,,,,56.4,1.0,i,1.0,True,600.5999999046326,37.0,60.0,40.0,False,,216.23474990832895,[],"[683, 384]",ColorTask,2.0,24.0,,,HRV,HRV_0123,2022-11-30 18:16:28
,wl-rdm,32,122658,0.0-6.24-0.24,0.0,33.0,,,,,,,[],,,,,,87.9,1.0,i,1.0,True,488.5,30.0,60.0,40.0,False,,207.98154501448474,[],"[683, 384]",ColorTask,3.0,25.0,,,HRV,HRV_0123,2022-11-30 18:16:28
,wl-rdm,33,125123,0.0-6.25-0.25,0.0,34.0,,,,,,,[],,,,,,53.2,0.0,i,1.0,False,1003.3999998569489,61.0,60.0,40.0,False,,372.7655992830107,[],"[683, 384]",ColorTask,2.0,26.0,,,HRV,HRV_0123,2022-11-30 18:16:28
,wl-rdm,34,127121,0.0-6.26-0.26,0.0,35.0,,,,,,,[],,,,,,73.6,0.0,u,0.0,True,611.8999998569489,37.0,60.0,40.0,False,,308.4047413558614,[],"[683, 384]",ColorTask,3.0,27.0,,,HRV,HRV_0123,2022-11-30 18:16:28
,wl-rdm,35,129236,0.0-6.27-0.27,0.0,36.0,,,,,,,[],,,,,,53.2,1.0,i,1.0,True,767.9000000953674,47.0,60.0,40.0,False,,250.73465911566004,[],"[683, 384]",ColorTask,4.0,28.0,,,HRV,HRV_0123,2022-11-30 18:16:28
,wl-rdm,36,131252,0.0-6.28-0.28,0.0,37.0,,,,,,,[],,,,,,73.6,1.0,i,1.0,True,551.5,34.0,60.0,40.0,False,,381.33131216124315,[],"[683, 384]",ColorTask,5.0,29.0,,,HRV,HRV_0123,2022-11-30 18:16:28
,wl-rdm,37,133733,0.0-6.29-0.29,0.0,38.0,,,,,,,[],,,,,,62.5,0.0,u,0.0,True,1136.6000001430511,69.0,60.0,40.0,False,,263.4284791772898,[],"[683, 384]",ColorTask,6.0,30.0,,,HRV,HRV_0123,2022-11-30 18:16:28
,wl-rdm,38,136731,0.0-6.30-0.30,0.0,39.0,,,,,,,[],,,,,,50.0,1.0,u,0.0,False,1706.5,103.0,60.0,40.0,False,,215.5263734055474,[],"[683, 384]",ColorTask,5.0,31.0,,,HRV,HRV_0123,2022-11-30 18:16:28
,wl-rdm,39,139129,0.0-6.31-0.31,0.0,40.0,,,,,,,[],,,,,,62.5,1.0,i,1.0,True,957.4000000953674,58.0,60.0,40.0,False,,363.57331705459126,[],"[683, 384]",ColorTask,6.0,32.0,,,HRV,HRV_0123,2022-11-30 18:16:28
,wl-rdm,40,140945,0.0-6.32-0.32,0.0,41.0,,,,,,,[],,,,,,87.9,1.0,i,1.0,True,478.4999997615814,29.0,60.0,40.0,False,,259.0619555472014,[],"[683, 384]",ColorTask,7.0,33.0,,,HRV,HRV_0123,2022-11-30 18:16:28
,wl-rdm,41,143226,0.0-6.33-0.33,0.0,42.0,,,,,,,[],,,,,,62.5,1.0,i,1.0,True,929.7000000476837,56.0,60.0,40.0,False,,277.8334280296219,[],"[683, 384]",ColorTask,8.0,34.0,,,HRV,HRV_0123,2022-11-30 18:16:28
,wl-rdm,42,145308,0.0-6.34-0.34,0.0,43.0,,,,,,,[],,,,,,73.6,0.0,u,0.0,True,764.4000000953674,46.0,60.0,40.0,False,,243.30761986936068,[],"[683, 384]",ColorTask,9.0,35.0,,,HRV,HRV_0123,2022-11-30 18:16:28
,wl-rdm,43,147357,0.0-6.35-0.35,0.0,44.0,,,,,,,[],,,,,,73.6,1.0,i,1.0,True,720.5000002384186,44.0,60.0,40.0,False,,239.53025354900325,[],"[683, 384]",ColorTask,10.0,36.0,,,HRV,HRV_0123,2022-11-30 18:16:28
,wl-rdm,44,150555,0.0-6.36-0.36,0.0,45.0,,,,,,,[],,,,,,62.5,0.0,u,0.0,True,1913.3999998569489,115.0,60.0,40.0,False,,214.23217431785204,[],"[683, 384]",ColorTask,11.0,37.0,,,HRV,HRV_0123,2022-11-30 18:16:28
,wl-rdm,45,152870,0.0-6.37-0.37,0.0,46.0,,,,,,,[],,,,,,62.5,0.0,u,0.0,True,921.6000001430511,56.0,60.0,40.0,False,,301.6064614476653,[],"[683, 384]",ColorTask,12.0,38.0,,,HRV,HRV_0123,2022-11-30 18:16:28
,wl-rdm,46,155001,0.0-6.38-0.38,0.0,47.0,,,,,,,[],,,,,,53.2,0.0,u,0.0,True,654.7000000476837,40.0,60.0,40.0,False,,387.6881054470281,[],"[683, 384]",ColorTask,13.0,39.0,,,HRV,HRV_0123,2022-11-30 18:16:28
,wl-rdm,47,157450,0.0-6.39-0.39,0.0,48.0,,,,,,,[],,,,,,56.4,1.0,i,1.0,True,1082.0999999046326,65.0,60.0,40.0,False,,295.8838518572658,[],"[683, 384]",ColorTask,14.0,40.0,,,HRV,HRV_0123,2022-11-30 18:16:28
,wl-rdm,48,159448,0.0-6.40-0.40,0.0,49.0,,,,,,,[],,,,,,73.6,1.0,i,1.0,True,547.7999999523163,33.0,60.0,40.0,False,,370.09652908381634,[],"[683, 384]",ColorTask,15.0,41.0,,,HRV,HRV_0123,2022-11-30 18:16:28
,wl-rdm,49,161680,0.0-6.41-0.41,0.0,50.0,,,,,,,[],,,,,,56.4,0.0,u,0.0,True,911.7000000476837,55.0,60.0,40.0,False,,235.7914228842074,[],"[683, 384]",ColorTask,16.0,42.0,,,HRV,HRV_0123,2022-11-30 18:16:28
,wl-rdm,50,163945,0.0-6.42-0.42,0.0,51.0,,,,,,,[],,,,,,73.6,1.0,i,1.0,True,841.2999999523163,51.0,60.0,40.0,False,,339.1890909495304,[],"[683, 384]",ColorTask,17.0,43.0,,,HRV,HRV_0123,2022-11-30 18:16:28
,wl-rdm,51,166427,0.0-6.43-0.43,0.0,52.0,,,,,,,[],,,,,,62.5,0.0,u,0.0,True,1094.0,66.0,60.0,40.0,False,,308.4581412288818,[],"[683, 384]",ColorTask,18.0,44.0,,,HRV,HRV_0123,2022-11-30 18:16:28
,wl-rdm,52,168808,0.0-6.44-0.44,0.0,53.0,,,,,,,[],,,,,,62.5,1.0,i,1.0,True,920.0,56.0,60.0,40.0,False,,377.15285747274373,[],"[683, 384]",ColorTask,19.0,45.0,,,HRV,HRV_0123,2022-11-30 18:16:28
,wl-rdm,53,171007,0.0-6.45-0.45,0.0,54.0,,,,,,,[],,,,,,56.4,1.0,i,1.0,True,905.7000000476837,55.0,60.0,40.0,False,,209.90552084684518,[],"[683, 384]",ColorTask,20.0,46.0,,,HRV,HRV_0123,2022-11-30 18:16:28
,wl-rdm,54,173105,0.0-6.46-0.46,0.0,55.0,,,,,,,[],,,,,,62.5,0.0,u,0.0,True,648.9000000953674,39.0,60.0,40.0,False,,379.6866364011087,[],"[683, 384]",ColorTask,21.0,47.0,,,HRV,HRV_0123,2022-11-30 18:16:28
,wl-rdm,55,175553,0.0-6.47-0.47,0.0,56.0,,,,,,,[],,,,,,56.4,1.0,u,0.0,False,1145.5,69.0,60.0,40.0,False,,217.0366493679632,[],"[683, 384]",ColorTask,20.0,48.0,,,HRV,HRV_0123,2022-11-30 18:16:28
,wl-rdm,56,177468,0.0-6.48-0.48,0.0,57.0,,,,,,,[],,,,,,87.9,0.0,u,0.0,True,609.4000000953674,37.0,60.0,40.0,False,,219.1240432825505,[],"[683, 384]",ColorTask,21.0,49.0,,,HRV,HRV_0123,2022-11-30 18:16:28
,wl-rdm,57,179517,0.0-6.49-0.49,0.0,58.0,,,,,,,[],,,,,,87.9,0.0,u,0.0,True,636.9000000953674,39.0,60.0,40.0,False,,325.17849527111485,[],"[683, 384]",ColorTask,22.0,50.0,,,HRV,HRV_0123,2022-11-30 18:16:28
,wl-rdm,58,181615,0.0-6.50-0.50,0.0,59.0,,,,,,,[],,,,,,73.6,0.0,u,0.0,True,753.6000001430511,46.0,60.0,40.0,False,,255.854472252186,[],"[683, 384]",ColorTask,23.0,51.0,,,HRV,HRV_0123,2022-11-30 18:16:28
,wl-rdm,59,183964,0.0-6.51-0.51,0.0,60.0,,,,,,,[],,,,,,56.4,0.0,u,0.0,True,1011.3999998569489,61.0,60.0,40.0,False,,266.26135267881665,[],"[683, 384]",ColorTask,24.0,52.0,,,HRV,HRV_0123,2022-11-30 18:16:28
,wl-rdm,60,185879,0.0-6.52-0.52,0.0,61.0,,,,,,,[],,,,,,73.6,1.0,i,1.0,True,560.6000001430511,34.0,60.0,40.0,False,,274.1726495483708,[],"[683, 384]",ColorTask,25.0,53.0,,,HRV,HRV_0123,2022-11-30 18:16:28
,wl-rdm,61,188477,0.0-6.53-0.53,0.0,62.0,,,,,,,[],,,,,,50.0,0.0,u,0.0,True,1270.2000000476837,77.0,60.0,40.0,False,,239.4501688553551,[],"[683, 384]",ColorTask,26.0,54.0,,,HRV,HRV_0123,2022-11-30 18:16:28
,wl-rdm,62,191109,0.0-6.54-0.54,0.0,63.0,,,,,,,[],,,,,,56.4,1.0,i,1.0,True,1159.0999999046326,70.0,60.0,40.0,False,,387.7921108983776,[],"[683, 384]",ColorTask,27.0,55.0,,,HRV,HRV_0123,2022-11-30 18:16:28
,wl-rdm,63,193124,0.0-6.55-0.55,0.0,64.0,,,,,,,[],,,,,,73.6,1.0,i,1.0,True,730.0,44.0,60.0,40.0,False,,203.62003448783705,[],"[683, 384]",ColorTask,28.0,56.0,,,HRV,HRV_0123,2022-11-30 18:16:28
,wl-rdm,64,195672,0.0-6.56-0.56,0.0,65.0,,,,,,,[],,,,,,53.2,0.0,u,0.0,True,1070.2999997138977,65.0,60.0,40.0,False,,385.62888003744473,[],"[683, 384]",ColorTask,29.0,57.0,,,HRV,HRV_0123,2022-11-30 18:16:28
,wl-rdm,65,197687,0.0-6.57-0.57,0.0,66.0,,,,,,,[],,,,,,87.9,0.0,u,0.0,True,694.2000000476837,42.0,60.0,40.0,False,,241.855981579797,[],"[683, 384]",ColorTask,30.0,58.0,,,HRV,HRV_0123,2022-11-30 18:16:28
,wl-rdm,66,200352,0.0-6.58-0.58,0.0,67.0,,,,,,,[],,,,,,62.5,0.0,u,0.0,True,1260.2999999523163,76.0,60.0,40.0,False,,322.2089986904947,[],"[683, 384]",ColorTask,31.0,59.0,,,HRV,HRV_0123,2022-11-30 18:16:28
,wl-rdm,67,202251,0.0-6.59-0.59,0.0,68.0,,,,,,,[],,,,,,73.6,1.0,i,1.0,True,514.4000000953674,31.0,60.0,40.0,False,,311.8287842211974,[],"[683, 384]",ColorTask,32.0,60.0,,,HRV,HRV_0123,2022-11-30 18:16:28
,wl-rdm,68,205015,0.0-6.60-0.60,0.0,69.0,,,,,,,[],,,,,,53.2,0.0,u,0.0,True,1322.2999999523163,80.0,60.0,40.0,False,,358.1775863948817,[],"[683, 384]",ColorTask,33.0,61.0,,,HRV,HRV_0123,2022-11-30 18:16:28
,wl-rdm,69,207430,0.0-6.61-0.61,0.0,70.0,,,,,,,[],,,,,,50.0,1.0,i,1.0,True,1072.2000000476837,65.0,60.0,40.0,False,,260.29739414341856,[],"[683, 384]",ColorTask,34.0,62.0,,,HRV,HRV_0123,2022-11-30 18:16:28
,wl-rdm,70,210878,0.0-6.62-0.62,0.0,71.0,,,,,,,[],,,,,,50.0,1.0,u,0.0,False,1976.1000001430511,119.0,60.0,40.0,False,,394.3232386480243,[],"[683, 384]",ColorTask,33.0,63.0,,,HRV,HRV_0123,2022-11-30 18:16:28
,wl-rdm,71,213293,0.0-6.63-0.63,0.0,72.0,,,,,,,[],,,,,,62.5,0.0,u,0.0,True,1020.4999997615814,62.0,60.0,40.0,False,,312.35248667630185,[],"[683, 384]",ColorTask,34.0,64.0,,,HRV,HRV_0123,2022-11-30 18:16:28
,wl-rdm,72,215675,0.0-6.64-0.64,0.0,73.0,,,,,,,[],,,,,,53.2,1.0,i,1.0,True,974.4000000953674,59.0,60.0,40.0,False,,325.98991640343377,[],"[683, 384]",ColorTask,35.0,65.0,,,HRV,HRV_0123,2022-11-30 18:16:28
,wl-rdm,73,217807,0.0-6.65-0.65,0.0,74.0,,,,,,,[],,,,,,73.6,0.0,u,0.0,True,688.6000001430511,42.0,60.0,40.0,False,,359.07150319939683,[],"[683, 384]",ColorTask,36.0,66.0,,,HRV,HRV_0123,2022-11-30 18:16:28
,wl-rdm,74,220388,0.0-6.66-0.66,0.0,75.0,,,,,,,[],,,,,,53.2,1.0,i,1.0,True,1119.9000000953674,68.0,60.0,40.0,False,,376.37561871525133,[],"[683, 384]",ColorTask,37.0,67.0,,,HRV,HRV_0123,2022-11-30 18:16:28
,wl-rdm,75,222720,0.0-6.67-0.67,0.0,76.0,,,,,,,[],,,,,,53.2,1.0,i,1.0,True,875.2000000476837,53.0,60.0,40.0,False,,371.3199212674589,[],"[683, 384]",ColorTask,38.0,68.0,,,HRV,HRV_0123,2022-11-30 18:16:28
,wl-rdm,76,224552,0.0-6.68-0.68,0.0,77.0,,,,,,,[],,,,,,87.9,1.0,i,1.0,True,516.3999998569489,31.0,60.0,40.0,False,,234.11025296734337,[],"[683, 384]",ColorTask,39.0,69.0,,,HRV,HRV_0123,2022-11-30 18:16:28
,wl-rdm,77,226867,0.0-6.69-0.69,0.0,78.0,,,,,,,[],,,,,,53.2,0.0,i,1.0,False,1023.2999999523163,62.0,60.0,40.0,False,,213.47027008210853,[],"[683, 384]",ColorTask,38.0,70.0,,,HRV,HRV_0123,2022-11-30 18:16:28
,wl-rdm,78,228999,0.0-6.70-0.70,0.0,79.0,,,,,,,[],,,,,,56.4,1.0,u,0.0,False,797.9000000953674,48.0,60.0,40.0,False,,262.20215310314063,[],"[683, 384]",ColorTask,37.0,71.0,,,HRV,HRV_0123,2022-11-30 18:16:28
,wl-rdm,79,231297,0.0-6.71-0.71,0.0,80.0,,,,,,,[],,,,,,50.0,0.0,i,1.0,False,889.2999999523163,54.0,60.0,40.0,False,,322.9825376350146,[],"[683, 384]",ColorTask,36.0,72.0,,,HRV,HRV_0123,2022-11-30 18:16:28
,wl-rdm,80,233462,0.0-6.72-0.72,0.0,81.0,,,,,,,[],,,,,,56.4,1.0,i,1.0,True,867.2000000476837,53.0,60.0,40.0,False,,203.66483090528658,[],"[683, 384]",ColorTask,37.0,73.0,,,HRV,HRV_0123,2022-11-30 18:16:28
,wl-rdm,81,235594,0.0-6.73-0.73,0.0,82.0,,,,,,,[],,,,,,53.2,1.0,i,1.0,True,826.2000000476837,50.0,60.0,40.0,False,,219.92037532987104,[],"[683, 384]",ColorTask,38.0,74.0,,,HRV,HRV_0123,2022-11-30 18:16:28
,wl-rdm,82,238342,0.0-6.74-0.74,0.0,83.0,,,,,,,[],,,,,,50.0,0.0,i,1.0,False,1292.0999999046326,78.0,60.0,40.0,False,,379.23492478265985,[],"[683, 384]",ColorTask,37.0,75.0,,,HRV,HRV_0123,2022-11-30 18:16:28
,wl-rdm,83,240357,0.0-6.75-0.75,0.0,84.0,,,,,,,[],,,,,,87.9,1.0,i,1.0,True,603.6999998092651,37.0,60.0,40.0,False,,328.16020060558435,[],"[683, 384]",ColorTask,38.0,76.0,,,HRV,HRV_0123,2022-11-30 18:16:28
,wl-rdm,84,242356,0.0-6.76-0.76,0.0,85.0,,,,,,,[],,,,,,87.9,1.0,i,1.0,True,543.0,33.0,60.0,40.0,False,,368.31033338171716,[],"[683, 384]",ColorTask,39.0,77.0,,,HRV,HRV_0123,2022-11-30 18:16:28
,wl-rdm,85,244255,0.0-6.77-0.77,0.0,86.0,,,,,,,[],,,,,,87.9,0.0,u,0.0,True,484.2000000476837,30.0,60.0,40.0,False,,331.3363853786792,[],"[683, 384]",ColorTask,40.0,78.0,,,HRV,HRV_0123,2022-11-30 18:16:28
,wl-rdm,86,246669,0.0-6.78-0.78,0.0,87.0,,,,,,,[],,,,,,56.4,1.0,i,1.0,True,1047.7999999523163,63.0,60.0,40.0,False,,296.7021970799759,[],"[683, 384]",ColorTask,41.0,79.0,,,HRV,HRV_0123,2022-11-30 18:16:28
,wl-rdm,87,249351,0.0-6.79-0.79,0.0,88.0,,,,,,,[],,,,,,62.5,1.0,i,1.0,True,1309.5000002384186,79.0,60.0,40.0,False,,286.43443960040787,[],"[683, 384]",ColorTask,42.0,80.0,,,HRV,HRV_0123,2022-11-30 18:16:28
,wl-rdm,88,251982,0.0-6.80-0.80,0.0,89.0,,,,,,,[],,,,,,62.5,1.0,i,1.0,True,1204.5,73.0,60.0,40.0,False,,341.26240414957476,[],"[683, 384]",ColorTask,43.0,81.0,,,HRV,HRV_0123,2022-11-30 18:16:28
,wl-rdm,89,254064,0.0-6.81-0.81,0.0,90.0,,,,,,,[],,,,,,73.6,0.0,u,0.0,True,641.9999997615814,39.0,60.0,40.0,False,,360.1208247080889,[],"[683, 384]",ColorTask,44.0,82.0,,,HRV,HRV_0123,2022-11-30 18:16:28
,wl-rdm,90,256229,0.0-6.82-0.82,0.0,91.0,,,,,,,[],,,,,,62.5,1.0,i,1.0,True,842.2999999523163,51.0,60.0,40.0,False,,240.05348902507887,[],"[683, 384]",ColorTask,45.0,83.0,,,HRV,HRV_0123,2022-11-30 18:16:28
,wl-rdm,91,258211,0.0-6.83-0.83,0.0,92.0,,,,,,,[],,,,,,73.6,0.0,u,0.0,True,667.0,41.0,60.0,40.0,False,,230.89695475294172,[],"[683, 384]",ColorTask,46.0,84.0,,,HRV,HRV_0123,2022-11-30 18:16:28
,wl-rdm,92,260226,0.0-6.84-0.84,0.0,93.0,,,,,,,[],,,,,,73.6,0.0,u,0.0,True,690.0,42.0,60.0,40.0,False,,249.97436461995136,[],"[683, 384]",ColorTask,47.0,85.0,,,HRV,HRV_0123,2022-11-30 18:16:28
,wl-rdm,93,262526,0.0-6.85-0.85,0.0,94.0,,,,,,,[],,,,,,53.2,0.0,u,0.0,True,868.1999998092651,53.0,60.0,40.0,False,,366.5421967554462,[],"[683, 384]",ColorTask,48.0,86.0,,,HRV,HRV_0123,2022-11-30 18:16:28
,wl-rdm,94,264791,0.0-6.86-0.86,0.0,95.0,,,,,,,[],,,,,,56.4,0.0,u,0.0,True,823.8000001907349,50.0,60.0,40.0,False,,363.9134096755033,[],"[683, 384]",ColorTask,49.0,87.0,,,HRV,HRV_0123,2022-11-30 18:16:28
,wl-rdm,95,267106,0.0-6.87-0.87,0.0,96.0,,,,,,,[],,,,,,56.4,0.0,u,0.0,True,873.7000000476837,53.0,60.0,40.0,False,,351.6011362047907,[],"[683, 384]",ColorTask,50.0,88.0,,,HRV,HRV_0123,2022-11-30 18:16:28
,wl-rdm,96,269055,0.0-6.88-0.88,0.0,97.0,,,,,,,[],,,,,,73.6,1.0,i,1.0,True,621.9000000953674,38.0,60.0,40.0,False,,247.59722462248314,[],"[683, 384]",ColorTask,51.0,89.0,,,HRV,HRV_0123,2022-11-30 18:16:28
,wl-rdm,97,271686,0.0-6.89-0.89,0.0,98.0,,,,,,,[],,,,,,50.0,1.0,u,0.0,False,1241.5999999046326,75.0,60.0,40.0,False,,307.4277903807373,[],"[683, 384]",ColorTask,50.0,90.0,,,HRV,HRV_0123,2022-11-30 18:16:28
,wl-rdm,98,273618,0.0-6.90-0.90,0.0,99.0,,,,,,,[],,,,,,87.9,1.0,i,1.0,True,489.2999999523163,30.0,60.0,40.0,False,,357.7709591413692,[],"[683, 384]",ColorTask,51.0,91.0,,,HRV,HRV_0123,2022-11-30 18:16:28
,wl-rdm,99,276000,0.0-6.91-0.91,0.0,100.0,,,,,,,[],,,,,,53.2,0.0,i,1.0,False,1064.4000000953674,64.0,60.0,40.0,False,,248.8162467515157,[],"[683, 384]",ColorTask,50.0,92.0,,,HRV,HRV_0123,2022-11-30 18:16:28
,wl-rdm,100,278198,0.0-6.92-0.92,0.0,101.0,,,,,,,[],,,,,,73.6,0.0,u,0.0,True,756.5,46.0,60.0,40.0,False,,352.38326812904654,[],"[683, 384]",ColorTask,51.0,93.0,,,HRV,HRV_0123,2022-11-30 18:16:28
,wl-rdm,101,280414,0.0-6.93-0.93,0.0,102.0,,,,,,,[],,,,,,50.0,0.0,u,0.0,True,827.0,50.0,60.0,40.0,False,,308.7107617610018,[],"[683, 384]",ColorTask,52.0,94.0,,,HRV,HRV_0123,2022-11-30 18:16:28
,wl-rdm,102,282295,0.0-6.94-0.94,0.0,103.0,,,,,,,[],,,,,,87.9,0.0,u,0.0,True,598.6000001430511,36.0,60.0,40.0,False,,205.00933803197782,[],"[683, 384]",ColorTask,53.0,95.0,,,HRV,HRV_0123,2022-11-30 18:16:28
,wl-rdm,103,284161,0.0-6.95-0.95,0.0,104.0,,,,,,,[],,,,,,87.9,1.0,i,1.0,True,474.0,29.0,60.0,40.0,False,,309.43091146552547,[],"[683, 384]",ColorTask,54.0,96.0,,,HRV,HRV_0123,2022-11-30 18:16:28
,wl-rdm,104,286659,0.0-6.96-0.96,0.0,105.0,,,,,,,[],,,,,,56.4,0.0,u,0.0,True,1212.2999999523163,73.0,60.0,40.0,False,,215.6189071450216,[],"[683, 384]",ColorTask,55.0,97.0,,,HRV,HRV_0123,2022-11-30 18:16:28
,wl-rdm,105,288974,0.0-6.97-0.97,0.0,106.0,,,,,,,[],,,,,,53.2,1.0,i,1.0,True,1016.0,61.0,60.0,40.0,False,,219.0470589748973,[],"[683, 384]",ColorTask,56.0,98.0,,,HRV,HRV_0123,2022-11-30 18:16:28
,wl-rdm,106,291472,0.0-6.98-0.98,0.0,107.0,,,,,,,[],,,,,,62.5,1.0,i,1.0,True,1046.7999999523163,63.0,60.0,40.0,False,,367.17051286632545,[],"[683, 384]",ColorTask,57.0,99.0,,,HRV,HRV_0123,2022-11-30 18:16:28
,wl-rdm,107,293971,0.0-6.99-0.99,0.0,108.0,,,,,,,[],,,,,,50.0,1.0,i,1.0,True,1040.0999999046326,63.0,60.0,40.0,False,,368.44812923848576,[],"[683, 384]",ColorTask,58.0,100.0,,,HRV,HRV_0123,2022-11-30 18:16:28
,wl-rdm,108,296519,0.0-6.100-0.100,0.0,109.0,,,,,,,[],,,,,,56.4,0.0,u,0.0,True,1245.6000001430511,75.0,60.0,40.0,False,,219.36292380653788,[],"[683, 384]",ColorTask,59.0,101.0,,,HRV,HRV_0123,2022-11-30 18:16:28
,wl-rdm,109,299134,0.0-6.101-0.101,0.0,110.0,,,,,,,[],,,,,,50.0,1.0,i,1.0,True,1234.2000000476837,75.0,60.0,40.0,False,,285.70596175385697,[],"[683, 384]",ColorTask,60.0,102.0,,,HRV,HRV_0123,2022-11-30 18:16:28
,wl-rdm,110,301299,0.0-6.102-0.102,0.0,111.0,,,,,,,[],,,,,,87.9,0.0,u,0.0,True,688.7999999523163,42.0,60.0,40.0,False,,399.3541725777759,[],"[683, 384]",ColorTask,61.0,103.0,,,HRV,HRV_0123,2022-11-30 18:16:28
,wl-rdm,111,303764,0.0-6.103-0.103,0.0,112.0,,,,,,,[],,,,,,62.5,1.0,i,1.0,True,1160.2999999523163,70.0,60.0,40.0,False,,221.81143781517932,[],"[683, 384]",ColorTask,62.0,104.0,,,HRV,HRV_0123,2022-11-30 18:16:28
,wl-rdm,112,305996,0.0-6.104-0.104,0.0,113.0,,,,,,,[],,,,,,62.5,1.0,i,1.0,True,917.8999998569489,56.0,60.0,40.0,False,,217.48185751539387,[],"[683, 384]",ColorTask,63.0,105.0,,,HRV,HRV_0123,2022-11-30 18:16:28
,wl-rdm,113,308577,0.0-6.105-0.105,0.0,114.0,,,,,,,[],,,,,,50.0,0.0,i,1.0,False,1241.7000000476837,75.0,60.0,40.0,False,,264.54139735248,[],"[683, 384]",ColorTask,62.0,106.0,,,HRV,HRV_0123,2022-11-30 18:16:28
,wl-rdm,114,311459,0.0-6.106-0.106,0.0,115.0,,,,,,,[],,,,,,56.4,1.0,i,1.0,True,1469.400000333786,89.0,60.0,40.0,False,,330.24891469699475,[],"[683, 384]",ColorTask,63.0,107.0,,,HRV,HRV_0123,2022-11-30 18:16:28
,wl-rdm,115,314190,0.0-6.107-0.107,0.0,116.0,,,,,,,[],,,,,,53.2,1.0,u,0.0,False,1258.6999998092651,76.0,60.0,40.0,False,,384.8922480752485,[],"[683, 384]",ColorTask,62.0,108.0,,,HRV,HRV_0123,2022-11-30 18:16:28
,wl-html-keyboard-response,116,348150,0.0-7.0-0.0,1.0,117.0,,,,,,,,31953.099999904633,1.0,0,,,,,,,,,,,,,,,,,,,,,,HRV,HRV_0123,2022-11-30 18:16:28
,wl-rdm,117,350680,0.0-8.0-0.0,1.0,118.0,,,,,,,[],,,,,,62.5,0.0,i,1.0,False,1247.5,75.0,60.0,40.0,False,,212.69242917967114,[],"[683, 384]",ColorTask,61.0,1.0,,,HRV,HRV_0123,2022-11-30 18:16:28
,wl-rdm,118,352762,0.0-8.1-0.1,1.0,119.0,,,,,,,[],,,,,,87.9,0.0,u,0.0,True,740.6000001430511,45.0,60.0,40.0,False,,256.4446359462361,[],"[683, 384]",ColorTask,62.0,2.0,,,HRV,HRV_0123,2022-11-30 18:16:28
,wl-rdm,119,355427,0.0-8.2-0.2,1.0,120.0,,,,,,,[],,,,,,62.5,0.0,i,1.0,False,1254.0999999046326,76.0,60.0,40.0,False,,329.38142329910113,[],"[683, 384]",ColorTask,61.0,3.0,,,HRV,HRV_0123,2022-11-30 18:16:28
,wl-rdm,120,357342,0.0-8.3-0.3,1.0,121.0,,,,,,,[],,,,,,62.5,1.0,i,1.0,True,596.4000000953674,36.0,60.0,40.0,False,,249.14860199018068,[],"[683, 384]",ColorTask,62.0,4.0,,,HRV,HRV_0123,2022-11-30 18:16:28
,wl-rdm,121,359574,0.0-8.4-0.4,1.0,122.0,,,,,,,[],,,,,,56.4,1.0,i,1.0,True,822.400000333786,50.0,60.0,40.0,False,,317.13093035412203,[],"[683, 384]",ColorTask,63.0,5.0,,,HRV,HRV_0123,2022-11-30 18:16:28
,wl-rdm,122,361905,0.0-8.5-0.5,1.0,123.0,,,,,,,[],,,,,,56.4,0.0,u,0.0,True,1003.1000001430511,61.0,60.0,40.0,False,,235.94244126726375,[],"[683, 384]",ColorTask,64.0,6.0,,,HRV,HRV_0123,2022-11-30 18:16:28
,wl-rdm,123,364304,0.0-8.6-0.6,1.0,124.0,,,,,,,[],,,,,,56.4,0.0,u,0.0,True,1073.9000000953674,65.0,60.0,40.0,False,,242.68273800137595,[],"[683, 384]",ColorTask,65.0,7.0,,,HRV,HRV_0123,2022-11-30 18:16:28
,wl-rdm,124,366735,0.0-8.7-0.7,1.0,125.0,,,,,,,[],,,,,,53.2,1.0,u,0.0,False,1032.0999999046326,62.0,60.0,40.0,False,,329.3790804878976,[],"[683, 384]",ColorTask,64.0,8.0,,,HRV,HRV_0123,2022-11-30 18:16:28
,wl-rdm,125,369234,0.0-8.8-0.8,1.0,126.0,,,,,,,[],,,,,,62.5,0.0,i,1.0,False,1173.8999998569489,71.0,60.0,40.0,False,,236.5226743560162,[],"[683, 384]",ColorTask,63.0,9.0,,,HRV,HRV_0123,2022-11-30 18:16:28
,wl-rdm,126,371515,0.0-8.9-0.9,1.0,127.0,,,,,,,[],,,,,,62.5,0.0,u,0.0,True,970.2999999523163,59.0,60.0,40.0,False,,219.06191820956982,[],"[683, 384]",ColorTask,64.0,10.0,,,HRV,HRV_0123,2022-11-30 18:16:28
,wl-rdm,127,373497,0.0-8.10-0.10,1.0,128.0,,,,,,,[],,,,,,56.4,0.0,i,1.0,False,559.1000001430511,34.0,60.0,40.0,False,,348.90663729779715,[],"[683, 384]",ColorTask,63.0,11.0,,,HRV,HRV_0123,2022-11-30 18:16:28
,wl-rdm,128,375796,0.0-8.11-0.11,1.0,129.0,,,,,,,[],,,,,,56.4,1.0,i,1.0,True,933.7999997138977,57.0,60.0,40.0,False,,283.09544615506513,[],"[683, 384]",ColorTask,64.0,12.0,,,HRV,HRV_0123,2022-11-30 18:16:28
,wl-rdm,129,378127,0.0-8.12-0.12,1.0,130.0,,,,,,,[],,,,,,56.4,1.0,i,1.0,True,996.5000002384186,60.0,60.0,40.0,False,,256.7678852646179,[],"[683, 384]",ColorTask,65.0,13.0,,,HRV,HRV_0123,2022-11-30 18:16:28
,wl-rdm,130,380209,0.0-8.13-0.13,1.0,131.0,,,,,,,[],,,,,,56.4,1.0,i,1.0,True,601.5,37.0,60.0,40.0,False,,393.6045155444759,[],"[683, 384]",ColorTask,66.0,14.0,,,HRV,HRV_0123,2022-11-30 18:16:28
,wl-rdm,131,382341,0.0-8.14-0.14,1.0,132.0,,,,,,,[],,,,,,73.6,0.0,u,0.0,True,706.8999998569489,43.0,60.0,40.0,False,,343.75495828560304,[],"[683, 384]",ColorTask,67.0,15.0,,,HRV,HRV_0123,2022-11-30 18:16:28
,wl-rdm,132,384389,0.0-8.15-0.15,1.0,133.0,,,,,,,[],,,,,,87.9,1.0,i,1.0,True,728.7999999523163,44.0,60.0,40.0,False,,238.41946007952205,[],"[683, 384]",ColorTask,68.0,16.0,,,HRV,HRV_0123,2022-11-30 18:16:28
,wl-rdm,133,386305,0.0-8.16-0.16,1.0,134.0,,,,,,,[],,,,,,73.6,0.0,u,0.0,True,571.4000000953674,35.0,60.0,40.0,False,,262.7091016979978,[],"[683, 384]",ColorTask,69.0,17.0,,,HRV,HRV_0123,2022-11-30 18:16:28
,wl-rdm,134,388520,0.0-8.17-0.17,1.0,135.0,,,,,,,[],,,,,,73.6,0.0,u,0.0,True,796.6000001430511,48.0,60.0,40.0,False,,338.37040483502324,[],"[683, 384]",ColorTask,70.0,18.0,,,HRV,HRV_0123,2022-11-30 18:16:28
,wl-rdm,135,390802,0.0-8.18-0.18,1.0,136.0,,,,,,,[],,,,,,53.2,0.0,i,1.0,False,979.7999999523163,59.0,60.0,40.0,False,,230.6129841994522,[],"[683, 384]",ColorTask,69.0,19.0,,,HRV,HRV_0123,2022-11-30 18:16:28
,wl-rdm,136,393533,0.0-8.19-0.19,1.0,137.0,,,,,,,[],,,,,,53.2,0.0,u,0.0,True,1388.5999999046326,84.0,60.0,40.0,False,,252.37244800709985,[],"[683, 384]",ColorTask,70.0,20.0,,,HRV,HRV_0123,2022-11-30 18:16:28
,wl-rdm,137,395515,0.0-8.20-0.20,1.0,138.0,,,,,,,[],,,,,,73.6,1.0,i,1.0,True,552.0999999046326,34.0,60.0,40.0,False,,343.3207458725365,[],"[683, 384]",ColorTask,71.0,21.0,,,HRV,HRV_0123,2022-11-30 18:16:28
,wl-rdm,138,398463,0.0-8.21-0.21,1.0,139.0,,,,,,,[],,,,,,62.5,0.0,i,1.0,False,1650.5999999046326,100.0,60.0,40.0,False,,214.34837351130412,[],"[683, 384]",ColorTask,70.0,22.0,,,HRV,HRV_0123,2022-11-30 18:16:28
,wl-rdm,139,400295,0.0-8.22-0.22,1.0,140.0,,,,,,,[],,,,,,87.9,0.0,u,0.0,True,491.89999985694885,30.0,60.0,40.0,False,,264.1513355259914,[],"[683, 384]",ColorTask,71.0,23.0,,,HRV,HRV_0123,2022-11-30 18:16:28
,wl-rdm,140,402110,0.0-8.23-0.23,1.0,141.0,,,,,,,[],,,,,,87.9,1.0,i,1.0,True,520.6000001430511,32.0,60.0,40.0,False,,213.44944048881123,[],"[683, 384]",ColorTask,72.0,24.0,,,HRV,HRV_0123,2022-11-30 18:16:28
,wl-rdm,141,404775,0.0-8.24-0.24,1.0,142.0,,,,,,,[],,,,,,50.0,1.0,i,1.0,True,1341.7999999523163,81.0,60.0,40.0,False,,241.03804985785908,[],"[683, 384]",ColorTask,73.0,25.0,,,HRV,HRV_0123,2022-11-30 18:16:28
,wl-rdm,142,407390,0.0-8.25-0.25,1.0,143.0,,,,,,,[],,,,,,50.0,0.0,i,1.0,False,1220.1000001430511,74.0,60.0,40.0,False,,311.6044123993868,[],"[683, 384]",ColorTask,72.0,26.0,,,HRV,HRV_0123,2022-11-30 18:16:28
,wl-rdm,143,409638,0.0-8.26-0.26,1.0,144.0,,,,,,,[],,,,,,62.5,1.0,i,1.0,True,917.2000000476837,56.0,60.0,40.0,False,,238.1778320230957,[],"[683, 384]",ColorTask,73.0,27.0,,,HRV,HRV_0123,2022-11-30 18:16:28
,wl-rdm,144,411887,0.0-8.27-0.27,1.0,145.0,,,,,,,[],,,,,,50.0,0.0,i,1.0,False,814.1000001430511,49.0,60.0,40.0,False,,352.7047304929806,[],"[683, 384]",ColorTask,72.0,28.0,,,HRV,HRV_0123,2022-11-30 18:16:28
,wl-rdm,145,414118,0.0-8.28-0.28,1.0,146.0,,,,,,,[],,,,,,50.0,1.0,i,1.0,True,933.9000000953674,57.0,60.0,40.0,False,,203.0423997358609,[],"[683, 384]",ColorTask,73.0,29.0,,,HRV,HRV_0123,2022-11-30 18:16:28
,wl-rdm,146,415983,0.0-8.29-0.29,1.0,147.0,,,,,,,[],,,,,,87.9,1.0,i,1.0,True,572.0,35.0,60.0,40.0,False,,212.05183607645378,[],"[683, 384]",ColorTask,74.0,30.0,,,HRV,HRV_0123,2022-11-30 18:16:28
,wl-rdm,147,418815,0.0-8.30-0.30,1.0,148.0,,,,,,,[],,,,,,53.2,0.0,i,1.0,False,1410.2999999523163,85.0,60.0,40.0,False,,346.6416738321223,[],"[683, 384]",ColorTask,73.0,31.0,,,HRV,HRV_0123,2022-11-30 18:16:28
,wl-rdm,148,420963,0.0-8.31-0.31,1.0,149.0,,,,,,,[],,,,,,73.6,1.0,i,1.0,True,681.6000001430511,41.0,60.0,40.0,False,,389.6779327048446,[],"[683, 384]",ColorTask,74.0,32.0,,,HRV,HRV_0123,2022-11-30 18:16:28
,wl-rdm,149,423045,0.0-8.32-0.32,1.0,150.0,,,,,,,[],,,,,,62.5,0.0,u,0.0,True,786.8999998569489,48.0,60.0,40.0,False,,214.79625142202156,[],"[683, 384]",ColorTask,75.0,33.0,,,HRV,HRV_0123,2022-11-30 18:16:28
,wl-rdm,150,425610,0.0-8.33-0.33,1.0,151.0,,,,,,,[],,,,,,73.6,1.0,i,1.0,True,1205.5999999046326,73.0,60.0,40.0,False,,270.6785157093731,[],"[683, 384]",ColorTask,76.0,34.0,,,HRV,HRV_0123,2022-11-30 18:16:28
,wl-rdm,151,427609,0.0-8.34-0.34,1.0,152.0,,,,,,,[],,,,,,73.6,0.0,u,0.0,True,613.9000000953674,37.0,60.0,40.0,False,,308.91423952562957,[],"[683, 384]",ColorTask,77.0,35.0,,,HRV,HRV_0123,2022-11-30 18:16:28
,wl-rdm,152,429641,0.0-8.35-0.35,1.0,153.0,,,,,,,[],,,,,,62.5,1.0,i,1.0,True,563.6000001430511,34.0,60.0,40.0,False,,399.19686117321083,[],"[683, 384]",ColorTask,78.0,36.0,,,HRV,HRV_0123,2022-11-30 18:16:28
,wl-rdm,153,431606,0.0-8.36-0.36,1.0,154.0,,,,,,,[],,,,,,87.9,1.0,i,1.0,True,555.8000001907349,34.0,60.0,40.0,False,,320.61410087084954,[],"[683, 384]",ColorTask,79.0,37.0,,,HRV,HRV_0123,2022-11-30 18:16:28
,wl-rdm,154,433804,0.0-8.37-0.37,1.0,155.0,,,,,,,[],,,,,,50.0,0.0,u,0.0,True,747.0,45.0,60.0,40.0,False,,378.476911509498,[],"[683, 384]",ColorTask,80.0,38.0,,,HRV,HRV_0123,2022-11-30 18:16:28
,wl-rdm,155,436103,0.0-8.38-0.38,1.0,156.0,,,,,,,[],,,,,,62.5,1.0,i,1.0,True,864.1000001430511,52.0,60.0,40.0,False,,354.3038035492499,[],"[683, 384]",ColorTask,81.0,39.0,,,HRV,HRV_0123,2022-11-30 18:16:28
,wl-rdm,156,438551,0.0-8.39-0.39,1.0,157.0,,,,,,,[],,,,,,53.2,1.0,i,1.0,True,1106.0,67.0,60.0,40.0,False,,264.1382500253699,[],"[683, 384]",ColorTask,82.0,40.0,,,HRV,HRV_0123,2022-11-30 18:16:28
,wl-rdm,157,440966,0.0-8.40-0.40,1.0,158.0,,,,,,,[],,,,,,53.2,1.0,i,1.0,True,1076.2999999523163,65.0,60.0,40.0,False,,263.0592086099257,[],"[683, 384]",ColorTask,83.0,41.0,,,HRV,HRV_0123,2022-11-30 18:16:28
,wl-rdm,158,442899,0.0-8.41-0.41,1.0,159.0,,,,,,,[],,,,,,73.6,1.0,i,1.0,True,534.6999998092651,33.0,60.0,40.0,False,,314.2253253515497,[],"[683, 384]",ColorTask,84.0,42.0,,,HRV,HRV_0123,2022-11-30 18:16:28
,wl-rdm,159,444947,0.0-8.42-0.42,1.0,160.0,,,,,,,[],,,,,,73.6,0.0,u,0.0,True,663.2999999523163,40.0,60.0,40.0,False,,307.9330979929069,[],"[683, 384]",ColorTask,85.0,43.0,,,HRV,HRV_0123,2022-11-30 18:16:28
,wl-rdm,160,446996,0.0-8.43-0.43,1.0,161.0,,,,,,,[],,,,,,87.9,0.0,u,0.0,True,597.4000000953674,36.0,60.0,40.0,False,,381.21264528203795,[],"[683, 384]",ColorTask,86.0,44.0,,,HRV,HRV_0123,2022-11-30 18:16:28
,wl-rdm,161,449461,0.0-8.44-0.44,1.0,162.0,,,,,,,[],,,,,,56.4,1.0,i,1.0,True,1156.0000002384186,70.0,60.0,40.0,False,,219.76290306814536,[],"[683, 384]",ColorTask,87.0,45.0,,,HRV,HRV_0123,2022-11-30 18:16:28
,wl-rdm,162,452209,0.0-8.45-0.45,1.0,163.0,,,,,,,[],,,,,,53.2,0.0,u,0.0,True,1293.7999999523163,78.0,60.0,40.0,False,,378.8519004754545,[],"[683, 384]",ColorTask,88.0,46.0,,,HRV,HRV_0123,2022-11-30 18:16:28
,wl-rdm,163,454208,0.0-8.46-0.46,1.0,164.0,,,,,,,[],,,,,,62.5,1.0,i,1.0,True,596.2000000476837,36.0,60.0,40.0,False,,328.76340171990546,[],"[683, 384]",ColorTask,89.0,47.0,,,HRV,HRV_0123,2022-11-30 18:16:28
,wl-rdm,164,456206,0.0-8.47-0.47,1.0,165.0,,,,,,,[],,,,,,87.9,0.0,u,0.0,True,568.0999999046326,35.0,60.0,40.0,False,,333.73060761717744,[],"[683, 384]",ColorTask,90.0,48.0,,,HRV,HRV_0123,2022-11-30 18:16:28
,wl-rdm,165,459071,0.0-8.48-0.48,1.0,166.0,,,,,,,[],,,,,,50.0,1.0,u,0.0,False,1520.9000000953674,92.0,60.0,40.0,False,,253.9515841619786,[],"[683, 384]",ColorTask,89.0,49.0,,,HRV,HRV_0123,2022-11-30 18:16:28
,wl-rdm,166,461086,0.0-8.49-0.49,1.0,167.0,,,,,,,[],,,,,,87.9,0.0,u,0.0,True,557.6999998092651,34.0,60.0,40.0,False,,370.7257677065152,[],"[683, 384]",ColorTask,90.0,50.0,,,HRV,HRV_0123,2022-11-30 18:16:28
,wl-rdm,167,463551,0.0-8.50-0.50,1.0,168.0,,,,,,,[],,,,,,50.0,1.0,u,0.0,False,990.3999998569489,60.0,60.0,40.0,False,,392.04795276955906,[],"[683, 384]",ColorTask,89.0,51.0,,,HRV,HRV_0123,2022-11-30 18:16:28
,wl-rdm,168,466016,0.0-8.51-0.51,1.0,169.0,,,,,,,[],,,,,,53.2,0.0,i,1.0,False,1163.5,70.0,60.0,40.0,False,,247.72382338519816,[],"[683, 384]",ColorTask,88.0,52.0,,,HRV,HRV_0123,2022-11-30 18:16:28
,wl-rdm,169,468947,0.0-8.52-0.52,1.0,170.0,,,,,,,[],,,,,,53.2,0.0,u,0.0,True,1512.5999999046326,91.0,60.0,40.0,False,,349.1952904268363,[],"[683, 384]",ColorTask,89.0,53.0,,,HRV,HRV_0123,2022-11-30 18:16:28
,wl-rdm,170,471212,0.0-8.53-0.53,1.0,171.0,,,,,,,[],,,,,,50.0,0.0,u,0.0,True,884.9000000953674,54.0,60.0,40.0,False,,301.2770876058861,[],"[683, 384]",ColorTask,90.0,54.0,,,HRV,HRV_0123,2022-11-30 18:16:28
,wl-rdm,171,473528,0.0-8.54-0.54,1.0,172.0,,,,,,,[],,,,,,56.4,0.0,u,0.0,True,956.2999999523163,58.0,60.0,40.0,False,,283.08465155093813,[],"[683, 384]",ColorTask,91.0,55.0,,,HRV,HRV_0123,2022-11-30 18:16:28
,wl-rdm,172,476109,0.0-8.55-0.55,1.0,173.0,,,,,,,[],,,,,,50.0,1.0,u,0.0,False,1267.9000000953674,77.0,60.0,40.0,False,,218.70838114278092,[],"[683, 384]",ColorTask,90.0,56.0,,,HRV,HRV_0123,2022-11-30 18:16:28
,wl-rdm,173,478608,0.0-8.56-0.56,1.0,174.0,,,,,,,[],,,,,,62.5,1.0,i,1.0,True,1061.1000001430511,64.0,60.0,40.0,False,,352.14713046520353,[],"[683, 384]",ColorTask,91.0,57.0,,,HRV,HRV_0123,2022-11-30 18:16:28
,wl-rdm,174,481222,0.0-8.57-0.57,1.0,175.0,,,,,,,[],,,,,,50.0,1.0,u,0.0,False,1177.9000000953674,71.0,60.0,40.0,False,,366.2080848795619,[],"[683, 384]",ColorTask,90.0,58.0,,,HRV,HRV_0123,2022-11-30 18:16:28
,wl-rdm,175,483488,0.0-8.58-0.58,1.0,176.0,,,,,,,[],,,,,,50.0,0.0,u,0.0,True,934.7999999523163,57.0,60.0,40.0,False,,240.6726022368901,[],"[683, 384]",ColorTask,91.0,59.0,,,HRV,HRV_0123,2022-11-30 18:16:28
,wl-rdm,176,485903,0.0-8.59-0.59,1.0,177.0,,,,,,,[],,,,,,53.2,1.0,i,1.0,True,1094.0,66.0,60.0,40.0,False,,240.7057689259612,[],"[683, 384]",ColorTask,92.0,60.0,,,HRV,HRV_0123,2022-11-30 18:16:28
,wl-rdm,177,488134,0.0-8.60-0.60,1.0,178.0,,,,,,,[],,,,,,56.4,1.0,i,1.0,True,894.8000001907349,54.0,60.0,40.0,False,,260.39624188225775,[],"[683, 384]",ColorTask,93.0,61.0,,,HRV,HRV_0123,2022-11-30 18:16:28
,wl-rdm,178,490249,0.0-8.61-0.61,1.0,179.0,,,,,,,[],,,,,,87.9,0.0,u,0.0,True,672.0999999046326,41.0,60.0,40.0,False,,351.7591199569029,[],"[683, 384]",ColorTask,94.0,62.0,,,HRV,HRV_0123,2022-11-30 18:16:28
,wl-rdm,179,492364,0.0-8.62-0.62,1.0,180.0,,,,,,,[],,,,,,62.5,0.0,u,0.0,True,785.0999999046326,48.0,60.0,40.0,False,,234.97397596055276,[],"[683, 384]",ColorTask,95.0,63.0,,,HRV,HRV_0123,2022-11-30 18:16:28
,wl-rdm,180,494797,0.0-8.63-0.63,1.0,181.0,,,,,,,[],,,,,,56.4,0.0,u,0.0,True,1129.8000001907349,68.0,60.0,40.0,False,,222.60726846468987,[],"[683, 384]",ColorTask,96.0,64.0,,,HRV,HRV_0123,2022-11-30 18:16:28
,wl-rdm,181,496828,0.0-8.64-0.64,1.0,182.0,,,,,,,[],,,,,,87.9,1.0,i,1.0,True,701.3999998569489,43.0,60.0,40.0,False,,238.09478980467543,[],"[683, 384]",ColorTask,97.0,65.0,,,HRV,HRV_0123,2022-11-30 18:16:28
,wl-rdm,182,498943,0.0-8.65-0.65,1.0,183.0,,,,,,,[],,,,,,73.6,0.0,u,0.0,True,789.0,48.0,60.0,40.0,False,,243.18644907378075,[],"[683, 384]",ColorTask,98.0,66.0,,,HRV,HRV_0123,2022-11-30 18:16:28
,wl-rdm,183,501425,0.0-8.66-0.66,1.0,184.0,,,,,,,[],,,,,,53.2,1.0,u,0.0,False,1190.2000000476837,72.0,60.0,40.0,False,,202.15530010398516,[],"[683, 384]",ColorTask,97.0,67.0,,,HRV,HRV_0123,2022-11-30 18:16:28
,wl-rdm,184,503307,0.0-8.67-0.67,1.0,185.0,,,,,,,[],,,,,,87.9,1.0,i,1.0,True,513.0000002384186,31.0,60.0,40.0,False,,286.97690447847594,[],"[683, 384]",ColorTask,98.0,68.0,,,HRV,HRV_0123,2022-11-30 18:16:28
,wl-rdm,185,505538,0.0-8.68-0.68,1.0,186.0,,,,,,,[],,,,,,87.9,0.0,u,0.0,True,770.9000000953674,47.0,60.0,40.0,False,,372.98701452396574,[],"[683, 384]",ColorTask,99.0,69.0,,,HRV,HRV_0123,2022-11-30 18:16:28
,wl-rdm,186,507920,0.0-8.69-0.69,1.0,187.0,,,,,,,[],,,,,,50.0,0.0,i,1.0,False,1062.2000002861023,64.0,60.0,40.0,False,,241.68560769993488,[],"[683, 384]",ColorTask,98.0,70.0,,,HRV,HRV_0123,2022-11-30 18:16:28
,wl-rdm,187,510002,0.0-8.70-0.70,1.0,188.0,,,,,,,[],,,,,,87.9,0.0,u,0.0,True,718.0,44.0,60.0,40.0,False,,271.38688564510153,[],"[683, 384]",ColorTask,99.0,71.0,,,HRV,HRV_0123,2022-11-30 18:16:28
,wl-rdm,188,512567,0.0-8.71-0.71,1.0,189.0,,,,,,,[],,,,,,53.2,1.0,i,1.0,True,1212.7999999523163,73.0,60.0,40.0,False,,276.9359909754805,[],"[683, 384]",ColorTask,100.0,72.0,,,HRV,HRV_0123,2022-11-30 18:16:28
,wl-rdm,189,514948,0.0-8.72-0.72,1.0,190.0,,,,,,,[],,,,,,53.2,0.0,u,0.0,True,989.400000333786,60.0,60.0,40.0,False,,306.0965073285335,[],"[683, 384]",ColorTask,101.0,73.0,,,HRV,HRV_0123,2022-11-30 18:16:28
,wl-rdm,190,517963,0.0-8.73-0.73,1.0,191.0,,,,,,,[],,,,,,56.4,0.0,u,0.0,True,1584.1000001430511,96.0,60.0,40.0,False,,345.7573509373256,[],"[683, 384]",ColorTask,102.0,74.0,,,HRV,HRV_0123,2022-11-30 18:16:28
,wl-rdm,191,520295,0.0-8.74-0.74,1.0,192.0,,,,,,,[],,,,,,53.2,1.0,u,0.0,False,936.1999998092651,57.0,60.0,40.0,False,,300.901618409575,[],"[683, 384]",ColorTask,101.0,75.0,,,HRV,HRV_0123,2022-11-30 18:16:28
,wl-rdm,192,522560,0.0-8.75-0.75,1.0,193.0,,,,,,,[],,,,,,56.4,0.0,u,0.0,True,819.5,50.0,60.0,40.0,False,,359.7628279840436,[],"[683, 384]",ColorTask,102.0,76.0,,,HRV,HRV_0123,2022-11-30 18:16:28
,wl-rdm,193,524659,0.0-8.76-0.76,1.0,194.0,,,,,,,[],,,,,,73.6,0.0,u,0.0,True,688.8999998569489,42.0,60.0,40.0,False,,328.00509171663737,[],"[683, 384]",ColorTask,103.0,77.0,,,HRV,HRV_0123,2022-11-30 18:16:28
,wl-rdm,194,527223,0.0-8.77-0.77,1.0,195.0,,,,,,,[],,,,,,53.2,1.0,i,1.0,True,1279.9000000953674,77.0,60.0,40.0,False,,213.92012561660613,[],"[683, 384]",ColorTask,104.0,78.0,,,HRV,HRV_0123,2022-11-30 18:16:28
,wl-rdm,195,529155,0.0-8.78-0.78,1.0,196.0,,,,,,,[],,,,,,62.5,1.0,i,1.0,True,608.5999999046326,37.0,60.0,40.0,False,,249.0161152600981,[],"[683, 384]",ColorTask,105.0,79.0,,,HRV,HRV_0123,2022-11-30 18:16:28
,wl-rdm,196,531720,0.0-8.79-0.79,1.0,197.0,,,,,,,[],,,,,,62.5,1.0,i,1.0,True,1238.5,75.0,60.0,40.0,False,,242.63790182053953,[],"[683, 384]",ColorTask,106.0,80.0,,,HRV,HRV_0123,2022-11-30 18:16:28
,wl-rdm,197,533885,0.0-8.80-0.80,1.0,198.0,,,,,,,[],,,,,,53.2,1.0,i,1.0,True,817.7999999523163,50.0,60.0,40.0,False,,253.0672204503172,[],"[683, 384]",ColorTask,107.0,81.0,,,HRV,HRV_0123,2022-11-30 18:16:28
,wl-rdm,198,536050,0.0-8.81-0.81,1.0,199.0,,,,,,,[],,,,,,62.5,0.0,u,0.0,True,875.6000001430511,53.0,60.0,40.0,False,,210.34783865060905,[],"[683, 384]",ColorTask,108.0,82.0,,,HRV,HRV_0123,2022-11-30 18:16:28
,wl-rdm,199,538281,0.0-8.82-0.82,1.0,200.0,,,,,,,[],,,,,,50.0,1.0,u,0.0,False,841.5,51.0,60.0,40.0,False,,313.93724670997426,[],"[683, 384]",ColorTask,107.0,83.0,,,HRV,HRV_0123,2022-11-30 18:16:28
,wl-rdm,200,540547,0.0-8.83-0.83,1.0,201.0,,,,,,,[],,,,,,73.6,0.0,u,0.0,True,998.3999998569489,60.0,60.0,40.0,False,,201.2252245843143,[],"[683, 384]",ColorTask,108.0,84.0,,,HRV,HRV_0123,2022-11-30 18:16:28
,wl-rdm,201,543045,0.0-8.84-0.84,1.0,202.0,,,,,,,[],,,,,,50.0,0.0,i,1.0,False,1035.0,63.0,60.0,40.0,False,,381.0415933620957,[],"[683, 384]",ColorTask,107.0,85.0,,,HRV,HRV_0123,2022-11-30 18:16:28
,wl-rdm,202,545544,0.0-8.85-0.85,1.0,203.0,,,,,,,[],,,,,,50.0,0.0,i,1.0,False,1103.2000000476837,67.0,60.0,40.0,False,,300.9445582863491,[],"[683, 384]",ColorTask,106.0,86.0,,,HRV,HRV_0123,2022-11-30 18:16:28
,wl-rdm,203,547592,0.0-8.86-0.86,1.0,204.0,,,,,,,[],,,,,,73.6,1.0,i,1.0,True,622.7999999523163,38.0,60.0,40.0,False,,339.45060931717785,[],"[683, 384]",ColorTask,107.0,87.0,,,HRV,HRV_0123,2022-11-30 18:16:28
,wl-rdm,204,549807,0.0-8.87-0.87,1.0,205.0,,,,,,,[],,,,,,73.6,0.0,u,0.0,True,813.5,49.0,60.0,40.0,False,,323.5477757206752,[],"[683, 384]",ColorTask,108.0,88.0,,,HRV,HRV_0123,2022-11-30 18:16:28
,wl-rdm,205,552172,0.0-8.88-0.88,1.0,206.0,,,,,,,[],,,,,,56.4,0.0,u,0.0,True,1072.7999999523163,65.0,60.0,40.0,False,,215.2402380455432,[],"[683, 384]",ColorTask,109.0,89.0,,,HRV,HRV_0123,2022-11-30 18:16:28
,wl-rdm,206,554087,0.0-8.89-0.89,1.0,207.0,,,,,,,[],,,,,,87.9,0.0,u,0.0,True,505.89999985694885,31.0,60.0,40.0,False,,316.84137606272765,[],"[683, 384]",ColorTask,110.0,90.0,,,HRV,HRV_0123,2022-11-30 18:16:28
,wl-rdm,207,557052,0.0-8.90-0.90,1.0,208.0,,,,,,,[],,,,,,56.4,0.0,u,0.0,True,1628.3999998569489,98.0,60.0,40.0,False,,260.567467276692,[],"[683, 384]",ColorTask,111.0,91.0,,,HRV,HRV_0123,2022-11-30 18:16:28
,wl-rdm,208,559350,0.0-8.91-0.91,1.0,209.0,,,,,,,[],,,,,,50.0,1.0,u,0.0,False,913.6999998092651,55.0,60.0,40.0,False,,312.11743456174224,[],"[683, 384]",ColorTask,110.0,92.0,,,HRV,HRV_0123,2022-11-30 18:16:28
,wl-rdm,209,561715,0.0-8.92-0.92,1.0,210.0,,,,,,,[],,,,,,56.4,1.0,i,1.0,True,1052.7999999523163,64.0,60.0,40.0,False,,216.86614273537185,[],"[683, 384]",ColorTask,111.0,93.0,,,HRV,HRV_0123,2022-11-30 18:16:28
,wl-rdm,210,563680,0.0-8.93-0.93,1.0,211.0,,,,,,,[],,,,,,87.9,1.0,i,1.0,True,601.8999998569489,37.0,60.0,40.0,False,,287.5624168849238,[],"[683, 384]",ColorTask,112.0,94.0,,,HRV,HRV_0123,2022-11-30 18:16:28
,wl-rdm,211,565762,0.0-8.94-0.94,1.0,212.0,,,,,,,[],,,,,,53.2,0.0,u,0.0,True,729.5000002384186,44.0,60.0,40.0,False,,277.5194962914927,[],"[683, 384]",ColorTask,113.0,95.0,,,HRV,HRV_0123,2022-11-30 18:16:28
,wl-rdm,212,568094,0.0-8.95-0.95,1.0,213.0,,,,,,,[],,,,,,50.0,1.0,i,1.0,True,901.2999999523163,55.0,60.0,40.0,False,,349.5752361437041,[],"[683, 384]",ColorTask,114.0,96.0,,,HRV,HRV_0123,2022-11-30 18:16:28
,wl-rdm,213,570026,0.0-8.96-0.96,1.0,214.0,,,,,,,[],,,,,,73.6,1.0,i,1.0,True,558.0,34.0,60.0,40.0,False,,283.56596990171806,[],"[683, 384]",ColorTask,115.0,97.0,,,HRV,HRV_0123,2022-11-30 18:16:28
,wl-rdm,214,572541,0.0-8.97-0.97,1.0,215.0,,,,,,,[],,,,,,50.0,0.0,i,1.0,False,1162.5,70.0,60.0,40.0,False,,283.0570305833112,[],"[683, 384]",ColorTask,114.0,98.0,,,HRV,HRV_0123,2022-11-30 18:16:28
,wl-rdm,215,574556,0.0-8.98-0.98,1.0,216.0,,,,,,,[],,,,,,62.5,1.0,i,1.0,True,581.6999998092651,35.0,60.0,40.0,False,,362.4888657484514,[],"[683, 384]",ColorTask,115.0,99.0,,,HRV,HRV_0123,2022-11-30 18:16:28
,wl-rdm,216,576705,0.0-8.99-0.99,1.0,217.0,,,,,,,[],,,,,,56.4,1.0,i,1.0,True,768.6000001430511,47.0,60.0,40.0,False,,287.2926833583566,[],"[683, 384]",ColorTask,116.0,100.0,,,HRV,HRV_0123,2022-11-30 18:16:28
,wl-rdm,217,578870,0.0-8.100-0.100,1.0,218.0,,,,,,,[],,,,,,73.6,1.0,i,1.0,True,755.0,46.0,60.0,40.0,False,,321.45603847642457,[],"[683, 384]",ColorTask,117.0,101.0,,,HRV,HRV_0123,2022-11-30 18:16:28
,wl-rdm,218,580902,0.0-8.101-0.101,1.0,219.0,,,,,,,[],,,,,,62.5,0.0,i,1.0,False,694.2000000476837,42.0,60.0,40.0,False,,251.15263502923582,[],"[683, 384]",ColorTask,116.0,102.0,,,HRV,HRV_0123,2022-11-30 18:16:28
,wl-rdm,219,582867,0.0-8.102-0.102,1.0,220.0,,,,,,,[],,,,,,73.6,1.0,i,1.0,True,611.7999999523163,37.0,60.0,40.0,False,,271.094434906365,[],"[683, 384]",ColorTask,117.0,103.0,,,HRV,HRV_0123,2022-11-30 18:16:28
,wl-rdm,220,584799,0.0-8.103-0.103,1.0,221.0,,,,,,,[],,,,,,87.9,1.0,i,1.0,True,538.7000000476837,33.0,60.0,40.0,False,,301.2507118104509,[],"[683, 384]",ColorTask,118.0,104.0,,,HRV,HRV_0123,2022-11-30 18:16:28
,wl-rdm,221,587263,0.0-8.104-0.104,1.0,222.0,,,,,,,[],,,,,,53.2,0.0,i,1.0,False,1173.5999999046326,71.0,60.0,40.0,False,,201.37344790476007,[],"[683, 384]",ColorTask,117.0,105.0,,,HRV,HRV_0123,2022-11-30 18:16:28
,wl-rdm,222,589213,0.0-8.105-0.105,1.0,223.0,,,,,,,[],,,,,,73.6,1.0,i,1.0,True,526.7999999523163,32.0,60.0,40.0,False,,337.33672613385204,[],"[683, 384]",ColorTask,118.0,106.0,,,HRV,HRV_0123,2022-11-30 18:16:28
,wl-rdm,223,591111,0.0-8.106-0.106,1.0,224.0,,,,,,,[],,,,,,87.9,1.0,i,1.0,True,507.0,31.0,60.0,40.0,False,,309.40079569714544,[],"[683, 384]",ColorTask,119.0,107.0,,,HRV,HRV_0123,2022-11-30 18:16:28
,wl-rdm,224,593443,0.0-8.107-0.107,1.0,225.0,,,,,,,[],,,,,,56.4,1.0,i,1.0,True,887.1000001430511,54.0,60.0,40.0,False,,353.1079540282365,[],"[683, 384]",ColorTask,120.0,108.0,,,HRV,HRV_0123,2022-11-30 18:16:28
,wl-html-button-response,225,601347,0.0-9.0-0.0,,,,,,,,,,7901.0,,0,,,,,,,,,,,,,,,,,,,,<h3>End of this session. Thank you!</h3><br>,['Close window'],HRV,HRV_0123,2022-11-30 18:16:28
