trialN,stimuli,question,trialStartTime,trialStartTime_UNIX,stimulus1,rt,receivedResponse,rating,trialEndTime,trialDuration,stimulus1Loaded,exp,subjectId,date
0,"[{'imgObject': {}, 'id': 'veggieswithdip', 'src': '/static/foodstim60/veggieswithdip.jpg', 'key': 'NaN', 'origWidth': 409, 'origHeight': 409, 'width': 409, 'height': 409, 'widthPercent': 0.8, 'rescaleHeight': True, 'trialN': 0, 'loaded': True, 'loadedTime': 1861.1000000238419, 'positionName': 'CENTER', 'positionCoords': [736, 244.5]}]",Rate how much you want to eat this food from 0 (least) to 10 (most).,2008.2000000476837,1669842218584,veggieswithdip,2999.099999964237,True,4.9,5007.300000011921,2999.099999964237,True,HRV,HRV_0301,2022-11-30 21:05:09
1,"[{'imgObject': {}, 'id': 'rigatoni and sauce', 'src': '/static/foodstim60/rigatoni and sauce.jpg', 'key': 'NaN', 'origWidth': 410, 'origHeight': 411, 'width': 410, 'height': 411, 'widthPercent': 0.8, 'rescaleHeight': True, 'trialN': 1, 'loaded': True, 'loadedTime': 1866.800000011921, 'positionName': 'CENTER', 'positionCoords': [735.5, 243.5]}]",Rate how much you want to eat this food from 0 (least) to 10 (most).,5008.900000035763,1669842221585,rigatoni and sauce,1454.3999999761581,True,6.16,6463.300000011921,1454.3999999761581,True,HRV,HRV_0301,2022-11-30 21:05:09
2,"[{'imgObject': {}, 'id': 'cherries', 'src': '/static/foodstim60/cherries.jpg', 'key': 'NaN', 'origWidth': 410, 'origHeight': 411, 'width': 410, 'height': 411, 'widthPercent': 0.8, 'rescaleHeight': True, 'trialN': 2, 'loaded': True, 'loadedTime': 1871.6000000238419, 'positionName': 'CENTER', 'positionCoords': [735.5, 243.5]}]",Rate how much you want to eat this food from 0 (least) to 10 (most).,6464.300000011921,1669842223040,cherries,1355.5,True,1.47,7819.800000011921,1355.5,True,HRV,HRV_0301,2022-11-30 21:05:09
3,"[{'imgObject': {}, 'id': 'mac & cheese', 'src': '/static/foodstim60/mac & cheese.jpg', 'key': 'NaN', 'origWidth': 410, 'origHeight': 410, 'width': 410, 'height': 410, 'widthPercent': 0.8, 'rescaleHeight': True, 'trialN': 3, 'loaded': True, 'loadedTime': 1873.9000000357628, 'positionName': 'CENTER', 'positionCoords': [735.5, 244]}]",Rate how much you want to eat this food from 0 (least) to 10 (most).,7820.900000035763,1669842224397,mac & cheese,1291.199999988079,True,7.3500000000000005,9112.100000023842,1291.199999988079,True,HRV,HRV_0301,2022-11-30 21:05:09
4,"[{'imgObject': {}, 'id': 'cantaloupe', 'src': '/static/foodstim60/cantaloupe.jpg', 'key': 'NaN', 'origWidth': 409, 'origHeight': 409, 'width': 409, 'height': 409, 'widthPercent': 0.8, 'rescaleHeight': True, 'trialN': 4, 'loaded': True, 'loadedTime': 1875.4000000357628, 'positionName': 'CENTER', 'positionCoords': [736, 244.5]}]",Rate how much you want to eat this food from 0 (least) to 10 (most).,9113.400000035763,1669842225689,cantaloupe,1632.8999999761581,True,1.46,10746.300000011921,1632.8999999761581,True,HRV,HRV_0301,2022-11-30 21:05:09
5,"[{'imgObject': {}, 'id': 'shreddedwheatwithmilk', 'src': '/static/foodstim60/shreddedwheatwithmilk.jpg', 'key': 'NaN', 'origWidth': 410, 'origHeight': 410, 'width': 410, 'height': 410, 'widthPercent': 0.8, 'rescaleHeight': True, 'trialN': 5, 'loaded': True, 'loadedTime': 1876.6000000238419, 'positionName': 'CENTER', 'positionCoords': [735.5, 244]}]",Rate how much you want to eat this food from 0 (least) to 10 (most).,10747.5,1669842227323,shreddedwheatwithmilk,1095.0,True,1.09,11842.5,1095.0,True,HRV,HRV_0301,2022-11-30 21:05:09
6,"[{'imgObject': {}, 'id': 'Grapes', 'src': '/static/foodstim60/Grapes.jpg', 'key': 'NaN', 'origWidth': 411, 'origHeight': 411, 'width': 411, 'height': 411, 'widthPercent': 0.8, 'rescaleHeight': True, 'trialN': 6, 'loaded': True, 'loadedTime': 1870.1000000238419, 'positionName': 'CENTER', 'positionCoords': [735, 243.5]}]",Rate how much you want to eat this food from 0 (least) to 10 (most).,11843.5,1669842228419,Grapes,1912.5,True,4.86,13756.0,1912.5,True,HRV,HRV_0301,2022-11-30 21:05:09
7,"[{'imgObject': {}, 'id': 'lox', 'src': '/static/foodstim60/lox.jpg', 'key': 'NaN', 'origWidth': 410, 'origHeight': 411, 'width': 410, 'height': 411, 'widthPercent': 0.8, 'rescaleHeight': True, 'trialN': 7, 'loaded': True, 'loadedTime': 1888.1000000238419, 'positionName': 'CENTER', 'positionCoords': [735.5, 243.5]}]",Rate how much you want to eat this food from 0 (least) to 10 (most).,13757.100000023842,1669842230333,lox,1319.6000000238419,True,0.07,15076.700000047684,1319.6000000238419,True,HRV,HRV_0301,2022-11-30 21:05:09
8,"[{'imgObject': {}, 'id': 'chicken nuggets2', 'src': '/static/foodstim60/chicken nuggets2.jpg', 'key': 'NaN', 'origWidth': 410, 'origHeight': 409, 'width': 410, 'height': 409, 'widthPercent': 0.8, 'rescaleHeight': True, 'trialN': 8, 'loaded': True, 'loadedTime': 1889.6000000238419, 'positionName': 'CENTER', 'positionCoords': [735.5, 244.5]}]",Rate how much you want to eat this food from 0 (least) to 10 (most).,15077.900000035763,1669842231654,chicken nuggets2,1375.8999999761581,True,2.19,16453.80000001192,1375.8999999761581,True,HRV,HRV_0301,2022-11-30 21:05:09
9,"[{'imgObject': {}, 'id': 'cheerios', 'src': '/static/foodstim60/cheerios.jpg', 'key': 'NaN', 'origWidth': 409, 'origHeight': 410, 'width': 409, 'height': 410, 'widthPercent': 0.8, 'rescaleHeight': True, 'trialN': 9, 'loaded': True, 'loadedTime': 1878.7000000476837, 'positionName': 'CENTER', 'positionCoords': [736, 244]}]",Rate how much you want to eat this food from 0 (least) to 10 (most).,16454.80000001192,1669842233031,cheerios,1167.9000000357628,True,1.01,17622.700000047684,1167.9000000357628,True,HRV,HRV_0301,2022-11-30 21:05:09
10,"[{'imgObject': {}, 'id': 'granola w milk', 'src': '/static/foodstim60/granola w milk.jpg', 'key': 'NaN', 'origWidth': 410, 'origHeight': 410, 'width': 410, 'height': 410, 'widthPercent': 0.8, 'rescaleHeight': True, 'trialN': 10, 'loaded': True, 'loadedTime': 1891.7000000476837, 'positionName': 'CENTER', 'positionCoords': [735.5, 244]}]",Rate how much you want to eat this food from 0 (least) to 10 (most).,17623.700000047684,1669842234199,granola w milk,1294.8999999761581,True,0.99,18918.600000023842,1294.8999999761581,True,HRV,HRV_0301,2022-11-30 21:05:09
11,"[{'imgObject': {}, 'id': 'omelette', 'src': '/static/foodstim60/omelette.jpg', 'key': 'NaN', 'origWidth': 410, 'origHeight': 409, 'width': 410, 'height': 409, 'widthPercent': 0.8, 'rescaleHeight': True, 'trialN': 11, 'loaded': True, 'loadedTime': 1893.800000011921, 'positionName': 'CENTER', 'positionCoords': [735.5, 244.5]}]",Rate how much you want to eat this food from 0 (least) to 10 (most).,18919.900000035763,1669842235496,omelette,1817.199999988079,True,5.91,20737.100000023842,1817.199999988079,True,HRV,HRV_0301,2022-11-30 21:05:09
12,"[{'imgObject': {}, 'id': 'corn cob', 'src': '/static/foodstim60/corn cob.jpg', 'key': 'NaN', 'origWidth': 411, 'origHeight': 411, 'width': 411, 'height': 411, 'widthPercent': 0.8, 'rescaleHeight': True, 'trialN': 12, 'loaded': True, 'loadedTime': 1901.4000000357628, 'positionName': 'CENTER', 'positionCoords': [735, 243.5]}]",Rate how much you want to eat this food from 0 (least) to 10 (most).,20738.400000035763,1669842237314,corn cob,1262.8999999761581,True,7.84,22001.30000001192,1262.8999999761581,True,HRV,HRV_0301,2022-11-30 21:05:09
13,"[{'imgObject': {}, 'id': 'banana', 'src': '/static/foodstim60/banana.jpg', 'key': 'NaN', 'origWidth': 410, 'origHeight': 410, 'width': 410, 'height': 410, 'widthPercent': 0.8, 'rescaleHeight': True, 'trialN': 13, 'loaded': True, 'loadedTime': 1903.4000000357628, 'positionName': 'CENTER', 'positionCoords': [735.5, 244]}]",Rate how much you want to eat this food from 0 (least) to 10 (most).,22002.600000023842,1669842238578,banana,1584.0,True,5.0200000000000005,23586.600000023842,1584.0,True,HRV,HRV_0301,2022-11-30 21:05:09
14,"[{'imgObject': {}, 'id': 'salad w chicken', 'src': '/static/foodstim60/salad w chicken.jpg', 'key': 'NaN', 'origWidth': 411, 'origHeight': 411, 'width': 411, 'height': 411, 'widthPercent': 0.8, 'rescaleHeight': True, 'trialN': 14, 'loaded': True, 'loadedTime': 1904.5, 'positionName': 'CENTER', 'positionCoords': [735, 243.5]}]",Rate how much you want to eat this food from 0 (least) to 10 (most).,23587.80000001192,1669842240164,salad w chicken,1239.800000011921,True,8.72,24827.600000023842,1239.800000011921,True,HRV,HRV_0301,2022-11-30 21:05:09
15,"[{'imgObject': {}, 'id': 'turkeysandwich', 'src': '/static/foodstim60/turkeysandwich.jpg', 'key': 'NaN', 'origWidth': 409, 'origHeight': 409, 'width': 409, 'height': 409, 'widthPercent': 0.8, 'rescaleHeight': True, 'trialN': 15, 'loaded': True, 'loadedTime': 1906.5, 'positionName': 'CENTER', 'positionCoords': [736, 244.5]}]",Rate how much you want to eat this food from 0 (least) to 10 (most).,24828.900000035763,1669842241405,turkeysandwich,1528.300000011921,True,6.01,26357.200000047684,1528.300000011921,True,HRV,HRV_0301,2022-11-30 21:05:09
16,"[{'imgObject': {}, 'id': 'baked potato', 'src': '/static/foodstim60/baked potato.jpg', 'key': 'NaN', 'origWidth': 409, 'origHeight': 410, 'width': 409, 'height': 410, 'widthPercent': 0.8, 'rescaleHeight': True, 'trialN': 16, 'loaded': True, 'loadedTime': 1910.9000000357628, 'positionName': 'CENTER', 'positionCoords': [736, 244]}]",Rate how much you want to eat this food from 0 (least) to 10 (most).,26358.30000001192,1669842242934,baked potato,1800.199999988079,True,3.37,28158.5,1800.199999988079,True,HRV,HRV_0301,2022-11-30 21:05:09
17,"[{'imgObject': {}, 'id': 'chickenfingers', 'src': '/static/foodstim60/chickenfingers.jpg', 'key': 'NaN', 'origWidth': 410, 'origHeight': 410, 'width': 410, 'height': 410, 'widthPercent': 0.8, 'rescaleHeight': True, 'trialN': 17, 'loaded': True, 'loadedTime': 1912.1000000238419, 'positionName': 'CENTER', 'positionCoords': [735.5, 244]}]",Rate how much you want to eat this food from 0 (least) to 10 (most).,28159.700000047684,1669842244736,chickenfingers,1311.3999999761581,True,2.25,29471.100000023842,1311.3999999761581,True,HRV,HRV_0301,2022-11-30 21:05:09
18,"[{'imgObject': {}, 'id': 'raisin bran w milk', 'src': '/static/foodstim60/raisin bran w milk.jpg', 'key': 'NaN', 'origWidth': 411, 'origHeight': 411, 'width': 411, 'height': 411, 'widthPercent': 0.8, 'rescaleHeight': True, 'trialN': 18, 'loaded': True, 'loadedTime': 1913.1000000238419, 'positionName': 'CENTER', 'positionCoords': [735, 243.5]}]",Rate how much you want to eat this food from 0 (least) to 10 (most).,29472.5,1669842246048,raisin bran w milk,1385.9000000357628,True,1.23,30858.400000035763,1385.9000000357628,True,HRV,HRV_0301,2022-11-30 21:05:09
19,"[{'imgObject': {}, 'id': 'turkey sandwich', 'src': '/static/foodstim60/turkey sandwich.jpg', 'key': 'NaN', 'origWidth': 409, 'origHeight': 409, 'width': 409, 'height': 409, 'widthPercent': 0.8, 'rescaleHeight': True, 'trialN': 19, 'loaded': True, 'loadedTime': 1916.4000000357628, 'positionName': 'CENTER', 'positionCoords': [736, 244.5]}]",Rate how much you want to eat this food from 0 (least) to 10 (most).,30860.0,1669842247436,turkey sandwich,1677.2000000476837,True,5.5,32537.200000047684,1677.2000000476837,True,HRV,HRV_0301,2022-11-30 21:05:09
20,"[{'imgObject': {}, 'id': 'sushi w_condiments', 'src': '/static/foodstim60/sushi w_condiments.jpg', 'key': 'NaN', 'origWidth': 410, 'origHeight': 410, 'width': 410, 'height': 410, 'widthPercent': 0.8, 'rescaleHeight': True, 'trialN': 20, 'loaded': True, 'loadedTime': 1921.6000000238419, 'positionName': 'CENTER', 'positionCoords': [735.5, 244]}]",Rate how much you want to eat this food from 0 (least) to 10 (most).,32538.700000047684,1669842249115,sushi w_condiments,1489.3999999761581,True,0.48,34028.10000002384,1489.3999999761581,True,HRV,HRV_0301,2022-11-30 21:05:09
21,"[{'imgObject': {}, 'id': 'fried eggs', 'src': '/static/foodstim60/fried eggs.jpg', 'key': 'NaN', 'origWidth': 410, 'origHeight': 410, 'width': 410, 'height': 410, 'widthPercent': 0.8, 'rescaleHeight': True, 'trialN': 21, 'loaded': True, 'loadedTime': 1924.800000011921, 'positionName': 'CENTER', 'positionCoords': [735.5, 244]}]",Rate how much you want to eat this food from 0 (least) to 10 (most).,34029.90000003576,1669842250606,fried eggs,1508.199999988079,True,4.3100000000000005,35538.10000002384,1508.199999988079,True,HRV,HRV_0301,2022-11-30 21:05:09
22,"[{'imgObject': {}, 'id': 'edamame', 'src': '/static/foodstim60/edamame.jpg', 'key': 'NaN', 'origWidth': 409, 'origHeight': 410, 'width': 409, 'height': 410, 'widthPercent': 0.8, 'rescaleHeight': True, 'trialN': 22, 'loaded': True, 'loadedTime': 1925.800000011921, 'positionName': 'CENTER', 'positionCoords': [736, 244]}]",Rate how much you want to eat this food from 0 (least) to 10 (most).,35539.700000047684,1669842252116,edamame,1536.5,True,2.59,37076.200000047684,1536.5,True,HRV,HRV_0301,2022-11-30 21:05:09
23,"[{'imgObject': {}, 'id': 'grilled chicken strips', 'src': '/static/foodstim60/grilled chicken strips.jpg', 'key': 'NaN', 'origWidth': 410, 'origHeight': 411, 'width': 410, 'height': 411, 'widthPercent': 0.8, 'rescaleHeight': True, 'trialN': 23, 'loaded': True, 'loadedTime': 1927.1000000238419, 'positionName': 'CENTER', 'positionCoords': [735.5, 243.5]}]",Rate how much you want to eat this food from 0 (least) to 10 (most).,37077.30000001192,1669842253653,grilled chicken strips,1336.0,True,0.67,38413.30000001192,1336.0,True,HRV,HRV_0301,2022-11-30 21:05:09
24,"[{'imgObject': {}, 'id': 'ice cream sundae 002', 'src': '/static/foodstim60/ice cream sundae 002.jpg', 'key': 'NaN', 'origWidth': 409, 'origHeight': 409, 'width': 409, 'height': 409, 'widthPercent': 0.8, 'rescaleHeight': True, 'trialN': 24, 'loaded': True, 'loadedTime': 1930.300000011921, 'positionName': 'CENTER', 'positionCoords': [736, 244.5]}]",Rate how much you want to eat this food from 0 (least) to 10 (most).,38414.30000001192,1669842254990,ice cream sundae 002,1671.9000000357628,True,7.82,40086.200000047684,1671.9000000357628,True,HRV,HRV_0301,2022-11-30 21:05:09
25,"[{'imgObject': {}, 'id': 'apple slices', 'src': '/static/foodstim60/apple slices.jpg', 'key': 'NaN', 'origWidth': 409, 'origHeight': 410, 'width': 409, 'height': 410, 'widthPercent': 0.8, 'rescaleHeight': True, 'trialN': 25, 'loaded': True, 'loadedTime': 1931.800000011921, 'positionName': 'CENTER', 'positionCoords': [736, 244]}]",Rate how much you want to eat this food from 0 (least) to 10 (most).,40087.5,1669842256663,apple slices,1671.800000011921,True,1.08,41759.30000001192,1671.800000011921,True,HRV,HRV_0301,2022-11-30 21:05:09
26,"[{'imgObject': {}, 'id': 'strawberries', 'src': '/static/foodstim60/strawberries.jpg', 'key': 'NaN', 'origWidth': 410, 'origHeight': 410, 'width': 410, 'height': 410, 'widthPercent': 0.8, 'rescaleHeight': True, 'trialN': 26, 'loaded': True, 'loadedTime': 1932.6000000238419, 'positionName': 'CENTER', 'positionCoords': [735.5, 244]}]",Rate how much you want to eat this food from 0 (least) to 10 (most).,41760.40000003576,1669842258336,strawberries,1401.0,True,8.06,43161.40000003576,1401.0,True,HRV,HRV_0301,2022-11-30 21:05:09
27,"[{'imgObject': {}, 'id': 'avocado', 'src': '/static/foodstim60/avocado.jpg', 'key': 'NaN', 'origWidth': 409, 'origHeight': 409, 'width': 409, 'height': 409, 'widthPercent': 0.8, 'rescaleHeight': True, 'trialN': 27, 'loaded': True, 'loadedTime': 1935.300000011921, 'positionName': 'CENTER', 'positionCoords': [736, 244.5]}]",Rate how much you want to eat this food from 0 (least) to 10 (most).,43162.60000002384,1669842259738,avocado,1118.6000000238419,True,6.3100000000000005,44281.200000047684,1118.6000000238419,True,HRV,HRV_0301,2022-11-30 21:05:09
28,"[{'imgObject': {}, 'id': 'fruitsalad', 'src': '/static/foodstim60/fruitsalad.jpg', 'key': 'NaN', 'origWidth': 410, 'origHeight': 410, 'width': 410, 'height': 410, 'widthPercent': 0.8, 'rescaleHeight': True, 'trialN': 28, 'loaded': True, 'loadedTime': 1940.6000000238419, 'positionName': 'CENTER', 'positionCoords': [735.5, 244]}]",Rate how much you want to eat this food from 0 (least) to 10 (most).,44282.5,1669842260858,fruitsalad,1368.1000000238419,True,7.42,45650.60000002384,1368.1000000238419,True,HRV,HRV_0301,2022-11-30 21:05:09
29,"[{'imgObject': {}, 'id': 'orange slices', 'src': '/static/foodstim60/orange slices.jpg', 'key': 'NaN', 'origWidth': 409, 'origHeight': 410, 'width': 409, 'height': 410, 'widthPercent': 0.8, 'rescaleHeight': True, 'trialN': 29, 'loaded': True, 'loadedTime': 1944.1000000238419, 'positionName': 'CENTER', 'positionCoords': [736, 244]}]",Rate how much you want to eat this food from 0 (least) to 10 (most).,45652.0,1669842262228,orange slices,1855.6000000238419,True,6.0,47507.60000002384,1855.6000000238419,True,HRV,HRV_0301,2022-11-30 21:05:09
30,"[{'imgObject': {}, 'id': 'blueberries', 'src': '/static/foodstim60/blueberries.jpg', 'key': 'NaN', 'origWidth': 411, 'origHeight': 411, 'width': 411, 'height': 411, 'widthPercent': 0.8, 'rescaleHeight': True, 'trialN': 30, 'loaded': True, 'loadedTime': 1945, 'positionName': 'CENTER', 'positionCoords': [735, 243.5]}]",Rate how much you want to eat this food from 0 (least) to 10 (most).,47508.700000047684,1669842264085,blueberries,1872.699999988079,True,3.21,49381.40000003576,1872.699999988079,True,HRV,HRV_0301,2022-11-30 21:05:09
31,"[{'imgObject': {}, 'id': 'burger', 'src': '/static/foodstim60/burger.jpg', 'key': 'NaN', 'origWidth': 409, 'origHeight': 409, 'width': 409, 'height': 409, 'widthPercent': 0.8, 'rescaleHeight': True, 'trialN': 31, 'loaded': True, 'loadedTime': 1945.6000000238419, 'positionName': 'CENTER', 'positionCoords': [736, 244.5]}]",Rate how much you want to eat this food from 0 (least) to 10 (most).,49382.90000003576,1669842265959,burger,1254.5999999642372,True,7.28,50637.5,1254.5999999642372,True,HRV,HRV_0301,2022-11-30 21:05:09
32,"[{'imgObject': {}, 'id': 'pear', 'src': '/static/foodstim60/pear.jpg', 'key': 'NaN', 'origWidth': 411, 'origHeight': 410, 'width': 411, 'height': 410, 'widthPercent': 0.8, 'rescaleHeight': True, 'trialN': 32, 'loaded': True, 'loadedTime': 1949.5, 'positionName': 'CENTER', 'positionCoords': [735, 244]}]",Rate how much you want to eat this food from 0 (least) to 10 (most).,50639.0,1669842267215,pear,1527.800000011921,True,0.99,52166.80000001192,1527.800000011921,True,HRV,HRV_0301,2022-11-30 21:05:09
33,"[{'imgObject': {}, 'id': 'roastedpotatoes', 'src': '/static/foodstim60/roastedpotatoes.jpg', 'key': 'NaN', 'origWidth': 409, 'origHeight': 410, 'width': 409, 'height': 410, 'widthPercent': 0.8, 'rescaleHeight': True, 'trialN': 33, 'loaded': True, 'loadedTime': 1950.800000011921, 'positionName': 'CENTER', 'positionCoords': [736, 244]}]",Rate how much you want to eat this food from 0 (least) to 10 (most).,52168.200000047684,1669842268744,roastedpotatoes,1591.8999999761581,True,2.14,53760.10000002384,1591.8999999761581,True,HRV,HRV_0301,2022-11-30 21:05:09
34,"[{'imgObject': {}, 'id': 'froot loops w milk', 'src': '/static/foodstim60/froot loops w milk.jpg', 'key': 'NaN', 'origWidth': 410, 'origHeight': 410, 'width': 410, 'height': 410, 'widthPercent': 0.8, 'rescaleHeight': True, 'trialN': 34, 'loaded': True, 'loadedTime': 1952, 'positionName': 'CENTER', 'positionCoords': [735.5, 244]}]",Rate how much you want to eat this food from 0 (least) to 10 (most).,53761.40000003576,1669842270337,froot loops w milk,1119.199999988079,True,0.84,54880.60000002384,1119.199999988079,True,HRV,HRV_0301,2022-11-30 21:05:09
35,"[{'imgObject': {}, 'id': 'hotdog w must', 'src': '/static/foodstim60/hotdog w must.jpg', 'key': 'NaN', 'origWidth': 409, 'origHeight': 409, 'width': 409, 'height': 409, 'widthPercent': 0.8, 'rescaleHeight': True, 'trialN': 35, 'loaded': True, 'loadedTime': 1953.300000011921, 'positionName': 'CENTER', 'positionCoords': [736, 244.5]}]",Rate how much you want to eat this food from 0 (least) to 10 (most).,54881.90000003576,1669842271459,hotdog w must,1480.5999999642372,True,8.33,56362.5,1480.5999999642372,True,HRV,HRV_0301,2022-11-30 21:05:09
36,"[{'imgObject': {}, 'id': 'eggs', 'src': '/static/foodstim60/eggs.jpg', 'key': 'NaN', 'origWidth': 409, 'origHeight': 409, 'width': 409, 'height': 409, 'widthPercent': 0.8, 'rescaleHeight': True, 'trialN': 36, 'loaded': True, 'loadedTime': 1958.2000000476837, 'positionName': 'CENTER', 'positionCoords': [736, 244.5]}]",Rate how much you want to eat this food from 0 (least) to 10 (most).,56363.5,1669842272940,eggs,1086.2000000476837,True,8.69,57449.700000047684,1086.2000000476837,True,HRV,HRV_0301,2022-11-30 21:05:09
37,"[{'imgObject': {}, 'id': 'olives', 'src': '/static/foodstim60/olives.jpg', 'key': 'NaN', 'origWidth': 410, 'origHeight': 410, 'width': 410, 'height': 410, 'widthPercent': 0.8, 'rescaleHeight': True, 'trialN': 37, 'loaded': True, 'loadedTime': 1959.2000000476837, 'positionName': 'CENTER', 'positionCoords': [735.5, 244]}]",Rate how much you want to eat this food from 0 (least) to 10 (most).,57451.200000047684,1669842274028,olives,1642.0,True,1.48,59093.200000047684,1642.0,True,HRV,HRV_0301,2022-11-30 21:05:09
38,"[{'imgObject': {}, 'id': 'Tribe humus pita', 'src': '/static/foodstim60/Tribe humus pita.jpg', 'key': 'NaN', 'origWidth': 411, 'origHeight': 411, 'width': 411, 'height': 411, 'widthPercent': 0.8, 'rescaleHeight': True, 'trialN': 38, 'loaded': True, 'loadedTime': 1960.1000000238419, 'positionName': 'CENTER', 'positionCoords': [735, 243.5]}]",Rate how much you want to eat this food from 0 (least) to 10 (most).,59094.60000002384,1669842275671,Tribe humus pita,1646.800000011921,True,8.8,60741.40000003576,1646.800000011921,True,HRV,HRV_0301,2022-11-30 21:05:09
39,"[{'imgObject': {}, 'id': 'salmon', 'src': '/static/foodstim60/salmon.jpg', 'key': 'NaN', 'origWidth': 410, 'origHeight': 409, 'width': 410, 'height': 409, 'widthPercent': 0.8, 'rescaleHeight': True, 'trialN': 39, 'loaded': True, 'loadedTime': 1961.1000000238419, 'positionName': 'CENTER', 'positionCoords': [735.5, 244.5]}]",Rate how much you want to eat this food from 0 (least) to 10 (most).,60742.80000001192,1669842277320,salmon,1641.800000011921,True,0.51,62384.60000002384,1641.800000011921,True,HRV,HRV_0301,2022-11-30 21:05:09
40,"[{'imgObject': {}, 'id': 'hashbrowns', 'src': '/static/foodstim60/hashbrowns.jpg', 'key': 'NaN', 'origWidth': 411, 'origHeight': 410, 'width': 411, 'height': 410, 'widthPercent': 0.8, 'rescaleHeight': True, 'trialN': 40, 'loaded': True, 'loadedTime': 1965.2000000476837, 'positionName': 'CENTER', 'positionCoords': [735, 244]}]",Rate how much you want to eat this food from 0 (least) to 10 (most).,62385.5,1669842278962,hashbrowns,1519.6000000238419,True,0.76,63905.10000002384,1519.6000000238419,True,HRV,HRV_0301,2022-11-30 21:05:09
41,"[{'imgObject': {}, 'id': 'rigatoni', 'src': '/static/foodstim60/rigatoni.jpg', 'key': 'NaN', 'origWidth': 411, 'origHeight': 411, 'width': 411, 'height': 411, 'widthPercent': 0.8, 'rescaleHeight': True, 'trialN': 41, 'loaded': True, 'loadedTime': 1966.800000011921, 'positionName': 'CENTER', 'positionCoords': [735, 243.5]}]",Rate how much you want to eat this food from 0 (least) to 10 (most).,63906.200000047684,1669842280483,rigatoni,1503.7999999523163,True,1.82,65410.0,1503.7999999523163,True,HRV,HRV_0301,2022-11-30 21:05:09
42,"[{'imgObject': {}, 'id': 'mashed potato', 'src': '/static/foodstim60/mashed potato.jpg', 'key': 'NaN', 'origWidth': 409, 'origHeight': 409, 'width': 409, 'height': 409, 'widthPercent': 0.8, 'rescaleHeight': True, 'trialN': 42, 'loaded': True, 'loadedTime': 1968.4000000357628, 'positionName': 'CENTER', 'positionCoords': [736, 244.5]}]",Rate how much you want to eat this food from 0 (least) to 10 (most).,65411.0,1669842281988,mashed potato,1321.2000000476837,True,1.09,66732.20000004768,1321.2000000476837,True,HRV,HRV_0301,2022-11-30 21:05:09
43,"[{'imgObject': {}, 'id': 'popsicles', 'src': '/static/foodstim60/popsicles.jpg', 'key': 'NaN', 'origWidth': 410, 'origHeight': 410, 'width': 410, 'height': 410, 'widthPercent': 0.8, 'rescaleHeight': True, 'trialN': 43, 'loaded': True, 'loadedTime': 1969.5, 'positionName': 'CENTER', 'positionCoords': [735.5, 244]}]",Rate how much you want to eat this food from 0 (least) to 10 (most).,66733.70000004768,1669842283311,popsicles,1286.0999999642372,True,1.16,68019.80000001192,1286.0999999642372,True,HRV,HRV_0301,2022-11-30 21:05:09
44,"[{'imgObject': {}, 'id': 'yogurt no spoon', 'src': '/static/foodstim60/yogurt no spoon.jpg', 'key': 'NaN', 'origWidth': 411, 'origHeight': 410, 'width': 411, 'height': 410, 'widthPercent': 0.8, 'rescaleHeight': True, 'trialN': 44, 'loaded': True, 'loadedTime': 1973.800000011921, 'positionName': 'CENTER', 'positionCoords': [735, 244]}]",Rate how much you want to eat this food from 0 (least) to 10 (most).,68021.10000002384,1669842284598,yogurt no spoon,1225.0,True,2.74,69246.10000002384,1225.0,True,HRV,HRV_0301,2022-11-30 21:05:09
45,"[{'imgObject': {}, 'id': 'blackbeanswithrice', 'src': '/static/foodstim60/blackbeanswithrice.jpg', 'key': 'NaN', 'origWidth': 410, 'origHeight': 410, 'width': 410, 'height': 410, 'widthPercent': 0.8, 'rescaleHeight': True, 'trialN': 45, 'loaded': True, 'loadedTime': 1974.9000000357628, 'positionName': 'CENTER', 'positionCoords': [735.5, 244]}]",Rate how much you want to eat this food from 0 (least) to 10 (most).,69247.40000003576,1669842285824,blackbeanswithrice,1687.5999999642372,True,0.8300000000000001,70935.0,1687.5999999642372,True,HRV,HRV_0301,2022-11-30 21:05:09
46,"[{'imgObject': {}, 'id': 'tacos', 'src': '/static/foodstim60/tacos.jpg', 'key': 'NaN', 'origWidth': 411, 'origHeight': 411, 'width': 411, 'height': 411, 'widthPercent': 0.8, 'rescaleHeight': True, 'trialN': 46, 'loaded': True, 'loadedTime': 1975.9000000357628, 'positionName': 'CENTER', 'positionCoords': [735, 243.5]}]",Rate how much you want to eat this food from 0 (least) to 10 (most).,70936.10000002384,1669842287513,tacos,1584.1000000238419,True,5.97,72520.20000004768,1584.1000000238419,True,HRV,HRV_0301,2022-11-30 21:05:09
47,"[{'imgObject': {}, 'id': 'eggsalad', 'src': '/static/foodstim60/eggsalad.jpg', 'key': 'NaN', 'origWidth': 410, 'origHeight': 409, 'width': 410, 'height': 409, 'widthPercent': 0.8, 'rescaleHeight': True, 'trialN': 47, 'loaded': True, 'loadedTime': 1976.9000000357628, 'positionName': 'CENTER', 'positionCoords': [735.5, 244.5]}]",Rate how much you want to eat this food from 0 (least) to 10 (most).,72521.60000002384,1669842289098,eggsalad,2104.100000023842,True,0.8300000000000001,74625.70000004768,2104.100000023842,True,HRV,HRV_0301,2022-11-30 21:05:09
48,"[{'imgObject': {}, 'id': 'kiwi', 'src': '/static/foodstim60/kiwi.jpg', 'key': 'NaN', 'origWidth': 410, 'origHeight': 410, 'width': 410, 'height': 410, 'widthPercent': 0.8, 'rescaleHeight': True, 'trialN': 48, 'loaded': True, 'loadedTime': 1981.5, 'positionName': 'CENTER', 'positionCoords': [735.5, 244]}]",Rate how much you want to eat this food from 0 (least) to 10 (most).,74626.90000003576,1669842291204,kiwi,1371.0,True,6.75,75997.90000003576,1371.0,True,HRV,HRV_0301,2022-11-30 21:05:09
49,"[{'imgObject': {}, 'id': 'luckycharms', 'src': '/static/foodstim60/luckycharms.jpg', 'key': 'NaN', 'origWidth': 410, 'origHeight': 409, 'width': 410, 'height': 409, 'widthPercent': 0.8, 'rescaleHeight': True, 'trialN': 49, 'loaded': True, 'loadedTime': 1983, 'positionName': 'CENTER', 'positionCoords': [735.5, 244.5]}]",Rate how much you want to eat this food from 0 (least) to 10 (most).,75999.20000004768,1669842292576,luckycharms,1805.3999999761581,True,0.5,77804.60000002384,1805.3999999761581,True,HRV,HRV_0301,2022-11-30 21:05:09
50,"[{'imgObject': {}, 'id': 'cocktailshrimp', 'src': '/static/foodstim60/cocktailshrimp.jpg', 'key': 'NaN', 'origWidth': 410, 'origHeight': 410, 'width': 410, 'height': 410, 'widthPercent': 0.8, 'rescaleHeight': True, 'trialN': 50, 'loaded': True, 'loadedTime': 1984.300000011921, 'positionName': 'CENTER', 'positionCoords': [735.5, 244]}]",Rate how much you want to eat this food from 0 (least) to 10 (most).,77806.20000004768,1669842294383,cocktailshrimp,1151.699999988079,True,0.18,78957.90000003576,1151.699999988079,True,HRV,HRV_0301,2022-11-30 21:05:09
51,"[{'imgObject': {}, 'id': 'burrito', 'src': '/static/foodstim60/burrito.jpg', 'key': 'NaN', 'origWidth': 410, 'origHeight': 410, 'width': 410, 'height': 410, 'widthPercent': 0.8, 'rescaleHeight': True, 'trialN': 51, 'loaded': True, 'loadedTime': 1985.7000000476837, 'positionName': 'CENTER', 'positionCoords': [735.5, 244]}]",Rate how much you want to eat this food from 0 (least) to 10 (most).,78959.70000004768,1669842295537,burrito,1359.2999999523163,True,0.76,80319.0,1359.2999999523163,True,HRV,HRV_0301,2022-11-30 21:05:09
52,"[{'imgObject': {}, 'id': 'raspberries', 'src': '/static/foodstim60/raspberries.jpg', 'key': 'NaN', 'origWidth': 411, 'origHeight': 411, 'width': 411, 'height': 411, 'widthPercent': 0.8, 'rescaleHeight': True, 'trialN': 52, 'loaded': True, 'loadedTime': 1991.300000011921, 'positionName': 'CENTER', 'positionCoords': [735, 243.5]}]",Rate how much you want to eat this food from 0 (least) to 10 (most).,80320.5,1669842296897,raspberries,1464.7000000476837,True,2.25,81785.20000004768,1464.7000000476837,True,HRV,HRV_0301,2022-11-30 21:05:09
53,"[{'imgObject': {}, 'id': 'sweetpotato', 'src': '/static/foodstim60/sweetpotato.jpg', 'key': 'NaN', 'origWidth': 410, 'origHeight': 410, 'width': 410, 'height': 410, 'widthPercent': 0.8, 'rescaleHeight': True, 'trialN': 53, 'loaded': True, 'loadedTime': 1992.4000000357628, 'positionName': 'CENTER', 'positionCoords': [735.5, 244]}]",Rate how much you want to eat this food from 0 (least) to 10 (most).,81786.80000001192,1669842298364,sweetpotato,1502.199999988079,True,3.87,83289.0,1502.199999988079,True,HRV,HRV_0301,2022-11-30 21:05:09
54,"[{'imgObject': {}, 'id': 'cherry tomato', 'src': '/static/foodstim60/cherry tomato.jpg', 'key': 'NaN', 'origWidth': 410, 'origHeight': 410, 'width': 410, 'height': 410, 'widthPercent': 0.8, 'rescaleHeight': True, 'trialN': 54, 'loaded': True, 'loadedTime': 1993.9000000357628, 'positionName': 'CENTER', 'positionCoords': [735.5, 244]}]",Rate how much you want to eat this food from 0 (least) to 10 (most).,83290.5,1669842299867,cherry tomato,1248.1000000238419,True,9.01,84538.60000002384,1248.1000000238419,True,HRV,HRV_0301,2022-11-30 21:05:09
55,"[{'imgObject': {}, 'id': 'steak', 'src': '/static/foodstim60/steak.jpg', 'key': 'NaN', 'origWidth': 410, 'origHeight': 410, 'width': 410, 'height': 410, 'widthPercent': 0.8, 'rescaleHeight': True, 'trialN': 55, 'loaded': True, 'loadedTime': 1995.300000011921, 'positionName': 'CENTER', 'positionCoords': [735.5, 244]}]",Rate how much you want to eat this food from 0 (least) to 10 (most).,84539.80000001192,1669842301117,steak,1527.199999988079,True,9.77,86067.0,1527.199999988079,True,HRV,HRV_0301,2022-11-30 21:05:09
56,"[{'imgObject': {}, 'id': 'mango', 'src': '/static/foodstim60/mango.jpg', 'key': 'NaN', 'origWidth': 411, 'origHeight': 411, 'width': 411, 'height': 411, 'widthPercent': 0.8, 'rescaleHeight': True, 'trialN': 56, 'loaded': True, 'loadedTime': 2000.4000000357628, 'positionName': 'CENTER', 'positionCoords': [735, 243.5]}]",Rate how much you want to eat this food from 0 (least) to 10 (most).,86068.20000004768,1669842302645,mango,2016.7999999523163,True,1.47,88085.0,2016.7999999523163,True,HRV,HRV_0301,2022-11-30 21:05:09
57,"[{'imgObject': {}, 'id': 'bagel plain', 'src': '/static/foodstim60/bagel plain.jpg', 'key': 'NaN', 'origWidth': 410, 'origHeight': 410, 'width': 410, 'height': 410, 'widthPercent': 0.8, 'rescaleHeight': True, 'trialN': 57, 'loaded': True, 'loadedTime': 2001.4000000357628, 'positionName': 'CENTER', 'positionCoords': [735.5, 244]}]",Rate how much you want to eat this food from 0 (least) to 10 (most).,88086.20000004768,1669842304663,bagel plain,1368.2999999523163,True,5.05,89454.5,1368.2999999523163,True,HRV,HRV_0301,2022-11-30 21:05:09
58,"[{'imgObject': {}, 'id': 'seaweed', 'src': '/static/foodstim60/seaweed.jpg', 'key': 'NaN', 'origWidth': 410, 'origHeight': 410, 'width': 410, 'height': 410, 'widthPercent': 0.8, 'rescaleHeight': True, 'trialN': 58, 'loaded': True, 'loadedTime': 2002.2000000476837, 'positionName': 'CENTER', 'positionCoords': [735.5, 244]}]",Rate how much you want to eat this food from 0 (least) to 10 (most).,89456.10000002384,1669842306033,seaweed,1631.1000000238419,True,0.27,91087.20000004768,1631.1000000238419,True,HRV,HRV_0301,2022-11-30 21:05:09
59,"[{'imgObject': {}, 'id': 'bagel and cc', 'src': '/static/foodstim60/bagel and cc.jpg', 'key': 'NaN', 'origWidth': 410, 'origHeight': 410, 'width': 410, 'height': 410, 'widthPercent': 0.8, 'rescaleHeight': True, 'trialN': 59, 'loaded': True, 'loadedTime': 2003.800000011921, 'positionName': 'CENTER', 'positionCoords': [735.5, 244]}]",Rate how much you want to eat this food from 0 (least) to 10 (most).,91088.40000003576,1669842307665,bagel and cc,1359.3999999761581,True,5.04,92447.80000001192,1359.3999999761581,True,HRV,HRV_0301,2022-11-30 21:05:09
