trialN,stimuli,trialStartTime,trialStartTime_UNIX,stimulus1,stimulus2,stimulus1Bid,stimulus2Bid,delta,selected,rt,rt_UNIX,rt_perfnow,receivedResponse,rsp,trialEndTime,trialDuration,trialEndTime_UNIX,trialDuration_UNIX,exp,subjectId,date
0,"[{'imgObject': {}, 'id': 'hotdog w must', 'src': '/static/foodstim60/hotdog w must.jpg', 'key': 'u', 'origWidth': 409, 'origHeight': 409, 'width': 409, 'height': 409, 'widthPercent': 0.45, 'rescaleHeight': False, 'trialN': 0, 'loaded': True, 'loadedTime': 2151.5, 'positionName': 'LEFT', 'positionCoords': [493.88, 244.5], 'bid': 8.33}, {'imgObject': {}, 'id': 'rigatoni', 'src': '/static/foodstim60/rigatoni.jpg', 'key': 'i', 'origWidth': 411, 'origHeight': 411, 'width': 411, 'height': 411, 'widthPercent': 0.45, 'rescaleHeight': False, 'trialN': 0, 'loaded': True, 'loadedTime': 2155.600000023842, 'positionName': 'RIGHT', 'positionCoords': [978.12, 243.5], 'bid': 1.82}]",2401.100000023842,1669842376002,hotdog w must,rigatoni,8.33,1.82,-6.51,hotdog w must,1581.5999999642372,1582,1582.5,True,u,4484.5,2083.399999976158,1669842378085,2083,HRV,HRV_0301,2022-11-30 21:11:50
1,"[{'imgObject': {}, 'id': 'sushi w_condiments', 'src': '/static/foodstim60/sushi w_condiments.jpg', 'key': 'u', 'origWidth': 410, 'origHeight': 410, 'width': 410, 'height': 410, 'widthPercent': 0.45, 'rescaleHeight': False, 'trialN': 1, 'loaded': True, 'loadedTime': 2159.100000023842, 'positionName': 'LEFT', 'positionCoords': [492.88, 244], 'bid': 0.48}, {'imgObject': {}, 'id': 'seaweed', 'src': '/static/foodstim60/seaweed.jpg', 'key': 'i', 'origWidth': 410, 'origHeight': 410, 'width': 410, 'height': 410, 'widthPercent': 0.45, 'rescaleHeight': False, 'trialN': 1, 'loaded': True, 'loadedTime': 2164, 'positionName': 'RIGHT', 'positionCoords': [978.12, 244], 'bid': 0.27}]",4484.699999988079,1669842378085,sushi w_condiments,seaweed,0.48,0.27,-0.20999999999999996,sushi w_condiments,1003.4000000357628,1004,1004.1000000238419,True,u,5990.100000023842,1505.4000000357628,1669842379591,1506,HRV,HRV_0301,2022-11-30 21:11:50
2,"[{'imgObject': {}, 'id': 'omelette', 'src': '/static/foodstim60/omelette.jpg', 'key': 'u', 'origWidth': 410, 'origHeight': 409, 'width': 410, 'height': 409, 'widthPercent': 0.45, 'rescaleHeight': False, 'trialN': 2, 'loaded': True, 'loadedTime': 2166, 'positionName': 'LEFT', 'positionCoords': [492.88, 244.5], 'bid': 5.91}, {'imgObject': {}, 'id': 'froot loops w milk', 'src': '/static/foodstim60/froot loops w milk.jpg', 'key': 'i', 'origWidth': 410, 'origHeight': 410, 'width': 410, 'height': 410, 'widthPercent': 0.45, 'rescaleHeight': False, 'trialN': 2, 'loaded': True, 'loadedTime': 2169.5, 'positionName': 'RIGHT', 'positionCoords': [978.12, 244], 'bid': 0.84}]",5990.400000035763,1669842379591,omelette,froot loops w milk,5.91,0.84,-5.07,omelette,897.7999999523163,898,898.3999999761581,True,u,7389.800000011921,1399.3999999761581,1669842380990,1399,HRV,HRV_0301,2022-11-30 21:11:50
3,"[{'imgObject': {}, 'id': 'pear', 'src': '/static/foodstim60/pear.jpg', 'key': 'u', 'origWidth': 411, 'origHeight': 410, 'width': 411, 'height': 410, 'widthPercent': 0.45, 'rescaleHeight': False, 'trialN': 3, 'loaded': True, 'loadedTime': 2170.199999988079, 'positionName': 'LEFT', 'positionCoords': [491.88, 244], 'bid': 0.99}, {'imgObject': {}, 'id': 'cheerios', 'src': '/static/foodstim60/cheerios.jpg', 'key': 'i', 'origWidth': 409, 'origHeight': 410, 'width': 409, 'height': 410, 'widthPercent': 0.45, 'rescaleHeight': False, 'trialN': 3, 'loaded': True, 'loadedTime': 2173.300000011921, 'positionName': 'RIGHT', 'positionCoords': [978.12, 244], 'bid': 1.01}]",7389.900000035763,1669842380990,pear,cheerios,0.99,1.01,0.020000000000000018,cheerios,1468.7999999523163,1489,1488.8999999761581,True,i,9386.900000035763,1997.0,1669842382987,1997,HRV,HRV_0301,2022-11-30 21:11:50
4,"[{'imgObject': {}, 'id': 'edamame', 'src': '/static/foodstim60/edamame.jpg', 'key': 'u', 'origWidth': 409, 'origHeight': 410, 'width': 409, 'height': 410, 'widthPercent': 0.45, 'rescaleHeight': False, 'trialN': 4, 'loaded': True, 'loadedTime': 2175.199999988079, 'positionName': 'LEFT', 'positionCoords': [493.88, 244], 'bid': 2.59}, {'imgObject': {}, 'id': 'steak', 'src': '/static/foodstim60/steak.jpg', 'key': 'i', 'origWidth': 410, 'origHeight': 410, 'width': 410, 'height': 410, 'widthPercent': 0.45, 'rescaleHeight': False, 'trialN': 4, 'loaded': True, 'loadedTime': 2176.100000023842, 'positionName': 'RIGHT', 'positionCoords': [978.12, 244], 'bid': 9.77}]",9387.300000011921,1669842382988,edamame,steak,2.59,9.77,7.18,steak,969.1999999880791,970,969.8999999761581,True,i,10866.400000035763,1479.1000000238419,1669842384467,1479,HRV,HRV_0301,2022-11-30 21:11:50
5,"[{'imgObject': {}, 'id': 'bagel and cc', 'src': '/static/foodstim60/bagel and cc.jpg', 'key': 'u', 'origWidth': 410, 'origHeight': 410, 'width': 410, 'height': 410, 'widthPercent': 0.45, 'rescaleHeight': False, 'trialN': 5, 'loaded': True, 'loadedTime': 2180.199999988079, 'positionName': 'LEFT', 'positionCoords': [492.88, 244], 'bid': 5.04}, {'imgObject': {}, 'id': 'bagel plain', 'src': '/static/foodstim60/bagel plain.jpg', 'key': 'i', 'origWidth': 410, 'origHeight': 410, 'width': 410, 'height': 410, 'widthPercent': 0.45, 'rescaleHeight': False, 'trialN': 5, 'loaded': True, 'loadedTime': 2182.5, 'positionName': 'RIGHT', 'positionCoords': [978.12, 244], 'bid': 5.05}]",10866.600000023842,1669842384467,bagel and cc,bagel plain,5.04,5.05,0.009999999999999787,bagel and cc,1404.800000011921,1406,1405.8999999761581,True,u,12787.199999988079,1920.5999999642372,1669842386388,1921,HRV,HRV_0301,2022-11-30 21:11:50
6,"[{'imgObject': {}, 'id': 'rigatoni and sauce', 'src': '/static/foodstim60/rigatoni and sauce.jpg', 'key': 'u', 'origWidth': 410, 'origHeight': 411, 'width': 410, 'height': 411, 'widthPercent': 0.45, 'rescaleHeight': False, 'trialN': 6, 'loaded': True, 'loadedTime': 2184.300000011921, 'positionName': 'LEFT', 'positionCoords': [492.88, 243.5], 'bid': 6.16}, {'imgObject': {}, 'id': 'kiwi', 'src': '/static/foodstim60/kiwi.jpg', 'key': 'i', 'origWidth': 410, 'origHeight': 410, 'width': 410, 'height': 410, 'widthPercent': 0.45, 'rescaleHeight': False, 'trialN': 6, 'loaded': True, 'loadedTime': 2186.800000011921, 'positionName': 'RIGHT', 'positionCoords': [978.12, 244], 'bid': 6.75}]",12787.5,1669842386388,rigatoni and sauce,kiwi,6.16,6.75,0.5899999999999999,rigatoni and sauce,1131.0,1132,1131.699999988079,True,u,14432.600000023842,1645.1000000238419,1669842388033,1645,HRV,HRV_0301,2022-11-30 21:11:50
7,"[{'imgObject': {}, 'id': 'bagel and cc', 'src': '/static/foodstim60/bagel and cc.jpg', 'key': 'u', 'origWidth': 410, 'origHeight': 410, 'width': 410, 'height': 410, 'widthPercent': 0.45, 'rescaleHeight': False, 'trialN': 7, 'loaded': True, 'loadedTime': 2180.600000023842, 'positionName': 'LEFT', 'positionCoords': [492.88, 244], 'bid': 5.04}, {'imgObject': {}, 'id': 'raspberries', 'src': '/static/foodstim60/raspberries.jpg', 'key': 'i', 'origWidth': 411, 'origHeight': 411, 'width': 411, 'height': 411, 'widthPercent': 0.45, 'rescaleHeight': False, 'trialN': 7, 'loaded': True, 'loadedTime': 2188.300000011921, 'positionName': 'RIGHT', 'positionCoords': [978.12, 243.5], 'bid': 2.25}]",14432.900000035763,1669842388033,bagel and cc,raspberries,5.04,2.25,-2.79,bagel and cc,1076.5,1078,1077.199999988079,True,u,16020.100000023842,1587.199999988079,1669842389621,1588,HRV,HRV_0301,2022-11-30 21:11:50
8,"[{'imgObject': {}, 'id': 'rigatoni', 'src': '/static/foodstim60/rigatoni.jpg', 'key': 'u', 'origWidth': 411, 'origHeight': 411, 'width': 411, 'height': 411, 'widthPercent': 0.45, 'rescaleHeight': False, 'trialN': 8, 'loaded': True, 'loadedTime': 2156.900000035763, 'positionName': 'LEFT', 'positionCoords': [491.88, 243.5], 'bid': 1.82}, {'imgObject': {}, 'id': 'blackbeanswithrice', 'src': '/static/foodstim60/blackbeanswithrice.jpg', 'key': 'i', 'origWidth': 410, 'origHeight': 410, 'width': 410, 'height': 410, 'widthPercent': 0.45, 'rescaleHeight': False, 'trialN': 8, 'loaded': True, 'loadedTime': 2191.100000023842, 'positionName': 'RIGHT', 'positionCoords': [978.12, 244], 'bid': 0.8300000000000001}]",16020.300000011921,1669842389621,rigatoni,blackbeanswithrice,1.82,0.8300000000000001,-0.99,rigatoni,1336.1000000238419,1336,1336.6000000238419,True,u,17872.30000001192,1852.0,1669842391474,1853,HRV,HRV_0301,2022-11-30 21:11:50
9,"[{'imgObject': {}, 'id': 'kiwi', 'src': '/static/foodstim60/kiwi.jpg', 'key': 'u', 'origWidth': 410, 'origHeight': 410, 'width': 410, 'height': 410, 'widthPercent': 0.45, 'rescaleHeight': False, 'trialN': 9, 'loaded': True, 'loadedTime': 2185.100000023842, 'positionName': 'LEFT', 'positionCoords': [492.88, 244], 'bid': 6.75}, {'imgObject': {}, 'id': 'omelette', 'src': '/static/foodstim60/omelette.jpg', 'key': 'i', 'origWidth': 410, 'origHeight': 409, 'width': 410, 'height': 409, 'widthPercent': 0.45, 'rescaleHeight': False, 'trialN': 9, 'loaded': True, 'loadedTime': 2166.900000035763, 'positionName': 'RIGHT', 'positionCoords': [978.12, 244.5], 'bid': 5.91}]",17872.600000023842,1669842391474,kiwi,omelette,6.75,5.91,-0.8399999999999999,omelette,1317.5,1318,1318.199999988079,True,i,19704.19999998808,1831.5999999642372,1669842393306,1832,HRV,HRV_0301,2022-11-30 21:11:50
10,"[{'imgObject': {}, 'id': 'mango', 'src': '/static/foodstim60/mango.jpg', 'key': 'u', 'origWidth': 411, 'origHeight': 411, 'width': 411, 'height': 411, 'widthPercent': 0.45, 'rescaleHeight': False, 'trialN': 10, 'loaded': True, 'loadedTime': 2192.699999988079, 'positionName': 'LEFT', 'positionCoords': [491.88, 243.5], 'bid': 1.47}, {'imgObject': {}, 'id': 'cantaloupe', 'src': '/static/foodstim60/cantaloupe.jpg', 'key': 'i', 'origWidth': 409, 'origHeight': 409, 'width': 409, 'height': 409, 'widthPercent': 0.45, 'rescaleHeight': False, 'trialN': 10, 'loaded': True, 'loadedTime': 2198.600000023842, 'positionName': 'RIGHT', 'positionCoords': [978.12, 244.5], 'bid': 1.46}]",19704.5,1669842393306,mango,cantaloupe,1.47,1.46,-0.010000000000000009,cantaloupe,1483.199999988079,1484,1483.699999988079,True,i,21696.600000023842,1992.1000000238419,1669842395298,1992,HRV,HRV_0301,2022-11-30 21:11:50
11,"[{'imgObject': {}, 'id': 'fruitsalad', 'src': '/static/foodstim60/fruitsalad.jpg', 'key': 'u', 'origWidth': 410, 'origHeight': 410, 'width': 410, 'height': 410, 'widthPercent': 0.45, 'rescaleHeight': False, 'trialN': 11, 'loaded': True, 'loadedTime': 2200.5, 'positionName': 'LEFT', 'positionCoords': [492.88, 244], 'bid': 7.42}, {'imgObject': {}, 'id': 'turkey sandwich', 'src': '/static/foodstim60/turkey sandwich.jpg', 'key': 'i', 'origWidth': 409, 'origHeight': 409, 'width': 409, 'height': 409, 'widthPercent': 0.45, 'rescaleHeight': False, 'trialN': 11, 'loaded': True, 'loadedTime': 2203.900000035763, 'positionName': 'RIGHT', 'positionCoords': [978.12, 244.5], 'bid': 5.5}]",21696.80000001192,1669842395298,fruitsalad,turkey sandwich,7.42,5.5,-1.92,fruitsalad,1319.699999988079,1321,1320.300000011921,True,u,23529.30000001192,1832.5,1669842397131,1833,HRV,HRV_0301,2022-11-30 21:11:50
12,"[{'imgObject': {}, 'id': 'cherries', 'src': '/static/foodstim60/cherries.jpg', 'key': 'u', 'origWidth': 410, 'origHeight': 411, 'width': 410, 'height': 411, 'widthPercent': 0.45, 'rescaleHeight': False, 'trialN': 12, 'loaded': True, 'loadedTime': 2204.300000011921, 'positionName': 'LEFT', 'positionCoords': [492.88, 243.5], 'bid': 1.47}, {'imgObject': {}, 'id': 'apple slices', 'src': '/static/foodstim60/apple slices.jpg', 'key': 'i', 'origWidth': 409, 'origHeight': 410, 'width': 409, 'height': 410, 'widthPercent': 0.45, 'rescaleHeight': False, 'trialN': 12, 'loaded': True, 'loadedTime': 2214.400000035763, 'positionName': 'RIGHT', 'positionCoords': [978.12, 244], 'bid': 1.08}]",23529.600000023842,1669842397131,cherries,apple slices,1.47,1.08,-0.3899999999999999,cherries,1310.5999999642372,1311,1311.3999999761581,True,u,25347.400000035763,1817.800000011921,1669842398949,1818,HRV,HRV_0301,2022-11-30 21:11:50
13,"[{'imgObject': {}, 'id': 'strawberries', 'src': '/static/foodstim60/strawberries.jpg', 'key': 'u', 'origWidth': 410, 'origHeight': 410, 'width': 410, 'height': 410, 'widthPercent': 0.45, 'rescaleHeight': False, 'trialN': 13, 'loaded': True, 'loadedTime': 2232.699999988079, 'positionName': 'LEFT', 'positionCoords': [492.88, 244], 'bid': 8.06}, {'imgObject': {}, 'id': 'bagel and cc', 'src': '/static/foodstim60/bagel and cc.jpg', 'key': 'i', 'origWidth': 410, 'origHeight': 410, 'width': 410, 'height': 410, 'widthPercent': 0.45, 'rescaleHeight': False, 'trialN': 13, 'loaded': True, 'loadedTime': 2180, 'positionName': 'RIGHT', 'positionCoords': [978.12, 244], 'bid': 5.04}]",25347.600000023842,1669842398949,strawberries,bagel and cc,8.06,5.04,-3.0200000000000005,bagel and cc,1127.699999988079,1129,1128.3999999761581,True,i,26983.5,1635.8999999761581,1669842400585,1636,HRV,HRV_0301,2022-11-30 21:11:50
14,"[{'imgObject': {}, 'id': 'banana', 'src': '/static/foodstim60/banana.jpg', 'key': 'u', 'origWidth': 410, 'origHeight': 410, 'width': 410, 'height': 410, 'widthPercent': 0.45, 'rescaleHeight': False, 'trialN': 14, 'loaded': True, 'loadedTime': 2236.300000011921, 'positionName': 'LEFT', 'positionCoords': [492.88, 244], 'bid': 5.0200000000000005}, {'imgObject': {}, 'id': 'corn cob', 'src': '/static/foodstim60/corn cob.jpg', 'key': 'i', 'origWidth': 411, 'origHeight': 411, 'width': 411, 'height': 411, 'widthPercent': 0.45, 'rescaleHeight': False, 'trialN': 14, 'loaded': True, 'loadedTime': 2257.699999988079, 'positionName': 'RIGHT', 'positionCoords': [978.12, 243.5], 'bid': 7.84}]",26983.600000023842,1669842400585,banana,corn cob,5.0200000000000005,7.84,2.8199999999999994,corn cob,1077.0999999642372,1079,1078.3999999761581,True,i,28567.69999998808,1584.0999999642372,1669842402169,1584,HRV,HRV_0301,2022-11-30 21:11:50
15,"[{'imgObject': {}, 'id': 'burrito', 'src': '/static/foodstim60/burrito.jpg', 'key': 'u', 'origWidth': 410, 'origHeight': 410, 'width': 410, 'height': 410, 'widthPercent': 0.45, 'rescaleHeight': False, 'trialN': 15, 'loaded': True, 'loadedTime': 2264.800000011921, 'positionName': 'LEFT', 'positionCoords': [492.88, 244], 'bid': 0.76}, {'imgObject': {}, 'id': 'mashed potato', 'src': '/static/foodstim60/mashed potato.jpg', 'key': 'i', 'origWidth': 409, 'origHeight': 409, 'width': 409, 'height': 409, 'widthPercent': 0.45, 'rescaleHeight': False, 'trialN': 15, 'loaded': True, 'loadedTime': 2265.900000035763, 'positionName': 'RIGHT', 'positionCoords': [978.12, 244.5], 'bid': 1.09}]",28567.900000035763,1669842402169,burrito,mashed potato,0.76,1.09,0.33000000000000007,burrito,1220.7999999523163,1222,1221.5,True,u,30297.19999998808,1729.2999999523163,1669842403899,1730,HRV,HRV_0301,2022-11-30 21:11:50
16,"[{'imgObject': {}, 'id': 'mac & cheese', 'src': '/static/foodstim60/mac & cheese.jpg', 'key': 'u', 'origWidth': 410, 'origHeight': 410, 'width': 410, 'height': 410, 'widthPercent': 0.45, 'rescaleHeight': False, 'trialN': 16, 'loaded': True, 'loadedTime': 2273.100000023842, 'positionName': 'LEFT', 'positionCoords': [492.88, 244], 'bid': 7.35}, {'imgObject': {}, 'id': 'ice cream sundae 002', 'src': '/static/foodstim60/ice cream sundae 002.jpg', 'key': 'i', 'origWidth': 409, 'origHeight': 409, 'width': 409, 'height': 409, 'widthPercent': 0.45, 'rescaleHeight': False, 'trialN': 16, 'loaded': True, 'loadedTime': 2279.699999988079, 'positionName': 'RIGHT', 'positionCoords': [978.12, 244.5], 'bid': 7.82}]",30297.600000023842,1669842403899,mac & cheese,ice cream sundae 002,7.35,7.82,0.47000000000000064,mac & cheese,971.8000000119209,973,972.5,True,u,31781.100000023842,1483.5,1669842405383,1484,HRV,HRV_0301,2022-11-30 21:11:50
17,"[{'imgObject': {}, 'id': 'tacos', 'src': '/static/foodstim60/tacos.jpg', 'key': 'u', 'origWidth': 411, 'origHeight': 411, 'width': 411, 'height': 411, 'widthPercent': 0.45, 'rescaleHeight': False, 'trialN': 17, 'loaded': True, 'loadedTime': 2288.199999988079, 'positionName': 'LEFT', 'positionCoords': [491.88, 243.5], 'bid': 5.97}, {'imgObject': {}, 'id': 'turkey sandwich', 'src': '/static/foodstim60/turkey sandwich.jpg', 'key': 'i', 'origWidth': 409, 'origHeight': 409, 'width': 409, 'height': 409, 'widthPercent': 0.45, 'rescaleHeight': False, 'trialN': 17, 'loaded': True, 'loadedTime': 2203.600000023842, 'positionName': 'RIGHT', 'positionCoords': [978.12, 244.5], 'bid': 5.5}]",31781.5,1669842405383,tacos,turkey sandwich,5.97,5.5,-0.46999999999999975,tacos,1229.699999988079,1230,1230.4000000357628,True,u,33525.40000003576,1743.9000000357628,1669842407127,1744,HRV,HRV_0301,2022-11-30 21:11:50
18,"[{'imgObject': {}, 'id': 'Tribe humus pita', 'src': '/static/foodstim60/Tribe humus pita.jpg', 'key': 'u', 'origWidth': 411, 'origHeight': 411, 'width': 411, 'height': 411, 'widthPercent': 0.45, 'rescaleHeight': False, 'trialN': 18, 'loaded': True, 'loadedTime': 2294.300000011921, 'positionName': 'LEFT', 'positionCoords': [491.88, 243.5], 'bid': 8.8}, {'imgObject': {}, 'id': 'salad w chicken', 'src': '/static/foodstim60/salad w chicken.jpg', 'key': 'i', 'origWidth': 411, 'origHeight': 411, 'width': 411, 'height': 411, 'widthPercent': 0.45, 'rescaleHeight': False, 'trialN': 18, 'loaded': True, 'loadedTime': 2295.699999988079, 'positionName': 'RIGHT', 'positionCoords': [978.12, 243.5], 'bid': 8.72}]",33525.60000002384,1669842407127,Tribe humus pita,salad w chicken,8.8,8.72,-0.08000000000000007,salad w chicken,1500.5999999642372,1501,1501.3999999761581,True,i,35538.40000003576,2012.800000011921,1669842409140,2013,HRV,HRV_0301,2022-11-30 21:11:50
19,"[{'imgObject': {}, 'id': 'rigatoni', 'src': '/static/foodstim60/rigatoni.jpg', 'key': 'u', 'origWidth': 411, 'origHeight': 411, 'width': 411, 'height': 411, 'widthPercent': 0.45, 'rescaleHeight': False, 'trialN': 19, 'loaded': True, 'loadedTime': 2156.699999988079, 'positionName': 'LEFT', 'positionCoords': [491.88, 243.5], 'bid': 1.82}, {'imgObject': {}, 'id': 'roastedpotatoes', 'src': '/static/foodstim60/roastedpotatoes.jpg', 'key': 'i', 'origWidth': 409, 'origHeight': 410, 'width': 409, 'height': 410, 'widthPercent': 0.45, 'rescaleHeight': False, 'trialN': 19, 'loaded': True, 'loadedTime': 2301.400000035763, 'positionName': 'RIGHT', 'positionCoords': [978.12, 244], 'bid': 2.14}]",35538.5,1669842409140,rigatoni,roastedpotatoes,1.82,2.14,0.32000000000000006,rigatoni,1282.5,1283,1283.199999988079,True,u,37329.0,1790.5,1669842410930,1790,HRV,HRV_0301,2022-11-30 21:11:50
20,"[{'imgObject': {}, 'id': 'cocktailshrimp', 'src': '/static/foodstim60/cocktailshrimp.jpg', 'key': 'u', 'origWidth': 410, 'origHeight': 410, 'width': 410, 'height': 410, 'widthPercent': 0.45, 'rescaleHeight': False, 'trialN': 20, 'loaded': True, 'loadedTime': 2309.199999988079, 'positionName': 'LEFT', 'positionCoords': [492.88, 244], 'bid': 0.18}, {'imgObject': {}, 'id': 'sushi w_condiments', 'src': '/static/foodstim60/sushi w_condiments.jpg', 'key': 'i', 'origWidth': 410, 'origHeight': 410, 'width': 410, 'height': 410, 'widthPercent': 0.45, 'rescaleHeight': False, 'trialN': 20, 'loaded': True, 'loadedTime': 2159.900000035763, 'positionName': 'RIGHT', 'positionCoords': [978.12, 244], 'bid': 0.48}]",37329.10000002384,1669842410931,cocktailshrimp,sushi w_condiments,0.18,0.48,0.3,sushi w_condiments,1691.199999988079,1691,1691.800000011921,True,i,39533.60000002384,2204.5,1669842413135,2204,HRV,HRV_0301,2022-11-30 21:11:50
21,"[{'imgObject': {}, 'id': 'chickenfingers', 'src': '/static/foodstim60/chickenfingers.jpg', 'key': 'u', 'origWidth': 410, 'origHeight': 410, 'width': 410, 'height': 410, 'widthPercent': 0.45, 'rescaleHeight': False, 'trialN': 21, 'loaded': True, 'loadedTime': 2316.600000023842, 'positionName': 'LEFT', 'positionCoords': [492.88, 244], 'bid': 2.25}, {'imgObject': {}, 'id': 'chicken nuggets2', 'src': '/static/foodstim60/chicken nuggets2.jpg', 'key': 'i', 'origWidth': 410, 'origHeight': 409, 'width': 410, 'height': 409, 'widthPercent': 0.45, 'rescaleHeight': False, 'trialN': 21, 'loaded': True, 'loadedTime': 2318.300000011921, 'positionName': 'RIGHT', 'positionCoords': [978.12, 244.5], 'bid': 2.19}]",39533.69999998808,1669842413135,chickenfingers,chicken nuggets2,2.25,2.19,-0.06000000000000005,chickenfingers,1535.0,1536,1535.7000000476837,True,u,41570.0,2036.300000011921,1669842415172,2037,HRV,HRV_0301,2022-11-30 21:11:50
22,"[{'imgObject': {}, 'id': 'burrito', 'src': '/static/foodstim60/burrito.jpg', 'key': 'u', 'origWidth': 410, 'origHeight': 410, 'width': 410, 'height': 410, 'widthPercent': 0.45, 'rescaleHeight': False, 'trialN': 22, 'loaded': True, 'loadedTime': 2258.300000011921, 'positionName': 'LEFT', 'positionCoords': [492.88, 244], 'bid': 0.76}, {'imgObject': {}, 'id': 'mango', 'src': '/static/foodstim60/mango.jpg', 'key': 'i', 'origWidth': 411, 'origHeight': 411, 'width': 411, 'height': 411, 'widthPercent': 0.45, 'rescaleHeight': False, 'trialN': 22, 'loaded': True, 'loadedTime': 2194.699999988079, 'positionName': 'RIGHT', 'positionCoords': [978.12, 243.5], 'bid': 1.47}]",41570.10000002384,1669842415172,burrito,mango,0.76,1.47,0.71,burrito,1245.699999988079,1246,1246.3999999761581,True,u,43325.40000003576,1755.300000011921,1669842416927,1755,HRV,HRV_0301,2022-11-30 21:11:50
23,"[{'imgObject': {}, 'id': 'strawberries', 'src': '/static/foodstim60/strawberries.jpg', 'key': 'u', 'origWidth': 410, 'origHeight': 410, 'width': 410, 'height': 410, 'widthPercent': 0.45, 'rescaleHeight': False, 'trialN': 23, 'loaded': True, 'loadedTime': 2232, 'positionName': 'LEFT', 'positionCoords': [492.88, 244], 'bid': 8.06}, {'imgObject': {}, 'id': 'steak', 'src': '/static/foodstim60/steak.jpg', 'key': 'i', 'origWidth': 410, 'origHeight': 410, 'width': 410, 'height': 410, 'widthPercent': 0.45, 'rescaleHeight': False, 'trialN': 23, 'loaded': True, 'loadedTime': 2177.600000023842, 'positionName': 'RIGHT', 'positionCoords': [978.12, 244], 'bid': 9.77}]",43325.5,1669842416927,strawberries,steak,8.06,9.77,1.709999999999999,steak,1052.9000000357628,1054,1053.699999988079,True,i,44891.40000003576,1565.9000000357628,1669842418493,1566,HRV,HRV_0301,2022-11-30 21:11:50
24,"[{'imgObject': {}, 'id': 'blackbeanswithrice', 'src': '/static/foodstim60/blackbeanswithrice.jpg', 'key': 'u', 'origWidth': 410, 'origHeight': 410, 'width': 410, 'height': 410, 'widthPercent': 0.45, 'rescaleHeight': False, 'trialN': 24, 'loaded': True, 'loadedTime': 2189.100000023842, 'positionName': 'LEFT', 'positionCoords': [492.88, 244], 'bid': 0.8300000000000001}, {'imgObject': {}, 'id': 'raisin bran w milk', 'src': '/static/foodstim60/raisin bran w milk.jpg', 'key': 'i', 'origWidth': 411, 'origHeight': 411, 'width': 411, 'height': 411, 'widthPercent': 0.45, 'rescaleHeight': False, 'trialN': 24, 'loaded': True, 'loadedTime': 2325, 'positionName': 'RIGHT', 'positionCoords': [978.12, 243.5], 'bid': 1.23}]",44891.5,1669842418493,blackbeanswithrice,raisin bran w milk,0.8300000000000001,1.23,0.3999999999999999,raisin bran w milk,1631.9000000357628,1632,1632.5,True,i,47031.90000003576,2140.400000035763,1669842420633,2140,HRV,HRV_0301,2022-11-30 21:11:50
25,"[{'imgObject': {}, 'id': 'apple slices', 'src': '/static/foodstim60/apple slices.jpg', 'key': 'u', 'origWidth': 409, 'origHeight': 410, 'width': 409, 'height': 410, 'widthPercent': 0.45, 'rescaleHeight': False, 'trialN': 25, 'loaded': True, 'loadedTime': 2224.600000023842, 'positionName': 'LEFT', 'positionCoords': [493.88, 244], 'bid': 1.08}, {'imgObject': {}, 'id': 'rigatoni and sauce', 'src': '/static/foodstim60/rigatoni and sauce.jpg', 'key': 'i', 'origWidth': 410, 'origHeight': 411, 'width': 410, 'height': 411, 'widthPercent': 0.45, 'rescaleHeight': False, 'trialN': 25, 'loaded': True, 'loadedTime': 2184.100000023842, 'positionName': 'RIGHT', 'positionCoords': [978.12, 243.5], 'bid': 6.16}]",47032.10000002384,1669842420634,apple slices,rigatoni and sauce,1.08,6.16,5.08,rigatoni and sauce,1444.199999988079,1445,1444.8999999761581,True,i,48992.10000002384,1960.0,1669842422594,1960,HRV,HRV_0301,2022-11-30 21:11:50
26,"[{'imgObject': {}, 'id': 'bagel and cc', 'src': '/static/foodstim60/bagel and cc.jpg', 'key': 'u', 'origWidth': 410, 'origHeight': 410, 'width': 410, 'height': 410, 'widthPercent': 0.45, 'rescaleHeight': False, 'trialN': 26, 'loaded': True, 'loadedTime': 2180.5, 'positionName': 'LEFT', 'positionCoords': [492.88, 244], 'bid': 5.04}, {'imgObject': {}, 'id': 'turkeysandwich', 'src': '/static/foodstim60/turkeysandwich.jpg', 'key': 'i', 'origWidth': 409, 'origHeight': 409, 'width': 409, 'height': 409, 'widthPercent': 0.45, 'rescaleHeight': False, 'trialN': 26, 'loaded': True, 'loadedTime': 2330.600000023842, 'positionName': 'RIGHT', 'positionCoords': [978.12, 244.5], 'bid': 6.01}]",48992.19999998808,1669842422594,bagel and cc,turkeysandwich,5.04,6.01,0.9699999999999998,bagel and cc,1289.2000000476837,1290,1289.9000000357628,True,u,50787.0,1794.800000011921,1669842424388,1794,HRV,HRV_0301,2022-11-30 21:11:50
27,"[{'imgObject': {}, 'id': 'kiwi', 'src': '/static/foodstim60/kiwi.jpg', 'key': 'u', 'origWidth': 410, 'origHeight': 410, 'width': 410, 'height': 410, 'widthPercent': 0.45, 'rescaleHeight': False, 'trialN': 27, 'loaded': True, 'loadedTime': 2186.5, 'positionName': 'LEFT', 'positionCoords': [492.88, 244], 'bid': 6.75}, {'imgObject': {}, 'id': 'Tribe humus pita', 'src': '/static/foodstim60/Tribe humus pita.jpg', 'key': 'i', 'origWidth': 411, 'origHeight': 411, 'width': 411, 'height': 411, 'widthPercent': 0.45, 'rescaleHeight': False, 'trialN': 27, 'loaded': True, 'loadedTime': 2293.699999988079, 'positionName': 'RIGHT', 'positionCoords': [978.12, 243.5], 'bid': 8.8}]",50787.19999998808,1669842424389,kiwi,Tribe humus pita,6.75,8.8,2.0500000000000007,Tribe humus pita,1209.9000000357628,1210,1210.4000000357628,True,i,52499.5,1712.300000011921,1669842426101,1712,HRV,HRV_0301,2022-11-30 21:11:50
28,"[{'imgObject': {}, 'id': 'cantaloupe', 'src': '/static/foodstim60/cantaloupe.jpg', 'key': 'u', 'origWidth': 409, 'origHeight': 409, 'width': 409, 'height': 409, 'widthPercent': 0.45, 'rescaleHeight': False, 'trialN': 28, 'loaded': True, 'loadedTime': 2198.800000011921, 'positionName': 'LEFT', 'positionCoords': [493.88, 244.5], 'bid': 1.46}, {'imgObject': {}, 'id': 'cheerios', 'src': '/static/foodstim60/cheerios.jpg', 'key': 'i', 'origWidth': 409, 'origHeight': 410, 'width': 409, 'height': 410, 'widthPercent': 0.45, 'rescaleHeight': False, 'trialN': 28, 'loaded': True, 'loadedTime': 2173.199999988079, 'positionName': 'RIGHT', 'positionCoords': [978.12, 244], 'bid': 1.01}]",52499.5,1669842426101,cantaloupe,cheerios,1.46,1.01,-0.44999999999999996,cheerios,1373.6000000238419,1395,1395.0,True,i,54412.19999998808,1912.699999988079,1669842428014,1913,HRV,HRV_0301,2022-11-30 21:11:50
29,"[{'imgObject': {}, 'id': 'cherry tomato', 'src': '/static/foodstim60/cherry tomato.jpg', 'key': 'u', 'origWidth': 410, 'origHeight': 410, 'width': 410, 'height': 410, 'widthPercent': 0.45, 'rescaleHeight': False, 'trialN': 29, 'loaded': True, 'loadedTime': 2331.800000011921, 'positionName': 'LEFT', 'positionCoords': [492.88, 244], 'bid': 9.01}, {'imgObject': {}, 'id': 'raspberries', 'src': '/static/foodstim60/raspberries.jpg', 'key': 'i', 'origWidth': 411, 'origHeight': 411, 'width': 411, 'height': 411, 'widthPercent': 0.45, 'rescaleHeight': False, 'trialN': 29, 'loaded': True, 'loadedTime': 2186.900000035763, 'positionName': 'RIGHT', 'positionCoords': [978.12, 243.5], 'bid': 2.25}]",54412.30000001192,1669842428014,cherry tomato,raspberries,9.01,2.25,-6.76,cherry tomato,1157.3999999761581,1158,1158.1000000238419,True,u,56072.5,1660.199999988079,1669842429674,1660,HRV,HRV_0301,2022-11-30 21:11:50
30,"[{'imgObject': {}, 'id': 'burger', 'src': '/static/foodstim60/burger.jpg', 'key': 'u', 'origWidth': 409, 'origHeight': 409, 'width': 409, 'height': 409, 'widthPercent': 0.45, 'rescaleHeight': False, 'trialN': 30, 'loaded': True, 'loadedTime': 2337.199999988079, 'positionName': 'LEFT', 'positionCoords': [493.88, 244.5], 'bid': 7.28}, {'imgObject': {}, 'id': 'mac & cheese', 'src': '/static/foodstim60/mac & cheese.jpg', 'key': 'i', 'origWidth': 410, 'origHeight': 410, 'width': 410, 'height': 410, 'widthPercent': 0.45, 'rescaleHeight': False, 'trialN': 30, 'loaded': True, 'loadedTime': 2278.300000011921, 'positionName': 'RIGHT', 'positionCoords': [978.12, 244], 'bid': 7.35}]",56072.80000001192,1669842429674,burger,mac & cheese,7.28,7.35,0.0699999999999994,mac & cheese,1221.0,1222,1221.800000011921,True,i,57805.90000003576,1733.1000000238419,1669842431407,1733,HRV,HRV_0301,2022-11-30 21:11:50
31,"[{'imgObject': {}, 'id': 'ice cream sundae 002', 'src': '/static/foodstim60/ice cream sundae 002.jpg', 'key': 'u', 'origWidth': 409, 'origHeight': 409, 'width': 409, 'height': 409, 'widthPercent': 0.45, 'rescaleHeight': False, 'trialN': 31, 'loaded': True, 'loadedTime': 2278.600000023842, 'positionName': 'LEFT', 'positionCoords': [493.88, 244.5], 'bid': 7.82}, {'imgObject': {}, 'id': 'veggieswithdip', 'src': '/static/foodstim60/veggieswithdip.jpg', 'key': 'i', 'origWidth': 409, 'origHeight': 409, 'width': 409, 'height': 409, 'widthPercent': 0.45, 'rescaleHeight': False, 'trialN': 31, 'loaded': True, 'loadedTime': 2338.800000011921, 'positionName': 'RIGHT', 'positionCoords': [978.12, 244.5], 'bid': 4.9}]",57806.10000002384,1669842431408,ice cream sundae 002,veggieswithdip,7.82,4.9,-2.92,veggieswithdip,1355.0999999642372,1355,1355.800000011921,True,i,59669.80000001192,1863.699999988079,1669842433271,1863,HRV,HRV_0301,2022-11-30 21:11:50
32,"[{'imgObject': {}, 'id': 'cheerios', 'src': '/static/foodstim60/cheerios.jpg', 'key': 'u', 'origWidth': 409, 'origHeight': 410, 'width': 409, 'height': 410, 'widthPercent': 0.45, 'rescaleHeight': False, 'trialN': 32, 'loaded': True, 'loadedTime': 2172.600000023842, 'positionName': 'LEFT', 'positionCoords': [493.88, 244], 'bid': 1.01}, {'imgObject': {}, 'id': 'turkeysandwich', 'src': '/static/foodstim60/turkeysandwich.jpg', 'key': 'i', 'origWidth': 409, 'origHeight': 409, 'width': 409, 'height': 409, 'widthPercent': 0.45, 'rescaleHeight': False, 'trialN': 32, 'loaded': True, 'loadedTime': 2330.900000035763, 'positionName': 'RIGHT', 'positionCoords': [978.12, 244.5], 'bid': 6.01}]",59669.90000003576,1669842433271,cheerios,turkeysandwich,1.01,6.01,5.0,turkeysandwich,931.6999999880791,933,932.3999999761581,True,i,61103.0,1433.0999999642372,1669842434704,1433,HRV,HRV_0301,2022-11-30 21:11:50
33,"[{'imgObject': {}, 'id': 'veggieswithdip', 'src': '/static/foodstim60/veggieswithdip.jpg', 'key': 'u', 'origWidth': 409, 'origHeight': 409, 'width': 409, 'height': 409, 'widthPercent': 0.45, 'rescaleHeight': False, 'trialN': 33, 'loaded': True, 'loadedTime': 2339.199999988079, 'positionName': 'LEFT', 'positionCoords': [493.88, 244.5], 'bid': 4.9}, {'imgObject': {}, 'id': 'tacos', 'src': '/static/foodstim60/tacos.jpg', 'key': 'i', 'origWidth': 411, 'origHeight': 411, 'width': 411, 'height': 411, 'widthPercent': 0.45, 'rescaleHeight': False, 'trialN': 33, 'loaded': True, 'loadedTime': 2286.100000023842, 'positionName': 'RIGHT', 'positionCoords': [978.12, 243.5], 'bid': 5.97}]",61103.19999998808,1669842434705,veggieswithdip,tacos,4.9,5.97,1.0699999999999994,tacos,1056.800000011921,1057,1057.4000000357628,True,i,62670.19999998808,1567.0,1669842436272,1567,HRV,HRV_0301,2022-11-30 21:11:50
34,"[{'imgObject': {}, 'id': 'ice cream sundae 002', 'src': '/static/foodstim60/ice cream sundae 002.jpg', 'key': 'u', 'origWidth': 409, 'origHeight': 409, 'width': 409, 'height': 409, 'widthPercent': 0.45, 'rescaleHeight': False, 'trialN': 34, 'loaded': True, 'loadedTime': 2280.100000023842, 'positionName': 'LEFT', 'positionCoords': [493.88, 244.5], 'bid': 7.82}, {'imgObject': {}, 'id': 'cherries', 'src': '/static/foodstim60/cherries.jpg', 'key': 'i', 'origWidth': 410, 'origHeight': 411, 'width': 410, 'height': 411, 'widthPercent': 0.45, 'rescaleHeight': False, 'trialN': 34, 'loaded': True, 'loadedTime': 2209.100000023842, 'positionName': 'RIGHT', 'positionCoords': [978.12, 243.5], 'bid': 1.47}]",62670.40000003576,1669842436272,ice cream sundae 002,cherries,7.82,1.47,-6.3500000000000005,ice cream sundae 002,1098.7999999523163,1100,1100.0999999642372,True,u,64283.60000002384,1613.199999988079,1669842437885,1613,HRV,HRV_0301,2022-11-30 21:11:50
35,"[{'imgObject': {}, 'id': 'hotdog w must', 'src': '/static/foodstim60/hotdog w must.jpg', 'key': 'u', 'origWidth': 409, 'origHeight': 409, 'width': 409, 'height': 409, 'widthPercent': 0.45, 'rescaleHeight': False, 'trialN': 35, 'loaded': True, 'loadedTime': 2153.600000023842, 'positionName': 'LEFT', 'positionCoords': [493.88, 244.5], 'bid': 8.33}, {'imgObject': {}, 'id': 'corn cob', 'src': '/static/foodstim60/corn cob.jpg', 'key': 'i', 'origWidth': 411, 'origHeight': 411, 'width': 411, 'height': 411, 'widthPercent': 0.45, 'rescaleHeight': False, 'trialN': 35, 'loaded': True, 'loadedTime': 2255.800000011921, 'positionName': 'RIGHT', 'positionCoords': [978.12, 243.5], 'bid': 7.84}]",64283.69999998808,1669842437885,hotdog w must,corn cob,8.33,7.84,-0.4900000000000002,corn cob,1274.4000000357628,1275,1275.1000000238419,True,i,66059.19999998808,1775.5,1669842439661,1776,HRV,HRV_0301,2022-11-30 21:11:50
36,"[{'imgObject': {}, 'id': 'pear', 'src': '/static/foodstim60/pear.jpg', 'key': 'u', 'origWidth': 411, 'origHeight': 410, 'width': 411, 'height': 410, 'widthPercent': 0.45, 'rescaleHeight': False, 'trialN': 36, 'loaded': True, 'loadedTime': 2171.100000023842, 'positionName': 'LEFT', 'positionCoords': [491.88, 244], 'bid': 0.99}, {'imgObject': {}, 'id': 'tacos', 'src': '/static/foodstim60/tacos.jpg', 'key': 'i', 'origWidth': 411, 'origHeight': 411, 'width': 411, 'height': 411, 'widthPercent': 0.45, 'rescaleHeight': False, 'trialN': 36, 'loaded': True, 'loadedTime': 2288.100000023842, 'positionName': 'RIGHT', 'positionCoords': [978.12, 243.5], 'bid': 5.97}]",66059.30000001192,1669842439661,pear,tacos,0.99,5.97,4.9799999999999995,tacos,1241.1000000238419,1242,1241.800000011921,True,i,67802.5,1743.199999988079,1669842441404,1743,HRV,HRV_0301,2022-11-30 21:11:50
37,"[{'imgObject': {}, 'id': 'granola w milk', 'src': '/static/foodstim60/granola w milk.jpg', 'key': 'u', 'origWidth': 410, 'origHeight': 410, 'width': 410, 'height': 410, 'widthPercent': 0.45, 'rescaleHeight': False, 'trialN': 37, 'loaded': True, 'loadedTime': 2340.400000035763, 'positionName': 'LEFT', 'positionCoords': [492.88, 244], 'bid': 0.99}, {'imgObject': {}, 'id': 'apple slices', 'src': '/static/foodstim60/apple slices.jpg', 'key': 'i', 'origWidth': 409, 'origHeight': 410, 'width': 409, 'height': 410, 'widthPercent': 0.45, 'rescaleHeight': False, 'trialN': 37, 'loaded': True, 'loadedTime': 2224.199999988079, 'positionName': 'RIGHT', 'positionCoords': [978.12, 244], 'bid': 1.08}]",67802.69999998808,1669842441404,granola w milk,apple slices,0.99,1.08,0.09000000000000008,granola w milk,1270.2000000476837,1271,1270.800000011921,True,u,69591.0,1788.300000011921,1669842443192,1788,HRV,HRV_0301,2022-11-30 21:11:50
38,"[{'imgObject': {}, 'id': 'tacos', 'src': '/static/foodstim60/tacos.jpg', 'key': 'u', 'origWidth': 411, 'origHeight': 411, 'width': 411, 'height': 411, 'widthPercent': 0.45, 'rescaleHeight': False, 'trialN': 38, 'loaded': True, 'loadedTime': 2288.400000035763, 'positionName': 'LEFT', 'positionCoords': [491.88, 243.5], 'bid': 5.97}, {'imgObject': {}, 'id': 'Tribe humus pita', 'src': '/static/foodstim60/Tribe humus pita.jpg', 'key': 'i', 'origWidth': 411, 'origHeight': 411, 'width': 411, 'height': 411, 'widthPercent': 0.45, 'rescaleHeight': False, 'trialN': 38, 'loaded': True, 'loadedTime': 2294, 'positionName': 'RIGHT', 'positionCoords': [978.12, 243.5], 'bid': 8.8}]",69591.10000002384,1669842443193,tacos,Tribe humus pita,5.97,8.8,2.830000000000001,Tribe humus pita,1149.3999999761581,1150,1150.0999999642372,True,i,71243.5,1652.3999999761581,1669842444845,1652,HRV,HRV_0301,2022-11-30 21:11:50
39,"[{'imgObject': {}, 'id': 'granola w milk', 'src': '/static/foodstim60/granola w milk.jpg', 'key': 'u', 'origWidth': 410, 'origHeight': 410, 'width': 410, 'height': 410, 'widthPercent': 0.45, 'rescaleHeight': False, 'trialN': 39, 'loaded': True, 'loadedTime': 2340.400000035763, 'positionName': 'LEFT', 'positionCoords': [492.88, 244], 'bid': 0.99}, {'imgObject': {}, 'id': 'raisin bran w milk', 'src': '/static/foodstim60/raisin bran w milk.jpg', 'key': 'i', 'origWidth': 411, 'origHeight': 411, 'width': 411, 'height': 411, 'widthPercent': 0.45, 'rescaleHeight': False, 'trialN': 39, 'loaded': True, 'loadedTime': 2325.199999988079, 'positionName': 'RIGHT', 'positionCoords': [978.12, 243.5], 'bid': 1.23}]",71243.60000002384,1669842444845,granola w milk,raisin bran w milk,0.99,1.23,0.24,raisin bran w milk,1155.699999988079,1157,1156.3999999761581,True,i,72911.5,1667.8999999761581,1669842446513,1668,HRV,HRV_0301,2022-11-30 21:11:50
40,"[{'imgObject': {}, 'id': 'eggsalad', 'src': '/static/foodstim60/eggsalad.jpg', 'key': 'u', 'origWidth': 410, 'origHeight': 409, 'width': 410, 'height': 409, 'widthPercent': 0.45, 'rescaleHeight': False, 'trialN': 40, 'loaded': True, 'loadedTime': 2346.199999988079, 'positionName': 'LEFT', 'positionCoords': [492.88, 244.5], 'bid': 0.8300000000000001}, {'imgObject': {}, 'id': 'luckycharms', 'src': '/static/foodstim60/luckycharms.jpg', 'key': 'i', 'origWidth': 410, 'origHeight': 409, 'width': 410, 'height': 409, 'widthPercent': 0.45, 'rescaleHeight': False, 'trialN': 40, 'loaded': True, 'loadedTime': 2352.800000011921, 'positionName': 'RIGHT', 'positionCoords': [978.12, 244.5], 'bid': 0.5}]",72911.60000002384,1669842446513,eggsalad,luckycharms,0.8300000000000001,0.5,-0.33000000000000007,luckycharms,1284.5,1285,1285.300000011921,True,i,74711.0,1799.3999999761581,1669842448312,1799,HRV,HRV_0301,2022-11-30 21:11:50
41,"[{'imgObject': {}, 'id': 'Grapes', 'src': '/static/foodstim60/Grapes.jpg', 'key': 'u', 'origWidth': 411, 'origHeight': 411, 'width': 411, 'height': 411, 'widthPercent': 0.45, 'rescaleHeight': False, 'trialN': 41, 'loaded': True, 'loadedTime': 2354, 'positionName': 'LEFT', 'positionCoords': [491.88, 243.5], 'bid': 4.86}, {'imgObject': {}, 'id': 'sweetpotato', 'src': '/static/foodstim60/sweetpotato.jpg', 'key': 'i', 'origWidth': 410, 'origHeight': 410, 'width': 410, 'height': 410, 'widthPercent': 0.45, 'rescaleHeight': False, 'trialN': 41, 'loaded': True, 'loadedTime': 2359.800000011921, 'positionName': 'RIGHT', 'positionCoords': [978.12, 244], 'bid': 3.87}]",74711.19999998808,1669842448313,Grapes,sweetpotato,4.86,3.87,-0.9900000000000002,sweetpotato,1356.5,1358,1358.1000000238419,True,i,76584.90000003576,1873.7000000476837,1669842450186,1873,HRV,HRV_0301,2022-11-30 21:11:50
42,"[{'imgObject': {}, 'id': 'mashed potato', 'src': '/static/foodstim60/mashed potato.jpg', 'key': 'u', 'origWidth': 409, 'origHeight': 409, 'width': 409, 'height': 409, 'widthPercent': 0.45, 'rescaleHeight': False, 'trialN': 42, 'loaded': True, 'loadedTime': 2271, 'positionName': 'LEFT', 'positionCoords': [493.88, 244.5], 'bid': 1.09}, {'imgObject': {}, 'id': 'kiwi', 'src': '/static/foodstim60/kiwi.jpg', 'key': 'i', 'origWidth': 410, 'origHeight': 410, 'width': 410, 'height': 410, 'widthPercent': 0.45, 'rescaleHeight': False, 'trialN': 42, 'loaded': True, 'loadedTime': 2186, 'positionName': 'RIGHT', 'positionCoords': [978.12, 244], 'bid': 6.75}]",76585.19999998808,1669842450187,mashed potato,kiwi,1.09,6.75,5.66,kiwi,1324.800000011921,1324,1325.4000000357628,True,i,78419.80000001192,1834.6000000238419,1669842452020,1833,HRV,HRV_0301,2022-11-30 21:11:50
43,"[{'imgObject': {}, 'id': 'baked potato', 'src': '/static/foodstim60/baked potato.jpg', 'key': 'u', 'origWidth': 409, 'origHeight': 410, 'width': 409, 'height': 410, 'widthPercent': 0.45, 'rescaleHeight': False, 'trialN': 43, 'loaded': True, 'loadedTime': 2361.5, 'positionName': 'LEFT', 'positionCoords': [493.88, 244], 'bid': 3.37}, {'imgObject': {}, 'id': 'sweetpotato', 'src': '/static/foodstim60/sweetpotato.jpg', 'key': 'i', 'origWidth': 410, 'origHeight': 410, 'width': 410, 'height': 410, 'widthPercent': 0.45, 'rescaleHeight': False, 'trialN': 43, 'loaded': True, 'loadedTime': 2359.600000023842, 'positionName': 'RIGHT', 'positionCoords': [978.12, 244], 'bid': 3.87}]",78419.90000003576,1669842452020,baked potato,sweetpotato,3.37,3.87,0.5,sweetpotato,1715.3999999761581,1716,1716.0,True,i,80648.0,2228.099999964237,1669842454248,2228,HRV,HRV_0301,2022-11-30 21:11:50
44,"[{'imgObject': {}, 'id': 'raspberries', 'src': '/static/foodstim60/raspberries.jpg', 'key': 'u', 'origWidth': 411, 'origHeight': 411, 'width': 411, 'height': 411, 'widthPercent': 0.45, 'rescaleHeight': False, 'trialN': 44, 'loaded': True, 'loadedTime': 2188.400000035763, 'positionName': 'LEFT', 'positionCoords': [491.88, 243.5], 'bid': 2.25}, {'imgObject': {}, 'id': 'edamame', 'src': '/static/foodstim60/edamame.jpg', 'key': 'i', 'origWidth': 409, 'origHeight': 410, 'width': 409, 'height': 410, 'widthPercent': 0.45, 'rescaleHeight': False, 'trialN': 44, 'loaded': True, 'loadedTime': 2176, 'positionName': 'RIGHT', 'positionCoords': [978.12, 244], 'bid': 2.59}]",80648.10000002384,1669842454248,raspberries,edamame,2.25,2.59,0.33999999999999986,raspberries,1361.699999988079,1363,1362.300000011921,True,u,82510.90000003576,1862.800000011921,1669842456111,1863,HRV,HRV_0301,2022-11-30 21:11:50
45,"[{'imgObject': {}, 'id': 'yogurt no spoon', 'src': '/static/foodstim60/yogurt no spoon.jpg', 'key': 'u', 'origWidth': 411, 'origHeight': 410, 'width': 411, 'height': 410, 'widthPercent': 0.45, 'rescaleHeight': False, 'trialN': 45, 'loaded': True, 'loadedTime': 2363.5, 'positionName': 'LEFT', 'positionCoords': [491.88, 244], 'bid': 2.74}, {'imgObject': {}, 'id': 'cantaloupe', 'src': '/static/foodstim60/cantaloupe.jpg', 'key': 'i', 'origWidth': 409, 'origHeight': 409, 'width': 409, 'height': 409, 'widthPercent': 0.45, 'rescaleHeight': False, 'trialN': 45, 'loaded': True, 'loadedTime': 2196.400000035763, 'positionName': 'RIGHT', 'positionCoords': [978.12, 244.5], 'bid': 1.46}]",82511.0,1669842456111,yogurt no spoon,cantaloupe,2.74,1.46,-1.2800000000000002,yogurt no spoon,1302.300000011921,1303,1303.0,True,u,84317.40000003576,1806.4000000357628,1669842457918,1807,HRV,HRV_0301,2022-11-30 21:11:50
46,"[{'imgObject': {}, 'id': 'Tribe humus pita', 'src': '/static/foodstim60/Tribe humus pita.jpg', 'key': 'u', 'origWidth': 411, 'origHeight': 411, 'width': 411, 'height': 411, 'widthPercent': 0.45, 'rescaleHeight': False, 'trialN': 46, 'loaded': True, 'loadedTime': 2289.100000023842, 'positionName': 'LEFT', 'positionCoords': [491.88, 243.5], 'bid': 8.8}, {'imgObject': {}, 'id': 'chickenfingers', 'src': '/static/foodstim60/chickenfingers.jpg', 'key': 'i', 'origWidth': 410, 'origHeight': 410, 'width': 410, 'height': 410, 'widthPercent': 0.45, 'rescaleHeight': False, 'trialN': 46, 'loaded': True, 'loadedTime': 2316.5, 'positionName': 'RIGHT', 'positionCoords': [978.12, 244], 'bid': 2.25}]",84317.60000002384,1669842457918,Tribe humus pita,chickenfingers,8.8,2.25,-6.550000000000001,Tribe humus pita,1051.3999999761581,1052,1052.0999999642372,True,u,85877.69999998808,1560.0999999642372,1669842459478,1560,HRV,HRV_0301,2022-11-30 21:11:50
47,"[{'imgObject': {}, 'id': 'mashed potato', 'src': '/static/foodstim60/mashed potato.jpg', 'key': 'u', 'origWidth': 409, 'origHeight': 409, 'width': 409, 'height': 409, 'widthPercent': 0.45, 'rescaleHeight': False, 'trialN': 47, 'loaded': True, 'loadedTime': 2266, 'positionName': 'LEFT', 'positionCoords': [493.88, 244.5], 'bid': 1.09}, {'imgObject': {}, 'id': 'olives', 'src': '/static/foodstim60/olives.jpg', 'key': 'i', 'origWidth': 410, 'origHeight': 410, 'width': 410, 'height': 410, 'widthPercent': 0.45, 'rescaleHeight': False, 'trialN': 47, 'loaded': True, 'loadedTime': 2369.199999988079, 'positionName': 'RIGHT', 'positionCoords': [978.12, 244], 'bid': 1.48}]",85878.0,1669842459478,mashed potato,olives,1.09,1.48,0.3899999999999999,olives,1147.9000000357628,1149,1148.5,True,i,87538.19999998808,1660.199999988079,1669842461138,1660,HRV,HRV_0301,2022-11-30 21:11:50
48,"[{'imgObject': {}, 'id': 'raisin bran w milk', 'src': '/static/foodstim60/raisin bran w milk.jpg', 'key': 'u', 'origWidth': 411, 'origHeight': 411, 'width': 411, 'height': 411, 'widthPercent': 0.45, 'rescaleHeight': False, 'trialN': 48, 'loaded': True, 'loadedTime': 2324.699999988079, 'positionName': 'LEFT', 'positionCoords': [491.88, 243.5], 'bid': 1.23}, {'imgObject': {}, 'id': 'luckycharms', 'src': '/static/foodstim60/luckycharms.jpg', 'key': 'i', 'origWidth': 410, 'origHeight': 409, 'width': 410, 'height': 409, 'widthPercent': 0.45, 'rescaleHeight': False, 'trialN': 48, 'loaded': True, 'loadedTime': 2346.5, 'positionName': 'RIGHT', 'positionCoords': [978.12, 244.5], 'bid': 0.5}]",87538.30000001192,1669842461139,raisin bran w milk,luckycharms,1.23,0.5,-0.73,luckycharms,1791.6000000238419,1792,1792.300000011921,True,i,89834.80000001192,2296.5,1669842463435,2296,HRV,HRV_0301,2022-11-30 21:11:50
49,"[{'imgObject': {}, 'id': 'hotdog w must', 'src': '/static/foodstim60/hotdog w must.jpg', 'key': 'u', 'origWidth': 409, 'origHeight': 409, 'width': 409, 'height': 409, 'widthPercent': 0.45, 'rescaleHeight': False, 'trialN': 49, 'loaded': True, 'loadedTime': 2152.600000023842, 'positionName': 'LEFT', 'positionCoords': [493.88, 244.5], 'bid': 8.33}, {'imgObject': {}, 'id': 'bagel plain', 'src': '/static/foodstim60/bagel plain.jpg', 'key': 'i', 'origWidth': 410, 'origHeight': 410, 'width': 410, 'height': 410, 'widthPercent': 0.45, 'rescaleHeight': False, 'trialN': 49, 'loaded': True, 'loadedTime': 2182.5, 'positionName': 'RIGHT', 'positionCoords': [978.12, 244], 'bid': 5.05}]",89835.0,1669842463435,hotdog w must,bagel plain,8.33,5.05,-3.2800000000000002,hotdog w must,1159.0,1160,1159.6000000238419,True,u,91508.19999998808,1673.199999988079,1669842465108,1673,HRV,HRV_0301,2022-11-30 21:11:50
50,"[{'imgObject': {}, 'id': 'strawberries', 'src': '/static/foodstim60/strawberries.jpg', 'key': 'u', 'origWidth': 410, 'origHeight': 410, 'width': 410, 'height': 410, 'widthPercent': 0.45, 'rescaleHeight': False, 'trialN': 50, 'loaded': True, 'loadedTime': 2225.100000023842, 'positionName': 'LEFT', 'positionCoords': [492.88, 244], 'bid': 8.06}, {'imgObject': {}, 'id': 'olives', 'src': '/static/foodstim60/olives.jpg', 'key': 'i', 'origWidth': 410, 'origHeight': 410, 'width': 410, 'height': 410, 'widthPercent': 0.45, 'rescaleHeight': False, 'trialN': 50, 'loaded': True, 'loadedTime': 2368.300000011921, 'positionName': 'RIGHT', 'positionCoords': [978.12, 244], 'bid': 1.48}]",91508.30000001192,1669842465109,strawberries,olives,8.06,1.48,-6.58,strawberries,1609.1000000238419,1609,1609.800000011921,True,u,93624.80000001192,2116.5,1669842467225,2116,HRV,HRV_0301,2022-11-30 21:11:50
51,"[{'imgObject': {}, 'id': 'luckycharms', 'src': '/static/foodstim60/luckycharms.jpg', 'key': 'u', 'origWidth': 410, 'origHeight': 409, 'width': 410, 'height': 409, 'widthPercent': 0.45, 'rescaleHeight': False, 'trialN': 51, 'loaded': True, 'loadedTime': 2347.800000011921, 'positionName': 'LEFT', 'positionCoords': [492.88, 244.5], 'bid': 0.5}, {'imgObject': {}, 'id': 'grilled chicken strips', 'src': '/static/foodstim60/grilled chicken strips.jpg', 'key': 'i', 'origWidth': 410, 'origHeight': 411, 'width': 410, 'height': 411, 'widthPercent': 0.45, 'rescaleHeight': False, 'trialN': 51, 'loaded': True, 'loadedTime': 2371.199999988079, 'positionName': 'RIGHT', 'positionCoords': [978.12, 243.5], 'bid': 0.67}]",93624.90000003576,1669842467225,luckycharms,grilled chicken strips,0.5,0.67,0.17000000000000004,luckycharms,1323.199999988079,1324,1323.7999999523163,True,u,95456.0,1831.0999999642372,1669842469056,1831,HRV,HRV_0301,2022-11-30 21:11:50
52,"[{'imgObject': {}, 'id': 'chickenfingers', 'src': '/static/foodstim60/chickenfingers.jpg', 'key': 'u', 'origWidth': 410, 'origHeight': 410, 'width': 410, 'height': 410, 'widthPercent': 0.45, 'rescaleHeight': False, 'trialN': 52, 'loaded': True, 'loadedTime': 2316.400000035763, 'positionName': 'LEFT', 'positionCoords': [492.88, 244], 'bid': 2.25}, {'imgObject': {}, 'id': 'roastedpotatoes', 'src': '/static/foodstim60/roastedpotatoes.jpg', 'key': 'i', 'origWidth': 409, 'origHeight': 410, 'width': 409, 'height': 410, 'widthPercent': 0.45, 'rescaleHeight': False, 'trialN': 52, 'loaded': True, 'loadedTime': 2302.5, 'positionName': 'RIGHT', 'positionCoords': [978.12, 244], 'bid': 2.14}]",95456.10000002384,1669842469056,chickenfingers,roastedpotatoes,2.25,2.14,-0.10999999999999988,chickenfingers,1193.800000011921,1195,1194.3999999761581,True,u,97158.10000002384,1702.0,1669842470758,1702,HRV,HRV_0301,2022-11-30 21:11:50
53,"[{'imgObject': {}, 'id': 'blackbeanswithrice', 'src': '/static/foodstim60/blackbeanswithrice.jpg', 'key': 'u', 'origWidth': 410, 'origHeight': 410, 'width': 410, 'height': 410, 'widthPercent': 0.45, 'rescaleHeight': False, 'trialN': 53, 'loaded': True, 'loadedTime': 2191.300000011921, 'positionName': 'LEFT', 'positionCoords': [492.88, 244], 'bid': 0.8300000000000001}, {'imgObject': {}, 'id': 'bagel plain', 'src': '/static/foodstim60/bagel plain.jpg', 'key': 'i', 'origWidth': 410, 'origHeight': 410, 'width': 410, 'height': 410, 'widthPercent': 0.45, 'rescaleHeight': False, 'trialN': 53, 'loaded': True, 'loadedTime': 2182.199999988079, 'positionName': 'RIGHT', 'positionCoords': [978.12, 244], 'bid': 5.05}]",97158.40000003576,1669842470759,blackbeanswithrice,bagel plain,0.8300000000000001,5.05,4.22,bagel plain,910.5,911,911.1999999880791,True,i,98580.0,1421.5999999642372,1669842472180,1421,HRV,HRV_0301,2022-11-30 21:11:50
54,"[{'imgObject': {}, 'id': 'avocado', 'src': '/static/foodstim60/avocado.jpg', 'key': 'u', 'origWidth': 409, 'origHeight': 409, 'width': 409, 'height': 409, 'widthPercent': 0.45, 'rescaleHeight': False, 'trialN': 54, 'loaded': True, 'loadedTime': 2372.800000011921, 'positionName': 'LEFT', 'positionCoords': [493.88, 244.5], 'bid': 6.3100000000000005}, {'imgObject': {}, 'id': 'turkeysandwich', 'src': '/static/foodstim60/turkeysandwich.jpg', 'key': 'i', 'origWidth': 409, 'origHeight': 409, 'width': 409, 'height': 409, 'widthPercent': 0.45, 'rescaleHeight': False, 'trialN': 54, 'loaded': True, 'loadedTime': 2326.199999988079, 'positionName': 'RIGHT', 'positionCoords': [978.12, 244.5], 'bid': 6.01}]",98580.30000001192,1669842472181,avocado,turkeysandwich,6.3100000000000005,6.01,-0.3000000000000007,avocado,1528.800000011921,1529,1529.6000000238419,True,u,100623.40000003576,2043.1000000238419,1669842474224,2043,HRV,HRV_0301,2022-11-30 21:11:50
55,"[{'imgObject': {}, 'id': 'hashbrowns', 'src': '/static/foodstim60/hashbrowns.jpg', 'key': 'u', 'origWidth': 411, 'origHeight': 410, 'width': 411, 'height': 410, 'widthPercent': 0.45, 'rescaleHeight': False, 'trialN': 55, 'loaded': True, 'loadedTime': 2378.600000023842, 'positionName': 'LEFT', 'positionCoords': [491.88, 244], 'bid': 0.76}, {'imgObject': {}, 'id': 'popsicles', 'src': '/static/foodstim60/popsicles.jpg', 'key': 'i', 'origWidth': 410, 'origHeight': 410, 'width': 410, 'height': 410, 'widthPercent': 0.45, 'rescaleHeight': False, 'trialN': 55, 'loaded': True, 'loadedTime': 2382.699999988079, 'positionName': 'RIGHT', 'positionCoords': [978.12, 244], 'bid': 1.16}]",100623.5,1669842474224,hashbrowns,popsicles,0.76,1.16,0.3999999999999999,hashbrowns,1640.4000000357628,1641,1641.0,True,u,102773.19999998808,2149.699999988079,1669842476374,2150,HRV,HRV_0301,2022-11-30 21:11:50
56,"[{'imgObject': {}, 'id': 'cheerios', 'src': '/static/foodstim60/cheerios.jpg', 'key': 'u', 'origWidth': 409, 'origHeight': 410, 'width': 409, 'height': 410, 'widthPercent': 0.45, 'rescaleHeight': False, 'trialN': 56, 'loaded': True, 'loadedTime': 2171.900000035763, 'positionName': 'LEFT', 'positionCoords': [493.88, 244], 'bid': 1.01}, {'imgObject': {}, 'id': 'luckycharms', 'src': '/static/foodstim60/luckycharms.jpg', 'key': 'i', 'origWidth': 410, 'origHeight': 409, 'width': 410, 'height': 409, 'widthPercent': 0.45, 'rescaleHeight': False, 'trialN': 56, 'loaded': True, 'loadedTime': 2352.5, 'positionName': 'RIGHT', 'positionCoords': [978.12, 244.5], 'bid': 0.5}]",102773.40000003576,1669842476374,cheerios,luckycharms,1.01,0.5,-0.51,luckycharms,1247.5,1248,1248.0999999642372,True,i,104537.30000001192,1763.8999999761581,1669842478138,1764,HRV,HRV_0301,2022-11-30 21:11:50
57,"[{'imgObject': {}, 'id': 'olives', 'src': '/static/foodstim60/olives.jpg', 'key': 'u', 'origWidth': 410, 'origHeight': 410, 'width': 410, 'height': 410, 'widthPercent': 0.45, 'rescaleHeight': False, 'trialN': 57, 'loaded': True, 'loadedTime': 2369.5, 'positionName': 'LEFT', 'positionCoords': [492.88, 244], 'bid': 1.48}, {'imgObject': {}, 'id': 'sweetpotato', 'src': '/static/foodstim60/sweetpotato.jpg', 'key': 'i', 'origWidth': 410, 'origHeight': 410, 'width': 410, 'height': 410, 'widthPercent': 0.45, 'rescaleHeight': False, 'trialN': 57, 'loaded': True, 'loadedTime': 2354.5, 'positionName': 'RIGHT', 'positionCoords': [978.12, 244], 'bid': 3.87}]",104537.5,1669842478138,olives,sweetpotato,1.48,3.87,2.39,olives,1254.800000011921,1255,1255.699999988079,True,u,106304.80000001192,1767.300000011921,1669842479905,1767,HRV,HRV_0301,2022-11-30 21:11:50
58,"[{'imgObject': {}, 'id': 'orange slices', 'src': '/static/foodstim60/orange slices.jpg', 'key': 'u', 'origWidth': 409, 'origHeight': 410, 'width': 409, 'height': 410, 'widthPercent': 0.45, 'rescaleHeight': False, 'trialN': 58, 'loaded': True, 'loadedTime': 2385.300000011921, 'positionName': 'LEFT', 'positionCoords': [493.88, 244], 'bid': 6}, {'imgObject': {}, 'id': 'cherry tomato', 'src': '/static/foodstim60/cherry tomato.jpg', 'key': 'i', 'origWidth': 410, 'origHeight': 410, 'width': 410, 'height': 410, 'widthPercent': 0.45, 'rescaleHeight': False, 'trialN': 58, 'loaded': True, 'loadedTime': 2331.900000035763, 'positionName': 'RIGHT', 'positionCoords': [978.12, 244], 'bid': 9.01}]",106305.10000002384,1669842479905,orange slices,cherry tomato,6.0,9.01,3.01,cherry tomato,2217.099999964237,2218,2217.899999976158,True,i,109036.19999998808,2731.099999964237,1669842482637,2732,HRV,HRV_0301,2022-11-30 21:11:50
59,"[{'imgObject': {}, 'id': 'shreddedwheatwithmilk', 'src': '/static/foodstim60/shreddedwheatwithmilk.jpg', 'key': 'u', 'origWidth': 410, 'origHeight': 410, 'width': 410, 'height': 410, 'widthPercent': 0.45, 'rescaleHeight': False, 'trialN': 59, 'loaded': True, 'loadedTime': 2388, 'positionName': 'LEFT', 'positionCoords': [492.88, 244], 'bid': 1.09}, {'imgObject': {}, 'id': 'avocado', 'src': '/static/foodstim60/avocado.jpg', 'key': 'i', 'origWidth': 409, 'origHeight': 409, 'width': 409, 'height': 409, 'widthPercent': 0.45, 'rescaleHeight': False, 'trialN': 59, 'loaded': True, 'loadedTime': 2378.300000011921, 'positionName': 'RIGHT', 'positionCoords': [978.12, 244.5], 'bid': 6.3100000000000005}]",109036.40000003576,1669842482637,shreddedwheatwithmilk,avocado,1.09,6.3100000000000005,5.220000000000001,avocado,1227.7999999523163,1228,1228.5,True,i,110770.69999998808,1734.2999999523163,1669842484371,1734,HRV,HRV_0301,2022-11-30 21:11:50
60,"[{'imgObject': {}, 'id': 'salmon', 'src': '/static/foodstim60/salmon.jpg', 'key': 'u', 'origWidth': 410, 'origHeight': 409, 'width': 410, 'height': 409, 'widthPercent': 0.45, 'rescaleHeight': False, 'trialN': 60, 'loaded': True, 'loadedTime': 2390.5, 'positionName': 'LEFT', 'positionCoords': [492.88, 244.5], 'bid': 0.51}, {'imgObject': {}, 'id': 'luckycharms', 'src': '/static/foodstim60/luckycharms.jpg', 'key': 'i', 'origWidth': 410, 'origHeight': 409, 'width': 410, 'height': 409, 'widthPercent': 0.45, 'rescaleHeight': False, 'trialN': 60, 'loaded': True, 'loadedTime': 2347.400000035763, 'positionName': 'RIGHT', 'positionCoords': [978.12, 244.5], 'bid': 0.5}]",110771.10000002384,1669842484371,salmon,luckycharms,0.51,0.5,-0.010000000000000009,luckycharms,1018.5999999642372,1020,1019.3000000119209,True,i,112310.10000002384,1539.0,1669842485910,1539,HRV,HRV_0301,2022-11-30 21:11:50
61,"[{'imgObject': {}, 'id': 'burger', 'src': '/static/foodstim60/burger.jpg', 'key': 'u', 'origWidth': 409, 'origHeight': 409, 'width': 409, 'height': 409, 'widthPercent': 0.45, 'rescaleHeight': False, 'trialN': 61, 'loaded': True, 'loadedTime': 2333.199999988079, 'positionName': 'LEFT', 'positionCoords': [493.88, 244.5], 'bid': 7.28}, {'imgObject': {}, 'id': 'cherry tomato', 'src': '/static/foodstim60/cherry tomato.jpg', 'key': 'i', 'origWidth': 410, 'origHeight': 410, 'width': 410, 'height': 410, 'widthPercent': 0.45, 'rescaleHeight': False, 'trialN': 61, 'loaded': True, 'loadedTime': 2331.100000023842, 'positionName': 'RIGHT', 'positionCoords': [978.12, 244], 'bid': 9.01}]",112310.19999998808,1669842485910,burger,cherry tomato,7.28,9.01,1.7299999999999995,burger,1231.7000000476837,1233,1232.2000000476837,True,u,114060.90000003576,1750.7000000476837,1669842487661,1751,HRV,HRV_0301,2022-11-30 21:11:50
62,"[{'imgObject': {}, 'id': 'bagel plain', 'src': '/static/foodstim60/bagel plain.jpg', 'key': 'u', 'origWidth': 410, 'origHeight': 410, 'width': 410, 'height': 410, 'widthPercent': 0.45, 'rescaleHeight': False, 'trialN': 62, 'loaded': True, 'loadedTime': 2180.800000011921, 'positionName': 'LEFT', 'positionCoords': [492.88, 244], 'bid': 5.05}, {'imgObject': {}, 'id': 'banana', 'src': '/static/foodstim60/banana.jpg', 'key': 'i', 'origWidth': 410, 'origHeight': 410, 'width': 410, 'height': 410, 'widthPercent': 0.45, 'rescaleHeight': False, 'trialN': 62, 'loaded': True, 'loadedTime': 2243.100000023842, 'positionName': 'RIGHT', 'positionCoords': [978.12, 244], 'bid': 5.0200000000000005}]",114061.0,1669842487661,bagel plain,banana,5.05,5.0200000000000005,-0.02999999999999936,bagel plain,1543.1000000238419,1544,1543.800000011921,True,u,116110.69999998808,2049.699999988079,1669842489711,2050,HRV,HRV_0301,2022-11-30 21:11:50
63,"[{'imgObject': {}, 'id': 'cherry tomato', 'src': '/static/foodstim60/cherry tomato.jpg', 'key': 'u', 'origWidth': 410, 'origHeight': 410, 'width': 410, 'height': 410, 'widthPercent': 0.45, 'rescaleHeight': False, 'trialN': 63, 'loaded': True, 'loadedTime': 2332.199999988079, 'positionName': 'LEFT', 'positionCoords': [492.88, 244], 'bid': 9.01}, {'imgObject': {}, 'id': 'steak', 'src': '/static/foodstim60/steak.jpg', 'key': 'i', 'origWidth': 410, 'origHeight': 410, 'width': 410, 'height': 410, 'widthPercent': 0.45, 'rescaleHeight': False, 'trialN': 63, 'loaded': True, 'loadedTime': 2178.199999988079, 'positionName': 'RIGHT', 'positionCoords': [978.12, 244], 'bid': 9.77}]",116111.0,1669842489711,cherry tomato,steak,9.01,9.77,0.7599999999999998,steak,1099.4000000357628,1100,1100.0,True,i,117712.40000003576,1601.4000000357628,1669842491313,1602,HRV,HRV_0301,2022-11-30 21:11:50
64,"[{'imgObject': {}, 'id': 'eggsalad', 'src': '/static/foodstim60/eggsalad.jpg', 'key': 'u', 'origWidth': 410, 'origHeight': 409, 'width': 410, 'height': 409, 'widthPercent': 0.45, 'rescaleHeight': False, 'trialN': 64, 'loaded': True, 'loadedTime': 2340.5, 'positionName': 'LEFT', 'positionCoords': [492.88, 244.5], 'bid': 0.8300000000000001}, {'imgObject': {}, 'id': 'hashbrowns', 'src': '/static/foodstim60/hashbrowns.jpg', 'key': 'i', 'origWidth': 411, 'origHeight': 410, 'width': 411, 'height': 410, 'widthPercent': 0.45, 'rescaleHeight': False, 'trialN': 64, 'loaded': True, 'loadedTime': 2380.100000023842, 'positionName': 'RIGHT', 'positionCoords': [978.12, 244], 'bid': 0.76}]",117712.69999998808,1669842491313,eggsalad,hashbrowns,0.8300000000000001,0.76,-0.07000000000000006,eggsalad,1184.2000000476837,1185,1184.800000011921,True,u,119406.19999998808,1693.5,1669842493006,1693,HRV,HRV_0301,2022-11-30 21:11:50
65,"[{'imgObject': {}, 'id': 'corn cob', 'src': '/static/foodstim60/corn cob.jpg', 'key': 'u', 'origWidth': 411, 'origHeight': 411, 'width': 411, 'height': 411, 'widthPercent': 0.45, 'rescaleHeight': False, 'trialN': 65, 'loaded': True, 'loadedTime': 2258.100000023842, 'positionName': 'LEFT', 'positionCoords': [491.88, 243.5], 'bid': 7.84}, {'imgObject': {}, 'id': 'strawberries', 'src': '/static/foodstim60/strawberries.jpg', 'key': 'i', 'origWidth': 410, 'origHeight': 410, 'width': 410, 'height': 410, 'widthPercent': 0.45, 'rescaleHeight': False, 'trialN': 65, 'loaded': True, 'loadedTime': 2232.600000023842, 'positionName': 'RIGHT', 'positionCoords': [978.12, 244], 'bid': 8.06}]",119406.40000003576,1669842493007,corn cob,strawberries,7.84,8.06,0.22000000000000064,corn cob,1123.699999988079,1124,1124.3999999761581,True,u,121049.90000003576,1643.5,1669842494650,1643,HRV,HRV_0301,2022-11-30 21:11:50
66,"[{'imgObject': {}, 'id': 'apple slices', 'src': '/static/foodstim60/apple slices.jpg', 'key': 'u', 'origWidth': 409, 'origHeight': 410, 'width': 409, 'height': 410, 'widthPercent': 0.45, 'rescaleHeight': False, 'trialN': 66, 'loaded': True, 'loadedTime': 2215.699999988079, 'positionName': 'LEFT', 'positionCoords': [493.88, 244], 'bid': 1.08}, {'imgObject': {}, 'id': 'lox', 'src': '/static/foodstim60/lox.jpg', 'key': 'i', 'origWidth': 410, 'origHeight': 411, 'width': 410, 'height': 411, 'widthPercent': 0.45, 'rescaleHeight': False, 'trialN': 66, 'loaded': True, 'loadedTime': 2392.100000023842, 'positionName': 'RIGHT', 'positionCoords': [978.12, 243.5], 'bid': 0.07}]",121050.10000002384,1669842494650,apple slices,lox,1.08,0.07,-1.01,apple slices,2072.300000011921,2073,2072.899999976158,True,u,123627.30000001192,2577.199999988079,1669842497228,2578,HRV,HRV_0301,2022-11-30 21:11:50
67,"[{'imgObject': {}, 'id': 'burrito', 'src': '/static/foodstim60/burrito.jpg', 'key': 'u', 'origWidth': 410, 'origHeight': 410, 'width': 410, 'height': 410, 'widthPercent': 0.45, 'rescaleHeight': False, 'trialN': 67, 'loaded': True, 'loadedTime': 2259.300000011921, 'positionName': 'LEFT', 'positionCoords': [492.88, 244], 'bid': 0.76}, {'imgObject': {}, 'id': 'salmon', 'src': '/static/foodstim60/salmon.jpg', 'key': 'i', 'origWidth': 410, 'origHeight': 409, 'width': 410, 'height': 409, 'widthPercent': 0.45, 'rescaleHeight': False, 'trialN': 67, 'loaded': True, 'loadedTime': 2390.199999988079, 'positionName': 'RIGHT', 'positionCoords': [978.12, 244.5], 'bid': 0.51}]",123627.5,1669842497228,burrito,salmon,0.76,0.51,-0.25,burrito,1032.4000000357628,1033,1032.9000000357628,True,u,125169.5,1542.0,1669842498770,1542,HRV,HRV_0301,2022-11-30 21:11:50
68,"[{'imgObject': {}, 'id': 'sushi w_condiments', 'src': '/static/foodstim60/sushi w_condiments.jpg', 'key': 'u', 'origWidth': 410, 'origHeight': 410, 'width': 410, 'height': 410, 'widthPercent': 0.45, 'rescaleHeight': False, 'trialN': 68, 'loaded': True, 'loadedTime': 2158.100000023842, 'positionName': 'LEFT', 'positionCoords': [492.88, 244], 'bid': 0.48}, {'imgObject': {}, 'id': 'sweetpotato', 'src': '/static/foodstim60/sweetpotato.jpg', 'key': 'i', 'origWidth': 410, 'origHeight': 410, 'width': 410, 'height': 410, 'widthPercent': 0.45, 'rescaleHeight': False, 'trialN': 68, 'loaded': True, 'loadedTime': 2359.5, 'positionName': 'RIGHT', 'positionCoords': [978.12, 244], 'bid': 3.87}]",125169.60000002384,1669842498770,sushi w_condiments,sweetpotato,0.48,3.87,3.39,sweetpotato,2093.800000011921,2094,2094.300000011921,True,i,127780.30000001192,2610.699999988079,1669842501381,2611,HRV,HRV_0301,2022-11-30 21:11:50
69,"[{'imgObject': {}, 'id': 'bagel plain', 'src': '/static/foodstim60/bagel plain.jpg', 'key': 'u', 'origWidth': 410, 'origHeight': 410, 'width': 410, 'height': 410, 'widthPercent': 0.45, 'rescaleHeight': False, 'trialN': 69, 'loaded': True, 'loadedTime': 2182.100000023842, 'positionName': 'LEFT', 'positionCoords': [492.88, 244], 'bid': 5.05}, {'imgObject': {}, 'id': 'edamame', 'src': '/static/foodstim60/edamame.jpg', 'key': 'i', 'origWidth': 409, 'origHeight': 410, 'width': 409, 'height': 410, 'widthPercent': 0.45, 'rescaleHeight': False, 'trialN': 69, 'loaded': True, 'loadedTime': 2173.900000035763, 'positionName': 'RIGHT', 'positionCoords': [978.12, 244], 'bid': 2.59}]",127780.5,1669842501381,bagel plain,edamame,5.05,2.59,-2.46,bagel plain,1277.4000000357628,1278,1277.9000000357628,True,u,129561.60000002384,1781.1000000238419,1669842503162,1781,HRV,HRV_0301,2022-11-30 21:11:50
70,"[{'imgObject': {}, 'id': 'sushi w_condiments', 'src': '/static/foodstim60/sushi w_condiments.jpg', 'key': 'u', 'origWidth': 410, 'origHeight': 410, 'width': 410, 'height': 410, 'widthPercent': 0.45, 'rescaleHeight': False, 'trialN': 70, 'loaded': True, 'loadedTime': 2159.5, 'positionName': 'LEFT', 'positionCoords': [492.88, 244], 'bid': 0.48}, {'imgObject': {}, 'id': 'blackbeanswithrice', 'src': '/static/foodstim60/blackbeanswithrice.jpg', 'key': 'i', 'origWidth': 410, 'origHeight': 410, 'width': 410, 'height': 410, 'widthPercent': 0.45, 'rescaleHeight': False, 'trialN': 70, 'loaded': True, 'loadedTime': 2191.100000023842, 'positionName': 'RIGHT', 'positionCoords': [978.12, 244], 'bid': 0.8300000000000001}]",129561.69999998808,1669842503162,sushi w_condiments,blackbeanswithrice,0.48,0.8300000000000001,0.3500000000000001,sushi w_condiments,1240.6000000238419,1241,1241.300000011921,True,u,131309.30000001192,1747.6000000238419,1669842504910,1748,HRV,HRV_0301,2022-11-30 21:11:50
71,"[{'imgObject': {}, 'id': 'fruitsalad', 'src': '/static/foodstim60/fruitsalad.jpg', 'key': 'u', 'origWidth': 410, 'origHeight': 410, 'width': 410, 'height': 410, 'widthPercent': 0.45, 'rescaleHeight': False, 'trialN': 71, 'loaded': True, 'loadedTime': 2200.699999988079, 'positionName': 'LEFT', 'positionCoords': [492.88, 244], 'bid': 7.42}, {'imgObject': {}, 'id': 'ice cream sundae 002', 'src': '/static/foodstim60/ice cream sundae 002.jpg', 'key': 'i', 'origWidth': 409, 'origHeight': 409, 'width': 409, 'height': 409, 'widthPercent': 0.45, 'rescaleHeight': False, 'trialN': 71, 'loaded': True, 'loadedTime': 2280, 'positionName': 'RIGHT', 'positionCoords': [978.12, 244.5], 'bid': 7.82}]",131309.5,1669842504910,fruitsalad,ice cream sundae 002,7.42,7.82,0.40000000000000036,ice cream sundae 002,1820.1000000238419,1821,1820.800000011921,True,i,133643.90000003576,2334.400000035763,1669842507244,2334,HRV,HRV_0301,2022-11-30 21:11:50
72,"[{'imgObject': {}, 'id': 'mashed potato', 'src': '/static/foodstim60/mashed potato.jpg', 'key': 'u', 'origWidth': 409, 'origHeight': 409, 'width': 409, 'height': 409, 'widthPercent': 0.45, 'rescaleHeight': False, 'trialN': 72, 'loaded': True, 'loadedTime': 2265.199999988079, 'positionName': 'LEFT', 'positionCoords': [493.88, 244.5], 'bid': 1.09}, {'imgObject': {}, 'id': 'raisin bran w milk', 'src': '/static/foodstim60/raisin bran w milk.jpg', 'key': 'i', 'origWidth': 411, 'origHeight': 411, 'width': 411, 'height': 411, 'widthPercent': 0.45, 'rescaleHeight': False, 'trialN': 72, 'loaded': True, 'loadedTime': 2324.600000023842, 'positionName': 'RIGHT', 'positionCoords': [978.12, 243.5], 'bid': 1.23}]",133644.19999998808,1669842507244,mashed potato,raisin bran w milk,1.09,1.23,0.1399999999999999,raisin bran w milk,1070.300000011921,1071,1070.9000000357628,True,i,135224.80000001192,1580.6000000238419,1669842508825,1581,HRV,HRV_0301,2022-11-30 21:11:50
73,"[{'imgObject': {}, 'id': 'yogurt no spoon', 'src': '/static/foodstim60/yogurt no spoon.jpg', 'key': 'u', 'origWidth': 411, 'origHeight': 410, 'width': 411, 'height': 410, 'widthPercent': 0.45, 'rescaleHeight': False, 'trialN': 73, 'loaded': True, 'loadedTime': 2363.100000023842, 'positionName': 'LEFT', 'positionCoords': [491.88, 244], 'bid': 2.74}, {'imgObject': {}, 'id': 'raspberries', 'src': '/static/foodstim60/raspberries.jpg', 'key': 'i', 'origWidth': 411, 'origHeight': 411, 'width': 411, 'height': 411, 'widthPercent': 0.45, 'rescaleHeight': False, 'trialN': 73, 'loaded': True, 'loadedTime': 2188.199999988079, 'positionName': 'RIGHT', 'positionCoords': [978.12, 243.5], 'bid': 2.25}]",135225.0,1669842508825,yogurt no spoon,raspberries,2.74,2.25,-0.4900000000000002,yogurt no spoon,1606.199999988079,1607,1606.9000000357628,True,u,137344.60000002384,2119.600000023842,1669842510945,2120,HRV,HRV_0301,2022-11-30 21:11:50
74,"[{'imgObject': {}, 'id': 'avocado', 'src': '/static/foodstim60/avocado.jpg', 'key': 'u', 'origWidth': 409, 'origHeight': 409, 'width': 409, 'height': 409, 'widthPercent': 0.45, 'rescaleHeight': False, 'trialN': 74, 'loaded': True, 'loadedTime': 2371.699999988079, 'positionName': 'LEFT', 'positionCoords': [493.88, 244.5], 'bid': 6.3100000000000005}, {'imgObject': {}, 'id': 'salad w chicken', 'src': '/static/foodstim60/salad w chicken.jpg', 'key': 'i', 'origWidth': 411, 'origHeight': 411, 'width': 411, 'height': 411, 'widthPercent': 0.45, 'rescaleHeight': False, 'trialN': 74, 'loaded': True, 'loadedTime': 2296.199999988079, 'positionName': 'RIGHT', 'positionCoords': [978.12, 243.5], 'bid': 8.72}]",137344.80000001192,1669842510945,avocado,salad w chicken,6.3100000000000005,8.72,2.41,salad w chicken,1076.5,1079,1077.300000011921,True,i,138923.5,1578.699999988079,1669842512525,1580,HRV,HRV_0301,2022-11-30 21:11:50
75,"[{'imgObject': {}, 'id': 'cherry tomato', 'src': '/static/foodstim60/cherry tomato.jpg', 'key': 'u', 'origWidth': 410, 'origHeight': 410, 'width': 410, 'height': 410, 'widthPercent': 0.45, 'rescaleHeight': False, 'trialN': 75, 'loaded': True, 'loadedTime': 2332.300000011921, 'positionName': 'LEFT', 'positionCoords': [492.88, 244], 'bid': 9.01}, {'imgObject': {}, 'id': 'salad w chicken', 'src': '/static/foodstim60/salad w chicken.jpg', 'key': 'i', 'origWidth': 411, 'origHeight': 411, 'width': 411, 'height': 411, 'widthPercent': 0.45, 'rescaleHeight': False, 'trialN': 75, 'loaded': True, 'loadedTime': 2296, 'positionName': 'RIGHT', 'positionCoords': [978.12, 243.5], 'bid': 8.72}]",138923.69999998808,1669842512526,cherry tomato,salad w chicken,9.01,8.72,-0.28999999999999915,salad w chicken,1237.7000000476837,1238,1238.300000011921,True,i,140676.30000001192,1752.6000000238419,1669842514278,1752,HRV,HRV_0301,2022-11-30 21:11:50
76,"[{'imgObject': {}, 'id': 'blueberries', 'src': '/static/foodstim60/blueberries.jpg', 'key': 'u', 'origWidth': 411, 'origHeight': 411, 'width': 411, 'height': 411, 'widthPercent': 0.45, 'rescaleHeight': False, 'trialN': 76, 'loaded': True, 'loadedTime': 2394.300000011921, 'positionName': 'LEFT', 'positionCoords': [491.88, 243.5], 'bid': 3.21}, {'imgObject': {}, 'id': 'avocado', 'src': '/static/foodstim60/avocado.jpg', 'key': 'i', 'origWidth': 409, 'origHeight': 409, 'width': 409, 'height': 409, 'widthPercent': 0.45, 'rescaleHeight': False, 'trialN': 76, 'loaded': True, 'loadedTime': 2372.800000011921, 'positionName': 'RIGHT', 'positionCoords': [978.12, 244.5], 'bid': 6.3100000000000005}]",140676.5,1669842514278,blueberries,avocado,3.21,6.3100000000000005,3.1000000000000005,avocado,1215.300000011921,1216,1216.1000000238419,True,i,142401.40000003576,1724.9000000357628,1669842516003,1725,HRV,HRV_0301,2022-11-30 21:11:50
77,"[{'imgObject': {}, 'id': 'salad w chicken', 'src': '/static/foodstim60/salad w chicken.jpg', 'key': 'u', 'origWidth': 411, 'origHeight': 411, 'width': 411, 'height': 411, 'widthPercent': 0.45, 'rescaleHeight': False, 'trialN': 77, 'loaded': True, 'loadedTime': 2300.900000035763, 'positionName': 'LEFT', 'positionCoords': [491.88, 243.5], 'bid': 8.72}, {'imgObject': {}, 'id': 'omelette', 'src': '/static/foodstim60/omelette.jpg', 'key': 'i', 'origWidth': 410, 'origHeight': 409, 'width': 410, 'height': 409, 'widthPercent': 0.45, 'rescaleHeight': False, 'trialN': 77, 'loaded': True, 'loadedTime': 2166.699999988079, 'positionName': 'RIGHT', 'positionCoords': [978.12, 244.5], 'bid': 5.91}]",142401.69999998808,1669842516003,salad w chicken,omelette,8.72,5.91,-2.8100000000000005,salad w chicken,1122.5,1124,1123.1000000238419,True,u,144033.40000003576,1631.7000000476837,1669842517635,1632,HRV,HRV_0301,2022-11-30 21:11:50
78,"[{'imgObject': {}, 'id': 'grilled chicken strips', 'src': '/static/foodstim60/grilled chicken strips.jpg', 'key': 'u', 'origWidth': 410, 'origHeight': 411, 'width': 410, 'height': 411, 'widthPercent': 0.45, 'rescaleHeight': False, 'trialN': 78, 'loaded': True, 'loadedTime': 2369.900000035763, 'positionName': 'LEFT', 'positionCoords': [492.88, 243.5], 'bid': 0.67}, {'imgObject': {}, 'id': 'burrito', 'src': '/static/foodstim60/burrito.jpg', 'key': 'i', 'origWidth': 410, 'origHeight': 410, 'width': 410, 'height': 410, 'widthPercent': 0.45, 'rescaleHeight': False, 'trialN': 78, 'loaded': True, 'loadedTime': 2259.699999988079, 'positionName': 'RIGHT', 'positionCoords': [978.12, 244], 'bid': 0.76}]",144033.69999998808,1669842517636,grilled chicken strips,burrito,0.67,0.76,0.08999999999999997,grilled chicken strips,1689.5,1690,1690.300000011921,True,u,146229.19999998808,2195.5,1669842519831,2195,HRV,HRV_0301,2022-11-30 21:11:50
79,"[{'imgObject': {}, 'id': 'roastedpotatoes', 'src': '/static/foodstim60/roastedpotatoes.jpg', 'key': 'u', 'origWidth': 409, 'origHeight': 410, 'width': 409, 'height': 410, 'widthPercent': 0.45, 'rescaleHeight': False, 'trialN': 79, 'loaded': True, 'loadedTime': 2302.199999988079, 'positionName': 'LEFT', 'positionCoords': [493.88, 244], 'bid': 2.14}, {'imgObject': {}, 'id': 'eggs', 'src': '/static/foodstim60/eggs.jpg', 'key': 'i', 'origWidth': 409, 'origHeight': 409, 'width': 409, 'height': 409, 'widthPercent': 0.45, 'rescaleHeight': False, 'trialN': 79, 'loaded': True, 'loadedTime': 2396, 'positionName': 'RIGHT', 'positionCoords': [978.12, 244.5], 'bid': 8.69}]",146229.30000001192,1669842519831,roastedpotatoes,eggs,2.14,8.69,6.549999999999999,eggs,957.3999999761581,958,958.1000000238419,True,i,147689.69999998808,1460.3999999761581,1669842521291,1460,HRV,HRV_0301,2022-11-30 21:11:50
80,"[{'imgObject': {}, 'id': 'granola w milk', 'src': '/static/foodstim60/granola w milk.jpg', 'key': 'u', 'origWidth': 410, 'origHeight': 410, 'width': 410, 'height': 410, 'widthPercent': 0.45, 'rescaleHeight': False, 'trialN': 80, 'loaded': True, 'loadedTime': 2340.5, 'positionName': 'LEFT', 'positionCoords': [492.88, 244], 'bid': 0.99}, {'imgObject': {}, 'id': 'raspberries', 'src': '/static/foodstim60/raspberries.jpg', 'key': 'i', 'origWidth': 411, 'origHeight': 411, 'width': 411, 'height': 411, 'widthPercent': 0.45, 'rescaleHeight': False, 'trialN': 80, 'loaded': True, 'loadedTime': 2188.100000023842, 'positionName': 'RIGHT', 'positionCoords': [978.12, 243.5], 'bid': 2.25}]",147689.69999998808,1669842521292,granola w milk,raspberries,0.99,2.25,1.26,raspberries,1427.1000000238419,1427,1427.800000011921,True,i,149633.19999998808,1943.5,1669842523235,1943,HRV,HRV_0301,2022-11-30 21:11:50
81,"[{'imgObject': {}, 'id': 'popsicles', 'src': '/static/foodstim60/popsicles.jpg', 'key': 'u', 'origWidth': 410, 'origHeight': 410, 'width': 410, 'height': 410, 'widthPercent': 0.45, 'rescaleHeight': False, 'trialN': 81, 'loaded': True, 'loadedTime': 2382.900000035763, 'positionName': 'LEFT', 'positionCoords': [492.88, 244], 'bid': 1.16}, {'imgObject': {}, 'id': 'pear', 'src': '/static/foodstim60/pear.jpg', 'key': 'i', 'origWidth': 411, 'origHeight': 410, 'width': 411, 'height': 410, 'widthPercent': 0.45, 'rescaleHeight': False, 'trialN': 81, 'loaded': True, 'loadedTime': 2171.699999988079, 'positionName': 'RIGHT', 'positionCoords': [978.12, 244], 'bid': 0.99}]",149633.40000003576,1669842523235,popsicles,pear,1.16,0.99,-0.16999999999999993,pear,1364.699999988079,1366,1365.5,True,i,151503.0,1869.5999999642372,1669842525105,1870,HRV,HRV_0301,2022-11-30 21:11:50
82,"[{'imgObject': {}, 'id': 'avocado', 'src': '/static/foodstim60/avocado.jpg', 'key': 'u', 'origWidth': 409, 'origHeight': 409, 'width': 409, 'height': 409, 'widthPercent': 0.45, 'rescaleHeight': False, 'trialN': 82, 'loaded': True, 'loadedTime': 2377.900000035763, 'positionName': 'LEFT', 'positionCoords': [493.88, 244.5], 'bid': 6.3100000000000005}, {'imgObject': {}, 'id': 'kiwi', 'src': '/static/foodstim60/kiwi.jpg', 'key': 'i', 'origWidth': 410, 'origHeight': 410, 'width': 410, 'height': 410, 'widthPercent': 0.45, 'rescaleHeight': False, 'trialN': 82, 'loaded': True, 'loadedTime': 2186.300000011921, 'positionName': 'RIGHT', 'positionCoords': [978.12, 244], 'bid': 6.75}]",151503.30000001192,1669842525105,avocado,kiwi,6.3100000000000005,6.75,0.4399999999999995,avocado,1083.800000011921,1085,1084.5,True,u,153090.90000003576,1587.6000000238419,1669842526693,1588,HRV,HRV_0301,2022-11-30 21:11:50
83,"[{'imgObject': {}, 'id': 'shreddedwheatwithmilk', 'src': '/static/foodstim60/shreddedwheatwithmilk.jpg', 'key': 'u', 'origWidth': 410, 'origHeight': 410, 'width': 410, 'height': 410, 'widthPercent': 0.45, 'rescaleHeight': False, 'trialN': 83, 'loaded': True, 'loadedTime': 2387.699999988079, 'positionName': 'LEFT', 'positionCoords': [492.88, 244], 'bid': 1.09}, {'imgObject': {}, 'id': 'grilled chicken strips', 'src': '/static/foodstim60/grilled chicken strips.jpg', 'key': 'i', 'origWidth': 410, 'origHeight': 411, 'width': 410, 'height': 411, 'widthPercent': 0.45, 'rescaleHeight': False, 'trialN': 83, 'loaded': True, 'loadedTime': 2370.900000035763, 'positionName': 'RIGHT', 'positionCoords': [978.12, 243.5], 'bid': 0.67}]",153091.10000002384,1669842526693,shreddedwheatwithmilk,grilled chicken strips,1.09,0.67,-0.42000000000000004,shreddedwheatwithmilk,1644.699999988079,1645,1645.5999999642372,True,u,155240.19999998808,2149.099999964237,1669842528842,2149,HRV,HRV_0301,2022-11-30 21:11:50
84,"[{'imgObject': {}, 'id': 'cantaloupe', 'src': '/static/foodstim60/cantaloupe.jpg', 'key': 'u', 'origWidth': 409, 'origHeight': 409, 'width': 409, 'height': 409, 'widthPercent': 0.45, 'rescaleHeight': False, 'trialN': 84, 'loaded': True, 'loadedTime': 2197.900000035763, 'positionName': 'LEFT', 'positionCoords': [493.88, 244.5], 'bid': 1.46}, {'imgObject': {}, 'id': 'cherries', 'src': '/static/foodstim60/cherries.jpg', 'key': 'i', 'origWidth': 410, 'origHeight': 411, 'width': 410, 'height': 411, 'widthPercent': 0.45, 'rescaleHeight': False, 'trialN': 84, 'loaded': True, 'loadedTime': 2208.800000011921, 'positionName': 'RIGHT', 'positionCoords': [978.12, 243.5], 'bid': 1.47}]",155240.30000001192,1669842528842,cantaloupe,cherries,1.46,1.47,0.010000000000000009,cherries,1679.800000011921,1681,1680.3999999761581,True,i,157433.10000002384,2192.800000011921,1669842531035,2193,HRV,HRV_0301,2022-11-30 21:11:50
85,"[{'imgObject': {}, 'id': 'burrito', 'src': '/static/foodstim60/burrito.jpg', 'key': 'u', 'origWidth': 410, 'origHeight': 410, 'width': 410, 'height': 410, 'widthPercent': 0.45, 'rescaleHeight': False, 'trialN': 85, 'loaded': True, 'loadedTime': 2265, 'positionName': 'LEFT', 'positionCoords': [492.88, 244], 'bid': 0.76}, {'imgObject': {}, 'id': 'banana', 'src': '/static/foodstim60/banana.jpg', 'key': 'i', 'origWidth': 410, 'origHeight': 410, 'width': 410, 'height': 410, 'widthPercent': 0.45, 'rescaleHeight': False, 'trialN': 85, 'loaded': True, 'loadedTime': 2242.699999988079, 'positionName': 'RIGHT', 'positionCoords': [978.12, 244], 'bid': 5.0200000000000005}]",157433.30000001192,1669842531035,burrito,banana,0.76,5.0200000000000005,4.260000000000001,banana,1559.5,1560,1560.199999988079,True,i,159494.69999998808,2061.399999976158,1669842533097,2062,HRV,HRV_0301,2022-11-30 21:11:50
86,"[{'imgObject': {}, 'id': 'mac & cheese', 'src': '/static/foodstim60/mac & cheese.jpg', 'key': 'u', 'origWidth': 410, 'origHeight': 410, 'width': 410, 'height': 410, 'widthPercent': 0.45, 'rescaleHeight': False, 'trialN': 86, 'loaded': True, 'loadedTime': 2271.300000011921, 'positionName': 'LEFT', 'positionCoords': [492.88, 244], 'bid': 7.35}, {'imgObject': {}, 'id': 'steak', 'src': '/static/foodstim60/steak.jpg', 'key': 'i', 'origWidth': 410, 'origHeight': 410, 'width': 410, 'height': 410, 'widthPercent': 0.45, 'rescaleHeight': False, 'trialN': 86, 'loaded': True, 'loadedTime': 2177.900000035763, 'positionName': 'RIGHT', 'positionCoords': [978.12, 244], 'bid': 9.77}]",159494.90000003576,1669842533097,mac & cheese,steak,7.35,9.77,2.42,mac & cheese,1202.199999988079,1203,1202.8999999761581,True,u,161200.80000001192,1705.8999999761581,1669842534803,1706,HRV,HRV_0301,2022-11-30 21:11:50
87,"[{'imgObject': {}, 'id': 'olives', 'src': '/static/foodstim60/olives.jpg', 'key': 'u', 'origWidth': 410, 'origHeight': 410, 'width': 410, 'height': 410, 'widthPercent': 0.45, 'rescaleHeight': False, 'trialN': 87, 'loaded': True, 'loadedTime': 2369.800000011921, 'positionName': 'LEFT', 'positionCoords': [492.88, 244], 'bid': 1.48}, {'imgObject': {}, 'id': 'cherries', 'src': '/static/foodstim60/cherries.jpg', 'key': 'i', 'origWidth': 410, 'origHeight': 411, 'width': 410, 'height': 411, 'widthPercent': 0.45, 'rescaleHeight': False, 'trialN': 87, 'loaded': True, 'loadedTime': 2208.199999988079, 'positionName': 'RIGHT', 'positionCoords': [978.12, 243.5], 'bid': 1.47}]",161200.90000003576,1669842534803,olives,cherries,1.48,1.47,-0.010000000000000009,olives,1684.699999988079,1690,1690.5999999642372,True,u,163400.19999998808,2199.2999999523163,1669842537002,2199,HRV,HRV_0301,2022-11-30 21:11:50
88,"[{'imgObject': {}, 'id': 'Grapes', 'src': '/static/foodstim60/Grapes.jpg', 'key': 'u', 'origWidth': 411, 'origHeight': 411, 'width': 411, 'height': 411, 'widthPercent': 0.45, 'rescaleHeight': False, 'trialN': 88, 'loaded': True, 'loadedTime': 2353.699999988079, 'positionName': 'LEFT', 'positionCoords': [491.88, 243.5], 'bid': 4.86}, {'imgObject': {}, 'id': 'fried eggs', 'src': '/static/foodstim60/fried eggs.jpg', 'key': 'i', 'origWidth': 410, 'origHeight': 410, 'width': 410, 'height': 410, 'widthPercent': 0.45, 'rescaleHeight': False, 'trialN': 88, 'loaded': True, 'loadedTime': 2397.600000023842, 'positionName': 'RIGHT', 'positionCoords': [978.12, 244], 'bid': 4.3100000000000005}]",163400.30000001192,1669842537002,Grapes,fried eggs,4.86,4.3100000000000005,-0.5499999999999998,fried eggs,1463.800000011921,1484,1483.300000011921,True,i,165388.5,1988.199999988079,1669842538990,1988,HRV,HRV_0301,2022-11-30 21:11:50
89,"[{'imgObject': {}, 'id': 'mango', 'src': '/static/foodstim60/mango.jpg', 'key': 'u', 'origWidth': 411, 'origHeight': 411, 'width': 411, 'height': 411, 'widthPercent': 0.45, 'rescaleHeight': False, 'trialN': 89, 'loaded': True, 'loadedTime': 2195.100000023842, 'positionName': 'LEFT', 'positionCoords': [491.88, 243.5], 'bid': 1.47}, {'imgObject': {}, 'id': 'corn cob', 'src': '/static/foodstim60/corn cob.jpg', 'key': 'i', 'origWidth': 411, 'origHeight': 411, 'width': 411, 'height': 411, 'widthPercent': 0.45, 'rescaleHeight': False, 'trialN': 89, 'loaded': True, 'loadedTime': 2257.300000011921, 'positionName': 'RIGHT', 'positionCoords': [978.12, 243.5], 'bid': 7.84}]",165388.69999998808,1669842538991,mango,corn cob,1.47,7.84,6.37,corn cob,1050.800000011921,1051,1051.4000000357628,True,i,166950.0,1561.300000011921,1669842540552,1561,HRV,HRV_0301,2022-11-30 21:11:50
90,"[{'imgObject': {}, 'id': 'lox', 'src': '/static/foodstim60/lox.jpg', 'key': 'u', 'origWidth': 410, 'origHeight': 411, 'width': 410, 'height': 411, 'widthPercent': 0.45, 'rescaleHeight': False, 'trialN': 90, 'loaded': True, 'loadedTime': 2392.199999988079, 'positionName': 'LEFT', 'positionCoords': [492.88, 243.5], 'bid': 0.07}, {'imgObject': {}, 'id': 'seaweed', 'src': '/static/foodstim60/seaweed.jpg', 'key': 'i', 'origWidth': 410, 'origHeight': 410, 'width': 410, 'height': 410, 'widthPercent': 0.45, 'rescaleHeight': False, 'trialN': 90, 'loaded': True, 'loadedTime': 2163.699999988079, 'positionName': 'RIGHT', 'positionCoords': [978.12, 244], 'bid': 0.27}]",180737.0,1669842554339,lox,seaweed,0.07,0.27,0.2,seaweed,1007.5,1008,1008.1000000238419,True,i,182260.5,1523.5,1669842555862,1523,HRV,HRV_0301,2022-11-30 21:11:50
91,"[{'imgObject': {}, 'id': 'chickenfingers', 'src': '/static/foodstim60/chickenfingers.jpg', 'key': 'u', 'origWidth': 410, 'origHeight': 410, 'width': 410, 'height': 410, 'widthPercent': 0.45, 'rescaleHeight': False, 'trialN': 91, 'loaded': True, 'loadedTime': 2316.800000011921, 'positionName': 'LEFT', 'positionCoords': [492.88, 244], 'bid': 2.25}, {'imgObject': {}, 'id': 'banana', 'src': '/static/foodstim60/banana.jpg', 'key': 'i', 'origWidth': 410, 'origHeight': 410, 'width': 410, 'height': 410, 'widthPercent': 0.45, 'rescaleHeight': False, 'trialN': 91, 'loaded': True, 'loadedTime': 2242.199999988079, 'positionName': 'RIGHT', 'positionCoords': [978.12, 244], 'bid': 5.0200000000000005}]",182260.60000002384,1669842555863,chickenfingers,banana,2.25,5.0200000000000005,2.7700000000000005,banana,1940.5999999642372,1941,1941.5,True,i,184711.60000002384,2451.0,1669842558313,2450,HRV,HRV_0301,2022-11-30 21:11:50
92,"[{'imgObject': {}, 'id': 'turkeysandwich', 'src': '/static/foodstim60/turkeysandwich.jpg', 'key': 'u', 'origWidth': 409, 'origHeight': 409, 'width': 409, 'height': 409, 'widthPercent': 0.45, 'rescaleHeight': False, 'trialN': 92, 'loaded': True, 'loadedTime': 2330.800000011921, 'positionName': 'LEFT', 'positionCoords': [493.88, 244.5], 'bid': 6.01}, {'imgObject': {}, 'id': 'rigatoni and sauce', 'src': '/static/foodstim60/rigatoni and sauce.jpg', 'key': 'i', 'origWidth': 410, 'origHeight': 411, 'width': 410, 'height': 411, 'widthPercent': 0.45, 'rescaleHeight': False, 'trialN': 92, 'loaded': True, 'loadedTime': 2183.699999988079, 'positionName': 'RIGHT', 'positionCoords': [978.12, 243.5], 'bid': 6.16}]",184711.69999998808,1669842558314,turkeysandwich,rigatoni and sauce,6.01,6.16,0.15000000000000036,rigatoni and sauce,1043.800000011921,1044,1044.4000000357628,True,i,186260.60000002384,1548.9000000357628,1669842559863,1549,HRV,HRV_0301,2022-11-30 21:11:50
93,"[{'imgObject': {}, 'id': 'pear', 'src': '/static/foodstim60/pear.jpg', 'key': 'u', 'origWidth': 411, 'origHeight': 410, 'width': 411, 'height': 410, 'widthPercent': 0.45, 'rescaleHeight': False, 'trialN': 93, 'loaded': True, 'loadedTime': 2171.5, 'positionName': 'LEFT', 'positionCoords': [491.88, 244], 'bid': 0.99}, {'imgObject': {}, 'id': 'chickenfingers', 'src': '/static/foodstim60/chickenfingers.jpg', 'key': 'i', 'origWidth': 410, 'origHeight': 410, 'width': 410, 'height': 410, 'widthPercent': 0.45, 'rescaleHeight': False, 'trialN': 93, 'loaded': True, 'loadedTime': 2316.199999988079, 'positionName': 'RIGHT', 'positionCoords': [978.12, 244], 'bid': 2.25}]",186260.80000001192,1669842559863,pear,chickenfingers,0.99,2.25,1.26,pear,1112.1000000238419,1112,1112.800000011921,True,u,187881.80000001192,1621.0,1669842561484,1621,HRV,HRV_0301,2022-11-30 21:11:50
94,"[{'imgObject': {}, 'id': 'cocktailshrimp', 'src': '/static/foodstim60/cocktailshrimp.jpg', 'key': 'u', 'origWidth': 410, 'origHeight': 410, 'width': 410, 'height': 410, 'widthPercent': 0.45, 'rescaleHeight': False, 'trialN': 94, 'loaded': True, 'loadedTime': 2309.300000011921, 'positionName': 'LEFT', 'positionCoords': [492.88, 244], 'bid': 0.18}, {'imgObject': {}, 'id': 'shreddedwheatwithmilk', 'src': '/static/foodstim60/shreddedwheatwithmilk.jpg', 'key': 'i', 'origWidth': 410, 'origHeight': 410, 'width': 410, 'height': 410, 'widthPercent': 0.45, 'rescaleHeight': False, 'trialN': 94, 'loaded': True, 'loadedTime': 2387.5, 'positionName': 'RIGHT', 'positionCoords': [978.12, 244], 'bid': 1.09}]",187881.90000003576,1669842561484,cocktailshrimp,shreddedwheatwithmilk,0.18,1.09,0.9100000000000001,shreddedwheatwithmilk,985.2999999523163,989,989.0999999642372,True,i,189373.69999998808,1491.7999999523163,1669842562976,1492,HRV,HRV_0301,2022-11-30 21:11:50
95,"[{'imgObject': {}, 'id': 'froot loops w milk', 'src': '/static/foodstim60/froot loops w milk.jpg', 'key': 'u', 'origWidth': 410, 'origHeight': 410, 'width': 410, 'height': 410, 'widthPercent': 0.45, 'rescaleHeight': False, 'trialN': 95, 'loaded': True, 'loadedTime': 2167.300000011921, 'positionName': 'LEFT', 'positionCoords': [492.88, 244], 'bid': 0.84}, {'imgObject': {}, 'id': 'blackbeanswithrice', 'src': '/static/foodstim60/blackbeanswithrice.jpg', 'key': 'i', 'origWidth': 410, 'origHeight': 410, 'width': 410, 'height': 410, 'widthPercent': 0.45, 'rescaleHeight': False, 'trialN': 95, 'loaded': True, 'loadedTime': 2190.699999988079, 'positionName': 'RIGHT', 'positionCoords': [978.12, 244], 'bid': 0.8300000000000001}]",189373.90000003576,1669842562976,froot loops w milk,blackbeanswithrice,0.84,0.8300000000000001,-0.009999999999999898,froot loops w milk,1253.3999999761581,1254,1254.0,True,u,191136.30000001192,1762.3999999761581,1669842564738,1762,HRV,HRV_0301,2022-11-30 21:11:50
96,"[{'imgObject': {}, 'id': 'strawberries', 'src': '/static/foodstim60/strawberries.jpg', 'key': 'u', 'origWidth': 410, 'origHeight': 410, 'width': 410, 'height': 410, 'widthPercent': 0.45, 'rescaleHeight': False, 'trialN': 96, 'loaded': True, 'loadedTime': 2232.400000035763, 'positionName': 'LEFT', 'positionCoords': [492.88, 244], 'bid': 8.06}, {'imgObject': {}, 'id': 'orange slices', 'src': '/static/foodstim60/orange slices.jpg', 'key': 'i', 'origWidth': 409, 'origHeight': 410, 'width': 409, 'height': 410, 'widthPercent': 0.45, 'rescaleHeight': False, 'trialN': 96, 'loaded': True, 'loadedTime': 2385.100000023842, 'positionName': 'RIGHT', 'positionCoords': [978.12, 244], 'bid': 6}]",191136.40000003576,1669842564738,strawberries,orange slices,8.06,6.0,-2.0600000000000005,orange slices,1088.2999999523163,1089,1088.8999999761581,True,i,192735.60000002384,1599.199999988079,1669842566338,1600,HRV,HRV_0301,2022-11-30 21:11:50
97,"[{'imgObject': {}, 'id': 'froot loops w milk', 'src': '/static/foodstim60/froot loops w milk.jpg', 'key': 'u', 'origWidth': 410, 'origHeight': 410, 'width': 410, 'height': 410, 'widthPercent': 0.45, 'rescaleHeight': False, 'trialN': 97, 'loaded': True, 'loadedTime': 2169.199999988079, 'positionName': 'LEFT', 'positionCoords': [492.88, 244], 'bid': 0.84}, {'imgObject': {}, 'id': 'eggsalad', 'src': '/static/foodstim60/eggsalad.jpg', 'key': 'i', 'origWidth': 410, 'origHeight': 409, 'width': 410, 'height': 409, 'widthPercent': 0.45, 'rescaleHeight': False, 'trialN': 97, 'loaded': True, 'loadedTime': 2345.900000035763, 'positionName': 'RIGHT', 'positionCoords': [978.12, 244.5], 'bid': 0.8300000000000001}]",192735.80000001192,1669842566338,froot loops w milk,eggsalad,0.84,0.8300000000000001,-0.009999999999999898,eggsalad,1005.6000000238419,1006,1006.3000000119209,True,i,194258.10000002384,1522.300000011921,1669842567860,1522,HRV,HRV_0301,2022-11-30 21:11:50
98,"[{'imgObject': {}, 'id': 'veggieswithdip', 'src': '/static/foodstim60/veggieswithdip.jpg', 'key': 'u', 'origWidth': 409, 'origHeight': 409, 'width': 409, 'height': 409, 'widthPercent': 0.45, 'rescaleHeight': False, 'trialN': 98, 'loaded': True, 'loadedTime': 2338.900000035763, 'positionName': 'LEFT', 'positionCoords': [493.88, 244.5], 'bid': 4.9}, {'imgObject': {}, 'id': 'grilled chicken strips', 'src': '/static/foodstim60/grilled chicken strips.jpg', 'key': 'i', 'origWidth': 410, 'origHeight': 411, 'width': 410, 'height': 411, 'widthPercent': 0.45, 'rescaleHeight': False, 'trialN': 98, 'loaded': True, 'loadedTime': 2371.400000035763, 'positionName': 'RIGHT', 'positionCoords': [978.12, 243.5], 'bid': 0.67}]",194258.40000003576,1669842567860,veggieswithdip,grilled chicken strips,4.9,0.67,-4.23,veggieswithdip,1206.0999999642372,1207,1206.8999999761581,True,u,195975.69999998808,1717.2999999523163,1669842569578,1718,HRV,HRV_0301,2022-11-30 21:11:50
99,"[{'imgObject': {}, 'id': 'salmon', 'src': '/static/foodstim60/salmon.jpg', 'key': 'u', 'origWidth': 410, 'origHeight': 409, 'width': 410, 'height': 409, 'widthPercent': 0.45, 'rescaleHeight': False, 'trialN': 99, 'loaded': True, 'loadedTime': 2388.300000011921, 'positionName': 'LEFT', 'positionCoords': [492.88, 244.5], 'bid': 0.51}, {'imgObject': {}, 'id': 'Grapes', 'src': '/static/foodstim60/Grapes.jpg', 'key': 'i', 'origWidth': 411, 'origHeight': 411, 'width': 411, 'height': 411, 'widthPercent': 0.45, 'rescaleHeight': False, 'trialN': 99, 'loaded': True, 'loadedTime': 2354.199999988079, 'positionName': 'RIGHT', 'positionCoords': [978.12, 243.5], 'bid': 4.86}]",195975.90000003576,1669842569578,salmon,Grapes,0.51,4.86,4.3500000000000005,Grapes,933.7999999523163,934,934.5999999642372,True,i,197424.30000001192,1448.3999999761581,1669842571026,1448,HRV,HRV_0301,2022-11-30 21:11:50
100,"[{'imgObject': {}, 'id': 'bagel plain', 'src': '/static/foodstim60/bagel plain.jpg', 'key': 'u', 'origWidth': 410, 'origHeight': 410, 'width': 410, 'height': 410, 'widthPercent': 0.45, 'rescaleHeight': False, 'trialN': 100, 'loaded': True, 'loadedTime': 2181.800000011921, 'positionName': 'LEFT', 'positionCoords': [492.88, 244], 'bid': 5.05}, {'imgObject': {}, 'id': 'rigatoni and sauce', 'src': '/static/foodstim60/rigatoni and sauce.jpg', 'key': 'i', 'origWidth': 410, 'origHeight': 411, 'width': 410, 'height': 411, 'widthPercent': 0.45, 'rescaleHeight': False, 'trialN': 100, 'loaded': True, 'loadedTime': 2184.5, 'positionName': 'RIGHT', 'positionCoords': [978.12, 243.5], 'bid': 6.16}]",197424.40000003576,1669842571026,bagel plain,rigatoni and sauce,5.05,6.16,1.1100000000000003,rigatoni and sauce,1103.199999988079,1096,1103.7999999523163,True,i,199040.0,1615.5999999642372,1669842572634,1608,HRV,HRV_0301,2022-11-30 21:11:50
101,"[{'imgObject': {}, 'id': 'orange slices', 'src': '/static/foodstim60/orange slices.jpg', 'key': 'u', 'origWidth': 409, 'origHeight': 410, 'width': 409, 'height': 410, 'widthPercent': 0.45, 'rescaleHeight': False, 'trialN': 101, 'loaded': True, 'loadedTime': 2385.199999988079, 'positionName': 'LEFT', 'positionCoords': [493.88, 244], 'bid': 6}, {'imgObject': {}, 'id': 'granola w milk', 'src': '/static/foodstim60/granola w milk.jpg', 'key': 'i', 'origWidth': 410, 'origHeight': 410, 'width': 410, 'height': 410, 'widthPercent': 0.45, 'rescaleHeight': False, 'trialN': 101, 'loaded': True, 'loadedTime': 2340.199999988079, 'positionName': 'RIGHT', 'positionCoords': [978.12, 244], 'bid': 0.99}]",199040.19999998808,1669842572634,orange slices,granola w milk,6.0,0.99,-5.01,orange slices,1194.6000000238419,1195,1195.1000000238419,True,u,200738.19999998808,1698.0,1669842574332,1698,HRV,HRV_0301,2022-11-30 21:11:50
102,"[{'imgObject': {}, 'id': 'orange slices', 'src': '/static/foodstim60/orange slices.jpg', 'key': 'u', 'origWidth': 409, 'origHeight': 410, 'width': 409, 'height': 410, 'widthPercent': 0.45, 'rescaleHeight': False, 'trialN': 102, 'loaded': True, 'loadedTime': 2384.699999988079, 'positionName': 'LEFT', 'positionCoords': [493.88, 244], 'bid': 6}, {'imgObject': {}, 'id': 'banana', 'src': '/static/foodstim60/banana.jpg', 'key': 'i', 'origWidth': 410, 'origHeight': 410, 'width': 410, 'height': 410, 'widthPercent': 0.45, 'rescaleHeight': False, 'trialN': 102, 'loaded': True, 'loadedTime': 2243.199999988079, 'positionName': 'RIGHT', 'positionCoords': [978.12, 244], 'bid': 5.0200000000000005}]",200738.40000003576,1669842574332,orange slices,banana,6.0,5.0200000000000005,-0.9799999999999995,orange slices,1058.0,1059,1058.699999988079,True,u,202304.10000002384,1565.699999988079,1669842575898,1566,HRV,HRV_0301,2022-11-30 21:11:50
103,"[{'imgObject': {}, 'id': 'banana', 'src': '/static/foodstim60/banana.jpg', 'key': 'u', 'origWidth': 410, 'origHeight': 410, 'width': 410, 'height': 410, 'widthPercent': 0.45, 'rescaleHeight': False, 'trialN': 103, 'loaded': True, 'loadedTime': 2235.100000023842, 'positionName': 'LEFT', 'positionCoords': [492.88, 244], 'bid': 5.0200000000000005}, {'imgObject': {}, 'id': 'veggieswithdip', 'src': '/static/foodstim60/veggieswithdip.jpg', 'key': 'i', 'origWidth': 409, 'origHeight': 409, 'width': 409, 'height': 409, 'widthPercent': 0.45, 'rescaleHeight': False, 'trialN': 103, 'loaded': True, 'loadedTime': 2338.600000023842, 'positionName': 'RIGHT', 'positionCoords': [978.12, 244.5], 'bid': 4.9}]",202304.30000001192,1669842575898,banana,veggieswithdip,5.0200000000000005,4.9,-0.1200000000000001,veggieswithdip,956.8999999761581,957,957.5,True,i,203769.10000002384,1464.800000011921,1669842577363,1465,HRV,HRV_0301,2022-11-30 21:11:50
104,"[{'imgObject': {}, 'id': 'fruitsalad', 'src': '/static/foodstim60/fruitsalad.jpg', 'key': 'u', 'origWidth': 410, 'origHeight': 410, 'width': 410, 'height': 410, 'widthPercent': 0.45, 'rescaleHeight': False, 'trialN': 104, 'loaded': True, 'loadedTime': 2200.400000035763, 'positionName': 'LEFT', 'positionCoords': [492.88, 244], 'bid': 7.42}, {'imgObject': {}, 'id': 'Grapes', 'src': '/static/foodstim60/Grapes.jpg', 'key': 'i', 'origWidth': 411, 'origHeight': 411, 'width': 411, 'height': 411, 'widthPercent': 0.45, 'rescaleHeight': False, 'trialN': 104, 'loaded': True, 'loadedTime': 2353, 'positionName': 'RIGHT', 'positionCoords': [978.12, 243.5], 'bid': 4.86}]",203769.30000001192,1669842577363,fruitsalad,Grapes,7.42,4.86,-2.5599999999999996,fruitsalad,993.8000000119209,994,994.3999999761581,True,u,205267.0,1497.699999988079,1669842578860,1497,HRV,HRV_0301,2022-11-30 21:11:50
105,"[{'imgObject': {}, 'id': 'mac & cheese', 'src': '/static/foodstim60/mac & cheese.jpg', 'key': 'u', 'origWidth': 410, 'origHeight': 410, 'width': 410, 'height': 410, 'widthPercent': 0.45, 'rescaleHeight': False, 'trialN': 105, 'loaded': True, 'loadedTime': 2272.5, 'positionName': 'LEFT', 'positionCoords': [492.88, 244], 'bid': 7.35}, {'imgObject': {}, 'id': 'eggs', 'src': '/static/foodstim60/eggs.jpg', 'key': 'i', 'origWidth': 409, 'origHeight': 409, 'width': 409, 'height': 409, 'widthPercent': 0.45, 'rescaleHeight': False, 'trialN': 105, 'loaded': True, 'loadedTime': 2396.100000023842, 'positionName': 'RIGHT', 'positionCoords': [978.12, 244.5], 'bid': 8.69}]",205267.0,1669842578861,mac & cheese,eggs,7.35,8.69,1.3399999999999999,mac & cheese,1163.0,1163,1163.5,True,u,206944.5,1677.5,1669842580538,1677,HRV,HRV_0301,2022-11-30 21:11:50
106,"[{'imgObject': {}, 'id': 'eggsalad', 'src': '/static/foodstim60/eggsalad.jpg', 'key': 'u', 'origWidth': 410, 'origHeight': 409, 'width': 410, 'height': 409, 'widthPercent': 0.45, 'rescaleHeight': False, 'trialN': 106, 'loaded': True, 'loadedTime': 2341.400000035763, 'positionName': 'LEFT', 'positionCoords': [492.88, 244.5], 'bid': 0.8300000000000001}, {'imgObject': {}, 'id': 'lox', 'src': '/static/foodstim60/lox.jpg', 'key': 'i', 'origWidth': 410, 'origHeight': 411, 'width': 410, 'height': 411, 'widthPercent': 0.45, 'rescaleHeight': False, 'trialN': 106, 'loaded': True, 'loadedTime': 2392.400000035763, 'positionName': 'RIGHT', 'positionCoords': [978.12, 243.5], 'bid': 0.07}]",206944.69999998808,1669842580538,eggsalad,lox,0.8300000000000001,0.07,-0.76,lox,1489.9000000357628,1491,1490.7000000476837,True,i,208945.60000002384,2000.9000000357628,1669842582539,2001,HRV,HRV_0301,2022-11-30 21:11:50
107,"[{'imgObject': {}, 'id': 'steak', 'src': '/static/foodstim60/steak.jpg', 'key': 'u', 'origWidth': 410, 'origHeight': 410, 'width': 410, 'height': 410, 'widthPercent': 0.45, 'rescaleHeight': False, 'trialN': 107, 'loaded': True, 'loadedTime': 2178.100000023842, 'positionName': 'LEFT', 'positionCoords': [492.88, 244], 'bid': 9.77}, {'imgObject': {}, 'id': 'Tribe humus pita', 'src': '/static/foodstim60/Tribe humus pita.jpg', 'key': 'i', 'origWidth': 411, 'origHeight': 411, 'width': 411, 'height': 411, 'widthPercent': 0.45, 'rescaleHeight': False, 'trialN': 107, 'loaded': True, 'loadedTime': 2294.100000023842, 'positionName': 'RIGHT', 'positionCoords': [978.12, 243.5], 'bid': 8.8}]",208945.80000001192,1669842582539,steak,Tribe humus pita,9.77,8.8,-0.9699999999999989,steak,919.8999999761581,921,920.6000000238419,True,u,210382.10000002384,1436.300000011921,1669842583976,1437,HRV,HRV_0301,2022-11-30 21:11:50
