success,trial_type,trial_index,time_elapsed,internal_node_id,Block,TrialNumber,TrialTime,trialTimeDiff,FPS_avg,FPS_med,FPS_mode,TrialDur,winResizeTime,rt,block,button_pressed,MotCoh,MotDir,ColCoh,Color,ChoiceKey,Choice,Accuracy,RT,nFrames,FPS,PPD,missTrial,missTrialMsg,onsetDelay,fullScreenExitTime,canvCenter,TrialType,Score,BlockTrial,stimulus,button_labels,exp,subjectId,date
True,fullscreen,0,2023,0.0-0.0,0.0,1.0,,,,,,,,,,,,,,,,,,,,,,,,,,,,,,,,HRV,HRV_0301,2022-11-30 21:22:43
,wl-check-fps,1,7029,0.0-1.0,0.0,2.0,"[11826.5, 11832.6, 11849.5, 11865.4, 11883, 11898.9, 11916, 11932.9, 11949.5, 11966, 11982.9, 11998.8, 12015.5, 12032.7, 12049, 12066.1, 12082.8, 12099.2, 12115.8, 12132.3, 12148.9, 12165.4, 12182.7, 12199.2, 12216.2, 12232.2, 12249.3, 12266.1, 12282.4, 12298.8, 12315.7, 12333, 12348.9, 12365.4, 12382, 12399.4, 12415.6, 12432.8, 12449.1, 12465.8, 12482.6, 12499.3, 12516.1, 12532.4, 12549.2, 12565.4, 12582, 12599.2, 12615.5, 12632.6, 12648.9, 12665.6, 12682.4, 12699, 12715.2, 12732, 12748.5, 12765.5, 12782.2, 12799.1, 12815.7, 12832.1, 12849, 12865.5, 12882.4, 12898.6, 12915.2, 12932.3, 12948.9, 12965.3, 12981.8, 12998.4, 13015, 13032.3, 13049, 13065.4, 13082.4, 13099, 13115.1, 13131.8, 13148.5, 13165.1, 13182.5, 13198.9, 13215.5, 13232.5, 13248.7, 13265.2, 13282.3, 13298.7, 13315, 13332.1, 13348.3, 13365, 13381.9, 13399, 13415, 13432.3, 13448.6, 13465, 13481.9, 13499, 13515, 13532.3, 13548.9, 13565, 13581.7, 13598.9, 13615, 13631.7, 13648.7, 13665.4, 13681.9, 13698.8, 13715.5, 13732.4, 13748.6, 13764.8, 13782.4, 13799.1, 13814.8, 13832.2, 13848.7, 13865.3, 13882.3, 13898.2, 13915.1, 13932.2, 13948.7, 13964.8, 13982, 13998.9, 14014.8, 14032.3, 14048.7, 14064.8, 14082.3, 14098.8, 14114.8, 14131.4, 14148.1, 14164.7, 14181.4, 14198.6, 14214.7, 14231.5, 14248.1, 14265, 14281.9, 14298.6, 14314.7, 14332, 14348.6, 14364.6, 14382, 14398.5, 14415.3, 14431.8, 14448.6, 14464.7, 14481.5, 14498.5, 14514.7, 14531.3, 14548.7, 14565.1, 14581.8, 14598.6, 14614.7, 14631.7, 14648.5, 14664.7, 14681.6, 14698.4, 14715.1, 14731.9, 14748.5, 14764.5, 14781.2, 14799.4, 14814.8, 14831.1, 14848.1, 14864.5, 14881.8, 14897.8, 14914.5, 14931.2, 14948.4, 14964.8, 14981.3, 14998.2, 15014.7, 15031.3, 15048.3, 15064.7, 15081.7, 15097.7, 15114.9, 15131.1, 15147.7, 15164.5, 15181.8, 15198.3, 15214.7, 15231, 15248.5, 15264.6, 15281.1, 15298.2, 15314.6, 15331.2, 15347.7, 15364.2, 15381.5, 15398, 15414.3, 15431.7, 15447.6, 15464.5, 15481.5, 15498.1, 15514.5, 15531.2, 15548.2, 15564.4, 15580.9, 15598.1, 15614.7, 15631.5, 15648.1, 15664.8, 15681.4, 15698.2, 15714.7, 15731.3, 15747.5, 15764.1, 15781.5, 15797.9, 15814.5, 15831.4, 15849.2, 15864.2, 15880.9, 15897.5, 15914.1, 15931.3, 15948.2, 15964.6, 15981.5, 15998.1, 16014.2, 16031.3, 16047.5, 16064.6, 16081.3, 16097.3, 16114, 16130.7, 16147.4, 16164.1, 16180.6, 16198, 16214.3, 16231.5, 16247.5, 16264.6, 16281.4, 16298, 16314.6, 16331, 16347.3, 16364.6, 16381.4, 16397.7, 16413.9, 16430.6, 16447.8, 16464.1, 16481.2, 16498, 16514.4, 16531.2, 16547.9, 16564.6, 16581.3, 16597.7, 16614.2, 16631.3, 16647.6, 16663.9, 16681.4, 16697.8, 16714.1, 16730.6, 16747.2, 16764.4, 16781.2, 16797.5]","[14.7, 6.1, 16.9, 15.9, 17.6, 15.9, 17.1, 16.9, 16.6, 16.5, 16.9, 15.9, 16.7, 17.2, 16.3, 17.1, 16.7, 16.4, 16.6, 16.5, 16.6, 16.5, 17.3, 16.5, 17, 16, 17.1, 16.8, 16.3, 16.4, 16.9, 17.3, 15.9, 16.5, 16.6, 17.4, 16.2, 17.2, 16.3, 16.7, 16.8, 16.7, 16.8, 16.3, 16.8, 16.2, 16.6, 17.2, 16.3, 17.1, 16.3, 16.7, 16.8, 16.6, 16.2, 16.8, 16.5, 17, 16.7, 16.9, 16.6, 16.4, 16.9, 16.5, 16.9, 16.2, 16.6, 17.1, 16.6, 16.4, 16.5, 16.6, 16.6, 17.3, 16.7, 16.4, 17, 16.6, 16.1, 16.7, 16.7, 16.6, 17.4, 16.4, 16.6, 17, 16.2, 16.5, 17.1, 16.4, 16.3, 17.1, 16.2, 16.7, 16.9, 17.1, 16, 17.3, 16.3, 16.4, 16.9, 17.1, 16, 17.3, 16.6, 16.1, 16.7, 17.2, 16.1, 16.7, 17, 16.7, 16.5, 16.9, 16.7, 16.9, 16.2, 16.2, 17.6, 16.7, 15.7, 17.4, 16.5, 16.6, 17, 15.9, 16.9, 17.1, 16.5, 16.1, 17.2, 16.9, 15.9, 17.5, 16.4, 16.1, 17.5, 16.5, 16, 16.6, 16.7, 16.6, 16.7, 17.2, 16.1, 16.8, 16.6, 16.9, 16.9, 16.7, 16.1, 17.3, 16.6, 16, 17.4, 16.5, 16.8, 16.5, 16.8, 16.1, 16.8, 17, 16.2, 16.6, 17.4, 16.4, 16.7, 16.8, 16.1, 17, 16.8, 16.2, 16.9, 16.8, 16.7, 16.8, 16.6, 16, 16.7, 18.2, 15.4, 16.3, 17, 16.4, 17.3, 16, 16.7, 16.7, 17.2, 16.4, 16.5, 16.9, 16.5, 16.6, 17, 16.4, 17, 16, 17.2, 16.2, 16.6, 16.8, 17.3, 16.5, 16.4, 16.3, 17.5, 16.1, 16.5, 17.1, 16.4, 16.6, 16.5, 16.5, 17.3, 16.5, 16.3, 17.4, 15.9, 16.9, 17, 16.6, 16.4, 16.7, 17, 16.2, 16.5, 17.2, 16.6, 16.8, 16.6, 16.7, 16.6, 16.8, 16.5, 16.6, 16.2, 16.6, 17.4, 16.4, 16.6, 16.9, 17.8, 15, 16.7, 16.6, 16.6, 17.2, 16.9, 16.4, 16.9, 16.6, 16.1, 17.1, 16.2, 17.1, 16.7, 16, 16.7, 16.7, 16.7, 16.7, 16.5, 17.4, 16.3, 17.2, 16, 17.1, 16.8, 16.6, 16.6, 16.4, 16.3, 17.3, 16.8, 16.3, 16.2, 16.7, 17.2, 16.3, 17.1, 16.8, 16.4, 16.8, 16.7, 16.7, 16.7, 16.4, 16.5, 17.1, 16.3, 16.3, 17.5, 16.4, 16.3, 16.5, 16.6, 17.2, 16.8, 16.3]",60.0,61.0,60.0,5002.6,[],,,,,,,,,,,,,,,,,,,,,,,,,HRV,HRV_0301,2022-11-30 21:22:43
,wl-html-keyboard-response,2,21520,0.0-2.0-0.0,0.0,3.0,,,,,,,,12474.5,0.0,0,,,,,,,,,,,,,,,,,,,,,,HRV,HRV_0301,2022-11-30 21:22:43
,wl-rdm,3,28613,0.0-3.0-0.0,0.0,4.0,,,,,,,[],,,,0.0,0.0,87.9,0.0,u,0.0,True,1488.9999999403954,90.0,60.0,40.0,False,,3000.0,[],"[940.5, 449]",ColorTask_Demo,,,,,HRV,HRV_0301,2022-11-30 21:22:43
,wl-rdm,4,34178,0.0-3.0-1.0,0.0,5.0,,,,,,,[],,,,0.0,0.0,87.9,1.0,i,1.0,True,1466.6000000238419,89.0,60.0,40.0,False,,2000.0,[],"[940.5, 449]",ColorTask_Demo,,,,,HRV,HRV_0301,2022-11-30 21:22:43
,wl-html-keyboard-response,5,39681,0.0-3.0-2.0,0.0,6.0,,,,,,,,3499.899999976158,0.0,1,,,,,,,,,,,,,,,,,,,,,,HRV,HRV_0301,2022-11-30 21:22:43
,wl-html-keyboard-response,6,49120,0.0-4.0-0.0,0.0,7.0,,,,,,,,7434.899999976158,0.0,0,,,,,,,,,,,,,,,,,,,,,,HRV,HRV_0301,2022-11-30 21:22:43
,wl-html-keyboard-response,7,65620,0.0-5.0-0.0,0.0,8.0,,,,,,,,14496.899999976158,0.0,0,,,,,,,,,,,,,,,,,,,,,,HRV,HRV_0301,2022-11-30 21:22:43
,wl-rdm,8,69566,0.0-6.0-0.0,0.0,9.0,,,,,,,[],,,,,,56.4,1.0,u,0.0,False,2573.800000011921,155.0,60.0,40.0,False,,294.47282398542586,[],"[940.5, 449]",ColorTask,-1.0,1.0,,,HRV,HRV_0301,2022-11-30 21:22:43
,wl-rdm,9,72215,0.0-6.1-0.1,0.0,10.0,,,,,,,[],,,,,,73.6,1.0,i,1.0,True,1323.300000011921,80.0,60.0,40.0,False,,241.22658833260707,[],"[940.5, 449]",ColorTask,0.0,2.0,,,HRV,HRV_0301,2022-11-30 21:22:43
,wl-rdm,10,74830,0.0-6.2-0.2,0.0,11.0,,,,,,,[],,,,,,50.0,1.0,i,1.0,True,1270.5,77.0,60.0,40.0,False,,262.4225665735021,[],"[940.5, 449]",ColorTask,1.0,3.0,,,HRV,HRV_0301,2022-11-30 21:22:43
,wl-rdm,11,77746,0.0-6.3-0.3,0.0,12.0,,,,,,,[],,,,,,73.6,1.0,i,1.0,True,1461.2999999523163,88.0,60.0,40.0,False,,391.26872851297105,[],"[940.5, 449]",ColorTask,2.0,4.0,,,HRV,HRV_0301,2022-11-30 21:22:43
,wl-rdm,12,80295,0.0-6.4-0.4,0.0,13.0,,,,,,,[],,,,,,87.9,1.0,i,1.0,True,1153.0,70.0,60.0,40.0,False,,304.46380333669373,[],"[940.5, 449]",ColorTask,3.0,5.0,,,HRV,HRV_0301,2022-11-30 21:22:43
,wl-rdm,13,82911,0.0-6.5-0.5,0.0,14.0,,,,,,,[],,,,,,50.0,1.0,u,0.0,False,1257.300000011921,76.0,60.0,40.0,False,,272.33352056827596,[],"[940.5, 449]",ColorTask,2.0,6.0,,,HRV,HRV_0301,2022-11-30 21:22:43
,wl-rdm,14,85594,0.0-6.6-0.6,0.0,15.0,,,,,,,[],,,,,,50.0,0.0,i,1.0,False,1202.8000000715256,73.0,60.0,40.0,False,,388.20783671685774,[],"[940.5, 449]",ColorTask,1.0,7.0,,,HRV,HRV_0301,2022-11-30 21:22:43
,wl-rdm,15,88093,0.0-6.7-0.7,0.0,16.0,,,,,,,[],,,,,,50.0,1.0,u,0.0,False,1125.300000011921,68.0,60.0,40.0,False,,285.2244698811823,[],"[940.5, 449]",ColorTask,0.0,8.0,,,HRV,HRV_0301,2022-11-30 21:22:43
,wl-rdm,16,90792,0.0-6.8-0.8,0.0,17.0,,,,,,,[],,,,,,62.5,1.0,u,0.0,False,1277.2000000476837,77.0,60.0,40.0,False,,353.8170828535865,[],"[940.5, 449]",ColorTask,-1.0,9.0,,,HRV,HRV_0301,2022-11-30 21:22:43
,wl-rdm,17,93357,0.0-6.9-0.9,0.0,18.0,,,,,,,[],,,,,,50.0,0.0,u,0.0,True,1202.300000011921,73.0,60.0,40.0,False,,291.1218983332743,[],"[940.5, 449]",ColorTask,0.0,10.0,,,HRV,HRV_0301,2022-11-30 21:22:43
,wl-rdm,18,95541,0.0-6.10-0.10,0.0,19.0,,,,,,,[],,,,,,87.9,0.0,u,0.0,True,884.5,54.0,60.0,40.0,False,,228.62158899742562,[],"[940.5, 449]",ColorTask,1.0,11.0,,,HRV,HRV_0301,2022-11-30 21:22:43
,wl-rdm,19,97923,0.0-6.11-0.11,0.0,20.0,,,,,,,[],,,,,,73.6,0.0,u,0.0,True,1039.6000000238419,63.0,60.0,40.0,False,,271.6369256608524,[],"[940.5, 449]",ColorTask,2.0,12.0,,,HRV,HRV_0301,2022-11-30 21:22:43
,wl-rdm,20,100738,0.0-6.12-0.12,0.0,21.0,,,,,,,[],,,,,,56.4,0.0,u,0.0,True,1388.9000000357628,84.0,60.0,40.0,False,,365.6785255968143,[],"[940.5, 449]",ColorTask,3.0,13.0,,,HRV,HRV_0301,2022-11-30 21:22:43
,wl-rdm,21,103271,0.0-6.13-0.13,0.0,22.0,,,,,,,[],,,,,,53.2,0.0,i,1.0,False,1218.6000000238419,74.0,60.0,40.0,False,,228.85615124762788,[],"[940.5, 449]",ColorTask,2.0,14.0,,,HRV,HRV_0301,2022-11-30 21:22:43
,wl-rdm,22,106403,0.0-6.14-0.14,0.0,23.0,,,,,,,[],,,,,,50.0,1.0,i,1.0,True,1739.4000000357628,105.0,60.0,40.0,False,,326.15194502989925,[],"[940.5, 449]",ColorTask,3.0,15.0,,,HRV,HRV_0301,2022-11-30 21:22:43
,wl-rdm,23,109803,0.0-6.15-0.15,0.0,24.0,,,,,,,[],,,,,,56.4,1.0,i,1.0,True,1941.5,117.0,60.0,40.0,False,,382.75332303763946,[],"[940.5, 449]",ColorTask,4.0,16.0,,,HRV,HRV_0301,2022-11-30 21:22:43
,wl-rdm,24,112134,0.0-6.16-0.16,0.0,25.0,,,,,,,[],,,,,,87.9,1.0,i,1.0,True,974.9000000357628,59.0,60.0,40.0,False,,270.6599780736118,[],"[940.5, 449]",ColorTask,5.0,17.0,,,HRV,HRV_0301,2022-11-30 21:22:43
,wl-rdm,25,115301,0.0-6.17-0.17,0.0,26.0,,,,,,,[],,,,,,56.4,1.0,i,1.0,True,1893.2999999523163,114.0,60.0,40.0,False,,211.9174317172314,[],"[940.5, 449]",ColorTask,6.0,18.0,,,HRV,HRV_0301,2022-11-30 21:22:43
,wl-rdm,26,118399,0.0-6.18-0.18,0.0,27.0,,,,,,,[],,,,,,56.4,1.0,i,1.0,True,1770.6999999284744,107.0,60.0,40.0,False,,258.62363868749105,[],"[940.5, 449]",ColorTask,7.0,19.0,,,HRV,HRV_0301,2022-11-30 21:22:43
,wl-rdm,27,120682,0.0-6.19-0.19,0.0,28.0,,,,,,,[],,,,,,87.9,0.0,u,0.0,True,919.1999999880791,56.0,60.0,40.0,False,,283.43346591623555,[],"[940.5, 449]",ColorTask,8.0,20.0,,,HRV,HRV_0301,2022-11-30 21:22:43
,wl-rdm,28,123531,0.0-6.20-0.20,0.0,29.0,,,,,,,[],,,,,,62.5,1.0,i,1.0,True,1441.199999988079,87.0,60.0,40.0,False,,332.8157863901881,[],"[940.5, 449]",ColorTask,9.0,21.0,,,HRV,HRV_0301,2022-11-30 21:22:43
,wl-rdm,29,126047,0.0-6.21-0.21,0.0,30.0,,,,,,,[],,,,,,53.2,0.0,u,0.0,True,1165.9000000357628,70.0,60.0,40.0,False,,286.72776906058556,[],"[940.5, 449]",ColorTask,10.0,22.0,,,HRV,HRV_0301,2022-11-30 21:22:43
,wl-rdm,30,128929,0.0-6.22-0.22,0.0,31.0,,,,,,,[],,,,,,73.6,1.0,i,1.0,True,1461.8999999761581,70.0,60.0,40.0,False,,335.089658935166,[],"[940.5, 449]",ColorTask,11.0,23.0,,,HRV,HRV_0301,2022-11-30 21:22:43
,wl-rdm,31,131545,0.0-6.23-0.23,0.0,32.0,,,,,,,[],,,,,,73.6,0.0,u,0.0,True,1228.1000000238419,74.0,60.0,40.0,False,,322.12384479534416,[],"[940.5, 449]",ColorTask,12.0,24.0,,,HRV,HRV_0301,2022-11-30 21:22:43
,wl-rdm,32,134594,0.0-6.24-0.24,0.0,33.0,,,,,,,[],,,,,,53.2,1.0,i,1.0,True,1724.8999999761581,104.0,60.0,40.0,False,,251.18175195972134,[],"[940.5, 449]",ColorTask,13.0,25.0,,,HRV,HRV_0301,2022-11-30 21:22:43
,wl-rdm,33,137893,0.0-6.25-0.25,0.0,34.0,,,,,,,[],,,,,,53.2,1.0,u,0.0,False,1992.9000000357628,120.0,60.0,40.0,False,,249.32356556433288,[],"[940.5, 449]",ColorTask,12.0,26.0,,,HRV,HRV_0301,2022-11-30 21:22:43
,wl-rdm,34,140858,0.0-6.26-0.26,0.0,35.0,,,,,,,[],,,,,,53.2,1.0,i,1.0,True,1609.8999999761581,97.0,60.0,40.0,False,,278.66065388197137,[],"[940.5, 449]",ColorTask,13.0,27.0,,,HRV,HRV_0301,2022-11-30 21:22:43
,wl-rdm,35,143724,0.0-6.27-0.27,0.0,36.0,,,,,,,[],,,,,,53.2,0.0,u,0.0,True,1489.6000000238419,90.0,60.0,40.0,False,,284.50448814401113,[],"[940.5, 449]",ColorTask,14.0,28.0,,,HRV,HRV_0301,2022-11-30 21:22:43
,wl-rdm,36,146557,0.0-6.28-0.28,0.0,37.0,,,,,,,[],,,,,,62.5,0.0,u,0.0,True,1366.800000011921,83.0,60.0,40.0,False,,379.8558058336951,[],"[940.5, 449]",ColorTask,15.0,29.0,,,HRV,HRV_0301,2022-11-30 21:22:43
,wl-rdm,37,150007,0.0-6.29-0.29,0.0,38.0,,,,,,,[],,,,,,56.4,0.0,u,0.0,True,2097.0,126.0,60.0,40.0,False,,297.94111775967497,[],"[940.5, 449]",ColorTask,16.0,30.0,,,HRV,HRV_0301,2022-11-30 21:22:43
,wl-rdm,38,152522,0.0-6.30-0.30,0.0,39.0,,,,,,,[],,,,,,50.0,0.0,i,1.0,False,1072.699999988079,65.0,60.0,40.0,False,,371.24000906895424,[],"[940.5, 449]",ColorTask,15.0,31.0,,,HRV,HRV_0301,2022-11-30 21:22:43
,wl-rdm,39,154921,0.0-6.31-0.31,0.0,40.0,,,,,,,[],,,,,,56.4,0.0,i,1.0,False,1088.5,66.0,60.0,40.0,False,,216.85728549057345,[],"[940.5, 449]",ColorTask,14.0,32.0,,,HRV,HRV_0301,2022-11-30 21:22:43
,wl-rdm,40,157403,0.0-6.32-0.32,0.0,41.0,,,,,,,[],,,,,,73.6,0.0,u,0.0,True,1056.4000000357628,64.0,60.0,40.0,False,,349.49254891424334,[],"[940.5, 449]",ColorTask,15.0,33.0,,,HRV,HRV_0301,2022-11-30 21:22:43
,wl-rdm,41,159919,0.0-6.33-0.33,0.0,42.0,,,,,,,[],,,,,,50.0,1.0,i,1.0,True,1173.3999999761581,71.0,60.0,40.0,False,,270.36315342984085,[],"[940.5, 449]",ColorTask,16.0,34.0,,,HRV,HRV_0301,2022-11-30 21:22:43
,wl-rdm,42,163119,0.0-6.34-0.34,0.0,43.0,,,,,,,[],,,,,,53.2,0.0,u,0.0,True,1833.5,111.0,60.0,40.0,False,,296.89013638216863,[],"[940.5, 449]",ColorTask,17.0,35.0,,,HRV,HRV_0301,2022-11-30 21:22:43
,wl-rdm,43,165434,0.0-6.35-0.35,0.0,44.0,,,,,,,[],,,,,,87.9,1.0,i,1.0,True,1004.6999999284744,61.0,60.0,40.0,False,,228.51305776327462,[],"[940.5, 449]",ColorTask,18.0,36.0,,,HRV,HRV_0301,2022-11-30 21:22:43
,wl-rdm,44,167934,0.0-6.36-0.36,0.0,45.0,,,,,,,[],,,,,,53.2,0.0,u,0.0,True,1216.4999999403954,74.0,60.0,40.0,False,,209.78087176732996,[],"[940.5, 449]",ColorTask,19.0,37.0,,,HRV,HRV_0301,2022-11-30 21:22:43
,wl-rdm,45,170766,0.0-6.37-0.37,0.0,46.0,,,,,,,[],,,,,,62.5,1.0,i,1.0,True,1545.5,93.0,60.0,40.0,False,,220.90349827527209,[],"[940.5, 449]",ColorTask,20.0,38.0,,,HRV,HRV_0301,2022-11-30 21:22:43
,wl-rdm,46,173182,0.0-6.38-0.38,0.0,47.0,,,,,,,[],,,,,,87.9,1.0,i,1.0,True,992.6999999880791,60.0,60.0,40.0,False,,334.20977703379566,[],"[940.5, 449]",ColorTask,21.0,39.0,,,HRV,HRV_0301,2022-11-30 21:22:43
,wl-rdm,47,175648,0.0-6.39-0.39,0.0,48.0,,,,,,,[],,,,,,87.9,1.0,i,1.0,True,1024.0,62.0,60.0,40.0,False,,357.99907788476884,[],"[940.5, 449]",ColorTask,22.0,40.0,,,HRV,HRV_0301,2022-11-30 21:22:43
,wl-rdm,48,177964,0.0-6.40-0.40,0.0,49.0,,,,,,,[],,,,,,73.6,1.0,i,1.0,True,905.5999999642372,55.0,60.0,40.0,False,,322.28875104869303,[],"[940.5, 449]",ColorTask,23.0,41.0,,,HRV,HRV_0301,2022-11-30 21:22:43
,wl-rdm,49,180979,0.0-6.41-0.41,0.0,50.0,,,,,,,[],,,,,,56.4,0.0,u,0.0,True,1622.5999999642372,98.0,60.0,40.0,False,,302.7006469085584,[],"[940.5, 449]",ColorTask,24.0,42.0,,,HRV,HRV_0301,2022-11-30 21:22:43
,wl-rdm,50,183428,0.0-6.42-0.42,0.0,51.0,,,,,,,[],,,,,,53.2,1.0,u,0.0,False,1024.699999988079,62.0,60.0,40.0,False,,355.1077740488262,[],"[940.5, 449]",ColorTask,23.0,43.0,,,HRV,HRV_0301,2022-11-30 21:22:43
,wl-rdm,51,185978,0.0-6.43-0.43,0.0,52.0,,,,,,,[],,,,,,50.0,0.0,u,0.0,True,1245.4000000357628,75.0,60.0,40.0,False,,222.3535222192032,[],"[940.5, 449]",ColorTask,24.0,44.0,,,HRV,HRV_0301,2022-11-30 21:22:43
,wl-rdm,52,188410,0.0-6.44-0.44,0.0,53.0,,,,,,,[],,,,,,56.4,1.0,i,1.0,True,1124.5000000596046,68.0,60.0,40.0,False,,246.33402219499294,[],"[940.5, 449]",ColorTask,25.0,45.0,,,HRV,HRV_0301,2022-11-30 21:22:43
,wl-rdm,53,190476,0.0-6.45-0.45,0.0,54.0,,,,,,,[],,,,,,62.5,1.0,i,1.0,True,787.4000000357628,48.0,60.0,40.0,False,,204.0459736654508,[],"[940.5, 449]",ColorTask,26.0,46.0,,,HRV,HRV_0301,2022-11-30 21:22:43
,wl-rdm,54,192709,0.0-6.46-0.46,0.0,55.0,,,,,,,[],,,,,,73.6,1.0,i,1.0,True,903.8999999761581,55.0,60.0,40.0,False,,236.3427463339571,[],"[940.5, 449]",ColorTask,27.0,47.0,,,HRV,HRV_0301,2022-11-30 21:22:43
,wl-rdm,55,195524,0.0-6.47-0.47,0.0,56.0,,,,,,,[],,,,,,56.4,0.0,i,1.0,False,1418.1000000238419,86.0,60.0,40.0,False,,331.6692381892467,[],"[940.5, 449]",ColorTask,26.0,48.0,,,HRV,HRV_0301,2022-11-30 21:22:43
,wl-rdm,56,197574,0.0-6.48-0.48,0.0,57.0,,,,,,,[],,,,,,87.9,1.0,i,1.0,True,729.7000000476837,44.0,60.0,40.0,False,,261.3173630014887,[],"[940.5, 449]",ColorTask,27.0,49.0,,,HRV,HRV_0301,2022-11-30 21:22:43
,wl-rdm,57,200040,0.0-6.49-0.49,0.0,58.0,,,,,,,[],,,,,,73.6,1.0,i,1.0,True,1068.3999999761581,65.0,60.0,40.0,False,,313.7236026899038,[],"[940.5, 449]",ColorTask,28.0,50.0,,,HRV,HRV_0301,2022-11-30 21:22:43
,wl-rdm,58,202572,0.0-6.50-0.50,0.0,59.0,,,,,,,[],,,,,,53.2,0.0,u,0.0,True,1248.4000000357628,75.0,60.0,40.0,False,,212.9800285828183,[],"[940.5, 449]",ColorTask,29.0,51.0,,,HRV,HRV_0301,2022-11-30 21:22:43
,wl-rdm,59,205404,0.0-6.51-0.51,0.0,60.0,,,,,,,[],,,,,,50.0,0.0,u,0.0,True,1487.800000011921,90.0,60.0,40.0,False,,262.6704003561071,[],"[940.5, 449]",ColorTask,30.0,52.0,,,HRV,HRV_0301,2022-11-30 21:22:43
,wl-rdm,60,208037,0.0-6.52-0.52,0.0,61.0,,,,,,,[],,,,,,56.4,1.0,i,1.0,True,1264.5,76.0,60.0,40.0,False,,298.34069705983757,[],"[940.5, 449]",ColorTask,31.0,53.0,,,HRV,HRV_0301,2022-11-30 21:22:43
,wl-rdm,61,210770,0.0-6.53-0.53,0.0,62.0,,,,,,,[],,,,,,53.2,0.0,i,1.0,False,1398.4000000357628,84.0,60.0,40.0,False,,255.90207557966505,[],"[940.5, 449]",ColorTask,30.0,54.0,,,HRV,HRV_0301,2022-11-30 21:22:43
,wl-rdm,62,213286,0.0-6.54-0.54,0.0,63.0,,,,,,,[],,,,,,73.6,0.0,u,0.0,True,1076.4000000357628,65.0,60.0,40.0,False,,352.4769136906159,[],"[940.5, 449]",ColorTask,31.0,55.0,,,HRV,HRV_0301,2022-11-30 21:22:43
,wl-rdm,63,215751,0.0-6.55-0.55,0.0,64.0,,,,,,,[],,,,,,56.4,1.0,i,1.0,True,1102.8999999761581,67.0,60.0,40.0,False,,270.4950914142482,[],"[940.5, 449]",ColorTask,32.0,56.0,,,HRV,HRV_0301,2022-11-30 21:22:43
,wl-rdm,64,218200,0.0-6.56-0.56,0.0,65.0,,,,,,,[],,,,,,87.9,0.0,u,0.0,True,1174.0999999642372,71.0,60.0,40.0,False,,211.66802547284934,[],"[940.5, 449]",ColorTask,33.0,57.0,,,HRV,HRV_0301,2022-11-30 21:22:43
,wl-rdm,65,220699,0.0-6.57-0.57,0.0,66.0,,,,,,,[],,,,,,56.4,1.0,i,1.0,True,1161.800000011921,70.0,60.0,40.0,False,,254.49383651836024,[],"[940.5, 449]",ColorTask,34.0,58.0,,,HRV,HRV_0301,2022-11-30 21:22:43
,wl-rdm,66,222766,0.0-6.58-0.58,0.0,67.0,,,,,,,[],,,,,,87.9,0.0,u,0.0,True,798.4000000357628,48.0,60.0,40.0,False,,209.77766572786908,[],"[940.5, 449]",ColorTask,35.0,59.0,,,HRV,HRV_0301,2022-11-30 21:22:43
,wl-rdm,67,225048,0.0-6.59-0.59,0.0,68.0,,,,,,,[],,,,,,87.9,0.0,u,0.0,True,967.7000000476837,59.0,60.0,40.0,False,,232.72961813722432,[],"[940.5, 449]",ColorTask,36.0,60.0,,,HRV,HRV_0301,2022-11-30 21:22:43
,wl-rdm,68,227214,0.0-6.60-0.60,0.0,69.0,,,,,,,[],,,,,,62.5,1.0,i,1.0,True,755.4000000357628,46.0,60.0,40.0,False,,332.3523646305387,[],"[940.5, 449]",ColorTask,37.0,61.0,,,HRV,HRV_0301,2022-11-30 21:22:43
,wl-rdm,69,229447,0.0-6.61-0.61,0.0,70.0,,,,,,,[],,,,,,73.6,0.0,u,0.0,True,943.1999999880791,57.0,60.0,40.0,False,,200.16556153837084,[],"[940.5, 449]",ColorTask,38.0,62.0,,,HRV,HRV_0301,2022-11-30 21:22:43
,wl-rdm,70,231912,0.0-6.62-0.62,0.0,71.0,,,,,,,[],,,,,,53.2,1.0,u,0.0,False,1156.699999988079,70.0,60.0,40.0,False,,222.14277361660143,[],"[940.5, 449]",ColorTask,37.0,63.0,,,HRV,HRV_0301,2022-11-30 21:22:43
,wl-rdm,71,234345,0.0-6.63-0.63,0.0,72.0,,,,,,,[],,,,,,50.0,1.0,i,1.0,True,1141.5999999642372,69.0,60.0,40.0,False,,213.62179957200814,[],"[940.5, 449]",ColorTask,38.0,64.0,,,HRV,HRV_0301,2022-11-30 21:22:43
,wl-rdm,72,237461,0.0-6.64-0.64,0.0,73.0,,,,,,,[],,,,,,50.0,0.0,u,0.0,True,1825.0,110.0,60.0,40.0,False,,200.33287650479775,[],"[940.5, 449]",ColorTask,39.0,65.0,,,HRV,HRV_0301,2022-11-30 21:22:43
,wl-rdm,73,239961,0.0-6.65-0.65,0.0,74.0,,,,,,,[],,,,,,62.5,0.0,u,0.0,True,1143.8999999165535,69.0,60.0,40.0,False,,281.0138699810139,[],"[940.5, 449]",ColorTask,40.0,66.0,,,HRV,HRV_0301,2022-11-30 21:22:43
,wl-rdm,74,242193,0.0-6.66-0.66,0.0,75.0,,,,,,,[],,,,,,87.9,1.0,i,1.0,True,825.8999999761581,50.0,60.0,40.0,False,,330.8311941609417,[],"[940.5, 449]",ColorTask,41.0,67.0,,,HRV,HRV_0301,2022-11-30 21:22:43
,wl-rdm,75,244625,0.0-6.67-0.67,0.0,76.0,,,,,,,[],,,,,,53.2,1.0,i,1.0,True,1089.0999999642372,66.0,60.0,40.0,False,,255.26227899078168,[],"[940.5, 449]",ColorTask,42.0,68.0,,,HRV,HRV_0301,2022-11-30 21:22:43
,wl-rdm,76,247157,0.0-6.68-0.68,0.0,77.0,,,,,,,[],,,,,,50.0,0.0,i,1.0,False,1241.5,75.0,60.0,40.0,False,,211.30774816947275,[],"[940.5, 449]",ColorTask,41.0,69.0,,,HRV,HRV_0301,2022-11-30 21:22:43
,wl-rdm,77,249574,0.0-6.69-0.69,0.0,78.0,,,,,,,[],,,,,,62.5,0.0,u,0.0,True,1111.8999999761581,67.0,60.0,40.0,False,,229.91621279313645,[],"[940.5, 449]",ColorTask,42.0,70.0,,,HRV,HRV_0301,2022-11-30 21:22:43
,wl-rdm,78,252039,0.0-6.70-0.70,0.0,79.0,,,,,,,[],,,,,,62.5,0.0,u,0.0,True,1082.0999999642372,65.0,60.0,40.0,False,,322.29466435389685,[],"[940.5, 449]",ColorTask,43.0,71.0,,,HRV,HRV_0301,2022-11-30 21:22:43
,wl-rdm,79,254888,0.0-6.71-0.71,0.0,80.0,,,,,,,[],,,,,,62.5,0.0,u,0.0,True,1389.3999999761581,84.0,60.0,40.0,False,,383.4688298693071,[],"[940.5, 449]",ColorTask,44.0,72.0,,,HRV,HRV_0301,2022-11-30 21:22:43
,wl-rdm,80,257304,0.0-6.72-0.72,0.0,81.0,,,,,,,[],,,,,,62.5,0.0,u,0.0,True,1095.800000011921,66.0,60.0,40.0,False,,255.6362773617363,[],"[940.5, 449]",ColorTask,45.0,73.0,,,HRV,HRV_0301,2022-11-30 21:22:43
,wl-rdm,81,259786,0.0-6.73-0.73,0.0,82.0,,,,,,,[],,,,,,87.9,0.0,u,0.0,True,1040.199999988079,63.0,60.0,40.0,False,,357.2781397621307,[],"[940.5, 449]",ColorTask,46.0,74.0,,,HRV,HRV_0301,2022-11-30 21:22:43
,wl-rdm,82,262353,0.0-6.74-0.74,0.0,83.0,,,,,,,[],,,,,,56.4,0.0,u,0.0,True,1206.300000011921,73.0,60.0,40.0,False,,292.10380931732135,[],"[940.5, 449]",ColorTask,47.0,75.0,,,HRV,HRV_0301,2022-11-30 21:22:43
,wl-rdm,83,264768,0.0-6.75-0.75,0.0,84.0,,,,,,,[],,,,,,53.2,1.0,u,0.0,False,1101.300000011921,67.0,60.0,40.0,False,,223.09263438098606,[],"[940.5, 449]",ColorTask,46.0,76.0,,,HRV,HRV_0301,2022-11-30 21:22:43
,wl-rdm,84,267018,0.0-6.76-0.76,0.0,85.0,,,,,,,[],,,,,,73.6,1.0,i,1.0,True,911.3999999761581,55.0,60.0,40.0,False,,261.68460627256945,[],"[940.5, 449]",ColorTask,47.0,77.0,,,HRV,HRV_0301,2022-11-30 21:22:43
,wl-rdm,85,269317,0.0-6.77-0.77,0.0,86.0,,,,,,,[],,,,,,62.5,1.0,i,1.0,True,994.9000000357628,60.0,60.0,40.0,False,,244.71407849061956,[],"[940.5, 449]",ColorTask,48.0,78.0,,,HRV,HRV_0301,2022-11-30 21:22:43
,wl-rdm,86,271800,0.0-6.78-0.78,0.0,87.0,,,,,,,[],,,,,,73.6,1.0,i,1.0,True,1110.2000000476837,67.0,60.0,40.0,False,,315.36796447140125,[],"[940.5, 449]",ColorTask,49.0,79.0,,,HRV,HRV_0301,2022-11-30 21:22:43
,wl-rdm,87,273982,0.0-6.79-0.79,0.0,88.0,,,,,,,[],,,,,,73.6,0.0,u,0.0,True,894.6000000238419,54.0,60.0,40.0,False,,203.67738399686104,[],"[940.5, 449]",ColorTask,50.0,80.0,,,HRV,HRV_0301,2022-11-30 21:22:43
,wl-rdm,88,276181,0.0-6.80-0.80,0.0,89.0,,,,,,,[],,,,,,87.9,1.0,i,1.0,True,885.0,54.0,60.0,40.0,False,,226.32670133540805,[],"[940.5, 449]",ColorTask,51.0,81.0,,,HRV,HRV_0301,2022-11-30 21:22:43
,wl-rdm,89,278364,0.0-6.81-0.81,0.0,90.0,,,,,,,[],,,,,,87.9,0.0,u,0.0,True,840.1999999880791,51.0,60.0,40.0,False,,251.03033717685278,[],"[940.5, 449]",ColorTask,52.0,82.0,,,HRV,HRV_0301,2022-11-30 21:22:43
,wl-rdm,90,280530,0.0-6.82-0.82,0.0,91.0,,,,,,,[],,,,,,73.6,0.0,u,0.0,True,877.3999999761581,53.0,60.0,40.0,False,,211.92662170465644,[],"[940.5, 449]",ColorTask,53.0,83.0,,,HRV,HRV_0301,2022-11-30 21:22:43
,wl-rdm,91,282613,0.0-6.83-0.83,0.0,92.0,,,,,,,[],,,,,,53.2,0.0,i,1.0,False,813.0999999642372,49.0,60.0,40.0,False,,216.88892239849616,[],"[940.5, 449]",ColorTask,52.0,84.0,,,HRV,HRV_0301,2022-11-30 21:22:43
,wl-rdm,92,285111,0.0-6.84-0.84,0.0,93.0,,,,,,,[],,,,,,50.0,0.0,u,0.0,True,1147.5,69.0,60.0,40.0,False,,275.8781570182257,[],"[940.5, 449]",ColorTask,53.0,85.0,,,HRV,HRV_0301,2022-11-30 21:22:43
,wl-rdm,93,287494,0.0-6.85-0.85,0.0,94.0,,,,,,,[],,,,,,87.9,0.0,u,0.0,True,1086.6000000238419,66.0,60.0,40.0,False,,202.23309438342312,[],"[940.5, 449]",ColorTask,54.0,86.0,,,HRV,HRV_0301,2022-11-30 21:22:43
,wl-rdm,94,289877,0.0-6.86-0.86,0.0,95.0,,,,,,,[],,,,,,73.6,1.0,i,1.0,True,984.3000000119209,60.0,60.0,40.0,False,,300.38451264829484,[],"[940.5, 449]",ColorTask,55.0,87.0,,,HRV,HRV_0301,2022-11-30 21:22:43
,wl-rdm,95,292009,0.0-6.87-0.87,0.0,96.0,,,,,,,[],,,,,,87.9,0.0,u,0.0,True,711.1000000238419,43.0,60.0,40.0,False,,346.4399173568612,[],"[940.5, 449]",ColorTask,56.0,88.0,,,HRV,HRV_0301,2022-11-30 21:22:43
,wl-rdm,96,294509,0.0-6.88-0.88,0.0,97.0,,,,,,,[],,,,,,62.5,1.0,i,1.0,True,1079.199999988079,65.0,60.0,40.0,False,,349.07267375355445,[],"[940.5, 449]",ColorTask,57.0,89.0,,,HRV,HRV_0301,2022-11-30 21:22:43
,wl-rdm,97,296925,0.0-6.89-0.89,0.0,98.0,,,,,,,[],,,,,,50.0,1.0,i,1.0,True,1140.3999999165535,69.0,60.0,40.0,False,,209.0804582107501,[],"[940.5, 449]",ColorTask,58.0,90.0,,,HRV,HRV_0301,2022-11-30 21:22:43
,wl-rdm,98,299457,0.0-6.90-0.90,0.0,99.0,,,,,,,[],,,,,,53.2,0.0,u,0.0,True,1204.199999988079,73.0,60.0,40.0,False,,245.27231502645168,[],"[940.5, 449]",ColorTask,59.0,91.0,,,HRV,HRV_0301,2022-11-30 21:22:43
,wl-rdm,99,301923,0.0-6.91-0.91,0.0,100.0,,,,,,,[],,,,,,56.4,0.0,u,0.0,True,1101.4999999403954,67.0,60.0,40.0,False,,271.32511132047256,[],"[940.5, 449]",ColorTask,60.0,92.0,,,HRV,HRV_0301,2022-11-30 21:22:43
,wl-rdm,100,304372,0.0-6.92-0.92,0.0,101.0,,,,,,,[],,,,,,50.0,1.0,u,0.0,False,1076.0,65.0,60.0,40.0,False,,295.8674107259663,[],"[940.5, 449]",ColorTask,59.0,93.0,,,HRV,HRV_0301,2022-11-30 21:22:43
,wl-rdm,101,306637,0.0-6.93-0.93,0.0,102.0,,,,,,,[],,,,,,56.4,1.0,i,1.0,True,904.5,55.0,60.0,40.0,False,,293.94194158454184,[],"[940.5, 449]",ColorTask,60.0,94.0,,,HRV,HRV_0301,2022-11-30 21:22:43
,wl-rdm,102,309104,0.0-6.94-0.94,0.0,103.0,,,,,,,[],,,,,,73.6,0.0,u,0.0,True,1123.699999988079,68.0,60.0,40.0,False,,280.8859593564274,[],"[940.5, 449]",ColorTask,61.0,95.0,,,HRV,HRV_0301,2022-11-30 21:22:43
,wl-rdm,103,311336,0.0-6.95-0.95,0.0,104.0,,,,,,,[],,,,,,62.5,0.0,u,0.0,True,883.0000000596046,53.0,60.0,40.0,False,,295.5861443902535,[],"[940.5, 449]",ColorTask,62.0,96.0,,,HRV,HRV_0301,2022-11-30 21:22:43
,wl-rdm,104,313852,0.0-6.96-0.96,0.0,105.0,,,,,,,[],,,,,,56.4,0.0,u,0.0,True,1193.0,72.0,60.0,40.0,False,,251.679942918294,[],"[940.5, 449]",ColorTask,63.0,97.0,,,HRV,HRV_0301,2022-11-30 21:22:43
,wl-rdm,105,316435,0.0-6.97-0.97,0.0,106.0,,,,,,,[],,,,,,62.5,0.0,u,0.0,True,1260.5999999642372,76.0,60.0,40.0,False,,244.0203446218506,[],"[940.5, 449]",ColorTask,64.0,98.0,,,HRV,HRV_0301,2022-11-30 21:22:43
,wl-rdm,106,319416,0.0-6.98-0.98,0.0,107.0,,,,,,,[],,,,,,50.0,1.0,i,1.0,True,1614.8999999761581,97.0,60.0,40.0,False,,307.36400163023575,[],"[940.5, 449]",ColorTask,65.0,99.0,,,HRV,HRV_0301,2022-11-30 21:22:43
,wl-rdm,107,321916,0.0-6.99-0.99,0.0,108.0,,,,,,,[],,,,,,62.5,0.0,u,0.0,True,1040.7999999523163,63.0,60.0,40.0,False,,380.11334077064834,[],"[940.5, 449]",ColorTask,66.0,100.0,,,HRV,HRV_0301,2022-11-30 21:22:43
,wl-rdm,108,324365,0.0-6.100-0.100,0.0,109.0,,,,,,,[],,,,,,53.2,1.0,i,1.0,True,1061.3999999761581,64.0,60.0,40.0,False,,324.8692798457355,[],"[940.5, 449]",ColorTask,67.0,101.0,,,HRV,HRV_0301,2022-11-30 21:22:43
,wl-rdm,109,326865,0.0-6.101-0.101,0.0,110.0,,,,,,,[],,,,,,87.9,1.0,i,1.0,True,1067.0,65.0,60.0,40.0,False,,348.10821014468905,[],"[940.5, 449]",ColorTask,68.0,102.0,,,HRV,HRV_0301,2022-11-30 21:22:43
,wl-rdm,110,329431,0.0-6.102-0.102,0.0,111.0,,,,,,,[],,,,,,53.2,1.0,i,1.0,True,1222.0,74.0,60.0,40.0,False,,270.4077887903333,[],"[940.5, 449]",ColorTask,69.0,103.0,,,HRV,HRV_0301,2022-11-30 21:22:43
,wl-rdm,111,332113,0.0-6.103-0.103,0.0,112.0,,,,,,,[],,,,,,62.5,1.0,i,1.0,True,1391.6000000238419,84.0,60.0,40.0,False,,211.8411031724161,[],"[940.5, 449]",ColorTask,70.0,104.0,,,HRV,HRV_0301,2022-11-30 21:22:43
,wl-rdm,112,334512,0.0-6.104-0.104,0.0,113.0,,,,,,,[],,,,,,50.0,0.0,i,1.0,False,1038.6000000238419,63.0,60.0,40.0,False,,276.49457361167083,[],"[940.5, 449]",ColorTask,69.0,105.0,,,HRV,HRV_0301,2022-11-30 21:22:43
,wl-rdm,113,336779,0.0-6.105-0.105,0.0,114.0,,,,,,,[],,,,,,73.6,0.0,u,0.0,True,941.3999999761581,57.0,60.0,40.0,False,,255.13118767155476,[],"[940.5, 449]",ColorTask,70.0,106.0,,,HRV,HRV_0301,2022-11-30 21:22:43
,wl-rdm,114,340194,0.0-6.106-0.106,0.0,115.0,,,,,,,[],,,,,,56.4,0.0,u,0.0,True,2046.300000011921,123.0,60.0,40.0,False,,289.3577771152632,[],"[940.5, 449]",ColorTask,71.0,107.0,,,HRV,HRV_0301,2022-11-30 21:22:43
,wl-rdm,115,343109,0.0-6.107-0.107,0.0,116.0,,,,,,,[],,,,,,62.5,1.0,u,0.0,False,1461.2000000476837,88.0,60.0,40.0,False,,371.2039569644285,[],"[940.5, 449]",ColorTask,70.0,108.0,,,HRV,HRV_0301,2022-11-30 21:22:43
,wl-html-keyboard-response,116,362444,0.0-7.0-0.0,1.0,117.0,,,,,,,,17331.0,1.0,0,,,,,,,,,,,,,,,,,,,,,,HRV,HRV_0301,2022-11-30 21:22:43
,wl-rdm,117,365318,0.0-8.0-0.0,1.0,118.0,,,,,,,[],,,,,,50.0,0.0,u,0.0,True,1471.199999988079,89.0,60.0,40.0,False,,325.37524670037647,[],"[940.5, 449]",ColorTask,71.0,1.0,,,HRV,HRV_0301,2022-11-30 21:22:43
,wl-rdm,118,368018,0.0-8.1-0.1,1.0,119.0,,,,,,,[],,,,,,50.0,0.0,i,1.0,False,1374.3999999761581,83.0,60.0,40.0,False,,242.63077170426402,[],"[940.5, 449]",ColorTask,70.0,2.0,,,HRV,HRV_0301,2022-11-30 21:22:43
,wl-rdm,119,370567,0.0-8.2-0.2,1.0,120.0,,,,,,,[],,,,,,50.0,1.0,i,1.0,True,1235.0000000596046,75.0,60.0,40.0,False,,237.66700380554786,[],"[940.5, 449]",ColorTask,71.0,3.0,,,HRV,HRV_0301,2022-11-30 21:22:43
,wl-rdm,120,373399,0.0-8.3-0.3,1.0,121.0,,,,,,,[],,,,,,53.2,1.0,u,0.0,False,1538.7000000476837,93.0,60.0,40.0,False,,206.39574803144492,[],"[940.5, 449]",ColorTask,70.0,4.0,,,HRV,HRV_0301,2022-11-30 21:22:43
,wl-rdm,121,376514,0.0-8.4-0.4,1.0,122.0,,,,,,,[],,,,,,53.2,0.0,u,0.0,True,1772.199999988079,107.0,60.0,40.0,False,,261.1017071807814,[],"[940.5, 449]",ColorTask,71.0,5.0,,,HRV,HRV_0301,2022-11-30 21:22:43
,wl-rdm,122,379914,0.0-8.5-0.5,1.0,123.0,,,,,,,[],,,,,,56.4,0.0,u,0.0,True,2075.100000023842,125.0,60.0,40.0,False,,241.28870364111432,[],"[940.5, 449]",ColorTask,72.0,6.0,,,HRV,HRV_0301,2022-11-30 21:22:43
,wl-rdm,123,382612,0.0-8.6-0.6,1.0,124.0,,,,,,,[],,,,,,56.4,0.0,u,0.0,True,1294.0000000596046,78.0,60.0,40.0,False,,346.44914233935606,[],"[940.5, 449]",ColorTask,73.0,7.0,,,HRV,HRV_0301,2022-11-30 21:22:43
,wl-rdm,124,384978,0.0-8.7-0.7,1.0,125.0,,,,,,,[],,,,,,73.6,1.0,i,1.0,True,1050.3999999761581,64.0,60.0,40.0,False,,226.61502381352446,[],"[940.5, 449]",ColorTask,74.0,8.0,,,HRV,HRV_0301,2022-11-30 21:22:43
,wl-rdm,125,387662,0.0-8.8-0.8,1.0,126.0,,,,,,,[],,,,,,53.2,1.0,i,1.0,True,1398.3999999761581,84.0,60.0,40.0,False,,218.8429952868212,[],"[940.5, 449]",ColorTask,75.0,9.0,,,HRV,HRV_0301,2022-11-30 21:22:43
,wl-rdm,126,390427,0.0-8.9-0.9,1.0,127.0,,,,,,,[],,,,,,56.4,1.0,i,1.0,True,1366.4000000357628,83.0,60.0,40.0,False,,307.37344884886386,[],"[940.5, 449]",ColorTask,76.0,10.0,,,HRV,HRV_0301,2022-11-30 21:22:43
,wl-rdm,127,392877,0.0-8.10-0.10,1.0,128.0,,,,,,,[],,,,,,56.4,1.0,i,1.0,True,1059.1000000238419,64.0,60.0,40.0,False,,332.90102437180803,[],"[940.5, 449]",ColorTask,77.0,11.0,,,HRV,HRV_0301,2022-11-30 21:22:43
,wl-rdm,128,394992,0.0-8.11-0.11,1.0,129.0,,,,,,,[],,,,,,62.5,1.0,i,1.0,True,818.7000000476837,50.0,60.0,40.0,False,,231.14808970721614,[],"[940.5, 449]",ColorTask,78.0,12.0,,,HRV,HRV_0301,2022-11-30 21:22:43
,wl-rdm,129,397459,0.0-8.12-0.12,1.0,130.0,,,,,,,[],,,,,,56.4,0.0,u,0.0,True,1144.1000000238419,69.0,60.0,40.0,False,,252.63375904030576,[],"[940.5, 449]",ColorTask,79.0,13.0,,,HRV,HRV_0301,2022-11-30 21:22:43
,wl-rdm,130,399808,0.0-8.13-0.13,1.0,131.0,,,,,,,[],,,,,,56.4,0.0,i,1.0,False,1054.1999999284744,64.0,60.0,40.0,False,,209.0824675648361,[],"[940.5, 449]",ColorTask,78.0,14.0,,,HRV,HRV_0301,2022-11-30 21:22:43
,wl-rdm,131,402290,0.0-8.14-0.14,1.0,132.0,,,,,,,[],,,,,,73.6,1.0,i,1.0,True,1160.0,70.0,60.0,40.0,False,,249.1655359823135,[],"[940.5, 449]",ColorTask,79.0,15.0,,,HRV,HRV_0301,2022-11-30 21:22:43
,wl-rdm,132,404939,0.0-8.15-0.15,1.0,133.0,,,,,,,[],,,,,,56.4,1.0,i,1.0,True,1357.1000000238419,82.0,60.0,40.0,False,,232.84853517484592,[],"[940.5, 449]",ColorTask,80.0,16.0,,,HRV,HRV_0301,2022-11-30 21:22:43
,wl-rdm,133,407339,0.0-8.16-0.16,1.0,134.0,,,,,,,[],,,,,,56.4,0.0,i,1.0,False,1084.699999988079,66.0,60.0,40.0,False,,220.13882263995512,[],"[940.5, 449]",ColorTask,79.0,17.0,,,HRV,HRV_0301,2022-11-30 21:22:43
,wl-rdm,134,409688,0.0-8.17-0.17,1.0,135.0,,,,,,,[],,,,,,73.6,0.0,u,0.0,True,1005.5,61.0,60.0,40.0,False,,250.80102795853315,[],"[940.5, 449]",ColorTask,80.0,18.0,,,HRV,HRV_0301,2022-11-30 21:22:43
,wl-rdm,135,412303,0.0-8.18-0.18,1.0,136.0,,,,,,,[],,,,,,56.4,0.0,u,0.0,True,1289.300000011921,78.0,60.0,40.0,False,,240.2560322778284,[],"[940.5, 449]",ColorTask,81.0,19.0,,,HRV,HRV_0301,2022-11-30 21:22:43
,wl-rdm,136,414619,0.0-8.19-0.19,1.0,137.0,,,,,,,[],,,,,,87.9,1.0,i,1.0,True,939.1999999880791,57.0,60.0,40.0,False,,292.8291012336341,[],"[940.5, 449]",ColorTask,82.0,20.0,,,HRV,HRV_0301,2022-11-30 21:22:43
,wl-rdm,137,416969,0.0-8.20-0.20,1.0,138.0,,,,,,,[],,,,,,56.4,1.0,i,1.0,True,944.0,57.0,60.0,40.0,False,,321.55343512857235,[],"[940.5, 449]",ColorTask,83.0,21.0,,,HRV,HRV_0301,2022-11-30 21:22:43
,wl-rdm,138,419318,0.0-8.21-0.21,1.0,139.0,,,,,,,[],,,,,,62.5,0.0,u,0.0,True,997.8999999761581,60.0,60.0,40.0,False,,292.6864769532433,[],"[940.5, 449]",ColorTask,84.0,22.0,,,HRV,HRV_0301,2022-11-30 21:22:43
,wl-rdm,139,422283,0.0-8.22-0.22,1.0,140.0,,,,,,,[],,,,,,56.4,1.0,i,1.0,True,1508.6000000238419,91.0,60.0,40.0,False,,380.22746593901127,[],"[940.5, 449]",ColorTask,85.0,23.0,,,HRV,HRV_0301,2022-11-30 21:22:43
,wl-rdm,140,425016,0.0-8.23-0.23,1.0,141.0,,,,,,,[],,,,,,50.0,0.0,u,0.0,True,1269.300000011921,77.0,60.0,40.0,False,,376.7545133365421,[],"[940.5, 449]",ColorTask,86.0,24.0,,,HRV,HRV_0301,2022-11-30 21:22:43
,wl-rdm,141,427464,0.0-8.24-0.24,1.0,142.0,,,,,,,[],,,,,,53.2,1.0,i,1.0,True,918.5,45.0,60.0,40.0,False,,305.1954691457112,[],"[940.5, 449]",ColorTask,87.0,25.0,,,HRV,HRV_0301,2022-11-30 21:22:43
,wl-rdm,142,429914,0.0-8.25-0.25,1.0,143.0,,,,,,,[],,,,,,87.9,0.0,u,0.0,True,1119.300000011921,64.0,60.0,40.0,False,,247.7262658839905,[],"[940.5, 449]",ColorTask,88.0,26.0,,,HRV,HRV_0301,2022-11-30 21:22:43
,wl-rdm,143,432330,0.0-8.26-0.26,1.0,144.0,,,,,,,[],,,,,,73.6,0.0,u,0.0,True,1149.6000000238419,69.0,60.0,40.0,False,,215.48019924408226,[],"[940.5, 449]",ColorTask,89.0,27.0,,,HRV,HRV_0301,2022-11-30 21:22:43
,wl-rdm,144,434729,0.0-8.27-0.27,1.0,145.0,,,,,,,[],,,,,,62.5,0.0,u,0.0,True,1081.0999999642372,65.0,60.0,40.0,False,,244.31324395878642,[],"[940.5, 449]",ColorTask,90.0,28.0,,,HRV,HRV_0301,2022-11-30 21:22:43
,wl-rdm,145,437178,0.0-8.28-0.28,1.0,146.0,,,,,,,[],,,,,,73.6,0.0,u,0.0,True,988.3000000119209,60.0,60.0,40.0,False,,370.92347516546323,[],"[940.5, 449]",ColorTask,91.0,29.0,,,HRV,HRV_0301,2022-11-30 21:22:43
,wl-rdm,146,439528,0.0-8.29-0.29,1.0,147.0,,,,,,,[],,,,,,62.5,1.0,i,1.0,True,979.0999999642372,59.0,60.0,40.0,False,,299.0354264878158,[],"[940.5, 449]",ColorTask,92.0,30.0,,,HRV,HRV_0301,2022-11-30 21:22:43
,wl-rdm,147,442027,0.0-8.30-0.30,1.0,148.0,,,,,,,[],,,,,,73.6,0.0,u,0.0,True,1104.300000011921,67.0,60.0,40.0,False,,313.34484316074327,[],"[940.5, 449]",ColorTask,93.0,31.0,,,HRV,HRV_0301,2022-11-30 21:22:43
,wl-rdm,148,444309,0.0-8.31-0.31,1.0,149.0,,,,,,,[],,,,,,73.6,0.0,u,0.0,True,996.5,60.0,60.0,40.0,False,,208.30697861628335,[],"[940.5, 449]",ColorTask,94.0,32.0,,,HRV,HRV_0301,2022-11-30 21:22:43
,wl-rdm,149,446542,0.0-8.32-0.32,1.0,150.0,,,,,,,[],,,,,,53.2,1.0,i,1.0,True,961.8000000119209,58.0,60.0,40.0,False,,213.54233247242612,[],"[940.5, 449]",ColorTask,95.0,33.0,,,HRV,HRV_0301,2022-11-30 21:22:43
,wl-rdm,150,449775,0.0-8.33-0.33,1.0,151.0,,,,,,,[],,,,,,50.0,1.0,i,1.0,True,1790.0,108.0,60.0,40.0,False,,361.4211137981183,[],"[940.5, 449]",ColorTask,96.0,34.0,,,HRV,HRV_0301,2022-11-30 21:22:43
,wl-rdm,151,452058,0.0-8.34-0.34,1.0,152.0,,,,,,,[],,,,,,73.6,1.0,i,1.0,True,803.1000000238419,49.0,60.0,40.0,False,,397.9828853090992,[],"[940.5, 449]",ColorTask,97.0,35.0,,,HRV,HRV_0301,2022-11-30 21:22:43
,wl-rdm,152,454390,0.0-8.35-0.35,1.0,153.0,,,,,,,[],,,,,,50.0,0.0,u,0.0,True,920.6999999880791,56.0,60.0,40.0,False,,325.65300659097306,[],"[940.5, 449]",ColorTask,98.0,36.0,,,HRV,HRV_0301,2022-11-30 21:22:43
,wl-rdm,153,456406,0.0-8.36-0.36,1.0,154.0,,,,,,,[],,,,,,87.9,0.0,u,0.0,True,731.6000000238419,44.0,60.0,40.0,False,,224.17209493113296,[],"[940.5, 449]",ColorTask,99.0,37.0,,,HRV,HRV_0301,2022-11-30 21:22:43
,wl-rdm,154,458472,0.0-8.37-0.37,1.0,155.0,,,,,,,[],,,,,,62.5,1.0,i,1.0,True,743.5,45.0,60.0,40.0,False,,242.63385014975913,[],"[940.5, 449]",ColorTask,100.0,38.0,,,HRV,HRV_0301,2022-11-30 21:22:43
,wl-rdm,155,460622,0.0-8.38-0.38,1.0,156.0,,,,,,,[],,,,,,62.5,1.0,i,1.0,True,798.1999999880791,48.0,60.0,40.0,False,,290.0958473607246,[],"[940.5, 449]",ColorTask,101.0,39.0,,,HRV,HRV_0301,2022-11-30 21:22:43
,wl-rdm,156,462754,0.0-8.39-0.39,1.0,157.0,,,,,,,[],,,,,,87.9,0.0,u,0.0,True,730.8000000119209,44.0,60.0,40.0,False,,336.25128601194695,[],"[940.5, 449]",ColorTask,102.0,40.0,,,HRV,HRV_0301,2022-11-30 21:22:43
,wl-rdm,157,464886,0.0-8.40-0.40,1.0,158.0,,,,,,,[],,,,,,87.9,1.0,i,1.0,True,818.3999999761581,50.0,60.0,40.0,False,,231.9013723838203,[],"[940.5, 449]",ColorTask,103.0,41.0,,,HRV,HRV_0301,2022-11-30 21:22:43
,wl-rdm,158,466985,0.0-8.41-0.41,1.0,159.0,,,,,,,[],,,,,,87.9,1.0,i,1.0,True,801.0999999642372,49.0,60.0,40.0,False,,205.8904240606706,[],"[940.5, 449]",ColorTask,104.0,42.0,,,HRV,HRV_0301,2022-11-30 21:22:43
,wl-rdm,159,469069,0.0-8.42-0.42,1.0,160.0,,,,,,,[],,,,,,73.6,1.0,i,1.0,True,676.7999999523163,41.0,60.0,40.0,False,,325.8385614036573,[],"[940.5, 449]",ColorTask,105.0,43.0,,,HRV,HRV_0301,2022-11-30 21:22:43
,wl-rdm,160,471751,0.0-8.43-0.43,1.0,161.0,,,,,,,[],,,,,,50.0,1.0,i,1.0,True,1253.3999999761581,76.0,60.0,40.0,False,,353.9678272504626,[],"[940.5, 449]",ColorTask,106.0,44.0,,,HRV,HRV_0301,2022-11-30 21:22:43
,wl-rdm,161,473949,0.0-8.44-0.44,1.0,162.0,,,,,,,[],,,,,,73.6,1.0,i,1.0,True,742.0999999642372,45.0,60.0,40.0,False,,394.2119887573493,[],"[940.5, 449]",ColorTask,107.0,45.0,,,HRV,HRV_0301,2022-11-30 21:22:43
,wl-rdm,162,476032,0.0-8.45-0.45,1.0,163.0,,,,,,,[],,,,,,87.9,1.0,i,1.0,True,667.9999999403954,41.0,60.0,40.0,False,,327.88461866222826,[],"[940.5, 449]",ColorTask,108.0,46.0,,,HRV,HRV_0301,2022-11-30 21:22:43
,wl-rdm,163,478598,0.0-8.46-0.46,1.0,164.0,,,,,,,[],,,,,,62.5,1.0,i,1.0,True,1248.3000000715256,75.0,60.0,40.0,False,,239.0164265357235,[],"[940.5, 449]",ColorTask,109.0,47.0,,,HRV,HRV_0301,2022-11-30 21:22:43
,wl-rdm,164,480581,0.0-8.47-0.47,1.0,165.0,,,,,,,[],,,,,,62.5,1.0,i,1.0,True,655.4000000357628,40.0,60.0,40.0,False,,239.9508223353455,[],"[940.5, 449]",ColorTask,110.0,48.0,,,HRV,HRV_0301,2022-11-30 21:22:43
,wl-rdm,165,483814,0.0-8.48-0.48,1.0,166.0,,,,,,,[],,,,,,50.0,1.0,u,0.0,False,1918.300000011921,116.0,60.0,40.0,False,,230.6621687050727,[],"[940.5, 449]",ColorTask,109.0,49.0,,,HRV,HRV_0301,2022-11-30 21:22:43
,wl-rdm,166,486145,0.0-8.49-0.49,1.0,167.0,,,,,,,[],,,,,,73.6,0.0,u,0.0,True,1006.6999999284744,61.0,60.0,40.0,False,,236.3227788931463,[],"[940.5, 449]",ColorTask,110.0,50.0,,,HRV,HRV_0301,2022-11-30 21:22:43
,wl-rdm,167,489178,0.0-8.50-0.50,1.0,168.0,,,,,,,[],,,,,,73.6,1.0,i,1.0,True,1554.6000000238419,94.0,60.0,40.0,False,,390.2071444090377,[],"[940.5, 449]",ColorTask,111.0,51.0,,,HRV,HRV_0301,2022-11-30 21:22:43
,wl-rdm,168,491693,0.0-8.51-0.51,1.0,169.0,,,,,,,[],,,,,,62.5,0.0,u,0.0,True,1217.8999999761581,74.0,60.0,40.0,False,,206.95334739067331,[],"[940.5, 449]",ColorTask,112.0,52.0,,,HRV,HRV_0301,2022-11-30 21:22:43
,wl-rdm,169,494176,0.0-8.52-0.52,1.0,170.0,,,,,,,[],,,,,,53.2,0.0,u,0.0,True,1057.800000011921,64.0,60.0,40.0,False,,353.89203702663923,[],"[940.5, 449]",ColorTask,113.0,53.0,,,HRV,HRV_0301,2022-11-30 21:22:43
,wl-rdm,170,496825,0.0-8.53-0.53,1.0,171.0,,,,,,,[],,,,,,53.2,1.0,i,1.0,True,1300.199999988079,79.0,60.0,40.0,False,,257.44660174924144,[],"[940.5, 449]",ColorTask,114.0,54.0,,,HRV,HRV_0301,2022-11-30 21:22:43
,wl-rdm,171,499125,0.0-8.54-0.54,1.0,172.0,,,,,,,[],,,,,,62.5,0.0,u,0.0,True,975.3999999761581,59.0,60.0,40.0,False,,242.36926482356495,[],"[940.5, 449]",ColorTask,115.0,55.0,,,HRV,HRV_0301,2022-11-30 21:22:43
,wl-rdm,172,502457,0.0-8.55-0.55,1.0,173.0,,,,,,,[],,,,,,53.2,0.0,u,0.0,True,2051.7999999523163,124.0,60.0,40.0,False,,203.21663563241034,[],"[940.5, 449]",ColorTask,116.0,56.0,,,HRV,HRV_0301,2022-11-30 21:22:43
,wl-rdm,173,505272,0.0-8.56-0.56,1.0,174.0,,,,,,,[],,,,,,53.2,1.0,i,1.0,True,1412.8999999761581,85.0,60.0,40.0,False,,342.49509516834496,[],"[940.5, 449]",ColorTask,117.0,57.0,,,HRV,HRV_0301,2022-11-30 21:22:43
,wl-rdm,174,507439,0.0-8.57-0.57,1.0,175.0,,,,,,,[],,,,,,87.9,0.0,u,0.0,True,897.5,54.0,60.0,40.0,False,,200.66108225892313,[],"[940.5, 449]",ColorTask,118.0,58.0,,,HRV,HRV_0301,2022-11-30 21:22:43
,wl-rdm,175,510155,0.0-8.58-0.58,1.0,176.0,,,,,,,[],,,,,,62.5,0.0,u,0.0,True,1369.199999988079,83.0,60.0,40.0,False,,256.7803065207753,[],"[940.5, 449]",ColorTask,119.0,59.0,,,HRV,HRV_0301,2022-11-30 21:22:43
,wl-rdm,176,512804,0.0-8.59-0.59,1.0,177.0,,,,,,,[],,,,,,50.0,1.0,i,1.0,True,1233.3999999761581,75.0,60.0,40.0,False,,320.0694606827729,[],"[940.5, 449]",ColorTask,120.0,60.0,,,HRV,HRV_0301,2022-11-30 21:22:43
,wl-rdm,177,516103,0.0-8.60-0.60,1.0,178.0,,,,,,,[],,,,,,50.0,1.0,u,0.0,False,1824.4000000357628,110.0,60.0,40.0,False,,391.29048113272563,[],"[940.5, 449]",ColorTask,119.0,61.0,,,HRV,HRV_0301,2022-11-30 21:22:43
,wl-rdm,178,518785,0.0-8.61-0.61,1.0,179.0,,,,,,,[],,,,,,62.5,0.0,u,0.0,True,1262.0,76.0,60.0,40.0,False,,351.487074017362,[],"[940.5, 449]",ColorTask,120.0,62.0,,,HRV,HRV_0301,2022-11-30 21:22:43
,wl-rdm,179,521251,0.0-8.62-0.62,1.0,180.0,,,,,,,[],,,,,,56.4,0.0,u,0.0,True,1023.7999999523163,62.0,60.0,40.0,False,,364.43526371589076,[],"[940.5, 449]",ColorTask,121.0,63.0,,,HRV,HRV_0301,2022-11-30 21:22:43
,wl-rdm,180,524549,0.0-8.63-0.63,1.0,181.0,,,,,,,[],,,,,,53.2,0.0,u,0.0,True,1960.6000000238419,118.0,60.0,40.0,False,,256.73786683117163,[],"[940.5, 449]",ColorTask,122.0,64.0,,,HRV,HRV_0301,2022-11-30 21:22:43
,wl-rdm,181,526983,0.0-8.64-0.64,1.0,182.0,,,,,,,[],,,,,,62.5,1.0,i,1.0,True,985.9000000357628,60.0,60.0,40.0,False,,353.56116178960883,[],"[940.5, 449]",ColorTask,123.0,65.0,,,HRV,HRV_0301,2022-11-30 21:22:43
,wl-rdm,182,529249,0.0-8.65-0.65,1.0,183.0,,,,,,,[],,,,,,87.9,1.0,i,1.0,True,902.3999999761581,55.0,60.0,40.0,False,,284.0525714022781,[],"[940.5, 449]",ColorTask,124.0,66.0,,,HRV,HRV_0301,2022-11-30 21:22:43
,wl-rdm,183,531531,0.0-8.66-0.66,1.0,184.0,,,,,,,[],,,,,,53.2,0.0,u,0.0,True,905.1999999880791,55.0,60.0,40.0,False,,309.1543647351048,[],"[940.5, 449]",ColorTask,125.0,67.0,,,HRV,HRV_0301,2022-11-30 21:22:43
,wl-rdm,184,534130,0.0-8.67-0.67,1.0,185.0,,,,,,,[],,,,,,73.6,0.0,u,0.0,True,1329.0,80.0,60.0,40.0,False,,207.3597449917969,[],"[940.5, 449]",ColorTask,126.0,68.0,,,HRV,HRV_0301,2022-11-30 21:22:43
,wl-rdm,185,536862,0.0-8.68-0.68,1.0,186.0,,,,,,,[],,,,,,56.4,0.0,u,0.0,True,1359.5,82.0,60.0,40.0,False,,287.2526714515784,[],"[940.5, 449]",ColorTask,127.0,69.0,,,HRV,HRV_0301,2022-11-30 21:22:43
,wl-rdm,186,539095,0.0-8.69-0.69,1.0,187.0,,,,,,,[],,,,,,62.5,0.0,u,0.0,True,885.1000000238419,54.0,60.0,40.0,False,,280.4749577363789,[],"[940.5, 449]",ColorTask,128.0,70.0,,,HRV,HRV_0301,2022-11-30 21:22:43
,wl-rdm,187,541327,0.0-8.70-0.70,1.0,188.0,,,,,,,[],,,,,,53.2,1.0,i,1.0,True,871.6999999880791,53.0,60.0,40.0,False,,274.98695697049,[],"[940.5, 449]",ColorTask,129.0,71.0,,,HRV,HRV_0301,2022-11-30 21:22:43
,wl-rdm,188,543877,0.0-8.71-0.71,1.0,189.0,,,,,,,[],,,,,,50.0,0.0,i,1.0,False,1234.0999999642372,75.0,60.0,40.0,False,,231.72818816915182,[],"[940.5, 449]",ColorTask,128.0,72.0,,,HRV,HRV_0301,2022-11-30 21:22:43
,wl-rdm,189,546576,0.0-8.72-0.72,1.0,190.0,,,,,,,[],,,,,,53.2,0.0,i,1.0,False,1252.5999999642372,76.0,60.0,40.0,False,,355.38104790866686,[],"[940.5, 449]",ColorTask,127.0,73.0,,,HRV,HRV_0301,2022-11-30 21:22:43
,wl-rdm,190,548742,0.0-8.73-0.73,1.0,191.0,,,,,,,[],,,,,,87.9,0.0,u,0.0,True,803.8000000119209,49.0,60.0,40.0,False,,284.19652099399826,[],"[940.5, 449]",ColorTask,128.0,74.0,,,HRV,HRV_0301,2022-11-30 21:22:43
,wl-rdm,191,551024,0.0-8.74-0.74,1.0,192.0,,,,,,,[],,,,,,50.0,0.0,i,1.0,False,872.6999999880791,53.0,60.0,40.0,False,,342.19114260975925,[],"[940.5, 449]",ColorTask,127.0,75.0,,,HRV,HRV_0301,2022-11-30 21:22:43
,wl-rdm,192,553390,0.0-8.75-0.75,1.0,193.0,,,,,,,[],,,,,,56.4,1.0,i,1.0,True,954.5999999642372,58.0,60.0,40.0,False,,328.55775625741643,[],"[940.5, 449]",ColorTask,128.0,76.0,,,HRV,HRV_0301,2022-11-30 21:22:43
,wl-rdm,193,555589,0.0-8.76-0.76,1.0,194.0,,,,,,,[],,,,,,50.0,1.0,u,0.0,False,882.8000000119209,53.0,60.0,40.0,False,,263.08400457410187,[],"[940.5, 449]",ColorTask,127.0,77.0,,,HRV,HRV_0301,2022-11-30 21:22:43
,wl-rdm,194,558321,0.0-8.77-0.77,1.0,195.0,,,,,,,[],,,,,,50.0,0.0,i,1.0,False,1419.199999988079,86.0,60.0,40.0,False,,222.22465622632427,[],"[940.5, 449]",ColorTask,126.0,78.0,,,HRV,HRV_0301,2022-11-30 21:22:43
,wl-rdm,195,560971,0.0-8.78-0.78,1.0,196.0,,,,,,,[],,,,,,50.0,1.0,u,0.0,False,1234.5999999642372,75.0,60.0,40.0,False,,334.67258812875116,[],"[940.5, 449]",ColorTask,125.0,79.0,,,HRV,HRV_0301,2022-11-30 21:22:43
,wl-rdm,196,563236,0.0-8.79-0.79,1.0,197.0,,,,,,,[],,,,,,62.5,1.0,i,1.0,True,866.9000000357628,53.0,60.0,40.0,False,,308.78463696513995,[],"[940.5, 449]",ColorTask,126.0,80.0,,,HRV,HRV_0301,2022-11-30 21:22:43
,wl-rdm,197,565703,0.0-8.80-0.80,1.0,198.0,,,,,,,[],,,,,,53.2,0.0,u,0.0,True,1145.5999999642372,69.0,60.0,40.0,False,,235.14503984985276,[],"[940.5, 449]",ColorTask,127.0,81.0,,,HRV,HRV_0301,2022-11-30 21:22:43
,wl-rdm,198,568402,0.0-8.81-0.81,1.0,199.0,,,,,,,[],,,,,,50.0,1.0,i,1.0,True,1222.5000000596046,74.0,60.0,40.0,False,,384.3076178549488,[],"[940.5, 449]",ColorTask,128.0,82.0,,,HRV,HRV_0301,2022-11-30 21:22:43
,wl-rdm,199,570968,0.0-8.82-0.82,1.0,200.0,,,,,,,[],,,,,,73.6,0.0,u,0.0,True,1098.1000000238419,66.0,60.0,40.0,False,,396.92457032403524,[],"[940.5, 449]",ColorTask,129.0,83.0,,,HRV,HRV_0301,2022-11-30 21:22:43
,wl-rdm,200,573067,0.0-8.83-0.83,1.0,201.0,,,,,,,[],,,,,,87.9,1.0,i,1.0,True,804.1999999880791,49.0,60.0,40.0,False,,201.48025608537597,[],"[940.5, 449]",ColorTask,130.0,84.0,,,HRV,HRV_0301,2022-11-30 21:22:43
,wl-rdm,201,575400,0.0-8.84-0.84,1.0,202.0,,,,,,,[],,,,,,87.9,0.0,u,0.0,True,931.4000000357628,56.0,60.0,40.0,False,,331.1209242593458,[],"[940.5, 449]",ColorTask,131.0,85.0,,,HRV,HRV_0301,2022-11-30 21:22:43
,wl-rdm,202,577816,0.0-8.85-0.85,1.0,203.0,,,,,,,[],,,,,,56.4,0.0,i,1.0,False,1090.1000000238419,66.0,60.0,40.0,False,,265.3947770636613,[],"[940.5, 449]",ColorTask,130.0,86.0,,,HRV,HRV_0301,2022-11-30 21:22:43
,wl-rdm,203,580265,0.0-8.86-0.86,1.0,204.0,,,,,,,[],,,,,,50.0,0.0,i,1.0,False,1073.699999988079,65.0,60.0,40.0,False,,288.6501876838462,[],"[940.5, 449]",ColorTask,129.0,87.0,,,HRV,HRV_0301,2022-11-30 21:22:43
,wl-rdm,204,582498,0.0-8.87-0.87,1.0,205.0,,,,,,,[],,,,,,87.9,1.0,i,1.0,True,919.1999999880791,56.0,60.0,40.0,False,,229.54624349848388,[],"[940.5, 449]",ColorTask,130.0,88.0,,,HRV,HRV_0301,2022-11-30 21:22:43
,wl-rdm,205,585480,0.0-8.88-0.88,1.0,206.0,,,,,,,[],,,,,,53.2,1.0,i,1.0,True,1697.6000000238419,102.0,60.0,40.0,False,,214.72714249029735,[],"[940.5, 449]",ColorTask,131.0,89.0,,,HRV,HRV_0301,2022-11-30 21:22:43
,wl-rdm,206,587863,0.0-8.89-0.89,1.0,207.0,,,,,,,[],,,,,,62.5,0.0,u,0.0,True,930.1000000238419,56.0,60.0,40.0,False,,388.5183492417195,[],"[940.5, 449]",ColorTask,132.0,90.0,,,HRV,HRV_0301,2022-11-30 21:22:43
,wl-rdm,207,590245,0.0-8.90-0.90,1.0,208.0,,,,,,,[],,,,,,73.6,1.0,i,1.0,True,995.2999999523163,60.0,60.0,40.0,False,,328.3380961952613,[],"[940.5, 449]",ColorTask,133.0,91.0,,,HRV,HRV_0301,2022-11-30 21:22:43
,wl-rdm,208,592661,0.0-8.91-0.91,1.0,209.0,,,,,,,[],,,,,,87.9,0.0,u,0.0,True,992.8000000715256,60.0,60.0,40.0,False,,341.27784951206354,[],"[940.5, 449]",ColorTask,134.0,92.0,,,HRV,HRV_0301,2022-11-30 21:22:43
,wl-rdm,209,594893,0.0-8.92-0.92,1.0,210.0,,,,,,,[],,,,,,87.9,0.0,u,0.0,True,807.0999999642372,49.0,60.0,40.0,False,,344.51971207506966,[],"[940.5, 449]",ColorTask,135.0,93.0,,,HRV,HRV_0301,2022-11-30 21:22:43
,wl-rdm,210,597409,0.0-8.93-0.93,1.0,211.0,,,,,,,[],,,,,,53.2,0.0,i,1.0,False,1045.699999988079,63.0,60.0,40.0,False,,398.3677515105355,[],"[940.5, 449]",ColorTask,134.0,94.0,,,HRV,HRV_0301,2022-11-30 21:22:43
,wl-rdm,211,600642,0.0-8.94-0.94,1.0,212.0,,,,,,,[],,,,,,56.4,1.0,u,0.0,False,1897.0,114.0,60.0,40.0,False,,252.13348048880522,[],"[940.5, 449]",ColorTask,133.0,95.0,,,HRV,HRV_0301,2022-11-30 21:22:43
,wl-rdm,212,603324,0.0-8.95-0.95,1.0,213.0,,,,,,,[],,,,,,73.6,0.0,u,0.0,True,1285.199999988079,78.0,60.0,40.0,False,,304.3507245066396,[],"[940.5, 449]",ColorTask,134.0,96.0,,,HRV,HRV_0301,2022-11-30 21:22:43
,wl-rdm,213,605973,0.0-8.96-0.96,1.0,214.0,,,,,,,[],,,,,,62.5,0.0,u,0.0,True,1333.2999999523163,81.0,60.0,40.0,False,,218.84124541384065,[],"[940.5, 449]",ColorTask,135.0,97.0,,,HRV,HRV_0301,2022-11-30 21:22:43
,wl-rdm,214,608489,0.0-8.97-0.97,1.0,215.0,,,,,,,[],,,,,,87.9,0.0,u,0.0,True,1112.0000000596046,67.0,60.0,40.0,False,,333.47377484010724,[],"[940.5, 449]",ColorTask,136.0,98.0,,,HRV,HRV_0301,2022-11-30 21:22:43
,wl-rdm,215,610822,0.0-8.98-0.98,1.0,216.0,,,,,,,[],,,,,,87.9,1.0,i,1.0,True,1027.6000000238419,62.0,60.0,40.0,False,,226.50267174175065,[],"[940.5, 449]",ColorTask,137.0,99.0,,,HRV,HRV_0301,2022-11-30 21:22:43
,wl-rdm,216,613170,0.0-8.99-0.99,1.0,217.0,,,,,,,[],,,,,,56.4,1.0,i,1.0,True,1082.7999999523163,65.0,60.0,40.0,False,,207.45130661942306,[],"[940.5, 449]",ColorTask,138.0,100.0,,,HRV,HRV_0301,2022-11-30 21:22:43
,wl-rdm,217,615770,0.0-8.100-0.100,1.0,218.0,,,,,,,[],,,,,,53.2,1.0,i,1.0,True,1189.699999988079,72.0,60.0,40.0,False,,336.12775635691185,[],"[940.5, 449]",ColorTask,139.0,101.0,,,HRV,HRV_0301,2022-11-30 21:22:43
,wl-rdm,218,618235,0.0-8.101-0.101,1.0,219.0,,,,,,,[],,,,,,73.6,1.0,i,1.0,True,1011.1000000238419,61.0,60.0,40.0,False,,374.5992912521798,[],"[940.5, 449]",ColorTask,140.0,102.0,,,HRV,HRV_0301,2022-11-30 21:22:43
,wl-rdm,219,620468,0.0-8.102-0.102,1.0,220.0,,,,,,,[],,,,,,62.5,1.0,i,1.0,True,958.5,58.0,60.0,40.0,False,,215.80290865063517,[],"[940.5, 449]",ColorTask,141.0,103.0,,,HRV,HRV_0301,2022-11-30 21:22:43
,wl-rdm,220,622734,0.0-8.103-0.103,1.0,221.0,,,,,,,[],,,,,,73.6,1.0,i,1.0,True,873.0,53.0,60.0,40.0,False,,303.6013956034973,[],"[940.5, 449]",ColorTask,142.0,104.0,,,HRV,HRV_0301,2022-11-30 21:22:43
,wl-rdm,221,625083,0.0-8.104-0.104,1.0,222.0,,,,,,,[],,,,,,53.2,0.0,i,1.0,False,976.3999999761581,59.0,60.0,40.0,False,,305.9324421229058,[],"[940.5, 449]",ColorTask,141.0,105.0,,,HRV,HRV_0301,2022-11-30 21:22:43
,wl-rdm,222,627333,0.0-8.105-0.105,1.0,223.0,,,,,,,[],,,,,,87.9,1.0,i,1.0,True,903.5,55.0,60.0,40.0,False,,264.1702491184083,[],"[940.5, 449]",ColorTask,142.0,106.0,,,HRV,HRV_0301,2022-11-30 21:22:43
,wl-rdm,223,630132,0.0-8.106-0.106,1.0,224.0,,,,,,,[],,,,,,50.0,0.0,u,0.0,True,1465.3999999761581,88.0,60.0,40.0,False,,253.38908467274308,[],"[940.5, 449]",ColorTask,143.0,107.0,,,HRV,HRV_0301,2022-11-30 21:22:43
,wl-rdm,224,632598,0.0-8.107-0.107,1.0,225.0,,,,,,,[],,,,,,56.4,1.0,i,1.0,True,1197.300000011921,72.0,60.0,40.0,False,,211.55314772444402,[],"[940.5, 449]",ColorTask,144.0,108.0,,,HRV,HRV_0301,2022-11-30 21:22:43
,wl-html-button-response,225,635381,0.0-9.0-0.0,,,,,,,,,,2780.0,,0,,,,,,,,,,,,,,,,,,,,<h3>End of this session. Thank you!</h3><br>,['Close window'],HRV,HRV_0301,2022-11-30 21:22:43
