success,trial_type,trial_index,time_elapsed,internal_node_id,Block,TrialNumber,TrialTime,trialTimeDiff,FPS_avg,FPS_med,FPS_mode,TrialDur,winResizeTime,rt,block,button_pressed,MotCoh,MotDir,ColCoh,Color,ChoiceKey,Choice,Accuracy,RT,nFrames,FPS,PPD,missTrial,missTrialMsg,onsetDelay,fullScreenExitTime,canvCenter,TrialType,Score,BlockTrial,stimulus,button_labels,exp,subjectId,date
True,fullscreen,0,1779,0.0-0.0,0.0,1.0,,,,,,,,,,,,,,,,,,,,,,,,,,,,,,,,HRV,HRV_0113,2022-11-30 18:20:04
,wl-check-fps,1,10763,0.0-1.0,0.0,2.0,"[10714.5, 10728.6, 10745.7, 10762.6, 10778.8, 10795.6, 10812.2, 10829.1, 10846.1, 10863.3, 10879.2, 10896, 10912.5, 10928.3, 10945.3, 10962.1, 10978.8, 10997.7, 11011.9, 11027.9, 11045.1, 11061.4, 11078.1, 11094.8, 11111.3, 11128, 11144.7, 11161.3, 11178.3, 11194.6, 11211.2, 11228.1, 11245.2, 11261.4, 11278.1, 11294.7, 11311.4, 11328.1, 11344.7, 11361.5, 11378.2, 11394.6, 11411.3, 11427.9, 11444.6, 11461.3, 11478, 11494.4, 11511.3, 11528, 11544.7, 11561.1, 11578.1, 11594.5, 11611.2, 11627.9, 11644.7, 11661.2, 11678, 11695, 11711.3, 11728, 11744.6, 11761.3, 11777.9, 11794.3, 11811, 11828, 11844.7, 11861.3, 11877.7, 11894.5, 11911.1, 11927.9, 11944.4, 11961.2, 11977.9, 11997.1, 12011.2, 12027.8, 12044.5, 12061.2, 12077.7, 12094.4, 12111.1, 12127.7, 12144.4, 12161.1, 12177.7, 12194.4, 12211.1, 12227.8, 12244.7, 12261.2, 12277.5, 12294.4, 12311.4, 12327.8, 12344.6, 12361.2, 12378.1, 12394.6, 12411.3, 12428, 12444.5, 12461.3, 12477.7, 12494.2, 12510.9, 12527.9, 12544.5, 12560.8, 12577.6, 12594.5, 12611.1, 12627.6, 12644.2, 12661, 12677.7, 12694.4, 12711.1, 12727.9, 12744.4, 12760.9, 12777.7, 12794.4, 12811, 12827.6, 12844.3, 12861, 12877.7, 12894.4, 12911.2, 12927.8, 12944.4, 12960.8, 12977.7, 12997.1, 13011, 13027.6, 13044.4, 13060.9, 13077.8, 13094.3, 13111.1, 13127.6, 13144.1, 13160.8, 13177.6, 13194.2, 13211, 13227.2, 13244.1, 13261, 13277.5, 13294.2, 13310.9, 13327.7, 13344.3, 13360.9, 13377.7, 13394.4, 13410.8, 13427.4, 13444.1, 13460.7, 13477.4, 13494, 13510.7, 13527.5, 13544.1, 13560.8, 13577.6, 13594.2, 13610.9, 13627.1, 13644, 13660.7, 13677.4, 13694.1, 13710.8, 13727.4, 13744, 13760.8, 13777.7, 13794.4, 13810.7, 13827.2, 13844.1, 13860.6, 13877.4, 13894.1, 13910.7, 13927.3, 13944, 13960.6, 13977.6, 13996.2, 14010.5, 14027.3, 14043.9, 14060.6, 14077.2, 14094, 14121.9, 14127.4, 14143.7, 14160.5, 14177.4, 14194.2, 14210.5, 14227.2, 14244.1, 14260.6, 14277.2, 14293.9, 14310.5, 14327.2, 14344.3, 14361.3, 14377.4, 14394.3, 14410.8, 14427.4, 14444.1, 14460.9, 14477.4, 14494.3, 14510.7, 14527.2, 14544.2, 14560.5, 14577.2, 14593.9, 14610.6, 14627.3, 14643.6, 14661, 14677.4, 14694, 14710.6, 14732, 14747.5, 14760.3, 14777.5, 14794, 14810.8, 14827.4, 14844.3, 14860.6, 14877.2, 14894.1, 14910.6, 14927.3, 14944, 14960.3, 14977.2, 14995, 15010.5, 15027.4, 15044.2, 15060.2, 15077.1, 15093.7, 15110.3, 15126.9, 15143.6, 15160.2, 15176.8, 15193.5, 15210.2, 15227.1, 15243.7, 15260.4, 15277, 15293.6, 15310.5, 15327.1, 15343.6, 15359.9, 15376.6, 15393.4, 15410.2, 15426.7, 15443.6, 15460.3, 15476.8, 15493.5, 15510.3, 15526.8, 15543.4, 15560, 15576.7, 15593.4, 15610.3, 15626.8, 15643.5, 15660, 15676.8, 15693.5]","[17.9, 14.1, 17.1, 16.9, 16.2, 16.8, 16.6, 16.9, 17, 17.2, 15.9, 16.8, 16.5, 15.8, 17, 16.8, 16.7, 18.9, 14.2, 16, 17.2, 16.3, 16.7, 16.7, 16.5, 16.7, 16.7, 16.6, 17, 16.3, 16.6, 16.9, 17.1, 16.2, 16.7, 16.6, 16.7, 16.7, 16.6, 16.8, 16.7, 16.4, 16.7, 16.6, 16.7, 16.7, 16.7, 16.4, 16.9, 16.7, 16.7, 16.4, 17, 16.4, 16.7, 16.7, 16.8, 16.5, 16.8, 17, 16.3, 16.7, 16.6, 16.7, 16.6, 16.4, 16.7, 17, 16.7, 16.6, 16.4, 16.8, 16.6, 16.8, 16.5, 16.8, 16.7, 19.2, 14.1, 16.6, 16.7, 16.7, 16.5, 16.7, 16.7, 16.6, 16.7, 16.7, 16.6, 16.7, 16.7, 16.7, 16.9, 16.5, 16.3, 16.9, 17, 16.4, 16.8, 16.6, 16.9, 16.5, 16.7, 16.7, 16.5, 16.8, 16.4, 16.5, 16.7, 17, 16.6, 16.3, 16.8, 16.9, 16.6, 16.5, 16.6, 16.8, 16.7, 16.7, 16.7, 16.8, 16.5, 16.5, 16.8, 16.7, 16.6, 16.6, 16.7, 16.7, 16.7, 16.7, 16.8, 16.6, 16.6, 16.4, 16.9, 19.4, 13.9, 16.6, 16.8, 16.5, 16.9, 16.5, 16.8, 16.5, 16.5, 16.7, 16.8, 16.6, 16.8, 16.2, 16.9, 16.9, 16.5, 16.7, 16.7, 16.8, 16.6, 16.6, 16.8, 16.7, 16.4, 16.6, 16.7, 16.6, 16.7, 16.6, 16.7, 16.8, 16.6, 16.7, 16.8, 16.6, 16.7, 16.2, 16.9, 16.7, 16.7, 16.7, 16.7, 16.6, 16.6, 16.8, 16.9, 16.7, 16.3, 16.5, 16.9, 16.5, 16.8, 16.7, 16.6, 16.6, 16.7, 16.6, 17, 18.6, 14.3, 16.8, 16.6, 16.7, 16.6, 16.8, 27.9, 5.5, 16.3, 16.8, 16.9, 16.8, 16.3, 16.7, 16.9, 16.5, 16.6, 16.7, 16.6, 16.7, 17.1, 17, 16.1, 16.9, 16.5, 16.6, 16.7, 16.8, 16.5, 16.9, 16.4, 16.5, 17, 16.3, 16.7, 16.7, 16.7, 16.7, 16.3, 17.4, 16.4, 16.6, 16.6, 21.4, 15.5, 12.8, 17.2, 16.5, 16.8, 16.6, 16.9, 16.3, 16.6, 16.9, 16.5, 16.7, 16.7, 16.3, 16.9, 17.8, 15.5, 16.9, 16.8, 16, 16.9, 16.6, 16.6, 16.6, 16.7, 16.6, 16.6, 16.7, 16.7, 16.9, 16.6, 16.7, 16.6, 16.6, 16.9, 16.6, 16.5, 16.3, 16.7, 16.8, 16.8, 16.5, 16.9, 16.7, 16.5, 16.7, 16.8, 16.5, 16.6, 16.6, 16.7, 16.7, 16.9, 16.5, 16.7, 16.5, 16.8, 16.7]",60.0,60.0,60.0,5013.7,[],,,,,,,,,,,,,,,,,,,,,,,,,HRV,HRV_0113,2022-11-30 18:20:04
,wl-html-keyboard-response,2,22604,0.0-2.0-0.0,0.0,3.0,,,,,,,,9824.300000071526,0.0,0,,,,,,,,,,,,,,,,,,,,,,HRV,HRV_0113,2022-11-30 18:20:04
,wl-rdm,3,29672,0.0-3.0-0.0,0.0,4.0,,,,,,,[],,,,0.0,0.0,87.9,0.0,u,0.0,True,1456.3999999761581,88.0,60.0,40.0,False,,3000.0,[],"[512, 361.5]",ColorTask_Demo,,,,,HRV,HRV_0113,2022-11-30 18:20:04
,wl-rdm,4,34537,0.0-3.0-1.0,0.0,5.0,,,,,,,[],,,,0.0,0.0,87.9,1.0,i,1.0,True,739.0000001192093,45.0,60.0,40.0,False,,2000.0,[],"[512, 361.5]",ColorTask_Demo,,,,,HRV,HRV_0113,2022-11-30 18:20:04
,wl-html-keyboard-response,5,38434,0.0-3.0-2.0,0.0,6.0,,,,,,,,1886.5,0.0,1,,,,,,,,,,,,,,,,,,,,,,HRV,HRV_0113,2022-11-30 18:20:04
,wl-html-keyboard-response,6,47384,0.0-4.0-0.0,0.0,7.0,,,,,,,,6932.300000071526,0.0,0,,,,,,,,,,,,,,,,,,,,,,HRV,HRV_0113,2022-11-30 18:20:04
,wl-html-keyboard-response,7,55583,0.0-5.0-0.0,0.0,8.0,,,,,,,,6181.400000095367,0.0,0,,,,,,,,,,,,,,,,,,,,,,HRV,HRV_0113,2022-11-30 18:20:04
,wl-rdm,8,58329,0.0-6.0-0.0,0.0,9.0,,,,,,,[],,,,,,53.2,0.0,i,1.0,False,1403.7999999523163,85.0,60.0,40.0,False,,267.43260450097665,[],"[512, 361.5]",ColorTask,-1.0,1.0,,,HRV,HRV_0113,2022-11-30 18:20:04
,wl-rdm,9,60512,0.0-6.1-0.1,0.0,10.0,,,,,,,[],,,,,,62.5,1.0,i,1.0,True,760.2000000476837,46.0,60.0,40.0,False,,333.7501076956104,[],"[512, 361.5]",ColorTask,0.0,2.0,,,HRV,HRV_0113,2022-11-30 18:20:04
,wl-rdm,10,62945,0.0-6.2-0.2,0.0,11.0,,,,,,,[],,,,,,56.4,1.0,i,1.0,True,1104.8000000715256,67.0,60.0,40.0,False,,231.14612732494123,[],"[512, 361.5]",ColorTask,1.0,3.0,,,HRV,HRV_0113,2022-11-30 18:20:04
,wl-rdm,11,65260,0.0-6.3-0.3,0.0,12.0,,,,,,,[],,,,,,56.4,0.0,u,0.0,True,987.2999999523163,60.0,60.0,40.0,False,,234.01526391348335,[],"[512, 361.5]",ColorTask,2.0,4.0,,,HRV,HRV_0113,2022-11-30 18:20:04
,wl-rdm,12,67526,0.0-6.4-0.4,0.0,13.0,,,,,,,[],,,,,,50.0,0.0,i,1.0,False,943.6999999284744,57.0,60.0,40.0,False,,219.57231378548505,[],"[512, 361.5]",ColorTask,1.0,5.0,,,HRV,HRV_0113,2022-11-30 18:20:04
,wl-rdm,13,70058,0.0-6.5-0.5,0.0,14.0,,,,,,,[],,,,,,56.4,0.0,i,1.0,False,1121.8999999761581,68.0,60.0,40.0,False,,333.26257108351524,[],"[512, 361.5]",ColorTask,0.0,6.0,,,HRV,HRV_0113,2022-11-30 18:20:04
,wl-rdm,14,72525,0.0-6.6-0.6,0.0,15.0,,,,,,,[],,,,,,62.5,0.0,u,0.0,True,993.5,60.0,60.0,40.0,False,,394.2070310886612,[],"[512, 361.5]",ColorTask,1.0,7.0,,,HRV,HRV_0113,2022-11-30 18:20:04
,wl-rdm,15,74874,0.0-6.7-0.7,0.0,16.0,,,,,,,[],,,,,,53.2,0.0,i,1.0,False,905.7000000476837,55.0,60.0,40.0,False,,352.6712729242421,[],"[512, 361.5]",ColorTask,0.0,8.0,,,HRV,HRV_0113,2022-11-30 18:20:04
,wl-rdm,16,77041,0.0-6.8-0.8,0.0,17.0,,,,,,,[],,,,,,50.0,1.0,i,1.0,True,826.6999999284744,50.0,60.0,40.0,False,,235.68927346047408,[],"[512, 361.5]",ColorTask,1.0,9.0,,,HRV,HRV_0113,2022-11-30 18:20:04
,wl-rdm,17,79155,0.0-6.9-0.9,0.0,18.0,,,,,,,[],,,,,,87.9,1.0,i,1.0,True,755.2999999523163,46.0,60.0,40.0,False,,274.81836973373316,[],"[512, 361.5]",ColorTask,2.0,10.0,,,HRV,HRV_0113,2022-11-30 18:20:04
,wl-rdm,18,81337,0.0-6.10-0.10,0.0,19.0,,,,,,,[],,,,,,62.5,1.0,i,1.0,True,857.6999999284744,52.0,60.0,40.0,False,,247.10672482928607,[],"[512, 361.5]",ColorTask,3.0,11.0,,,HRV,HRV_0113,2022-11-30 18:20:04
,wl-rdm,19,83487,0.0-6.11-0.11,0.0,20.0,,,,,,,[],,,,,,62.5,0.0,u,0.0,True,840.7000000476837,51.0,60.0,40.0,False,,230.3991787671175,[],"[512, 361.5]",ColorTask,4.0,12.0,,,HRV,HRV_0113,2022-11-30 18:20:04
,wl-rdm,20,85470,0.0-6.12-0.12,0.0,21.0,,,,,,,[],,,,,,73.6,0.0,u,0.0,True,693.8000000715256,42.0,60.0,40.0,False,,214.53483443252344,[],"[512, 361.5]",ColorTask,5.0,13.0,,,HRV,HRV_0113,2022-11-30 18:20:04
,wl-rdm,21,87719,0.0-6.13-0.13,0.0,22.0,,,,,,,[],,,,,,53.2,1.0,i,1.0,True,806.8000000715256,49.0,60.0,40.0,False,,370.0268621089027,[],"[512, 361.5]",ColorTask,6.0,14.0,,,HRV,HRV_0113,2022-11-30 18:20:04
,wl-rdm,22,90151,0.0-6.14-0.14,0.0,23.0,,,,,,,[],,,,,,53.2,0.0,u,0.0,True,1061.0999999046326,64.0,60.0,40.0,False,,285.24641322851767,[],"[512, 361.5]",ColorTask,7.0,15.0,,,HRV,HRV_0113,2022-11-30 18:20:04
,wl-rdm,23,92218,0.0-6.15-0.15,0.0,24.0,,,,,,,[],,,,,,87.9,0.0,u,0.0,True,796.6000000238419,48.0,60.0,40.0,False,,202.18289609466504,[],"[512, 361.5]",ColorTask,8.0,16.0,,,HRV,HRV_0113,2022-11-30 18:20:04
,wl-rdm,24,94333,0.0-6.16-0.16,0.0,25.0,,,,,,,[],,,,,,62.5,1.0,i,1.0,True,708.3999999761581,43.0,60.0,40.0,False,,320.457949552076,[],"[512, 361.5]",ColorTask,9.0,17.0,,,HRV,HRV_0113,2022-11-30 18:20:04
,wl-rdm,25,96549,0.0-6.17-0.17,0.0,26.0,,,,,,,[],,,,,,87.9,0.0,u,0.0,True,779.7000000476837,47.0,60.0,40.0,False,,377.95847332993833,[],"[512, 361.5]",ColorTask,10.0,18.0,,,HRV,HRV_0113,2022-11-30 18:20:04
,wl-rdm,26,98599,0.0-6.18-0.18,0.0,27.0,,,,,,,[],,,,,,56.4,0.0,i,1.0,False,758.3999998569489,46.0,60.0,40.0,False,,204.68838994183426,[],"[512, 361.5]",ColorTask,9.0,19.0,,,HRV,HRV_0113,2022-11-30 18:20:04
,wl-rdm,27,100949,0.0-6.19-0.19,0.0,28.0,,,,,,,[],,,,,,56.4,1.0,u,0.0,False,917.2000000476837,55.0,60.0,40.0,False,,350.5483469961233,[],"[512, 361.5]",ColorTask,8.0,20.0,,,HRV,HRV_0113,2022-11-30 18:20:04
,wl-rdm,28,103080,0.0-6.20-0.20,0.0,29.0,,,,,,,[],,,,,,73.6,1.0,i,1.0,True,766.6000000238419,46.0,60.0,40.0,False,,297.1786050573567,[],"[512, 361.5]",ColorTask,9.0,21.0,,,HRV,HRV_0113,2022-11-30 18:20:04
,wl-rdm,29,105296,0.0-6.21-0.21,0.0,30.0,,,,,,,[],,,,,,62.5,0.0,u,0.0,True,922.6000000238419,56.0,60.0,40.0,False,,206.96327000542593,[],"[512, 361.5]",ColorTask,10.0,22.0,,,HRV,HRV_0113,2022-11-30 18:20:04
,wl-rdm,30,107296,0.0-6.22-0.22,0.0,31.0,,,,,,,[],,,,,,73.6,1.0,i,1.0,True,714.0,43.0,60.0,40.0,False,,202.21507402599696,[],"[512, 361.5]",ColorTask,11.0,23.0,,,HRV,HRV_0113,2022-11-30 18:20:04
,wl-rdm,31,109395,0.0-6.23-0.23,0.0,32.0,,,,,,,[],,,,,,73.6,0.0,u,0.0,True,654.7000000476837,40.0,60.0,40.0,False,,363.68639189018234,[],"[512, 361.5]",ColorTask,12.0,24.0,,,HRV,HRV_0113,2022-11-30 18:20:04
,wl-rdm,32,111644,0.0-6.24-0.24,0.0,33.0,,,,,,,[],,,,,,62.5,0.0,u,0.0,True,896.4999998807907,54.0,60.0,40.0,False,,273.95025697973057,[],"[512, 361.5]",ColorTask,13.0,25.0,,,HRV,HRV_0113,2022-11-30 18:20:04
,wl-rdm,33,113822,0.0-6.25-0.25,0.0,34.0,,,,,,,[],,,,,,87.9,1.0,i,1.0,True,839.7000000476837,51.0,60.0,40.0,False,,254.36534236867675,[],"[512, 361.5]",ColorTask,14.0,26.0,,,HRV,HRV_0113,2022-11-30 18:20:04
,wl-rdm,34,116238,0.0-6.26-0.26,0.0,35.0,,,,,,,[],,,,,,73.6,0.0,u,0.0,True,997.5,60.0,60.0,40.0,False,,333.98416248449723,[],"[512, 361.5]",ColorTask,15.0,27.0,,,HRV,HRV_0113,2022-11-30 18:20:04
,wl-rdm,35,118405,0.0-6.27-0.27,0.0,36.0,,,,,,,[],,,,,,62.5,1.0,i,1.0,True,785.6000000238419,47.0,60.0,40.0,False,,304.8671458808949,[],"[512, 361.5]",ColorTask,16.0,28.0,,,HRV,HRV_0113,2022-11-30 18:20:04
,wl-rdm,36,120637,0.0-6.28-0.28,0.0,37.0,,,,,,,[],,,,,,53.2,1.0,u,0.0,False,912.6999999284744,55.0,60.0,40.0,False,,261.76719468491274,[],"[512, 361.5]",ColorTask,15.0,29.0,,,HRV,HRV_0113,2022-11-30 18:20:04
,wl-rdm,37,122820,0.0-6.29-0.29,0.0,38.0,,,,,,,[],,,,,,73.6,0.0,u,0.0,True,912.8999998569489,55.0,60.0,40.0,False,,203.0385181143476,[],"[512, 361.5]",ColorTask,16.0,30.0,,,HRV,HRV_0113,2022-11-30 18:20:04
,wl-rdm,38,125036,0.0-6.30-0.30,0.0,39.0,,,,,,,[],,,,,,87.9,0.0,u,0.0,True,838.0,51.0,60.0,40.0,False,,286.36278642270065,[],"[512, 361.5]",ColorTask,17.0,31.0,,,HRV,HRV_0113,2022-11-30 18:20:04
,wl-rdm,39,127152,0.0-6.31-0.31,0.0,40.0,,,,,,,[],,,,,,73.6,1.0,i,1.0,True,770.3999999761581,47.0,60.0,40.0,False,,252.45127975714422,[],"[512, 361.5]",ColorTask,18.0,32.0,,,HRV,HRV_0113,2022-11-30 18:20:04
,wl-rdm,40,129618,0.0-6.32-0.32,0.0,41.0,,,,,,,[],,,,,,53.2,0.0,i,1.0,False,1188.7999999523163,72.0,60.0,40.0,False,,209.51996081116494,[],"[512, 361.5]",ColorTask,17.0,33.0,,,HRV,HRV_0113,2022-11-30 18:20:04
,wl-rdm,41,131714,0.0-6.33-0.33,0.0,42.0,,,,,,,[],,,,,,73.6,1.0,i,1.0,True,672.5000001192093,41.0,60.0,40.0,False,,343.7029052887888,[],"[512, 361.5]",ColorTask,18.0,34.0,,,HRV,HRV_0113,2022-11-30 18:20:04
,wl-rdm,42,133783,0.0-6.34-0.34,0.0,43.0,,,,,,,[],,,,,,87.9,0.0,u,0.0,True,605.2000000476837,37.0,60.0,40.0,False,,382.4177424149066,[],"[512, 361.5]",ColorTask,19.0,35.0,,,HRV,HRV_0113,2022-11-30 18:20:04
,wl-rdm,43,135898,0.0-6.35-0.35,0.0,44.0,,,,,,,[],,,,,,53.2,1.0,i,1.0,True,685.3999999761581,41.0,60.0,40.0,False,,360.81076821949074,[],"[512, 361.5]",ColorTask,20.0,36.0,,,HRV,HRV_0113,2022-11-30 18:20:04
,wl-rdm,44,137864,0.0-6.36-0.36,0.0,45.0,,,,,,,[],,,,,,73.6,1.0,i,1.0,True,689.7999999523163,42.0,60.0,40.0,False,,208.64641442758668,[],"[512, 361.5]",ColorTask,21.0,37.0,,,HRV,HRV_0113,2022-11-30 18:20:04
,wl-rdm,45,139847,0.0-6.37-0.37,0.0,46.0,,,,,,,[],,,,,,50.0,1.0,u,0.0,False,701.1000000238419,42.0,60.0,40.0,False,,211.20584627815245,[],"[512, 361.5]",ColorTask,20.0,38.0,,,HRV,HRV_0113,2022-11-30 18:20:04
,wl-rdm,46,141896,0.0-6.38-0.38,0.0,47.0,,,,,,,[],,,,,,87.9,0.0,u,0.0,True,723.1000000238419,44.0,60.0,40.0,False,,242.5621865933409,[],"[512, 361.5]",ColorTask,21.0,39.0,,,HRV,HRV_0113,2022-11-30 18:20:04
,wl-rdm,47,144063,0.0-6.39-0.39,0.0,48.0,,,,,,,[],,,,,,73.6,0.0,u,0.0,True,893.8000000715256,54.0,60.0,40.0,False,,203.82264922322278,[],"[512, 361.5]",ColorTask,22.0,40.0,,,HRV,HRV_0113,2022-11-30 18:20:04
,wl-rdm,48,146077,0.0-6.40-0.40,0.0,49.0,,,,,,,[],,,,,,53.2,0.0,i,1.0,False,623.6000000238419,38.0,60.0,40.0,False,,308.7045979461104,[],"[512, 361.5]",ColorTask,21.0,41.0,,,HRV,HRV_0113,2022-11-30 18:20:04
,wl-rdm,49,148360,0.0-6.41-0.41,0.0,50.0,,,,,,,[],,,,,,56.4,0.0,i,1.0,False,810.5000001192093,49.0,60.0,40.0,False,,399.12152394318616,[],"[512, 361.5]",ColorTask,20.0,42.0,,,HRV,HRV_0113,2022-11-30 18:20:04
,wl-rdm,50,150394,0.0-6.42-0.42,0.0,51.0,,,,,,,[],,,,,,87.9,0.0,u,0.0,True,708.9000000953674,43.0,60.0,40.0,False,,257.534283448334,[],"[512, 361.5]",ColorTask,21.0,43.0,,,HRV,HRV_0113,2022-11-30 18:20:04
,wl-rdm,51,152409,0.0-6.43-0.43,0.0,52.0,,,,,,,[],,,,,,73.6,1.0,i,1.0,True,674.6000000238419,41.0,60.0,40.0,False,,257.6063423898978,[],"[512, 361.5]",ColorTask,22.0,44.0,,,HRV,HRV_0113,2022-11-30 18:20:04
,wl-rdm,52,154675,0.0-6.44-0.44,0.0,53.0,,,,,,,[],,,,,,50.0,0.0,i,1.0,False,963.3000000715256,58.0,60.0,40.0,False,,230.5065160153169,[],"[512, 361.5]",ColorTask,21.0,45.0,,,HRV,HRV_0113,2022-11-30 18:20:04
,wl-rdm,53,156974,0.0-6.45-0.45,0.0,54.0,,,,,,,[],,,,,,56.4,0.0,i,1.0,False,843.3000000715256,51.0,60.0,40.0,False,,366.9859272088288,[],"[512, 361.5]",ColorTask,20.0,46.0,,,HRV,HRV_0113,2022-11-30 18:20:04
,wl-rdm,54,159074,0.0-6.46-0.46,0.0,55.0,,,,,,,[],,,,,,87.9,0.0,u,0.0,True,674.5999999046326,41.0,60.0,40.0,False,,352.2663107184277,[],"[512, 361.5]",ColorTask,21.0,47.0,,,HRV,HRV_0113,2022-11-30 18:20:04
,wl-rdm,55,161290,0.0-6.47-0.47,0.0,56.0,,,,,,,[],,,,,,73.6,0.0,u,0.0,True,859.3999999761581,52.0,60.0,40.0,False,,292.3184787664004,[],"[512, 361.5]",ColorTask,22.0,48.0,,,HRV,HRV_0113,2022-11-30 18:20:04
,wl-rdm,56,163773,0.0-6.48-0.48,0.0,57.0,,,,,,,[],,,,,,56.4,1.0,i,1.0,True,1033.5000001192093,62.0,60.0,40.0,False,,374.3016735007378,[],"[512, 361.5]",ColorTask,23.0,49.0,,,HRV,HRV_0113,2022-11-30 18:20:04
,wl-rdm,57,165722,0.0-6.49-0.49,0.0,58.0,,,,,,,[],,,,,,87.9,1.0,i,1.0,True,604.3000000715256,37.0,60.0,40.0,False,,250.60995202816352,[],"[512, 361.5]",ColorTask,24.0,50.0,,,HRV,HRV_0113,2022-11-30 18:20:04
,wl-rdm,58,168053,0.0-6.50-0.50,0.0,59.0,,,,,,,[],,,,,,53.2,0.0,i,1.0,False,940.0,56.0,60.0,40.0,False,,331.88889208565195,[],"[512, 361.5]",ColorTask,23.0,51.0,,,HRV,HRV_0113,2022-11-30 18:20:04
,wl-rdm,59,170654,0.0-6.51-0.51,0.0,60.0,,,,,,,[],,,,,,56.4,0.0,i,1.0,False,1208.0,73.0,60.0,40.0,False,,327.87771859288995,[],"[512, 361.5]",ColorTask,22.0,52.0,,,HRV,HRV_0113,2022-11-30 18:20:04
,wl-rdm,60,172569,0.0-6.52-0.52,0.0,61.0,,,,,,,[],,,,,,87.9,1.0,i,1.0,True,614.3000000715256,37.0,60.0,40.0,False,,218.73755927807423,[],"[512, 361.5]",ColorTask,23.0,53.0,,,HRV,HRV_0113,2022-11-30 18:20:04
,wl-rdm,61,174575,0.0-6.53-0.53,0.0,62.0,,,,,,,[],,,,,,56.4,0.0,u,0.0,True,673.3999999761581,41.0,60.0,40.0,False,,233.53160351926581,[],"[512, 361.5]",ColorTask,24.0,54.0,,,HRV,HRV_0113,2022-11-30 18:20:04
,wl-rdm,62,176891,0.0-6.54-0.54,0.0,63.0,,,,,,,[],,,,,,53.2,0.0,u,0.0,True,954.6999999284744,58.0,60.0,40.0,False,,292.9157842812881,[],"[512, 361.5]",ColorTask,25.0,55.0,,,HRV,HRV_0113,2022-11-30 18:20:04
,wl-rdm,63,179472,0.0-6.55-0.55,0.0,64.0,,,,,,,[],,,,,,56.4,1.0,i,1.0,True,1237.3999999761581,75.0,60.0,40.0,False,,236.54132469973052,[],"[512, 361.5]",ColorTask,26.0,56.0,,,HRV,HRV_0113,2022-11-30 18:20:04
,wl-rdm,64,181822,0.0-6.56-0.56,0.0,65.0,,,,,,,[],,,,,,53.2,1.0,i,1.0,True,895.4000000953674,54.0,60.0,40.0,False,,380.2698377819022,[],"[512, 361.5]",ColorTask,27.0,57.0,,,HRV,HRV_0113,2022-11-30 18:20:04
,wl-rdm,65,183938,0.0-6.57-0.57,0.0,66.0,,,,,,,[],,,,,,53.2,0.0,u,0.0,True,768.1000000238419,46.0,60.0,40.0,False,,272.4044017024723,[],"[512, 361.5]",ColorTask,28.0,58.0,,,HRV,HRV_0113,2022-11-30 18:20:04
,wl-rdm,66,185971,0.0-6.58-0.58,0.0,67.0,,,,,,,[],,,,,,87.9,0.0,u,0.0,True,701.5000001192093,42.0,60.0,40.0,False,,252.1305571494229,[],"[512, 361.5]",ColorTask,29.0,59.0,,,HRV,HRV_0113,2022-11-30 18:20:04
,wl-rdm,67,188237,0.0-6.59-0.59,0.0,68.0,,,,,,,[],,,,,,53.2,1.0,u,0.0,False,970.3999999761581,59.0,60.0,40.0,False,,214.02981488291857,[],"[512, 361.5]",ColorTask,28.0,60.0,,,HRV,HRV_0113,2022-11-30 18:20:04
,wl-rdm,68,190253,0.0-6.60-0.60,0.0,69.0,,,,,,,[],,,,,,62.5,0.0,i,1.0,False,657.0999999046326,40.0,60.0,40.0,False,,265.57421760481543,[],"[512, 361.5]",ColorTask,27.0,61.0,,,HRV,HRV_0113,2022-11-30 18:20:04
,wl-rdm,69,192302,0.0-6.61-0.61,0.0,70.0,,,,,,,[],,,,,,62.5,1.0,i,1.0,True,742.2999999523163,45.0,60.0,40.0,False,,225.0596547769071,[],"[512, 361.5]",ColorTask,28.0,62.0,,,HRV,HRV_0113,2022-11-30 18:20:04
,wl-rdm,70,194302,0.0-6.62-0.62,0.0,71.0,,,,,,,[],,,,,,53.2,1.0,i,1.0,True,711.6000000238419,43.0,60.0,40.0,False,,232.04010496104553,[],"[512, 361.5]",ColorTask,29.0,63.0,,,HRV,HRV_0113,2022-11-30 18:20:04
,wl-rdm,71,196484,0.0-6.63-0.63,0.0,72.0,,,,,,,[],,,,,,56.4,1.0,i,1.0,True,866.0,52.0,60.0,40.0,False,,239.4072959527016,[],"[512, 361.5]",ColorTask,30.0,64.0,,,HRV,HRV_0113,2022-11-30 18:20:04
,wl-rdm,72,198550,0.0-6.64-0.64,0.0,73.0,,,,,,,[],,,,,,56.4,1.0,i,1.0,True,611.3999999761581,37.0,60.0,40.0,False,,397.0569205277371,[],"[512, 361.5]",ColorTask,31.0,65.0,,,HRV,HRV_0113,2022-11-30 18:20:04
,wl-rdm,73,200616,0.0-6.65-0.65,0.0,74.0,,,,,,,[],,,,,,50.0,1.0,i,1.0,True,704.5999999046326,43.0,60.0,40.0,False,,269.7092142421899,[],"[512, 361.5]",ColorTask,32.0,66.0,,,HRV,HRV_0113,2022-11-30 18:20:04
,wl-rdm,74,202698,0.0-6.66-0.66,0.0,75.0,,,,,,,[],,,,,,73.6,1.0,i,1.0,True,685.1999999284744,41.0,60.0,40.0,False,,316.2733305744554,[],"[512, 361.5]",ColorTask,33.0,67.0,,,HRV,HRV_0113,2022-11-30 18:20:04
,wl-rdm,75,204798,0.0-6.67-0.67,0.0,76.0,,,,,,,[],,,,,,53.2,1.0,i,1.0,True,754.3999998569489,46.0,60.0,40.0,False,,255.83409099400316,[],"[512, 361.5]",ColorTask,34.0,68.0,,,HRV,HRV_0113,2022-11-30 18:20:04
,wl-rdm,76,206997,0.0-6.68-0.68,0.0,77.0,,,,,,,[],,,,,,56.4,0.0,u,0.0,True,877.2999999523163,53.0,60.0,40.0,False,,236.97972877607927,[],"[512, 361.5]",ColorTask,35.0,69.0,,,HRV,HRV_0113,2022-11-30 18:20:04
,wl-rdm,77,209280,0.0-6.69-0.69,0.0,78.0,,,,,,,[],,,,,,87.9,0.0,u,0.0,True,927.5000001192093,56.0,60.0,40.0,False,,284.1421708904876,[],"[512, 361.5]",ColorTask,36.0,70.0,,,HRV,HRV_0113,2022-11-30 18:20:04
,wl-rdm,78,211347,0.0-6.70-0.70,0.0,79.0,,,,,,,[],,,,,,50.0,0.0,i,1.0,False,704.4000000953674,43.0,60.0,40.0,False,,276.1524086988718,[],"[512, 361.5]",ColorTask,35.0,71.0,,,HRV,HRV_0113,2022-11-30 18:20:04
,wl-rdm,79,213446,0.0-6.71-0.71,0.0,80.0,,,,,,,[],,,,,,50.0,1.0,i,1.0,True,722.299999833107,44.0,60.0,40.0,False,,283.0927936336824,[],"[512, 361.5]",ColorTask,36.0,72.0,,,HRV,HRV_0113,2022-11-30 18:20:04
,wl-rdm,80,215462,0.0-6.72-0.72,0.0,81.0,,,,,,,[],,,,,,87.9,1.0,i,1.0,True,575.4999998807907,35.0,60.0,40.0,False,,355.9659300609392,[],"[512, 361.5]",ColorTask,37.0,73.0,,,HRV,HRV_0113,2022-11-30 18:20:04
,wl-rdm,81,217677,0.0-6.73-0.73,0.0,82.0,,,,,,,[],,,,,,50.0,1.0,i,1.0,True,822.3999999761581,50.0,60.0,40.0,False,,315.93821698672537,[],"[512, 361.5]",ColorTask,38.0,74.0,,,HRV,HRV_0113,2022-11-30 18:20:04
,wl-rdm,82,219960,0.0-6.74-0.74,0.0,83.0,,,,,,,[],,,,,,62.5,0.0,u,0.0,True,983.0,59.0,60.0,40.0,False,,219.92780357505512,[],"[512, 361.5]",ColorTask,39.0,75.0,,,HRV,HRV_0113,2022-11-30 18:20:04
,wl-rdm,83,222158,0.0-6.75-0.75,0.0,84.0,,,,,,,[],,,,,,56.4,1.0,i,1.0,True,851.2000000476837,51.0,60.0,40.0,False,,269.87766147918626,[],"[512, 361.5]",ColorTask,40.0,76.0,,,HRV,HRV_0113,2022-11-30 18:20:04
,wl-rdm,84,224291,0.0-6.76-0.76,0.0,85.0,,,,,,,[],,,,,,62.5,1.0,i,1.0,True,803.799999833107,49.0,60.0,40.0,False,,261.0653357673711,[],"[512, 361.5]",ColorTask,41.0,77.0,,,HRV,HRV_0113,2022-11-30 18:20:04
,wl-rdm,85,226341,0.0-6.77-0.77,0.0,86.0,,,,,,,[],,,,,,73.6,1.0,i,1.0,True,589.1999999284744,36.0,60.0,40.0,False,,378.80150368528643,[],"[512, 361.5]",ColorTask,42.0,78.0,,,HRV,HRV_0113,2022-11-30 18:20:04
,wl-rdm,86,228624,0.0-6.78-0.78,0.0,87.0,,,,,,,[],,,,,,50.0,0.0,i,1.0,False,908.5,55.0,60.0,40.0,False,,296.1024410126827,[],"[512, 361.5]",ColorTask,41.0,79.0,,,HRV,HRV_0113,2022-11-30 18:20:04
,wl-rdm,87,230706,0.0-6.79-0.79,0.0,88.0,,,,,,,[],,,,,,50.0,1.0,i,1.0,True,646.4000000953674,39.0,60.0,40.0,False,,383.204284191895,[],"[512, 361.5]",ColorTask,42.0,80.0,,,HRV,HRV_0113,2022-11-30 18:20:04
,wl-rdm,88,232854,0.0-6.80-0.80,0.0,89.0,,,,,,,[],,,,,,73.6,0.0,i,1.0,False,688.0999999046326,42.0,60.0,40.0,False,,381.4997459808209,[],"[512, 361.5]",ColorTask,41.0,81.0,,,HRV,HRV_0113,2022-11-30 18:20:04
,wl-rdm,89,234838,0.0-6.81-0.81,0.0,90.0,,,,,,,[],,,,,,62.5,1.0,i,1.0,True,675.8000000715256,41.0,60.0,40.0,False,,223.43945762337688,[],"[512, 361.5]",ColorTask,42.0,82.0,,,HRV,HRV_0113,2022-11-30 18:20:04
,wl-rdm,90,236771,0.0-6.82-0.82,0.0,91.0,,,,,,,[],,,,,,87.9,1.0,i,1.0,True,548.0999999046326,33.0,60.0,40.0,False,,307.0946833525902,[],"[512, 361.5]",ColorTask,43.0,83.0,,,HRV,HRV_0113,2022-11-30 18:20:04
,wl-rdm,91,238804,0.0-6.83-0.83,0.0,92.0,,,,,,,[],,,,,,62.5,0.0,u,0.0,True,763.3999998569489,46.0,60.0,40.0,False,,207.3158634516888,[],"[512, 361.5]",ColorTask,44.0,84.0,,,HRV,HRV_0113,2022-11-30 18:20:04
,wl-rdm,92,241136,0.0-6.84-0.84,0.0,93.0,,,,,,,[],,,,,,53.2,0.0,u,0.0,True,856.0,52.0,60.0,40.0,False,,385.65784893465303,[],"[512, 361.5]",ColorTask,45.0,85.0,,,HRV,HRV_0113,2022-11-30 18:20:04
,wl-rdm,93,243268,0.0-6.85-0.85,0.0,94.0,,,,,,,[],,,,,,50.0,1.0,u,0.0,False,797.2999999523163,48.0,60.0,40.0,False,,268.0583500005332,[],"[512, 361.5]",ColorTask,44.0,86.0,,,HRV,HRV_0113,2022-11-30 18:20:04
,wl-rdm,94,245234,0.0-6.86-0.86,0.0,95.0,,,,,,,[],,,,,,87.9,1.0,i,1.0,True,620.8000000715256,38.0,60.0,40.0,False,,279.1968194068534,[],"[512, 361.5]",ColorTask,45.0,87.0,,,HRV,HRV_0113,2022-11-30 18:20:04
,wl-rdm,95,247317,0.0-6.87-0.87,0.0,96.0,,,,,,,[],,,,,,73.6,0.0,u,0.0,True,789.8000000715256,48.0,60.0,40.0,False,,201.3739897598636,[],"[512, 361.5]",ColorTask,46.0,88.0,,,HRV,HRV_0113,2022-11-30 18:20:04
,wl-rdm,96,249516,0.0-6.88-0.88,0.0,97.0,,,,,,,[],,,,,,62.5,0.0,i,1.0,False,791.1000000238419,48.0,60.0,40.0,False,,345.02819208283927,[],"[512, 361.5]",ColorTask,45.0,89.0,,,HRV,HRV_0113,2022-11-30 18:20:04
,wl-rdm,97,251516,0.0-6.89-0.89,0.0,98.0,,,,,,,[],,,,,,50.0,0.0,i,1.0,False,720.3999999761581,44.0,60.0,40.0,False,,211.81000863936055,[],"[512, 361.5]",ColorTask,44.0,90.0,,,HRV,HRV_0113,2022-11-30 18:20:04
,wl-rdm,98,254131,0.0-6.90-0.90,0.0,99.0,,,,,,,[],,,,,,53.2,1.0,i,1.0,True,1214.7000000476837,73.0,60.0,40.0,False,,325.7092444074105,[],"[512, 361.5]",ColorTask,45.0,91.0,,,HRV,HRV_0113,2022-11-30 18:20:04
,wl-rdm,99,256664,0.0-6.91-0.91,0.0,100.0,,,,,,,[],,,,,,56.4,1.0,i,1.0,True,1216.5,73.0,60.0,40.0,False,,237.0437058509987,[],"[512, 361.5]",ColorTask,46.0,92.0,,,HRV,HRV_0113,2022-11-30 18:20:04
,wl-rdm,100,258813,0.0-6.92-0.92,0.0,101.0,,,,,,,[],,,,,,50.0,0.0,i,1.0,False,838.7000000476837,51.0,60.0,40.0,False,,236.80017436417663,[],"[512, 361.5]",ColorTask,45.0,93.0,,,HRV,HRV_0113,2022-11-30 18:20:04
,wl-rdm,101,261297,0.0-6.93-0.93,0.0,102.0,,,,,,,[],,,,,,50.0,1.0,i,1.0,True,1181.0,71.0,60.0,40.0,False,,226.33499041419418,[],"[512, 361.5]",ColorTask,46.0,94.0,,,HRV,HRV_0113,2022-11-30 18:20:04
,wl-rdm,102,263612,0.0-6.94-0.94,0.0,103.0,,,,,,,[],,,,,,53.2,1.0,i,1.0,True,921.9000000953674,56.0,60.0,40.0,False,,311.30838700283186,[],"[512, 361.5]",ColorTask,47.0,95.0,,,HRV,HRV_0113,2022-11-30 18:20:04
,wl-rdm,103,265611,0.0-6.95-0.95,0.0,104.0,,,,,,,[],,,,,,87.9,1.0,i,1.0,True,654.4000000953674,40.0,60.0,40.0,False,,260.35063905103027,[],"[512, 361.5]",ColorTask,48.0,96.0,,,HRV,HRV_0113,2022-11-30 18:20:04
,wl-rdm,104,267610,0.0-6.96-0.96,0.0,105.0,,,,,,,[],,,,,,87.9,1.0,i,1.0,True,620.3999999761581,38.0,60.0,40.0,False,,300.6050449052772,[],"[512, 361.5]",ColorTask,49.0,97.0,,,HRV,HRV_0113,2022-11-30 18:20:04
,wl-rdm,105,269677,0.0-6.97-0.97,0.0,106.0,,,,,,,[],,,,,,56.4,0.0,u,0.0,True,721.5,44.0,60.0,40.0,False,,272.0970148289977,[],"[512, 361.5]",ColorTask,50.0,98.0,,,HRV,HRV_0113,2022-11-30 18:20:04
,wl-rdm,106,271959,0.0-6.98-0.98,0.0,107.0,,,,,,,[],,,,,,62.5,1.0,i,1.0,True,920.3999999761581,56.0,60.0,40.0,False,,268.13963845317215,[],"[512, 361.5]",ColorTask,51.0,99.0,,,HRV,HRV_0113,2022-11-30 18:20:04
,wl-rdm,107,273992,0.0-6.99-0.99,0.0,108.0,,,,,,,[],,,,,,73.6,1.0,i,1.0,True,682.8999999761581,41.0,60.0,40.0,False,,275.1609095162435,[],"[512, 361.5]",ColorTask,52.0,100.0,,,HRV,HRV_0113,2022-11-30 18:20:04
,wl-rdm,108,276040,0.0-6.100-0.100,0.0,109.0,,,,,,,[],,,,,,62.5,1.0,i,1.0,True,722.3999999761581,44.0,60.0,40.0,False,,257.86845684119567,[],"[512, 361.5]",ColorTask,53.0,101.0,,,HRV,HRV_0113,2022-11-30 18:20:04
,wl-rdm,109,278073,0.0-6.101-0.101,0.0,110.0,,,,,,,[],,,,,,62.5,0.0,u,0.0,True,621.3000000715256,38.0,60.0,40.0,False,,333.9519100009512,[],"[512, 361.5]",ColorTask,54.0,102.0,,,HRV,HRV_0113,2022-11-30 18:20:04
,wl-rdm,110,280740,0.0-6.102-0.102,0.0,111.0,,,,,,,[],,,,,,50.0,1.0,i,1.0,True,1254.2000000476837,76.0,60.0,40.0,False,,317.42748368777325,[],"[512, 361.5]",ColorTask,55.0,103.0,,,HRV,HRV_0113,2022-11-30 18:20:04
,wl-rdm,111,282722,0.0-6.103-0.103,0.0,112.0,,,,,,,[],,,,,,56.4,1.0,i,1.0,True,638.0,39.0,60.0,40.0,False,,273.0096789514646,[],"[512, 361.5]",ColorTask,56.0,104.0,,,HRV,HRV_0113,2022-11-30 18:20:04
,wl-rdm,112,284771,0.0-6.104-0.104,0.0,113.0,,,,,,,[],,,,,,50.0,0.0,u,0.0,True,754.9000000953674,46.0,60.0,40.0,False,,206.63294630830677,[],"[512, 361.5]",ColorTask,57.0,105.0,,,HRV,HRV_0113,2022-11-30 18:20:04
,wl-rdm,113,286803,0.0-6.105-0.105,0.0,114.0,,,,,,,[],,,,,,73.6,0.0,u,0.0,True,653.7999999523163,40.0,60.0,40.0,False,,290.45953566289865,[],"[512, 361.5]",ColorTask,58.0,106.0,,,HRV,HRV_0113,2022-11-30 18:20:04
,wl-rdm,114,289286,0.0-6.106-0.106,0.0,115.0,,,,,,,[],,,,,,50.0,0.0,i,1.0,False,1078.3999999761581,65.0,60.0,40.0,False,,328.72953115841847,[],"[512, 361.5]",ColorTask,57.0,107.0,,,HRV,HRV_0113,2022-11-30 18:20:04
,wl-rdm,115,291570,0.0-6.107-0.107,0.0,116.0,,,,,,,[],,,,,,50.0,0.0,i,1.0,False,821.5999999046326,50.0,60.0,40.0,False,,380.65844352168824,[],"[512, 361.5]",ColorTask,56.0,108.0,,,HRV,HRV_0113,2022-11-30 18:20:04
,wl-html-keyboard-response,116,299766,0.0-7.0-0.0,1.0,117.0,,,,,,,,6160.0,1.0,0,,,,,,,,,,,,,,,,,,,,,,HRV,HRV_0113,2022-11-30 18:20:04
,wl-rdm,117,302315,0.0-8.0-0.0,1.0,118.0,,,,,,,[],,,,,,53.2,0.0,u,0.0,True,1074.0,65.0,60.0,40.0,False,,395.15614502158036,[],"[512, 361.5]",ColorTask,57.0,1.0,,,HRV,HRV_0113,2022-11-30 18:20:04
,wl-rdm,118,304298,0.0-8.1-0.1,1.0,119.0,,,,,,,[],,,,,,73.6,1.0,i,1.0,True,533.2000000476837,32.0,60.0,40.0,False,,372.17812006334964,[],"[512, 361.5]",ColorTask,58.0,2.0,,,HRV,HRV_0113,2022-11-30 18:20:04
,wl-rdm,119,306481,0.0-8.2-0.2,1.0,120.0,,,,,,,[],,,,,,73.6,0.0,u,0.0,True,740.5000001192093,45.0,60.0,40.0,False,,353.0424432851371,[],"[512, 361.5]",ColorTask,59.0,3.0,,,HRV,HRV_0113,2022-11-30 18:20:04
,wl-rdm,120,308663,0.0-8.3-0.3,1.0,121.0,,,,,,,[],,,,,,56.4,1.0,i,1.0,True,849.3999999761581,51.0,60.0,40.0,False,,262.81199011935354,[],"[512, 361.5]",ColorTask,60.0,4.0,,,HRV,HRV_0113,2022-11-30 18:20:04
,wl-rdm,121,310579,0.0-8.4-0.4,1.0,122.0,,,,,,,[],,,,,,62.5,1.0,i,1.0,True,624.0,38.0,60.0,40.0,False,,205.84809686289415,[],"[512, 361.5]",ColorTask,61.0,5.0,,,HRV,HRV_0113,2022-11-30 18:20:04
,wl-rdm,122,312595,0.0-8.5-0.5,1.0,123.0,,,,,,,[],,,,,,53.2,1.0,i,1.0,True,724.299999833107,44.0,60.0,40.0,False,,203.14246289214245,[],"[512, 361.5]",ColorTask,62.0,6.0,,,HRV,HRV_0113,2022-11-30 18:20:04
,wl-rdm,123,314844,0.0-8.6-0.6,1.0,124.0,,,,,,,[],,,,,,62.5,0.0,u,0.0,True,962.4000000953674,58.0,60.0,40.0,False,,217.29107640543305,[],"[512, 361.5]",ColorTask,63.0,7.0,,,HRV,HRV_0113,2022-11-30 18:20:04
,wl-rdm,124,317210,0.0-8.7-0.7,1.0,125.0,,,,,,,[],,,,,,50.0,0.0,i,1.0,False,914.8000000715256,55.0,60.0,40.0,False,,378.1148142863368,[],"[512, 361.5]",ColorTask,62.0,8.0,,,HRV,HRV_0113,2022-11-30 18:20:04
,wl-rdm,125,319193,0.0-8.8-0.8,1.0,126.0,,,,,,,[],,,,,,53.2,1.0,i,1.0,True,680.2999999523163,41.0,60.0,40.0,False,,223.49408104683852,[],"[512, 361.5]",ColorTask,63.0,9.0,,,HRV,HRV_0113,2022-11-30 18:20:04
,wl-rdm,126,321309,0.0-8.9-0.9,1.0,127.0,,,,,,,[],,,,,,56.4,1.0,u,0.0,False,777.6000000238419,47.0,60.0,40.0,False,,252.09227750648515,[],"[512, 361.5]",ColorTask,62.0,10.0,,,HRV,HRV_0113,2022-11-30 18:20:04
,wl-rdm,127,323325,0.0-8.10-0.10,1.0,128.0,,,,,,,[],,,,,,53.2,0.0,i,1.0,False,574.2999999523163,35.0,60.0,40.0,False,,356.1927426776654,[],"[512, 361.5]",ColorTask,61.0,11.0,,,HRV,HRV_0113,2022-11-30 18:20:04
,wl-rdm,128,325407,0.0-8.11-0.11,1.0,129.0,,,,,,,[],,,,,,87.9,0.0,u,0.0,True,643.7000000476837,39.0,60.0,40.0,False,,374.42476050881646,[],"[512, 361.5]",ColorTask,62.0,12.0,,,HRV,HRV_0113,2022-11-30 18:20:04
,wl-rdm,129,327507,0.0-8.12-0.12,1.0,130.0,,,,,,,[],,,,,,62.5,1.0,i,1.0,True,765.3000000715256,46.0,60.0,40.0,False,,250.3545610746551,[],"[512, 361.5]",ColorTask,63.0,13.0,,,HRV,HRV_0113,2022-11-30 18:20:04
,wl-rdm,130,329706,0.0-8.13-0.13,1.0,131.0,,,,,,,[],,,,,,87.9,1.0,i,1.0,True,857.2999999523163,52.0,60.0,40.0,False,,259.03756300263586,[],"[512, 361.5]",ColorTask,64.0,14.0,,,HRV,HRV_0113,2022-11-30 18:20:04
,wl-rdm,131,331622,0.0-8.14-0.14,1.0,132.0,,,,,,,[],,,,,,73.6,1.0,i,1.0,True,588.0999999046326,36.0,60.0,40.0,False,,242.48876637292238,[],"[512, 361.5]",ColorTask,65.0,15.0,,,HRV,HRV_0113,2022-11-30 18:20:04
,wl-rdm,132,333555,0.0-8.15-0.15,1.0,133.0,,,,,,,[],,,,,,50.0,0.0,i,1.0,False,472.5,29.0,60.0,40.0,False,,384.13099959638214,[],"[512, 361.5]",ColorTask,64.0,16.0,,,HRV,HRV_0113,2022-11-30 18:20:04
,wl-rdm,133,335571,0.0-8.16-0.16,1.0,134.0,,,,,,,[],,,,,,56.4,1.0,i,1.0,True,622.6000000238419,38.0,60.0,40.0,False,,302.97343196421485,[],"[512, 361.5]",ColorTask,65.0,17.0,,,HRV,HRV_0113,2022-11-30 18:20:04
,wl-rdm,134,337553,0.0-8.17-0.17,1.0,135.0,,,,,,,[],,,,,,87.9,0.0,u,0.0,True,623.3000000715256,38.0,60.0,40.0,False,,241.46591134888826,[],"[512, 361.5]",ColorTask,66.0,18.0,,,HRV,HRV_0113,2022-11-30 18:20:04
,wl-rdm,135,339719,0.0-8.18-0.18,1.0,136.0,,,,,,,[],,,,,,53.2,0.0,u,0.0,True,791.8999999761581,48.0,60.0,40.0,False,,292.68447902032847,[],"[512, 361.5]",ColorTask,67.0,19.0,,,HRV,HRV_0113,2022-11-30 18:20:04
,wl-rdm,136,341669,0.0-8.19-0.19,1.0,137.0,,,,,,,[],,,,,,62.5,0.0,i,1.0,False,644.6000000238419,39.0,60.0,40.0,False,,217.2372066409515,[],"[512, 361.5]",ColorTask,66.0,20.0,,,HRV,HRV_0113,2022-11-30 18:20:04
,wl-rdm,137,343551,0.0-8.20-0.20,1.0,138.0,,,,,,,[],,,,,,56.4,0.0,i,1.0,False,555.1000000238419,34.0,60.0,40.0,False,,244.9336218725565,[],"[512, 361.5]",ColorTask,65.0,21.0,,,HRV,HRV_0113,2022-11-30 18:20:04
,wl-rdm,138,345534,0.0-8.21-0.21,1.0,139.0,,,,,,,[],,,,,,87.9,0.0,u,0.0,True,607.3999999761581,37.0,60.0,40.0,False,,290.12666448935823,[],"[512, 361.5]",ColorTask,66.0,22.0,,,HRV,HRV_0113,2022-11-30 18:20:04
,wl-rdm,139,347999,0.0-8.22-0.22,1.0,140.0,,,,,,,[],,,,,,53.2,0.0,i,1.0,False,1004.8000000715256,61.0,60.0,40.0,False,,370.11478190342194,[],"[512, 361.5]",ColorTask,65.0,23.0,,,HRV,HRV_0113,2022-11-30 18:20:04
,wl-rdm,140,350149,0.0-8.23-0.23,1.0,141.0,,,,,,,[],,,,,,50.0,0.0,u,0.0,True,789.6999999284744,48.0,60.0,40.0,False,,268.4130469221428,[],"[512, 361.5]",ColorTask,66.0,24.0,,,HRV,HRV_0113,2022-11-30 18:20:04
,wl-rdm,141,352498,0.0-8.24-0.24,1.0,142.0,,,,,,,[],,,,,,53.2,1.0,i,1.0,True,882.7999999523163,53.0,60.0,40.0,False,,398.2269785338567,[],"[512, 361.5]",ColorTask,67.0,25.0,,,HRV,HRV_0113,2022-11-30 18:20:04
,wl-rdm,142,354497,0.0-8.25-0.25,1.0,143.0,,,,,,,[],,,,,,56.4,1.0,i,1.0,True,627.2999999523163,38.0,60.0,40.0,False,,287.90450414536366,[],"[512, 361.5]",ColorTask,68.0,26.0,,,HRV,HRV_0113,2022-11-30 18:20:04
,wl-rdm,143,356513,0.0-8.26-0.26,1.0,144.0,,,,,,,[],,,,,,73.6,1.0,i,1.0,True,654.6000000238419,40.0,60.0,40.0,False,,281.7994186959907,[],"[512, 361.5]",ColorTask,69.0,27.0,,,HRV,HRV_0113,2022-11-30 18:20:04
,wl-rdm,144,358629,0.0-8.27-0.27,1.0,145.0,,,,,,,[],,,,,,50.0,1.0,i,1.0,True,771.1000000238419,47.0,60.0,40.0,False,,242.8642186102318,[],"[512, 361.5]",ColorTask,70.0,28.0,,,HRV,HRV_0113,2022-11-30 18:20:04
,wl-rdm,145,360745,0.0-8.28-0.28,1.0,146.0,,,,,,,[],,,,,,50.0,0.0,i,1.0,False,837.4999998807907,51.0,60.0,40.0,False,,214.8618824572186,[],"[512, 361.5]",ColorTask,69.0,29.0,,,HRV,HRV_0113,2022-11-30 18:20:04
,wl-rdm,146,362661,0.0-8.29-0.29,1.0,147.0,,,,,,,[],,,,,,87.9,1.0,i,1.0,True,561.3999998569489,34.0,60.0,40.0,False,,268.9634705044462,[],"[512, 361.5]",ColorTask,70.0,30.0,,,HRV,HRV_0113,2022-11-30 18:20:04
,wl-rdm,147,364643,0.0-8.30-0.30,1.0,148.0,,,,,,,[],,,,,,73.6,1.0,i,1.0,True,507.4999998807907,31.0,60.0,40.0,False,,392.0691064081909,[],"[512, 361.5]",ColorTask,71.0,31.0,,,HRV,HRV_0113,2022-11-30 18:20:04
,wl-rdm,148,366793,0.0-8.31-0.31,1.0,149.0,,,,,,,[],,,,,,50.0,1.0,u,0.0,False,724.0,44.0,60.0,40.0,False,,339.2485241749405,[],"[512, 361.5]",ColorTask,70.0,32.0,,,HRV,HRV_0113,2022-11-30 18:20:04
,wl-rdm,149,368925,0.0-8.32-0.32,1.0,150.0,,,,,,,[],,,,,,62.5,0.0,u,0.0,True,831.2000000476837,50.0,60.0,40.0,False,,249.0021810943542,[],"[512, 361.5]",ColorTask,71.0,33.0,,,HRV,HRV_0113,2022-11-30 18:20:04
,wl-rdm,150,371241,0.0-8.33-0.33,1.0,151.0,,,,,,,[],,,,,,53.2,1.0,i,1.0,True,894.5999999046326,54.0,60.0,40.0,False,,349.63260953326596,[],"[512, 361.5]",ColorTask,72.0,34.0,,,HRV,HRV_0113,2022-11-30 18:20:04
,wl-rdm,151,373557,0.0-8.34-0.34,1.0,152.0,,,,,,,[],,,,,,56.4,1.0,i,1.0,True,895.5999999046326,54.0,60.0,40.0,False,,345.9408751381699,[],"[512, 361.5]",ColorTask,73.0,35.0,,,HRV,HRV_0113,2022-11-30 18:20:04
,wl-rdm,152,375757,0.0-8.35-0.35,1.0,153.0,,,,,,,[],,,,,,73.6,0.0,u,0.0,True,914.1999999284744,55.0,60.0,40.0,False,,214.96508833037566,[],"[512, 361.5]",ColorTask,74.0,36.0,,,HRV,HRV_0113,2022-11-30 18:20:04
,wl-rdm,153,377839,0.0-8.36-0.36,1.0,154.0,,,,,,,[],,,,,,50.0,1.0,u,0.0,False,737.8999999761581,45.0,60.0,40.0,False,,265.10820077821774,[],"[512, 361.5]",ColorTask,73.0,37.0,,,HRV,HRV_0113,2022-11-30 18:20:04
,wl-rdm,154,379888,0.0-8.37-0.37,1.0,155.0,,,,,,,[],,,,,,56.4,0.0,i,1.0,False,760.0,46.0,60.0,40.0,False,,206.90936313734903,[],"[512, 361.5]",ColorTask,72.0,38.0,,,HRV,HRV_0113,2022-11-30 18:20:04
,wl-rdm,155,382121,0.0-8.38-0.38,1.0,156.0,,,,,,,[],,,,,,62.5,0.0,i,1.0,False,845.9999998807907,51.0,60.0,40.0,False,,303.92409191350515,[],"[512, 361.5]",ColorTask,71.0,39.0,,,HRV,HRV_0113,2022-11-30 18:20:04
,wl-rdm,156,384270,0.0-8.39-0.39,1.0,157.0,,,,,,,[],,,,,,56.4,0.0,u,0.0,True,807.6000000238419,49.0,60.0,40.0,False,,245.73883261797494,[],"[512, 361.5]",ColorTask,72.0,40.0,,,HRV,HRV_0113,2022-11-30 18:20:04
,wl-rdm,157,386969,0.0-8.40-0.40,1.0,158.0,,,,,,,[],,,,,,56.4,1.0,i,1.0,True,1283.0,77.0,60.0,40.0,False,,334.27635670418476,[],"[512, 361.5]",ColorTask,73.0,41.0,,,HRV,HRV_0113,2022-11-30 18:20:04
,wl-rdm,158,389103,0.0-8.41-0.41,1.0,159.0,,,,,,,[],,,,,,87.9,0.0,u,0.0,True,672.9999998807907,41.0,60.0,40.0,False,,371.5914114805404,[],"[512, 361.5]",ColorTask,74.0,42.0,,,HRV,HRV_0113,2022-11-30 18:20:04
,wl-rdm,159,391134,0.0-8.42-0.42,1.0,160.0,,,,,,,[],,,,,,53.2,1.0,i,1.0,True,665.0999999046326,40.0,60.0,40.0,False,,295.1950819642522,[],"[512, 361.5]",ColorTask,75.0,43.0,,,HRV,HRV_0113,2022-11-30 18:20:04
,wl-rdm,160,393417,0.0-8.43-0.43,1.0,161.0,,,,,,,[],,,,,,50.0,1.0,i,1.0,True,871.0,53.0,60.0,40.0,False,,334.5852933837109,[],"[512, 361.5]",ColorTask,76.0,44.0,,,HRV,HRV_0113,2022-11-30 18:20:04
,wl-rdm,161,395417,0.0-8.44-0.44,1.0,162.0,,,,,,,[],,,,,,53.2,1.0,i,1.0,True,716.3999999761581,43.0,60.0,40.0,False,,216.29934729077314,[],"[512, 361.5]",ColorTask,77.0,45.0,,,HRV,HRV_0113,2022-11-30 18:20:04
,wl-rdm,162,397682,0.0-8.45-0.45,1.0,163.0,,,,,,,[],,,,,,56.4,0.0,i,1.0,False,978.299999833107,59.0,60.0,40.0,False,,229.10106452910563,[],"[512, 361.5]",ColorTask,76.0,46.0,,,HRV,HRV_0113,2022-11-30 18:20:04
,wl-rdm,163,399782,0.0-8.46-0.46,1.0,164.0,,,,,,,[],,,,,,73.6,0.0,u,0.0,True,831.8000000715256,50.0,60.0,40.0,False,,200.85208487182874,[],"[512, 361.5]",ColorTask,77.0,47.0,,,HRV,HRV_0113,2022-11-30 18:20:04
,wl-rdm,164,402647,0.0-8.47-0.47,1.0,165.0,,,,,,,[],,,,,,50.0,1.0,i,1.0,True,1557.4999998807907,94.0,60.0,40.0,False,,232.87295688253164,[],"[512, 361.5]",ColorTask,78.0,48.0,,,HRV,HRV_0113,2022-11-30 18:20:04
,wl-rdm,165,405063,0.0-8.48-0.48,1.0,166.0,,,,,,,[],,,,,,73.6,0.0,u,0.0,True,989.0999999046326,60.0,60.0,40.0,False,,356.60263032599204,[],"[512, 361.5]",ColorTask,79.0,49.0,,,HRV,HRV_0113,2022-11-30 18:20:04
,wl-rdm,166,407579,0.0-8.49-0.49,1.0,167.0,,,,,,,[],,,,,,53.2,1.0,u,0.0,False,1147.5999999046326,69.0,60.0,40.0,False,,270.1127216139267,[],"[512, 361.5]",ColorTask,78.0,50.0,,,HRV,HRV_0113,2022-11-30 18:20:04
,wl-rdm,167,409962,0.0-8.50-0.50,1.0,168.0,,,,,,,[],,,,,,62.5,0.0,u,0.0,True,1039.7999999523163,63.0,60.0,40.0,False,,259.1911385626493,[],"[512, 361.5]",ColorTask,79.0,51.0,,,HRV,HRV_0113,2022-11-30 18:20:04
,wl-rdm,168,412028,0.0-8.51-0.51,1.0,169.0,,,,,,,[],,,,,,87.9,0.0,u,0.0,True,737.7000000476837,45.0,60.0,40.0,False,,245.06987338552074,[],"[512, 361.5]",ColorTask,80.0,52.0,,,HRV,HRV_0113,2022-11-30 18:20:04
,wl-rdm,169,414544,0.0-8.52-0.52,1.0,170.0,,,,,,,[],,,,,,56.4,1.0,i,1.0,True,1074.1000000238419,65.0,60.0,40.0,False,,352.0601077180687,[],"[512, 361.5]",ColorTask,81.0,53.0,,,HRV,HRV_0113,2022-11-30 18:20:04
,wl-rdm,170,416744,0.0-8.53-0.53,1.0,171.0,,,,,,,[],,,,,,62.5,1.0,i,1.0,True,738.4000000953674,45.0,60.0,40.0,False,,384.40541212379145,[],"[512, 361.5]",ColorTask,82.0,54.0,,,HRV,HRV_0113,2022-11-30 18:20:04
,wl-rdm,171,418793,0.0-8.54-0.54,1.0,172.0,,,,,,,[],,,,,,87.9,1.0,i,1.0,True,605.5,37.0,60.0,40.0,False,,361.0953201022887,[],"[512, 361.5]",ColorTask,83.0,55.0,,,HRV,HRV_0113,2022-11-30 18:20:04
,wl-rdm,172,420709,0.0-8.55-0.55,1.0,173.0,,,,,,,[],,,,,,50.0,1.0,i,1.0,True,621.9999998807907,38.0,60.0,40.0,False,,212.93946253300504,[],"[512, 361.5]",ColorTask,84.0,56.0,,,HRV,HRV_0113,2022-11-30 18:20:04
,wl-rdm,173,422691,0.0-8.56-0.56,1.0,174.0,,,,,,,[],,,,,,62.5,1.0,i,1.0,True,604.0,37.0,60.0,40.0,False,,311.42091428012475,[],"[512, 361.5]",ColorTask,85.0,57.0,,,HRV,HRV_0113,2022-11-30 18:20:04
,wl-rdm,174,424524,0.0-8.57-0.57,1.0,175.0,,,,,,,[],,,,,,87.9,1.0,i,1.0,True,513.2000000476837,31.0,60.0,40.0,False,,216.98414342320476,[],"[512, 361.5]",ColorTask,86.0,58.0,,,HRV,HRV_0113,2022-11-30 18:20:04
,wl-rdm,175,426974,0.0-8.58-0.58,1.0,176.0,,,,,,,[],,,,,,73.6,0.0,u,0.0,True,954.2000000476837,58.0,60.0,40.0,False,,398.63007166104234,[],"[512, 361.5]",ColorTask,87.0,59.0,,,HRV,HRV_0113,2022-11-30 18:20:04
,wl-rdm,176,429123,0.0-8.59-0.59,1.0,177.0,,,,,,,[],,,,,,50.0,0.0,i,1.0,False,839.0999999046326,51.0,60.0,40.0,False,,219.37882763910451,[],"[512, 361.5]",ColorTask,86.0,60.0,,,HRV,HRV_0113,2022-11-30 18:20:04
,wl-rdm,177,431456,0.0-8.60-0.60,1.0,178.0,,,,,,,[],,,,,,53.2,0.0,i,1.0,False,978.3000000715256,59.0,60.0,40.0,False,,291.4838160824557,[],"[512, 361.5]",ColorTask,85.0,61.0,,,HRV,HRV_0113,2022-11-30 18:20:04
,wl-rdm,178,433555,0.0-8.61-0.61,1.0,179.0,,,,,,,[],,,,,,73.6,1.0,i,1.0,True,721.6000000238419,44.0,60.0,40.0,False,,290.33452750837034,[],"[512, 361.5]",ColorTask,86.0,62.0,,,HRV,HRV_0113,2022-11-30 18:20:04
,wl-rdm,179,435571,0.0-8.62-0.62,1.0,180.0,,,,,,,[],,,,,,87.9,0.0,u,0.0,True,690.1000000238419,42.0,60.0,40.0,False,,248.68798283485253,[],"[512, 361.5]",ColorTask,87.0,63.0,,,HRV,HRV_0113,2022-11-30 18:20:04
,wl-rdm,180,437670,0.0-8.63-0.63,1.0,181.0,,,,,,,[],,,,,,62.5,0.0,u,0.0,True,722.8999998569489,44.0,60.0,40.0,False,,283.4970141783637,[],"[512, 361.5]",ColorTask,88.0,64.0,,,HRV,HRV_0113,2022-11-30 18:20:04
,wl-rdm,181,439670,0.0-8.64-0.64,1.0,182.0,,,,,,,[],,,,,,62.5,1.0,i,1.0,True,628.2000000476837,38.0,60.0,40.0,False,,306.5396612747846,[],"[512, 361.5]",ColorTask,89.0,65.0,,,HRV,HRV_0113,2022-11-30 18:20:04
,wl-rdm,182,442552,0.0-8.65-0.65,1.0,183.0,,,,,,,[],,,,,,62.5,0.0,u,0.0,True,1504.8000000715256,91.0,60.0,40.0,False,,295.95396189139734,[],"[512, 361.5]",ColorTask,90.0,66.0,,,HRV,HRV_0113,2022-11-30 18:20:04
,wl-rdm,183,445068,0.0-8.66-0.66,1.0,184.0,,,,,,,[],,,,,,56.4,1.0,u,0.0,False,1180.6999999284744,71.0,60.0,40.0,False,,268.51530304415337,[],"[512, 361.5]",ColorTask,89.0,67.0,,,HRV,HRV_0113,2022-11-30 18:20:04
,wl-rdm,184,448200,0.0-8.67-0.67,1.0,185.0,,,,,,,[],,,,,,56.4,1.0,i,1.0,True,1692.1000000238419,102.0,60.0,40.0,False,,354.8320235715399,[],"[512, 361.5]",ColorTask,90.0,68.0,,,HRV,HRV_0113,2022-11-30 18:20:04
,wl-rdm,185,450549,0.0-8.68-0.68,1.0,186.0,,,,,,,[],,,,,,87.9,0.0,u,0.0,True,963.1000000238419,58.0,60.0,40.0,False,,298.87870607264335,[],"[512, 361.5]",ColorTask,91.0,69.0,,,HRV,HRV_0113,2022-11-30 18:20:04
,wl-rdm,186,452649,0.0-8.69-0.69,1.0,187.0,,,,,,,[],,,,,,73.6,1.0,i,1.0,True,791.8999999761581,48.0,60.0,40.0,False,,229.04882241803497,[],"[512, 361.5]",ColorTask,92.0,70.0,,,HRV,HRV_0113,2022-11-30 18:20:04
,wl-rdm,187,456981,0.0-8.70-0.70,1.0,187.0,,,,,,,[],,,,,,73.6,0.0,,,,,91.0,60.0,40.0,True,RT_timeout ,200.8210330207284,[],"[512, 361.5]",ColorTask,91.0,71.0,,,HRV,HRV_0113,2022-11-30 18:20:04
,wl-rdm,188,459190,0.0-8.71-0.71,1.0,188.0,,,,,,,[],,,,,,73.6,1.0,i,1.0,True,904.9999998807907,44.0,60.0,40.0,False,,209.28701854861117,[],"[512, 361.5]",ColorTask,92.0,72.0,,,HRV,HRV_0113,2022-11-30 18:20:04
,wl-rdm,189,461273,0.0-8.72-0.72,1.0,189.0,,,,,,,[],,,,,,62.5,1.0,i,1.0,True,762.9000000953674,37.0,60.0,40.0,False,,223.58417082585228,[],"[512, 361.5]",ColorTask,93.0,73.0,,,HRV,HRV_0113,2022-11-30 18:20:04
,wl-rdm,190,463481,0.0-8.73-0.73,1.0,190.0,,,,,,,[],,,,,,56.4,0.0,u,0.0,True,842.5,41.0,60.0,40.0,False,,274.62317528625397,[],"[512, 361.5]",ColorTask,94.0,74.0,,,HRV,HRV_0113,2022-11-30 18:20:04
,wl-rdm,191,465815,0.0-8.74-0.74,1.0,191.0,,,,,,,[],,,,,,53.2,0.0,u,0.0,True,852.6999998092651,41.0,60.0,40.0,False,,386.05858021297587,[],"[512, 361.5]",ColorTask,95.0,75.0,,,HRV,HRV_0113,2022-11-30 18:20:04
,wl-rdm,192,468086,0.0-8.75-0.75,1.0,192.0,,,,,,,[],,,,,,53.2,0.0,u,0.0,True,928.1000000238419,45.0,60.0,40.0,False,,246.7736428713083,[],"[512, 361.5]",ColorTask,96.0,76.0,,,HRV,HRV_0113,2022-11-30 18:20:04
,wl-rdm,193,470502,0.0-8.76-0.76,1.0,193.0,,,,,,,[],,,,,,56.4,0.0,i,1.0,False,1008.1000000238419,49.0,60.0,40.0,False,,308.384020480984,[],"[512, 361.5]",ColorTask,95.0,77.0,,,HRV,HRV_0113,2022-11-30 18:20:04
,wl-rdm,194,472752,0.0-8.77-0.77,1.0,194.0,,,,,,,[],,,,,,50.0,0.0,u,0.0,True,800.5,39.0,60.0,40.0,False,,338.94889218362937,[],"[512, 361.5]",ColorTask,96.0,78.0,,,HRV,HRV_0113,2022-11-30 18:20:04
,wl-rdm,195,474835,0.0-8.78-0.78,1.0,195.0,,,,,,,[],,,,,,87.9,1.0,i,1.0,True,696.6999998092651,34.0,60.0,40.0,False,,304.7638024052533,[],"[512, 361.5]",ColorTask,97.0,79.0,,,HRV,HRV_0113,2022-11-30 18:20:04
,wl-rdm,196,477085,0.0-8.79-0.79,1.0,196.0,,,,,,,[],,,,,,53.2,0.0,i,1.0,False,830.4000000953674,40.0,60.0,40.0,False,,316.2880442073538,[],"[512, 361.5]",ColorTask,96.0,80.0,,,HRV,HRV_0113,2022-11-30 18:20:04
,wl-rdm,197,479252,0.0-8.80-0.80,1.0,197.0,,,,,,,[],,,,,,87.9,0.0,u,0.0,True,847.9999998807907,41.0,60.0,40.0,False,,222.9079165389217,[],"[512, 361.5]",ColorTask,97.0,81.0,,,HRV,HRV_0113,2022-11-30 18:20:04
,wl-rdm,198,481523,0.0-8.81-0.81,1.0,198.0,,,,,,,[],,,,,,56.4,0.0,u,0.0,True,864.1000000238419,42.0,60.0,40.0,False,,309.62863428608256,[],"[512, 361.5]",ColorTask,98.0,82.0,,,HRV,HRV_0113,2022-11-30 18:20:04
,wl-rdm,199,483585,0.0-8.82-0.82,1.0,199.0,,,,,,,[],,,,,,73.6,1.0,i,1.0,True,680.7000000476837,33.0,60.0,40.0,False,,303.2295066939387,[],"[512, 361.5]",ColorTask,99.0,83.0,,,HRV,HRV_0113,2022-11-30 18:20:04
,wl-rdm,200,485814,0.0-8.83-0.83,1.0,200.0,,,,,,,[],,,,,,62.5,1.0,i,1.0,True,859.6000000238419,42.0,60.0,40.0,False,,267.657538037756,[],"[512, 361.5]",ColorTask,100.0,84.0,,,HRV,HRV_0113,2022-11-30 18:20:04
,wl-rdm,201,488315,0.0-8.84-0.84,1.0,201.0,,,,,,,[],,,,,,73.6,1.0,i,1.0,True,989.6999999284744,48.0,60.0,40.0,False,,396.928142110135,[],"[512, 361.5]",ColorTask,101.0,85.0,,,HRV,HRV_0113,2022-11-30 18:20:04
,wl-rdm,202,490565,0.0-8.85-0.85,1.0,202.0,,,,,,,[],,,,,,50.0,0.0,u,0.0,True,913.8000000715256,44.0,60.0,40.0,False,,240.94631815010703,[],"[512, 361.5]",ColorTask,102.0,86.0,,,HRV,HRV_0113,2022-11-30 18:20:04
,wl-rdm,203,492606,0.0-8.86-0.86,1.0,203.0,,,,,,,[],,,,,,87.9,1.0,i,1.0,True,667.6000000238419,32.0,60.0,40.0,False,,272.10700988644385,[],"[512, 361.5]",ColorTask,103.0,87.0,,,HRV,HRV_0113,2022-11-30 18:20:04
,wl-rdm,204,494836,0.0-8.87-0.87,1.0,204.0,,,,,,,[],,,,,,87.9,1.0,i,1.0,True,838.5999999046326,41.0,60.0,40.0,False,,271.7172520048018,[],"[512, 361.5]",ColorTask,104.0,88.0,,,HRV,HRV_0113,2022-11-30 18:20:04
,wl-rdm,205,497044,0.0-8.88-0.88,1.0,205.0,,,,,,,[],,,,,,53.2,1.0,i,1.0,True,870.2999999523163,42.0,60.0,40.0,False,,259.9954925662739,[],"[512, 361.5]",ColorTask,105.0,89.0,,,HRV,HRV_0113,2022-11-30 18:20:04
,wl-rdm,206,499398,0.0-8.89-0.89,1.0,206.0,,,,,,,[],,,,,,50.0,1.0,i,1.0,True,990.1999999284744,48.0,60.0,40.0,False,,256.8176004114829,[],"[512, 361.5]",ColorTask,106.0,90.0,,,HRV,HRV_0113,2022-11-30 18:20:04
,wl-rdm,207,501710,0.0-8.90-0.90,1.0,207.0,,,,,,,[],,,,,,73.6,0.0,u,0.0,True,981.7000000476837,48.0,60.0,40.0,False,,216.93179863960307,[],"[512, 361.5]",ColorTask,107.0,91.0,,,HRV,HRV_0113,2022-11-30 18:20:04
,wl-rdm,208,503856,0.0-8.91-0.91,1.0,208.0,,,,,,,[],,,,,,73.6,0.0,u,0.0,True,754.5,37.0,60.0,40.0,False,,276.9014985915718,[],"[512, 361.5]",ColorTask,108.0,92.0,,,HRV,HRV_0113,2022-11-30 18:20:04
,wl-rdm,209,505919,0.0-8.92-0.92,1.0,209.0,,,,,,,[],,,,,,73.6,0.0,u,0.0,True,742.5,36.0,60.0,40.0,False,,243.02883452192336,[],"[512, 361.5]",ColorTask,109.0,93.0,,,HRV,HRV_0113,2022-11-30 18:20:04
,wl-rdm,210,508065,0.0-8.93-0.93,1.0,210.0,,,,,,,[],,,,,,50.0,1.0,i,1.0,True,718.6000000238419,35.0,60.0,40.0,False,,338.73108815434756,[],"[512, 361.5]",ColorTask,110.0,94.0,,,HRV,HRV_0113,2022-11-30 18:20:04
,wl-rdm,211,510231,0.0-8.94-0.94,1.0,211.0,,,,,,,[],,,,,,62.5,0.0,u,0.0,True,852.0999999046326,41.0,60.0,40.0,False,,208.93108277609343,[],"[512, 361.5]",ColorTask,111.0,95.0,,,HRV,HRV_0113,2022-11-30 18:20:04
,wl-rdm,212,512481,0.0-8.95-0.95,1.0,212.0,,,,,,,[],,,,,,56.4,0.0,u,0.0,True,847.3999999761581,41.0,60.0,40.0,False,,312.8765042420106,[],"[512, 361.5]",ColorTask,112.0,96.0,,,HRV,HRV_0113,2022-11-30 18:20:04
,wl-rdm,213,514648,0.0-8.96-0.96,1.0,213.0,,,,,,,[],,,,,,50.0,1.0,i,1.0,True,846.8000000715256,41.0,60.0,40.0,False,,211.33548132542808,[],"[512, 361.5]",ColorTask,113.0,97.0,,,HRV,HRV_0113,2022-11-30 18:20:04
,wl-rdm,214,517127,0.0-8.97-0.97,1.0,214.0,,,,,,,[],,,,,,73.6,0.0,u,0.0,True,1001.1999999284744,49.0,60.0,40.0,False,,382.13155005403223,[],"[512, 361.5]",ColorTask,114.0,98.0,,,HRV,HRV_0113,2022-11-30 18:20:04
,wl-rdm,215,519481,0.0-8.98-0.98,1.0,215.0,,,,,,,[],,,,,,50.0,0.0,i,1.0,False,881.8999999761581,43.0,60.0,40.0,False,,393.4726102471666,[],"[512, 361.5]",ColorTask,113.0,99.0,,,HRV,HRV_0113,2022-11-30 18:20:04
,wl-rdm,216,521543,0.0-8.99-0.99,1.0,216.0,,,,,,,[],,,,,,62.5,1.0,i,1.0,True,790.2000000476837,38.0,60.0,40.0,False,,203.28745321813867,[],"[512, 361.5]",ColorTask,114.0,100.0,,,HRV,HRV_0113,2022-11-30 18:20:04
,wl-rdm,217,523606,0.0-8.100-0.100,1.0,217.0,,,,,,,[],,,,,,87.9,1.0,i,1.0,True,674.1000000238419,33.0,60.0,40.0,False,,282.1832659260155,[],"[512, 361.5]",ColorTask,115.0,101.0,,,HRV,HRV_0113,2022-11-30 18:20:04
,wl-rdm,218,525940,0.0-8.101-0.101,1.0,218.0,,,,,,,[],,,,,,62.5,0.0,i,1.0,False,879.8000000715256,43.0,60.0,40.0,False,,334.3729977747754,[],"[512, 361.5]",ColorTask,114.0,102.0,,,HRV,HRV_0113,2022-11-30 18:20:04
,wl-rdm,219,528252,0.0-8.102-0.102,1.0,219.0,,,,,,,[],,,,,,87.9,0.0,u,0.0,True,885.3000000715256,43.0,60.0,40.0,False,,331.28469857346835,[],"[512, 361.5]",ColorTask,115.0,103.0,,,HRV,HRV_0113,2022-11-30 18:20:04
,wl-rdm,220,530606,0.0-8.103-0.103,1.0,220.0,,,,,,,[],,,,,,62.5,1.0,i,1.0,True,1079.3999999761581,52.0,60.0,40.0,False,,202.45864789758525,[],"[512, 361.5]",ColorTask,116.0,104.0,,,HRV,HRV_0113,2022-11-30 18:20:04
,wl-rdm,221,532856,0.0-8.104-0.104,1.0,221.0,,,,,,,[],,,,,,50.0,0.0,i,1.0,False,822.3999999761581,40.0,60.0,40.0,False,,345.1996931536368,[],"[512, 361.5]",ColorTask,115.0,105.0,,,HRV,HRV_0113,2022-11-30 18:20:04
,wl-rdm,222,535106,0.0-8.105-0.105,1.0,222.0,,,,,,,[],,,,,,53.2,0.0,i,1.0,False,853.4000000953674,41.0,60.0,40.0,False,,294.59435358138205,[],"[512, 361.5]",ColorTask,114.0,106.0,,,HRV,HRV_0113,2022-11-30 18:20:04
,wl-rdm,223,537482,0.0-8.106-0.106,1.0,223.0,,,,,,,[],,,,,,53.2,1.0,i,1.0,True,881.7000000476837,43.0,60.0,40.0,False,,386.5483130909482,[],"[512, 361.5]",ColorTask,115.0,107.0,,,HRV,HRV_0113,2022-11-30 18:20:04
,wl-rdm,224,539961,0.0-8.107-0.107,1.0,224.0,,,,,,,[],,,,,,56.4,0.0,u,0.0,True,1007.5,49.0,60.0,40.0,False,,383.56445360054056,[],"[512, 361.5]",ColorTask,116.0,108.0,,,HRV,HRV_0113,2022-11-30 18:20:04
,wl-rdm,225,541919,0.0-8.108-0.108,1.0,225.0,,,,,,,[],,,,,,87.9,1.0,i,1.0,True,619.5999999046326,30.0,60.0,40.0,False,,236.35286773109368,[],"[512, 361.5]",ColorTask,117.0,109.0,,,HRV,HRV_0113,2022-11-30 18:20:04
,wl-html-button-response,226,545532,0.0-9.0-0.0,,,,,,,,,,3610.0,,0,,,,,,,,,,,,,,,,,,,,<h3>End of this session. Thank you!</h3><br>,['Close window'],HRV,HRV_0113,2022-11-30 18:20:04
