trialN,stimuli,trialStartTime,trialStartTime_UNIX,stimulus1,stimulus2,stimulus1Bid,stimulus2Bid,delta,selected,rt,rt_UNIX,rt_perfnow,receivedResponse,rsp,trialEndTime,trialDuration,trialEndTime_UNIX,trialDuration_UNIX,exp,subjectId,date
0,"[{'imgObject': {}, 'id': 'mac & cheese', 'src': '/static/foodstim60/mac & cheese.jpg', 'key': 'u', 'origWidth': 410, 'origHeight': 410, 'width': 360, 'height': 360, 'widthPercent': 0.45, 'rescaleHeight': False, 'trialN': 0, 'loaded': True, 'loadedTime': 2371.7999999523163, 'positionName': 'LEFT', 'positionCoords': [24, 120], 'bid': 0.1}, {'imgObject': {}, 'id': 'blackbeanswithrice', 'src': '/static/foodstim60/blackbeanswithrice.jpg', 'key': 'i', 'origWidth': 410, 'origHeight': 410, 'width': 360, 'height': 360, 'widthPercent': 0.45, 'rescaleHeight': False, 'trialN': 0, 'loaded': True, 'loadedTime': 2384.1999999284744, 'positionName': 'RIGHT', 'positionCoords': [416, 120], 'bid': 0.17}]",2689.399999976158,1669831179364,mac & cheese,blackbeanswithrice,0.1,0.17,0.07,mac & cheese,1247.5,1249,1249.1000000238419,True,u,4450.099999904633,1760.6999999284744,1669831181124,1760,HRV,HRV_0113,2022-11-30 18:05:31
1,"[{'imgObject': {}, 'id': 'hashbrowns', 'src': '/static/foodstim60/hashbrowns.jpg', 'key': 'u', 'origWidth': 411, 'origHeight': 410, 'width': 360, 'height': 359.1240875912409, 'widthPercent': 0.45, 'rescaleHeight': False, 'trialN': 1, 'loaded': True, 'loadedTime': 2407.2999999523163, 'positionName': 'LEFT', 'positionCoords': [24, 120.5], 'bid': 4.89}, {'imgObject': {}, 'id': 'cherries', 'src': '/static/foodstim60/cherries.jpg', 'key': 'i', 'origWidth': 410, 'origHeight': 411, 'width': 360, 'height': 360.87804878048786, 'widthPercent': 0.45, 'rescaleHeight': False, 'trialN': 1, 'loaded': True, 'loadedTime': 2408, 'positionName': 'RIGHT', 'positionCoords': [416, 120], 'bid': 4.95}]",4450.5,1669831181125,hashbrowns,cherries,4.89,4.95,0.0600000000000005,hashbrowns,2628.7999999523163,2629,2629.399999976158,True,u,7587.699999928474,3137.1999999284744,1669831184262,3137,HRV,HRV_0113,2022-11-30 18:05:31
2,"[{'imgObject': {}, 'id': 'pear', 'src': '/static/foodstim60/pear.jpg', 'key': 'u', 'origWidth': 411, 'origHeight': 410, 'width': 360, 'height': 359.1240875912409, 'widthPercent': 0.45, 'rescaleHeight': False, 'trialN': 2, 'loaded': True, 'loadedTime': 2411.0999999046326, 'positionName': 'LEFT', 'positionCoords': [24, 120.5], 'bid': 3.12}, {'imgObject': {}, 'id': 'veggieswithdip', 'src': '/static/foodstim60/veggieswithdip.jpg', 'key': 'i', 'origWidth': 409, 'origHeight': 409, 'width': 360, 'height': 360, 'widthPercent': 0.45, 'rescaleHeight': False, 'trialN': 2, 'loaded': True, 'loadedTime': 2427.2999999523163, 'positionName': 'RIGHT', 'positionCoords': [416, 120], 'bid': 7.32}]",7588.399999976158,1669831184263,pear,veggieswithdip,3.12,7.32,4.2,veggieswithdip,970.1999999284744,971,971.1000000238419,True,i,9068.5,1480.1000000238419,1669831185743,1480,HRV,HRV_0113,2022-11-30 18:05:31
3,"[{'imgObject': {}, 'id': 'chickenfingers', 'src': '/static/foodstim60/chickenfingers.jpg', 'key': 'u', 'origWidth': 410, 'origHeight': 410, 'width': 360, 'height': 360, 'widthPercent': 0.45, 'rescaleHeight': False, 'trialN': 3, 'loaded': True, 'loadedTime': 2441.5999999046326, 'positionName': 'LEFT', 'positionCoords': [24, 120], 'bid': 7.640000000000001}, {'imgObject': {}, 'id': 'fried eggs', 'src': '/static/foodstim60/fried eggs.jpg', 'key': 'i', 'origWidth': 410, 'origHeight': 410, 'width': 360, 'height': 360, 'widthPercent': 0.45, 'rescaleHeight': False, 'trialN': 3, 'loaded': True, 'loadedTime': 2444.0999999046326, 'positionName': 'RIGHT', 'positionCoords': [416, 120], 'bid': 3.47}]",9069.199999928474,1669831185743,chickenfingers,fried eggs,7.640000000000001,3.47,-4.17,chickenfingers,938.6000000238419,940,939.3000000715256,True,u,10525.299999952316,1456.1000000238419,1669831187200,1457,HRV,HRV_0113,2022-11-30 18:05:31
4,"[{'imgObject': {}, 'id': 'orange slices', 'src': '/static/foodstim60/orange slices.jpg', 'key': 'u', 'origWidth': 409, 'origHeight': 410, 'width': 360, 'height': 360.88019559902204, 'widthPercent': 0.45, 'rescaleHeight': False, 'trialN': 4, 'loaded': True, 'loadedTime': 2447.1999999284744, 'positionName': 'LEFT', 'positionCoords': [24, 120], 'bid': 5}, {'imgObject': {}, 'id': 'veggieswithdip', 'src': '/static/foodstim60/veggieswithdip.jpg', 'key': 'i', 'origWidth': 409, 'origHeight': 409, 'width': 360, 'height': 360, 'widthPercent': 0.45, 'rescaleHeight': False, 'trialN': 4, 'loaded': True, 'loadedTime': 2426.2999999523163, 'positionName': 'RIGHT', 'positionCoords': [416, 120], 'bid': 7.32}]",10525.899999976158,1669831187200,orange slices,veggieswithdip,5.0,7.32,2.3200000000000003,veggieswithdip,954,955,954.3999999761581,True,i,11986.799999952316,1460.8999999761581,1669831188661,1461,HRV,HRV_0113,2022-11-30 18:05:31
5,"[{'imgObject': {}, 'id': 'baked potato', 'src': '/static/foodstim60/baked potato.jpg', 'key': 'u', 'origWidth': 409, 'origHeight': 410, 'width': 360, 'height': 360.88019559902204, 'widthPercent': 0.45, 'rescaleHeight': False, 'trialN': 5, 'loaded': True, 'loadedTime': 2461.5, 'positionName': 'LEFT', 'positionCoords': [24, 120], 'bid': 1.95}, {'imgObject': {}, 'id': 'shreddedwheatwithmilk', 'src': '/static/foodstim60/shreddedwheatwithmilk.jpg', 'key': 'i', 'origWidth': 410, 'origHeight': 410, 'width': 360, 'height': 360, 'widthPercent': 0.45, 'rescaleHeight': False, 'trialN': 5, 'loaded': True, 'loadedTime': 2461.6999999284744, 'positionName': 'RIGHT', 'positionCoords': [416, 120], 'bid': 2.85}]",11987.5,1669831188662,baked potato,shreddedwheatwithmilk,1.95,2.85,0.9000000000000001,shreddedwheatwithmilk,1588.1999999284744,1589,1589.0,True,i,14080.0,2092.5,1669831190754,2092,HRV,HRV_0113,2022-11-30 18:05:31
6,"[{'imgObject': {}, 'id': 'burrito', 'src': '/static/foodstim60/burrito.jpg', 'key': 'u', 'origWidth': 410, 'origHeight': 410, 'width': 360, 'height': 360, 'widthPercent': 0.45, 'rescaleHeight': False, 'trialN': 6, 'loaded': True, 'loadedTime': 2465.0999999046326, 'positionName': 'LEFT', 'positionCoords': [24, 120], 'bid': 5.6000000000000005}, {'imgObject': {}, 'id': 'salad w chicken', 'src': '/static/foodstim60/salad w chicken.jpg', 'key': 'i', 'origWidth': 411, 'origHeight': 411, 'width': 360, 'height': 360, 'widthPercent': 0.45, 'rescaleHeight': False, 'trialN': 6, 'loaded': True, 'loadedTime': 2480.6999999284744, 'positionName': 'RIGHT', 'positionCoords': [416, 120], 'bid': 8.02}]",14080.699999928474,1669831190755,burrito,salad w chicken,5.6000000000000005,8.02,2.419999999999999,salad w chicken,1117.8000000715256,1118,1118.2000000476837,True,i,15711.199999928474,1630.5,1669831192385,1630,HRV,HRV_0113,2022-11-30 18:05:31
7,"[{'imgObject': {}, 'id': 'fruitsalad', 'src': '/static/foodstim60/fruitsalad.jpg', 'key': 'u', 'origWidth': 410, 'origHeight': 410, 'width': 360, 'height': 360, 'widthPercent': 0.45, 'rescaleHeight': False, 'trialN': 7, 'loaded': True, 'loadedTime': 2482.0999999046326, 'positionName': 'LEFT', 'positionCoords': [24, 120], 'bid': 4.97}, {'imgObject': {}, 'id': 'olives', 'src': '/static/foodstim60/olives.jpg', 'key': 'i', 'origWidth': 410, 'origHeight': 410, 'width': 360, 'height': 360, 'widthPercent': 0.45, 'rescaleHeight': False, 'trialN': 7, 'loaded': True, 'loadedTime': 2495.399999976158, 'positionName': 'RIGHT', 'positionCoords': [416, 120], 'bid': 0.07}]",15711.899999976158,1669831192386,fruitsalad,olives,4.97,0.07,-4.8999999999999995,fruitsalad,1002.1999999284744,1003,1003.1999999284744,True,u,17230.599999904633,1518.6999999284744,1669831193905,1519,HRV,HRV_0113,2022-11-30 18:05:31
8,"[{'imgObject': {}, 'id': 'roastedpotatoes', 'src': '/static/foodstim60/roastedpotatoes.jpg', 'key': 'u', 'origWidth': 409, 'origHeight': 410, 'width': 360, 'height': 360.88019559902204, 'widthPercent': 0.45, 'rescaleHeight': False, 'trialN': 8, 'loaded': True, 'loadedTime': 2497.6999999284744, 'positionName': 'LEFT', 'positionCoords': [24, 120], 'bid': 2.42}, {'imgObject': {}, 'id': 'mac & cheese', 'src': '/static/foodstim60/mac & cheese.jpg', 'key': 'i', 'origWidth': 410, 'origHeight': 410, 'width': 360, 'height': 360, 'widthPercent': 0.45, 'rescaleHeight': False, 'trialN': 8, 'loaded': True, 'loadedTime': 2373.0999999046326, 'positionName': 'RIGHT', 'positionCoords': [416, 120], 'bid': 0.1}]",17231.899999976158,1669831193906,roastedpotatoes,mac & cheese,2.42,0.1,-2.32,roastedpotatoes,2122.899999976158,2124,2123.6999999284744,True,u,19878.0,2646.100000023842,1669831196552,2646,HRV,HRV_0113,2022-11-30 18:05:31
9,"[{'imgObject': {}, 'id': 'apple slices', 'src': '/static/foodstim60/apple slices.jpg', 'key': 'u', 'origWidth': 409, 'origHeight': 410, 'width': 360, 'height': 360.88019559902204, 'widthPercent': 0.45, 'rescaleHeight': False, 'trialN': 9, 'loaded': True, 'loadedTime': 2499.399999976158, 'positionName': 'LEFT', 'positionCoords': [24, 120], 'bid': 3.3200000000000003}, {'imgObject': {}, 'id': 'rigatoni', 'src': '/static/foodstim60/rigatoni.jpg', 'key': 'i', 'origWidth': 411, 'origHeight': 411, 'width': 360, 'height': 360, 'widthPercent': 0.45, 'rescaleHeight': False, 'trialN': 9, 'loaded': True, 'loadedTime': 2514, 'positionName': 'RIGHT', 'positionCoords': [416, 120], 'bid': 0.15}]",19878.5,1669831196553,apple slices,rigatoni,3.3200000000000003,0.15,-3.1700000000000004,apple slices,1381.2999999523163,1382,1382.1999999284744,True,u,21780.0,1901.5,1669831198454,1901,HRV,HRV_0113,2022-11-30 18:05:31
10,"[{'imgObject': {}, 'id': 'blueberries', 'src': '/static/foodstim60/blueberries.jpg', 'key': 'u', 'origWidth': 411, 'origHeight': 411, 'width': 360, 'height': 360, 'widthPercent': 0.45, 'rescaleHeight': False, 'trialN': 10, 'loaded': True, 'loadedTime': 2515.399999976158, 'positionName': 'LEFT', 'positionCoords': [24, 120], 'bid': 4.15}, {'imgObject': {}, 'id': 'cantaloupe', 'src': '/static/foodstim60/cantaloupe.jpg', 'key': 'i', 'origWidth': 409, 'origHeight': 409, 'width': 360, 'height': 360, 'widthPercent': 0.45, 'rescaleHeight': False, 'trialN': 10, 'loaded': True, 'loadedTime': 2516.899999976158, 'positionName': 'RIGHT', 'positionCoords': [416, 120], 'bid': 4.07}]",21780.799999952316,1669831198455,blueberries,cantaloupe,4.15,4.07,-0.08000000000000007,cantaloupe,2316.7000000476837,2318,2317.600000023842,True,i,24604.099999904633,2823.2999999523163,1669831201278,2823,HRV,HRV_0113,2022-11-30 18:05:31
11,"[{'imgObject': {}, 'id': 'mashed potato', 'src': '/static/foodstim60/mashed potato.jpg', 'key': 'u', 'origWidth': 409, 'origHeight': 409, 'width': 360, 'height': 360, 'widthPercent': 0.45, 'rescaleHeight': False, 'trialN': 11, 'loaded': True, 'loadedTime': 2530.1999999284744, 'positionName': 'LEFT', 'positionCoords': [24, 120], 'bid': 7.52}, {'imgObject': {}, 'id': 'turkey sandwich', 'src': '/static/foodstim60/turkey sandwich.jpg', 'key': 'i', 'origWidth': 409, 'origHeight': 409, 'width': 360, 'height': 360, 'widthPercent': 0.45, 'rescaleHeight': False, 'trialN': 11, 'loaded': True, 'loadedTime': 2532.2999999523163, 'positionName': 'RIGHT', 'positionCoords': [416, 120], 'bid': 7.85}]",24604.899999976158,1669831201279,mashed potato,turkey sandwich,7.52,7.85,0.33000000000000007,turkey sandwich,1265.1999999284744,1266,1266.1000000238419,True,i,26386.699999928474,1781.7999999523163,1669831203061,1782,HRV,HRV_0113,2022-11-30 18:05:31
12,"[{'imgObject': {}, 'id': 'shreddedwheatwithmilk', 'src': '/static/foodstim60/shreddedwheatwithmilk.jpg', 'key': 'u', 'origWidth': 410, 'origHeight': 410, 'width': 360, 'height': 360, 'widthPercent': 0.45, 'rescaleHeight': False, 'trialN': 12, 'loaded': True, 'loadedTime': 2463, 'positionName': 'LEFT', 'positionCoords': [24, 120], 'bid': 2.85}, {'imgObject': {}, 'id': 'chicken nuggets2', 'src': '/static/foodstim60/chicken nuggets2.jpg', 'key': 'i', 'origWidth': 410, 'origHeight': 409, 'width': 360, 'height': 359.1219512195122, 'widthPercent': 0.45, 'rescaleHeight': False, 'trialN': 12, 'loaded': True, 'loadedTime': 2532.899999976158, 'positionName': 'RIGHT', 'positionCoords': [416, 120.5], 'bid': 7.12}]",26387.299999952316,1669831203062,shreddedwheatwithmilk,chicken nuggets2,2.85,7.12,4.27,chicken nuggets2,1169.2999999523163,1170,1170.2000000476837,True,i,28068.0,1680.7000000476837,1669831204742,1680,HRV,HRV_0113,2022-11-30 18:05:31
13,"[{'imgObject': {}, 'id': 'omelette', 'src': '/static/foodstim60/omelette.jpg', 'key': 'u', 'origWidth': 410, 'origHeight': 409, 'width': 360, 'height': 359.1219512195122, 'widthPercent': 0.45, 'rescaleHeight': False, 'trialN': 13, 'loaded': True, 'loadedTime': 2547.7999999523163, 'positionName': 'LEFT', 'positionCoords': [24, 120.5], 'bid': 4.87}, {'imgObject': {}, 'id': 'raspberries', 'src': '/static/foodstim60/raspberries.jpg', 'key': 'i', 'origWidth': 411, 'origHeight': 411, 'width': 360, 'height': 360, 'widthPercent': 0.45, 'rescaleHeight': False, 'trialN': 13, 'loaded': True, 'loadedTime': 2548.5999999046326, 'positionName': 'RIGHT', 'positionCoords': [416, 120], 'bid': 4.72}]",28068.5,1669831204743,omelette,raspberries,4.87,4.72,-0.15000000000000036,omelette,1286.7999999523163,1287,1287.2999999523163,True,u,29868.599999904633,1800.0999999046326,1669831206543,1800,HRV,HRV_0113,2022-11-30 18:05:31
14,"[{'imgObject': {}, 'id': 'apple slices', 'src': '/static/foodstim60/apple slices.jpg', 'key': 'u', 'origWidth': 409, 'origHeight': 410, 'width': 360, 'height': 360.88019559902204, 'widthPercent': 0.45, 'rescaleHeight': False, 'trialN': 14, 'loaded': True, 'loadedTime': 2499.899999976158, 'positionName': 'LEFT', 'positionCoords': [24, 120], 'bid': 3.3200000000000003}, {'imgObject': {}, 'id': 'fruitsalad', 'src': '/static/foodstim60/fruitsalad.jpg', 'key': 'i', 'origWidth': 410, 'origHeight': 410, 'width': 360, 'height': 360, 'widthPercent': 0.45, 'rescaleHeight': False, 'trialN': 14, 'loaded': True, 'loadedTime': 2483.6999999284744, 'positionName': 'RIGHT', 'positionCoords': [416, 120], 'bid': 4.97}]",29869.199999928474,1669831206543,apple slices,fruitsalad,3.3200000000000003,4.97,1.6499999999999995,fruitsalad,1307.7000000476837,1309,1308.5,True,i,31685.199999928474,1816.0,1669831208359,1816,HRV,HRV_0113,2022-11-30 18:05:31
15,"[{'imgObject': {}, 'id': 'corn cob', 'src': '/static/foodstim60/corn cob.jpg', 'key': 'u', 'origWidth': 411, 'origHeight': 411, 'width': 360, 'height': 360, 'widthPercent': 0.45, 'rescaleHeight': False, 'trialN': 15, 'loaded': True, 'loadedTime': 2551, 'positionName': 'LEFT', 'positionCoords': [24, 120], 'bid': 0.25}, {'imgObject': {}, 'id': 'sweetpotato', 'src': '/static/foodstim60/sweetpotato.jpg', 'key': 'i', 'origWidth': 410, 'origHeight': 410, 'width': 360, 'height': 360, 'widthPercent': 0.45, 'rescaleHeight': False, 'trialN': 15, 'loaded': True, 'loadedTime': 2565.6999999284744, 'positionName': 'RIGHT', 'positionCoords': [416, 120], 'bid': 0.2}]",31685.599999904633,1669831208360,corn cob,sweetpotato,0.25,0.2,-0.04999999999999999,corn cob,2644.100000023842,2645,2645.2000000476837,True,u,34848.09999990463,3162.5,1669831211522,3162,HRV,HRV_0113,2022-11-30 18:05:31
16,"[{'imgObject': {}, 'id': 'hotdog w must', 'src': '/static/foodstim60/hotdog w must.jpg', 'key': 'u', 'origWidth': 409, 'origHeight': 409, 'width': 360, 'height': 360, 'widthPercent': 0.45, 'rescaleHeight': False, 'trialN': 16, 'loaded': True, 'loadedTime': 2567.5, 'positionName': 'LEFT', 'positionCoords': [24, 120], 'bid': 0.05}, {'imgObject': {}, 'id': 'sweetpotato', 'src': '/static/foodstim60/sweetpotato.jpg', 'key': 'i', 'origWidth': 410, 'origHeight': 410, 'width': 360, 'height': 360, 'widthPercent': 0.45, 'rescaleHeight': False, 'trialN': 16, 'loaded': True, 'loadedTime': 2565.7999999523163, 'positionName': 'RIGHT', 'positionCoords': [416, 120], 'bid': 0.2}]",34848.5,1669831211523,hotdog w must,sweetpotato,0.05,0.2,0.15000000000000002,sweetpotato,975.6999999284744,977,976.8999999761581,True,i,36328.199999928474,1479.6999999284744,1669831213002,1479,HRV,HRV_0113,2022-11-30 18:05:31
17,"[{'imgObject': {}, 'id': 'cantaloupe', 'src': '/static/foodstim60/cantaloupe.jpg', 'key': 'u', 'origWidth': 409, 'origHeight': 409, 'width': 360, 'height': 360, 'widthPercent': 0.45, 'rescaleHeight': False, 'trialN': 17, 'loaded': True, 'loadedTime': 2528.5, 'positionName': 'LEFT', 'positionCoords': [24, 120], 'bid': 4.07}, {'imgObject': {}, 'id': 'orange slices', 'src': '/static/foodstim60/orange slices.jpg', 'key': 'i', 'origWidth': 409, 'origHeight': 410, 'width': 360, 'height': 360.88019559902204, 'widthPercent': 0.45, 'rescaleHeight': False, 'trialN': 17, 'loaded': True, 'loadedTime': 2447.6999999284744, 'positionName': 'RIGHT', 'positionCoords': [416, 120], 'bid': 5}]",36328.89999997616,1669831213003,cantaloupe,orange slices,4.07,5.0,0.9299999999999997,cantaloupe,2832,2833,2832.5,True,u,39664.59999990463,3335.6999999284744,1669831216339,3336,HRV,HRV_0113,2022-11-30 18:05:31
18,"[{'imgObject': {}, 'id': 'tacos', 'src': '/static/foodstim60/tacos.jpg', 'key': 'u', 'origWidth': 411, 'origHeight': 411, 'width': 360, 'height': 360, 'widthPercent': 0.45, 'rescaleHeight': False, 'trialN': 18, 'loaded': True, 'loadedTime': 2567.7999999523163, 'positionName': 'LEFT', 'positionCoords': [24, 120], 'bid': 6.8}, {'imgObject': {}, 'id': 'mango', 'src': '/static/foodstim60/mango.jpg', 'key': 'i', 'origWidth': 411, 'origHeight': 411, 'width': 360, 'height': 360, 'widthPercent': 0.45, 'rescaleHeight': False, 'trialN': 18, 'loaded': True, 'loadedTime': 2581.399999976158, 'positionName': 'RIGHT', 'positionCoords': [416, 120], 'bid': 6.92}]",39665.299999952316,1669831216340,tacos,mango,6.8,6.92,0.1200000000000001,tacos,2073.100000023842,2074,2074.100000023842,True,u,42261.89999997616,2596.600000023842,1669831218936,2596,HRV,HRV_0113,2022-11-30 18:05:31
19,"[{'imgObject': {}, 'id': 'blackbeanswithrice', 'src': '/static/foodstim60/blackbeanswithrice.jpg', 'key': 'u', 'origWidth': 410, 'origHeight': 410, 'width': 360, 'height': 360, 'widthPercent': 0.45, 'rescaleHeight': False, 'trialN': 19, 'loaded': True, 'loadedTime': 2383.7999999523163, 'positionName': 'LEFT', 'positionCoords': [24, 120], 'bid': 0.17}, {'imgObject': {}, 'id': 'avocado', 'src': '/static/foodstim60/avocado.jpg', 'key': 'i', 'origWidth': 409, 'origHeight': 409, 'width': 360, 'height': 360, 'widthPercent': 0.45, 'rescaleHeight': False, 'trialN': 19, 'loaded': True, 'loadedTime': 2585.2999999523163, 'positionName': 'RIGHT', 'positionCoords': [416, 120], 'bid': 5.3500000000000005}]",42262.09999990463,1669831218936,blackbeanswithrice,avocado,0.17,5.3500000000000005,5.180000000000001,avocado,978.9000000953674,980,979.3000000715256,True,i,43747.39999997616,1485.3000000715256,1669831220422,1486,HRV,HRV_0113,2022-11-30 18:05:31
20,"[{'imgObject': {}, 'id': 'raisin bran w milk', 'src': '/static/foodstim60/raisin bran w milk.jpg', 'key': 'u', 'origWidth': 411, 'origHeight': 411, 'width': 360, 'height': 360, 'widthPercent': 0.45, 'rescaleHeight': False, 'trialN': 20, 'loaded': True, 'loadedTime': 2585.6999999284744, 'positionName': 'LEFT', 'positionCoords': [24, 120], 'bid': 6.94}, {'imgObject': {}, 'id': 'roastedpotatoes', 'src': '/static/foodstim60/roastedpotatoes.jpg', 'key': 'i', 'origWidth': 409, 'origHeight': 410, 'width': 360, 'height': 360.88019559902204, 'widthPercent': 0.45, 'rescaleHeight': False, 'trialN': 20, 'loaded': True, 'loadedTime': 2497.1999999284744, 'positionName': 'RIGHT', 'positionCoords': [416, 120], 'bid': 2.42}]",43747.699999928474,1669831220422,raisin bran w milk,roastedpotatoes,6.94,2.42,-4.5200000000000005,raisin bran w milk,1737.7000000476837,1738,1738.6000000238419,True,u,45999.39999997616,2251.7000000476837,1669831222673,2251,HRV,HRV_0113,2022-11-30 18:05:31
21,"[{'imgObject': {}, 'id': 'burrito', 'src': '/static/foodstim60/burrito.jpg', 'key': 'u', 'origWidth': 410, 'origHeight': 410, 'width': 360, 'height': 360, 'widthPercent': 0.45, 'rescaleHeight': False, 'trialN': 21, 'loaded': True, 'loadedTime': 2465.0999999046326, 'positionName': 'LEFT', 'positionCoords': [24, 120], 'bid': 5.6000000000000005}, {'imgObject': {}, 'id': 'corn cob', 'src': '/static/foodstim60/corn cob.jpg', 'key': 'i', 'origWidth': 411, 'origHeight': 411, 'width': 360, 'height': 360, 'widthPercent': 0.45, 'rescaleHeight': False, 'trialN': 21, 'loaded': True, 'loadedTime': 2552.5, 'positionName': 'RIGHT', 'positionCoords': [416, 120], 'bid': 0.25}]",45999.89999997616,1669831222674,burrito,corn cob,5.6000000000000005,0.25,-5.3500000000000005,burrito,1100.8999999761581,1102,1101.7999999523163,True,u,47607.39999997616,1607.5,1669831224282,1608,HRV,HRV_0113,2022-11-30 18:05:31
22,"[{'imgObject': {}, 'id': 'chickenfingers', 'src': '/static/foodstim60/chickenfingers.jpg', 'key': 'u', 'origWidth': 410, 'origHeight': 410, 'width': 360, 'height': 360, 'widthPercent': 0.45, 'rescaleHeight': False, 'trialN': 22, 'loaded': True, 'loadedTime': 2442, 'positionName': 'LEFT', 'positionCoords': [24, 120], 'bid': 7.640000000000001}, {'imgObject': {}, 'id': 'luckycharms', 'src': '/static/foodstim60/luckycharms.jpg', 'key': 'i', 'origWidth': 410, 'origHeight': 409, 'width': 360, 'height': 359.1219512195122, 'widthPercent': 0.45, 'rescaleHeight': False, 'trialN': 22, 'loaded': True, 'loadedTime': 2589.0999999046326, 'positionName': 'RIGHT', 'positionCoords': [416, 120.5], 'bid': 7.4}]",47607.799999952316,1669831224282,chickenfingers,luckycharms,7.640000000000001,7.4,-0.2400000000000002,chickenfingers,1824.2000000476837,1825,1825.0,True,u,49945.199999928474,2337.399999976158,1669831226619,2337,HRV,HRV_0113,2022-11-30 18:05:31
23,"[{'imgObject': {}, 'id': 'seaweed', 'src': '/static/foodstim60/seaweed.jpg', 'key': 'u', 'origWidth': 410, 'origHeight': 410, 'width': 360, 'height': 360, 'widthPercent': 0.45, 'rescaleHeight': False, 'trialN': 23, 'loaded': True, 'loadedTime': 2601.0999999046326, 'positionName': 'LEFT', 'positionCoords': [24, 120], 'bid': 6.75}, {'imgObject': {}, 'id': 'grilled chicken strips', 'src': '/static/foodstim60/grilled chicken strips.jpg', 'key': 'i', 'origWidth': 410, 'origHeight': 411, 'width': 360, 'height': 360.87804878048786, 'widthPercent': 0.45, 'rescaleHeight': False, 'trialN': 23, 'loaded': True, 'loadedTime': 2603.2999999523163, 'positionName': 'RIGHT', 'positionCoords': [416, 120], 'bid': 6.5}]",49945.89999997616,1669831226620,seaweed,grilled chicken strips,6.75,6.5,-0.25,seaweed,2506.1999999284744,2507,2507.2999999523163,True,u,52960.199999928474,3014.2999999523163,1669831229634,3014,HRV,HRV_0113,2022-11-30 18:05:31
24,"[{'imgObject': {}, 'id': 'apple slices', 'src': '/static/foodstim60/apple slices.jpg', 'key': 'u', 'origWidth': 409, 'origHeight': 410, 'width': 360, 'height': 360.88019559902204, 'widthPercent': 0.45, 'rescaleHeight': False, 'trialN': 24, 'loaded': True, 'loadedTime': 2500.2999999523163, 'positionName': 'LEFT', 'positionCoords': [24, 120], 'bid': 3.3200000000000003}, {'imgObject': {}, 'id': 'luckycharms', 'src': '/static/foodstim60/luckycharms.jpg', 'key': 'i', 'origWidth': 410, 'origHeight': 409, 'width': 360, 'height': 359.1219512195122, 'widthPercent': 0.45, 'rescaleHeight': False, 'trialN': 24, 'loaded': True, 'loadedTime': 2588.899999976158, 'positionName': 'RIGHT', 'positionCoords': [416, 120.5], 'bid': 7.4}]",52960.799999952316,1669831229635,apple slices,luckycharms,3.3200000000000003,7.4,4.08,luckycharms,1650.2999999523163,1651,1651.1000000238419,True,i,55126.799999952316,2166.0,1669831231801,2166,HRV,HRV_0113,2022-11-30 18:05:31
25,"[{'imgObject': {}, 'id': 'turkeysandwich', 'src': '/static/foodstim60/turkeysandwich.jpg', 'key': 'u', 'origWidth': 409, 'origHeight': 409, 'width': 360, 'height': 360, 'widthPercent': 0.45, 'rescaleHeight': False, 'trialN': 25, 'loaded': True, 'loadedTime': 2604.6999999284744, 'positionName': 'LEFT', 'positionCoords': [24, 120], 'bid': 8.65}, {'imgObject': {}, 'id': 'luckycharms', 'src': '/static/foodstim60/luckycharms.jpg', 'key': 'i', 'origWidth': 410, 'origHeight': 409, 'width': 360, 'height': 359.1219512195122, 'widthPercent': 0.45, 'rescaleHeight': False, 'trialN': 25, 'loaded': True, 'loadedTime': 2589.2999999523163, 'positionName': 'RIGHT', 'positionCoords': [416, 120.5], 'bid': 7.4}]",55127.5,1669831231802,turkeysandwich,luckycharms,8.65,7.4,-1.25,turkeysandwich,837.1999999284744,838,838.1999999284744,True,u,56470.89999997616,1343.3999999761581,1669831233145,1343,HRV,HRV_0113,2022-11-30 18:05:31
26,"[{'imgObject': {}, 'id': 'strawberries', 'src': '/static/foodstim60/strawberries.jpg', 'key': 'u', 'origWidth': 410, 'origHeight': 410, 'width': 360, 'height': 360, 'widthPercent': 0.45, 'rescaleHeight': False, 'trialN': 26, 'loaded': True, 'loadedTime': 2607.2999999523163, 'positionName': 'LEFT', 'positionCoords': [24, 120], 'bid': 4.97}, {'imgObject': {}, 'id': 'raspberries', 'src': '/static/foodstim60/raspberries.jpg', 'key': 'i', 'origWidth': 411, 'origHeight': 411, 'width': 360, 'height': 360, 'widthPercent': 0.45, 'rescaleHeight': False, 'trialN': 26, 'loaded': True, 'loadedTime': 2550.5, 'positionName': 'RIGHT', 'positionCoords': [416, 120], 'bid': 4.72}]",56471.5,1669831233146,strawberries,raspberries,4.97,4.72,-0.25,strawberries,2500.5,2501,2501.0999999046326,True,u,59482.699999928474,3011.1999999284744,1669831236157,3011,HRV,HRV_0113,2022-11-30 18:05:31
27,"[{'imgObject': {}, 'id': 'seaweed', 'src': '/static/foodstim60/seaweed.jpg', 'key': 'u', 'origWidth': 410, 'origHeight': 410, 'width': 360, 'height': 360, 'widthPercent': 0.45, 'rescaleHeight': False, 'trialN': 27, 'loaded': True, 'loadedTime': 2601, 'positionName': 'LEFT', 'positionCoords': [24, 120], 'bid': 6.75}, {'imgObject': {}, 'id': 'avocado', 'src': '/static/foodstim60/avocado.jpg', 'key': 'i', 'origWidth': 409, 'origHeight': 409, 'width': 360, 'height': 360, 'widthPercent': 0.45, 'rescaleHeight': False, 'trialN': 27, 'loaded': True, 'loadedTime': 2583.0999999046326, 'positionName': 'RIGHT', 'positionCoords': [416, 120], 'bid': 5.3500000000000005}]",59483.39999997616,1669831236158,seaweed,avocado,6.75,5.3500000000000005,-1.3999999999999995,seaweed,1433.1000000238419,1433,1434.0,True,u,61423.89999997616,1940.5,1669831238098,1940,HRV,HRV_0113,2022-11-30 18:05:31
28,"[{'imgObject': {}, 'id': 'orange slices', 'src': '/static/foodstim60/orange slices.jpg', 'key': 'u', 'origWidth': 409, 'origHeight': 410, 'width': 360, 'height': 360.88019559902204, 'widthPercent': 0.45, 'rescaleHeight': False, 'trialN': 28, 'loaded': True, 'loadedTime': 2447.2999999523163, 'positionName': 'LEFT', 'positionCoords': [24, 120], 'bid': 5}, {'imgObject': {}, 'id': 'ice cream sundae 002', 'src': '/static/foodstim60/ice cream sundae 002.jpg', 'key': 'i', 'origWidth': 409, 'origHeight': 409, 'width': 360, 'height': 360, 'widthPercent': 0.45, 'rescaleHeight': False, 'trialN': 28, 'loaded': True, 'loadedTime': 2608.6999999284744, 'positionName': 'RIGHT', 'positionCoords': [416, 120], 'bid': 0.12}]",61424.59999990463,1669831238099,orange slices,ice cream sundae 002,5.0,0.12,-4.88,orange slices,1169.3000000715256,1170,1170.4000000953674,True,u,63107.299999952316,1682.7000000476837,1669831239781,1682,HRV,HRV_0113,2022-11-30 18:05:31
29,"[{'imgObject': {}, 'id': 'roastedpotatoes', 'src': '/static/foodstim60/roastedpotatoes.jpg', 'key': 'u', 'origWidth': 409, 'origHeight': 410, 'width': 360, 'height': 360.88019559902204, 'widthPercent': 0.45, 'rescaleHeight': False, 'trialN': 29, 'loaded': True, 'loadedTime': 2497.5, 'positionName': 'LEFT', 'positionCoords': [24, 120], 'bid': 2.42}, {'imgObject': {}, 'id': 'froot loops w milk', 'src': '/static/foodstim60/froot loops w milk.jpg', 'key': 'i', 'origWidth': 410, 'origHeight': 410, 'width': 360, 'height': 360, 'widthPercent': 0.45, 'rescaleHeight': False, 'trialN': 29, 'loaded': True, 'loadedTime': 2610.2999999523163, 'positionName': 'RIGHT', 'positionCoords': [416, 120], 'bid': 2.8000000000000003}]",63107.799999952316,1669831239782,roastedpotatoes,froot loops w milk,2.42,2.8000000000000003,0.38000000000000034,froot loops w milk,978.5,979,979.3999999761581,True,i,64591.299999952316,1483.5,1669831241265,1483,HRV,HRV_0113,2022-11-30 18:05:31
30,"[{'imgObject': {}, 'id': 'mango', 'src': '/static/foodstim60/mango.jpg', 'key': 'u', 'origWidth': 411, 'origHeight': 411, 'width': 360, 'height': 360, 'widthPercent': 0.45, 'rescaleHeight': False, 'trialN': 30, 'loaded': True, 'loadedTime': 2582.899999976158, 'positionName': 'LEFT', 'positionCoords': [24, 120], 'bid': 6.92}, {'imgObject': {}, 'id': 'burrito', 'src': '/static/foodstim60/burrito.jpg', 'key': 'i', 'origWidth': 410, 'origHeight': 410, 'width': 360, 'height': 360, 'widthPercent': 0.45, 'rescaleHeight': False, 'trialN': 30, 'loaded': True, 'loadedTime': 2464.899999976158, 'positionName': 'RIGHT', 'positionCoords': [416, 120], 'bid': 5.6000000000000005}]",64591.5,1669831241266,mango,burrito,6.92,5.6000000000000005,-1.3199999999999994,burrito,2759.1999999284744,2760,2760.0999999046326,True,i,67855.39999997616,3263.899999976158,1669831244530,3264,HRV,HRV_0113,2022-11-30 18:05:31
31,"[{'imgObject': {}, 'id': 'ice cream sundae 002', 'src': '/static/foodstim60/ice cream sundae 002.jpg', 'key': 'u', 'origWidth': 409, 'origHeight': 409, 'width': 360, 'height': 360, 'widthPercent': 0.45, 'rescaleHeight': False, 'trialN': 31, 'loaded': True, 'loadedTime': 2609.0999999046326, 'positionName': 'LEFT', 'positionCoords': [24, 120], 'bid': 0.12}, {'imgObject': {}, 'id': 'hotdog w must', 'src': '/static/foodstim60/hotdog w must.jpg', 'key': 'i', 'origWidth': 409, 'origHeight': 409, 'width': 360, 'height': 360, 'widthPercent': 0.45, 'rescaleHeight': False, 'trialN': 31, 'loaded': True, 'loadedTime': 2567.5999999046326, 'positionName': 'RIGHT', 'positionCoords': [416, 120], 'bid': 0.05}]",67856.09999990463,1669831244530,ice cream sundae 002,hotdog w must,0.12,0.05,-0.06999999999999999,hotdog w must,1877,1878,1878.0,True,i,70239.09999990463,2383.0,1669831246913,2383,HRV,HRV_0113,2022-11-30 18:05:31
32,"[{'imgObject': {}, 'id': 'orange slices', 'src': '/static/foodstim60/orange slices.jpg', 'key': 'u', 'origWidth': 409, 'origHeight': 410, 'width': 360, 'height': 360.88019559902204, 'widthPercent': 0.45, 'rescaleHeight': False, 'trialN': 32, 'loaded': True, 'loadedTime': 2447.5, 'positionName': 'LEFT', 'positionCoords': [24, 120], 'bid': 5}, {'imgObject': {}, 'id': 'Tribe humus pita', 'src': '/static/foodstim60/Tribe humus pita.jpg', 'key': 'i', 'origWidth': 411, 'origHeight': 411, 'width': 360, 'height': 360, 'widthPercent': 0.45, 'rescaleHeight': False, 'trialN': 32, 'loaded': True, 'loadedTime': 2621.2999999523163, 'positionName': 'RIGHT', 'positionCoords': [416, 120], 'bid': 5.12}]",70239.59999990463,1669831246914,orange slices,Tribe humus pita,5.0,5.12,0.1200000000000001,Tribe humus pita,1130.7000000476837,1131,1131.6000000238419,True,i,71886.59999990463,1647.0,1669831248561,1647,HRV,HRV_0113,2022-11-30 18:05:31
33,"[{'imgObject': {}, 'id': 'strawberries', 'src': '/static/foodstim60/strawberries.jpg', 'key': 'u', 'origWidth': 410, 'origHeight': 410, 'width': 360, 'height': 360, 'widthPercent': 0.45, 'rescaleHeight': False, 'trialN': 33, 'loaded': True, 'loadedTime': 2607.5, 'positionName': 'LEFT', 'positionCoords': [24, 120], 'bid': 4.97}, {'imgObject': {}, 'id': 'kiwi', 'src': '/static/foodstim60/kiwi.jpg', 'key': 'i', 'origWidth': 410, 'origHeight': 410, 'width': 360, 'height': 360, 'widthPercent': 0.45, 'rescaleHeight': False, 'trialN': 33, 'loaded': True, 'loadedTime': 2624.2999999523163, 'positionName': 'RIGHT', 'positionCoords': [416, 120], 'bid': 7.12}]",71887.29999995232,1669831248562,strawberries,kiwi,4.97,7.12,2.1500000000000004,kiwi,1219.2000000476837,1220,1220.0,True,i,73622.69999992847,1735.3999999761581,1669831250297,1735,HRV,HRV_0113,2022-11-30 18:05:31
34,"[{'imgObject': {}, 'id': 'eggsalad', 'src': '/static/foodstim60/eggsalad.jpg', 'key': 'u', 'origWidth': 410, 'origHeight': 409, 'width': 360, 'height': 359.1219512195122, 'widthPercent': 0.45, 'rescaleHeight': False, 'trialN': 34, 'loaded': True, 'loadedTime': 2626.399999976158, 'positionName': 'LEFT', 'positionCoords': [24, 120.5], 'bid': 2.29}, {'imgObject': {}, 'id': 'rigatoni', 'src': '/static/foodstim60/rigatoni.jpg', 'key': 'i', 'origWidth': 411, 'origHeight': 411, 'width': 360, 'height': 360, 'widthPercent': 0.45, 'rescaleHeight': False, 'trialN': 34, 'loaded': True, 'loadedTime': 2513.5999999046326, 'positionName': 'RIGHT', 'positionCoords': [416, 120], 'bid': 0.15}]",73623.19999992847,1669831250297,eggsalad,rigatoni,2.29,0.15,-2.14,eggsalad,1451,1452,1451.8000000715256,True,u,75585.5,1962.3000000715256,1669831252260,1963,HRV,HRV_0113,2022-11-30 18:05:31
35,"[{'imgObject': {}, 'id': 'steak', 'src': '/static/foodstim60/steak.jpg', 'key': 'u', 'origWidth': 410, 'origHeight': 410, 'width': 360, 'height': 360, 'widthPercent': 0.45, 'rescaleHeight': False, 'trialN': 35, 'loaded': True, 'loadedTime': 2628.2999999523163, 'positionName': 'LEFT', 'positionCoords': [24, 120], 'bid': 9.95}, {'imgObject': {}, 'id': 'omelette', 'src': '/static/foodstim60/omelette.jpg', 'key': 'i', 'origWidth': 410, 'origHeight': 409, 'width': 360, 'height': 359.1219512195122, 'widthPercent': 0.45, 'rescaleHeight': False, 'trialN': 35, 'loaded': True, 'loadedTime': 2547.899999976158, 'positionName': 'RIGHT', 'positionCoords': [416, 120.5], 'bid': 4.87}]",75585.89999997616,1669831252260,steak,omelette,9.95,4.87,-5.079999999999999,steak,942.5,944,943.3999999761581,True,u,77044.0,1458.1000000238419,1669831253718,1458,HRV,HRV_0113,2022-11-30 18:05:31
36,"[{'imgObject': {}, 'id': 'salmon', 'src': '/static/foodstim60/salmon.jpg', 'key': 'u', 'origWidth': 410, 'origHeight': 409, 'width': 360, 'height': 359.1219512195122, 'widthPercent': 0.45, 'rescaleHeight': False, 'trialN': 36, 'loaded': True, 'loadedTime': 2630.1999999284744, 'positionName': 'LEFT', 'positionCoords': [24, 120.5], 'bid': 0.07}, {'imgObject': {}, 'id': 'rigatoni', 'src': '/static/foodstim60/rigatoni.jpg', 'key': 'i', 'origWidth': 411, 'origHeight': 411, 'width': 360, 'height': 360, 'widthPercent': 0.45, 'rescaleHeight': False, 'trialN': 36, 'loaded': True, 'loadedTime': 2513.7999999523163, 'positionName': 'RIGHT', 'positionCoords': [416, 120], 'bid': 0.15}]",77044.79999995232,1669831253719,salmon,rigatoni,0.07,0.15,0.07999999999999999,NaN,NaN,NaN,,False,NaN,81067.79999995232,4023.0,1669831257742,4023,HRV,HRV_0113,2022-11-30 18:05:31
37,"[{'imgObject': {}, 'id': 'olives', 'src': '/static/foodstim60/olives.jpg', 'key': 'u', 'origWidth': 410, 'origHeight': 410, 'width': 360, 'height': 360, 'widthPercent': 0.45, 'rescaleHeight': False, 'trialN': 37, 'loaded': True, 'loadedTime': 2495.6999999284744, 'positionName': 'LEFT', 'positionCoords': [24, 120], 'bid': 0.07}, {'imgObject': {}, 'id': 'mac & cheese', 'src': '/static/foodstim60/mac & cheese.jpg', 'key': 'i', 'origWidth': 410, 'origHeight': 410, 'width': 360, 'height': 360, 'widthPercent': 0.45, 'rescaleHeight': False, 'trialN': 37, 'loaded': True, 'loadedTime': 2373.5, 'positionName': 'RIGHT', 'positionCoords': [416, 120], 'bid': 0.1}]",81068.29999995232,1669831257742,olives,mac & cheese,0.07,0.1,0.03,mac & cheese,2151.5,2152,2151.899999976158,True,i,83736.59999990463,2668.2999999523163,1669831260411,2669,HRV,HRV_0113,2022-11-30 18:05:31
38,"[{'imgObject': {}, 'id': 'banana', 'src': '/static/foodstim60/banana.jpg', 'key': 'u', 'origWidth': 410, 'origHeight': 410, 'width': 360, 'height': 360, 'widthPercent': 0.45, 'rescaleHeight': False, 'trialN': 38, 'loaded': True, 'loadedTime': 2641.5999999046326, 'positionName': 'LEFT', 'positionCoords': [24, 120], 'bid': 4.97}, {'imgObject': {}, 'id': 'omelette', 'src': '/static/foodstim60/omelette.jpg', 'key': 'i', 'origWidth': 410, 'origHeight': 409, 'width': 360, 'height': 359.1219512195122, 'widthPercent': 0.45, 'rescaleHeight': False, 'trialN': 38, 'loaded': True, 'loadedTime': 2548.0999999046326, 'positionName': 'RIGHT', 'positionCoords': [416, 120.5], 'bid': 4.87}]",83737.0,1669831260411,banana,omelette,4.97,4.87,-0.09999999999999964,omelette,2043.3999999761581,2044,2044.1999999284744,True,i,86299.0,2562.0,1669831262973,2562,HRV,HRV_0113,2022-11-30 18:05:31
39,"[{'imgObject': {}, 'id': 'cocktailshrimp', 'src': '/static/foodstim60/cocktailshrimp.jpg', 'key': 'u', 'origWidth': 410, 'origHeight': 410, 'width': 360, 'height': 360, 'widthPercent': 0.45, 'rescaleHeight': False, 'trialN': 39, 'loaded': True, 'loadedTime': 2643.5999999046326, 'positionName': 'LEFT', 'positionCoords': [24, 120], 'bid': 6.3500000000000005}, {'imgObject': {}, 'id': 'orange slices', 'src': '/static/foodstim60/orange slices.jpg', 'key': 'i', 'origWidth': 409, 'origHeight': 410, 'width': 360, 'height': 360.88019559902204, 'widthPercent': 0.45, 'rescaleHeight': False, 'trialN': 39, 'loaded': True, 'loadedTime': 2446.5999999046326, 'positionName': 'RIGHT', 'positionCoords': [416, 120], 'bid': 5}]",86299.69999992847,1669831262974,cocktailshrimp,orange slices,6.3500000000000005,5.0,-1.3500000000000005,cocktailshrimp,1025.5,1026,1026.3999999761581,True,u,87842.69999992847,1543.0,1669831264517,1543,HRV,HRV_0113,2022-11-30 18:05:31
40,"[{'imgObject': {}, 'id': 'Tribe humus pita', 'src': '/static/foodstim60/Tribe humus pita.jpg', 'key': 'u', 'origWidth': 411, 'origHeight': 411, 'width': 360, 'height': 360, 'widthPercent': 0.45, 'rescaleHeight': False, 'trialN': 40, 'loaded': True, 'loadedTime': 2622.6999999284744, 'positionName': 'LEFT', 'positionCoords': [24, 120], 'bid': 5.12}, {'imgObject': {}, 'id': 'mashed potato', 'src': '/static/foodstim60/mashed potato.jpg', 'key': 'i', 'origWidth': 409, 'origHeight': 409, 'width': 360, 'height': 360, 'widthPercent': 0.45, 'rescaleHeight': False, 'trialN': 40, 'loaded': True, 'loadedTime': 2530, 'positionName': 'RIGHT', 'positionCoords': [416, 120], 'bid': 7.52}]",87843.19999992847,1669831264517,Tribe humus pita,mashed potato,5.12,7.52,2.3999999999999995,Tribe humus pita,1395.2000000476837,1397,1396.1000000238419,True,u,89747.5,1904.3000000715256,1669831266422,1905,HRV,HRV_0113,2022-11-30 18:05:31
41,"[{'imgObject': {}, 'id': 'cherry tomato', 'src': '/static/foodstim60/cherry tomato.jpg', 'key': 'u', 'origWidth': 410, 'origHeight': 410, 'width': 360, 'height': 360, 'widthPercent': 0.45, 'rescaleHeight': False, 'trialN': 41, 'loaded': True, 'loadedTime': 2645.899999976158, 'positionName': 'LEFT', 'positionCoords': [24, 120], 'bid': 0.1}, {'imgObject': {}, 'id': 'eggs', 'src': '/static/foodstim60/eggs.jpg', 'key': 'i', 'origWidth': 409, 'origHeight': 409, 'width': 360, 'height': 360, 'widthPercent': 0.45, 'rescaleHeight': False, 'trialN': 41, 'loaded': True, 'loadedTime': 2648, 'positionName': 'RIGHT', 'positionCoords': [416, 120], 'bid': 0.12}]",89748.09999990463,1669831266422,cherry tomato,eggs,0.1,0.12,0.01999999999999999,eggs,1726.1000000238419,1727,1726.7000000476837,True,i,91990.79999995232,2242.7000000476837,1669831268665,2243,HRV,HRV_0113,2022-11-30 18:05:31
42,"[{'imgObject': {}, 'id': 'burger', 'src': '/static/foodstim60/burger.jpg', 'key': 'u', 'origWidth': 409, 'origHeight': 409, 'width': 360, 'height': 360, 'widthPercent': 0.45, 'rescaleHeight': False, 'trialN': 42, 'loaded': True, 'loadedTime': 2649.7999999523163, 'positionName': 'LEFT', 'positionCoords': [24, 120], 'bid': 8.57}, {'imgObject': {}, 'id': 'salad w chicken', 'src': '/static/foodstim60/salad w chicken.jpg', 'key': 'i', 'origWidth': 411, 'origHeight': 411, 'width': 360, 'height': 360, 'widthPercent': 0.45, 'rescaleHeight': False, 'trialN': 42, 'loaded': True, 'loadedTime': 2479.7999999523163, 'positionName': 'RIGHT', 'positionCoords': [416, 120], 'bid': 8.02}]",91991.5,1669831268666,burger,salad w chicken,8.57,8.02,-0.5500000000000007,salad w chicken,849.8999999761581,850,850.5999999046326,True,i,93345.89999997616,1354.3999999761581,1669831270020,1354,HRV,HRV_0113,2022-11-30 18:05:31
43,"[{'imgObject': {}, 'id': 'cherries', 'src': '/static/foodstim60/cherries.jpg', 'key': 'u', 'origWidth': 410, 'origHeight': 411, 'width': 360, 'height': 360.87804878048786, 'widthPercent': 0.45, 'rescaleHeight': False, 'trialN': 43, 'loaded': True, 'loadedTime': 2408.899999976158, 'positionName': 'LEFT', 'positionCoords': [24, 120], 'bid': 4.95}, {'imgObject': {}, 'id': 'tacos', 'src': '/static/foodstim60/tacos.jpg', 'key': 'i', 'origWidth': 411, 'origHeight': 411, 'width': 360, 'height': 360, 'widthPercent': 0.45, 'rescaleHeight': False, 'trialN': 43, 'loaded': True, 'loadedTime': 2569.399999976158, 'positionName': 'RIGHT', 'positionCoords': [416, 120], 'bid': 6.8}]",93346.5,1669831270021,cherries,tacos,4.95,6.8,1.8499999999999996,tacos,1052.7999999523163,1053,1053.5999999046326,True,i,94904.09999990463,1557.5999999046326,1669831271578,1557,HRV,HRV_0113,2022-11-30 18:05:31
44,"[{'imgObject': {}, 'id': 'chicken nuggets2', 'src': '/static/foodstim60/chicken nuggets2.jpg', 'key': 'u', 'origWidth': 410, 'origHeight': 409, 'width': 360, 'height': 359.1219512195122, 'widthPercent': 0.45, 'rescaleHeight': False, 'trialN': 44, 'loaded': True, 'loadedTime': 2534.399999976158, 'positionName': 'LEFT', 'positionCoords': [24, 120.5], 'bid': 7.12}, {'imgObject': {}, 'id': 'banana', 'src': '/static/foodstim60/banana.jpg', 'key': 'i', 'origWidth': 410, 'origHeight': 410, 'width': 360, 'height': 360, 'widthPercent': 0.45, 'rescaleHeight': False, 'trialN': 44, 'loaded': True, 'loadedTime': 2631.5999999046326, 'positionName': 'RIGHT', 'positionCoords': [416, 120], 'bid': 4.97}]",94904.79999995232,1669831271579,chicken nuggets2,banana,7.12,4.97,-2.1500000000000004,chicken nuggets2,980.8999999761581,982,981.7999999523163,True,u,96401.29999995232,1496.5,1669831273075,1496,HRV,HRV_0113,2022-11-30 18:05:31
45,"[{'imgObject': {}, 'id': 'raspberries', 'src': '/static/foodstim60/raspberries.jpg', 'key': 'u', 'origWidth': 411, 'origHeight': 411, 'width': 360, 'height': 360, 'widthPercent': 0.45, 'rescaleHeight': False, 'trialN': 45, 'loaded': True, 'loadedTime': 2549.6999999284744, 'positionName': 'LEFT', 'positionCoords': [24, 120], 'bid': 4.72}, {'imgObject': {}, 'id': 'turkeysandwich', 'src': '/static/foodstim60/turkeysandwich.jpg', 'key': 'i', 'origWidth': 409, 'origHeight': 409, 'width': 360, 'height': 360, 'widthPercent': 0.45, 'rescaleHeight': False, 'trialN': 45, 'loaded': True, 'loadedTime': 2605.5, 'positionName': 'RIGHT', 'positionCoords': [416, 120], 'bid': 8.65}]",96401.5,1669831273076,raspberries,turkeysandwich,4.72,8.65,3.9300000000000006,turkeysandwich,705.6999999284744,706,706.5999999046326,True,i,97616.39999997616,1214.8999999761581,1669831274291,1215,HRV,HRV_0113,2022-11-30 18:05:31
46,"[{'imgObject': {}, 'id': 'tacos', 'src': '/static/foodstim60/tacos.jpg', 'key': 'u', 'origWidth': 411, 'origHeight': 411, 'width': 360, 'height': 360, 'widthPercent': 0.45, 'rescaleHeight': False, 'trialN': 46, 'loaded': True, 'loadedTime': 2570, 'positionName': 'LEFT', 'positionCoords': [24, 120], 'bid': 6.8}, {'imgObject': {}, 'id': 'bagel plain', 'src': '/static/foodstim60/bagel plain.jpg', 'key': 'i', 'origWidth': 410, 'origHeight': 410, 'width': 360, 'height': 360, 'widthPercent': 0.45, 'rescaleHeight': False, 'trialN': 46, 'loaded': True, 'loadedTime': 2651.7999999523163, 'positionName': 'RIGHT', 'positionCoords': [416, 120], 'bid': 2.17}]",97617.29999995232,1669831274291,tacos,bagel plain,6.8,2.17,-4.63,tacos,664.2999999523163,666,665.2999999523163,True,u,98802.09999990463,1184.7999999523163,1669831275476,1185,HRV,HRV_0113,2022-11-30 18:05:31
47,"[{'imgObject': {}, 'id': 'veggieswithdip', 'src': '/static/foodstim60/veggieswithdip.jpg', 'key': 'u', 'origWidth': 409, 'origHeight': 409, 'width': 360, 'height': 360, 'widthPercent': 0.45, 'rescaleHeight': False, 'trialN': 47, 'loaded': True, 'loadedTime': 2426.5999999046326, 'positionName': 'LEFT', 'positionCoords': [24, 120], 'bid': 7.32}, {'imgObject': {}, 'id': 'chicken nuggets2', 'src': '/static/foodstim60/chicken nuggets2.jpg', 'key': 'i', 'origWidth': 410, 'origHeight': 409, 'width': 360, 'height': 359.1219512195122, 'widthPercent': 0.45, 'rescaleHeight': False, 'trialN': 47, 'loaded': True, 'loadedTime': 2534.7999999523163, 'positionName': 'RIGHT', 'positionCoords': [416, 120.5], 'bid': 7.12}]",98802.89999997616,1669831275477,veggieswithdip,chicken nuggets2,7.32,7.12,-0.20000000000000018,veggieswithdip,745.2999999523163,746,746.2999999523163,True,u,100061.69999992847,1258.7999999523163,1669831276736,1259,HRV,HRV_0113,2022-11-30 18:05:31
48,"[{'imgObject': {}, 'id': 'froot loops w milk', 'src': '/static/foodstim60/froot loops w milk.jpg', 'key': 'u', 'origWidth': 410, 'origHeight': 410, 'width': 360, 'height': 360, 'widthPercent': 0.45, 'rescaleHeight': False, 'trialN': 48, 'loaded': True, 'loadedTime': 2620.7999999523163, 'positionName': 'LEFT', 'positionCoords': [24, 120], 'bid': 2.8000000000000003}, {'imgObject': {}, 'id': 'eggsalad', 'src': '/static/foodstim60/eggsalad.jpg', 'key': 'i', 'origWidth': 410, 'origHeight': 409, 'width': 360, 'height': 359.1219512195122, 'widthPercent': 0.45, 'rescaleHeight': False, 'trialN': 48, 'loaded': True, 'loadedTime': 2626.2999999523163, 'positionName': 'RIGHT', 'positionCoords': [416, 120.5], 'bid': 2.29}]",100062.29999995232,1669831276736,froot loops w milk,eggsalad,2.8000000000000003,2.29,-0.5100000000000002,froot loops w milk,1353.3999999761581,1355,1354.2000000476837,True,u,101926.59999990463,1864.2999999523163,1669831278601,1865,HRV,HRV_0113,2022-11-30 18:05:31
49,"[{'imgObject': {}, 'id': 'luckycharms', 'src': '/static/foodstim60/luckycharms.jpg', 'key': 'u', 'origWidth': 410, 'origHeight': 409, 'width': 360, 'height': 359.1219512195122, 'widthPercent': 0.45, 'rescaleHeight': False, 'trialN': 49, 'loaded': True, 'loadedTime': 2588.399999976158, 'positionName': 'LEFT', 'positionCoords': [24, 120.5], 'bid': 7.4}, {'imgObject': {}, 'id': 'cocktailshrimp', 'src': '/static/foodstim60/cocktailshrimp.jpg', 'key': 'i', 'origWidth': 410, 'origHeight': 410, 'width': 360, 'height': 360, 'widthPercent': 0.45, 'rescaleHeight': False, 'trialN': 49, 'loaded': True, 'loadedTime': 2643.7999999523163, 'positionName': 'RIGHT', 'positionCoords': [416, 120], 'bid': 6.3500000000000005}]",101926.89999997616,1669831278601,luckycharms,cocktailshrimp,7.4,6.3500000000000005,-1.0499999999999998,cocktailshrimp,800.2999999523163,801,801.1999999284744,True,i,103241.59999990463,1314.6999999284744,1669831279916,1315,HRV,HRV_0113,2022-11-30 18:05:31
50,"[{'imgObject': {}, 'id': 'cherry tomato', 'src': '/static/foodstim60/cherry tomato.jpg', 'key': 'u', 'origWidth': 410, 'origHeight': 410, 'width': 360, 'height': 360, 'widthPercent': 0.45, 'rescaleHeight': False, 'trialN': 50, 'loaded': True, 'loadedTime': 2645.6999999284744, 'positionName': 'LEFT', 'positionCoords': [24, 120], 'bid': 0.1}, {'imgObject': {}, 'id': 'sweetpotato', 'src': '/static/foodstim60/sweetpotato.jpg', 'key': 'i', 'origWidth': 410, 'origHeight': 410, 'width': 360, 'height': 360, 'widthPercent': 0.45, 'rescaleHeight': False, 'trialN': 50, 'loaded': True, 'loadedTime': 2564.7999999523163, 'positionName': 'RIGHT', 'positionCoords': [416, 120], 'bid': 0.2}]",103242.19999992847,1669831279916,cherry tomato,sweetpotato,0.1,0.2,0.1,sweetpotato,1740.5,1740,1741.5,True,i,105497.39999997616,2255.2000000476837,1669831282170,2254,HRV,HRV_0113,2022-11-30 18:05:31
51,"[{'imgObject': {}, 'id': 'cantaloupe', 'src': '/static/foodstim60/cantaloupe.jpg', 'key': 'u', 'origWidth': 409, 'origHeight': 409, 'width': 360, 'height': 360, 'widthPercent': 0.45, 'rescaleHeight': False, 'trialN': 51, 'loaded': True, 'loadedTime': 2528.0999999046326, 'positionName': 'LEFT', 'positionCoords': [24, 120], 'bid': 4.07}, {'imgObject': {}, 'id': 'fruitsalad', 'src': '/static/foodstim60/fruitsalad.jpg', 'key': 'i', 'origWidth': 410, 'origHeight': 410, 'width': 360, 'height': 360, 'widthPercent': 0.45, 'rescaleHeight': False, 'trialN': 51, 'loaded': True, 'loadedTime': 2482.5, 'positionName': 'RIGHT', 'positionCoords': [416, 120], 'bid': 4.97}]",105498.09999990463,1669831282170,cantaloupe,fruitsalad,4.07,4.97,0.8999999999999995,fruitsalad,994.8000000715256,996,995.5,True,i,107000.0,1501.9000000953674,1669831283672,1502,HRV,HRV_0113,2022-11-30 18:05:31
52,"[{'imgObject': {}, 'id': 'salmon', 'src': '/static/foodstim60/salmon.jpg', 'key': 'u', 'origWidth': 410, 'origHeight': 409, 'width': 360, 'height': 359.1219512195122, 'widthPercent': 0.45, 'rescaleHeight': False, 'trialN': 52, 'loaded': True, 'loadedTime': 2630.1999999284744, 'positionName': 'LEFT', 'positionCoords': [24, 120.5], 'bid': 0.07}, {'imgObject': {}, 'id': 'cherries', 'src': '/static/foodstim60/cherries.jpg', 'key': 'i', 'origWidth': 410, 'origHeight': 411, 'width': 360, 'height': 360.87804878048786, 'widthPercent': 0.45, 'rescaleHeight': False, 'trialN': 52, 'loaded': True, 'loadedTime': 2409.5, 'positionName': 'RIGHT', 'positionCoords': [416, 120], 'bid': 4.95}]",107000.79999995232,1669831283673,salmon,cherries,0.07,4.95,4.88,cherries,2169.7999999523163,2171,2170.7999999523163,True,i,109691.39999997616,2690.600000023842,1669831286364,2691,HRV,HRV_0113,2022-11-30 18:05:31
53,"[{'imgObject': {}, 'id': 'cherry tomato', 'src': '/static/foodstim60/cherry tomato.jpg', 'key': 'u', 'origWidth': 410, 'origHeight': 410, 'width': 360, 'height': 360, 'widthPercent': 0.45, 'rescaleHeight': False, 'trialN': 53, 'loaded': True, 'loadedTime': 2646.2999999523163, 'positionName': 'LEFT', 'positionCoords': [24, 120], 'bid': 0.1}, {'imgObject': {}, 'id': 'strawberries', 'src': '/static/foodstim60/strawberries.jpg', 'key': 'i', 'origWidth': 410, 'origHeight': 410, 'width': 360, 'height': 360, 'widthPercent': 0.45, 'rescaleHeight': False, 'trialN': 53, 'loaded': True, 'loadedTime': 2606.899999976158, 'positionName': 'RIGHT', 'positionCoords': [416, 120], 'bid': 4.97}]",109692.09999990463,1669831286364,cherry tomato,strawberries,0.1,4.97,4.87,strawberries,1135.5,1137,1136.3000000715256,True,i,111340.0,1647.9000000953674,1669831288012,1648,HRV,HRV_0113,2022-11-30 18:05:31
54,"[{'imgObject': {}, 'id': 'pear', 'src': '/static/foodstim60/pear.jpg', 'key': 'u', 'origWidth': 411, 'origHeight': 410, 'width': 360, 'height': 359.1240875912409, 'widthPercent': 0.45, 'rescaleHeight': False, 'trialN': 54, 'loaded': True, 'loadedTime': 2424.899999976158, 'positionName': 'LEFT', 'positionCoords': [24, 120.5], 'bid': 3.12}, {'imgObject': {}, 'id': 'shreddedwheatwithmilk', 'src': '/static/foodstim60/shreddedwheatwithmilk.jpg', 'key': 'i', 'origWidth': 410, 'origHeight': 410, 'width': 360, 'height': 360, 'widthPercent': 0.45, 'rescaleHeight': False, 'trialN': 54, 'loaded': True, 'loadedTime': 2462.5999999046326, 'positionName': 'RIGHT', 'positionCoords': [416, 120], 'bid': 2.85}]",111340.59999990463,1669831288013,pear,shreddedwheatwithmilk,3.12,2.85,-0.27,pear,1275,1276,1276.0,True,u,113125.09999990463,1784.5,1669831289797,1784,HRV,HRV_0113,2022-11-30 18:05:31
55,"[{'imgObject': {}, 'id': 'bagel plain', 'src': '/static/foodstim60/bagel plain.jpg', 'key': 'u', 'origWidth': 410, 'origHeight': 410, 'width': 360, 'height': 360, 'widthPercent': 0.45, 'rescaleHeight': False, 'trialN': 55, 'loaded': True, 'loadedTime': 2651.899999976158, 'positionName': 'LEFT', 'positionCoords': [24, 120], 'bid': 2.17}, {'imgObject': {}, 'id': 'roastedpotatoes', 'src': '/static/foodstim60/roastedpotatoes.jpg', 'key': 'i', 'origWidth': 409, 'origHeight': 410, 'width': 360, 'height': 360.88019559902204, 'widthPercent': 0.45, 'rescaleHeight': False, 'trialN': 55, 'loaded': True, 'loadedTime': 2495.899999976158, 'positionName': 'RIGHT', 'positionCoords': [416, 120], 'bid': 2.42}]",113125.69999992847,1669831289798,bagel plain,roastedpotatoes,2.17,2.42,0.25,roastedpotatoes,2318.7000000476837,2320,2319.7000000476837,True,i,115959.5,2833.8000000715256,1669831292632,2834,HRV,HRV_0113,2022-11-30 18:05:31
56,"[{'imgObject': {}, 'id': 'fried eggs', 'src': '/static/foodstim60/fried eggs.jpg', 'key': 'u', 'origWidth': 410, 'origHeight': 410, 'width': 360, 'height': 360, 'widthPercent': 0.45, 'rescaleHeight': False, 'trialN': 56, 'loaded': True, 'loadedTime': 2445, 'positionName': 'LEFT', 'positionCoords': [24, 120], 'bid': 3.47}, {'imgObject': {}, 'id': 'blackbeanswithrice', 'src': '/static/foodstim60/blackbeanswithrice.jpg', 'key': 'i', 'origWidth': 410, 'origHeight': 410, 'width': 360, 'height': 360, 'widthPercent': 0.45, 'rescaleHeight': False, 'trialN': 56, 'loaded': True, 'loadedTime': 2384.899999976158, 'positionName': 'RIGHT', 'positionCoords': [416, 120], 'bid': 0.17}]",115960.0,1669831292632,fried eggs,blackbeanswithrice,3.47,0.17,-3.3000000000000003,fried eggs,1054.5,1056,1055.3999999761581,True,u,117523.39999997616,1563.3999999761581,1669831294196,1564,HRV,HRV_0113,2022-11-30 18:05:31
57,"[{'imgObject': {}, 'id': 'orange slices', 'src': '/static/foodstim60/orange slices.jpg', 'key': 'u', 'origWidth': 409, 'origHeight': 410, 'width': 360, 'height': 360.88019559902204, 'widthPercent': 0.45, 'rescaleHeight': False, 'trialN': 57, 'loaded': True, 'loadedTime': 2445.1999999284744, 'positionName': 'LEFT', 'positionCoords': [24, 120], 'bid': 5}, {'imgObject': {}, 'id': 'Grapes', 'src': '/static/foodstim60/Grapes.jpg', 'key': 'i', 'origWidth': 411, 'origHeight': 411, 'width': 360, 'height': 360, 'widthPercent': 0.45, 'rescaleHeight': False, 'trialN': 57, 'loaded': True, 'loadedTime': 2652.899999976158, 'positionName': 'RIGHT', 'positionCoords': [416, 120], 'bid': 5.07}]",117523.69999992847,1669831294196,orange slices,Grapes,5.0,5.07,0.07000000000000028,Grapes,2417.100000023842,2418,2418.0,True,i,120456.29999995232,2932.600000023842,1669831297129,2933,HRV,HRV_0113,2022-11-30 18:05:31
58,"[{'imgObject': {}, 'id': 'rigatoni and sauce', 'src': '/static/foodstim60/rigatoni and sauce.jpg', 'key': 'u', 'origWidth': 410, 'origHeight': 411, 'width': 360, 'height': 360.87804878048786, 'widthPercent': 0.45, 'rescaleHeight': False, 'trialN': 58, 'loaded': True, 'loadedTime': 2653.2999999523163, 'positionName': 'LEFT', 'positionCoords': [24, 120], 'bid': 2.02}, {'imgObject': {}, 'id': 'pear', 'src': '/static/foodstim60/pear.jpg', 'key': 'i', 'origWidth': 411, 'origHeight': 410, 'width': 360, 'height': 359.1240875912409, 'widthPercent': 0.45, 'rescaleHeight': False, 'trialN': 58, 'loaded': True, 'loadedTime': 2424.0999999046326, 'positionName': 'RIGHT', 'positionCoords': [416, 120.5], 'bid': 3.12}]",120456.79999995232,1669831297129,rigatoni and sauce,pear,2.02,3.12,1.1,rigatoni and sauce,2689.899999976158,2691,2690.5,True,u,123657.29999995232,3200.5,1669831300329,3200,HRV,HRV_0113,2022-11-30 18:05:31
59,"[{'imgObject': {}, 'id': 'pear', 'src': '/static/foodstim60/pear.jpg', 'key': 'u', 'origWidth': 411, 'origHeight': 410, 'width': 360, 'height': 359.1240875912409, 'widthPercent': 0.45, 'rescaleHeight': False, 'trialN': 59, 'loaded': True, 'loadedTime': 2410.6999999284744, 'positionName': 'LEFT', 'positionCoords': [24, 120.5], 'bid': 3.12}, {'imgObject': {}, 'id': 'cherries', 'src': '/static/foodstim60/cherries.jpg', 'key': 'i', 'origWidth': 410, 'origHeight': 411, 'width': 360, 'height': 360.87804878048786, 'widthPercent': 0.45, 'rescaleHeight': False, 'trialN': 59, 'loaded': True, 'loadedTime': 2409.2999999523163, 'positionName': 'RIGHT', 'positionCoords': [416, 120], 'bid': 4.95}]",123657.69999992847,1669831300330,pear,cherries,3.12,4.95,1.83,cherries,1240.8999999761581,1242,1241.7000000476837,True,i,125421.19999992847,1763.5,1669831302093,1763,HRV,HRV_0113,2022-11-30 18:05:31
60,"[{'imgObject': {}, 'id': 'mac & cheese', 'src': '/static/foodstim60/mac & cheese.jpg', 'key': 'u', 'origWidth': 410, 'origHeight': 410, 'width': 360, 'height': 360, 'widthPercent': 0.45, 'rescaleHeight': False, 'trialN': 60, 'loaded': True, 'loadedTime': 2373.2999999523163, 'positionName': 'LEFT', 'positionCoords': [24, 120], 'bid': 0.1}, {'imgObject': {}, 'id': 'bagel and cc', 'src': '/static/foodstim60/bagel and cc.jpg', 'key': 'i', 'origWidth': 410, 'origHeight': 410, 'width': 360, 'height': 360, 'widthPercent': 0.45, 'rescaleHeight': False, 'trialN': 60, 'loaded': True, 'loadedTime': 2655.5, 'positionName': 'RIGHT', 'positionCoords': [416, 120], 'bid': 1.8}]",125421.69999992847,1669831302094,mac & cheese,bagel and cc,0.1,1.8,1.7,mac & cheese,3411.3000000715256,3412,3412.100000023842,True,u,129345.5,3923.8000000715256,1669831306018,3924,HRV,HRV_0113,2022-11-30 18:05:31
61,"[{'imgObject': {}, 'id': 'granola w milk', 'src': '/static/foodstim60/granola w milk.jpg', 'key': 'u', 'origWidth': 410, 'origHeight': 410, 'width': 360, 'height': 360, 'widthPercent': 0.45, 'rescaleHeight': False, 'trialN': 61, 'loaded': True, 'loadedTime': 2656.5999999046326, 'positionName': 'LEFT', 'positionCoords': [24, 120], 'bid': 4.97}, {'imgObject': {}, 'id': 'banana', 'src': '/static/foodstim60/banana.jpg', 'key': 'i', 'origWidth': 410, 'origHeight': 410, 'width': 360, 'height': 360, 'widthPercent': 0.45, 'rescaleHeight': False, 'trialN': 61, 'loaded': True, 'loadedTime': 2631.2999999523163, 'positionName': 'RIGHT', 'positionCoords': [416, 120], 'bid': 4.97}]",129346.19999992847,1669831306018,granola w milk,banana,4.97,4.97,0.0,granola w milk,1664.7000000476837,1666,1665.2000000476837,True,u,131521.69999992847,2175.5,1669831308194,2176,HRV,HRV_0113,2022-11-30 18:05:31
62,"[{'imgObject': {}, 'id': 'burger', 'src': '/static/foodstim60/burger.jpg', 'key': 'u', 'origWidth': 409, 'origHeight': 409, 'width': 360, 'height': 360, 'widthPercent': 0.45, 'rescaleHeight': False, 'trialN': 62, 'loaded': True, 'loadedTime': 2648, 'positionName': 'LEFT', 'positionCoords': [24, 120], 'bid': 8.57}, {'imgObject': {}, 'id': 'blueberries', 'src': '/static/foodstim60/blueberries.jpg', 'key': 'i', 'origWidth': 411, 'origHeight': 411, 'width': 360, 'height': 360, 'widthPercent': 0.45, 'rescaleHeight': False, 'trialN': 62, 'loaded': True, 'loadedTime': 2515.2999999523163, 'positionName': 'RIGHT', 'positionCoords': [416, 120], 'bid': 4.15}]",131522.29999995232,1669831308194,burger,blueberries,8.57,4.15,-4.42,burger,1068.2000000476837,1070,1069.2999999523163,True,u,133099.79999995232,1577.5,1669831309772,1578,HRV,HRV_0113,2022-11-30 18:05:31
63,"[{'imgObject': {}, 'id': 'kiwi', 'src': '/static/foodstim60/kiwi.jpg', 'key': 'u', 'origWidth': 410, 'origHeight': 410, 'width': 360, 'height': 360, 'widthPercent': 0.45, 'rescaleHeight': False, 'trialN': 63, 'loaded': True, 'loadedTime': 2624.7999999523163, 'positionName': 'LEFT', 'positionCoords': [24, 120], 'bid': 7.12}, {'imgObject': {}, 'id': 'turkey sandwich', 'src': '/static/foodstim60/turkey sandwich.jpg', 'key': 'i', 'origWidth': 409, 'origHeight': 409, 'width': 360, 'height': 360, 'widthPercent': 0.45, 'rescaleHeight': False, 'trialN': 63, 'loaded': True, 'loadedTime': 2531.5999999046326, 'positionName': 'RIGHT', 'positionCoords': [416, 120], 'bid': 7.85}]",133100.59999990463,1669831309773,kiwi,turkey sandwich,7.12,7.85,0.7299999999999995,turkey sandwich,836.4000000953674,837,837.3000000715256,True,i,134447.19999992847,1346.6000000238419,1669831311119,1346,HRV,HRV_0113,2022-11-30 18:05:31
64,"[{'imgObject': {}, 'id': 'strawberries', 'src': '/static/foodstim60/strawberries.jpg', 'key': 'u', 'origWidth': 410, 'origHeight': 410, 'width': 360, 'height': 360, 'widthPercent': 0.45, 'rescaleHeight': False, 'trialN': 64, 'loaded': True, 'loadedTime': 2607.399999976158, 'positionName': 'LEFT', 'positionCoords': [24, 120], 'bid': 4.97}, {'imgObject': {}, 'id': 'fried eggs', 'src': '/static/foodstim60/fried eggs.jpg', 'key': 'i', 'origWidth': 410, 'origHeight': 410, 'width': 360, 'height': 360, 'widthPercent': 0.45, 'rescaleHeight': False, 'trialN': 64, 'loaded': True, 'loadedTime': 2442.6999999284744, 'positionName': 'RIGHT', 'positionCoords': [416, 120], 'bid': 3.47}]",134447.79999995232,1669831311120,strawberries,fried eggs,4.97,3.47,-1.4999999999999996,fried eggs,862.1000000238419,862,862.3999999761581,True,i,135815.5,1367.7000000476837,1669831312488,1368,HRV,HRV_0113,2022-11-30 18:05:31
65,"[{'imgObject': {}, 'id': 'mashed potato', 'src': '/static/foodstim60/mashed potato.jpg', 'key': 'u', 'origWidth': 409, 'origHeight': 409, 'width': 360, 'height': 360, 'widthPercent': 0.45, 'rescaleHeight': False, 'trialN': 65, 'loaded': True, 'loadedTime': 2528.5999999046326, 'positionName': 'LEFT', 'positionCoords': [24, 120], 'bid': 7.52}, {'imgObject': {}, 'id': 'edamame', 'src': '/static/foodstim60/edamame.jpg', 'key': 'i', 'origWidth': 409, 'origHeight': 410, 'width': 360, 'height': 360.88019559902204, 'widthPercent': 0.45, 'rescaleHeight': False, 'trialN': 65, 'loaded': True, 'loadedTime': 2657.899999976158, 'positionName': 'RIGHT', 'positionCoords': [416, 120], 'bid': 6.4}]",135816.19999992847,1669831312488,mashed potato,edamame,7.52,6.4,-1.1199999999999992,mashed potato,1995.8999999761581,1997,1996.7000000476837,True,u,138319.59999990463,2503.399999976158,1669831314992,2504,HRV,HRV_0113,2022-11-30 18:05:31
66,"[{'imgObject': {}, 'id': 'edamame', 'src': '/static/foodstim60/edamame.jpg', 'key': 'u', 'origWidth': 409, 'origHeight': 410, 'width': 360, 'height': 360.88019559902204, 'widthPercent': 0.45, 'rescaleHeight': False, 'trialN': 66, 'loaded': True, 'loadedTime': 2657.899999976158, 'positionName': 'LEFT', 'positionCoords': [24, 120], 'bid': 6.4}, {'imgObject': {}, 'id': 'bagel and cc', 'src': '/static/foodstim60/bagel and cc.jpg', 'key': 'i', 'origWidth': 410, 'origHeight': 410, 'width': 360, 'height': 360, 'widthPercent': 0.45, 'rescaleHeight': False, 'trialN': 66, 'loaded': True, 'loadedTime': 2655.5, 'positionName': 'RIGHT', 'positionCoords': [416, 120], 'bid': 1.8}]",138320.19999992847,1669831314992,edamame,bagel and cc,6.4,1.8,-4.6000000000000005,edamame,2070.3000000715256,2072,2071.3000000715256,True,u,140897.19999992847,2577.0,1669831317569,2577,HRV,HRV_0113,2022-11-30 18:05:31
67,"[{'imgObject': {}, 'id': 'Tribe humus pita', 'src': '/static/foodstim60/Tribe humus pita.jpg', 'key': 'u', 'origWidth': 411, 'origHeight': 411, 'width': 360, 'height': 360, 'widthPercent': 0.45, 'rescaleHeight': False, 'trialN': 67, 'loaded': True, 'loadedTime': 2622.7999999523163, 'positionName': 'LEFT', 'positionCoords': [24, 120], 'bid': 5.12}, {'imgObject': {}, 'id': 'avocado', 'src': '/static/foodstim60/avocado.jpg', 'key': 'i', 'origWidth': 409, 'origHeight': 409, 'width': 360, 'height': 360, 'widthPercent': 0.45, 'rescaleHeight': False, 'trialN': 67, 'loaded': True, 'loadedTime': 2584.7999999523163, 'positionName': 'RIGHT', 'positionCoords': [416, 120], 'bid': 5.3500000000000005}]",140897.89999997616,1669831317570,Tribe humus pita,avocado,5.12,5.3500000000000005,0.23000000000000043,Tribe humus pita,1103.6000000238419,1105,1104.5,True,u,142511.09999990463,1613.1999999284744,1669831319183,1613,HRV,HRV_0113,2022-11-30 18:05:31
68,"[{'imgObject': {}, 'id': 'burrito', 'src': '/static/foodstim60/burrito.jpg', 'key': 'u', 'origWidth': 410, 'origHeight': 410, 'width': 360, 'height': 360, 'widthPercent': 0.45, 'rescaleHeight': False, 'trialN': 68, 'loaded': True, 'loadedTime': 2463.1999999284744, 'positionName': 'LEFT', 'positionCoords': [24, 120], 'bid': 5.6000000000000005}, {'imgObject': {}, 'id': 'yogurt no spoon', 'src': '/static/foodstim60/yogurt no spoon.jpg', 'key': 'i', 'origWidth': 411, 'origHeight': 410, 'width': 360, 'height': 359.1240875912409, 'widthPercent': 0.45, 'rescaleHeight': False, 'trialN': 68, 'loaded': True, 'loadedTime': 2658.7999999523163, 'positionName': 'RIGHT', 'positionCoords': [416, 120.5], 'bid': 5.5200000000000005}]",142511.69999992847,1669831319184,burrito,yogurt no spoon,5.6000000000000005,5.5200000000000005,-0.08000000000000007,yogurt no spoon,1360.8000000715256,1362,1361.6000000238419,True,i,144382.5,1870.8000000715256,1669831321055,1871,HRV,HRV_0113,2022-11-30 18:05:31
69,"[{'imgObject': {}, 'id': 'cherry tomato', 'src': '/static/foodstim60/cherry tomato.jpg', 'key': 'u', 'origWidth': 410, 'origHeight': 410, 'width': 360, 'height': 360, 'widthPercent': 0.45, 'rescaleHeight': False, 'trialN': 69, 'loaded': True, 'loadedTime': 2646.399999976158, 'positionName': 'LEFT', 'positionCoords': [24, 120], 'bid': 0.1}, {'imgObject': {}, 'id': 'ice cream sundae 002', 'src': '/static/foodstim60/ice cream sundae 002.jpg', 'key': 'i', 'origWidth': 409, 'origHeight': 409, 'width': 360, 'height': 360, 'widthPercent': 0.45, 'rescaleHeight': False, 'trialN': 69, 'loaded': True, 'loadedTime': 2609.1999999284744, 'positionName': 'RIGHT', 'positionCoords': [416, 120], 'bid': 0.12}]",144383.19999992847,1669831321055,cherry tomato,ice cream sundae 002,0.1,0.12,0.01999999999999999,ice cream sundae 002,2284.3000000715256,2286,2285.3000000715256,True,i,147178.59999990463,2795.399999976158,1669831323851,2796,HRV,HRV_0113,2022-11-30 18:05:31
70,"[{'imgObject': {}, 'id': 'lox', 'src': '/static/foodstim60/lox.jpg', 'key': 'u', 'origWidth': 410, 'origHeight': 411, 'width': 360, 'height': 360.87804878048786, 'widthPercent': 0.45, 'rescaleHeight': False, 'trialN': 70, 'loaded': True, 'loadedTime': 2660.2999999523163, 'positionName': 'LEFT', 'positionCoords': [24, 120], 'bid': 1.5}, {'imgObject': {}, 'id': 'blueberries', 'src': '/static/foodstim60/blueberries.jpg', 'key': 'i', 'origWidth': 411, 'origHeight': 411, 'width': 360, 'height': 360, 'widthPercent': 0.45, 'rescaleHeight': False, 'trialN': 70, 'loaded': True, 'loadedTime': 2514.0999999046326, 'positionName': 'RIGHT', 'positionCoords': [416, 120], 'bid': 4.15}]",147179.29999995232,1669831323852,lox,blueberries,1.5,4.15,2.6500000000000004,blueberries,1491.1000000238419,1492,1492.1000000238419,True,i,149177.79999995232,1998.5,1669831325850,1998,HRV,HRV_0113,2022-11-30 18:05:31
71,"[{'imgObject': {}, 'id': 'cheerios', 'src': '/static/foodstim60/cheerios.jpg', 'key': 'u', 'origWidth': 409, 'origHeight': 410, 'width': 360, 'height': 360.88019559902204, 'widthPercent': 0.45, 'rescaleHeight': False, 'trialN': 71, 'loaded': True, 'loadedTime': 2661.5999999046326, 'positionName': 'LEFT', 'positionCoords': [24, 120], 'bid': 3.42}, {'imgObject': {}, 'id': 'granola w milk', 'src': '/static/foodstim60/granola w milk.jpg', 'key': 'i', 'origWidth': 410, 'origHeight': 410, 'width': 360, 'height': 360, 'widthPercent': 0.45, 'rescaleHeight': False, 'trialN': 71, 'loaded': True, 'loadedTime': 2656.6999999284744, 'positionName': 'RIGHT', 'positionCoords': [416, 120], 'bid': 4.97}]",149178.29999995232,1669831325851,cheerios,granola w milk,3.42,4.97,1.5499999999999998,granola w milk,1397.3999999761581,1398,1398.2000000476837,True,i,151085.09999990463,1906.7999999523163,1669831327757,1906,HRV,HRV_0113,2022-11-30 18:05:31
72,"[{'imgObject': {}, 'id': 'salmon', 'src': '/static/foodstim60/salmon.jpg', 'key': 'u', 'origWidth': 410, 'origHeight': 409, 'width': 360, 'height': 359.1219512195122, 'widthPercent': 0.45, 'rescaleHeight': False, 'trialN': 72, 'loaded': True, 'loadedTime': 2630.2999999523163, 'positionName': 'LEFT', 'positionCoords': [24, 120.5], 'bid': 0.07}, {'imgObject': {}, 'id': 'corn cob', 'src': '/static/foodstim60/corn cob.jpg', 'key': 'i', 'origWidth': 411, 'origHeight': 411, 'width': 360, 'height': 360, 'widthPercent': 0.45, 'rescaleHeight': False, 'trialN': 72, 'loaded': True, 'loadedTime': 2552.5999999046326, 'positionName': 'RIGHT', 'positionCoords': [416, 120], 'bid': 0.25}]",151085.89999997616,1669831327758,salmon,corn cob,0.07,0.25,0.18,salmon,1786.6000000238419,1787,1787.3999999761581,True,u,153377.69999992847,2291.7999999523163,1669831330050,2292,HRV,HRV_0113,2022-11-30 18:05:31
73,"[{'imgObject': {}, 'id': 'veggieswithdip', 'src': '/static/foodstim60/veggieswithdip.jpg', 'key': 'u', 'origWidth': 409, 'origHeight': 409, 'width': 360, 'height': 360, 'widthPercent': 0.45, 'rescaleHeight': False, 'trialN': 73, 'loaded': True, 'loadedTime': 2425.1999999284744, 'positionName': 'LEFT', 'positionCoords': [24, 120], 'bid': 7.32}, {'imgObject': {}, 'id': 'kiwi', 'src': '/static/foodstim60/kiwi.jpg', 'key': 'i', 'origWidth': 410, 'origHeight': 410, 'width': 360, 'height': 360, 'widthPercent': 0.45, 'rescaleHeight': False, 'trialN': 73, 'loaded': True, 'loadedTime': 2624.5999999046326, 'positionName': 'RIGHT', 'positionCoords': [416, 120], 'bid': 7.12}]",153378.5,1669831330051,veggieswithdip,kiwi,7.32,7.12,-0.20000000000000018,veggieswithdip,915.7999999523163,916,916.5,True,u,154805.79999995232,1427.2999999523163,1669831331478,1427,HRV,HRV_0113,2022-11-30 18:05:31
74,"[{'imgObject': {}, 'id': 'luckycharms', 'src': '/static/foodstim60/luckycharms.jpg', 'key': 'u', 'origWidth': 410, 'origHeight': 409, 'width': 360, 'height': 359.1219512195122, 'widthPercent': 0.45, 'rescaleHeight': False, 'trialN': 74, 'loaded': True, 'loadedTime': 2587.2999999523163, 'positionName': 'LEFT', 'positionCoords': [24, 120.5], 'bid': 7.4}, {'imgObject': {}, 'id': 'Grapes', 'src': '/static/foodstim60/Grapes.jpg', 'key': 'i', 'origWidth': 411, 'origHeight': 411, 'width': 360, 'height': 360, 'widthPercent': 0.45, 'rescaleHeight': False, 'trialN': 74, 'loaded': True, 'loadedTime': 2653.2999999523163, 'positionName': 'RIGHT', 'positionCoords': [416, 120], 'bid': 5.07}]",154806.39999997616,1669831331479,luckycharms,Grapes,7.4,5.07,-2.33,Grapes,1455.3999999761581,1456,1456.2999999523163,True,i,156766.59999990463,1960.1999999284744,1669831333439,1960,HRV,HRV_0113,2022-11-30 18:05:31
75,"[{'imgObject': {}, 'id': 'ice cream sundae 002', 'src': '/static/foodstim60/ice cream sundae 002.jpg', 'key': 'u', 'origWidth': 409, 'origHeight': 409, 'width': 360, 'height': 360, 'widthPercent': 0.45, 'rescaleHeight': False, 'trialN': 75, 'loaded': True, 'loadedTime': 2609.0999999046326, 'positionName': 'LEFT', 'positionCoords': [24, 120], 'bid': 0.12}, {'imgObject': {}, 'id': 'pear', 'src': '/static/foodstim60/pear.jpg', 'key': 'i', 'origWidth': 411, 'origHeight': 410, 'width': 360, 'height': 359.1240875912409, 'widthPercent': 0.45, 'rescaleHeight': False, 'trialN': 75, 'loaded': True, 'loadedTime': 2409.7999999523163, 'positionName': 'RIGHT', 'positionCoords': [416, 120.5], 'bid': 3.12}]",156767.0,1669831333439,ice cream sundae 002,pear,0.12,3.12,3.0,pear,2928.1999999284744,2929,2929.0999999046326,True,i,160207.19999992847,3440.1999999284744,1669831336879,3440,HRV,HRV_0113,2022-11-30 18:05:31
76,"[{'imgObject': {}, 'id': 'raisin bran w milk', 'src': '/static/foodstim60/raisin bran w milk.jpg', 'key': 'u', 'origWidth': 411, 'origHeight': 411, 'width': 360, 'height': 360, 'widthPercent': 0.45, 'rescaleHeight': False, 'trialN': 76, 'loaded': True, 'loadedTime': 2586.899999976158, 'positionName': 'LEFT', 'positionCoords': [24, 120], 'bid': 6.94}, {'imgObject': {}, 'id': 'kiwi', 'src': '/static/foodstim60/kiwi.jpg', 'key': 'i', 'origWidth': 410, 'origHeight': 410, 'width': 360, 'height': 360, 'widthPercent': 0.45, 'rescaleHeight': False, 'trialN': 76, 'loaded': True, 'loadedTime': 2623.1999999284744, 'positionName': 'RIGHT', 'positionCoords': [416, 120], 'bid': 7.12}]",160207.79999995232,1669831336880,raisin bran w milk,kiwi,6.94,7.12,0.17999999999999972,raisin bran w milk,1124.7999999523163,1126,1126.0,True,u,161839.69999992847,1631.8999999761581,1669831338512,1632,HRV,HRV_0113,2022-11-30 18:05:31
77,"[{'imgObject': {}, 'id': 'turkeysandwich', 'src': '/static/foodstim60/turkeysandwich.jpg', 'key': 'u', 'origWidth': 409, 'origHeight': 409, 'width': 360, 'height': 360, 'widthPercent': 0.45, 'rescaleHeight': False, 'trialN': 77, 'loaded': True, 'loadedTime': 2605.2999999523163, 'positionName': 'LEFT', 'positionCoords': [24, 120], 'bid': 8.65}, {'imgObject': {}, 'id': 'steak', 'src': '/static/foodstim60/steak.jpg', 'key': 'i', 'origWidth': 410, 'origHeight': 410, 'width': 360, 'height': 360, 'widthPercent': 0.45, 'rescaleHeight': False, 'trialN': 77, 'loaded': True, 'loadedTime': 2627, 'positionName': 'RIGHT', 'positionCoords': [416, 120], 'bid': 9.95}]",161840.39999997616,1669831338513,turkeysandwich,steak,8.65,9.95,1.299999999999999,steak,1067.1999999284744,1068,1068.1000000238419,True,i,163422.5,1582.1000000238419,1669831340095,1582,HRV,HRV_0113,2022-11-30 18:05:31
78,"[{'imgObject': {}, 'id': 'chickenfingers', 'src': '/static/foodstim60/chickenfingers.jpg', 'key': 'u', 'origWidth': 410, 'origHeight': 410, 'width': 360, 'height': 360, 'widthPercent': 0.45, 'rescaleHeight': False, 'trialN': 78, 'loaded': True, 'loadedTime': 2428.899999976158, 'positionName': 'LEFT', 'positionCoords': [24, 120], 'bid': 7.640000000000001}, {'imgObject': {}, 'id': 'turkey sandwich', 'src': '/static/foodstim60/turkey sandwich.jpg', 'key': 'i', 'origWidth': 409, 'origHeight': 409, 'width': 360, 'height': 360, 'widthPercent': 0.45, 'rescaleHeight': False, 'trialN': 78, 'loaded': True, 'loadedTime': 2531.7999999523163, 'positionName': 'RIGHT', 'positionCoords': [416, 120], 'bid': 7.85}]",163423.19999992847,1669831340095,chickenfingers,turkey sandwich,7.640000000000001,7.85,0.20999999999999908,turkey sandwich,746.3999999761581,748,747.3999999761581,True,i,164684.69999992847,1261.5,1669831341357,1262,HRV,HRV_0113,2022-11-30 18:05:31
79,"[{'imgObject': {}, 'id': 'turkeysandwich', 'src': '/static/foodstim60/turkeysandwich.jpg', 'key': 'u', 'origWidth': 409, 'origHeight': 409, 'width': 360, 'height': 360, 'widthPercent': 0.45, 'rescaleHeight': False, 'trialN': 79, 'loaded': True, 'loadedTime': 2605, 'positionName': 'LEFT', 'positionCoords': [24, 120], 'bid': 8.65}, {'imgObject': {}, 'id': 'edamame', 'src': '/static/foodstim60/edamame.jpg', 'key': 'i', 'origWidth': 409, 'origHeight': 410, 'width': 360, 'height': 360.88019559902204, 'widthPercent': 0.45, 'rescaleHeight': False, 'trialN': 79, 'loaded': True, 'loadedTime': 2657.6999999284744, 'positionName': 'RIGHT', 'positionCoords': [416, 120], 'bid': 6.4}]",164685.39999997616,1669831341358,turkeysandwich,edamame,8.65,6.4,-2.25,turkeysandwich,876.8999999761581,879,877.7999999523163,True,u,166071.29999995232,1385.8999999761581,1669831342745,1387,HRV,HRV_0113,2022-11-30 18:05:31
80,"[{'imgObject': {}, 'id': 'yogurt no spoon', 'src': '/static/foodstim60/yogurt no spoon.jpg', 'key': 'u', 'origWidth': 411, 'origHeight': 410, 'width': 360, 'height': 359.1240875912409, 'widthPercent': 0.45, 'rescaleHeight': False, 'trialN': 80, 'loaded': True, 'loadedTime': 2658.6999999284744, 'positionName': 'LEFT', 'positionCoords': [24, 120.5], 'bid': 5.5200000000000005}, {'imgObject': {}, 'id': 'sweetpotato', 'src': '/static/foodstim60/sweetpotato.jpg', 'key': 'i', 'origWidth': 410, 'origHeight': 410, 'width': 360, 'height': 360, 'widthPercent': 0.45, 'rescaleHeight': False, 'trialN': 80, 'loaded': True, 'loadedTime': 2566, 'positionName': 'RIGHT', 'positionCoords': [416, 120], 'bid': 0.2}]",166071.89999997616,1669831342746,yogurt no spoon,sweetpotato,5.5200000000000005,0.2,-5.32,yogurt no spoon,1159.3999999761581,1160,1160.2999999523163,True,u,167738.19999992847,1666.2999999523163,1669831344412,1666,HRV,HRV_0113,2022-11-30 18:05:31
81,"[{'imgObject': {}, 'id': 'mango', 'src': '/static/foodstim60/mango.jpg', 'key': 'u', 'origWidth': 411, 'origHeight': 411, 'width': 360, 'height': 360, 'widthPercent': 0.45, 'rescaleHeight': False, 'trialN': 81, 'loaded': True, 'loadedTime': 2583, 'positionName': 'LEFT', 'positionCoords': [24, 120], 'bid': 6.92}, {'imgObject': {}, 'id': 'burger', 'src': '/static/foodstim60/burger.jpg', 'key': 'i', 'origWidth': 409, 'origHeight': 409, 'width': 360, 'height': 360, 'widthPercent': 0.45, 'rescaleHeight': False, 'trialN': 81, 'loaded': True, 'loadedTime': 2649.5, 'positionName': 'RIGHT', 'positionCoords': [416, 120], 'bid': 8.57}]",167739.29999995232,1669831344413,mango,burger,6.92,8.57,1.6500000000000004,burger,818.3999999761581,819,819.2999999523163,True,i,169070.69999992847,1331.3999999761581,1669831345744,1331,HRV,HRV_0113,2022-11-30 18:05:31
82,"[{'imgObject': {}, 'id': 'raspberries', 'src': '/static/foodstim60/raspberries.jpg', 'key': 'u', 'origWidth': 411, 'origHeight': 411, 'width': 360, 'height': 360, 'widthPercent': 0.45, 'rescaleHeight': False, 'trialN': 82, 'loaded': True, 'loadedTime': 2550.2999999523163, 'positionName': 'LEFT', 'positionCoords': [24, 120], 'bid': 4.72}, {'imgObject': {}, 'id': 'hashbrowns', 'src': '/static/foodstim60/hashbrowns.jpg', 'key': 'i', 'origWidth': 411, 'origHeight': 410, 'width': 360, 'height': 359.1240875912409, 'widthPercent': 0.45, 'rescaleHeight': False, 'trialN': 82, 'loaded': True, 'loadedTime': 2407, 'positionName': 'RIGHT', 'positionCoords': [416, 120.5], 'bid': 4.89}]",169071.29999995232,1669831345745,raspberries,hashbrowns,4.72,4.89,0.16999999999999993,hashbrowns,1303.7999999523163,1305,1304.7000000476837,True,i,170886.59999990463,1815.2999999523163,1669831347560,1815,HRV,HRV_0113,2022-11-30 18:05:31
83,"[{'imgObject': {}, 'id': 'tacos', 'src': '/static/foodstim60/tacos.jpg', 'key': 'u', 'origWidth': 411, 'origHeight': 411, 'width': 360, 'height': 360, 'widthPercent': 0.45, 'rescaleHeight': False, 'trialN': 83, 'loaded': True, 'loadedTime': 2569.1999999284744, 'positionName': 'LEFT', 'positionCoords': [24, 120], 'bid': 6.8}, {'imgObject': {}, 'id': 'grilled chicken strips', 'src': '/static/foodstim60/grilled chicken strips.jpg', 'key': 'i', 'origWidth': 410, 'origHeight': 411, 'width': 360, 'height': 360.87804878048786, 'widthPercent': 0.45, 'rescaleHeight': False, 'trialN': 83, 'loaded': True, 'loadedTime': 2603.2999999523163, 'positionName': 'RIGHT', 'positionCoords': [416, 120], 'bid': 6.5}]",170887.29999995232,1669831347561,tacos,grilled chicken strips,6.8,6.5,-0.2999999999999998,tacos,1165.2999999523163,1166,1166.2999999523163,True,u,172564.69999992847,1677.3999999761581,1669831349238,1677,HRV,HRV_0113,2022-11-30 18:05:31
84,"[{'imgObject': {}, 'id': 'mashed potato', 'src': '/static/foodstim60/mashed potato.jpg', 'key': 'u', 'origWidth': 409, 'origHeight': 409, 'width': 360, 'height': 360, 'widthPercent': 0.45, 'rescaleHeight': False, 'trialN': 84, 'loaded': True, 'loadedTime': 2529.6999999284744, 'positionName': 'LEFT', 'positionCoords': [24, 120], 'bid': 7.52}, {'imgObject': {}, 'id': 'luckycharms', 'src': '/static/foodstim60/luckycharms.jpg', 'key': 'i', 'origWidth': 410, 'origHeight': 409, 'width': 360, 'height': 359.1219512195122, 'widthPercent': 0.45, 'rescaleHeight': False, 'trialN': 84, 'loaded': True, 'loadedTime': 2589.1999999284744, 'positionName': 'RIGHT', 'positionCoords': [416, 120.5], 'bid': 7.4}]",172565.29999995232,1669831349239,mashed potato,luckycharms,7.52,7.4,-0.11999999999999922,mashed potato,1271.7999999523163,1273,1272.6000000238419,True,u,174345.59999990463,1780.2999999523163,1669831351019,1780,HRV,HRV_0113,2022-11-30 18:05:31
85,"[{'imgObject': {}, 'id': 'tacos', 'src': '/static/foodstim60/tacos.jpg', 'key': 'u', 'origWidth': 411, 'origHeight': 411, 'width': 360, 'height': 360, 'widthPercent': 0.45, 'rescaleHeight': False, 'trialN': 85, 'loaded': True, 'loadedTime': 2569.5999999046326, 'positionName': 'LEFT', 'positionCoords': [24, 120], 'bid': 6.8}, {'imgObject': {}, 'id': 'yogurt no spoon', 'src': '/static/foodstim60/yogurt no spoon.jpg', 'key': 'i', 'origWidth': 411, 'origHeight': 410, 'width': 360, 'height': 359.1240875912409, 'widthPercent': 0.45, 'rescaleHeight': False, 'trialN': 85, 'loaded': True, 'loadedTime': 2658.899999976158, 'positionName': 'RIGHT', 'positionCoords': [416, 120.5], 'bid': 5.5200000000000005}]",174346.09999990463,1669831351020,tacos,yogurt no spoon,6.8,5.5200000000000005,-1.2799999999999994,tacos,2073.8000000715256,2074,2074.5,True,u,176936.89999997616,2590.8000000715256,1669831353611,2591,HRV,HRV_0113,2022-11-30 18:05:31
86,"[{'imgObject': {}, 'id': 'raisin bran w milk', 'src': '/static/foodstim60/raisin bran w milk.jpg', 'key': 'u', 'origWidth': 411, 'origHeight': 411, 'width': 360, 'height': 360, 'widthPercent': 0.45, 'rescaleHeight': False, 'trialN': 86, 'loaded': True, 'loadedTime': 2587.1999999284744, 'positionName': 'LEFT', 'positionCoords': [24, 120], 'bid': 6.94}, {'imgObject': {}, 'id': 'chicken nuggets2', 'src': '/static/foodstim60/chicken nuggets2.jpg', 'key': 'i', 'origWidth': 410, 'origHeight': 409, 'width': 360, 'height': 359.1219512195122, 'widthPercent': 0.45, 'rescaleHeight': False, 'trialN': 86, 'loaded': True, 'loadedTime': 2535.1999999284744, 'positionName': 'RIGHT', 'positionCoords': [416, 120.5], 'bid': 7.12}]",176937.5,1669831353611,raisin bran w milk,chicken nuggets2,6.94,7.12,0.17999999999999972,chicken nuggets2,1258.7999999523163,1260,1259.7999999523163,True,i,178702.79999995232,1765.2999999523163,1669831355377,1766,HRV,HRV_0113,2022-11-30 18:05:31
87,"[{'imgObject': {}, 'id': 'Grapes', 'src': '/static/foodstim60/Grapes.jpg', 'key': 'u', 'origWidth': 411, 'origHeight': 411, 'width': 360, 'height': 360, 'widthPercent': 0.45, 'rescaleHeight': False, 'trialN': 87, 'loaded': True, 'loadedTime': 2653.0999999046326, 'positionName': 'LEFT', 'positionCoords': [24, 120], 'bid': 5.07}, {'imgObject': {}, 'id': 'rigatoni', 'src': '/static/foodstim60/rigatoni.jpg', 'key': 'i', 'origWidth': 411, 'origHeight': 411, 'width': 360, 'height': 360, 'widthPercent': 0.45, 'rescaleHeight': False, 'trialN': 87, 'loaded': True, 'loadedTime': 2513.899999976158, 'positionName': 'RIGHT', 'positionCoords': [416, 120], 'bid': 0.15}]",178703.5,1669831355377,Grapes,rigatoni,5.07,0.15,-4.92,Grapes,1056.5999999046326,1058,1057.7999999523163,True,u,180266.79999995232,1563.2999999523163,1669831356941,1564,HRV,HRV_0113,2022-11-30 18:05:31
88,"[{'imgObject': {}, 'id': 'rigatoni and sauce', 'src': '/static/foodstim60/rigatoni and sauce.jpg', 'key': 'u', 'origWidth': 410, 'origHeight': 411, 'width': 360, 'height': 360.87804878048786, 'widthPercent': 0.45, 'rescaleHeight': False, 'trialN': 88, 'loaded': True, 'loadedTime': 2654.1999999284744, 'positionName': 'LEFT', 'positionCoords': [24, 120], 'bid': 2.02}, {'imgObject': {}, 'id': 'bagel and cc', 'src': '/static/foodstim60/bagel and cc.jpg', 'key': 'i', 'origWidth': 410, 'origHeight': 410, 'width': 360, 'height': 360, 'widthPercent': 0.45, 'rescaleHeight': False, 'trialN': 88, 'loaded': True, 'loadedTime': 2655.6999999284744, 'positionName': 'RIGHT', 'positionCoords': [416, 120], 'bid': 1.8}]",180267.39999997616,1669831356941,rigatoni and sauce,bagel and cc,2.02,1.8,-0.21999999999999997,rigatoni and sauce,983.6999999284744,985,984.6999999284744,True,u,181766.29999995232,1498.8999999761581,1669831358440,1499,HRV,HRV_0113,2022-11-30 18:05:31
89,"[{'imgObject': {}, 'id': 'cherry tomato', 'src': '/static/foodstim60/cherry tomato.jpg', 'key': 'u', 'origWidth': 410, 'origHeight': 410, 'width': 360, 'height': 360, 'widthPercent': 0.45, 'rescaleHeight': False, 'trialN': 89, 'loaded': True, 'loadedTime': 2644.6999999284744, 'positionName': 'LEFT', 'positionCoords': [24, 120], 'bid': 0.1}, {'imgObject': {}, 'id': 'baked potato', 'src': '/static/foodstim60/baked potato.jpg', 'key': 'i', 'origWidth': 409, 'origHeight': 410, 'width': 360, 'height': 360.88019559902204, 'widthPercent': 0.45, 'rescaleHeight': False, 'trialN': 89, 'loaded': True, 'loadedTime': 2461.5999999046326, 'positionName': 'RIGHT', 'positionCoords': [416, 120], 'bid': 1.95}]",181767.0,1669831358441,cherry tomato,baked potato,0.1,1.95,1.8499999999999999,baked potato,975.3999999761581,976,976.0,True,i,183261.19999992847,1494.1999999284744,1669831359935,1494,HRV,HRV_0113,2022-11-30 18:05:31
90,"[{'imgObject': {}, 'id': 'bagel plain', 'src': '/static/foodstim60/bagel plain.jpg', 'key': 'u', 'origWidth': 410, 'origHeight': 410, 'width': 360, 'height': 360, 'widthPercent': 0.45, 'rescaleHeight': False, 'trialN': 90, 'loaded': True, 'loadedTime': 2652, 'positionName': 'LEFT', 'positionCoords': [24, 120], 'bid': 2.17}, {'imgObject': {}, 'id': 'ice cream sundae 002', 'src': '/static/foodstim60/ice cream sundae 002.jpg', 'key': 'i', 'origWidth': 409, 'origHeight': 409, 'width': 360, 'height': 360, 'widthPercent': 0.45, 'rescaleHeight': False, 'trialN': 90, 'loaded': True, 'loadedTime': 2608.7999999523163, 'positionName': 'RIGHT', 'positionCoords': [416, 120], 'bid': 0.12}]",186882.69999992847,1669831363557,bagel plain,ice cream sundae 002,2.17,0.12,-2.05,bagel plain,1627.6000000238419,1628,1628.8000000715256,True,u,189019.79999995232,2137.100000023842,1669831365694,2137,HRV,HRV_0113,2022-11-30 18:05:31
91,"[{'imgObject': {}, 'id': 'sweetpotato', 'src': '/static/foodstim60/sweetpotato.jpg', 'key': 'u', 'origWidth': 410, 'origHeight': 410, 'width': 360, 'height': 360, 'widthPercent': 0.45, 'rescaleHeight': False, 'trialN': 91, 'loaded': True, 'loadedTime': 2566.0999999046326, 'positionName': 'LEFT', 'positionCoords': [24, 120], 'bid': 0.2}, {'imgObject': {}, 'id': 'popsicles', 'src': '/static/foodstim60/popsicles.jpg', 'key': 'i', 'origWidth': 410, 'origHeight': 410, 'width': 360, 'height': 360, 'widthPercent': 0.45, 'rescaleHeight': False, 'trialN': 91, 'loaded': True, 'loadedTime': 2688.7999999523163, 'positionName': 'RIGHT', 'positionCoords': [416, 120], 'bid': 0.15}]",189020.59999990463,1669831365694,sweetpotato,popsicles,0.2,0.15,-0.05000000000000002,sweetpotato,1365.4000000953674,1367,1366.4000000953674,True,u,190897.79999995232,1877.2000000476837,1669831367572,1878,HRV,HRV_0113,2022-11-30 18:05:31
92,"[{'imgObject': {}, 'id': 'turkeysandwich', 'src': '/static/foodstim60/turkeysandwich.jpg', 'key': 'u', 'origWidth': 409, 'origHeight': 409, 'width': 360, 'height': 360, 'widthPercent': 0.45, 'rescaleHeight': False, 'trialN': 92, 'loaded': True, 'loadedTime': 2603.399999976158, 'positionName': 'LEFT', 'positionCoords': [24, 120], 'bid': 8.65}, {'imgObject': {}, 'id': 'raisin bran w milk', 'src': '/static/foodstim60/raisin bran w milk.jpg', 'key': 'i', 'origWidth': 411, 'origHeight': 411, 'width': 360, 'height': 360, 'widthPercent': 0.45, 'rescaleHeight': False, 'trialN': 92, 'loaded': True, 'loadedTime': 2587.0999999046326, 'positionName': 'RIGHT', 'positionCoords': [416, 120], 'bid': 6.94}]",190898.29999995232,1669831367572,turkeysandwich,raisin bran w milk,8.65,6.94,-1.71,turkeysandwich,1542.7000000476837,1544,1543.6000000238419,True,u,192945.79999995232,2047.5,1669831369620,2048,HRV,HRV_0113,2022-11-30 18:05:31
93,"[{'imgObject': {}, 'id': 'chickenfingers', 'src': '/static/foodstim60/chickenfingers.jpg', 'key': 'u', 'origWidth': 410, 'origHeight': 410, 'width': 360, 'height': 360, 'widthPercent': 0.45, 'rescaleHeight': False, 'trialN': 93, 'loaded': True, 'loadedTime': 2429.0999999046326, 'positionName': 'LEFT', 'positionCoords': [24, 120], 'bid': 7.640000000000001}, {'imgObject': {}, 'id': 'avocado', 'src': '/static/foodstim60/avocado.jpg', 'key': 'i', 'origWidth': 409, 'origHeight': 409, 'width': 360, 'height': 360, 'widthPercent': 0.45, 'rescaleHeight': False, 'trialN': 93, 'loaded': True, 'loadedTime': 2584, 'positionName': 'RIGHT', 'positionCoords': [416, 120], 'bid': 5.3500000000000005}]",192946.5,1669831369620,chickenfingers,avocado,7.640000000000001,5.3500000000000005,-2.29,chickenfingers,796.8999999761581,798,797.7999999523163,True,u,194246.29999995232,1299.7999999523163,1669831370920,1300,HRV,HRV_0113,2022-11-30 18:05:31
94,"[{'imgObject': {}, 'id': 'Tribe humus pita', 'src': '/static/foodstim60/Tribe humus pita.jpg', 'key': 'u', 'origWidth': 411, 'origHeight': 411, 'width': 360, 'height': 360, 'widthPercent': 0.45, 'rescaleHeight': False, 'trialN': 94, 'loaded': True, 'loadedTime': 2623, 'positionName': 'LEFT', 'positionCoords': [24, 120], 'bid': 5.12}, {'imgObject': {}, 'id': 'grilled chicken strips', 'src': '/static/foodstim60/grilled chicken strips.jpg', 'key': 'i', 'origWidth': 410, 'origHeight': 411, 'width': 360, 'height': 360.87804878048786, 'widthPercent': 0.45, 'rescaleHeight': False, 'trialN': 94, 'loaded': True, 'loadedTime': 2603, 'positionName': 'RIGHT', 'positionCoords': [416, 120], 'bid': 6.5}]",194246.89999997616,1669831370921,Tribe humus pita,grilled chicken strips,5.12,6.5,1.38,Tribe humus pita,1532.6999999284744,1533,1533.1999999284744,True,u,196296.19999992847,2049.2999999523163,1669831372970,2049,HRV,HRV_0113,2022-11-30 18:05:31
95,"[{'imgObject': {}, 'id': 'kiwi', 'src': '/static/foodstim60/kiwi.jpg', 'key': 'u', 'origWidth': 410, 'origHeight': 410, 'width': 360, 'height': 360, 'widthPercent': 0.45, 'rescaleHeight': False, 'trialN': 95, 'loaded': True, 'loadedTime': 2624.399999976158, 'positionName': 'LEFT', 'positionCoords': [24, 120], 'bid': 7.12}, {'imgObject': {}, 'id': 'steak', 'src': '/static/foodstim60/steak.jpg', 'key': 'i', 'origWidth': 410, 'origHeight': 410, 'width': 360, 'height': 360, 'widthPercent': 0.45, 'rescaleHeight': False, 'trialN': 95, 'loaded': True, 'loadedTime': 2628.5, 'positionName': 'RIGHT', 'positionCoords': [416, 120], 'bid': 9.95}]",196296.69999992847,1669831372970,kiwi,steak,7.12,9.95,2.829999999999999,steak,756.1000000238419,758,757.3000000715256,True,i,197565.19999992847,1268.5,1669831374239,1269,HRV,HRV_0113,2022-11-30 18:05:31
96,"[{'imgObject': {}, 'id': 'burrito', 'src': '/static/foodstim60/burrito.jpg', 'key': 'u', 'origWidth': 410, 'origHeight': 410, 'width': 360, 'height': 360, 'widthPercent': 0.45, 'rescaleHeight': False, 'trialN': 96, 'loaded': True, 'loadedTime': 2464.399999976158, 'positionName': 'LEFT', 'positionCoords': [24, 120], 'bid': 5.6000000000000005}, {'imgObject': {}, 'id': 'edamame', 'src': '/static/foodstim60/edamame.jpg', 'key': 'i', 'origWidth': 409, 'origHeight': 410, 'width': 360, 'height': 360.88019559902204, 'widthPercent': 0.45, 'rescaleHeight': False, 'trialN': 96, 'loaded': True, 'loadedTime': 2657.7999999523163, 'positionName': 'RIGHT', 'positionCoords': [416, 120], 'bid': 6.4}]",197565.89999997616,1669831374240,burrito,edamame,5.6000000000000005,6.4,0.7999999999999998,burrito,1865.7999999523163,1866,1866.6999999284744,True,u,199937.79999995232,2371.899999976158,1669831376612,2372,HRV,HRV_0113,2022-11-30 18:05:31
97,"[{'imgObject': {}, 'id': 'eggsalad', 'src': '/static/foodstim60/eggsalad.jpg', 'key': 'u', 'origWidth': 410, 'origHeight': 409, 'width': 360, 'height': 359.1219512195122, 'widthPercent': 0.45, 'rescaleHeight': False, 'trialN': 97, 'loaded': True, 'loadedTime': 2626.5999999046326, 'positionName': 'LEFT', 'positionCoords': [24, 120.5], 'bid': 2.29}, {'imgObject': {}, 'id': 'bagel plain', 'src': '/static/foodstim60/bagel plain.jpg', 'key': 'i', 'origWidth': 410, 'origHeight': 410, 'width': 360, 'height': 360, 'widthPercent': 0.45, 'rescaleHeight': False, 'trialN': 97, 'loaded': True, 'loadedTime': 2651.2999999523163, 'positionName': 'RIGHT', 'positionCoords': [416, 120], 'bid': 2.17}]",199938.39999997616,1669831376612,eggsalad,bagel plain,2.29,2.17,-0.1200000000000001,eggsalad,1281.2999999523163,1282,1282.1000000238419,True,u,201734.69999992847,1796.2999999523163,1669831378408,1796,HRV,HRV_0113,2022-11-30 18:05:31
98,"[{'imgObject': {}, 'id': 'burrito', 'src': '/static/foodstim60/burrito.jpg', 'key': 'u', 'origWidth': 410, 'origHeight': 410, 'width': 360, 'height': 360, 'widthPercent': 0.45, 'rescaleHeight': False, 'trialN': 98, 'loaded': True, 'loadedTime': 2464.6999999284744, 'positionName': 'LEFT', 'positionCoords': [24, 120], 'bid': 5.6000000000000005}, {'imgObject': {}, 'id': 'veggieswithdip', 'src': '/static/foodstim60/veggieswithdip.jpg', 'key': 'i', 'origWidth': 409, 'origHeight': 409, 'width': 360, 'height': 360, 'widthPercent': 0.45, 'rescaleHeight': False, 'trialN': 98, 'loaded': True, 'loadedTime': 2426.7999999523163, 'positionName': 'RIGHT', 'positionCoords': [416, 120], 'bid': 7.32}]",201735.19999992847,1669831378409,burrito,veggieswithdip,5.6000000000000005,7.32,1.7199999999999998,veggieswithdip,948.3999999761581,949,949.5,True,i,203190.69999992847,1455.5,1669831379864,1455,HRV,HRV_0113,2022-11-30 18:05:31
99,"[{'imgObject': {}, 'id': 'cheerios', 'src': '/static/foodstim60/cheerios.jpg', 'key': 'u', 'origWidth': 409, 'origHeight': 410, 'width': 360, 'height': 360.88019559902204, 'widthPercent': 0.45, 'rescaleHeight': False, 'trialN': 99, 'loaded': True, 'loadedTime': 2661.6999999284744, 'positionName': 'LEFT', 'positionCoords': [24, 120], 'bid': 3.42}, {'imgObject': {}, 'id': 'popsicles', 'src': '/static/foodstim60/popsicles.jpg', 'key': 'i', 'origWidth': 410, 'origHeight': 410, 'width': 360, 'height': 360, 'widthPercent': 0.45, 'rescaleHeight': False, 'trialN': 99, 'loaded': True, 'loadedTime': 2688.899999976158, 'positionName': 'RIGHT', 'positionCoords': [416, 120], 'bid': 0.15}]",203191.0,1669831379865,cheerios,popsicles,3.42,0.15,-3.27,cheerios,705.8999999761581,707,706.8999999761581,True,u,204399.29999995232,1208.2999999523163,1669831381073,1208,HRV,HRV_0113,2022-11-30 18:05:31
100,"[{'imgObject': {}, 'id': 'strawberries', 'src': '/static/foodstim60/strawberries.jpg', 'key': 'u', 'origWidth': 410, 'origHeight': 410, 'width': 360, 'height': 360, 'widthPercent': 0.45, 'rescaleHeight': False, 'trialN': 100, 'loaded': True, 'loadedTime': 2607.0999999046326, 'positionName': 'LEFT', 'positionCoords': [24, 120], 'bid': 4.97}, {'imgObject': {}, 'id': 'banana', 'src': '/static/foodstim60/banana.jpg', 'key': 'i', 'origWidth': 410, 'origHeight': 410, 'width': 360, 'height': 360, 'widthPercent': 0.45, 'rescaleHeight': False, 'trialN': 100, 'loaded': True, 'loadedTime': 2631.5999999046326, 'positionName': 'RIGHT', 'positionCoords': [416, 120], 'bid': 4.97}]",204399.89999997616,1669831381074,strawberries,banana,4.97,4.97,0.0,strawberries,1082.6000000238419,1083,1083.6000000238419,True,u,206001.19999992847,1601.2999999523163,1669831382675,1601,HRV,HRV_0113,2022-11-30 18:05:31
101,"[{'imgObject': {}, 'id': 'fried eggs', 'src': '/static/foodstim60/fried eggs.jpg', 'key': 'u', 'origWidth': 410, 'origHeight': 410, 'width': 360, 'height': 360, 'widthPercent': 0.45, 'rescaleHeight': False, 'trialN': 101, 'loaded': True, 'loadedTime': 2443.899999976158, 'positionName': 'LEFT', 'positionCoords': [24, 120], 'bid': 3.47}, {'imgObject': {}, 'id': 'hashbrowns', 'src': '/static/foodstim60/hashbrowns.jpg', 'key': 'i', 'origWidth': 411, 'origHeight': 410, 'width': 360, 'height': 359.1240875912409, 'widthPercent': 0.45, 'rescaleHeight': False, 'trialN': 101, 'loaded': True, 'loadedTime': 2407.7999999523163, 'positionName': 'RIGHT', 'positionCoords': [416, 120.5], 'bid': 4.89}]",206001.79999995232,1669831382676,fried eggs,hashbrowns,3.47,4.89,1.4199999999999995,hashbrowns,1917.2999999523163,1918,1918.2000000476837,True,i,208427.5,2425.7000000476837,1669831385101,2425,HRV,HRV_0113,2022-11-30 18:05:31
102,"[{'imgObject': {}, 'id': 'cheerios', 'src': '/static/foodstim60/cheerios.jpg', 'key': 'u', 'origWidth': 409, 'origHeight': 410, 'width': 360, 'height': 360.88019559902204, 'widthPercent': 0.45, 'rescaleHeight': False, 'trialN': 102, 'loaded': True, 'loadedTime': 2661.5999999046326, 'positionName': 'LEFT', 'positionCoords': [24, 120], 'bid': 3.42}, {'imgObject': {}, 'id': 'eggsalad', 'src': '/static/foodstim60/eggsalad.jpg', 'key': 'i', 'origWidth': 410, 'origHeight': 409, 'width': 360, 'height': 359.1219512195122, 'widthPercent': 0.45, 'rescaleHeight': False, 'trialN': 102, 'loaded': True, 'loadedTime': 2624.899999976158, 'positionName': 'RIGHT', 'positionCoords': [416, 120.5], 'bid': 2.29}]",208428.0,1669831385102,cheerios,eggsalad,3.42,2.29,-1.13,eggsalad,2826.5,2827,2827.1999999284744,True,i,211767.39999997616,3339.399999976158,1669831388441,3339,HRV,HRV_0113,2022-11-30 18:05:31
103,"[{'imgObject': {}, 'id': 'baked potato', 'src': '/static/foodstim60/baked potato.jpg', 'key': 'u', 'origWidth': 409, 'origHeight': 410, 'width': 360, 'height': 360.88019559902204, 'widthPercent': 0.45, 'rescaleHeight': False, 'trialN': 103, 'loaded': True, 'loadedTime': 2459.7999999523163, 'positionName': 'LEFT', 'positionCoords': [24, 120], 'bid': 1.95}, {'imgObject': {}, 'id': 'omelette', 'src': '/static/foodstim60/omelette.jpg', 'key': 'i', 'origWidth': 410, 'origHeight': 409, 'width': 360, 'height': 359.1219512195122, 'widthPercent': 0.45, 'rescaleHeight': False, 'trialN': 103, 'loaded': True, 'loadedTime': 2548.2999999523163, 'positionName': 'RIGHT', 'positionCoords': [416, 120.5], 'bid': 4.87}]",211768.0,1669831388442,baked potato,omelette,1.95,4.87,2.92,omelette,964.1999999284744,965,964.8999999761581,True,i,213239.5,1471.5,1669831389913,1471,HRV,HRV_0113,2022-11-30 18:05:31
104,"[{'imgObject': {}, 'id': 'grilled chicken strips', 'src': '/static/foodstim60/grilled chicken strips.jpg', 'key': 'u', 'origWidth': 410, 'origHeight': 411, 'width': 360, 'height': 360.87804878048786, 'widthPercent': 0.45, 'rescaleHeight': False, 'trialN': 104, 'loaded': True, 'loadedTime': 2602.7999999523163, 'positionName': 'LEFT', 'positionCoords': [24, 120], 'bid': 6.5}, {'imgObject': {}, 'id': 'baked potato', 'src': '/static/foodstim60/baked potato.jpg', 'key': 'i', 'origWidth': 409, 'origHeight': 410, 'width': 360, 'height': 360.88019559902204, 'widthPercent': 0.45, 'rescaleHeight': False, 'trialN': 104, 'loaded': True, 'loadedTime': 2448.5999999046326, 'positionName': 'RIGHT', 'positionCoords': [416, 120], 'bid': 1.95}]",213240.09999990463,1669831389914,grilled chicken strips,baked potato,6.5,1.95,-4.55,grilled chicken strips,1648.5,1649,1649.1000000238419,True,u,215399.5,2159.4000000953674,1669831392073,2159,HRV,HRV_0113,2022-11-30 18:05:31
105,"[{'imgObject': {}, 'id': 'popsicles', 'src': '/static/foodstim60/popsicles.jpg', 'key': 'u', 'origWidth': 410, 'origHeight': 410, 'width': 360, 'height': 360, 'widthPercent': 0.45, 'rescaleHeight': False, 'trialN': 105, 'loaded': True, 'loadedTime': 2687.7999999523163, 'positionName': 'LEFT', 'positionCoords': [24, 120], 'bid': 0.15}, {'imgObject': {}, 'id': 'roastedpotatoes', 'src': '/static/foodstim60/roastedpotatoes.jpg', 'key': 'i', 'origWidth': 409, 'origHeight': 410, 'width': 360, 'height': 360.88019559902204, 'widthPercent': 0.45, 'rescaleHeight': False, 'trialN': 105, 'loaded': True, 'loadedTime': 2497.7999999523163, 'positionName': 'RIGHT', 'positionCoords': [416, 120], 'bid': 2.42}]",215400.09999990463,1669831392074,popsicles,roastedpotatoes,0.15,2.42,2.27,roastedpotatoes,786.3000000715256,787,787.3000000715256,True,i,216706.29999995232,1306.2000000476837,1669831393380,1306,HRV,HRV_0113,2022-11-30 18:05:31
106,"[{'imgObject': {}, 'id': 'shreddedwheatwithmilk', 'src': '/static/foodstim60/shreddedwheatwithmilk.jpg', 'key': 'u', 'origWidth': 410, 'origHeight': 410, 'width': 360, 'height': 360, 'widthPercent': 0.45, 'rescaleHeight': False, 'trialN': 106, 'loaded': True, 'loadedTime': 2463, 'positionName': 'LEFT', 'positionCoords': [24, 120], 'bid': 2.85}, {'imgObject': {}, 'id': 'apple slices', 'src': '/static/foodstim60/apple slices.jpg', 'key': 'i', 'origWidth': 409, 'origHeight': 410, 'width': 360, 'height': 360.88019559902204, 'widthPercent': 0.45, 'rescaleHeight': False, 'trialN': 106, 'loaded': True, 'loadedTime': 2500.5999999046326, 'positionName': 'RIGHT', 'positionCoords': [416, 120], 'bid': 3.3200000000000003}]",216706.89999997616,1669831393381,shreddedwheatwithmilk,apple slices,2.85,3.3200000000000003,0.4700000000000002,apple slices,1570.8999999761581,1571,1571.6000000238419,True,i,218787.09999990463,2080.1999999284744,1669831395461,2080,HRV,HRV_0113,2022-11-30 18:05:31
107,"[{'imgObject': {}, 'id': 'bagel and cc', 'src': '/static/foodstim60/bagel and cc.jpg', 'key': 'u', 'origWidth': 410, 'origHeight': 410, 'width': 360, 'height': 360, 'widthPercent': 0.45, 'rescaleHeight': False, 'trialN': 107, 'loaded': True, 'loadedTime': 2655.2999999523163, 'positionName': 'LEFT', 'positionCoords': [24, 120], 'bid': 1.8}, {'imgObject': {}, 'id': 'froot loops w milk', 'src': '/static/foodstim60/froot loops w milk.jpg', 'key': 'i', 'origWidth': 410, 'origHeight': 410, 'width': 360, 'height': 360, 'widthPercent': 0.45, 'rescaleHeight': False, 'trialN': 107, 'loaded': True, 'loadedTime': 2610.399999976158, 'positionName': 'RIGHT', 'positionCoords': [416, 120], 'bid': 2.8000000000000003}]",218787.59999990463,1669831395461,bagel and cc,froot loops w milk,1.8,2.8000000000000003,1.0000000000000002,froot loops w milk,993.1000000238419,994,994.0,True,i,220287.09999990463,1499.5,1669831396961,1500,HRV,HRV_0113,2022-11-30 18:05:31
