trialN,stimuli,question,trialStartTime,trialStartTime_UNIX,stimulus1,rt,receivedResponse,rating,trialEndTime,trialDuration,stimulus1Loaded,exp,subjectId,date
0,"[{'imgObject': {}, 'id': 'luckycharms', 'src': '/static/foodstim60/luckycharms.jpg', 'key': 'NaN', 'origWidth': 410, 'origHeight': 409, 'width': 390.95354523227377, 'height': 390, 'widthPercent': 0.8, 'rescaleHeight': True, 'trialN': 0, 'loaded': True, 'loadedTime': 2476.899999976158, 'positionName': 'CENTER', 'positionCoords': [205, 105]}]",Rate how much you want to eat this food from 0 (least) to 10 (most).,5992.5,1669830864772,luckycharms,3863.399999976158,True,7.0200000000000005,9855.899999976158,3863.399999976158,True,HRV,HRV_0113,2022-11-30 17:56:51
1,"[{'imgObject': {}, 'id': 'Grapes', 'src': '/static/foodstim60/Grapes.jpg', 'key': 'NaN', 'origWidth': 411, 'origHeight': 411, 'width': 390, 'height': 390, 'widthPercent': 0.8, 'rescaleHeight': True, 'trialN': 1, 'loaded': True, 'loadedTime': 3132.899999976158, 'positionName': 'CENTER', 'positionCoords': [205, 105]}]",Rate how much you want to eat this food from 0 (least) to 10 (most).,9858.100000023842,1669830868638,Grapes,2333.899999976158,True,5.0200000000000005,12192.0,2333.899999976158,True,HRV,HRV_0113,2022-11-30 17:56:51
2,"[{'imgObject': {}, 'id': 'salmon', 'src': '/static/foodstim60/salmon.jpg', 'key': 'NaN', 'origWidth': 410, 'origHeight': 409, 'width': 390.95354523227377, 'height': 390, 'widthPercent': 0.8, 'rescaleHeight': True, 'trialN': 2, 'loaded': True, 'loadedTime': 4487.299999952316, 'positionName': 'CENTER', 'positionCoords': [205, 105]}]",Rate how much you want to eat this food from 0 (least) to 10 (most).,12194.100000023842,1669830870974,salmon,2507.7999999523163,True,1.0,14701.899999976158,2507.7999999523163,True,HRV,HRV_0113,2022-11-30 17:56:51
3,"[{'imgObject': {}, 'id': 'avocado', 'src': '/static/foodstim60/avocado.jpg', 'key': 'NaN', 'origWidth': 409, 'origHeight': 409, 'width': 390, 'height': 390, 'widthPercent': 0.8, 'rescaleHeight': True, 'trialN': 3, 'loaded': True, 'loadedTime': 2491.7999999523163, 'positionName': 'CENTER', 'positionCoords': [205, 105]}]",Rate how much you want to eat this food from 0 (least) to 10 (most).,14703.700000047684,1669830873484,avocado,3532.0999999046326,True,3.27,18235.799999952316,3532.0999999046326,True,HRV,HRV_0113,2022-11-30 17:56:51
4,"[{'imgObject': {}, 'id': 'mango', 'src': '/static/foodstim60/mango.jpg', 'key': 'NaN', 'origWidth': 411, 'origHeight': 411, 'width': 390, 'height': 390, 'widthPercent': 0.8, 'rescaleHeight': True, 'trialN': 4, 'loaded': True, 'loadedTime': 2972.2000000476837, 'positionName': 'CENTER', 'positionCoords': [205, 105]}]",Rate how much you want to eat this food from 0 (least) to 10 (most).,18237.700000047684,1669830877018,mango,2638.0999999046326,True,6.47,20875.799999952316,2638.0999999046326,True,HRV,HRV_0113,2022-11-30 17:56:51
5,"[{'imgObject': {}, 'id': 'pear', 'src': '/static/foodstim60/pear.jpg', 'key': 'NaN', 'origWidth': 411, 'origHeight': 410, 'width': 390.9512195121951, 'height': 390, 'widthPercent': 0.8, 'rescaleHeight': True, 'trialN': 5, 'loaded': True, 'loadedTime': 2589.899999976158, 'positionName': 'CENTER', 'positionCoords': [205, 105]}]",Rate how much you want to eat this food from 0 (least) to 10 (most).,20877.700000047684,1669830879658,pear,2203.7999999523163,True,3.0500000000000003,23081.5,2203.7999999523163,True,HRV,HRV_0113,2022-11-30 17:56:51
6,"[{'imgObject': {}, 'id': 'roastedpotatoes', 'src': '/static/foodstim60/roastedpotatoes.jpg', 'key': 'NaN', 'origWidth': 409, 'origHeight': 410, 'width': 389.04878048780483, 'height': 390, 'widthPercent': 0.8, 'rescaleHeight': True, 'trialN': 6, 'loaded': True, 'loadedTime': 2805.7000000476837, 'positionName': 'CENTER', 'positionCoords': [205.5, 105]}]",Rate how much you want to eat this food from 0 (least) to 10 (most).,23083.600000023842,1669830881864,roastedpotatoes,1742.1999999284744,True,2.77,24825.799999952316,1742.1999999284744,True,HRV,HRV_0113,2022-11-30 17:56:51
7,"[{'imgObject': {}, 'id': 'bagel and cc', 'src': '/static/foodstim60/bagel and cc.jpg', 'key': 'NaN', 'origWidth': 410, 'origHeight': 410, 'width': 390, 'height': 390, 'widthPercent': 0.8, 'rescaleHeight': True, 'trialN': 7, 'loaded': True, 'loadedTime': 2884.5, 'positionName': 'CENTER', 'positionCoords': [205, 105]}]",Rate how much you want to eat this food from 0 (least) to 10 (most).,24827.600000023842,1669830883607,bagel and cc,1606.1999999284744,True,1.17,26433.799999952316,1606.1999999284744,True,HRV,HRV_0113,2022-11-30 17:56:51
8,"[{'imgObject': {}, 'id': 'cantaloupe', 'src': '/static/foodstim60/cantaloupe.jpg', 'key': 'NaN', 'origWidth': 409, 'origHeight': 409, 'width': 390, 'height': 390, 'widthPercent': 0.8, 'rescaleHeight': True, 'trialN': 8, 'loaded': True, 'loadedTime': 2988.2000000476837, 'positionName': 'CENTER', 'positionCoords': [205, 105]}]",Rate how much you want to eat this food from 0 (least) to 10 (most).,26435.700000047684,1669830885216,cantaloupe,2524.0999999046326,True,3.4,28959.799999952316,2524.0999999046326,True,HRV,HRV_0113,2022-11-30 17:56:51
9,"[{'imgObject': {}, 'id': 'raisin bran w milk', 'src': '/static/foodstim60/raisin bran w milk.jpg', 'key': 'NaN', 'origWidth': 411, 'origHeight': 411, 'width': 390, 'height': 390, 'widthPercent': 0.8, 'rescaleHeight': True, 'trialN': 9, 'loaded': True, 'loadedTime': 2992.2999999523163, 'positionName': 'CENTER', 'positionCoords': [205, 105]}]",Rate how much you want to eat this food from 0 (least) to 10 (most).,28962.700000047684,1669830887743,raisin bran w milk,1653.1999999284744,True,6.5200000000000005,30615.899999976158,1653.1999999284744,True,HRV,HRV_0113,2022-11-30 17:56:51
10,"[{'imgObject': {}, 'id': 'strawberries', 'src': '/static/foodstim60/strawberries.jpg', 'key': 'NaN', 'origWidth': 410, 'origHeight': 410, 'width': 390, 'height': 390, 'widthPercent': 0.8, 'rescaleHeight': True, 'trialN': 10, 'loaded': True, 'loadedTime': 3096, 'positionName': 'CENTER', 'positionCoords': [205, 105]}]",Rate how much you want to eat this food from 0 (least) to 10 (most).,30617.899999976158,1669830889398,strawberries,2836.0,True,4.07,33453.89999997616,2836.0,True,HRV,HRV_0113,2022-11-30 17:56:51
11,"[{'imgObject': {}, 'id': 'lox', 'src': '/static/foodstim60/lox.jpg', 'key': 'NaN', 'origWidth': 410, 'origHeight': 411, 'width': 389.0510948905109, 'height': 390, 'widthPercent': 0.8, 'rescaleHeight': True, 'trialN': 11, 'loaded': True, 'loadedTime': 3419.5, 'positionName': 'CENTER', 'positionCoords': [205.5, 105]}]",Rate how much you want to eat this food from 0 (least) to 10 (most).,33456.200000047684,1669830892236,lox,3947.6999999284744,True,2.2,37403.89999997616,3947.6999999284744,True,HRV,HRV_0113,2022-11-30 17:56:51
12,"[{'imgObject': {}, 'id': 'sweetpotato', 'src': '/static/foodstim60/sweetpotato.jpg', 'key': 'NaN', 'origWidth': 410, 'origHeight': 410, 'width': 390, 'height': 390, 'widthPercent': 0.8, 'rescaleHeight': True, 'trialN': 12, 'loaded': True, 'loadedTime': 3124.7999999523163, 'positionName': 'CENTER', 'positionCoords': [205, 105]}]",Rate how much you want to eat this food from 0 (least) to 10 (most).,37406.10000002384,1669830896186,sweetpotato,3011.6999999284744,True,0.05,40417.799999952316,3011.6999999284744,True,HRV,HRV_0113,2022-11-30 17:56:51
13,"[{'imgObject': {}, 'id': 'mashed potato', 'src': '/static/foodstim60/mashed potato.jpg', 'key': 'NaN', 'origWidth': 409, 'origHeight': 409, 'width': 390, 'height': 390, 'widthPercent': 0.8, 'rescaleHeight': True, 'trialN': 13, 'loaded': True, 'loadedTime': 3205.7000000476837, 'positionName': 'CENTER', 'positionCoords': [205, 105]}]",Rate how much you want to eat this food from 0 (least) to 10 (most).,40420.0,1669830899200,mashed potato,2557.7999999523163,True,7.8500000000000005,42977.799999952316,2557.7999999523163,True,HRV,HRV_0113,2022-11-30 17:56:51
14,"[{'imgObject': {}, 'id': 'burger', 'src': '/static/foodstim60/burger.jpg', 'key': 'NaN', 'origWidth': 409, 'origHeight': 409, 'width': 390, 'height': 390, 'widthPercent': 0.8, 'rescaleHeight': True, 'trialN': 14, 'loaded': True, 'loadedTime': 4277.899999976158, 'positionName': 'CENTER', 'positionCoords': [205, 105]}]",Rate how much you want to eat this food from 0 (least) to 10 (most).,42980.200000047684,1669830901760,burger,2387.5999999046326,True,8.57,45367.799999952316,2387.5999999046326,True,HRV,HRV_0113,2022-11-30 17:56:51
15,"[{'imgObject': {}, 'id': 'fruitsalad', 'src': '/static/foodstim60/fruitsalad.jpg', 'key': 'NaN', 'origWidth': 410, 'origHeight': 410, 'width': 390, 'height': 390, 'widthPercent': 0.8, 'rescaleHeight': True, 'trialN': 15, 'loaded': True, 'loadedTime': 4423.299999952316, 'positionName': 'CENTER', 'positionCoords': [205, 105]}]",Rate how much you want to eat this food from 0 (least) to 10 (most).,45370.0,1669830904150,fruitsalad,3877.7999999523163,True,4.95,49247.799999952316,3877.7999999523163,True,HRV,HRV_0113,2022-11-30 17:56:51
16,"[{'imgObject': {}, 'id': 'rigatoni', 'src': '/static/foodstim60/rigatoni.jpg', 'key': 'NaN', 'origWidth': 411, 'origHeight': 411, 'width': 390, 'height': 390, 'widthPercent': 0.8, 'rescaleHeight': True, 'trialN': 16, 'loaded': True, 'loadedTime': 4491.799999952316, 'positionName': 'CENTER', 'positionCoords': [205, 105]}]",Rate how much you want to eat this food from 0 (least) to 10 (most).,49250.200000047684,1669830908030,rigatoni,2403.6999999284744,True,0.17,51653.89999997616,2403.6999999284744,True,HRV,HRV_0113,2022-11-30 17:56:51
17,"[{'imgObject': {}, 'id': 'apple slices', 'src': '/static/foodstim60/apple slices.jpg', 'key': 'NaN', 'origWidth': 409, 'origHeight': 410, 'width': 389.04878048780483, 'height': 390, 'widthPercent': 0.8, 'rescaleHeight': True, 'trialN': 17, 'loaded': True, 'loadedTime': 4705.5, 'positionName': 'CENTER', 'positionCoords': [205.5, 105]}]",Rate how much you want to eat this food from 0 (least) to 10 (most).,51656.299999952316,1669830910436,apple slices,2779.9000000953674,True,3.8200000000000003,54436.200000047684,2779.9000000953674,True,HRV,HRV_0113,2022-11-30 17:56:51
18,"[{'imgObject': {}, 'id': 'turkeysandwich', 'src': '/static/foodstim60/turkeysandwich.jpg', 'key': 'NaN', 'origWidth': 409, 'origHeight': 409, 'width': 390, 'height': 390, 'widthPercent': 0.8, 'rescaleHeight': True, 'trialN': 18, 'loaded': True, 'loadedTime': 4795.200000047684, 'positionName': 'CENTER', 'positionCoords': [205, 105]}]",Rate how much you want to eat this food from 0 (least) to 10 (most).,54438.5,1669830913218,turkeysandwich,3645.5,True,8.07,58084.0,3645.5,True,HRV,HRV_0113,2022-11-30 17:56:51
19,"[{'imgObject': {}, 'id': 'yogurt no spoon', 'src': '/static/foodstim60/yogurt no spoon.jpg', 'key': 'NaN', 'origWidth': 411, 'origHeight': 410, 'width': 390.9512195121951, 'height': 390, 'widthPercent': 0.8, 'rescaleHeight': True, 'trialN': 19, 'loaded': True, 'loadedTime': 4391.899999976158, 'positionName': 'CENTER', 'positionCoords': [205, 105]}]",Rate how much you want to eat this food from 0 (least) to 10 (most).,58087.0,1669830916867,yogurt no spoon,1763.1000000238419,True,6.67,59850.10000002384,1763.1000000238419,True,HRV,HRV_0113,2022-11-30 17:56:51
20,"[{'imgObject': {}, 'id': 'popsicles', 'src': '/static/foodstim60/popsicles.jpg', 'key': 'NaN', 'origWidth': 410, 'origHeight': 410, 'width': 390, 'height': 390, 'widthPercent': 0.8, 'rescaleHeight': True, 'trialN': 20, 'loaded': True, 'loadedTime': 4505.799999952316, 'positionName': 'CENTER', 'positionCoords': [205, 105]}]",Rate how much you want to eat this food from 0 (least) to 10 (most).,59852.89999997616,1669830918633,popsicles,2037.0,True,0.15,61889.89999997616,2037.0,True,HRV,HRV_0113,2022-11-30 17:56:51
21,"[{'imgObject': {}, 'id': 'blueberries', 'src': '/static/foodstim60/blueberries.jpg', 'key': 'NaN', 'origWidth': 411, 'origHeight': 411, 'width': 390, 'height': 390, 'widthPercent': 0.8, 'rescaleHeight': True, 'trialN': 21, 'loaded': True, 'loadedTime': 4669.600000023842, 'positionName': 'CENTER', 'positionCoords': [205, 105]}]",Rate how much you want to eat this food from 0 (least) to 10 (most).,61891.799999952316,1669830920668,blueberries,2508.0,True,3.12,64399.799999952316,2508.0,True,HRV,HRV_0113,2022-11-30 17:56:51
22,"[{'imgObject': {}, 'id': 'mac & cheese', 'src': '/static/foodstim60/mac & cheese.jpg', 'key': 'NaN', 'origWidth': 410, 'origHeight': 410, 'width': 390, 'height': 390, 'widthPercent': 0.8, 'rescaleHeight': True, 'trialN': 22, 'loaded': True, 'loadedTime': 4728.700000047684, 'positionName': 'CENTER', 'positionCoords': [205, 105]}]",Rate how much you want to eat this food from 0 (least) to 10 (most).,64401.799999952316,1669830923178,mac & cheese,2638.100000023842,True,0.17,67039.89999997616,2638.100000023842,True,HRV,HRV_0113,2022-11-30 17:56:51
23,"[{'imgObject': {}, 'id': 'chicken nuggets2', 'src': '/static/foodstim60/chicken nuggets2.jpg', 'key': 'NaN', 'origWidth': 410, 'origHeight': 409, 'width': 390.95354523227377, 'height': 390, 'widthPercent': 0.8, 'rescaleHeight': True, 'trialN': 23, 'loaded': True, 'loadedTime': 4919.700000047684, 'positionName': 'CENTER', 'positionCoords': [205, 105]}]",Rate how much you want to eat this food from 0 (least) to 10 (most).,67041.79999995232,1669830925818,chicken nuggets2,2452.0,True,4.97,69493.79999995232,2452.0,True,HRV,HRV_0113,2022-11-30 17:56:51
24,"[{'imgObject': {}, 'id': 'hashbrowns', 'src': '/static/foodstim60/hashbrowns.jpg', 'key': 'NaN', 'origWidth': 411, 'origHeight': 410, 'width': 390.9512195121951, 'height': 390, 'widthPercent': 0.8, 'rescaleHeight': True, 'trialN': 24, 'loaded': True, 'loadedTime': 4664.700000047684, 'positionName': 'CENTER', 'positionCoords': [205, 105]}]",Rate how much you want to eat this food from 0 (least) to 10 (most).,69495.70000004768,1669830928272,hashbrowns,2790.0999999046326,True,4.97,72285.79999995232,2790.0999999046326,True,HRV,HRV_0113,2022-11-30 17:56:51
25,"[{'imgObject': {}, 'id': 'eggsalad', 'src': '/static/foodstim60/eggsalad.jpg', 'key': 'NaN', 'origWidth': 410, 'origHeight': 409, 'width': 390.95354523227377, 'height': 390, 'widthPercent': 0.8, 'rescaleHeight': True, 'trialN': 25, 'loaded': True, 'loadedTime': 4837.799999952316, 'positionName': 'CENTER', 'positionCoords': [205, 105]}]",Rate how much you want to eat this food from 0 (least) to 10 (most).,72287.79999995232,1669830931064,eggsalad,2188.2000000476837,True,2.05,74476.0,2188.2000000476837,True,HRV,HRV_0113,2022-11-30 17:56:51
26,"[{'imgObject': {}, 'id': 'cherries', 'src': '/static/foodstim60/cherries.jpg', 'key': 'NaN', 'origWidth': 410, 'origHeight': 411, 'width': 389.0510948905109, 'height': 390, 'widthPercent': 0.8, 'rescaleHeight': True, 'trialN': 26, 'loaded': True, 'loadedTime': 4779.799999952316, 'positionName': 'CENTER', 'positionCoords': [205.5, 105]}]",Rate how much you want to eat this food from 0 (least) to 10 (most).,74477.89999997616,1669830933254,cherries,2798.0,True,5.97,77275.89999997616,2798.0,True,HRV,HRV_0113,2022-11-30 17:56:51
27,"[{'imgObject': {}, 'id': 'tacos', 'src': '/static/foodstim60/tacos.jpg', 'key': 'NaN', 'origWidth': 411, 'origHeight': 411, 'width': 390, 'height': 390, 'widthPercent': 0.8, 'rescaleHeight': True, 'trialN': 27, 'loaded': True, 'loadedTime': 5011.100000023842, 'positionName': 'CENTER', 'positionCoords': [205, 105]}]",Rate how much you want to eat this food from 0 (least) to 10 (most).,77278.39999997616,1669830936055,tacos,2267.100000023842,True,7.22,79545.5,2267.100000023842,True,HRV,HRV_0113,2022-11-30 17:56:51
28,"[{'imgObject': {}, 'id': 'sushi w_condiments', 'src': '/static/foodstim60/sushi w_condiments.jpg', 'key': 'NaN', 'origWidth': 410, 'origHeight': 410, 'width': 390, 'height': 390, 'widthPercent': 0.8, 'rescaleHeight': True, 'trialN': 28, 'loaded': True, 'loadedTime': 4858.799999952316, 'positionName': 'CENTER', 'positionCoords': [205, 105]}]",Rate how much you want to eat this food from 0 (least) to 10 (most).,79547.5,1669830938324,sushi w_condiments,4940.5,True,3.85,84488.0,4940.5,True,HRV,HRV_0113,2022-11-30 17:56:51
29,"[{'imgObject': {}, 'id': 'salad w chicken', 'src': '/static/foodstim60/salad w chicken.jpg', 'key': 'NaN', 'origWidth': 411, 'origHeight': 411, 'width': 390, 'height': 390, 'widthPercent': 0.8, 'rescaleHeight': True, 'trialN': 29, 'loaded': True, 'loadedTime': 4907.5, 'positionName': 'CENTER', 'positionCoords': [205, 105]}]",Rate how much you want to eat this food from 0 (least) to 10 (most).,84490.10000002384,1669830943267,salad w chicken,4467.899999976158,True,8.6,88958.0,4467.899999976158,True,HRV,HRV_0113,2022-11-30 17:56:51
30,"[{'imgObject': {}, 'id': 'corn cob', 'src': '/static/foodstim60/corn cob.jpg', 'key': 'NaN', 'origWidth': 411, 'origHeight': 411, 'width': 390, 'height': 390, 'widthPercent': 0.8, 'rescaleHeight': True, 'trialN': 30, 'loaded': True, 'loadedTime': 5183.899999976158, 'positionName': 'CENTER', 'positionCoords': [205, 105]}]",Rate how much you want to eat this food from 0 (least) to 10 (most).,88960.29999995232,1669830947737,corn cob,1744.0,True,0.75,90704.29999995232,1744.0,True,HRV,HRV_0113,2022-11-30 17:56:51
31,"[{'imgObject': {}, 'id': 'raspberries', 'src': '/static/foodstim60/raspberries.jpg', 'key': 'NaN', 'origWidth': 411, 'origHeight': 411, 'width': 390, 'height': 390, 'widthPercent': 0.8, 'rescaleHeight': True, 'trialN': 31, 'loaded': True, 'loadedTime': 5032.399999976158, 'positionName': 'CENTER', 'positionCoords': [205, 105]}]",Rate how much you want to eat this food from 0 (least) to 10 (most).,90707.5,1669830949484,raspberries,3448.5,True,4.57,94156.0,3448.5,True,HRV,HRV_0113,2022-11-30 17:56:51
32,"[{'imgObject': {}, 'id': 'rigatoni and sauce', 'src': '/static/foodstim60/rigatoni and sauce.jpg', 'key': 'NaN', 'origWidth': 410, 'origHeight': 411, 'width': 389.0510948905109, 'height': 390, 'widthPercent': 0.8, 'rescaleHeight': True, 'trialN': 32, 'loaded': True, 'loadedTime': 5046.200000047684, 'positionName': 'CENTER', 'positionCoords': [205.5, 105]}]",Rate how much you want to eat this food from 0 (least) to 10 (most).,94158.39999997616,1669830952935,rigatoni and sauce,1821.3999999761581,True,1.82,95979.79999995232,1821.3999999761581,True,HRV,HRV_0113,2022-11-30 17:56:51
33,"[{'imgObject': {}, 'id': 'froot loops w milk', 'src': '/static/foodstim60/froot loops w milk.jpg', 'key': 'NaN', 'origWidth': 410, 'origHeight': 410, 'width': 390, 'height': 390, 'widthPercent': 0.8, 'rescaleHeight': True, 'trialN': 33, 'loaded': True, 'loadedTime': 5027.899999976158, 'positionName': 'CENTER', 'positionCoords': [205, 105]}]",Rate how much you want to eat this food from 0 (least) to 10 (most).,95982.29999995232,1669830954759,froot loops w milk,2187.7000000476837,True,3.1,98170.0,2187.7000000476837,True,HRV,HRV_0113,2022-11-30 17:56:51
34,"[{'imgObject': {}, 'id': 'granola w milk', 'src': '/static/foodstim60/granola w milk.jpg', 'key': 'NaN', 'origWidth': 410, 'origHeight': 410, 'width': 390, 'height': 390, 'widthPercent': 0.8, 'rescaleHeight': True, 'trialN': 34, 'loaded': True, 'loadedTime': 5119.200000047684, 'positionName': 'CENTER', 'positionCoords': [205, 105]}]",Rate how much you want to eat this food from 0 (least) to 10 (most).,98172.79999995232,1669830956949,granola w milk,2013.0,True,4.92,100185.79999995232,2013.0,True,HRV,HRV_0113,2022-11-30 17:56:51
35,"[{'imgObject': {}, 'id': 'burrito', 'src': '/static/foodstim60/burrito.jpg', 'key': 'NaN', 'origWidth': 410, 'origHeight': 410, 'width': 390, 'height': 390, 'widthPercent': 0.8, 'rescaleHeight': True, 'trialN': 35, 'loaded': True, 'loadedTime': 5281.100000023842, 'positionName': 'CENTER', 'positionCoords': [205, 105]}]",Rate how much you want to eat this food from 0 (least) to 10 (most).,100188.79999995232,1669830958965,burrito,2619.2000000476837,True,5.07,102808.0,2619.2000000476837,True,HRV,HRV_0113,2022-11-30 17:56:51
36,"[{'imgObject': {}, 'id': 'grilled chicken strips', 'src': '/static/foodstim60/grilled chicken strips.jpg', 'key': 'NaN', 'origWidth': 410, 'origHeight': 411, 'width': 389.0510948905109, 'height': 390, 'widthPercent': 0.8, 'rescaleHeight': True, 'trialN': 36, 'loaded': True, 'loadedTime': 5212.399999976158, 'positionName': 'CENTER', 'positionCoords': [205.5, 105]}]",Rate how much you want to eat this food from 0 (least) to 10 (most).,102810.39999997616,1669830961587,grilled chicken strips,2245.600000023842,True,5.8500000000000005,105056.0,2245.600000023842,True,HRV,HRV_0113,2022-11-30 17:56:51
37,"[{'imgObject': {}, 'id': 'banana', 'src': '/static/foodstim60/banana.jpg', 'key': 'NaN', 'origWidth': 410, 'origHeight': 410, 'width': 390, 'height': 390, 'widthPercent': 0.8, 'rescaleHeight': True, 'trialN': 37, 'loaded': True, 'loadedTime': 5137.600000023842, 'positionName': 'CENTER', 'positionCoords': [205, 105]}]",Rate how much you want to eat this food from 0 (least) to 10 (most).,105058.39999997616,1669830963835,banana,3995.2000000476837,True,6.5200000000000005,109053.60000002384,3995.2000000476837,True,HRV,HRV_0113,2022-11-30 17:56:51
38,"[{'imgObject': {}, 'id': 'seaweed', 'src': '/static/foodstim60/seaweed.jpg', 'key': 'NaN', 'origWidth': 410, 'origHeight': 410, 'width': 390, 'height': 390, 'widthPercent': 0.8, 'rescaleHeight': True, 'trialN': 38, 'loaded': True, 'loadedTime': 5229.600000023842, 'positionName': 'CENTER', 'positionCoords': [205, 105]}]",Rate how much you want to eat this food from 0 (least) to 10 (most).,109056.20000004768,1669830967833,seaweed,2379.6999999284744,True,6.0,111435.89999997616,2379.6999999284744,True,HRV,HRV_0113,2022-11-30 17:56:51
39,"[{'imgObject': {}, 'id': 'olives', 'src': '/static/foodstim60/olives.jpg', 'key': 'NaN', 'origWidth': 410, 'origHeight': 410, 'width': 390, 'height': 390, 'widthPercent': 0.8, 'rescaleHeight': True, 'trialN': 39, 'loaded': True, 'loadedTime': 5338.5, 'positionName': 'CENTER', 'positionCoords': [205, 105]}]",Rate how much you want to eat this food from 0 (least) to 10 (most).,111437.79999995232,1669830970214,olives,2150.100000023842,True,0.15,113587.89999997616,2150.100000023842,True,HRV,HRV_0113,2022-11-30 17:56:51
40,"[{'imgObject': {}, 'id': 'kiwi', 'src': '/static/foodstim60/kiwi.jpg', 'key': 'NaN', 'origWidth': 410, 'origHeight': 410, 'width': 390, 'height': 390, 'widthPercent': 0.8, 'rescaleHeight': True, 'trialN': 40, 'loaded': True, 'loadedTime': 5259.899999976158, 'positionName': 'CENTER', 'positionCoords': [205, 105]}]",Rate how much you want to eat this food from 0 (least) to 10 (most).,113590.0,1669830972366,kiwi,1763.7999999523163,True,6.8500000000000005,115353.79999995232,1763.7999999523163,True,HRV,HRV_0113,2022-11-30 17:56:51
41,"[{'imgObject': {}, 'id': 'omelette', 'src': '/static/foodstim60/omelette.jpg', 'key': 'NaN', 'origWidth': 410, 'origHeight': 409, 'width': 390.95354523227377, 'height': 390, 'widthPercent': 0.8, 'rescaleHeight': True, 'trialN': 41, 'loaded': True, 'loadedTime': 5457, 'positionName': 'CENTER', 'positionCoords': [205, 105]}]",Rate how much you want to eat this food from 0 (least) to 10 (most).,115355.60000002384,1669830974132,omelette,2030.2999999523163,True,4.92,117385.89999997616,2030.2999999523163,True,HRV,HRV_0113,2022-11-30 17:56:51
42,"[{'imgObject': {}, 'id': 'ice cream sundae 002', 'src': '/static/foodstim60/ice cream sundae 002.jpg', 'key': 'NaN', 'origWidth': 409, 'origHeight': 409, 'width': 390, 'height': 390, 'widthPercent': 0.8, 'rescaleHeight': True, 'trialN': 42, 'loaded': True, 'loadedTime': 5417.200000047684, 'positionName': 'CENTER', 'positionCoords': [205, 105]}]",Rate how much you want to eat this food from 0 (least) to 10 (most).,117387.79999995232,1669830976164,ice cream sundae 002,2203.9000000953674,True,0.15,119591.70000004768,2203.9000000953674,True,HRV,HRV_0113,2022-11-30 17:56:51
43,"[{'imgObject': {}, 'id': 'blackbeanswithrice', 'src': '/static/foodstim60/blackbeanswithrice.jpg', 'key': 'NaN', 'origWidth': 410, 'origHeight': 410, 'width': 390, 'height': 390, 'widthPercent': 0.8, 'rescaleHeight': True, 'trialN': 43, 'loaded': True, 'loadedTime': 5409.700000047684, 'positionName': 'CENTER', 'positionCoords': [205, 105]}]",Rate how much you want to eat this food from 0 (least) to 10 (most).,119593.39999997616,1669830978370,blackbeanswithrice,1702.6000000238419,True,0.12,121296.0,1702.6000000238419,True,HRV,HRV_0113,2022-11-30 17:56:51
44,"[{'imgObject': {}, 'id': 'cocktailshrimp', 'src': '/static/foodstim60/cocktailshrimp.jpg', 'key': 'NaN', 'origWidth': 410, 'origHeight': 410, 'width': 390, 'height': 390, 'widthPercent': 0.8, 'rescaleHeight': True, 'trialN': 44, 'loaded': True, 'loadedTime': 5392.200000047684, 'positionName': 'CENTER', 'positionCoords': [205, 105]}]",Rate how much you want to eat this food from 0 (least) to 10 (most).,121298.10000002384,1669830980071,cocktailshrimp,2595.7999999523163,True,6.0,123893.89999997616,2595.7999999523163,True,HRV,HRV_0113,2022-11-30 17:56:51
45,"[{'imgObject': {}, 'id': 'edamame', 'src': '/static/foodstim60/edamame.jpg', 'key': 'NaN', 'origWidth': 409, 'origHeight': 410, 'width': 389.04878048780483, 'height': 390, 'widthPercent': 0.8, 'rescaleHeight': True, 'trialN': 45, 'loaded': True, 'loadedTime': 5585.5, 'positionName': 'CENTER', 'positionCoords': [205.5, 105]}]",Rate how much you want to eat this food from 0 (least) to 10 (most).,123896.29999995232,1669830982669,edamame,1773.5,True,6.2,125669.79999995232,1773.5,True,HRV,HRV_0113,2022-11-30 17:56:51
46,"[{'imgObject': {}, 'id': 'fried eggs', 'src': '/static/foodstim60/fried eggs.jpg', 'key': 'NaN', 'origWidth': 410, 'origHeight': 410, 'width': 390, 'height': 390, 'widthPercent': 0.8, 'rescaleHeight': True, 'trialN': 46, 'loaded': True, 'loadedTime': 5540, 'positionName': 'CENTER', 'positionCoords': [205, 105]}]",Rate how much you want to eat this food from 0 (least) to 10 (most).,125671.70000004768,1669830984445,fried eggs,2638.2999999523163,True,4.12,128310.0,2638.2999999523163,True,HRV,HRV_0113,2022-11-30 17:56:51
47,"[{'imgObject': {}, 'id': 'bagel plain', 'src': '/static/foodstim60/bagel plain.jpg', 'key': 'NaN', 'origWidth': 410, 'origHeight': 410, 'width': 390, 'height': 390, 'widthPercent': 0.8, 'rescaleHeight': True, 'trialN': 47, 'loaded': True, 'loadedTime': 5492.399999976158, 'positionName': 'CENTER', 'positionCoords': [205, 105]}]",Rate how much you want to eat this food from 0 (least) to 10 (most).,128312.39999997616,1669830987085,bagel plain,1332.0,True,2.15,129644.39999997616,1332.0,True,HRV,HRV_0113,2022-11-30 17:56:51
48,"[{'imgObject': {}, 'id': 'Tribe humus pita', 'src': '/static/foodstim60/Tribe humus pita.jpg', 'key': 'NaN', 'origWidth': 411, 'origHeight': 411, 'width': 390, 'height': 390, 'widthPercent': 0.8, 'rescaleHeight': True, 'trialN': 48, 'loaded': True, 'loadedTime': 5611.600000023842, 'positionName': 'CENTER', 'positionCoords': [205, 105]}]",Rate how much you want to eat this food from 0 (least) to 10 (most).,129646.5,1669830988419,Tribe humus pita,1861.5,True,4.75,131508.0,1861.5,True,HRV,HRV_0113,2022-11-30 17:56:51
49,"[{'imgObject': {}, 'id': 'cherry tomato', 'src': '/static/foodstim60/cherry tomato.jpg', 'key': 'NaN', 'origWidth': 410, 'origHeight': 410, 'width': 390, 'height': 390, 'widthPercent': 0.8, 'rescaleHeight': True, 'trialN': 49, 'loaded': True, 'loadedTime': 5515.700000047684, 'positionName': 'CENTER', 'positionCoords': [205, 105]}]",Rate how much you want to eat this food from 0 (least) to 10 (most).,131510.70000004768,1669830990284,cherry tomato,2427.2999999523163,True,0.3,133938.0,2427.2999999523163,True,HRV,HRV_0113,2022-11-30 17:56:51
50,"[{'imgObject': {}, 'id': 'eggs', 'src': '/static/foodstim60/eggs.jpg', 'key': 'NaN', 'origWidth': 409, 'origHeight': 409, 'width': 390, 'height': 390, 'widthPercent': 0.8, 'rescaleHeight': True, 'trialN': 50, 'loaded': True, 'loadedTime': 5747.799999952316, 'positionName': 'CENTER', 'positionCoords': [205, 105]}]",Rate how much you want to eat this food from 0 (least) to 10 (most).,133940.0,1669830992713,eggs,1933.8999999761581,True,0.32,135873.89999997616,1933.8999999761581,True,HRV,HRV_0113,2022-11-30 17:56:51
51,"[{'imgObject': {}, 'id': 'shreddedwheatwithmilk', 'src': '/static/foodstim60/shreddedwheatwithmilk.jpg', 'key': 'NaN', 'origWidth': 410, 'origHeight': 410, 'width': 390, 'height': 390, 'widthPercent': 0.8, 'rescaleHeight': True, 'trialN': 51, 'loaded': True, 'loadedTime': 5620.899999976158, 'positionName': 'CENTER', 'positionCoords': [205, 105]}]",Rate how much you want to eat this food from 0 (least) to 10 (most).,135876.5,1669830994649,shreddedwheatwithmilk,2427.5,True,2.9,138304.0,2427.5,True,HRV,HRV_0113,2022-11-30 17:56:51
52,"[{'imgObject': {}, 'id': 'turkey sandwich', 'src': '/static/foodstim60/turkey sandwich.jpg', 'key': 'NaN', 'origWidth': 409, 'origHeight': 409, 'width': 390, 'height': 390, 'widthPercent': 0.8, 'rescaleHeight': True, 'trialN': 52, 'loaded': True, 'loadedTime': 5642.899999976158, 'positionName': 'CENTER', 'positionCoords': [205, 105]}]",Rate how much you want to eat this food from 0 (least) to 10 (most).,138306.20000004768,1669830997079,turkey sandwich,1581.8999999761581,True,7.640000000000001,139888.10000002384,1581.8999999761581,True,HRV,HRV_0113,2022-11-30 17:56:51
53,"[{'imgObject': {}, 'id': 'baked potato', 'src': '/static/foodstim60/baked potato.jpg', 'key': 'NaN', 'origWidth': 409, 'origHeight': 410, 'width': 389.04878048780483, 'height': 390, 'widthPercent': 0.8, 'rescaleHeight': True, 'trialN': 53, 'loaded': True, 'loadedTime': 5742.5, 'positionName': 'CENTER', 'positionCoords': [205.5, 105]}]",Rate how much you want to eat this food from 0 (least) to 10 (most).,139891.20000004768,1669830998664,baked potato,2172.7999999523163,True,2.57,142064.0,2172.7999999523163,True,HRV,HRV_0113,2022-11-30 17:56:51
54,"[{'imgObject': {}, 'id': 'orange slices', 'src': '/static/foodstim60/orange slices.jpg', 'key': 'NaN', 'origWidth': 409, 'origHeight': 410, 'width': 389.04878048780483, 'height': 390, 'widthPercent': 0.8, 'rescaleHeight': True, 'trialN': 54, 'loaded': True, 'loadedTime': 5842.200000047684, 'positionName': 'CENTER', 'positionCoords': [205.5, 105]}]",Rate how much you want to eat this food from 0 (least) to 10 (most).,142066.5,1669831000839,orange slices,1867.6000000238419,True,5.67,143934.10000002384,1867.6000000238419,True,HRV,HRV_0113,2022-11-30 17:56:51
55,"[{'imgObject': {}, 'id': 'cheerios', 'src': '/static/foodstim60/cheerios.jpg', 'key': 'NaN', 'origWidth': 409, 'origHeight': 410, 'width': 389.04878048780483, 'height': 390, 'widthPercent': 0.8, 'rescaleHeight': True, 'trialN': 55, 'loaded': True, 'loadedTime': 5791.100000023842, 'positionName': 'CENTER', 'positionCoords': [205.5, 105]}]",Rate how much you want to eat this food from 0 (least) to 10 (most).,143936.60000002384,1669831002710,cheerios,1749.3999999761581,True,2.0,145686.0,1749.3999999761581,True,HRV,HRV_0113,2022-11-30 17:56:51
56,"[{'imgObject': {}, 'id': 'chickenfingers', 'src': '/static/foodstim60/chickenfingers.jpg', 'key': 'NaN', 'origWidth': 410, 'origHeight': 410, 'width': 390, 'height': 390, 'widthPercent': 0.8, 'rescaleHeight': True, 'trialN': 56, 'loaded': True, 'loadedTime': 5737.899999976158, 'positionName': 'CENTER', 'positionCoords': [205, 105]}]",Rate how much you want to eat this food from 0 (least) to 10 (most).,145689.10000002384,1669831004462,chickenfingers,1802.7999999523163,True,7.75,147491.89999997616,1802.7999999523163,True,HRV,HRV_0113,2022-11-30 17:56:51
57,"[{'imgObject': {}, 'id': 'steak', 'src': '/static/foodstim60/steak.jpg', 'key': 'NaN', 'origWidth': 410, 'origHeight': 410, 'width': 390, 'height': 390, 'widthPercent': 0.8, 'rescaleHeight': True, 'trialN': 57, 'loaded': True, 'loadedTime': 5821.600000023842, 'positionName': 'CENTER', 'positionCoords': [205, 105]}]",Rate how much you want to eat this food from 0 (least) to 10 (most).,147494.39999997616,1669831006267,steak,2277.3000000715256,True,9.9,149771.70000004768,2277.3000000715256,True,HRV,HRV_0113,2022-11-30 17:56:51
58,"[{'imgObject': {}, 'id': 'hotdog w must', 'src': '/static/foodstim60/hotdog w must.jpg', 'key': 'NaN', 'origWidth': 409, 'origHeight': 409, 'width': 390, 'height': 390, 'widthPercent': 0.8, 'rescaleHeight': True, 'trialN': 58, 'loaded': True, 'loadedTime': 5991.100000023842, 'positionName': 'CENTER', 'positionCoords': [205, 105]}]",Rate how much you want to eat this food from 0 (least) to 10 (most).,149774.10000002384,1669831008547,hotdog w must,1653.7999999523163,True,0.15,151427.89999997616,1653.7999999523163,True,HRV,HRV_0113,2022-11-30 17:56:51
59,"[{'imgObject': {}, 'id': 'veggieswithdip', 'src': '/static/foodstim60/veggieswithdip.jpg', 'key': 'NaN', 'origWidth': 409, 'origHeight': 409, 'width': 390, 'height': 390, 'widthPercent': 0.8, 'rescaleHeight': True, 'trialN': 59, 'loaded': True, 'loadedTime': 5926.5, 'positionName': 'CENTER', 'positionCoords': [205, 105]}]",Rate how much you want to eat this food from 0 (least) to 10 (most).,151430.70000004768,1669831010204,veggieswithdip,1915.1999999284744,True,7.3500000000000005,153345.89999997616,1915.1999999284744,True,HRV,HRV_0113,2022-11-30 17:56:51
