success,trial_type,trial_index,time_elapsed,internal_node_id,Block,TrialNumber,TrialTime,trialTimeDiff,FPS_avg,FPS_med,FPS_mode,TrialDur,winResizeTime,rt,block,button_pressed,MotCoh,MotDir,ColCoh,Color,ChoiceKey,Choice,Accuracy,RT,nFrames,FPS,PPD,missTrial,missTrialMsg,onsetDelay,fullScreenExitTime,canvCenter,TrialType,Score,BlockTrial,stimulus,button_labels,exp,subjectId,date
True,fullscreen,0,3717,0.0-0.0,0.0,1.0,,,,,,,,,,,,,,,,,,,,,,,,,,,,,,,,HRV,HRV_0225,2022-11-30 19:18:37
,wl-check-fps,1,8707,0.0-1.0,0.0,2.0,"[4402.1, 4403.3, 4417.6, 4434.4, 4451, 4467.7, 4484.3, 4501, 4517.7, 4534.4, 4551.6, 4567.8, 4584.5, 4601.1, 4617.6, 4634.3, 4651.1, 4667.7, 4684.4, 4702, 4717.7, 4734.3, 4750.9, 4767.7, 4784.5, 4802.1, 4817.9, 4834.5, 4851.2, 4867.9, 4884.4, 4901.4, 4917.7, 4934.5, 4951.1, 4967.7, 4984.5, 5001.1, 5017.8, 5034.3, 5051, 5067.8, 5084.4, 5101, 5117.7, 5134.4, 5151.1, 5167.8, 5184.4, 5201.2, 5217.7, 5234.3, 5251.1, 5267.8, 5284.4, 5301, 5317.9, 5334.4, 5351.2, 5367.8, 5384.6, 5401.1, 5417.8, 5434.5, 5451.1, 5468.3, 5484.6, 5501.2, 5518, 5534.3, 5551.1, 5567.7, 5584.5, 5601.3, 5617.6, 5634.5, 5651.5, 5667.8, 5684.3, 5702.6, 5717.9, 5734.5, 5751.2, 5767.8, 5784.3, 5801.2, 5817.9, 5834.4, 5851.1, 5867.7, 5884.6, 5901.1, 5917.9, 5934.5, 5951.4, 5967.7, 5984.5, 6001.3, 6017.8, 6034.4, 6051.1, 6067.9, 6084.4, 6101.1, 6117.8, 6134.5, 6151, 6167.9, 6184.3, 6201.1, 6217.7, 6234.4, 6251, 6267.8, 6284.4, 6301, 6317.7, 6334.4, 6351.1, 6367.7, 6384.5, 6401.1, 6417.7, 6434.5, 6451.2, 6467.7, 6484.4, 6501.1, 6517.9, 6534.5, 6551.3, 6568, 6584.6, 6601.2, 6617.8, 6634.5, 6651.1, 6667.9, 6684.4, 6702, 6717.9, 6734.5, 6751.1, 6767.8, 6784.7, 6801.3, 6818.9, 6834.8, 6851.3, 6867.8, 6884.7, 6901.4, 6918.1, 6934.7, 6951.4, 6968.1, 6984.8, 7001.3, 7018, 7035, 7051.4, 7068, 7084.7, 7101.4, 7118, 7134.7, 7151.4, 7168, 7184.6, 7201.4, 7219.9, 7235.1, 7251.7, 7268, 7284.7, 7301.5, 7318.2, 7334.7, 7351.3, 7368.1, 7384.7, 7401.5, 7418.1, 7434.6, 7451.4, 7468, 7484.9, 7501.4, 7518, 7534.7, 7551.3, 7568, 7584.6, 7601.3, 7618, 7634.6, 7651.3, 7667.9, 7684.8, 7702.4, 7717.9, 7734.5, 7751.1, 7768, 7784.5, 7801.2, 7817.8, 7834.5, 7851.1, 7867.9, 7884.5, 7901.1, 7917.8, 7934.5, 7951.2, 7967.9, 7986.8, 8003.3, 8018.3, 8035.4, 8051.4, 8067.9, 8084.5, 8101.1, 8117.8, 8134.5, 8151.2, 8167.9, 8184.5, 8201.2, 8217.8, 8234.8, 8251.3, 8268, 8284.5, 8301.1, 8317.9, 8334.5, 8351.3, 8367.8, 8384.5, 8401.4, 8417.8, 8434.6, 8451.2, 8468, 8484.5, 8501.2, 8517.9, 8534.7, 8551.2, 8567.8, 8584.6, 8601.2, 8617.8, 8634.5, 8651.1, 8668, 8684.6, 8702.7, 8717.9, 8734.5, 8751.3, 8767.9, 8784.7, 8801.2, 8817.8, 8834.6, 8851.3, 8867.8, 8885, 8901.5, 8918.6, 8934.9, 8951.4, 8968, 8984.6, 9001.4, 9018, 9034.7, 9051.5, 9068.1, 9084.8, 9101.6, 9118.2, 9134.7, 9151.5, 9168.2, 9184.7, 9201.6, 9218.1, 9234.7, 9251.7, 9268.3, 9284.8, 9301.6, 9318.1, 9334.8, 9351.4, 9368.1]","[3.1, 1.2, 14.3, 16.8, 16.6, 16.7, 16.6, 16.7, 16.7, 16.7, 17.2, 16.2, 16.7, 16.6, 16.5, 16.7, 16.8, 16.6, 16.7, 17.6, 15.7, 16.6, 16.6, 16.8, 16.8, 17.6, 15.8, 16.6, 16.7, 16.7, 16.5, 17, 16.3, 16.8, 16.6, 16.6, 16.8, 16.6, 16.7, 16.5, 16.7, 16.8, 16.6, 16.6, 16.7, 16.7, 16.7, 16.7, 16.6, 16.8, 16.5, 16.6, 16.8, 16.7, 16.6, 16.6, 16.9, 16.5, 16.8, 16.6, 16.8, 16.5, 16.7, 16.7, 16.6, 17.2, 16.3, 16.6, 16.8, 16.3, 16.8, 16.6, 16.8, 16.8, 16.3, 16.9, 17, 16.3, 16.5, 18.3, 15.3, 16.6, 16.7, 16.6, 16.5, 16.9, 16.7, 16.5, 16.7, 16.6, 16.9, 16.5, 16.8, 16.6, 16.9, 16.3, 16.8, 16.8, 16.5, 16.6, 16.7, 16.8, 16.5, 16.7, 16.7, 16.7, 16.5, 16.9, 16.4, 16.8, 16.6, 16.7, 16.6, 16.8, 16.6, 16.6, 16.7, 16.7, 16.7, 16.6, 16.8, 16.6, 16.6, 16.8, 16.7, 16.5, 16.7, 16.7, 16.8, 16.6, 16.8, 16.7, 16.6, 16.6, 16.6, 16.7, 16.6, 16.8, 16.5, 17.6, 15.9, 16.6, 16.6, 16.7, 16.9, 16.6, 17.6, 15.9, 16.5, 16.5, 16.9, 16.7, 16.7, 16.6, 16.7, 16.7, 16.7, 16.5, 16.7, 17, 16.4, 16.6, 16.7, 16.7, 16.6, 16.7, 16.7, 16.6, 16.6, 16.8, 18.5, 15.2, 16.6, 16.3, 16.7, 16.8, 16.7, 16.5, 16.6, 16.8, 16.6, 16.8, 16.6, 16.5, 16.8, 16.6, 16.9, 16.5, 16.6, 16.7, 16.6, 16.7, 16.6, 16.7, 16.7, 16.6, 16.7, 16.6, 16.9, 17.6, 15.5, 16.6, 16.6, 16.9, 16.5, 16.7, 16.6, 16.7, 16.6, 16.8, 16.6, 16.6, 16.7, 16.7, 16.7, 16.7, 18.9, 16.5, 15, 17.1, 16, 16.5, 16.6, 16.6, 16.7, 16.7, 16.7, 16.7, 16.6, 16.7, 16.6, 17, 16.5, 16.7, 16.5, 16.6, 16.8, 16.6, 16.8, 16.5, 16.7, 16.9, 16.4, 16.8, 16.6, 16.8, 16.5, 16.7, 16.7, 16.8, 16.5, 16.6, 16.8, 16.6, 16.6, 16.7, 16.6, 16.9, 16.6, 18.1, 15.2, 16.6, 16.8, 16.6, 16.8, 16.5, 16.6, 16.8, 16.7, 16.5, 17.2, 16.5, 17.1, 16.3, 16.5, 16.6, 16.6, 16.8, 16.6, 16.7, 16.8, 16.6, 16.7, 16.8, 16.6, 16.5, 16.8, 16.7, 16.5, 16.9, 16.5, 16.6, 17, 16.6, 16.5, 16.8, 16.5, 16.7, 16.6, 16.7]",60.0,60.0,60.0,4985.7,[],,,,,,,,,,,,,,,,,,,,,,,,,HRV,HRV_0225,2022-11-30 19:18:37
,wl-html-keyboard-response,2,22414,0.0-2.0-0.0,0.0,3.0,,,,,,,,11689.600000023842,0.0,0,,,,,,,,,,,,,,,,,,,,,,HRV,HRV_0225,2022-11-30 19:18:37
,wl-rdm,3,37424,0.0-3.0-0.0,0.0,4.0,,,,,,,[],,,,0.0,0.0,87.9,0.0,u,0.0,True,2943.4999999403954,177.0,60.0,40.0,False,too_early ,3000.0,[],"[960, 540]",ColorTask_Demo,,,,,HRV,HRV_0225,2022-11-30 19:18:37
,wl-rdm,4,43740,0.0-3.0-1.0,0.0,5.0,,,,,,,[],,,,0.0,0.0,87.9,1.0,i,1.0,True,2225.2999999523163,134.0,60.0,40.0,False,,2000.0,[],"[960, 540]",ColorTask_Demo,,,,,HRV,HRV_0225,2022-11-30 19:18:37
,wl-html-keyboard-response,5,50479,0.0-3.0-2.0,0.0,6.0,,,,,,,,4729.099999964237,0.0,1,,,,,,,,,,,,,,,,,,,,,,HRV,HRV_0225,2022-11-30 19:18:37
,wl-html-keyboard-response,6,59007,0.0-4.0-0.0,0.0,7.0,,,,,,,,6517.5,0.0,0,,,,,,,,,,,,,,,,,,,,,,HRV,HRV_0225,2022-11-30 19:18:37
,wl-html-keyboard-response,7,75519,0.0-5.0-0.0,0.0,8.0,,,,,,,,14504.899999976158,0.0,0,,,,,,,,,,,,,,,,,,,,,,HRV,HRV_0225,2022-11-30 19:18:37
,wl-rdm,8,78791,0.0-6.0-0.0,0.0,9.0,,,,,,,[],,,,,,53.2,0.0,i,1.0,False,1985.199999988079,120.0,60.0,40.0,False,,229.57492278751246,[],"[960, 540]",ColorTask,-1.0,1.0,,,HRV,HRV_0225,2022-11-30 19:18:37
,wl-rdm,9,82375,0.0-6.1-0.1,0.0,10.0,,,,,,,[],,,,,,62.5,0.0,u,0.0,True,2177.300000011921,131.0,60.0,40.0,False,,342.28194290195916,[],"[960, 540]",ColorTask,0.0,2.0,,,HRV,HRV_0225,2022-11-30 19:18:37
,wl-rdm,10,84942,0.0-6.2-0.2,0.0,11.0,,,,,,,[],,,,,,73.6,1.0,i,1.0,True,1140.300000011921,70.0,60.0,40.0,False,,350.88585159044635,[],"[960, 540]",ColorTask,1.0,3.0,,,HRV,HRV_0225,2022-11-30 19:18:37
,wl-rdm,11,87725,0.0-6.3-0.3,0.0,12.0,,,,,,,[],,,,,,53.2,0.0,i,1.0,False,1389.4000000357628,84.0,60.0,40.0,False,,308.6970725269929,[],"[960, 540]",ColorTask,0.0,4.0,,,HRV,HRV_0225,2022-11-30 19:18:37
,wl-rdm,12,89925,0.0-6.4-0.4,0.0,13.0,,,,,,,[],,,,,,87.9,1.0,i,1.0,True,888.1000000238419,54.0,60.0,40.0,False,,226.13287251097177,[],"[960, 540]",ColorTask,1.0,5.0,,,HRV,HRV_0225,2022-11-30 19:18:37
,wl-rdm,13,92759,0.0-6.5-0.5,0.0,14.0,,,,,,,[],,,,,,50.0,1.0,u,0.0,False,1424.4000000357628,86.0,60.0,40.0,False,,317.7820326319081,[],"[960, 540]",ColorTask,0.0,6.0,,,HRV,HRV_0225,2022-11-30 19:18:37
,wl-rdm,14,95575,0.0-6.6-0.6,0.0,15.0,,,,,,,[],,,,,,62.5,1.0,i,1.0,True,1433.4000000357628,86.0,60.0,40.0,False,,311.36262186816623,[],"[960, 540]",ColorTask,1.0,7.0,,,HRV,HRV_0225,2022-11-30 19:18:37
,wl-rdm,15,97576,0.0-6.7-0.7,0.0,16.0,,,,,,,[],,,,,,87.9,0.0,u,0.0,True,716.1000000238419,43.0,60.0,40.0,False,,214.6462314120212,[],"[960, 540]",ColorTask,2.0,8.0,,,HRV,HRV_0225,2022-11-30 19:18:37
,wl-rdm,16,100209,0.0-6.8-0.8,0.0,17.0,,,,,,,[],,,,,,50.0,1.0,i,1.0,True,1322.5,80.0,60.0,40.0,False,,240.28702588127396,[],"[960, 540]",ColorTask,3.0,9.0,,,HRV,HRV_0225,2022-11-30 19:18:37
,wl-rdm,17,102659,0.0-6.9-0.9,0.0,18.0,,,,,,,[],,,,,,87.9,0.0,u,0.0,True,1098.7999999523163,66.0,60.0,40.0,False,,269.93811739697964,[],"[960, 540]",ColorTask,4.0,10.0,,,HRV,HRV_0225,2022-11-30 19:18:37
,wl-rdm,18,105177,0.0-6.10-0.10,0.0,19.0,,,,,,,[],,,,,,50.0,0.0,i,1.0,False,1189.0,72.0,60.0,40.0,False,,244.1670220218516,[],"[960, 540]",ColorTask,3.0,11.0,,,HRV,HRV_0225,2022-11-30 19:18:37
,wl-rdm,19,107809,0.0-6.11-0.11,0.0,20.0,,,,,,,[],,,,,,56.4,1.0,i,1.0,True,1300.300000011921,78.0,60.0,40.0,False,,250.59565364817487,[],"[960, 540]",ColorTask,4.0,12.0,,,HRV,HRV_0225,2022-11-30 19:18:37
,wl-rdm,20,110676,0.0-6.12-0.12,0.0,21.0,,,,,,,[],,,,,,53.2,0.0,i,1.0,False,1428.1000000238419,86.0,60.0,40.0,False,,365.7524212687554,[],"[960, 540]",ColorTask,3.0,13.0,,,HRV,HRV_0225,2022-11-30 19:18:37
,wl-rdm,21,112760,0.0-6.13-0.13,0.0,22.0,,,,,,,[],,,,,,87.9,0.0,u,0.0,True,765.1999999880791,46.0,60.0,40.0,False,,248.57523524524657,[],"[960, 540]",ColorTask,4.0,14.0,,,HRV,HRV_0225,2022-11-30 19:18:37
,wl-rdm,22,115727,0.0-6.14-0.14,0.0,23.0,,,,,,,[],,,,,,53.2,0.0,u,0.0,True,1613.5999999642372,97.0,60.0,40.0,False,,271.4638553533211,[],"[960, 540]",ColorTask,5.0,15.0,,,HRV,HRV_0225,2022-11-30 19:18:37
,wl-rdm,23,118260,0.0-6.15-0.15,0.0,24.0,,,,,,,[],,,,,,53.2,1.0,i,1.0,True,1118.6999999284744,68.0,60.0,40.0,False,,348.20236252257,[],"[960, 540]",ColorTask,6.0,16.0,,,HRV,HRV_0225,2022-11-30 19:18:37
,wl-rdm,24,120693,0.0-6.16-0.16,0.0,25.0,,,,,,,[],,,,,,62.5,0.0,u,0.0,True,1107.1000000238419,67.0,60.0,40.0,False,,242.66129064468097,[],"[960, 540]",ColorTask,7.0,17.0,,,HRV,HRV_0225,2022-11-30 19:18:37
,wl-rdm,25,123210,0.0-6.17-0.17,0.0,26.0,,,,,,,[],,,,,,56.4,0.0,i,1.0,False,1190.1000000238419,72.0,60.0,40.0,False,,262.1660527537508,[],"[960, 540]",ColorTask,6.0,18.0,,,HRV,HRV_0225,2022-11-30 19:18:37
,wl-rdm,26,125977,0.0-6.18-0.18,0.0,27.0,,,,,,,[],,,,,,50.0,0.0,i,1.0,False,1384.699999988079,84.0,60.0,40.0,False,,297.5501805008288,[],"[960, 540]",ColorTask,5.0,19.0,,,HRV,HRV_0225,2022-11-30 19:18:37
,wl-rdm,27,128127,0.0-6.19-0.19,0.0,28.0,,,,,,,[],,,,,,87.9,0.0,u,0.0,True,847.9000000357628,51.0,60.0,40.0,False,,237.80167337264083,[],"[960, 540]",ColorTask,6.0,20.0,,,HRV,HRV_0225,2022-11-30 19:18:37
,wl-rdm,28,130344,0.0-6.20-0.20,0.0,29.0,,,,,,,[],,,,,,56.4,1.0,i,1.0,True,801.7000000476837,49.0,60.0,40.0,False,,348.63811354811,[],"[960, 540]",ColorTask,7.0,21.0,,,HRV,HRV_0225,2022-11-30 19:18:37
,wl-rdm,29,133211,0.0-6.21-0.21,0.0,30.0,,,,,,,[],,,,,,50.0,1.0,i,1.0,True,1388.7999999523163,84.0,60.0,40.0,False,,391.6147148779265,[],"[960, 540]",ColorTask,8.0,22.0,,,HRV,HRV_0225,2022-11-30 19:18:37
,wl-rdm,30,136094,0.0-6.22-0.22,0.0,31.0,,,,,,,[],,,,,,53.2,1.0,i,1.0,True,1558.6000000238419,94.0,60.0,40.0,False,,237.7673877429312,[],"[960, 540]",ColorTask,9.0,23.0,,,HRV,HRV_0225,2022-11-30 19:18:37
,wl-rdm,31,138877,0.0-6.23-0.23,0.0,32.0,,,,,,,[],,,,,,56.4,1.0,i,1.0,True,1342.8999999761581,81.0,60.0,40.0,False,,375.78673927296256,[],"[960, 540]",ColorTask,10.0,24.0,,,HRV,HRV_0225,2022-11-30 19:18:37
,wl-rdm,32,141144,0.0-6.24-0.24,0.0,33.0,,,,,,,[],,,,,,73.6,0.0,u,0.0,True,861.6000000238419,52.0,60.0,40.0,False,,349.4873283813624,[],"[960, 540]",ColorTask,11.0,25.0,,,HRV,HRV_0225,2022-11-30 19:18:37
,wl-rdm,33,143411,0.0-6.25-0.25,0.0,34.0,,,,,,,[],,,,,,53.2,1.0,i,1.0,True,982.9000000357628,59.0,60.0,40.0,False,,205.35286214307246,[],"[960, 540]",ColorTask,12.0,26.0,,,HRV,HRV_0225,2022-11-30 19:18:37
,wl-rdm,34,145744,0.0-6.26-0.26,0.0,35.0,,,,,,,[],,,,,,73.6,0.0,u,0.0,True,919.6999999880791,56.0,60.0,40.0,False,,324.68762194074344,[],"[960, 540]",ColorTask,13.0,27.0,,,HRV,HRV_0225,2022-11-30 19:18:37
,wl-rdm,35,147994,0.0-6.27-0.27,0.0,36.0,,,,,,,[],,,,,,73.6,1.0,i,1.0,True,836.8000000119209,51.0,60.0,40.0,False,,326.8289357315341,[],"[960, 540]",ColorTask,14.0,28.0,,,HRV,HRV_0225,2022-11-30 19:18:37
,wl-rdm,36,150278,0.0-6.28-0.28,0.0,37.0,,,,,,,[],,,,,,62.5,1.0,i,1.0,True,834.3000000119209,51.0,60.0,40.0,False,,353.63162640187534,[],"[960, 540]",ColorTask,15.0,29.0,,,HRV,HRV_0225,2022-11-30 19:18:37
,wl-rdm,37,152878,0.0-6.29-0.29,0.0,38.0,,,,,,,[],,,,,,53.2,1.0,u,0.0,False,1189.2999999523163,72.0,60.0,40.0,False,,329.4166207601363,[],"[960, 540]",ColorTask,14.0,30.0,,,HRV,HRV_0225,2022-11-30 19:18:37
,wl-rdm,38,155161,0.0-6.30-0.30,0.0,39.0,,,,,,,[],,,,,,87.9,0.0,u,0.0,True,842.0,51.0,60.0,40.0,False,,355.51743204470574,[],"[960, 540]",ColorTask,15.0,31.0,,,HRV,HRV_0225,2022-11-30 19:18:37
,wl-rdm,39,157561,0.0-6.31-0.31,0.0,40.0,,,,,,,[],,,,,,50.0,1.0,u,0.0,False,1067.300000011921,64.0,60.0,40.0,False,,265.43442587227185,[],"[960, 540]",ColorTask,14.0,32.0,,,HRV,HRV_0225,2022-11-30 19:18:37
,wl-rdm,40,160044,0.0-6.32-0.32,0.0,41.0,,,,,,,[],,,,,,53.2,0.0,i,1.0,False,1136.7999999523163,69.0,60.0,40.0,False,,264.35461372824443,[],"[960, 540]",ColorTask,13.0,33.0,,,HRV,HRV_0225,2022-11-30 19:18:37
,wl-rdm,41,162328,0.0-6.33-0.33,0.0,42.0,,,,,,,[],,,,,,50.0,1.0,i,1.0,True,912.5,55.0,60.0,40.0,False,,309.11024144602794,[],"[960, 540]",ColorTask,14.0,34.0,,,HRV,HRV_0225,2022-11-30 19:18:37
,wl-rdm,42,164462,0.0-6.34-0.34,0.0,43.0,,,,,,,[],,,,,,73.6,0.0,u,0.0,True,848.2000000476837,51.0,60.0,40.0,False,,225.05360318102157,[],"[960, 540]",ColorTask,15.0,35.0,,,HRV,HRV_0225,2022-11-30 19:18:37
,wl-rdm,43,166794,0.0-6.35-0.35,0.0,44.0,,,,,,,[],,,,,,62.5,0.0,u,0.0,True,1024.0999999642372,62.0,60.0,40.0,False,,217.10672817382118,[],"[960, 540]",ColorTask,16.0,36.0,,,HRV,HRV_0225,2022-11-30 19:18:37
,wl-rdm,44,169095,0.0-6.36-0.36,0.0,45.0,,,,,,,[],,,,,,73.6,0.0,u,0.0,True,865.8000000119209,52.0,60.0,40.0,False,,382.9764762439203,[],"[960, 540]",ColorTask,17.0,37.0,,,HRV,HRV_0225,2022-11-30 19:18:37
,wl-rdm,45,171278,0.0-6.37-0.37,0.0,46.0,,,,,,,[],,,,,,73.6,0.0,u,0.0,True,716.4000000357628,44.0,60.0,40.0,False,,386.9646272958092,[],"[960, 540]",ColorTask,18.0,38.0,,,HRV,HRV_0225,2022-11-30 19:18:37
,wl-rdm,46,173345,0.0-6.38-0.38,0.0,47.0,,,,,,,[],,,,,,87.9,1.0,i,1.0,True,705.6000000238419,43.0,60.0,40.0,False,,286.75668736174794,[],"[960, 540]",ColorTask,19.0,39.0,,,HRV,HRV_0225,2022-11-30 19:18:37
,wl-rdm,47,175528,0.0-6.39-0.39,0.0,48.0,,,,,,,[],,,,,,53.2,1.0,i,1.0,True,885.7000000476837,54.0,60.0,40.0,False,,229.82943296738438,[],"[960, 540]",ColorTask,20.0,40.0,,,HRV,HRV_0225,2022-11-30 19:18:37
,wl-rdm,48,177478,0.0-6.40-0.40,0.0,49.0,,,,,,,[],,,,,,73.6,0.0,u,0.0,True,614.9000000357628,37.0,60.0,40.0,False,,255.18796894156634,[],"[960, 540]",ColorTask,21.0,41.0,,,HRV,HRV_0225,2022-11-30 19:18:37
,wl-rdm,49,179928,0.0-6.41-0.41,0.0,50.0,,,,,,,[],,,,,,62.5,0.0,i,1.0,False,1003.1000000238419,61.0,60.0,40.0,False,,357.0013561081343,[],"[960, 540]",ColorTask,20.0,42.0,,,HRV,HRV_0225,2022-11-30 19:18:37
,wl-rdm,50,182045,0.0-6.42-0.42,0.0,51.0,,,,,,,[],,,,,,87.9,0.0,u,0.0,True,655.3999999761581,40.0,60.0,40.0,False,,372.3388990817097,[],"[960, 540]",ColorTask,21.0,43.0,,,HRV,HRV_0225,2022-11-30 19:18:37
,wl-rdm,51,184729,0.0-6.43-0.43,0.0,52.0,,,,,,,[],,,,,,50.0,1.0,u,0.0,False,1425.1000000238419,86.0,60.0,40.0,False,,200.23264966940295,[],"[960, 540]",ColorTask,20.0,44.0,,,HRV,HRV_0225,2022-11-30 19:18:37
,wl-rdm,52,187145,0.0-6.44-0.44,0.0,53.0,,,,,,,[],,,,,,62.5,0.0,u,0.0,True,1092.0,66.0,60.0,40.0,False,,245.29919904919316,[],"[960, 540]",ColorTask,21.0,45.0,,,HRV,HRV_0225,2022-11-30 19:18:37
,wl-rdm,53,189446,0.0-6.45-0.45,0.0,54.0,,,,,,,[],,,,,,73.6,0.0,u,0.0,True,969.2000000476837,59.0,60.0,40.0,False,,242.03811503759806,[],"[960, 540]",ColorTask,22.0,46.0,,,HRV,HRV_0225,2022-11-30 19:18:37
,wl-rdm,54,191929,0.0-6.46-0.46,0.0,55.0,,,,,,,[],,,,,,56.4,0.0,u,0.0,True,1155.3999999761581,70.0,60.0,40.0,False,,244.6791659616368,[],"[960, 540]",ColorTask,23.0,47.0,,,HRV,HRV_0225,2022-11-30 19:18:37
,wl-rdm,55,194129,0.0-6.47-0.47,0.0,56.0,,,,,,,[],,,,,,56.4,1.0,i,1.0,True,871.8000000715256,53.0,60.0,40.0,False,,259.9842631047131,[],"[960, 540]",ColorTask,24.0,48.0,,,HRV,HRV_0225,2022-11-30 19:18:37
,wl-rdm,56,196446,0.0-6.48-0.48,0.0,57.0,,,,,,,[],,,,,,50.0,0.0,i,1.0,False,1023.3999999761581,62.0,60.0,40.0,False,,205.1431985101945,[],"[960, 540]",ColorTask,23.0,49.0,,,HRV,HRV_0225,2022-11-30 19:18:37
,wl-rdm,57,198846,0.0-6.49-0.49,0.0,58.0,,,,,,,[],,,,,,53.2,1.0,u,0.0,False,1039.6000000238419,63.0,60.0,40.0,False,,296.6118279022998,[],"[960, 540]",ColorTask,22.0,50.0,,,HRV,HRV_0225,2022-11-30 19:18:37
,wl-rdm,58,201096,0.0-6.50-0.50,0.0,59.0,,,,,,,[],,,,,,56.4,1.0,i,1.0,True,778.3999999761581,47.0,60.0,40.0,False,,390.30686558408195,[],"[960, 540]",ColorTask,23.0,51.0,,,HRV,HRV_0225,2022-11-30 19:18:37
,wl-rdm,59,203113,0.0-6.51-0.51,0.0,60.0,,,,,,,[],,,,,,87.9,1.0,i,1.0,True,689.2000000476837,42.0,60.0,40.0,False,,249.88101714444477,[],"[960, 540]",ColorTask,24.0,52.0,,,HRV,HRV_0225,2022-11-30 19:18:37
,wl-rdm,60,205163,0.0-6.52-0.52,0.0,61.0,,,,,,,[],,,,,,73.6,1.0,i,1.0,True,766.8000000715256,46.0,60.0,40.0,False,,203.25092876698463,[],"[960, 540]",ColorTask,25.0,53.0,,,HRV,HRV_0225,2022-11-30 19:18:37
,wl-rdm,61,207747,0.0-6.53-0.53,0.0,62.0,,,,,,,[],,,,,,62.5,0.0,u,0.0,True,1216.8999999761581,73.0,60.0,40.0,False,,297.2304066564274,[],"[960, 540]",ColorTask,26.0,54.0,,,HRV,HRV_0225,2022-11-30 19:18:37
,wl-rdm,62,210130,0.0-6.54-0.54,0.0,63.0,,,,,,,[],,,,,,50.0,0.0,i,1.0,False,1056.0,64.0,60.0,40.0,False,,246.37114674049386,[],"[960, 540]",ColorTask,25.0,55.0,,,HRV,HRV_0225,2022-11-30 19:18:37
,wl-rdm,63,212230,0.0-6.55-0.55,0.0,64.0,,,,,,,[],,,,,,87.9,0.0,i,1.0,False,791.5999999642372,48.0,60.0,40.0,False,,238.39985363355535,[],"[960, 540]",ColorTask,24.0,56.0,,,HRV,HRV_0225,2022-11-30 19:18:37
,wl-rdm,64,214664,0.0-6.56-0.56,0.0,65.0,,,,,,,[],,,,,,62.5,1.0,i,1.0,True,1131.7999999523163,68.0,60.0,40.0,False,,226.75809530569995,[],"[960, 540]",ColorTask,25.0,57.0,,,HRV,HRV_0225,2022-11-30 19:18:37
,wl-rdm,65,217080,0.0-6.57-0.57,0.0,66.0,,,,,,,[],,,,,,53.2,1.0,i,1.0,True,1053.8999999165535,64.0,60.0,40.0,False,,266.836773439745,[],"[960, 540]",ColorTask,26.0,58.0,,,HRV,HRV_0225,2022-11-30 19:18:37
,wl-rdm,66,219397,0.0-6.58-0.58,0.0,67.0,,,,,,,[],,,,,,53.2,0.0,u,0.0,True,1035.300000011921,63.0,60.0,40.0,False,,209.6473349909568,[],"[960, 540]",ColorTask,27.0,59.0,,,HRV,HRV_0225,2022-11-30 19:18:37
,wl-rdm,67,222014,0.0-6.59-0.59,0.0,68.0,,,,,,,[],,,,,,50.0,0.0,i,1.0,False,1255.7000000476837,76.0,60.0,40.0,False,,268.3487096965034,[],"[960, 540]",ColorTask,26.0,60.0,,,HRV,HRV_0225,2022-11-30 19:18:37
,wl-rdm,68,224264,0.0-6.60-0.60,0.0,69.0,,,,,,,[],,,,,,73.6,1.0,i,1.0,True,826.9000000357628,50.0,60.0,40.0,False,,355.08046123759914,[],"[960, 540]",ColorTask,27.0,61.0,,,HRV,HRV_0225,2022-11-30 19:18:37
,wl-rdm,69,226414,0.0-6.61-0.61,0.0,70.0,,,,,,,[],,,,,,87.9,1.0,i,1.0,True,797.9000000357628,48.0,60.0,40.0,False,,275.7162211623078,[],"[960, 540]",ColorTask,28.0,62.0,,,HRV,HRV_0225,2022-11-30 19:18:37
,wl-rdm,70,228781,0.0-6.62-0.62,0.0,71.0,,,,,,,[],,,,,,56.4,0.0,u,0.0,True,1085.0,66.0,60.0,40.0,False,,205.92395970049333,[],"[960, 540]",ColorTask,29.0,63.0,,,HRV,HRV_0225,2022-11-30 19:18:37
,wl-rdm,71,230864,0.0-6.63-0.63,0.0,72.0,,,,,,,[],,,,,,87.9,1.0,i,1.0,True,748.8999999761581,45.0,60.0,40.0,False,,264.18267776994793,[],"[960, 540]",ColorTask,30.0,64.0,,,HRV,HRV_0225,2022-11-30 19:18:37
,wl-rdm,72,232847,0.0-6.64-0.64,0.0,73.0,,,,,,,[],,,,,,73.6,0.0,u,0.0,True,661.5,40.0,60.0,40.0,False,,251.12585179197114,[],"[960, 540]",ColorTask,31.0,65.0,,,HRV,HRV_0225,2022-11-30 19:18:37
,wl-rdm,73,234997,0.0-6.65-0.65,0.0,74.0,,,,,,,[],,,,,,87.9,1.0,i,1.0,True,697.7999999523163,42.0,60.0,40.0,False,,375.8935683602656,[],"[960, 540]",ColorTask,32.0,66.0,,,HRV,HRV_0225,2022-11-30 19:18:37
,wl-rdm,74,237314,0.0-6.66-0.66,0.0,75.0,,,,,,,[],,,,,,62.5,1.0,i,1.0,True,1014.8999999761581,61.0,60.0,40.0,False,,233.72273969073677,[],"[960, 540]",ColorTask,33.0,67.0,,,HRV,HRV_0225,2022-11-30 19:18:37
,wl-rdm,75,239781,0.0-6.67-0.67,0.0,76.0,,,,,,,[],,,,,,53.2,0.0,i,1.0,False,1024.0,62.0,60.0,40.0,False,,365.0766190791935,[],"[960, 540]",ColorTask,32.0,68.0,,,HRV,HRV_0225,2022-11-30 19:18:37
,wl-rdm,76,242564,0.0-6.68-0.68,0.0,77.0,,,,,,,[],,,,,,56.4,0.0,u,0.0,True,1351.1000000238419,82.0,60.0,40.0,False,,347.68462462191246,[],"[960, 540]",ColorTask,33.0,69.0,,,HRV,HRV_0225,2022-11-30 19:18:37
,wl-rdm,77,244965,0.0-6.69-0.69,0.0,78.0,,,,,,,[],,,,,,56.4,0.0,u,0.0,True,959.6999999880791,58.0,60.0,40.0,False,,362.97249011322293,[],"[960, 540]",ColorTask,34.0,70.0,,,HRV,HRV_0225,2022-11-30 19:18:37
,wl-rdm,78,247315,0.0-6.70-0.70,0.0,79.0,,,,,,,[],,,,,,56.4,1.0,i,1.0,True,1050.199999988079,63.0,60.0,40.0,False,,229.935774720306,[],"[960, 540]",ColorTask,35.0,71.0,,,HRV,HRV_0225,2022-11-30 19:18:37
,wl-rdm,79,249981,0.0-6.71-0.71,0.0,80.0,,,,,,,[],,,,,,50.0,0.0,i,1.0,False,1347.8999999761581,81.0,60.0,40.0,False,,236.72492004847186,[],"[960, 540]",ColorTask,34.0,72.0,,,HRV,HRV_0225,2022-11-30 19:18:37
,wl-rdm,80,252265,0.0-6.72-0.72,0.0,81.0,,,,,,,[],,,,,,53.2,0.0,u,0.0,True,977.2000000476837,59.0,60.0,40.0,False,,233.63322453058794,[],"[960, 540]",ColorTask,35.0,73.0,,,HRV,HRV_0225,2022-11-30 19:18:37
,wl-rdm,81,254848,0.0-6.73-0.73,0.0,82.0,,,,,,,[],,,,,,62.5,0.0,u,0.0,True,1289.0,78.0,60.0,40.0,False,,216.11102267961257,[],"[960, 540]",ColorTask,36.0,74.0,,,HRV,HRV_0225,2022-11-30 19:18:37
,wl-rdm,82,256965,0.0-6.74-0.74,0.0,83.0,,,,,,,[],,,,,,62.5,1.0,i,1.0,True,836.2000000476837,51.0,60.0,40.0,False,,200.0813739068534,[],"[960, 540]",ColorTask,37.0,75.0,,,HRV,HRV_0225,2022-11-30 19:18:37
,wl-rdm,83,259848,0.0-6.75-0.75,0.0,84.0,,,,,,,[],,,,,,50.0,0.0,i,1.0,False,1422.6000000238419,86.0,60.0,40.0,False,,371.3803540806281,[],"[960, 540]",ColorTask,36.0,76.0,,,HRV,HRV_0225,2022-11-30 19:18:37
,wl-rdm,84,261932,0.0-6.76-0.76,0.0,85.0,,,,,,,[],,,,,,73.6,1.0,i,1.0,True,786.1000000238419,48.0,60.0,40.0,False,,212.5638899579637,[],"[960, 540]",ColorTask,37.0,77.0,,,HRV,HRV_0225,2022-11-30 19:18:37
,wl-rdm,85,264149,0.0-6.77-0.77,0.0,86.0,,,,,,,[],,,,,,50.0,1.0,i,1.0,True,887.3999999761581,54.0,60.0,40.0,False,,251.72478552748586,[],"[960, 540]",ColorTask,38.0,78.0,,,HRV,HRV_0225,2022-11-30 19:18:37
,wl-rdm,86,266216,0.0-6.78-0.78,0.0,87.0,,,,,,,[],,,,,,50.0,0.0,u,0.0,True,782.5999999642372,47.0,60.0,40.0,False,,218.60418997916497,[],"[960, 540]",ColorTask,39.0,79.0,,,HRV,HRV_0225,2022-11-30 19:18:37
,wl-rdm,87,268716,0.0-6.79-0.79,0.0,88.0,,,,,,,[],,,,,,62.5,1.0,i,1.0,True,1202.0,73.0,60.0,40.0,False,,207.21797934684497,[],"[960, 540]",ColorTask,40.0,80.0,,,HRV,HRV_0225,2022-11-30 19:18:37
,wl-rdm,88,271149,0.0-6.80-0.80,0.0,89.0,,,,,,,[],,,,,,87.9,0.0,u,0.0,True,958.0,58.0,60.0,40.0,False,,385.9455706753464,[],"[960, 540]",ColorTask,41.0,81.0,,,HRV,HRV_0225,2022-11-30 19:18:37
,wl-rdm,89,273383,0.0-6.81-0.81,0.0,90.0,,,,,,,[],,,,,,73.6,1.0,i,1.0,True,894.6999999880791,54.0,60.0,40.0,False,,250.95845109053073,[],"[960, 540]",ColorTask,42.0,82.0,,,HRV,HRV_0225,2022-11-30 19:18:37
,wl-rdm,90,276400,0.0-6.82-0.82,0.0,91.0,,,,,,,[],,,,,,56.4,1.0,i,1.0,True,1708.7000000476837,103.0,60.0,40.0,False,,227.61446707607595,[],"[960, 540]",ColorTask,43.0,83.0,,,HRV,HRV_0225,2022-11-30 19:18:37
,wl-rdm,91,278516,0.0-6.83-0.83,0.0,92.0,,,,,,,[],,,,,,87.9,1.0,i,1.0,True,695.6000000238419,42.0,60.0,40.0,False,,356.49137086867836,[],"[960, 540]",ColorTask,44.0,84.0,,,HRV,HRV_0225,2022-11-30 19:18:37
,wl-rdm,92,280650,0.0-6.84-0.84,0.0,93.0,,,,,,,[],,,,,,87.9,1.0,i,1.0,True,721.6000000238419,44.0,60.0,40.0,False,,318.2738242809704,[],"[960, 540]",ColorTask,45.0,85.0,,,HRV,HRV_0225,2022-11-30 19:18:37
,wl-rdm,93,283050,0.0-6.85-0.85,0.0,94.0,,,,,,,[],,,,,,62.5,0.0,u,0.0,True,1123.199999988079,68.0,60.0,40.0,False,,208.5426982007185,[],"[960, 540]",ColorTask,46.0,86.0,,,HRV,HRV_0225,2022-11-30 19:18:37
,wl-rdm,94,285267,0.0-6.86-0.86,0.0,95.0,,,,,,,[],,,,,,73.6,1.0,i,1.0,True,803.9000000357628,49.0,60.0,40.0,False,,324.3916237120657,[],"[960, 540]",ColorTask,47.0,87.0,,,HRV,HRV_0225,2022-11-30 19:18:37
,wl-rdm,95,287850,0.0-6.87-0.87,0.0,96.0,,,,,,,[],,,,,,56.4,0.0,u,0.0,True,1222.2999999523163,74.0,60.0,40.0,False,,267.91257732996394,[],"[960, 540]",ColorTask,48.0,88.0,,,HRV,HRV_0225,2022-11-30 19:18:37
,wl-rdm,96,290050,0.0-6.88-0.88,0.0,97.0,,,,,,,[],,,,,,73.6,1.0,i,1.0,True,819.6000000238419,50.0,60.0,40.0,False,,304.50826623642513,[],"[960, 540]",ColorTask,49.0,89.0,,,HRV,HRV_0225,2022-11-30 19:18:37
,wl-rdm,97,292284,0.0-6.89-0.89,0.0,98.0,,,,,,,[],,,,,,62.5,1.0,i,1.0,True,917.9999999403954,56.0,60.0,40.0,False,,229.54743642941457,[],"[960, 540]",ColorTask,50.0,90.0,,,HRV,HRV_0225,2022-11-30 19:18:37
,wl-rdm,98,294367,0.0-6.90-0.90,0.0,99.0,,,,,,,[],,,,,,56.4,0.0,u,0.0,True,674.5000000596046,41.0,60.0,40.0,False,,349.3300620181319,[],"[960, 540]",ColorTask,51.0,91.0,,,HRV,HRV_0225,2022-11-30 19:18:37
,wl-rdm,99,296617,0.0-6.91-0.91,0.0,100.0,,,,,,,[],,,,,,87.9,0.0,u,0.0,True,833.5,50.0,60.0,40.0,False,,345.3768417047361,[],"[960, 540]",ColorTask,52.0,92.0,,,HRV,HRV_0225,2022-11-30 19:18:37
,wl-rdm,100,298751,0.0-6.92-0.92,0.0,101.0,,,,,,,[],,,,,,73.6,0.0,u,0.0,True,751.9000000357628,46.0,60.0,40.0,False,,300.0855527508038,[],"[960, 540]",ColorTask,53.0,93.0,,,HRV,HRV_0225,2022-11-30 19:18:37
,wl-rdm,101,300868,0.0-6.93-0.93,0.0,102.0,,,,,,,[],,,,,,56.4,0.0,u,0.0,True,759.8999999761581,46.0,60.0,40.0,False,,279.190842951279,[],"[960, 540]",ColorTask,54.0,94.0,,,HRV,HRV_0225,2022-11-30 19:18:37
,wl-rdm,102,303401,0.0-6.94-0.94,0.0,103.0,,,,,,,[],,,,,,50.0,1.0,u,0.0,False,1068.5000000596046,65.0,60.0,40.0,False,,374.3742298467704,[],"[960, 540]",ColorTask,53.0,95.0,,,HRV,HRV_0225,2022-11-30 19:18:37
,wl-rdm,103,305501,0.0-6.95-0.95,0.0,104.0,,,,,,,[],,,,,,73.6,1.0,i,1.0,True,793.0000000596046,48.0,60.0,40.0,False,,224.9348076702276,[],"[960, 540]",ColorTask,54.0,96.0,,,HRV,HRV_0225,2022-11-30 19:18:37
,wl-rdm,104,307384,0.0-6.96-0.96,0.0,105.0,,,,,,,[],,,,,,87.9,1.0,i,1.0,True,614.1999999880791,37.0,60.0,40.0,False,,201.30397464122828,[],"[960, 540]",ColorTask,55.0,97.0,,,HRV,HRV_0225,2022-11-30 19:18:37
,wl-rdm,105,309535,0.0-6.97-0.97,0.0,106.0,,,,,,,[],,,,,,56.4,1.0,u,0.0,False,828.5999999642372,50.0,60.0,40.0,False,,254.97780696362838,[],"[960, 540]",ColorTask,54.0,98.0,,,HRV,HRV_0225,2022-11-30 19:18:37
,wl-rdm,106,311934,0.0-6.98-0.98,0.0,107.0,,,,,,,[],,,,,,62.5,1.0,i,1.0,True,1007.9000000357628,61.0,60.0,40.0,False,,329.44951024904935,[],"[960, 540]",ColorTask,55.0,99.0,,,HRV,HRV_0225,2022-11-30 19:18:37
,wl-rdm,107,314418,0.0-6.99-0.99,0.0,108.0,,,,,,,[],,,,,,50.0,0.0,i,1.0,False,1135.6000000238419,69.0,60.0,40.0,False,,270.11616067428133,[],"[960, 540]",ColorTask,54.0,100.0,,,HRV,HRV_0225,2022-11-30 19:18:37
,wl-rdm,108,316818,0.0-6.100-0.100,0.0,109.0,,,,,,,[],,,,,,56.4,0.0,u,0.0,True,1044.3999999761581,63.0,60.0,40.0,False,,280.24466214901844,[],"[960, 540]",ColorTask,55.0,101.0,,,HRV,HRV_0225,2022-11-30 19:18:37
,wl-rdm,109,319320,0.0-6.101-0.101,0.0,110.0,,,,,,,[],,,,,,53.2,1.0,u,0.0,False,1158.800000011921,70.0,60.0,40.0,False,,279.5034943575642,[],"[960, 540]",ColorTask,54.0,102.0,,,HRV,HRV_0225,2022-11-30 19:18:37
,wl-rdm,110,321785,0.0-6.102-0.102,0.0,111.0,,,,,,,[],,,,,,53.2,1.0,i,1.0,True,1084.8999999761581,66.0,60.0,40.0,False,,284.71142668362774,[],"[960, 540]",ColorTask,55.0,103.0,,,HRV,HRV_0225,2022-11-30 19:18:37
,wl-rdm,111,324102,0.0-6.103-0.103,0.0,112.0,,,,,,,[],,,,,,56.4,1.0,i,1.0,True,1007.5999999642372,61.0,60.0,40.0,False,,243.08633490898194,[],"[960, 540]",ColorTask,56.0,104.0,,,HRV,HRV_0225,2022-11-30 19:18:37
,wl-rdm,112,326335,0.0-6.104-0.104,0.0,113.0,,,,,,,[],,,,,,53.2,0.0,u,0.0,True,778.3000000119209,47.0,60.0,40.0,False,,398.6323410721493,[],"[960, 540]",ColorTask,57.0,105.0,,,HRV,HRV_0225,2022-11-30 19:18:37
,wl-rdm,113,328702,0.0-6.105-0.105,0.0,114.0,,,,,,,[],,,,,,62.5,0.0,u,0.0,True,997.1999999880791,60.0,60.0,40.0,False,,305.1187718720775,[],"[960, 540]",ColorTask,58.0,106.0,,,HRV,HRV_0225,2022-11-30 19:18:37
,wl-rdm,114,331269,0.0-6.106-0.106,0.0,115.0,,,,,,,[],,,,,,50.0,1.0,i,1.0,True,1107.5,67.0,60.0,40.0,False,,385.0705757349046,[],"[960, 540]",ColorTask,59.0,107.0,,,HRV,HRV_0225,2022-11-30 19:18:37
,wl-rdm,115,333452,0.0-6.107-0.107,0.0,116.0,,,,,,,[],,,,,,62.5,1.0,u,0.0,False,848.9000000357628,51.0,60.0,40.0,False,,263.7182570598944,[],"[960, 540]",ColorTask,58.0,108.0,,,HRV,HRV_0225,2022-11-30 19:18:37
,wl-html-keyboard-response,116,365047,0.0-7.0-0.0,1.0,117.0,,,,,,,,29589.69999998808,1.0,0,,,,,,,,,,,,,,,,,,,,,,HRV,HRV_0225,2022-11-30 19:18:37
,wl-rdm,117,367753,0.0-8.0-0.0,1.0,118.0,,,,,,,[],,,,,,50.0,1.0,u,0.0,False,1329.2000000476837,80.0,60.0,40.0,False,,300.83446919880384,[],"[960, 540]",ColorTask,57.0,1.0,,,HRV,HRV_0225,2022-11-30 19:18:37
,wl-rdm,118,369954,0.0-8.1-0.1,1.0,119.0,,,,,,,[],,,,,,73.6,1.0,i,1.0,True,871.6999999284744,53.0,60.0,40.0,False,,256.33794202192627,[],"[960, 540]",ColorTask,58.0,2.0,,,HRV,HRV_0225,2022-11-30 19:18:37
,wl-rdm,119,372070,0.0-8.2-0.2,1.0,120.0,,,,,,,[],,,,,,53.2,0.0,u,0.0,True,791.7999999523163,48.0,60.0,40.0,False,,239.56952062368194,[],"[960, 540]",ColorTask,59.0,3.0,,,HRV,HRV_0225,2022-11-30 19:18:37
,wl-rdm,120,374454,0.0-8.3-0.3,1.0,121.0,,,,,,,[],,,,,,62.5,1.0,i,1.0,True,918.0999999642372,56.0,60.0,40.0,False,,396.07169006996264,[],"[960, 540]",ColorTask,60.0,4.0,,,HRV,HRV_0225,2022-11-30 19:18:37
,wl-rdm,121,376772,0.0-8.4-0.4,1.0,122.0,,,,,,,[],,,,,,50.0,1.0,u,0.0,False,909.0999999642372,55.0,60.0,40.0,False,,318.67440934644753,[],"[960, 540]",ColorTask,59.0,5.0,,,HRV,HRV_0225,2022-11-30 19:18:37
,wl-rdm,122,379037,0.0-8.5-0.5,1.0,123.0,,,,,,,[],,,,,,56.4,0.0,u,0.0,True,952.1000000238419,58.0,60.0,40.0,False,,240.27106401589714,[],"[960, 540]",ColorTask,60.0,6.0,,,HRV,HRV_0225,2022-11-30 19:18:37
,wl-rdm,123,381287,0.0-8.6-0.6,1.0,124.0,,,,,,,[],,,,,,62.5,1.0,i,1.0,True,806.9000000357628,49.0,60.0,40.0,False,,364.05665964691536,[],"[960, 540]",ColorTask,61.0,7.0,,,HRV,HRV_0225,2022-11-30 19:18:37
,wl-rdm,124,383487,0.0-8.7-0.7,1.0,125.0,,,,,,,[],,,,,,62.5,0.0,u,0.0,True,786.8000000715256,48.0,60.0,40.0,False,,320.2105741470569,[],"[960, 540]",ColorTask,62.0,8.0,,,HRV,HRV_0225,2022-11-30 19:18:37
,wl-rdm,125,385637,0.0-8.8-0.8,1.0,126.0,,,,,,,[],,,,,,50.0,0.0,i,1.0,False,842.3000000715256,51.0,60.0,40.0,False,,242.06497609492226,[],"[960, 540]",ColorTask,61.0,9.0,,,HRV,HRV_0225,2022-11-30 19:18:37
,wl-rdm,126,388104,0.0-8.9-0.9,1.0,127.0,,,,,,,[],,,,,,53.2,0.0,u,0.0,True,1049.5,63.0,60.0,40.0,False,,340.9431881834226,[],"[960, 540]",ColorTask,62.0,10.0,,,HRV,HRV_0225,2022-11-30 19:18:37
,wl-rdm,127,390154,0.0-8.10-0.10,1.0,128.0,,,,,,,[],,,,,,73.6,0.0,u,0.0,True,755.0000000596046,46.0,60.0,40.0,False,,204.08472923957774,[],"[960, 540]",ColorTask,63.0,11.0,,,HRV,HRV_0225,2022-11-30 19:18:37
,wl-rdm,128,392654,0.0-8.11-0.11,1.0,129.0,,,,,,,[],,,,,,53.2,0.0,u,0.0,True,1178.5,71.0,60.0,40.0,False,,244.77015569542175,[],"[960, 540]",ColorTask,64.0,12.0,,,HRV,HRV_0225,2022-11-30 19:18:37
,wl-rdm,129,394704,0.0-8.12-0.12,1.0,130.0,,,,,,,[],,,,,,53.2,0.0,u,0.0,True,752.0000000596046,46.0,60.0,40.0,False,,200.20652643701106,[],"[960, 540]",ColorTask,65.0,13.0,,,HRV,HRV_0225,2022-11-30 19:18:37
,wl-rdm,130,396771,0.0-8.13-0.13,1.0,131.0,,,,,,,[],,,,,,87.9,1.0,i,1.0,True,639.5000000596046,39.0,60.0,40.0,False,,337.9887780239326,[],"[960, 540]",ColorTask,66.0,14.0,,,HRV,HRV_0225,2022-11-30 19:18:37
,wl-rdm,131,399138,0.0-8.14-0.14,1.0,132.0,,,,,,,[],,,,,,53.2,1.0,u,0.0,False,1080.800000011921,65.0,60.0,40.0,False,,202.64804261527567,[],"[960, 540]",ColorTask,65.0,15.0,,,HRV,HRV_0225,2022-11-30 19:18:37
,wl-rdm,132,401504,0.0-8.15-0.15,1.0,133.0,,,,,,,[],,,,,,53.2,0.0,u,0.0,True,1054.2000000476837,64.0,60.0,40.0,False,,228.41669374395786,[],"[960, 540]",ColorTask,66.0,16.0,,,HRV,HRV_0225,2022-11-30 19:18:37
,wl-rdm,133,403638,0.0-8.16-0.16,1.0,134.0,,,,,,,[],,,,,,73.6,1.0,i,1.0,True,725.0,44.0,60.0,40.0,False,,324.90759790659683,[],"[960, 540]",ColorTask,67.0,17.0,,,HRV,HRV_0225,2022-11-30 19:18:37
,wl-rdm,134,405971,0.0-8.17-0.17,1.0,135.0,,,,,,,[],,,,,,50.0,0.0,u,0.0,True,872.0,53.0,60.0,40.0,False,,380.8065333314871,[],"[960, 540]",ColorTask,68.0,18.0,,,HRV,HRV_0225,2022-11-30 19:18:37
,wl-rdm,135,407855,0.0-8.18-0.18,1.0,136.0,,,,,,,[],,,,,,87.9,0.0,u,0.0,True,589.3999999761581,36.0,60.0,40.0,False,,208.37955575255125,[],"[960, 540]",ColorTask,69.0,19.0,,,HRV,HRV_0225,2022-11-30 19:18:37
,wl-rdm,136,409788,0.0-8.19-0.19,1.0,137.0,,,,,,,[],,,,,,87.9,0.0,u,0.0,True,640.0999999642372,39.0,60.0,40.0,False,,221.51703459972927,[],"[960, 540]",ColorTask,70.0,20.0,,,HRV,HRV_0225,2022-11-30 19:18:37
,wl-rdm,137,411855,0.0-8.20-0.20,1.0,138.0,,,,,,,[],,,,,,53.2,0.0,u,0.0,True,732.1000000238419,44.0,60.0,40.0,False,,257.78187206082487,[],"[960, 540]",ColorTask,71.0,21.0,,,HRV,HRV_0225,2022-11-30 19:18:37
,wl-rdm,138,414038,0.0-8.21-0.21,1.0,139.0,,,,,,,[],,,,,,50.0,1.0,u,0.0,False,885.7000000476837,54.0,60.0,40.0,False,,221.68095477792417,[],"[960, 540]",ColorTask,70.0,22.0,,,HRV,HRV_0225,2022-11-30 19:18:37
,wl-rdm,139,416372,0.0-8.22-0.22,1.0,140.0,,,,,,,[],,,,,,53.2,0.0,u,0.0,True,954.3000000119209,58.0,60.0,40.0,False,,298.30104571794726,[],"[960, 540]",ColorTask,71.0,23.0,,,HRV,HRV_0225,2022-11-30 19:18:37
,wl-rdm,140,418256,0.0-8.23-0.23,1.0,141.0,,,,,,,[],,,,,,87.9,0.0,u,0.0,True,593.7999999523163,36.0,60.0,40.0,False,,225.2468984906398,[],"[960, 540]",ColorTask,72.0,24.0,,,HRV,HRV_0225,2022-11-30 19:18:37
,wl-rdm,141,420389,0.0-8.24-0.24,1.0,142.0,,,,,,,[],,,,,,73.6,0.0,u,0.0,True,684.6000000238419,42.0,60.0,40.0,False,,382.3934817668545,[],"[960, 540]",ColorTask,73.0,25.0,,,HRV,HRV_0225,2022-11-30 19:18:37
,wl-rdm,142,422356,0.0-8.25-0.25,1.0,143.0,,,,,,,[],,,,,,73.6,0.0,u,0.0,True,603.5000000596046,37.0,60.0,40.0,False,,286.3025603109917,[],"[960, 540]",ColorTask,74.0,26.0,,,HRV,HRV_0225,2022-11-30 19:18:37
,wl-rdm,143,424256,0.0-8.26-0.26,1.0,144.0,,,,,,,[],,,,,,87.9,1.0,i,1.0,True,622.1999999880791,38.0,60.0,40.0,False,,211.99350518773934,[],"[960, 540]",ColorTask,75.0,27.0,,,HRV,HRV_0225,2022-11-30 19:18:37
,wl-rdm,144,426422,0.0-8.27-0.27,1.0,145.0,,,,,,,[],,,,,,56.4,0.0,u,0.0,True,728.5,44.0,60.0,40.0,False,,356.9632856405767,[],"[960, 540]",ColorTask,76.0,28.0,,,HRV,HRV_0225,2022-11-30 19:18:37
,wl-rdm,145,428606,0.0-8.28-0.28,1.0,146.0,,,,,,,[],,,,,,62.5,0.0,u,0.0,True,715.8000000119209,43.0,60.0,40.0,False,,398.1804123103587,[],"[960, 540]",ColorTask,77.0,29.0,,,HRV,HRV_0225,2022-11-30 19:18:37
,wl-rdm,146,430756,0.0-8.29-0.29,1.0,147.0,,,,,,,[],,,,,,56.4,1.0,i,1.0,True,808.0,49.0,60.0,40.0,False,,280.4724711195612,[],"[960, 540]",ColorTask,78.0,30.0,,,HRV,HRV_0225,2022-11-30 19:18:37
,wl-rdm,147,432806,0.0-8.30-0.30,1.0,148.0,,,,,,,[],,,,,,50.0,0.0,u,0.0,True,748.3999999761581,45.0,60.0,40.0,False,,239.582282411374,[],"[960, 540]",ColorTask,79.0,31.0,,,HRV,HRV_0225,2022-11-30 19:18:37
,wl-rdm,148,434739,0.0-8.31-0.31,1.0,149.0,,,,,,,[],,,,,,87.9,0.0,u,0.0,True,589.5,36.0,60.0,40.0,False,,251.03288807106702,[],"[960, 540]",ColorTask,80.0,32.0,,,HRV,HRV_0225,2022-11-30 19:18:37
,wl-rdm,149,436673,0.0-8.32-0.32,1.0,150.0,,,,,,,[],,,,,,87.9,1.0,i,1.0,True,617.0999999642372,37.0,60.0,40.0,False,,239.00423807668315,[],"[960, 540]",ColorTask,81.0,33.0,,,HRV,HRV_0225,2022-11-30 19:18:37
,wl-rdm,150,438656,0.0-8.33-0.33,1.0,151.0,,,,,,,[],,,,,,62.5,0.0,u,0.0,True,632.3000000119209,38.0,60.0,40.0,False,,277.97836568613474,[],"[960, 540]",ColorTask,82.0,34.0,,,HRV,HRV_0225,2022-11-30 19:18:37
,wl-rdm,151,440789,0.0-8.34-0.34,1.0,152.0,,,,,,,[],,,,,,73.6,1.0,i,1.0,True,754.5000000596046,46.0,60.0,40.0,False,,289.35166752494814,[],"[960, 540]",ColorTask,83.0,35.0,,,HRV,HRV_0225,2022-11-30 19:18:37
,wl-rdm,152,442940,0.0-8.35-0.35,1.0,153.0,,,,,,,[],,,,,,73.6,1.0,i,1.0,True,827.1000000238419,50.0,60.0,40.0,False,,251.7135759503142,[],"[960, 540]",ColorTask,84.0,36.0,,,HRV,HRV_0225,2022-11-30 19:18:37
,wl-rdm,153,444857,0.0-8.36-0.36,1.0,154.0,,,,,,,[],,,,,,87.9,1.0,i,1.0,True,614.1000000238419,37.0,60.0,40.0,False,,223.2348002789934,[],"[960, 540]",ColorTask,85.0,37.0,,,HRV,HRV_0225,2022-11-30 19:18:37
,wl-rdm,154,446773,0.0-8.37-0.37,1.0,155.0,,,,,,,[],,,,,,56.4,1.0,u,0.0,False,597.9000000357628,36.0,60.0,40.0,False,,234.51977060287066,[],"[960, 540]",ColorTask,84.0,38.0,,,HRV,HRV_0225,2022-11-30 19:18:37
,wl-rdm,155,448940,0.0-8.38-0.38,1.0,156.0,,,,,,,[],,,,,,56.4,0.0,u,0.0,True,842.1999999880791,51.0,60.0,40.0,False,,252.20120911832203,[],"[960, 540]",ColorTask,85.0,39.0,,,HRV,HRV_0225,2022-11-30 19:18:37
,wl-rdm,156,451190,0.0-8.39-0.39,1.0,157.0,,,,,,,[],,,,,,50.0,1.0,u,0.0,False,821.5999999642372,50.0,60.0,40.0,False,,334.91557334524714,[],"[960, 540]",ColorTask,84.0,40.0,,,HRV,HRV_0225,2022-11-30 19:18:37
,wl-rdm,157,453225,0.0-8.40-0.40,1.0,158.0,,,,,,,[],,,,,,73.6,0.0,u,0.0,True,708.0000000596046,43.0,60.0,40.0,False,,247.28030987533603,[],"[960, 540]",ColorTask,85.0,41.0,,,HRV,HRV_0225,2022-11-30 19:18:37
,wl-rdm,158,455507,0.0-8.41-0.41,1.0,159.0,,,,,,,[],,,,,,56.4,0.0,u,0.0,True,987.6999999880791,60.0,60.0,40.0,False,,226.28735950531458,[],"[960, 540]",ColorTask,86.0,42.0,,,HRV,HRV_0225,2022-11-30 19:18:37
,wl-rdm,159,457507,0.0-8.42-0.42,1.0,160.0,,,,,,,[],,,,,,87.9,1.0,i,1.0,True,657.4999999403954,40.0,60.0,40.0,False,,276.23556252183835,[],"[960, 540]",ColorTask,87.0,43.0,,,HRV,HRV_0225,2022-11-30 19:18:37
,wl-rdm,160,459390,0.0-8.43-0.43,1.0,161.0,,,,,,,[],,,,,,87.9,1.0,i,1.0,True,585.3000000119209,36.0,60.0,40.0,False,,207.4936869512817,[],"[960, 540]",ColorTask,88.0,44.0,,,HRV,HRV_0225,2022-11-30 19:18:37
,wl-rdm,161,461357,0.0-8.44-0.44,1.0,162.0,,,,,,,[],,,,,,62.5,0.0,u,0.0,True,550.8999999761581,34.0,60.0,40.0,False,,324.8338138895889,[],"[960, 540]",ColorTask,89.0,45.0,,,HRV,HRV_0225,2022-11-30 19:18:37
,wl-rdm,162,464024,0.0-8.45-0.45,1.0,163.0,,,,,,,[],,,,,,50.0,0.0,u,0.0,True,1336.0,81.0,60.0,40.0,False,,233.61835481395164,[],"[960, 540]",ColorTask,90.0,46.0,,,HRV,HRV_0225,2022-11-30 19:18:37
,wl-rdm,163,466174,0.0-8.46-0.46,1.0,164.0,,,,,,,[],,,,,,62.5,0.0,u,0.0,True,871.0000000596046,53.0,60.0,40.0,False,,201.38504635494272,[],"[960, 540]",ColorTask,91.0,47.0,,,HRV,HRV_0225,2022-11-30 19:18:37
,wl-rdm,164,468308,0.0-8.47-0.47,1.0,165.0,,,,,,,[],,,,,,62.5,0.0,u,0.0,True,787.5,48.0,60.0,40.0,False,,266.6114424441448,[],"[960, 540]",ColorTask,92.0,48.0,,,HRV,HRV_0225,2022-11-30 19:18:37
,wl-rdm,165,470624,0.0-8.48-0.48,1.0,166.0,,,,,,,[],,,,,,73.6,1.0,i,1.0,True,941.0,57.0,60.0,40.0,False,,311.014532693188,[],"[960, 540]",ColorTask,93.0,49.0,,,HRV,HRV_0225,2022-11-30 19:18:37
,wl-rdm,166,472607,0.0-8.49-0.49,1.0,167.0,,,,,,,[],,,,,,73.6,0.0,u,0.0,True,674.0000000596046,41.0,60.0,40.0,False,,218.81040607137612,[],"[960, 540]",ColorTask,94.0,50.0,,,HRV,HRV_0225,2022-11-30 19:18:37
,wl-rdm,167,474691,0.0-8.50-0.50,1.0,168.0,,,,,,,[],,,,,,56.4,1.0,i,1.0,True,757.5,46.0,60.0,40.0,False,,246.85551003466412,[],"[960, 540]",ColorTask,95.0,51.0,,,HRV,HRV_0225,2022-11-30 19:18:37
,wl-rdm,168,476824,0.0-8.51-0.51,1.0,169.0,,,,,,,[],,,,,,50.0,0.0,u,0.0,True,728.8999999761581,44.0,60.0,40.0,False,,322.5143832834896,[],"[960, 540]",ColorTask,96.0,52.0,,,HRV,HRV_0225,2022-11-30 19:18:37
,wl-rdm,169,479008,0.0-8.52-0.52,1.0,170.0,,,,,,,[],,,,,,56.4,1.0,i,1.0,True,833.2999999523163,50.0,60.0,40.0,False,,273.5622045711277,[],"[960, 540]",ColorTask,97.0,53.0,,,HRV,HRV_0225,2022-11-30 19:18:37
,wl-rdm,170,481625,0.0-8.53-0.53,1.0,171.0,,,,,,,[],,,,,,62.5,1.0,u,0.0,False,1174.5,71.0,60.0,40.0,False,,376.87857676150037,[],"[960, 540]",ColorTask,96.0,54.0,,,HRV,HRV_0225,2022-11-30 19:18:37
,wl-rdm,171,484008,0.0-8.54-0.54,1.0,172.0,,,,,,,[],,,,,,56.4,1.0,i,1.0,True,1070.199999988079,65.0,60.0,40.0,False,,220.2597388248513,[],"[960, 540]",ColorTask,97.0,55.0,,,HRV,HRV_0225,2022-11-30 19:18:37
,wl-rdm,172,486125,0.0-8.55-0.55,1.0,173.0,,,,,,,[],,,,,,73.6,1.0,i,1.0,True,809.8000000715256,49.0,60.0,40.0,False,,237.32798278662688,[],"[960, 540]",ColorTask,98.0,56.0,,,HRV,HRV_0225,2022-11-30 19:18:37
,wl-rdm,173,488275,0.0-8.56-0.56,1.0,174.0,,,,,,,[],,,,,,62.5,1.0,i,1.0,True,723.6999999880791,44.0,60.0,40.0,False,,339.3634575628125,[],"[960, 540]",ColorTask,99.0,57.0,,,HRV,HRV_0225,2022-11-30 19:18:37
,wl-rdm,174,490342,0.0-8.57-0.57,1.0,175.0,,,,,,,[],,,,,,56.4,0.0,u,0.0,True,662.4000000357628,40.0,60.0,40.0,False,,346.78691057794435,[],"[960, 540]",ColorTask,100.0,58.0,,,HRV,HRV_0225,2022-11-30 19:18:37
,wl-rdm,175,492351,0.0-8.58-0.58,1.0,176.0,,,,,,,[],,,,,,62.5,0.0,u,0.0,True,690.8999999761581,42.0,60.0,40.0,False,,217.86558270655163,[],"[960, 540]",ColorTask,101.0,59.0,,,HRV,HRV_0225,2022-11-30 19:18:37
,wl-rdm,176,494342,0.0-8.59-0.59,1.0,177.0,,,,,,,[],,,,,,87.9,0.0,u,0.0,True,519.4000000357628,32.0,60.0,40.0,False,,378.52100143248595,[],"[960, 540]",ColorTask,102.0,60.0,,,HRV,HRV_0225,2022-11-30 19:18:37
,wl-rdm,177,496608,0.0-8.60-0.60,1.0,178.0,,,,,,,[],,,,,,53.2,1.0,i,1.0,True,853.9999999403954,52.0,60.0,40.0,False,,320.40673383374394,[],"[960, 540]",ColorTask,103.0,61.0,,,HRV,HRV_0225,2022-11-30 19:18:37
,wl-rdm,178,498758,0.0-8.61-0.61,1.0,179.0,,,,,,,[],,,,,,87.9,1.0,i,1.0,True,786.6000000238419,48.0,60.0,40.0,False,,273.7297576189786,[],"[960, 540]",ColorTask,104.0,62.0,,,HRV,HRV_0225,2022-11-30 19:18:37
,wl-rdm,179,500858,0.0-8.62-0.62,1.0,180.0,,,,,,,[],,,,,,62.5,0.0,u,0.0,True,667.8000000119209,41.0,60.0,40.0,False,,350.463192361272,[],"[960, 540]",ColorTask,105.0,63.0,,,HRV,HRV_0225,2022-11-30 19:18:37
,wl-rdm,180,502959,0.0-8.63-0.63,1.0,181.0,,,,,,,[],,,,,,73.6,0.0,u,0.0,True,702.0000000596046,43.0,60.0,40.0,False,,325.14358356153684,[],"[960, 540]",ColorTask,106.0,64.0,,,HRV,HRV_0225,2022-11-30 19:18:37
,wl-rdm,181,505159,0.0-8.64-0.64,1.0,182.0,,,,,,,[],,,,,,53.2,0.0,u,0.0,True,765.1000000238419,46.0,60.0,40.0,False,,369.86751339114926,[],"[960, 540]",ColorTask,107.0,65.0,,,HRV,HRV_0225,2022-11-30 19:18:37
,wl-rdm,182,507325,0.0-8.65-0.65,1.0,183.0,,,,,,,[],,,,,,53.2,1.0,i,1.0,True,788.1000000238419,48.0,60.0,40.0,False,,288.17263761135735,[],"[960, 540]",ColorTask,108.0,66.0,,,HRV,HRV_0225,2022-11-30 19:18:37
,wl-rdm,183,509559,0.0-8.66-0.66,1.0,184.0,,,,,,,[],,,,,,56.4,1.0,u,0.0,False,884.6000000238419,54.0,60.0,40.0,False,,259.18501905508293,[],"[960, 540]",ColorTask,107.0,67.0,,,HRV,HRV_0225,2022-11-30 19:18:37
,wl-rdm,184,511559,0.0-8.67-0.67,1.0,185.0,,,,,,,[],,,,,,50.0,1.0,u,0.0,False,585.3000000119209,36.0,60.0,40.0,False,,323.75083181458484,[],"[960, 540]",ColorTask,106.0,68.0,,,HRV,HRV_0225,2022-11-30 19:18:37
,wl-rdm,185,513659,0.0-8.68-0.68,1.0,186.0,,,,,,,[],,,,,,87.9,1.0,i,1.0,True,670.0,41.0,60.0,40.0,False,,349.26992970518074,[],"[960, 540]",ColorTask,107.0,69.0,,,HRV,HRV_0225,2022-11-30 19:18:37
,wl-rdm,186,515860,0.0-8.69-0.69,1.0,187.0,,,,,,,[],,,,,,73.6,1.0,i,1.0,True,776.8999999761581,47.0,60.0,40.0,False,,358.25646960848655,[],"[960, 540]",ColorTask,108.0,70.0,,,HRV,HRV_0225,2022-11-30 19:18:37
,wl-rdm,187,518076,0.0-8.70-0.70,1.0,188.0,,,,,,,[],,,,,,50.0,1.0,u,0.0,False,865.8999999761581,52.0,60.0,40.0,False,,294.5457673581866,[],"[960, 540]",ColorTask,107.0,71.0,,,HRV,HRV_0225,2022-11-30 19:18:37
,wl-rdm,188,520177,0.0-8.71-0.71,1.0,189.0,,,,,,,[],,,,,,56.4,1.0,i,1.0,True,805.1000000238419,49.0,60.0,40.0,False,,225.63691167187864,[],"[960, 540]",ColorTask,108.0,72.0,,,HRV,HRV_0225,2022-11-30 19:18:37
,wl-rdm,189,522743,0.0-8.72-0.72,1.0,190.0,,,,,,,[],,,,,,56.4,0.0,u,0.0,True,1204.4000000357628,73.0,60.0,40.0,False,,275.0578828657908,[],"[960, 540]",ColorTask,109.0,73.0,,,HRV,HRV_0225,2022-11-30 19:18:37
,wl-rdm,190,525010,0.0-8.73-0.73,1.0,191.0,,,,,,,[],,,,,,56.4,1.0,i,1.0,True,926.8000000715256,56.0,60.0,40.0,False,,272.41052355518184,[],"[960, 540]",ColorTask,110.0,74.0,,,HRV,HRV_0225,2022-11-30 19:18:37
,wl-rdm,191,527560,0.0-8.74-0.74,1.0,192.0,,,,,,,[],,,,,,50.0,1.0,u,0.0,False,1215.800000011921,73.0,60.0,40.0,False,,264.29871168007696,[],"[960, 540]",ColorTask,109.0,75.0,,,HRV,HRV_0225,2022-11-30 19:18:37
,wl-rdm,192,529594,0.0-8.75-0.75,1.0,193.0,,,,,,,[],,,,,,87.9,0.0,u,0.0,True,691.1999999880791,42.0,60.0,40.0,False,,257.0486204699185,[],"[960, 540]",ColorTask,110.0,76.0,,,HRV,HRV_0225,2022-11-30 19:18:37
,wl-rdm,193,531660,0.0-8.76-0.76,1.0,194.0,,,,,,,[],,,,,,53.2,1.0,i,1.0,True,740.1999999880791,45.0,60.0,40.0,False,,241.6797931263776,[],"[960, 540]",ColorTask,111.0,77.0,,,HRV,HRV_0225,2022-11-30 19:18:37
,wl-rdm,194,533877,0.0-8.77-0.77,1.0,195.0,,,,,,,[],,,,,,56.4,0.0,u,0.0,True,770.0,47.0,60.0,40.0,False,,365.42948975067117,[],"[960, 540]",ColorTask,112.0,78.0,,,HRV,HRV_0225,2022-11-30 19:18:37
,wl-rdm,195,536227,0.0-8.78-0.78,1.0,196.0,,,,,,,[],,,,,,62.5,1.0,i,1.0,True,1051.8999999761581,64.0,60.0,40.0,False,,224.04433873274397,[],"[960, 540]",ColorTask,113.0,79.0,,,HRV,HRV_0225,2022-11-30 19:18:37
,wl-rdm,196,538277,0.0-8.79-0.79,1.0,197.0,,,,,,,[],,,,,,73.6,1.0,i,1.0,True,644.6999999284744,39.0,60.0,40.0,False,,331.50046982332265,[],"[960, 540]",ColorTask,114.0,80.0,,,HRV,HRV_0225,2022-11-30 19:18:37
,wl-rdm,197,540461,0.0-8.80-0.80,1.0,198.0,,,,,,,[],,,,,,62.5,1.0,u,0.0,False,825.4000000357628,50.0,60.0,40.0,False,,290.94667512914657,[],"[960, 540]",ColorTask,113.0,81.0,,,HRV,HRV_0225,2022-11-30 19:18:37
,wl-rdm,198,542561,0.0-8.81-0.81,1.0,199.0,,,,,,,[],,,,,,73.6,0.0,u,0.0,True,810.1999999880791,49.0,60.0,40.0,False,,201.63274755805207,[],"[960, 540]",ColorTask,114.0,82.0,,,HRV,HRV_0225,2022-11-30 19:18:37
,wl-rdm,199,544777,0.0-8.82-0.82,1.0,200.0,,,,,,,[],,,,,,50.0,0.0,i,1.0,False,775.5,47.0,60.0,40.0,False,,373.39927038221555,[],"[960, 540]",ColorTask,113.0,83.0,,,HRV,HRV_0225,2022-11-30 19:18:37
,wl-rdm,200,546878,0.0-8.83-0.83,1.0,201.0,,,,,,,[],,,,,,73.6,0.0,u,0.0,True,735.6000000238419,45.0,60.0,40.0,False,,299.94922306588535,[],"[960, 540]",ColorTask,114.0,84.0,,,HRV,HRV_0225,2022-11-30 19:18:37
,wl-rdm,201,548911,0.0-8.84-0.84,1.0,202.0,,,,,,,[],,,,,,73.6,0.0,u,0.0,True,624.6999999880791,38.0,60.0,40.0,False,,327.15330205055295,[],"[960, 540]",ColorTask,115.0,85.0,,,HRV,HRV_0225,2022-11-30 19:18:37
,wl-rdm,202,551094,0.0-8.85-0.85,1.0,203.0,,,,,,,[],,,,,,53.2,1.0,u,0.0,False,787.5,48.0,60.0,40.0,False,,309.64883151956525,[],"[960, 540]",ColorTask,114.0,86.0,,,HRV,HRV_0225,2022-11-30 19:18:37
,wl-rdm,203,553428,0.0-8.86-0.86,1.0,204.0,,,,,,,[],,,,,,53.2,0.0,u,0.0,True,910.6999999880791,55.0,60.0,40.0,False,,344.0209393579647,[],"[960, 540]",ColorTask,115.0,87.0,,,HRV,HRV_0225,2022-11-30 19:18:37
,wl-rdm,204,555595,0.0-8.87-0.87,1.0,205.0,,,,,,,[],,,,,,56.4,1.0,i,1.0,True,812.5,49.0,60.0,40.0,False,,286.42586131482614,[],"[960, 540]",ColorTask,116.0,88.0,,,HRV,HRV_0225,2022-11-30 19:18:37
,wl-rdm,205,557661,0.0-8.88-0.88,1.0,206.0,,,,,,,[],,,,,,56.4,0.0,u,0.0,True,725.6999999880791,44.0,60.0,40.0,False,,273.84081955783074,[],"[960, 540]",ColorTask,117.0,89.0,,,HRV,HRV_0225,2022-11-30 19:18:37
,wl-rdm,206,560128,0.0-8.89-0.89,1.0,207.0,,,,,,,[],,,,,,53.2,1.0,i,1.0,True,998.2000000476837,60.0,60.0,40.0,False,,387.5827503614892,[],"[960, 540]",ColorTask,118.0,90.0,,,HRV,HRV_0225,2022-11-30 19:18:37
,wl-rdm,207,562528,0.0-8.90-0.90,1.0,208.0,,,,,,,[],,,,,,50.0,0.0,i,1.0,False,1032.5,62.0,60.0,40.0,False,,288.4538017311147,[],"[960, 540]",ColorTask,117.0,91.0,,,HRV,HRV_0225,2022-11-30 19:18:37
,wl-rdm,208,564495,0.0-8.91-0.91,1.0,209.0,,,,,,,[],,,,,,73.6,1.0,i,1.0,True,669.6999999880791,41.0,60.0,40.0,False,,224.8747621838518,[],"[960, 540]",ColorTask,118.0,92.0,,,HRV,HRV_0225,2022-11-30 19:18:37
,wl-rdm,209,566762,0.0-8.92-0.92,1.0,210.0,,,,,,,[],,,,,,53.2,1.0,u,0.0,False,874.1000000238419,53.0,60.0,40.0,False,,300.61355196881294,[],"[960, 540]",ColorTask,117.0,93.0,,,HRV,HRV_0225,2022-11-30 19:18:37
,wl-rdm,210,568945,0.0-8.93-0.93,1.0,211.0,,,,,,,[],,,,,,62.5,1.0,i,1.0,True,836.3999999761581,51.0,60.0,40.0,False,,266.20909314702396,[],"[960, 540]",ColorTask,118.0,94.0,,,HRV,HRV_0225,2022-11-30 19:18:37
,wl-rdm,211,571545,0.0-8.94-0.94,1.0,212.0,,,,,,,[],,,,,,53.2,1.0,u,0.0,False,1226.6000000238419,74.0,60.0,40.0,False,,288.3617967826879,[],"[960, 540]",ColorTask,117.0,95.0,,,HRV,HRV_0225,2022-11-30 19:18:37
,wl-rdm,212,573696,0.0-8.95-0.95,1.0,213.0,,,,,,,[],,,,,,50.0,0.0,u,0.0,True,761.0000000596046,46.0,60.0,40.0,False,,318.5683958352409,[],"[960, 540]",ColorTask,118.0,96.0,,,HRV,HRV_0225,2022-11-30 19:18:37
,wl-rdm,213,576129,0.0-8.96-0.96,1.0,214.0,,,,,,,[],,,,,,62.5,1.0,i,1.0,True,1073.8000000715256,65.0,60.0,40.0,False,,297.6411301090435,[],"[960, 540]",ColorTask,119.0,97.0,,,HRV,HRV_0225,2022-11-30 19:18:37
,wl-rdm,214,578478,0.0-8.97-0.97,1.0,215.0,,,,,,,[],,,,,,50.0,1.0,u,0.0,False,905.9000000357628,55.0,60.0,40.0,False,,366.77464659313125,[],"[960, 540]",ColorTask,118.0,98.0,,,HRV,HRV_0225,2022-11-30 19:18:37
,wl-rdm,215,581012,0.0-8.98-0.98,1.0,216.0,,,,,,,[],,,,,,50.0,0.0,u,0.0,True,1218.5999999642372,74.0,60.0,40.0,False,,224.04062899987326,[],"[960, 540]",ColorTask,119.0,99.0,,,HRV,HRV_0225,2022-11-30 19:18:37
,wl-rdm,216,583779,0.0-8.99-0.99,1.0,217.0,,,,,,,[],,,,,,56.4,0.0,u,0.0,True,1449.300000011921,87.0,60.0,40.0,False,,247.1926836397229,[],"[960, 540]",ColorTask,120.0,100.0,,,HRV,HRV_0225,2022-11-30 19:18:37
,wl-rdm,217,586029,0.0-8.100-0.100,1.0,218.0,,,,,,,[],,,,,,87.9,0.0,u,0.0,True,773.0,47.0,60.0,40.0,False,,383.5237998516067,[],"[960, 540]",ColorTask,121.0,101.0,,,HRV,HRV_0225,2022-11-30 19:18:37
,wl-rdm,218,588129,0.0-8.101-0.101,1.0,219.0,,,,,,,[],,,,,,87.9,0.0,u,0.0,True,726.3999999761581,44.0,60.0,40.0,False,,305.1666531049997,[],"[960, 540]",ColorTask,122.0,102.0,,,HRV,HRV_0225,2022-11-30 19:18:37
,wl-rdm,219,590613,0.0-8.102-0.102,1.0,220.0,,,,,,,[],,,,,,50.0,1.0,i,1.0,True,1152.6000000238419,70.0,60.0,40.0,False,,236.94006865332298,[],"[960, 540]",ColorTask,123.0,103.0,,,HRV,HRV_0225,2022-11-30 19:18:37
,wl-rdm,220,592929,0.0-8.103-0.103,1.0,221.0,,,,,,,[],,,,,,62.5,0.0,u,0.0,True,839.4000000357628,51.0,60.0,40.0,False,,383.6658472913888,[],"[960, 540]",ColorTask,124.0,104.0,,,HRV,HRV_0225,2022-11-30 19:18:37
,wl-rdm,221,595129,0.0-8.104-0.104,1.0,222.0,,,,,,,[],,,,,,87.9,1.0,i,1.0,True,786.0,48.0,60.0,40.0,False,,339.8532308452683,[],"[960, 540]",ColorTask,125.0,105.0,,,HRV,HRV_0225,2022-11-30 19:18:37
,wl-rdm,222,597496,0.0-8.105-0.105,1.0,223.0,,,,,,,[],,,,,,62.5,1.0,i,1.0,True,1039.300000011921,63.0,60.0,40.0,False,,243.3272683285419,[],"[960, 540]",ColorTask,126.0,106.0,,,HRV,HRV_0225,2022-11-30 19:18:37
,wl-rdm,223,599446,0.0-8.106-0.106,1.0,224.0,,,,,,,[],,,,,,87.9,0.0,u,0.0,True,600.8000000119209,37.0,60.0,40.0,False,,281.17173672863834,[],"[960, 540]",ColorTask,127.0,107.0,,,HRV,HRV_0225,2022-11-30 19:18:37
,wl-rdm,224,601763,0.0-8.107-0.107,1.0,225.0,,,,,,,[],,,,,,53.2,1.0,i,1.0,True,1027.699999988079,62.0,60.0,40.0,False,,216.5757678400393,[],"[960, 540]",ColorTask,128.0,108.0,,,HRV,HRV_0225,2022-11-30 19:18:37
,wl-html-button-response,225,605131,0.0-9.0-0.0,,,,,,,,,,3365.0,,0,,,,,,,,,,,,,,,,,,,,<h3>End of this session. Thank you!</h3><br>,['Close window'],HRV,HRV_0225,2022-11-30 19:18:37
