trialN,stimuli,trialStartTime,trialStartTime_UNIX,stimulus1,stimulus2,stimulus1Bid,stimulus2Bid,delta,selected,rt,rt_UNIX,rt_perfnow,receivedResponse,rsp,trialEndTime,trialDuration,trialEndTime_UNIX,trialDuration_UNIX,exp,subjectId,date
0,"[{'imgObject': {}, 'id': 'bagel plain', 'src': '/static/foodstim60/bagel plain.jpg', 'key': 'u', 'origWidth': 410, 'origHeight': 410, 'width': 410, 'height': 410, 'widthPercent': 0.45, 'rescaleHeight': False, 'trialN': 0, 'loaded': True, 'loadedTime': 3567.600000023842, 'positionName': 'LEFT', 'positionCoords': [511.6, 335], 'bid': 2.77}, {'imgObject': {}, 'id': 'fruitsalad', 'src': '/static/foodstim60/fruitsalad.jpg', 'key': 'i', 'origWidth': 410, 'origHeight': 410, 'width': 410, 'height': 410, 'widthPercent': 0.45, 'rescaleHeight': False, 'trialN': 0, 'loaded': True, 'loadedTime': 3622.400000035763, 'positionName': 'RIGHT', 'positionCoords': [998.4, 335], 'bid': 1.62}]",4467.700000047684,1669834886642,bagel plain,fruitsalad,2.77,1.62,-1.15,bagel plain,1127.699999988079,1129,1128.5999999642372,True,u,6114.0,1646.2999999523163,1669834888288,1646,HRV,HRV_0225,2022-11-30 19:08:19
1,"[{'imgObject': {}, 'id': 'burger', 'src': '/static/foodstim60/burger.jpg', 'key': 'u', 'origWidth': 409, 'origHeight': 409, 'width': 409, 'height': 409, 'widthPercent': 0.45, 'rescaleHeight': False, 'trialN': 1, 'loaded': True, 'loadedTime': 3630.800000011921, 'positionName': 'LEFT', 'positionCoords': [512.6, 335.5], 'bid': 5.89}, {'imgObject': {}, 'id': 'corn cob', 'src': '/static/foodstim60/corn cob.jpg', 'key': 'i', 'origWidth': 411, 'origHeight': 411, 'width': 411, 'height': 411, 'widthPercent': 0.45, 'rescaleHeight': False, 'trialN': 1, 'loaded': True, 'loadedTime': 3633.7000000476837, 'positionName': 'RIGHT', 'positionCoords': [998.4, 334.5], 'bid': 4.3500000000000005}]",6114.300000011921,1669834888289,burger,corn cob,5.89,4.3500000000000005,-1.5399999999999991,burger,1068.300000011921,1068,1068.699999988079,True,u,7691.5,1577.199999988079,1669834889866,1577,HRV,HRV_0225,2022-11-30 19:08:19
2,"[{'imgObject': {}, 'id': 'turkey sandwich', 'src': '/static/foodstim60/turkey sandwich.jpg', 'key': 'u', 'origWidth': 409, 'origHeight': 409, 'width': 409, 'height': 409, 'widthPercent': 0.45, 'rescaleHeight': False, 'trialN': 2, 'loaded': True, 'loadedTime': 3646.300000011921, 'positionName': 'LEFT', 'positionCoords': [512.6, 335.5], 'bid': 5.3100000000000005}, {'imgObject': {}, 'id': 'kiwi', 'src': '/static/foodstim60/kiwi.jpg', 'key': 'i', 'origWidth': 410, 'origHeight': 410, 'width': 410, 'height': 410, 'widthPercent': 0.45, 'rescaleHeight': False, 'trialN': 2, 'loaded': True, 'loadedTime': 3664.600000023842, 'positionName': 'RIGHT', 'positionCoords': [998.4, 335], 'bid': 5.1000000000000005}]",7691.800000011921,1669834889866,turkey sandwich,kiwi,5.3100000000000005,5.1000000000000005,-0.20999999999999996,turkey sandwich,1443.800000011921,1444,1444.199999988079,True,u,9657.600000023842,1965.800000011921,1669834891832,1966,HRV,HRV_0225,2022-11-30 19:08:19
3,"[{'imgObject': {}, 'id': 'apple slices', 'src': '/static/foodstim60/apple slices.jpg', 'key': 'u', 'origWidth': 409, 'origHeight': 410, 'width': 409, 'height': 410, 'widthPercent': 0.45, 'rescaleHeight': False, 'trialN': 3, 'loaded': True, 'loadedTime': 3676.2000000476837, 'positionName': 'LEFT', 'positionCoords': [512.6, 335], 'bid': 3.82}, {'imgObject': {}, 'id': 'fried eggs', 'src': '/static/foodstim60/fried eggs.jpg', 'key': 'i', 'origWidth': 410, 'origHeight': 410, 'width': 410, 'height': 410, 'widthPercent': 0.45, 'rescaleHeight': False, 'trialN': 3, 'loaded': True, 'loadedTime': 3607.300000011921, 'positionName': 'RIGHT', 'positionCoords': [998.4, 335], 'bid': 4.59}]",9657.900000035763,1669834891832,apple slices,fried eggs,3.82,4.59,0.77,fried eggs,1887.699999988079,1888,1888.0999999642372,True,i,12054.300000011921,2396.399999976158,1669834894229,2397,HRV,HRV_0225,2022-11-30 19:08:19
4,"[{'imgObject': {}, 'id': 'strawberries', 'src': '/static/foodstim60/strawberries.jpg', 'key': 'u', 'origWidth': 410, 'origHeight': 410, 'width': 410, 'height': 410, 'widthPercent': 0.45, 'rescaleHeight': False, 'trialN': 4, 'loaded': True, 'loadedTime': 3627.2000000476837, 'positionName': 'LEFT', 'positionCoords': [511.6, 335], 'bid': 4.07}, {'imgObject': {}, 'id': 'Tribe humus pita', 'src': '/static/foodstim60/Tribe humus pita.jpg', 'key': 'i', 'origWidth': 411, 'origHeight': 411, 'width': 411, 'height': 411, 'widthPercent': 0.45, 'rescaleHeight': False, 'trialN': 4, 'loaded': True, 'loadedTime': 3678.800000011921, 'positionName': 'RIGHT', 'positionCoords': [998.4, 334.5], 'bid': 3.65}]",12054.700000047684,1669834894229,strawberries,Tribe humus pita,4.07,3.65,-0.4200000000000004,Tribe humus pita,1483.7999999523163,1484,1484.0999999642372,True,i,14044.800000011921,1990.0999999642372,1669834896219,1990,HRV,HRV_0225,2022-11-30 19:08:19
5,"[{'imgObject': {}, 'id': 'rigatoni and sauce', 'src': '/static/foodstim60/rigatoni and sauce.jpg', 'key': 'u', 'origWidth': 410, 'origHeight': 411, 'width': 410, 'height': 411, 'widthPercent': 0.45, 'rescaleHeight': False, 'trialN': 5, 'loaded': True, 'loadedTime': 3697.5, 'positionName': 'LEFT', 'positionCoords': [511.6, 334.5], 'bid': 7.34}, {'imgObject': {}, 'id': 'apple slices', 'src': '/static/foodstim60/apple slices.jpg', 'key': 'i', 'origWidth': 409, 'origHeight': 410, 'width': 409, 'height': 410, 'widthPercent': 0.45, 'rescaleHeight': False, 'trialN': 5, 'loaded': True, 'loadedTime': 3674.300000011921, 'positionName': 'RIGHT', 'positionCoords': [998.4, 335], 'bid': 3.82}]",14045.300000011921,1669834896220,rigatoni and sauce,apple slices,7.34,3.82,-3.52,rigatoni and sauce,1251.5,1251,1251.9000000357628,True,u,15816.800000011921,1771.5,1669834897991,1771,HRV,HRV_0225,2022-11-30 19:08:19
6,"[{'imgObject': {}, 'id': 'veggieswithdip', 'src': '/static/foodstim60/veggieswithdip.jpg', 'key': 'u', 'origWidth': 409, 'origHeight': 409, 'width': 409, 'height': 409, 'widthPercent': 0.45, 'rescaleHeight': False, 'trialN': 6, 'loaded': True, 'loadedTime': 3709.300000011921, 'positionName': 'LEFT', 'positionCoords': [512.6, 335.5], 'bid': 3.5500000000000003}, {'imgObject': {}, 'id': 'mac & cheese', 'src': '/static/foodstim60/mac & cheese.jpg', 'key': 'i', 'origWidth': 410, 'origHeight': 410, 'width': 410, 'height': 410, 'widthPercent': 0.45, 'rescaleHeight': False, 'trialN': 6, 'loaded': True, 'loadedTime': 3727.2000000476837, 'positionName': 'RIGHT', 'positionCoords': [998.4, 335], 'bid': 6.08}]",15817.200000047684,1669834897991,veggieswithdip,mac & cheese,3.5500000000000003,6.08,2.53,mac & cheese,972.1999999880791,973,972.5,True,i,17297.200000047684,1480.0,1669834899471,1480,HRV,HRV_0225,2022-11-30 19:08:19
7,"[{'imgObject': {}, 'id': 'Tribe humus pita', 'src': '/static/foodstim60/Tribe humus pita.jpg', 'key': 'u', 'origWidth': 411, 'origHeight': 411, 'width': 411, 'height': 411, 'widthPercent': 0.45, 'rescaleHeight': False, 'trialN': 7, 'loaded': True, 'loadedTime': 3678.600000023842, 'positionName': 'LEFT', 'positionCoords': [510.6, 334.5], 'bid': 3.65}, {'imgObject': {}, 'id': 'Grapes', 'src': '/static/foodstim60/Grapes.jpg', 'key': 'i', 'origWidth': 411, 'origHeight': 411, 'width': 411, 'height': 411, 'widthPercent': 0.45, 'rescaleHeight': False, 'trialN': 7, 'loaded': True, 'loadedTime': 3729.100000023842, 'positionName': 'RIGHT', 'positionCoords': [998.4, 334.5], 'bid': 2.86}]",17297.400000035763,1669834899472,Tribe humus pita,Grapes,3.65,2.86,-0.79,Tribe humus pita,1572.800000011921,1573,1573.199999988079,True,u,19377.900000035763,2080.5,1669834901552,2080,HRV,HRV_0225,2022-11-30 19:08:19
8,"[{'imgObject': {}, 'id': 'blackbeanswithrice', 'src': '/static/foodstim60/blackbeanswithrice.jpg', 'key': 'u', 'origWidth': 410, 'origHeight': 410, 'width': 410, 'height': 410, 'widthPercent': 0.45, 'rescaleHeight': False, 'trialN': 8, 'loaded': True, 'loadedTime': 3740.800000011921, 'positionName': 'LEFT', 'positionCoords': [511.6, 335], 'bid': 6.0200000000000005}, {'imgObject': {}, 'id': 'tacos', 'src': '/static/foodstim60/tacos.jpg', 'key': 'i', 'origWidth': 411, 'origHeight': 411, 'width': 411, 'height': 411, 'widthPercent': 0.45, 'rescaleHeight': False, 'trialN': 8, 'loaded': True, 'loadedTime': 3741.7000000476837, 'positionName': 'RIGHT', 'positionCoords': [998.4, 334.5], 'bid': 5.73}]",19378.100000023842,1669834901552,blackbeanswithrice,tacos,6.0200000000000005,5.73,-0.29000000000000004,blackbeanswithrice,957.5,958,957.8999999761581,True,u,20857.600000023842,1479.5,1669834903032,1480,HRV,HRV_0225,2022-11-30 19:08:19
9,"[{'imgObject': {}, 'id': 'pear', 'src': '/static/foodstim60/pear.jpg', 'key': 'u', 'origWidth': 411, 'origHeight': 410, 'width': 411, 'height': 410, 'widthPercent': 0.45, 'rescaleHeight': False, 'trialN': 9, 'loaded': True, 'loadedTime': 3780.400000035763, 'positionName': 'LEFT', 'positionCoords': [510.6, 335], 'bid': 3.09}, {'imgObject': {}, 'id': 'cheerios', 'src': '/static/foodstim60/cheerios.jpg', 'key': 'i', 'origWidth': 409, 'origHeight': 410, 'width': 409, 'height': 410, 'widthPercent': 0.45, 'rescaleHeight': False, 'trialN': 9, 'loaded': True, 'loadedTime': 3824.900000035763, 'positionName': 'RIGHT', 'positionCoords': [998.4, 335], 'bid': 3.19}]",20858.0,1669834903032,pear,cheerios,3.09,3.19,0.10000000000000009,cheerios,1985.300000011921,1986,1985.7000000476837,True,i,23349.30000001192,2491.300000011921,1669834905524,2492,HRV,HRV_0225,2022-11-30 19:08:19
10,"[{'imgObject': {}, 'id': 'omelette', 'src': '/static/foodstim60/omelette.jpg', 'key': 'u', 'origWidth': 410, 'origHeight': 409, 'width': 410, 'height': 409, 'widthPercent': 0.45, 'rescaleHeight': False, 'trialN': 10, 'loaded': True, 'loadedTime': 3846.300000011921, 'positionName': 'LEFT', 'positionCoords': [511.6, 335.5], 'bid': 5}, {'imgObject': {}, 'id': 'eggsalad', 'src': '/static/foodstim60/eggsalad.jpg', 'key': 'i', 'origWidth': 410, 'origHeight': 409, 'width': 410, 'height': 409, 'widthPercent': 0.45, 'rescaleHeight': False, 'trialN': 10, 'loaded': True, 'loadedTime': 3871.100000023842, 'positionName': 'RIGHT', 'positionCoords': [998.4, 335.5], 'bid': 4.51}]",23349.900000035763,1669834905524,omelette,eggsalad,5.0,4.51,-0.4900000000000002,omelette,1181.3999999761581,1182,1181.800000011921,True,u,25040.80000001192,1690.8999999761581,1669834907215,1691,HRV,HRV_0225,2022-11-30 19:08:19
11,"[{'imgObject': {}, 'id': 'steak', 'src': '/static/foodstim60/steak.jpg', 'key': 'u', 'origWidth': 410, 'origHeight': 410, 'width': 410, 'height': 410, 'widthPercent': 0.45, 'rescaleHeight': False, 'trialN': 11, 'loaded': True, 'loadedTime': 3909.900000035763, 'positionName': 'LEFT', 'positionCoords': [511.6, 335], 'bid': 6.640000000000001}, {'imgObject': {}, 'id': 'chicken nuggets2', 'src': '/static/foodstim60/chicken nuggets2.jpg', 'key': 'i', 'origWidth': 410, 'origHeight': 409, 'width': 410, 'height': 409, 'widthPercent': 0.45, 'rescaleHeight': False, 'trialN': 11, 'loaded': True, 'loadedTime': 3911.5, 'positionName': 'RIGHT', 'positionCoords': [998.4, 335.5], 'bid': 6.26}]",25041.100000023842,1669834907215,steak,chicken nuggets2,6.640000000000001,6.26,-0.3800000000000008,chicken nuggets2,1640.8999999761581,1642,1641.300000011921,True,i,27202.400000035763,2161.300000011921,1669834909377,2162,HRV,HRV_0225,2022-11-30 19:08:19
12,"[{'imgObject': {}, 'id': 'granola w milk', 'src': '/static/foodstim60/granola w milk.jpg', 'key': 'u', 'origWidth': 410, 'origHeight': 410, 'width': 410, 'height': 410, 'widthPercent': 0.45, 'rescaleHeight': False, 'trialN': 12, 'loaded': True, 'loadedTime': 3954.900000035763, 'positionName': 'LEFT', 'positionCoords': [511.6, 335], 'bid': 3.0500000000000003}, {'imgObject': {}, 'id': 'mango', 'src': '/static/foodstim60/mango.jpg', 'key': 'i', 'origWidth': 411, 'origHeight': 411, 'width': 411, 'height': 411, 'widthPercent': 0.45, 'rescaleHeight': False, 'trialN': 12, 'loaded': True, 'loadedTime': 3980.900000035763, 'positionName': 'RIGHT', 'positionCoords': [998.4, 334.5], 'bid': 3.36}]",27202.700000047684,1669834909377,granola w milk,mango,3.0500000000000003,3.36,0.3099999999999996,mango,2984.399999976158,2985,2984.699999988079,True,i,30692.200000047684,3489.5,1669834912866,3489,HRV,HRV_0225,2022-11-30 19:08:19
13,"[{'imgObject': {}, 'id': 'ice cream sundae 002', 'src': '/static/foodstim60/ice cream sundae 002.jpg', 'key': 'u', 'origWidth': 409, 'origHeight': 409, 'width': 409, 'height': 409, 'widthPercent': 0.45, 'rescaleHeight': False, 'trialN': 13, 'loaded': True, 'loadedTime': 4021.7000000476837, 'positionName': 'LEFT', 'positionCoords': [512.6, 335.5], 'bid': 3.72}, {'imgObject': {}, 'id': 'popsicles', 'src': '/static/foodstim60/popsicles.jpg', 'key': 'i', 'origWidth': 410, 'origHeight': 410, 'width': 410, 'height': 410, 'widthPercent': 0.45, 'rescaleHeight': False, 'trialN': 13, 'loaded': True, 'loadedTime': 4455.900000035763, 'positionName': 'RIGHT', 'positionCoords': [998.4, 335], 'bid': 3.77}]",30692.30000001192,1669834912867,ice cream sundae 002,popsicles,3.72,3.77,0.04999999999999982,ice cream sundae 002,1812.300000011921,1812,1812.6000000238419,True,u,33024.700000047684,2332.400000035763,1669834915199,2332,HRV,HRV_0225,2022-11-30 19:08:19
14,"[{'imgObject': {}, 'id': 'bagel and cc', 'src': '/static/foodstim60/bagel and cc.jpg', 'key': 'u', 'origWidth': 410, 'origHeight': 410, 'width': 410, 'height': 410, 'widthPercent': 0.45, 'rescaleHeight': False, 'trialN': 14, 'loaded': True, 'loadedTime': 4041.800000011921, 'positionName': 'LEFT', 'positionCoords': [511.6, 335], 'bid': 3.37}, {'imgObject': {}, 'id': 'cherries', 'src': '/static/foodstim60/cherries.jpg', 'key': 'i', 'origWidth': 410, 'origHeight': 411, 'width': 410, 'height': 411, 'widthPercent': 0.45, 'rescaleHeight': False, 'trialN': 14, 'loaded': True, 'loadedTime': 4060.900000035763, 'positionName': 'RIGHT', 'positionCoords': [998.4, 334.5], 'bid': 3.0500000000000003}]",33025.0,1669834915199,bagel and cc,cherries,3.37,3.0500000000000003,-0.31999999999999984,bagel and cc,1147.6000000238419,1148,1147.9000000357628,True,u,34680.5,1655.5,1669834916855,1656,HRV,HRV_0225,2022-11-30 19:08:19
15,"[{'imgObject': {}, 'id': 'steak', 'src': '/static/foodstim60/steak.jpg', 'key': 'u', 'origWidth': 410, 'origHeight': 410, 'width': 410, 'height': 410, 'widthPercent': 0.45, 'rescaleHeight': False, 'trialN': 15, 'loaded': True, 'loadedTime': 3909.7000000476837, 'positionName': 'LEFT', 'positionCoords': [511.6, 335], 'bid': 6.640000000000001}, {'imgObject': {}, 'id': 'kiwi', 'src': '/static/foodstim60/kiwi.jpg', 'key': 'i', 'origWidth': 410, 'origHeight': 410, 'width': 410, 'height': 410, 'widthPercent': 0.45, 'rescaleHeight': False, 'trialN': 15, 'loaded': True, 'loadedTime': 3664.800000011921, 'positionName': 'RIGHT', 'positionCoords': [998.4, 335], 'bid': 5.1000000000000005}]",34680.80000001192,1669834916855,steak,kiwi,6.640000000000001,5.1000000000000005,-1.54,steak,1370.800000011921,1371,1371.0,True,u,36571.10000002384,1890.300000011921,1669834918745,1890,HRV,HRV_0225,2022-11-30 19:08:19
16,"[{'imgObject': {}, 'id': 'cherries', 'src': '/static/foodstim60/cherries.jpg', 'key': 'u', 'origWidth': 410, 'origHeight': 411, 'width': 410, 'height': 411, 'widthPercent': 0.45, 'rescaleHeight': False, 'trialN': 16, 'loaded': True, 'loadedTime': 4083.300000011921, 'positionName': 'LEFT', 'positionCoords': [511.6, 334.5], 'bid': 3.0500000000000003}, {'imgObject': {}, 'id': 'cocktailshrimp', 'src': '/static/foodstim60/cocktailshrimp.jpg', 'key': 'i', 'origWidth': 410, 'origHeight': 410, 'width': 410, 'height': 410, 'widthPercent': 0.45, 'rescaleHeight': False, 'trialN': 16, 'loaded': True, 'loadedTime': 4102.100000023842, 'positionName': 'RIGHT', 'positionCoords': [998.4, 335], 'bid': 3.0700000000000003}]",36571.5,1669834918746,cherries,cocktailshrimp,3.0500000000000003,3.0700000000000003,0.020000000000000018,cherries,1861.0,1861,1861.300000011921,True,u,38951.10000002384,2379.600000023842,1669834921125,2379,HRV,HRV_0225,2022-11-30 19:08:19
17,"[{'imgObject': {}, 'id': 'roastedpotatoes', 'src': '/static/foodstim60/roastedpotatoes.jpg', 'key': 'u', 'origWidth': 409, 'origHeight': 410, 'width': 409, 'height': 410, 'widthPercent': 0.45, 'rescaleHeight': False, 'trialN': 17, 'loaded': True, 'loadedTime': 4114.300000011921, 'positionName': 'LEFT', 'positionCoords': [512.6, 335], 'bid': 5}, {'imgObject': {}, 'id': 'omelette', 'src': '/static/foodstim60/omelette.jpg', 'key': 'i', 'origWidth': 410, 'origHeight': 409, 'width': 410, 'height': 409, 'widthPercent': 0.45, 'rescaleHeight': False, 'trialN': 17, 'loaded': True, 'loadedTime': 3845.100000023842, 'positionName': 'RIGHT', 'positionCoords': [998.4, 335.5], 'bid': 5}]",38951.40000003576,1669834921126,roastedpotatoes,omelette,5.0,5.0,0.0,omelette,1804.5999999642372,1805,1805.0,True,i,41271.5,2320.099999964237,1669834923447,2321,HRV,HRV_0225,2022-11-30 19:08:19
18,"[{'imgObject': {}, 'id': 'blackbeanswithrice', 'src': '/static/foodstim60/blackbeanswithrice.jpg', 'key': 'u', 'origWidth': 410, 'origHeight': 410, 'width': 410, 'height': 410, 'widthPercent': 0.45, 'rescaleHeight': False, 'trialN': 18, 'loaded': True, 'loadedTime': 3737.600000023842, 'positionName': 'LEFT', 'positionCoords': [511.6, 335], 'bid': 6.0200000000000005}, {'imgObject': {}, 'id': 'mango', 'src': '/static/foodstim60/mango.jpg', 'key': 'i', 'origWidth': 411, 'origHeight': 411, 'width': 411, 'height': 411, 'widthPercent': 0.45, 'rescaleHeight': False, 'trialN': 18, 'loaded': True, 'loadedTime': 3999.800000011921, 'positionName': 'RIGHT', 'positionCoords': [998.4, 334.5], 'bid': 3.36}]",41272.30000001192,1669834923447,blackbeanswithrice,mango,6.0200000000000005,3.36,-2.6600000000000006,blackbeanswithrice,1077.199999988079,1078,1077.5,True,u,42853.200000047684,1580.9000000357628,1669834925028,1581,HRV,HRV_0225,2022-11-30 19:08:19
19,"[{'imgObject': {}, 'id': 'burger', 'src': '/static/foodstim60/burger.jpg', 'key': 'u', 'origWidth': 409, 'origHeight': 409, 'width': 409, 'height': 409, 'widthPercent': 0.45, 'rescaleHeight': False, 'trialN': 19, 'loaded': True, 'loadedTime': 3628.2000000476837, 'positionName': 'LEFT', 'positionCoords': [512.6, 335.5], 'bid': 5.89}, {'imgObject': {}, 'id': 'salad w chicken', 'src': '/static/foodstim60/salad w chicken.jpg', 'key': 'i', 'origWidth': 411, 'origHeight': 411, 'width': 411, 'height': 411, 'widthPercent': 0.45, 'rescaleHeight': False, 'trialN': 19, 'loaded': True, 'loadedTime': 4115.800000011921, 'positionName': 'RIGHT', 'positionCoords': [998.4, 334.5], 'bid': 5.43}]",42853.30000001192,1669834925028,burger,salad w chicken,5.89,5.43,-0.45999999999999996,burger,1452.699999988079,1453,1453.0,True,u,44814.200000047684,1960.9000000357628,1669834926989,1961,HRV,HRV_0225,2022-11-30 19:08:19
20,"[{'imgObject': {}, 'id': 'luckycharms', 'src': '/static/foodstim60/luckycharms.jpg', 'key': 'u', 'origWidth': 410, 'origHeight': 409, 'width': 410, 'height': 409, 'widthPercent': 0.45, 'rescaleHeight': False, 'trialN': 20, 'loaded': True, 'loadedTime': 4116.300000011921, 'positionName': 'LEFT', 'positionCoords': [511.6, 335.5], 'bid': 3.03}, {'imgObject': {}, 'id': 'eggs', 'src': '/static/foodstim60/eggs.jpg', 'key': 'i', 'origWidth': 409, 'origHeight': 409, 'width': 409, 'height': 409, 'widthPercent': 0.45, 'rescaleHeight': False, 'trialN': 20, 'loaded': True, 'loadedTime': 4131.300000011921, 'positionName': 'RIGHT', 'positionCoords': [998.4, 335.5], 'bid': 3.26}]",44814.40000003576,1669834926989,luckycharms,eggs,3.03,3.26,0.22999999999999998,luckycharms,1534.199999988079,1535,1534.5999999642372,True,u,46860.30000001192,2045.8999999761581,1669834929035,2046,HRV,HRV_0225,2022-11-30 19:08:19
21,"[{'imgObject': {}, 'id': 'strawberries', 'src': '/static/foodstim60/strawberries.jpg', 'key': 'u', 'origWidth': 410, 'origHeight': 410, 'width': 410, 'height': 410, 'widthPercent': 0.45, 'rescaleHeight': False, 'trialN': 21, 'loaded': True, 'loadedTime': 3627.800000011921, 'positionName': 'LEFT', 'positionCoords': [511.6, 335], 'bid': 4.07}, {'imgObject': {}, 'id': 'mango', 'src': '/static/foodstim60/mango.jpg', 'key': 'i', 'origWidth': 411, 'origHeight': 411, 'width': 411, 'height': 411, 'widthPercent': 0.45, 'rescaleHeight': False, 'trialN': 21, 'loaded': True, 'loadedTime': 3979, 'positionName': 'RIGHT', 'positionCoords': [998.4, 334.5], 'bid': 3.36}]",46860.5,1669834929035,strawberries,mango,4.07,3.36,-0.7100000000000004,strawberries,1517.4000000357628,1518,1517.800000011921,True,u,48896.10000002384,2035.6000000238419,1669834931071,2036,HRV,HRV_0225,2022-11-30 19:08:19
22,"[{'imgObject': {}, 'id': 'cocktailshrimp', 'src': '/static/foodstim60/cocktailshrimp.jpg', 'key': 'u', 'origWidth': 410, 'origHeight': 410, 'width': 410, 'height': 410, 'widthPercent': 0.45, 'rescaleHeight': False, 'trialN': 22, 'loaded': True, 'loadedTime': 4102.700000047684, 'positionName': 'LEFT', 'positionCoords': [511.6, 335], 'bid': 3.0700000000000003}, {'imgObject': {}, 'id': 'cheerios', 'src': '/static/foodstim60/cheerios.jpg', 'key': 'i', 'origWidth': 409, 'origHeight': 410, 'width': 409, 'height': 410, 'widthPercent': 0.45, 'rescaleHeight': False, 'trialN': 22, 'loaded': True, 'loadedTime': 3825.400000035763, 'positionName': 'RIGHT', 'positionCoords': [998.4, 335], 'bid': 3.19}]",48896.40000003576,1669834931071,cocktailshrimp,cheerios,3.0700000000000003,3.19,0.11999999999999966,cheerios,1193.5999999642372,1194,1193.8999999761581,True,i,50608.60000002384,1712.199999988079,1669834932784,1713,HRV,HRV_0225,2022-11-30 19:08:19
23,"[{'imgObject': {}, 'id': 'pear', 'src': '/static/foodstim60/pear.jpg', 'key': 'u', 'origWidth': 411, 'origHeight': 410, 'width': 411, 'height': 410, 'widthPercent': 0.45, 'rescaleHeight': False, 'trialN': 23, 'loaded': True, 'loadedTime': 3760.100000023842, 'positionName': 'LEFT', 'positionCoords': [510.6, 335], 'bid': 3.09}, {'imgObject': {}, 'id': 'cherries', 'src': '/static/foodstim60/cherries.jpg', 'key': 'i', 'origWidth': 410, 'origHeight': 411, 'width': 410, 'height': 411, 'widthPercent': 0.45, 'rescaleHeight': False, 'trialN': 23, 'loaded': True, 'loadedTime': 4082.600000023842, 'positionName': 'RIGHT', 'positionCoords': [998.4, 334.5], 'bid': 3.0500000000000003}]",50608.80000001192,1669834932784,pear,cherries,3.09,3.0500000000000003,-0.03999999999999959,pear,2140.199999988079,2140,2140.5,True,u,53267.10000002384,2658.300000011921,1669834935442,2658,HRV,HRV_0225,2022-11-30 19:08:19
24,"[{'imgObject': {}, 'id': 'edamame', 'src': '/static/foodstim60/edamame.jpg', 'key': 'u', 'origWidth': 409, 'origHeight': 410, 'width': 409, 'height': 410, 'widthPercent': 0.45, 'rescaleHeight': False, 'trialN': 24, 'loaded': True, 'loadedTime': 4152.100000023842, 'positionName': 'LEFT', 'positionCoords': [512.6, 335], 'bid': 2.82}, {'imgObject': {}, 'id': 'bagel plain', 'src': '/static/foodstim60/bagel plain.jpg', 'key': 'i', 'origWidth': 410, 'origHeight': 410, 'width': 410, 'height': 410, 'widthPercent': 0.45, 'rescaleHeight': False, 'trialN': 24, 'loaded': True, 'loadedTime': 3544.5, 'positionName': 'RIGHT', 'positionCoords': [998.4, 335], 'bid': 2.77}]",53267.30000001192,1669834935442,edamame,bagel plain,2.82,2.77,-0.04999999999999982,bagel plain,1159.699999988079,1160,1160.1000000238419,True,i,54943.30000001192,1676.0,1669834937118,1676,HRV,HRV_0225,2022-11-30 19:08:19
25,"[{'imgObject': {}, 'id': 'baked potato', 'src': '/static/foodstim60/baked potato.jpg', 'key': 'u', 'origWidth': 409, 'origHeight': 410, 'width': 409, 'height': 410, 'widthPercent': 0.45, 'rescaleHeight': False, 'trialN': 25, 'loaded': True, 'loadedTime': 4173, 'positionName': 'LEFT', 'positionCoords': [512.6, 335], 'bid': 4.68}, {'imgObject': {}, 'id': 'rigatoni', 'src': '/static/foodstim60/rigatoni.jpg', 'key': 'i', 'origWidth': 411, 'origHeight': 411, 'width': 411, 'height': 411, 'widthPercent': 0.45, 'rescaleHeight': False, 'trialN': 25, 'loaded': True, 'loadedTime': 4175.900000035763, 'positionName': 'RIGHT', 'positionCoords': [998.4, 334.5], 'bid': 5.3}]",54943.60000002384,1669834937118,baked potato,rigatoni,4.68,5.3,0.6200000000000001,rigatoni,1546.6000000238419,1548,1546.8999999761581,True,i,57009.40000003576,2065.800000011921,1669834939184,2066,HRV,HRV_0225,2022-11-30 19:08:19
26,"[{'imgObject': {}, 'id': 'mac & cheese', 'src': '/static/foodstim60/mac & cheese.jpg', 'key': 'u', 'origWidth': 410, 'origHeight': 410, 'width': 410, 'height': 410, 'widthPercent': 0.45, 'rescaleHeight': False, 'trialN': 26, 'loaded': True, 'loadedTime': 3713.900000035763, 'positionName': 'LEFT', 'positionCoords': [511.6, 335], 'bid': 6.08}, {'imgObject': {}, 'id': 'roastedpotatoes', 'src': '/static/foodstim60/roastedpotatoes.jpg', 'key': 'i', 'origWidth': 409, 'origHeight': 410, 'width': 409, 'height': 410, 'widthPercent': 0.45, 'rescaleHeight': False, 'trialN': 26, 'loaded': True, 'loadedTime': 4112.600000023842, 'positionName': 'RIGHT', 'positionCoords': [998.4, 335], 'bid': 5}]",57009.60000002384,1669834939185,mac & cheese,roastedpotatoes,6.08,5.0,-1.08,mac & cheese,1085.3999999761581,1085,1085.699999988079,True,u,58598.80000001192,1589.199999988079,1669834940774,1589,HRV,HRV_0225,2022-11-30 19:08:19
27,"[{'imgObject': {}, 'id': 'salad w chicken', 'src': '/static/foodstim60/salad w chicken.jpg', 'key': 'u', 'origWidth': 411, 'origHeight': 411, 'width': 411, 'height': 411, 'widthPercent': 0.45, 'rescaleHeight': False, 'trialN': 27, 'loaded': True, 'loadedTime': 4114.5, 'positionName': 'LEFT', 'positionCoords': [510.6, 334.5], 'bid': 5.43}, {'imgObject': {}, 'id': 'tacos', 'src': '/static/foodstim60/tacos.jpg', 'key': 'i', 'origWidth': 411, 'origHeight': 411, 'width': 411, 'height': 411, 'widthPercent': 0.45, 'rescaleHeight': False, 'trialN': 27, 'loaded': True, 'loadedTime': 3744.2000000476837, 'positionName': 'RIGHT', 'positionCoords': [998.4, 334.5], 'bid': 5.73}]",58599.200000047684,1669834940774,salad w chicken,tacos,5.43,5.73,0.3000000000000007,tacos,1455.5,1456,1455.7999999523163,True,i,60561.200000047684,1962.0,1669834942736,1962,HRV,HRV_0225,2022-11-30 19:08:19
28,"[{'imgObject': {}, 'id': 'froot loops w milk', 'src': '/static/foodstim60/froot loops w milk.jpg', 'key': 'u', 'origWidth': 410, 'origHeight': 410, 'width': 410, 'height': 410, 'widthPercent': 0.45, 'rescaleHeight': False, 'trialN': 28, 'loaded': True, 'loadedTime': 4194, 'positionName': 'LEFT', 'positionCoords': [511.6, 335], 'bid': 4.58}, {'imgObject': {}, 'id': 'sushi w_condiments', 'src': '/static/foodstim60/sushi w_condiments.jpg', 'key': 'i', 'origWidth': 410, 'origHeight': 410, 'width': 410, 'height': 410, 'widthPercent': 0.45, 'rescaleHeight': False, 'trialN': 28, 'loaded': True, 'loadedTime': 4212.700000047684, 'positionName': 'RIGHT', 'positionCoords': [998.4, 335], 'bid': 3.79}]",60561.60000002384,1669834942737,froot loops w milk,sushi w_condiments,4.58,3.79,-0.79,froot loops w milk,1767.300000011921,1767,1767.699999988079,True,u,62846.40000003576,2284.800000011921,1669834945021,2284,HRV,HRV_0225,2022-11-30 19:08:19
29,"[{'imgObject': {}, 'id': 'eggs', 'src': '/static/foodstim60/eggs.jpg', 'key': 'u', 'origWidth': 409, 'origHeight': 409, 'width': 409, 'height': 409, 'widthPercent': 0.45, 'rescaleHeight': False, 'trialN': 29, 'loaded': True, 'loadedTime': 4129.800000011921, 'positionName': 'LEFT', 'positionCoords': [512.6, 335.5], 'bid': 3.26}, {'imgObject': {}, 'id': 'mango', 'src': '/static/foodstim60/mango.jpg', 'key': 'i', 'origWidth': 411, 'origHeight': 411, 'width': 411, 'height': 411, 'widthPercent': 0.45, 'rescaleHeight': False, 'trialN': 29, 'loaded': True, 'loadedTime': 3980.400000035763, 'positionName': 'RIGHT', 'positionCoords': [998.4, 334.5], 'bid': 3.36}]",62846.700000047684,1669834945022,eggs,mango,3.26,3.36,0.10000000000000009,mango,1395.7999999523163,1396,1396.199999988079,True,i,64762.80000001192,1916.0999999642372,1669834946938,1916,HRV,HRV_0225,2022-11-30 19:08:19
30,"[{'imgObject': {}, 'id': 'seaweed', 'src': '/static/foodstim60/seaweed.jpg', 'key': 'u', 'origWidth': 410, 'origHeight': 410, 'width': 410, 'height': 410, 'widthPercent': 0.45, 'rescaleHeight': False, 'trialN': 30, 'loaded': True, 'loadedTime': 4235.100000023842, 'positionName': 'LEFT', 'positionCoords': [511.6, 335], 'bid': 1.31}, {'imgObject': {}, 'id': 'olives', 'src': '/static/foodstim60/olives.jpg', 'key': 'i', 'origWidth': 410, 'origHeight': 410, 'width': 410, 'height': 410, 'widthPercent': 0.45, 'rescaleHeight': False, 'trialN': 30, 'loaded': True, 'loadedTime': 4254.600000023842, 'positionName': 'RIGHT', 'positionCoords': [998.4, 335], 'bid': 1.37}]",64763.10000002384,1669834946938,seaweed,olives,1.31,1.37,0.06000000000000005,olives,1642.0,1642,1642.300000011921,True,i,66913.10000002384,2150.0,1669834949088,2150,HRV,HRV_0225,2022-11-30 19:08:19
31,"[{'imgObject': {}, 'id': 'cherries', 'src': '/static/foodstim60/cherries.jpg', 'key': 'u', 'origWidth': 410, 'origHeight': 411, 'width': 410, 'height': 411, 'widthPercent': 0.45, 'rescaleHeight': False, 'trialN': 31, 'loaded': True, 'loadedTime': 4061.900000035763, 'positionName': 'LEFT', 'positionCoords': [511.6, 334.5], 'bid': 3.0500000000000003}, {'imgObject': {}, 'id': 'rigatoni', 'src': '/static/foodstim60/rigatoni.jpg', 'key': 'i', 'origWidth': 411, 'origHeight': 411, 'width': 411, 'height': 411, 'widthPercent': 0.45, 'rescaleHeight': False, 'trialN': 31, 'loaded': True, 'loadedTime': 4176, 'positionName': 'RIGHT', 'positionCoords': [998.4, 334.5], 'bid': 5.3}]",66913.30000001192,1669834949088,cherries,rigatoni,3.0500000000000003,5.3,2.2499999999999996,rigatoni,1130.4000000357628,1131,1130.699999988079,True,i,68550.80000001192,1637.5,1669834950726,1638,HRV,HRV_0225,2022-11-30 19:08:19
32,"[{'imgObject': {}, 'id': 'rigatoni', 'src': '/static/foodstim60/rigatoni.jpg', 'key': 'u', 'origWidth': 411, 'origHeight': 411, 'width': 411, 'height': 411, 'widthPercent': 0.45, 'rescaleHeight': False, 'trialN': 32, 'loaded': True, 'loadedTime': 4175.600000023842, 'positionName': 'LEFT', 'positionCoords': [510.6, 334.5], 'bid': 5.3}, {'imgObject': {}, 'id': 'strawberries', 'src': '/static/foodstim60/strawberries.jpg', 'key': 'i', 'origWidth': 410, 'origHeight': 410, 'width': 410, 'height': 410, 'widthPercent': 0.45, 'rescaleHeight': False, 'trialN': 32, 'loaded': True, 'loadedTime': 3627.600000023842, 'positionName': 'RIGHT', 'positionCoords': [998.4, 335], 'bid': 4.07}]",68551.10000002384,1669834950726,rigatoni,strawberries,5.3,4.07,-1.2299999999999995,rigatoni,1087.199999988079,1088,1087.3999999761581,True,u,70143.5,1592.3999999761581,1669834952318,1592,HRV,HRV_0225,2022-11-30 19:08:19
33,"[{'imgObject': {}, 'id': 'banana', 'src': '/static/foodstim60/banana.jpg', 'key': 'u', 'origWidth': 410, 'origHeight': 410, 'width': 410, 'height': 410, 'widthPercent': 0.45, 'rescaleHeight': False, 'trialN': 33, 'loaded': True, 'loadedTime': 4274.400000035763, 'positionName': 'LEFT', 'positionCoords': [511.6, 335], 'bid': 4.54}, {'imgObject': {}, 'id': 'fried eggs', 'src': '/static/foodstim60/fried eggs.jpg', 'key': 'i', 'origWidth': 410, 'origHeight': 410, 'width': 410, 'height': 410, 'widthPercent': 0.45, 'rescaleHeight': False, 'trialN': 33, 'loaded': True, 'loadedTime': 3605, 'positionName': 'RIGHT', 'positionCoords': [998.4, 335], 'bid': 4.59}]",70143.70000004768,1669834952319,banana,fried eggs,4.54,4.59,0.04999999999999982,fried eggs,1582.5,1583,1582.8999999761581,True,i,72231.10000002384,2087.399999976158,1669834954406,2087,HRV,HRV_0225,2022-11-30 19:08:19
34,"[{'imgObject': {}, 'id': 'pear', 'src': '/static/foodstim60/pear.jpg', 'key': 'u', 'origWidth': 411, 'origHeight': 410, 'width': 411, 'height': 410, 'widthPercent': 0.45, 'rescaleHeight': False, 'trialN': 34, 'loaded': True, 'loadedTime': 3759.2000000476837, 'positionName': 'LEFT', 'positionCoords': [510.6, 335], 'bid': 3.09}, {'imgObject': {}, 'id': 'shreddedwheatwithmilk', 'src': '/static/foodstim60/shreddedwheatwithmilk.jpg', 'key': 'i', 'origWidth': 410, 'origHeight': 410, 'width': 410, 'height': 410, 'widthPercent': 0.45, 'rescaleHeight': False, 'trialN': 34, 'loaded': True, 'loadedTime': 4294.700000047684, 'positionName': 'RIGHT', 'positionCoords': [998.4, 335], 'bid': 2.98}]",72231.40000003576,1669834954406,pear,shreddedwheatwithmilk,3.09,2.98,-0.10999999999999988,pear,1896.5999999642372,1897,1896.8999999761581,True,u,74648.0,2416.599999964237,1669834956823,2417,HRV,HRV_0225,2022-11-30 19:08:19
35,"[{'imgObject': {}, 'id': 'tacos', 'src': '/static/foodstim60/tacos.jpg', 'key': 'u', 'origWidth': 411, 'origHeight': 411, 'width': 411, 'height': 411, 'widthPercent': 0.45, 'rescaleHeight': False, 'trialN': 35, 'loaded': True, 'loadedTime': 3742.400000035763, 'positionName': 'LEFT', 'positionCoords': [510.6, 334.5], 'bid': 5.73}, {'imgObject': {}, 'id': 'cheerios', 'src': '/static/foodstim60/cheerios.jpg', 'key': 'i', 'origWidth': 409, 'origHeight': 410, 'width': 409, 'height': 410, 'widthPercent': 0.45, 'rescaleHeight': False, 'trialN': 35, 'loaded': True, 'loadedTime': 3801.7000000476837, 'positionName': 'RIGHT', 'positionCoords': [998.4, 335], 'bid': 3.19}]",74648.30000001192,1669834956823,tacos,cheerios,5.73,3.19,-2.5400000000000005,tacos,2134.600000023842,2136,2135.300000011921,True,u,77287.80000001192,2639.5,1669834959463,2640,HRV,HRV_0225,2022-11-30 19:08:19
36,"[{'imgObject': {}, 'id': 'baked potato', 'src': '/static/foodstim60/baked potato.jpg', 'key': 'u', 'origWidth': 409, 'origHeight': 410, 'width': 409, 'height': 410, 'widthPercent': 0.45, 'rescaleHeight': False, 'trialN': 36, 'loaded': True, 'loadedTime': 4173.400000035763, 'positionName': 'LEFT', 'positionCoords': [512.6, 335], 'bid': 4.68}, {'imgObject': {}, 'id': 'steak', 'src': '/static/foodstim60/steak.jpg', 'key': 'i', 'origWidth': 410, 'origHeight': 410, 'width': 410, 'height': 410, 'widthPercent': 0.45, 'rescaleHeight': False, 'trialN': 36, 'loaded': True, 'loadedTime': 3890.5, 'positionName': 'RIGHT', 'positionCoords': [998.4, 335], 'bid': 6.640000000000001}]",77288.20000004768,1669834959463,baked potato,steak,4.68,6.640000000000001,1.9600000000000009,steak,1091.5,1092,1091.8999999761581,True,i,78884.30000001192,1596.0999999642372,1669834961059,1596,HRV,HRV_0225,2022-11-30 19:08:19
37,"[{'imgObject': {}, 'id': 'shreddedwheatwithmilk', 'src': '/static/foodstim60/shreddedwheatwithmilk.jpg', 'key': 'u', 'origWidth': 410, 'origHeight': 410, 'width': 410, 'height': 410, 'widthPercent': 0.45, 'rescaleHeight': False, 'trialN': 37, 'loaded': True, 'loadedTime': 4294.900000035763, 'positionName': 'LEFT', 'positionCoords': [511.6, 335], 'bid': 2.98}, {'imgObject': {}, 'id': 'omelette', 'src': '/static/foodstim60/omelette.jpg', 'key': 'i', 'origWidth': 410, 'origHeight': 409, 'width': 410, 'height': 409, 'widthPercent': 0.45, 'rescaleHeight': False, 'trialN': 37, 'loaded': True, 'loadedTime': 3825.7000000476837, 'positionName': 'RIGHT', 'positionCoords': [998.4, 335.5], 'bid': 5}]",78884.5,1669834961059,shreddedwheatwithmilk,omelette,2.98,5.0,2.02,omelette,1151.300000011921,1152,1151.7000000476837,True,i,80553.10000002384,1668.6000000238419,1669834962728,1669,HRV,HRV_0225,2022-11-30 19:08:19
38,"[{'imgObject': {}, 'id': 'turkeysandwich', 'src': '/static/foodstim60/turkeysandwich.jpg', 'key': 'u', 'origWidth': 409, 'origHeight': 409, 'width': 409, 'height': 409, 'widthPercent': 0.45, 'rescaleHeight': False, 'trialN': 38, 'loaded': True, 'loadedTime': 4312.100000023842, 'positionName': 'LEFT', 'positionCoords': [512.6, 335.5], 'bid': 4.97}, {'imgObject': {}, 'id': 'blackbeanswithrice', 'src': '/static/foodstim60/blackbeanswithrice.jpg', 'key': 'i', 'origWidth': 410, 'origHeight': 410, 'width': 410, 'height': 410, 'widthPercent': 0.45, 'rescaleHeight': False, 'trialN': 38, 'loaded': True, 'loadedTime': 3741.300000011921, 'positionName': 'RIGHT', 'positionCoords': [998.4, 335], 'bid': 6.0200000000000005}]",80553.30000001192,1669834962728,turkeysandwich,blackbeanswithrice,4.97,6.0200000000000005,1.0500000000000007,blackbeanswithrice,1173.5,1174,1173.9000000357628,True,i,82236.0,1682.699999988079,1669834964411,1683,HRV,HRV_0225,2022-11-30 19:08:19
39,"[{'imgObject': {}, 'id': 'corn cob', 'src': '/static/foodstim60/corn cob.jpg', 'key': 'u', 'origWidth': 411, 'origHeight': 411, 'width': 411, 'height': 411, 'widthPercent': 0.45, 'rescaleHeight': False, 'trialN': 39, 'loaded': True, 'loadedTime': 3631.400000035763, 'positionName': 'LEFT', 'positionCoords': [510.6, 334.5], 'bid': 4.3500000000000005}, {'imgObject': {}, 'id': 'raisin bran w milk', 'src': '/static/foodstim60/raisin bran w milk.jpg', 'key': 'i', 'origWidth': 411, 'origHeight': 411, 'width': 411, 'height': 411, 'widthPercent': 0.45, 'rescaleHeight': False, 'trialN': 39, 'loaded': True, 'loadedTime': 4312.800000011921, 'positionName': 'RIGHT', 'positionCoords': [998.4, 334.5], 'bid': 2.53}]",82236.30000001192,1669834964411,corn cob,raisin bran w milk,4.3500000000000005,2.53,-1.8200000000000007,corn cob,1912.5,1913,1912.9000000357628,True,u,84656.20000004768,2419.900000035763,1669834966831,2420,HRV,HRV_0225,2022-11-30 19:08:19
40,"[{'imgObject': {}, 'id': 'cherries', 'src': '/static/foodstim60/cherries.jpg', 'key': 'u', 'origWidth': 410, 'origHeight': 411, 'width': 410, 'height': 411, 'widthPercent': 0.45, 'rescaleHeight': False, 'trialN': 40, 'loaded': True, 'loadedTime': 4081.800000011921, 'positionName': 'LEFT', 'positionCoords': [511.6, 334.5], 'bid': 3.0500000000000003}, {'imgObject': {}, 'id': 'raspberries', 'src': '/static/foodstim60/raspberries.jpg', 'key': 'i', 'origWidth': 411, 'origHeight': 411, 'width': 411, 'height': 411, 'widthPercent': 0.45, 'rescaleHeight': False, 'trialN': 40, 'loaded': True, 'loadedTime': 4338.200000047684, 'positionName': 'RIGHT', 'positionCoords': [998.4, 334.5], 'bid': 2.54}]",84656.5,1669834966831,cherries,raspberries,3.0500000000000003,2.54,-0.5100000000000002,cherries,1154.4000000357628,1155,1154.9000000357628,True,u,86325.60000002384,1669.1000000238419,1669834968501,1670,HRV,HRV_0225,2022-11-30 19:08:19
41,"[{'imgObject': {}, 'id': 'Grapes', 'src': '/static/foodstim60/Grapes.jpg', 'key': 'u', 'origWidth': 411, 'origHeight': 411, 'width': 411, 'height': 411, 'widthPercent': 0.45, 'rescaleHeight': False, 'trialN': 41, 'loaded': True, 'loadedTime': 3729.300000011921, 'positionName': 'LEFT', 'positionCoords': [510.6, 334.5], 'bid': 2.86}, {'imgObject': {}, 'id': 'bagel plain', 'src': '/static/foodstim60/bagel plain.jpg', 'key': 'i', 'origWidth': 410, 'origHeight': 410, 'width': 410, 'height': 410, 'widthPercent': 0.45, 'rescaleHeight': False, 'trialN': 41, 'loaded': True, 'loadedTime': 3559.800000011921, 'positionName': 'RIGHT', 'positionCoords': [998.4, 335], 'bid': 2.77}]",86325.80000001192,1669834968501,Grapes,bagel plain,2.86,2.77,-0.08999999999999986,bagel plain,972.8000000119209,973,973.1000000238419,True,i,87819.20000004768,1493.4000000357628,1669834969994,1493,HRV,HRV_0225,2022-11-30 19:08:19
42,"[{'imgObject': {}, 'id': 'rigatoni', 'src': '/static/foodstim60/rigatoni.jpg', 'key': 'u', 'origWidth': 411, 'origHeight': 411, 'width': 411, 'height': 411, 'widthPercent': 0.45, 'rescaleHeight': False, 'trialN': 42, 'loaded': True, 'loadedTime': 4174, 'positionName': 'LEFT', 'positionCoords': [510.6, 334.5], 'bid': 5.3}, {'imgObject': {}, 'id': 'turkey sandwich', 'src': '/static/foodstim60/turkey sandwich.jpg', 'key': 'i', 'origWidth': 409, 'origHeight': 409, 'width': 409, 'height': 409, 'widthPercent': 0.45, 'rescaleHeight': False, 'trialN': 42, 'loaded': True, 'loadedTime': 3644.800000011921, 'positionName': 'RIGHT', 'positionCoords': [998.4, 335.5], 'bid': 5.3100000000000005}]",87819.40000003576,1669834969994,rigatoni,turkey sandwich,5.3,5.3100000000000005,0.010000000000000675,turkey sandwich,1965.0999999642372,1966,1965.5,True,i,90297.90000003576,2478.5,1669834972473,2479,HRV,HRV_0225,2022-11-30 19:08:19
43,"[{'imgObject': {}, 'id': 'popsicles', 'src': '/static/foodstim60/popsicles.jpg', 'key': 'u', 'origWidth': 410, 'origHeight': 410, 'width': 410, 'height': 410, 'widthPercent': 0.45, 'rescaleHeight': False, 'trialN': 43, 'loaded': True, 'loadedTime': 4455.700000047684, 'positionName': 'LEFT', 'positionCoords': [511.6, 335], 'bid': 3.77}, {'imgObject': {}, 'id': 'banana', 'src': '/static/foodstim60/banana.jpg', 'key': 'i', 'origWidth': 410, 'origHeight': 410, 'width': 410, 'height': 410, 'widthPercent': 0.45, 'rescaleHeight': False, 'trialN': 43, 'loaded': True, 'loadedTime': 4275.900000035763, 'positionName': 'RIGHT', 'positionCoords': [998.4, 335], 'bid': 4.54}]",90298.20000004768,1669834972473,popsicles,banana,3.77,4.54,0.77,banana,1382.5999999642372,1383,1382.8999999761581,True,i,92189.90000003576,1891.699999988079,1669834974365,1892,HRV,HRV_0225,2022-11-30 19:08:19
44,"[{'imgObject': {}, 'id': 'mango', 'src': '/static/foodstim60/mango.jpg', 'key': 'u', 'origWidth': 411, 'origHeight': 411, 'width': 411, 'height': 411, 'widthPercent': 0.45, 'rescaleHeight': False, 'trialN': 44, 'loaded': True, 'loadedTime': 3981, 'positionName': 'LEFT', 'positionCoords': [510.6, 334.5], 'bid': 3.36}, {'imgObject': {}, 'id': 'raspberries', 'src': '/static/foodstim60/raspberries.jpg', 'key': 'i', 'origWidth': 411, 'origHeight': 411, 'width': 411, 'height': 411, 'widthPercent': 0.45, 'rescaleHeight': False, 'trialN': 44, 'loaded': True, 'loadedTime': 4337.700000047684, 'positionName': 'RIGHT', 'positionCoords': [998.4, 334.5], 'bid': 2.54}]",92190.10000002384,1669834974365,mango,raspberries,3.36,2.54,-0.8199999999999998,mango,1420.1000000238419,1420,1420.5,True,u,94116.80000001192,1926.699999988079,1669834976292,1927,HRV,HRV_0225,2022-11-30 19:08:19
45,"[{'imgObject': {}, 'id': 'raisin bran w milk', 'src': '/static/foodstim60/raisin bran w milk.jpg', 'key': 'u', 'origWidth': 411, 'origHeight': 411, 'width': 411, 'height': 411, 'widthPercent': 0.45, 'rescaleHeight': False, 'trialN': 45, 'loaded': True, 'loadedTime': 4314.100000023842, 'positionName': 'LEFT', 'positionCoords': [510.6, 334.5], 'bid': 2.53}, {'imgObject': {}, 'id': 'blueberries', 'src': '/static/foodstim60/blueberries.jpg', 'key': 'i', 'origWidth': 411, 'origHeight': 411, 'width': 411, 'height': 411, 'widthPercent': 0.45, 'rescaleHeight': False, 'trialN': 45, 'loaded': True, 'loadedTime': 4360.100000023842, 'positionName': 'RIGHT', 'positionCoords': [998.4, 334.5], 'bid': 2.68}]",94117.10000002384,1669834976292,raisin bran w milk,blueberries,2.53,2.68,0.15000000000000036,raisin bran w milk,1910.300000011921,1911,1910.6000000238419,True,u,96534.0,2416.899999976158,1669834978709,2417,HRV,HRV_0225,2022-11-30 19:08:19
46,"[{'imgObject': {}, 'id': 'lox', 'src': '/static/foodstim60/lox.jpg', 'key': 'u', 'origWidth': 410, 'origHeight': 411, 'width': 410, 'height': 411, 'widthPercent': 0.45, 'rescaleHeight': False, 'trialN': 46, 'loaded': True, 'loadedTime': 4362.5, 'positionName': 'LEFT', 'positionCoords': [511.6, 334.5], 'bid': 3.98}, {'imgObject': {}, 'id': 'cherry tomato', 'src': '/static/foodstim60/cherry tomato.jpg', 'key': 'i', 'origWidth': 410, 'origHeight': 410, 'width': 410, 'height': 410, 'widthPercent': 0.45, 'rescaleHeight': False, 'trialN': 46, 'loaded': True, 'loadedTime': 4363.900000035763, 'positionName': 'RIGHT', 'positionCoords': [998.4, 335], 'bid': 3.64}]",96534.20000004768,1669834978709,lox,cherry tomato,3.98,3.64,-0.33999999999999986,cherry tomato,1917.8999999761581,1918,1918.2999999523163,True,i,98967.30000001192,2433.099999964237,1669834981142,2433,HRV,HRV_0225,2022-11-30 19:08:19
47,"[{'imgObject': {}, 'id': 'fruitsalad', 'src': '/static/foodstim60/fruitsalad.jpg', 'key': 'u', 'origWidth': 410, 'origHeight': 410, 'width': 410, 'height': 410, 'widthPercent': 0.45, 'rescaleHeight': False, 'trialN': 47, 'loaded': True, 'loadedTime': 3623.7000000476837, 'positionName': 'LEFT', 'positionCoords': [511.6, 335], 'bid': 1.62}, {'imgObject': {}, 'id': 'shreddedwheatwithmilk', 'src': '/static/foodstim60/shreddedwheatwithmilk.jpg', 'key': 'i', 'origWidth': 410, 'origHeight': 410, 'width': 410, 'height': 410, 'widthPercent': 0.45, 'rescaleHeight': False, 'trialN': 47, 'loaded': True, 'loadedTime': 4294.800000011921, 'positionName': 'RIGHT', 'positionCoords': [998.4, 335], 'bid': 2.98}]",98967.40000003576,1669834981142,fruitsalad,shreddedwheatwithmilk,1.62,2.98,1.3599999999999999,shreddedwheatwithmilk,1092.699999988079,1094,1093.300000011921,True,i,100565.30000001192,1597.8999999761581,1669834982740,1598,HRV,HRV_0225,2022-11-30 19:08:19
48,"[{'imgObject': {}, 'id': 'edamame', 'src': '/static/foodstim60/edamame.jpg', 'key': 'u', 'origWidth': 409, 'origHeight': 410, 'width': 409, 'height': 410, 'widthPercent': 0.45, 'rescaleHeight': False, 'trialN': 48, 'loaded': True, 'loadedTime': 4151.900000035763, 'positionName': 'LEFT', 'positionCoords': [512.6, 335], 'bid': 2.82}, {'imgObject': {}, 'id': 'cherry tomato', 'src': '/static/foodstim60/cherry tomato.jpg', 'key': 'i', 'origWidth': 410, 'origHeight': 410, 'width': 410, 'height': 410, 'widthPercent': 0.45, 'rescaleHeight': False, 'trialN': 48, 'loaded': True, 'loadedTime': 4363.200000047684, 'positionName': 'RIGHT', 'positionCoords': [998.4, 335], 'bid': 3.64}]",100565.70000004768,1669834982741,edamame,cherry tomato,2.82,3.64,0.8200000000000003,cherry tomato,1175.0,1175,1175.2999999523163,True,i,102249.20000004768,1683.5,1669834984424,1683,HRV,HRV_0225,2022-11-30 19:08:19
49,"[{'imgObject': {}, 'id': 'edamame', 'src': '/static/foodstim60/edamame.jpg', 'key': 'u', 'origWidth': 409, 'origHeight': 410, 'width': 409, 'height': 410, 'widthPercent': 0.45, 'rescaleHeight': False, 'trialN': 49, 'loaded': True, 'loadedTime': 4151.400000035763, 'positionName': 'LEFT', 'positionCoords': [512.6, 335], 'bid': 2.82}, {'imgObject': {}, 'id': 'cantaloupe', 'src': '/static/foodstim60/cantaloupe.jpg', 'key': 'i', 'origWidth': 409, 'origHeight': 409, 'width': 409, 'height': 409, 'widthPercent': 0.45, 'rescaleHeight': False, 'trialN': 49, 'loaded': True, 'loadedTime': 4383.400000035763, 'positionName': 'RIGHT', 'positionCoords': [998.4, 335.5], 'bid': 1.82}]",102249.5,1669834984424,edamame,cantaloupe,2.82,1.82,-0.9999999999999998,edamame,2988.600000023842,2990,2989.0,True,u,105742.30000001192,3492.800000011921,1669834987917,3493,HRV,HRV_0225,2022-11-30 19:08:19
50,"[{'imgObject': {}, 'id': 'eggsalad', 'src': '/static/foodstim60/eggsalad.jpg', 'key': 'u', 'origWidth': 410, 'origHeight': 409, 'width': 410, 'height': 409, 'widthPercent': 0.45, 'rescaleHeight': False, 'trialN': 50, 'loaded': True, 'loadedTime': 3871.2000000476837, 'positionName': 'LEFT', 'positionCoords': [511.6, 335.5], 'bid': 4.51}, {'imgObject': {}, 'id': 'blackbeanswithrice', 'src': '/static/foodstim60/blackbeanswithrice.jpg', 'key': 'i', 'origWidth': 410, 'origHeight': 410, 'width': 410, 'height': 410, 'widthPercent': 0.45, 'rescaleHeight': False, 'trialN': 50, 'loaded': True, 'loadedTime': 3739.600000023842, 'positionName': 'RIGHT', 'positionCoords': [998.4, 335], 'bid': 6.0200000000000005}]",105742.5,1669834987918,eggsalad,blackbeanswithrice,4.51,6.0200000000000005,1.5100000000000007,blackbeanswithrice,1177.800000011921,1178,1178.1000000238419,True,i,107437.40000003576,1694.9000000357628,1669834989612,1694,HRV,HRV_0225,2022-11-30 19:08:19
51,"[{'imgObject': {}, 'id': 'mashed potato', 'src': '/static/foodstim60/mashed potato.jpg', 'key': 'u', 'origWidth': 409, 'origHeight': 409, 'width': 409, 'height': 409, 'widthPercent': 0.45, 'rescaleHeight': False, 'trialN': 51, 'loaded': True, 'loadedTime': 4385.300000011921, 'positionName': 'LEFT', 'positionCoords': [512.6, 335.5], 'bid': 4.07}, {'imgObject': {}, 'id': 'ice cream sundae 002', 'src': '/static/foodstim60/ice cream sundae 002.jpg', 'key': 'i', 'origWidth': 409, 'origHeight': 409, 'width': 409, 'height': 409, 'widthPercent': 0.45, 'rescaleHeight': False, 'trialN': 51, 'loaded': True, 'loadedTime': 4002.400000035763, 'positionName': 'RIGHT', 'positionCoords': [998.4, 335.5], 'bid': 3.72}]",107437.70000004768,1669834989613,mashed potato,ice cream sundae 002,4.07,3.72,-0.3500000000000001,ice cream sundae 002,1143.199999988079,1143,1143.5999999642372,True,i,109094.30000001192,1656.5999999642372,1669834991269,1656,HRV,HRV_0225,2022-11-30 19:08:19
52,"[{'imgObject': {}, 'id': 'bagel plain', 'src': '/static/foodstim60/bagel plain.jpg', 'key': 'u', 'origWidth': 410, 'origHeight': 410, 'width': 410, 'height': 410, 'widthPercent': 0.45, 'rescaleHeight': False, 'trialN': 52, 'loaded': True, 'loadedTime': 3541.7000000476837, 'positionName': 'LEFT', 'positionCoords': [511.6, 335], 'bid': 2.77}, {'imgObject': {}, 'id': 'pear', 'src': '/static/foodstim60/pear.jpg', 'key': 'i', 'origWidth': 411, 'origHeight': 410, 'width': 411, 'height': 410, 'widthPercent': 0.45, 'rescaleHeight': False, 'trialN': 52, 'loaded': True, 'loadedTime': 3780, 'positionName': 'RIGHT', 'positionCoords': [998.4, 335], 'bid': 3.09}]",109094.60000002384,1669834991270,bagel plain,pear,2.77,3.09,0.31999999999999984,bagel plain,1094.199999988079,1094,1094.5,True,u,110700.40000003576,1605.800000011921,1669834992875,1605,HRV,HRV_0225,2022-11-30 19:08:19
53,"[{'imgObject': {}, 'id': 'corn cob', 'src': '/static/foodstim60/corn cob.jpg', 'key': 'u', 'origWidth': 411, 'origHeight': 411, 'width': 411, 'height': 411, 'widthPercent': 0.45, 'rescaleHeight': False, 'trialN': 53, 'loaded': True, 'loadedTime': 3634.300000011921, 'positionName': 'LEFT', 'positionCoords': [510.6, 334.5], 'bid': 4.3500000000000005}, {'imgObject': {}, 'id': 'sweetpotato', 'src': '/static/foodstim60/sweetpotato.jpg', 'key': 'i', 'origWidth': 410, 'origHeight': 410, 'width': 410, 'height': 410, 'widthPercent': 0.45, 'rescaleHeight': False, 'trialN': 53, 'loaded': True, 'loadedTime': 4403.600000023842, 'positionName': 'RIGHT', 'positionCoords': [998.4, 335], 'bid': 4.17}]",110700.5,1669834992876,corn cob,sweetpotato,4.3500000000000005,4.17,-0.1800000000000006,corn cob,1135.6000000238419,1136,1136.0,True,u,112347.30000001192,1646.800000011921,1669834994522,1646,HRV,HRV_0225,2022-11-30 19:08:19
54,"[{'imgObject': {}, 'id': 'blueberries', 'src': '/static/foodstim60/blueberries.jpg', 'key': 'u', 'origWidth': 411, 'origHeight': 411, 'width': 411, 'height': 411, 'widthPercent': 0.45, 'rescaleHeight': False, 'trialN': 54, 'loaded': True, 'loadedTime': 4358.100000023842, 'positionName': 'LEFT', 'positionCoords': [510.6, 334.5], 'bid': 2.68}, {'imgObject': {}, 'id': 'banana', 'src': '/static/foodstim60/banana.jpg', 'key': 'i', 'origWidth': 410, 'origHeight': 410, 'width': 410, 'height': 410, 'widthPercent': 0.45, 'rescaleHeight': False, 'trialN': 54, 'loaded': True, 'loadedTime': 4275.300000011921, 'positionName': 'RIGHT', 'positionCoords': [998.4, 335], 'bid': 4.54}]",112347.60000002384,1669834994523,blueberries,banana,2.68,4.54,1.8599999999999999,banana,873.8000000119209,874,874.1000000238419,True,i,113733.10000002384,1385.5,1669834995908,1385,HRV,HRV_0225,2022-11-30 19:08:19
55,"[{'imgObject': {}, 'id': 'Tribe humus pita', 'src': '/static/foodstim60/Tribe humus pita.jpg', 'key': 'u', 'origWidth': 411, 'origHeight': 411, 'width': 411, 'height': 411, 'widthPercent': 0.45, 'rescaleHeight': False, 'trialN': 55, 'loaded': True, 'loadedTime': 3679, 'positionName': 'LEFT', 'positionCoords': [510.6, 334.5], 'bid': 3.65}, {'imgObject': {}, 'id': 'corn cob', 'src': '/static/foodstim60/corn cob.jpg', 'key': 'i', 'origWidth': 411, 'origHeight': 411, 'width': 411, 'height': 411, 'widthPercent': 0.45, 'rescaleHeight': False, 'trialN': 55, 'loaded': True, 'loadedTime': 3637.100000023842, 'positionName': 'RIGHT', 'positionCoords': [998.4, 334.5], 'bid': 4.3500000000000005}]",113733.40000003576,1669834995908,Tribe humus pita,corn cob,3.65,4.3500000000000005,0.7000000000000006,Tribe humus pita,1884.0,1885,1884.5,True,u,116137.90000003576,2404.5,1669834998313,2405,HRV,HRV_0225,2022-11-30 19:08:19
56,"[{'imgObject': {}, 'id': 'yogurt no spoon', 'src': '/static/foodstim60/yogurt no spoon.jpg', 'key': 'u', 'origWidth': 411, 'origHeight': 410, 'width': 411, 'height': 410, 'widthPercent': 0.45, 'rescaleHeight': False, 'trialN': 56, 'loaded': True, 'loadedTime': 4406.200000047684, 'positionName': 'LEFT', 'positionCoords': [510.6, 335], 'bid': 2.98}, {'imgObject': {}, 'id': 'shreddedwheatwithmilk', 'src': '/static/foodstim60/shreddedwheatwithmilk.jpg', 'key': 'i', 'origWidth': 410, 'origHeight': 410, 'width': 410, 'height': 410, 'widthPercent': 0.45, 'rescaleHeight': False, 'trialN': 56, 'loaded': True, 'loadedTime': 4294.5, 'positionName': 'RIGHT', 'positionCoords': [998.4, 335], 'bid': 2.98}]",116138.10000002384,1669834998313,yogurt no spoon,shreddedwheatwithmilk,2.98,2.98,0.0,shreddedwheatwithmilk,857.6000000238419,858,858.0,True,i,117500.5,1362.3999999761581,1669834999676,1363,HRV,HRV_0225,2022-11-30 19:08:19
57,"[{'imgObject': {}, 'id': 'hotdog w must', 'src': '/static/foodstim60/hotdog w must.jpg', 'key': 'u', 'origWidth': 409, 'origHeight': 409, 'width': 409, 'height': 409, 'widthPercent': 0.45, 'rescaleHeight': False, 'trialN': 57, 'loaded': True, 'loadedTime': 4424, 'positionName': 'LEFT', 'positionCoords': [512.6, 335.5], 'bid': 6.84}, {'imgObject': {}, 'id': 'rigatoni', 'src': '/static/foodstim60/rigatoni.jpg', 'key': 'i', 'origWidth': 411, 'origHeight': 411, 'width': 411, 'height': 411, 'widthPercent': 0.45, 'rescaleHeight': False, 'trialN': 57, 'loaded': True, 'loadedTime': 4175.200000047684, 'positionName': 'RIGHT', 'positionCoords': [998.4, 334.5], 'bid': 5.3}]",117500.70000004768,1669834999676,hotdog w must,rigatoni,6.84,5.3,-1.54,rigatoni,1826.8999999761581,1827,1827.199999988079,True,i,119849.20000004768,2348.5,1669835002024,2348,HRV,HRV_0225,2022-11-30 19:08:19
58,"[{'imgObject': {}, 'id': 'turkeysandwich', 'src': '/static/foodstim60/turkeysandwich.jpg', 'key': 'u', 'origWidth': 409, 'origHeight': 409, 'width': 409, 'height': 409, 'widthPercent': 0.45, 'rescaleHeight': False, 'trialN': 58, 'loaded': True, 'loadedTime': 4295.300000011921, 'positionName': 'LEFT', 'positionCoords': [512.6, 335.5], 'bid': 4.97}, {'imgObject': {}, 'id': 'hotdog w must', 'src': '/static/foodstim60/hotdog w must.jpg', 'key': 'i', 'origWidth': 409, 'origHeight': 409, 'width': 409, 'height': 409, 'widthPercent': 0.45, 'rescaleHeight': False, 'trialN': 58, 'loaded': True, 'loadedTime': 4407.600000023842, 'positionName': 'RIGHT', 'positionCoords': [998.4, 335.5], 'bid': 6.84}]",119849.5,1669835002025,turkeysandwich,hotdog w must,4.97,6.84,1.87,turkeysandwich,1426.1000000238419,1426,1426.5,True,u,121791.40000003576,1941.9000000357628,1669835003966,1941,HRV,HRV_0225,2022-11-30 19:08:19
59,"[{'imgObject': {}, 'id': 'granola w milk', 'src': '/static/foodstim60/granola w milk.jpg', 'key': 'u', 'origWidth': 410, 'origHeight': 410, 'width': 410, 'height': 410, 'widthPercent': 0.45, 'rescaleHeight': False, 'trialN': 59, 'loaded': True, 'loadedTime': 3954.600000023842, 'positionName': 'LEFT', 'positionCoords': [511.6, 335], 'bid': 3.0500000000000003}, {'imgObject': {}, 'id': 'kiwi', 'src': '/static/foodstim60/kiwi.jpg', 'key': 'i', 'origWidth': 410, 'origHeight': 410, 'width': 410, 'height': 410, 'widthPercent': 0.45, 'rescaleHeight': False, 'trialN': 59, 'loaded': True, 'loadedTime': 3665.2000000476837, 'positionName': 'RIGHT', 'positionCoords': [998.4, 335], 'bid': 5.1000000000000005}]",121792.0,1669835003967,granola w milk,kiwi,3.0500000000000003,5.1000000000000005,2.0500000000000003,kiwi,2429.5,2430,2429.900000035763,True,i,124728.5,2936.5,1669835006904,2937,HRV,HRV_0225,2022-11-30 19:08:19
60,"[{'imgObject': {}, 'id': 'bagel and cc', 'src': '/static/foodstim60/bagel and cc.jpg', 'key': 'u', 'origWidth': 410, 'origHeight': 410, 'width': 410, 'height': 410, 'widthPercent': 0.45, 'rescaleHeight': False, 'trialN': 60, 'loaded': True, 'loadedTime': 4058.800000011921, 'positionName': 'LEFT', 'positionCoords': [511.6, 335], 'bid': 3.37}, {'imgObject': {}, 'id': 'veggieswithdip', 'src': '/static/foodstim60/veggieswithdip.jpg', 'key': 'i', 'origWidth': 409, 'origHeight': 409, 'width': 409, 'height': 409, 'widthPercent': 0.45, 'rescaleHeight': False, 'trialN': 60, 'loaded': True, 'loadedTime': 3707.400000035763, 'positionName': 'RIGHT', 'positionCoords': [998.4, 335.5], 'bid': 3.5500000000000003}]",124728.80000001192,1669835006904,bagel and cc,veggieswithdip,3.37,3.5500000000000003,0.18000000000000016,bagel and cc,1316.300000011921,1317,1316.699999988079,True,u,126583.30000001192,1854.5,1669835008758,1854,HRV,HRV_0225,2022-11-30 19:08:19
61,"[{'imgObject': {}, 'id': 'avocado', 'src': '/static/foodstim60/avocado.jpg', 'key': 'u', 'origWidth': 409, 'origHeight': 409, 'width': 409, 'height': 409, 'widthPercent': 0.45, 'rescaleHeight': False, 'trialN': 61, 'loaded': True, 'loadedTime': 4426.200000047684, 'positionName': 'LEFT', 'positionCoords': [512.6, 335.5], 'bid': 2.51}, {'imgObject': {}, 'id': 'cheerios', 'src': '/static/foodstim60/cheerios.jpg', 'key': 'i', 'origWidth': 409, 'origHeight': 410, 'width': 409, 'height': 410, 'widthPercent': 0.45, 'rescaleHeight': False, 'trialN': 61, 'loaded': True, 'loadedTime': 3803.2000000476837, 'positionName': 'RIGHT', 'positionCoords': [998.4, 335], 'bid': 3.19}]",126583.60000002384,1669835008759,avocado,cheerios,2.51,3.19,0.6800000000000002,cheerios,1242.0,1242,1242.300000011921,True,i,128342.40000003576,1758.800000011921,1669835010517,1758,HRV,HRV_0225,2022-11-30 19:08:19
62,"[{'imgObject': {}, 'id': 'raisin bran w milk', 'src': '/static/foodstim60/raisin bran w milk.jpg', 'key': 'u', 'origWidth': 411, 'origHeight': 411, 'width': 411, 'height': 411, 'widthPercent': 0.45, 'rescaleHeight': False, 'trialN': 62, 'loaded': True, 'loadedTime': 4333.700000047684, 'positionName': 'LEFT', 'positionCoords': [510.6, 334.5], 'bid': 2.53}, {'imgObject': {}, 'id': 'avocado', 'src': '/static/foodstim60/avocado.jpg', 'key': 'i', 'origWidth': 409, 'origHeight': 409, 'width': 409, 'height': 409, 'widthPercent': 0.45, 'rescaleHeight': False, 'trialN': 62, 'loaded': True, 'loadedTime': 4425.900000035763, 'positionName': 'RIGHT', 'positionCoords': [998.4, 335.5], 'bid': 2.51}]",128342.70000004768,1669835010518,raisin bran w milk,avocado,2.53,2.51,-0.020000000000000018,raisin bran w milk,2444.099999964237,2444,2444.399999976158,True,u,131305.80000001192,2963.099999964237,1669835013481,2963,HRV,HRV_0225,2022-11-30 19:08:19
63,"[{'imgObject': {}, 'id': 'olives', 'src': '/static/foodstim60/olives.jpg', 'key': 'u', 'origWidth': 410, 'origHeight': 410, 'width': 410, 'height': 410, 'widthPercent': 0.45, 'rescaleHeight': False, 'trialN': 63, 'loaded': True, 'loadedTime': 4256.5, 'positionName': 'LEFT', 'positionCoords': [511.6, 335], 'bid': 1.37}, {'imgObject': {}, 'id': 'cantaloupe', 'src': '/static/foodstim60/cantaloupe.jpg', 'key': 'i', 'origWidth': 409, 'origHeight': 409, 'width': 409, 'height': 409, 'widthPercent': 0.45, 'rescaleHeight': False, 'trialN': 63, 'loaded': True, 'loadedTime': 4383.800000011921, 'positionName': 'RIGHT', 'positionCoords': [998.4, 335.5], 'bid': 1.82}]",131306.10000002384,1669835013481,olives,cantaloupe,1.37,1.82,0.44999999999999996,olives,1707.6000000238419,1708,1708.0,True,u,133520.90000003576,2214.800000011921,1669835015696,2215,HRV,HRV_0225,2022-11-30 19:08:19
64,"[{'imgObject': {}, 'id': 'banana', 'src': '/static/foodstim60/banana.jpg', 'key': 'u', 'origWidth': 410, 'origHeight': 410, 'width': 410, 'height': 410, 'widthPercent': 0.45, 'rescaleHeight': False, 'trialN': 64, 'loaded': True, 'loadedTime': 4276.300000011921, 'positionName': 'LEFT', 'positionCoords': [511.6, 335], 'bid': 4.54}, {'imgObject': {}, 'id': 'salmon', 'src': '/static/foodstim60/salmon.jpg', 'key': 'i', 'origWidth': 410, 'origHeight': 409, 'width': 410, 'height': 409, 'widthPercent': 0.45, 'rescaleHeight': False, 'trialN': 64, 'loaded': True, 'loadedTime': 4426.600000023842, 'positionName': 'RIGHT', 'positionCoords': [998.4, 335.5], 'bid': 6.05}]",133521.10000002384,1669835015696,banana,salmon,4.54,6.05,1.5099999999999998,salmon,1744.199999988079,1745,1744.6000000238419,True,i,135772.30000001192,2251.199999988079,1669835017947,2251,HRV,HRV_0225,2022-11-30 19:08:19
65,"[{'imgObject': {}, 'id': 'baked potato', 'src': '/static/foodstim60/baked potato.jpg', 'key': 'u', 'origWidth': 409, 'origHeight': 410, 'width': 409, 'height': 410, 'widthPercent': 0.45, 'rescaleHeight': False, 'trialN': 65, 'loaded': True, 'loadedTime': 4173.5, 'positionName': 'LEFT', 'positionCoords': [512.6, 335], 'bid': 4.68}, {'imgObject': {}, 'id': 'omelette', 'src': '/static/foodstim60/omelette.jpg', 'key': 'i', 'origWidth': 410, 'origHeight': 409, 'width': 410, 'height': 409, 'widthPercent': 0.45, 'rescaleHeight': False, 'trialN': 65, 'loaded': True, 'loadedTime': 3826.5, 'positionName': 'RIGHT', 'positionCoords': [998.4, 335.5], 'bid': 5}]",135772.60000002384,1669835017948,baked potato,omelette,4.68,5.0,0.3200000000000003,omelette,902.8000000119209,903,903.1999999880791,True,i,137185.70000004768,1413.1000000238419,1669835019361,1413,HRV,HRV_0225,2022-11-30 19:08:19
66,"[{'imgObject': {}, 'id': 'cherries', 'src': '/static/foodstim60/cherries.jpg', 'key': 'u', 'origWidth': 410, 'origHeight': 411, 'width': 410, 'height': 411, 'widthPercent': 0.45, 'rescaleHeight': False, 'trialN': 66, 'loaded': True, 'loadedTime': 4082.900000035763, 'positionName': 'LEFT', 'positionCoords': [511.6, 334.5], 'bid': 3.0500000000000003}, {'imgObject': {}, 'id': 'olives', 'src': '/static/foodstim60/olives.jpg', 'key': 'i', 'origWidth': 410, 'origHeight': 410, 'width': 410, 'height': 410, 'widthPercent': 0.45, 'rescaleHeight': False, 'trialN': 66, 'loaded': True, 'loadedTime': 4273.900000035763, 'positionName': 'RIGHT', 'positionCoords': [998.4, 335], 'bid': 1.37}]",137186.0,1669835019361,cherries,olives,3.0500000000000003,1.37,-1.6800000000000002,olives,1237.1000000238419,1238,1237.4000000357628,True,i,138937.40000003576,1751.4000000357628,1669835021113,1752,HRV,HRV_0225,2022-11-30 19:08:19
67,"[{'imgObject': {}, 'id': 'Grapes', 'src': '/static/foodstim60/Grapes.jpg', 'key': 'u', 'origWidth': 411, 'origHeight': 411, 'width': 411, 'height': 411, 'widthPercent': 0.45, 'rescaleHeight': False, 'trialN': 67, 'loaded': True, 'loadedTime': 3729.300000011921, 'positionName': 'LEFT', 'positionCoords': [510.6, 334.5], 'bid': 2.86}, {'imgObject': {}, 'id': 'baked potato', 'src': '/static/foodstim60/baked potato.jpg', 'key': 'i', 'origWidth': 409, 'origHeight': 410, 'width': 409, 'height': 410, 'widthPercent': 0.45, 'rescaleHeight': False, 'trialN': 67, 'loaded': True, 'loadedTime': 4173.800000011921, 'positionName': 'RIGHT', 'positionCoords': [998.4, 335], 'bid': 4.68}]",138937.90000003576,1669835021113,Grapes,baked potato,2.86,4.68,1.8199999999999998,baked potato,2737.899999976158,2738,2738.399999976158,True,i,142188.30000001192,3250.399999976158,1669835024363,3250,HRV,HRV_0225,2022-11-30 19:08:19
68,"[{'imgObject': {}, 'id': 'chickenfingers', 'src': '/static/foodstim60/chickenfingers.jpg', 'key': 'u', 'origWidth': 410, 'origHeight': 410, 'width': 410, 'height': 410, 'widthPercent': 0.45, 'rescaleHeight': False, 'trialN': 68, 'loaded': True, 'loadedTime': 4448.200000047684, 'positionName': 'LEFT', 'positionCoords': [511.6, 335], 'bid': 7.05}, {'imgObject': {}, 'id': 'rigatoni and sauce', 'src': '/static/foodstim60/rigatoni and sauce.jpg', 'key': 'i', 'origWidth': 410, 'origHeight': 411, 'width': 410, 'height': 411, 'widthPercent': 0.45, 'rescaleHeight': False, 'trialN': 68, 'loaded': True, 'loadedTime': 3698.300000011921, 'positionName': 'RIGHT', 'positionCoords': [998.4, 334.5], 'bid': 7.34}]",142188.5,1669835024364,chickenfingers,rigatoni and sauce,7.05,7.34,0.29000000000000004,chickenfingers,2186.7000000476837,2187,2187.100000023842,True,u,144881.30000001192,2692.800000011921,1669835027056,2692,HRV,HRV_0225,2022-11-30 19:08:19
69,"[{'imgObject': {}, 'id': 'chicken nuggets2', 'src': '/static/foodstim60/chicken nuggets2.jpg', 'key': 'u', 'origWidth': 410, 'origHeight': 409, 'width': 410, 'height': 409, 'widthPercent': 0.45, 'rescaleHeight': False, 'trialN': 69, 'loaded': True, 'loadedTime': 3911.7000000476837, 'positionName': 'LEFT', 'positionCoords': [511.6, 335.5], 'bid': 6.26}, {'imgObject': {}, 'id': 'burrito', 'src': '/static/foodstim60/burrito.jpg', 'key': 'i', 'origWidth': 410, 'origHeight': 410, 'width': 410, 'height': 410, 'widthPercent': 0.45, 'rescaleHeight': False, 'trialN': 69, 'loaded': True, 'loadedTime': 4451, 'positionName': 'RIGHT', 'positionCoords': [998.4, 335], 'bid': 5.03}]",144881.60000002384,1669835027057,chicken nuggets2,burrito,6.26,5.03,-1.2299999999999995,chicken nuggets2,2275.5,2275,2275.800000011921,True,u,147664.70000004768,2783.100000023842,1669835029840,2783,HRV,HRV_0225,2022-11-30 19:08:19
70,"[{'imgObject': {}, 'id': 'grilled chicken strips', 'src': '/static/foodstim60/grilled chicken strips.jpg', 'key': 'u', 'origWidth': 410, 'origHeight': 411, 'width': 410, 'height': 411, 'widthPercent': 0.45, 'rescaleHeight': False, 'trialN': 70, 'loaded': True, 'loadedTime': 4452.300000011921, 'positionName': 'LEFT', 'positionCoords': [511.6, 334.5], 'bid': 7.11}, {'imgObject': {}, 'id': 'roastedpotatoes', 'src': '/static/foodstim60/roastedpotatoes.jpg', 'key': 'i', 'origWidth': 409, 'origHeight': 410, 'width': 409, 'height': 410, 'widthPercent': 0.45, 'rescaleHeight': False, 'trialN': 70, 'loaded': True, 'loadedTime': 4113.900000035763, 'positionName': 'RIGHT', 'positionCoords': [998.4, 335], 'bid': 5}]",147664.90000003576,1669835029840,grilled chicken strips,roastedpotatoes,7.11,5.0,-2.1100000000000003,grilled chicken strips,1229.5999999642372,1230,1230.0999999642372,True,u,149402.5,1737.5999999642372,1669835031578,1738,HRV,HRV_0225,2022-11-30 19:08:19
71,"[{'imgObject': {}, 'id': 'strawberries', 'src': '/static/foodstim60/strawberries.jpg', 'key': 'u', 'origWidth': 410, 'origHeight': 410, 'width': 410, 'height': 410, 'widthPercent': 0.45, 'rescaleHeight': False, 'trialN': 71, 'loaded': True, 'loadedTime': 3624.800000011921, 'positionName': 'LEFT', 'positionCoords': [511.6, 335], 'bid': 4.07}, {'imgObject': {}, 'id': 'lox', 'src': '/static/foodstim60/lox.jpg', 'key': 'i', 'origWidth': 410, 'origHeight': 411, 'width': 410, 'height': 411, 'widthPercent': 0.45, 'rescaleHeight': False, 'trialN': 71, 'loaded': True, 'loadedTime': 4362.900000035763, 'positionName': 'RIGHT', 'positionCoords': [998.4, 334.5], 'bid': 3.98}]",149402.80000001192,1669835031578,strawberries,lox,4.07,3.98,-0.0900000000000003,strawberries,1928.0,1928,1928.300000011921,True,u,151848.0,2445.199999988079,1669835034023,2445,HRV,HRV_0225,2022-11-30 19:08:19
72,"[{'imgObject': {}, 'id': 'raspberries', 'src': '/static/foodstim60/raspberries.jpg', 'key': 'u', 'origWidth': 411, 'origHeight': 411, 'width': 411, 'height': 411, 'widthPercent': 0.45, 'rescaleHeight': False, 'trialN': 72, 'loaded': True, 'loadedTime': 4334.400000035763, 'positionName': 'LEFT', 'positionCoords': [510.6, 334.5], 'bid': 2.54}, {'imgObject': {}, 'id': 'seaweed', 'src': '/static/foodstim60/seaweed.jpg', 'key': 'i', 'origWidth': 410, 'origHeight': 410, 'width': 410, 'height': 410, 'widthPercent': 0.45, 'rescaleHeight': False, 'trialN': 72, 'loaded': True, 'loadedTime': 4236, 'positionName': 'RIGHT', 'positionCoords': [998.4, 335], 'bid': 1.31}]",151848.30000001192,1669835034023,raspberries,seaweed,2.54,1.31,-1.23,raspberries,1735.800000011921,1736,1736.1000000238419,True,u,154103.80000001192,2255.5,1669835036279,2256,HRV,HRV_0225,2022-11-30 19:08:19
73,"[{'imgObject': {}, 'id': 'avocado', 'src': '/static/foodstim60/avocado.jpg', 'key': 'u', 'origWidth': 409, 'origHeight': 409, 'width': 409, 'height': 409, 'widthPercent': 0.45, 'rescaleHeight': False, 'trialN': 73, 'loaded': True, 'loadedTime': 4425.5, 'positionName': 'LEFT', 'positionCoords': [512.6, 335.5], 'bid': 2.51}, {'imgObject': {}, 'id': 'hashbrowns', 'src': '/static/foodstim60/hashbrowns.jpg', 'key': 'i', 'origWidth': 411, 'origHeight': 410, 'width': 411, 'height': 410, 'widthPercent': 0.45, 'rescaleHeight': False, 'trialN': 73, 'loaded': True, 'loadedTime': 4452.600000023842, 'positionName': 'RIGHT', 'positionCoords': [998.4, 335], 'bid': 4.26}]",154104.10000002384,1669835036279,avocado,hashbrowns,2.51,4.26,1.75,hashbrowns,2060.399999976158,2061,2060.800000011921,True,i,156671.60000002384,2567.5,1669835038847,2568,HRV,HRV_0225,2022-11-30 19:08:19
74,"[{'imgObject': {}, 'id': 'pear', 'src': '/static/foodstim60/pear.jpg', 'key': 'u', 'origWidth': 411, 'origHeight': 410, 'width': 411, 'height': 410, 'widthPercent': 0.45, 'rescaleHeight': False, 'trialN': 74, 'loaded': True, 'loadedTime': 3780.7000000476837, 'positionName': 'LEFT', 'positionCoords': [510.6, 335], 'bid': 3.09}, {'imgObject': {}, 'id': 'cantaloupe', 'src': '/static/foodstim60/cantaloupe.jpg', 'key': 'i', 'origWidth': 409, 'origHeight': 409, 'width': 409, 'height': 409, 'widthPercent': 0.45, 'rescaleHeight': False, 'trialN': 74, 'loaded': True, 'loadedTime': 4383, 'positionName': 'RIGHT', 'positionCoords': [998.4, 335.5], 'bid': 1.82}]",156672.10000002384,1669835038847,pear,cantaloupe,3.09,1.82,-1.2699999999999998,pear,1323.699999988079,1324,1324.0,True,u,158500.60000002384,1828.5,1669835040676,1829,HRV,HRV_0225,2022-11-30 19:08:19
75,"[{'imgObject': {}, 'id': 'sweetpotato', 'src': '/static/foodstim60/sweetpotato.jpg', 'key': 'u', 'origWidth': 410, 'origHeight': 410, 'width': 410, 'height': 410, 'widthPercent': 0.45, 'rescaleHeight': False, 'trialN': 75, 'loaded': True, 'loadedTime': 4403.800000011921, 'positionName': 'LEFT', 'positionCoords': [511.6, 335], 'bid': 4.17}, {'imgObject': {}, 'id': 'popsicles', 'src': '/static/foodstim60/popsicles.jpg', 'key': 'i', 'origWidth': 410, 'origHeight': 410, 'width': 410, 'height': 410, 'widthPercent': 0.45, 'rescaleHeight': False, 'trialN': 75, 'loaded': True, 'loadedTime': 4456.300000011921, 'positionName': 'RIGHT', 'positionCoords': [998.4, 335], 'bid': 3.77}]",158500.90000003576,1669835040676,sweetpotato,popsicles,4.17,3.77,-0.3999999999999999,popsicles,1654.699999988079,1655,1655.199999988079,True,i,160673.80000001192,2172.899999976158,1669835042849,2173,HRV,HRV_0225,2022-11-30 19:08:19
76,"[{'imgObject': {}, 'id': 'blackbeanswithrice', 'src': '/static/foodstim60/blackbeanswithrice.jpg', 'key': 'u', 'origWidth': 410, 'origHeight': 410, 'width': 410, 'height': 410, 'widthPercent': 0.45, 'rescaleHeight': False, 'trialN': 76, 'loaded': True, 'loadedTime': 3740.600000023842, 'positionName': 'LEFT', 'positionCoords': [511.6, 335], 'bid': 6.0200000000000005}, {'imgObject': {}, 'id': 'burger', 'src': '/static/foodstim60/burger.jpg', 'key': 'i', 'origWidth': 409, 'origHeight': 409, 'width': 409, 'height': 409, 'widthPercent': 0.45, 'rescaleHeight': False, 'trialN': 76, 'loaded': True, 'loadedTime': 3630.100000023842, 'positionName': 'RIGHT', 'positionCoords': [998.4, 335.5], 'bid': 5.89}]",160674.10000002384,1669835042849,blackbeanswithrice,burger,6.0200000000000005,5.89,-0.13000000000000078,blackbeanswithrice,1999.300000011921,2000,1999.5,True,u,163181.30000001192,2507.199999988079,1669835045356,2507,HRV,HRV_0225,2022-11-30 19:08:19
77,"[{'imgObject': {}, 'id': 'mashed potato', 'src': '/static/foodstim60/mashed potato.jpg', 'key': 'u', 'origWidth': 409, 'origHeight': 409, 'width': 409, 'height': 409, 'widthPercent': 0.45, 'rescaleHeight': False, 'trialN': 77, 'loaded': True, 'loadedTime': 4385.5, 'positionName': 'LEFT', 'positionCoords': [512.6, 335.5], 'bid': 4.07}, {'imgObject': {}, 'id': 'hashbrowns', 'src': '/static/foodstim60/hashbrowns.jpg', 'key': 'i', 'origWidth': 411, 'origHeight': 410, 'width': 411, 'height': 410, 'widthPercent': 0.45, 'rescaleHeight': False, 'trialN': 77, 'loaded': True, 'loadedTime': 4453.300000011921, 'positionName': 'RIGHT', 'positionCoords': [998.4, 335], 'bid': 4.26}]",163181.5,1669835045357,mashed potato,hashbrowns,4.07,4.26,0.1899999999999995,hashbrowns,1088.1000000238419,1088,1088.4000000357628,True,i,164777.60000002384,1596.1000000238419,1669835046953,1596,HRV,HRV_0225,2022-11-30 19:08:19
78,"[{'imgObject': {}, 'id': 'salad w chicken', 'src': '/static/foodstim60/salad w chicken.jpg', 'key': 'u', 'origWidth': 411, 'origHeight': 411, 'width': 411, 'height': 411, 'widthPercent': 0.45, 'rescaleHeight': False, 'trialN': 78, 'loaded': True, 'loadedTime': 4115.400000035763, 'positionName': 'LEFT', 'positionCoords': [510.6, 334.5], 'bid': 5.43}, {'imgObject': {}, 'id': 'sweetpotato', 'src': '/static/foodstim60/sweetpotato.jpg', 'key': 'i', 'origWidth': 410, 'origHeight': 410, 'width': 410, 'height': 410, 'widthPercent': 0.45, 'rescaleHeight': False, 'trialN': 78, 'loaded': True, 'loadedTime': 4404.300000011921, 'positionName': 'RIGHT', 'positionCoords': [998.4, 335], 'bid': 4.17}]",164777.80000001192,1669835046953,salad w chicken,sweetpotato,5.43,4.17,-1.2599999999999998,salad w chicken,1129.9000000357628,1130,1130.300000011921,True,u,166415.80000001192,1638.0,1669835048591,1638,HRV,HRV_0225,2022-11-30 19:08:19
79,"[{'imgObject': {}, 'id': 'chickenfingers', 'src': '/static/foodstim60/chickenfingers.jpg', 'key': 'u', 'origWidth': 410, 'origHeight': 410, 'width': 410, 'height': 410, 'widthPercent': 0.45, 'rescaleHeight': False, 'trialN': 79, 'loaded': True, 'loadedTime': 4449.5, 'positionName': 'LEFT', 'positionCoords': [511.6, 335], 'bid': 7.05}, {'imgObject': {}, 'id': 'blackbeanswithrice', 'src': '/static/foodstim60/blackbeanswithrice.jpg', 'key': 'i', 'origWidth': 410, 'origHeight': 410, 'width': 410, 'height': 410, 'widthPercent': 0.45, 'rescaleHeight': False, 'trialN': 79, 'loaded': True, 'loadedTime': 3740.100000023842, 'positionName': 'RIGHT', 'positionCoords': [998.4, 335], 'bid': 6.0200000000000005}]",166416.30000001192,1669835048591,chickenfingers,blackbeanswithrice,7.05,6.0200000000000005,-1.0299999999999994,blackbeanswithrice,2024.800000011921,2025,2025.1000000238419,True,i,168951.30000001192,2535.0,1669835051126,2535,HRV,HRV_0225,2022-11-30 19:08:19
80,"[{'imgObject': {}, 'id': 'fried eggs', 'src': '/static/foodstim60/fried eggs.jpg', 'key': 'u', 'origWidth': 410, 'origHeight': 410, 'width': 410, 'height': 410, 'widthPercent': 0.45, 'rescaleHeight': False, 'trialN': 80, 'loaded': True, 'loadedTime': 3608.400000035763, 'positionName': 'LEFT', 'positionCoords': [511.6, 335], 'bid': 4.59}, {'imgObject': {}, 'id': 'edamame', 'src': '/static/foodstim60/edamame.jpg', 'key': 'i', 'origWidth': 409, 'origHeight': 410, 'width': 409, 'height': 410, 'widthPercent': 0.45, 'rescaleHeight': False, 'trialN': 80, 'loaded': True, 'loadedTime': 4132.700000047684, 'positionName': 'RIGHT', 'positionCoords': [998.4, 335], 'bid': 2.82}]",168951.60000002384,1669835051127,fried eggs,edamame,4.59,2.82,-1.77,fried eggs,1309.8999999761581,1310,1310.199999988079,True,u,170771.30000001192,1819.699999988079,1669835052946,1819,HRV,HRV_0225,2022-11-30 19:08:19
81,"[{'imgObject': {}, 'id': 'burrito', 'src': '/static/foodstim60/burrito.jpg', 'key': 'u', 'origWidth': 410, 'origHeight': 410, 'width': 410, 'height': 410, 'widthPercent': 0.45, 'rescaleHeight': False, 'trialN': 81, 'loaded': True, 'loadedTime': 4450.600000023842, 'positionName': 'LEFT', 'positionCoords': [511.6, 335], 'bid': 5.03}, {'imgObject': {}, 'id': 'froot loops w milk', 'src': '/static/foodstim60/froot loops w milk.jpg', 'key': 'i', 'origWidth': 410, 'origHeight': 410, 'width': 410, 'height': 410, 'widthPercent': 0.45, 'rescaleHeight': False, 'trialN': 81, 'loaded': True, 'loadedTime': 4194.300000011921, 'positionName': 'RIGHT', 'positionCoords': [998.4, 335], 'bid': 4.58}]",170771.60000002384,1669835052947,burrito,froot loops w milk,5.03,4.58,-0.4500000000000002,burrito,1673.6000000238419,1674,1674.0,True,u,172953.0,2181.399999976158,1669835055128,2181,HRV,HRV_0225,2022-11-30 19:08:19
82,"[{'imgObject': {}, 'id': 'eggsalad', 'src': '/static/foodstim60/eggsalad.jpg', 'key': 'u', 'origWidth': 410, 'origHeight': 409, 'width': 410, 'height': 409, 'widthPercent': 0.45, 'rescaleHeight': False, 'trialN': 82, 'loaded': True, 'loadedTime': 3890.2000000476837, 'positionName': 'LEFT', 'positionCoords': [511.6, 335.5], 'bid': 4.51}, {'imgObject': {}, 'id': 'froot loops w milk', 'src': '/static/foodstim60/froot loops w milk.jpg', 'key': 'i', 'origWidth': 410, 'origHeight': 410, 'width': 410, 'height': 410, 'widthPercent': 0.45, 'rescaleHeight': False, 'trialN': 82, 'loaded': True, 'loadedTime': 4193.800000011921, 'positionName': 'RIGHT', 'positionCoords': [998.4, 335], 'bid': 4.58}]",172953.20000004768,1669835055128,eggsalad,froot loops w milk,4.51,4.58,0.07000000000000028,froot loops w milk,1736.2999999523163,1737,1736.5999999642372,True,i,175200.90000003576,2247.699999988079,1669835057376,2248,HRV,HRV_0225,2022-11-30 19:08:19
83,"[{'imgObject': {}, 'id': 'sushi w_condiments', 'src': '/static/foodstim60/sushi w_condiments.jpg', 'key': 'u', 'origWidth': 410, 'origHeight': 410, 'width': 410, 'height': 410, 'widthPercent': 0.45, 'rescaleHeight': False, 'trialN': 83, 'loaded': True, 'loadedTime': 4213.200000047684, 'positionName': 'LEFT', 'positionCoords': [511.6, 335], 'bid': 3.79}, {'imgObject': {}, 'id': 'hashbrowns', 'src': '/static/foodstim60/hashbrowns.jpg', 'key': 'i', 'origWidth': 411, 'origHeight': 410, 'width': 411, 'height': 410, 'widthPercent': 0.45, 'rescaleHeight': False, 'trialN': 83, 'loaded': True, 'loadedTime': 4453.600000023842, 'positionName': 'RIGHT', 'positionCoords': [998.4, 335], 'bid': 4.26}]",175201.20000004768,1669835057376,sushi w_condiments,hashbrowns,3.79,4.26,0.46999999999999975,hashbrowns,1223.5999999642372,1224,1224.0,True,i,176944.5,1743.2999999523163,1669835059119,1743,HRV,HRV_0225,2022-11-30 19:08:19
84,"[{'imgObject': {}, 'id': 'luckycharms', 'src': '/static/foodstim60/luckycharms.jpg', 'key': 'u', 'origWidth': 410, 'origHeight': 409, 'width': 410, 'height': 409, 'widthPercent': 0.45, 'rescaleHeight': False, 'trialN': 84, 'loaded': True, 'loadedTime': 4118.5, 'positionName': 'LEFT', 'positionCoords': [511.6, 335.5], 'bid': 3.03}, {'imgObject': {}, 'id': 'avocado', 'src': '/static/foodstim60/avocado.jpg', 'key': 'i', 'origWidth': 409, 'origHeight': 409, 'width': 409, 'height': 409, 'widthPercent': 0.45, 'rescaleHeight': False, 'trialN': 84, 'loaded': True, 'loadedTime': 4426.300000011921, 'positionName': 'RIGHT', 'positionCoords': [998.4, 335.5], 'bid': 2.51}]",176944.70000004768,1669835059120,luckycharms,avocado,3.03,2.51,-0.52,luckycharms,867.2999999523163,867,867.6999999880791,True,u,178320.5,1375.7999999523163,1669835060496,1376,HRV,HRV_0225,2022-11-30 19:08:19
85,"[{'imgObject': {}, 'id': 'yogurt no spoon', 'src': '/static/foodstim60/yogurt no spoon.jpg', 'key': 'u', 'origWidth': 411, 'origHeight': 410, 'width': 411, 'height': 410, 'widthPercent': 0.45, 'rescaleHeight': False, 'trialN': 85, 'loaded': True, 'loadedTime': 4406.300000011921, 'positionName': 'LEFT', 'positionCoords': [510.6, 335], 'bid': 2.98}, {'imgObject': {}, 'id': 'granola w milk', 'src': '/static/foodstim60/granola w milk.jpg', 'key': 'i', 'origWidth': 410, 'origHeight': 410, 'width': 410, 'height': 410, 'widthPercent': 0.45, 'rescaleHeight': False, 'trialN': 85, 'loaded': True, 'loadedTime': 3955.2000000476837, 'positionName': 'RIGHT', 'positionCoords': [998.4, 335], 'bid': 3.0500000000000003}]",178320.80000001192,1669835060496,yogurt no spoon,granola w milk,2.98,3.0500000000000003,0.07000000000000028,granola w milk,2186.400000035763,2187,2186.800000011921,True,i,181014.40000003576,2693.600000023842,1669835063189,2693,HRV,HRV_0225,2022-11-30 19:08:19
86,"[{'imgObject': {}, 'id': 'rigatoni and sauce', 'src': '/static/foodstim60/rigatoni and sauce.jpg', 'key': 'u', 'origWidth': 410, 'origHeight': 411, 'width': 410, 'height': 411, 'widthPercent': 0.45, 'rescaleHeight': False, 'trialN': 86, 'loaded': True, 'loadedTime': 3681.300000011921, 'positionName': 'LEFT', 'positionCoords': [511.6, 334.5], 'bid': 7.34}, {'imgObject': {}, 'id': 'mac & cheese', 'src': '/static/foodstim60/mac & cheese.jpg', 'key': 'i', 'origWidth': 410, 'origHeight': 410, 'width': 410, 'height': 410, 'widthPercent': 0.45, 'rescaleHeight': False, 'trialN': 86, 'loaded': True, 'loadedTime': 3727.100000023842, 'positionName': 'RIGHT', 'positionCoords': [998.4, 335], 'bid': 6.08}]",181014.70000004768,1669835063190,rigatoni and sauce,mac & cheese,7.34,6.08,-1.2599999999999998,rigatoni and sauce,2191.599999964237,2192,2191.899999976158,True,u,183714.30000001192,2699.599999964237,1669835065889,2699,HRV,HRV_0225,2022-11-30 19:08:19
87,"[{'imgObject': {}, 'id': 'baked potato', 'src': '/static/foodstim60/baked potato.jpg', 'key': 'u', 'origWidth': 409, 'origHeight': 410, 'width': 409, 'height': 410, 'widthPercent': 0.45, 'rescaleHeight': False, 'trialN': 87, 'loaded': True, 'loadedTime': 4152.300000011921, 'positionName': 'LEFT', 'positionCoords': [512.6, 335], 'bid': 4.68}, {'imgObject': {}, 'id': 'turkeysandwich', 'src': '/static/foodstim60/turkeysandwich.jpg', 'key': 'i', 'origWidth': 409, 'origHeight': 409, 'width': 409, 'height': 409, 'widthPercent': 0.45, 'rescaleHeight': False, 'trialN': 87, 'loaded': True, 'loadedTime': 4312.200000047684, 'positionName': 'RIGHT', 'positionCoords': [998.4, 335.5], 'bid': 4.97}]",183714.60000002384,1669835065890,baked potato,turkeysandwich,4.68,4.97,0.29000000000000004,turkeysandwich,1847.1000000238419,1847,1847.6000000238419,True,i,186070.30000001192,2355.699999988079,1669835068245,2355,HRV,HRV_0225,2022-11-30 19:08:19
88,"[{'imgObject': {}, 'id': 'orange slices', 'src': '/static/foodstim60/orange slices.jpg', 'key': 'u', 'origWidth': 409, 'origHeight': 410, 'width': 409, 'height': 410, 'widthPercent': 0.45, 'rescaleHeight': False, 'trialN': 88, 'loaded': True, 'loadedTime': 4454.700000047684, 'positionName': 'LEFT', 'positionCoords': [512.6, 335], 'bid': 2.95}, {'imgObject': {}, 'id': 'edamame', 'src': '/static/foodstim60/edamame.jpg', 'key': 'i', 'origWidth': 409, 'origHeight': 410, 'width': 409, 'height': 410, 'widthPercent': 0.45, 'rescaleHeight': False, 'trialN': 88, 'loaded': True, 'loadedTime': 4134.200000047684, 'positionName': 'RIGHT', 'positionCoords': [998.4, 335], 'bid': 2.82}]",186070.5,1669835068246,orange slices,edamame,2.95,2.82,-0.13000000000000034,edamame,1762.300000011921,1762,1762.7000000476837,True,i,188352.80000001192,2282.300000011921,1669835070528,2282,HRV,HRV_0225,2022-11-30 19:08:19
89,"[{'imgObject': {}, 'id': 'kiwi', 'src': '/static/foodstim60/kiwi.jpg', 'key': 'u', 'origWidth': 410, 'origHeight': 410, 'width': 410, 'height': 410, 'widthPercent': 0.45, 'rescaleHeight': False, 'trialN': 89, 'loaded': True, 'loadedTime': 3662.600000023842, 'positionName': 'LEFT', 'positionCoords': [511.6, 335], 'bid': 5.1000000000000005}, {'imgObject': {}, 'id': 'burrito', 'src': '/static/foodstim60/burrito.jpg', 'key': 'i', 'origWidth': 410, 'origHeight': 410, 'width': 410, 'height': 410, 'widthPercent': 0.45, 'rescaleHeight': False, 'trialN': 89, 'loaded': True, 'loadedTime': 4450.900000035763, 'positionName': 'RIGHT', 'positionCoords': [998.4, 335], 'bid': 5.03}]",188353.0,1669835070528,kiwi,burrito,5.1000000000000005,5.03,-0.07000000000000028,burrito,1184.4000000357628,1185,1184.7000000476837,True,i,190048.0,1695.0,1669835072223,1695,HRV,HRV_0225,2022-11-30 19:08:19
90,"[{'imgObject': {}, 'id': 'popsicles', 'src': '/static/foodstim60/popsicles.jpg', 'key': 'u', 'origWidth': 410, 'origHeight': 410, 'width': 410, 'height': 410, 'widthPercent': 0.45, 'rescaleHeight': False, 'trialN': 90, 'loaded': True, 'loadedTime': 4455.800000011921, 'positionName': 'LEFT', 'positionCoords': [511.6, 335], 'bid': 3.77}, {'imgObject': {}, 'id': 'Tribe humus pita', 'src': '/static/foodstim60/Tribe humus pita.jpg', 'key': 'i', 'origWidth': 411, 'origHeight': 411, 'width': 411, 'height': 411, 'widthPercent': 0.45, 'rescaleHeight': False, 'trialN': 90, 'loaded': True, 'loadedTime': 3678.2000000476837, 'positionName': 'RIGHT', 'positionCoords': [998.4, 334.5], 'bid': 3.65}]",221772.5,1669835103948,popsicles,Tribe humus pita,3.77,3.65,-0.1200000000000001,popsicles,2102.7000000476837,2102,2103.2000000476837,True,u,224395.5,2623.0,1669835106570,2622,HRV,HRV_0225,2022-11-30 19:08:19
91,"[{'imgObject': {}, 'id': 'steak', 'src': '/static/foodstim60/steak.jpg', 'key': 'u', 'origWidth': 410, 'origHeight': 410, 'width': 410, 'height': 410, 'widthPercent': 0.45, 'rescaleHeight': False, 'trialN': 91, 'loaded': True, 'loadedTime': 3908.900000035763, 'positionName': 'LEFT', 'positionCoords': [511.6, 335], 'bid': 6.640000000000001}, {'imgObject': {}, 'id': 'tacos', 'src': '/static/foodstim60/tacos.jpg', 'key': 'i', 'origWidth': 411, 'origHeight': 411, 'width': 411, 'height': 411, 'widthPercent': 0.45, 'rescaleHeight': False, 'trialN': 91, 'loaded': True, 'loadedTime': 3758.5, 'positionName': 'RIGHT', 'positionCoords': [998.4, 334.5], 'bid': 5.73}]",224395.70000004768,1669835106570,steak,tacos,6.640000000000001,5.73,-0.9100000000000001,tacos,2243.5,2244,2244.0,True,i,227146.0,2750.2999999523163,1669835109321,2751,HRV,HRV_0225,2022-11-30 19:08:19
92,"[{'imgObject': {}, 'id': 'burrito', 'src': '/static/foodstim60/burrito.jpg', 'key': 'u', 'origWidth': 410, 'origHeight': 410, 'width': 410, 'height': 410, 'widthPercent': 0.45, 'rescaleHeight': False, 'trialN': 92, 'loaded': True, 'loadedTime': 4450.800000011921, 'positionName': 'LEFT', 'positionCoords': [511.6, 335], 'bid': 5.03}, {'imgObject': {}, 'id': 'rigatoni', 'src': '/static/foodstim60/rigatoni.jpg', 'key': 'i', 'origWidth': 411, 'origHeight': 411, 'width': 411, 'height': 411, 'widthPercent': 0.45, 'rescaleHeight': False, 'trialN': 92, 'loaded': True, 'loadedTime': 4176.200000047684, 'positionName': 'RIGHT', 'positionCoords': [998.4, 334.5], 'bid': 5.3}]",227146.30000001192,1669835109321,burrito,rigatoni,5.03,5.3,0.2699999999999996,burrito,2254.5,2255,2255.0,True,u,229920.60000002384,2774.300000011921,1669835112095,2774,HRV,HRV_0225,2022-11-30 19:08:19
93,"[{'imgObject': {}, 'id': 'froot loops w milk', 'src': '/static/foodstim60/froot loops w milk.jpg', 'key': 'u', 'origWidth': 410, 'origHeight': 410, 'width': 410, 'height': 410, 'widthPercent': 0.45, 'rescaleHeight': False, 'trialN': 93, 'loaded': True, 'loadedTime': 4192.700000047684, 'positionName': 'LEFT', 'positionCoords': [511.6, 335], 'bid': 4.58}, {'imgObject': {}, 'id': 'fried eggs', 'src': '/static/foodstim60/fried eggs.jpg', 'key': 'i', 'origWidth': 410, 'origHeight': 410, 'width': 410, 'height': 410, 'widthPercent': 0.45, 'rescaleHeight': False, 'trialN': 93, 'loaded': True, 'loadedTime': 3610.100000023842, 'positionName': 'RIGHT', 'positionCoords': [998.4, 335], 'bid': 4.59}]",229920.80000001192,1669835112096,froot loops w milk,fried eggs,4.58,4.59,0.009999999999999787,fried eggs,1273.1000000238419,1273,1273.300000011921,True,i,231713.70000004768,1792.9000000357628,1669835113888,1792,HRV,HRV_0225,2022-11-30 19:08:19
94,"[{'imgObject': {}, 'id': 'turkeysandwich', 'src': '/static/foodstim60/turkeysandwich.jpg', 'key': 'u', 'origWidth': 409, 'origHeight': 409, 'width': 409, 'height': 409, 'widthPercent': 0.45, 'rescaleHeight': False, 'trialN': 94, 'loaded': True, 'loadedTime': 4312.400000035763, 'positionName': 'LEFT', 'positionCoords': [512.6, 335.5], 'bid': 4.97}, {'imgObject': {}, 'id': 'roastedpotatoes', 'src': '/static/foodstim60/roastedpotatoes.jpg', 'key': 'i', 'origWidth': 409, 'origHeight': 410, 'width': 409, 'height': 410, 'widthPercent': 0.45, 'rescaleHeight': False, 'trialN': 94, 'loaded': True, 'loadedTime': 4113.400000035763, 'positionName': 'RIGHT', 'positionCoords': [998.4, 335], 'bid': 5}]",231713.90000003576,1669835113889,turkeysandwich,roastedpotatoes,4.97,5.0,0.03000000000000025,turkeysandwich,1372.0,1372,1372.5,True,u,233588.60000002384,1874.699999988079,1669835115763,1874,HRV,HRV_0225,2022-11-30 19:08:19
95,"[{'imgObject': {}, 'id': 'blueberries', 'src': '/static/foodstim60/blueberries.jpg', 'key': 'u', 'origWidth': 411, 'origHeight': 411, 'width': 411, 'height': 411, 'widthPercent': 0.45, 'rescaleHeight': False, 'trialN': 95, 'loaded': True, 'loadedTime': 4360.300000011921, 'positionName': 'LEFT', 'positionCoords': [510.6, 334.5], 'bid': 2.68}, {'imgObject': {}, 'id': 'cocktailshrimp', 'src': '/static/foodstim60/cocktailshrimp.jpg', 'key': 'i', 'origWidth': 410, 'origHeight': 410, 'width': 410, 'height': 410, 'widthPercent': 0.45, 'rescaleHeight': False, 'trialN': 95, 'loaded': True, 'loadedTime': 4102.5, 'positionName': 'RIGHT', 'positionCoords': [998.4, 335], 'bid': 3.0700000000000003}]",233588.90000003576,1669835115764,blueberries,cocktailshrimp,2.68,3.0700000000000003,0.3900000000000001,cocktailshrimp,1153.699999988079,1154,1154.199999988079,True,i,235251.40000003576,1662.5,1669835117426,1662,HRV,HRV_0225,2022-11-30 19:08:19
96,"[{'imgObject': {}, 'id': 'rigatoni and sauce', 'src': '/static/foodstim60/rigatoni and sauce.jpg', 'key': 'u', 'origWidth': 410, 'origHeight': 411, 'width': 410, 'height': 411, 'widthPercent': 0.45, 'rescaleHeight': False, 'trialN': 96, 'loaded': True, 'loadedTime': 3696.600000023842, 'positionName': 'LEFT', 'positionCoords': [511.6, 334.5], 'bid': 7.34}, {'imgObject': {}, 'id': 'tacos', 'src': '/static/foodstim60/tacos.jpg', 'key': 'i', 'origWidth': 411, 'origHeight': 411, 'width': 411, 'height': 411, 'widthPercent': 0.45, 'rescaleHeight': False, 'trialN': 96, 'loaded': True, 'loadedTime': 3756.800000011921, 'positionName': 'RIGHT', 'positionCoords': [998.4, 334.5], 'bid': 5.73}]",235252.90000003576,1669835117428,rigatoni and sauce,tacos,7.34,5.73,-1.6099999999999994,rigatoni and sauce,2058.599999964237,2060,2060.199999988079,True,u,237825.90000003576,2573.0,1669835120001,2573,HRV,HRV_0225,2022-11-30 19:08:19
97,"[{'imgObject': {}, 'id': 'orange slices', 'src': '/static/foodstim60/orange slices.jpg', 'key': 'u', 'origWidth': 409, 'origHeight': 410, 'width': 409, 'height': 410, 'widthPercent': 0.45, 'rescaleHeight': False, 'trialN': 97, 'loaded': True, 'loadedTime': 4454.800000011921, 'positionName': 'LEFT', 'positionCoords': [512.6, 335], 'bid': 2.95}, {'imgObject': {}, 'id': 'raisin bran w milk', 'src': '/static/foodstim60/raisin bran w milk.jpg', 'key': 'i', 'origWidth': 411, 'origHeight': 411, 'width': 411, 'height': 411, 'widthPercent': 0.45, 'rescaleHeight': False, 'trialN': 97, 'loaded': True, 'loadedTime': 4313.600000023842, 'positionName': 'RIGHT', 'positionCoords': [998.4, 334.5], 'bid': 2.53}]",237826.5,1669835120001,orange slices,raisin bran w milk,2.95,2.53,-0.4200000000000004,raisin bran w milk,2407.800000011921,2408,2408.0,True,i,240742.30000001192,2915.800000011921,1669835122917,2916,HRV,HRV_0225,2022-11-30 19:08:19
98,"[{'imgObject': {}, 'id': 'Tribe humus pita', 'src': '/static/foodstim60/Tribe humus pita.jpg', 'key': 'u', 'origWidth': 411, 'origHeight': 411, 'width': 411, 'height': 411, 'widthPercent': 0.45, 'rescaleHeight': False, 'trialN': 98, 'loaded': True, 'loadedTime': 3679.100000023842, 'positionName': 'LEFT', 'positionCoords': [510.6, 334.5], 'bid': 3.65}, {'imgObject': {}, 'id': 'steak', 'src': '/static/foodstim60/steak.jpg', 'key': 'i', 'origWidth': 410, 'origHeight': 410, 'width': 410, 'height': 410, 'widthPercent': 0.45, 'rescaleHeight': False, 'trialN': 98, 'loaded': True, 'loadedTime': 3909.5, 'positionName': 'RIGHT', 'positionCoords': [998.4, 335], 'bid': 6.640000000000001}]",240742.80000001192,1669835122918,Tribe humus pita,steak,3.65,6.640000000000001,2.9900000000000007,steak,1204.199999988079,1204,1204.5,True,i,242463.80000001192,1721.0,1669835124639,1721,HRV,HRV_0225,2022-11-30 19:08:19
99,"[{'imgObject': {}, 'id': 'mac & cheese', 'src': '/static/foodstim60/mac & cheese.jpg', 'key': 'u', 'origWidth': 410, 'origHeight': 410, 'width': 410, 'height': 410, 'widthPercent': 0.45, 'rescaleHeight': False, 'trialN': 99, 'loaded': True, 'loadedTime': 3714.2000000476837, 'positionName': 'LEFT', 'positionCoords': [511.6, 335], 'bid': 6.08}, {'imgObject': {}, 'id': 'salmon', 'src': '/static/foodstim60/salmon.jpg', 'key': 'i', 'origWidth': 410, 'origHeight': 409, 'width': 410, 'height': 409, 'widthPercent': 0.45, 'rescaleHeight': False, 'trialN': 99, 'loaded': True, 'loadedTime': 4428.5, 'positionName': 'RIGHT', 'positionCoords': [998.4, 335.5], 'bid': 6.05}]",242464.20000004768,1669835124639,mac & cheese,salmon,6.08,6.05,-0.03000000000000025,mac & cheese,2462.5,2463,2462.899999976158,True,u,245433.70000004768,2969.5,1669835127608,2969,HRV,HRV_0225,2022-11-30 19:08:19
100,"[{'imgObject': {}, 'id': 'orange slices', 'src': '/static/foodstim60/orange slices.jpg', 'key': 'u', 'origWidth': 409, 'origHeight': 410, 'width': 409, 'height': 410, 'widthPercent': 0.45, 'rescaleHeight': False, 'trialN': 100, 'loaded': True, 'loadedTime': 4453.800000011921, 'positionName': 'LEFT', 'positionCoords': [512.6, 335], 'bid': 2.95}, {'imgObject': {}, 'id': 'ice cream sundae 002', 'src': '/static/foodstim60/ice cream sundae 002.jpg', 'key': 'i', 'origWidth': 409, 'origHeight': 409, 'width': 409, 'height': 409, 'widthPercent': 0.45, 'rescaleHeight': False, 'trialN': 100, 'loaded': True, 'loadedTime': 4003.900000035763, 'positionName': 'RIGHT', 'positionCoords': [998.4, 335.5], 'bid': 3.72}]",245433.90000003576,1669835127609,orange slices,ice cream sundae 002,2.95,3.72,0.77,ice cream sundae 002,1229.0,1229,1229.3999999761581,True,i,247173.30000001192,1739.3999999761581,1669835129348,1739,HRV,HRV_0225,2022-11-30 19:08:19
101,"[{'imgObject': {}, 'id': 'sweetpotato', 'src': '/static/foodstim60/sweetpotato.jpg', 'key': 'u', 'origWidth': 410, 'origHeight': 410, 'width': 410, 'height': 410, 'widthPercent': 0.45, 'rescaleHeight': False, 'trialN': 101, 'loaded': True, 'loadedTime': 4402.400000035763, 'positionName': 'LEFT', 'positionCoords': [511.6, 335], 'bid': 4.17}, {'imgObject': {}, 'id': 'mashed potato', 'src': '/static/foodstim60/mashed potato.jpg', 'key': 'i', 'origWidth': 409, 'origHeight': 409, 'width': 409, 'height': 409, 'widthPercent': 0.45, 'rescaleHeight': False, 'trialN': 101, 'loaded': True, 'loadedTime': 4384.400000035763, 'positionName': 'RIGHT', 'positionCoords': [998.4, 335.5], 'bid': 4.07}]",247173.5,1669835129348,sweetpotato,mashed potato,4.17,4.07,-0.09999999999999964,mashed potato,1818.9000000357628,1820,1819.300000011921,True,i,249502.60000002384,2329.100000023842,1669835131677,2329,HRV,HRV_0225,2022-11-30 19:08:19
102,"[{'imgObject': {}, 'id': 'turkeysandwich', 'src': '/static/foodstim60/turkeysandwich.jpg', 'key': 'u', 'origWidth': 409, 'origHeight': 409, 'width': 409, 'height': 409, 'widthPercent': 0.45, 'rescaleHeight': False, 'trialN': 102, 'loaded': True, 'loadedTime': 4312.600000023842, 'positionName': 'LEFT', 'positionCoords': [512.6, 335.5], 'bid': 4.97}, {'imgObject': {}, 'id': 'orange slices', 'src': '/static/foodstim60/orange slices.jpg', 'key': 'i', 'origWidth': 409, 'origHeight': 410, 'width': 409, 'height': 410, 'widthPercent': 0.45, 'rescaleHeight': False, 'trialN': 102, 'loaded': True, 'loadedTime': 4454.900000035763, 'positionName': 'RIGHT', 'positionCoords': [998.4, 335], 'bid': 2.95}]",249502.80000001192,1669835131678,turkeysandwich,orange slices,4.97,2.95,-2.0199999999999996,turkeysandwich,1311.1000000238419,1311,1311.4000000357628,True,u,251323.5,1820.699999988079,1669835133498,1820,HRV,HRV_0225,2022-11-30 19:08:19
103,"[{'imgObject': {}, 'id': 'chicken nuggets2', 'src': '/static/foodstim60/chicken nuggets2.jpg', 'key': 'u', 'origWidth': 410, 'origHeight': 409, 'width': 410, 'height': 409, 'widthPercent': 0.45, 'rescaleHeight': False, 'trialN': 103, 'loaded': True, 'loadedTime': 3933.400000035763, 'positionName': 'LEFT', 'positionCoords': [511.6, 335.5], 'bid': 6.26}, {'imgObject': {}, 'id': 'fried eggs', 'src': '/static/foodstim60/fried eggs.jpg', 'key': 'i', 'origWidth': 410, 'origHeight': 410, 'width': 410, 'height': 410, 'widthPercent': 0.45, 'rescaleHeight': False, 'trialN': 103, 'loaded': True, 'loadedTime': 3604.7000000476837, 'positionName': 'RIGHT', 'positionCoords': [998.4, 335], 'bid': 4.59}]",251323.70000004768,1669835133498,chicken nuggets2,fried eggs,6.26,4.59,-1.67,chicken nuggets2,1306.199999988079,1307,1306.5,True,u,253138.60000002384,1814.8999999761581,1669835135313,1815,HRV,HRV_0225,2022-11-30 19:08:19
104,"[{'imgObject': {}, 'id': 'eggs', 'src': '/static/foodstim60/eggs.jpg', 'key': 'u', 'origWidth': 409, 'origHeight': 409, 'width': 409, 'height': 409, 'widthPercent': 0.45, 'rescaleHeight': False, 'trialN': 104, 'loaded': True, 'loadedTime': 4132.5, 'positionName': 'LEFT', 'positionCoords': [512.6, 335.5], 'bid': 3.26}, {'imgObject': {}, 'id': 'bagel and cc', 'src': '/static/foodstim60/bagel and cc.jpg', 'key': 'i', 'origWidth': 410, 'origHeight': 410, 'width': 410, 'height': 410, 'widthPercent': 0.45, 'rescaleHeight': False, 'trialN': 104, 'loaded': True, 'loadedTime': 4059.7000000476837, 'positionName': 'RIGHT', 'positionCoords': [998.4, 335], 'bid': 3.37}]",253138.90000003576,1669835135314,eggs,bagel and cc,3.26,3.37,0.11000000000000032,bagel and cc,1165.0999999642372,1165,1165.5,True,i,254825.30000001192,1686.3999999761581,1669835137000,1686,HRV,HRV_0225,2022-11-30 19:08:19
105,"[{'imgObject': {}, 'id': 'chickenfingers', 'src': '/static/foodstim60/chickenfingers.jpg', 'key': 'u', 'origWidth': 410, 'origHeight': 410, 'width': 410, 'height': 410, 'widthPercent': 0.45, 'rescaleHeight': False, 'trialN': 105, 'loaded': True, 'loadedTime': 4429.400000035763, 'positionName': 'LEFT', 'positionCoords': [511.6, 335], 'bid': 7.05}, {'imgObject': {}, 'id': 'popsicles', 'src': '/static/foodstim60/popsicles.jpg', 'key': 'i', 'origWidth': 410, 'origHeight': 410, 'width': 410, 'height': 410, 'widthPercent': 0.45, 'rescaleHeight': False, 'trialN': 105, 'loaded': True, 'loadedTime': 4455.100000023842, 'positionName': 'RIGHT', 'positionCoords': [998.4, 335], 'bid': 3.77}]",254825.70000004768,1669835137000,chickenfingers,popsicles,7.05,3.77,-3.28,chickenfingers,1036.3999999761581,1037,1036.7999999523163,True,u,256371.5,1545.7999999523163,1669835138546,1546,HRV,HRV_0225,2022-11-30 19:08:19
106,"[{'imgObject': {}, 'id': 'mashed potato', 'src': '/static/foodstim60/mashed potato.jpg', 'key': 'u', 'origWidth': 409, 'origHeight': 409, 'width': 409, 'height': 409, 'widthPercent': 0.45, 'rescaleHeight': False, 'trialN': 106, 'loaded': True, 'loadedTime': 4385.200000047684, 'positionName': 'LEFT', 'positionCoords': [512.6, 335.5], 'bid': 4.07}, {'imgObject': {}, 'id': 'turkey sandwich', 'src': '/static/foodstim60/turkey sandwich.jpg', 'key': 'i', 'origWidth': 409, 'origHeight': 409, 'width': 409, 'height': 409, 'widthPercent': 0.45, 'rescaleHeight': False, 'trialN': 106, 'loaded': True, 'loadedTime': 3637.800000011921, 'positionName': 'RIGHT', 'positionCoords': [998.4, 335.5], 'bid': 5.3100000000000005}]",256371.70000004768,1669835138546,mashed potato,turkey sandwich,4.07,5.3100000000000005,1.2400000000000002,turkey sandwich,1217.2999999523163,1218,1217.5999999642372,True,i,258100.60000002384,1728.8999999761581,1669835140275,1729,HRV,HRV_0225,2022-11-30 19:08:19
107,"[{'imgObject': {}, 'id': 'sushi w_condiments', 'src': '/static/foodstim60/sushi w_condiments.jpg', 'key': 'u', 'origWidth': 410, 'origHeight': 410, 'width': 410, 'height': 410, 'widthPercent': 0.45, 'rescaleHeight': False, 'trialN': 107, 'loaded': True, 'loadedTime': 4214, 'positionName': 'LEFT', 'positionCoords': [511.6, 335], 'bid': 3.79}, {'imgObject': {}, 'id': 'lox', 'src': '/static/foodstim60/lox.jpg', 'key': 'i', 'origWidth': 410, 'origHeight': 411, 'width': 410, 'height': 411, 'widthPercent': 0.45, 'rescaleHeight': False, 'trialN': 107, 'loaded': True, 'loadedTime': 4363, 'positionName': 'RIGHT', 'positionCoords': [998.4, 334.5], 'bid': 3.98}]",258100.90000003576,1669835140276,sushi w_condiments,lox,3.79,3.98,0.18999999999999995,lox,2088.099999964237,2088,2088.5,True,i,260700.60000002384,2599.699999988079,1669835142875,2599,HRV,HRV_0225,2022-11-30 19:08:19
