Answer,C_Pay,Question,QuestionNum,jitter,C_Trial,C_QPresent,rsp,C_SWK,C_SWK_rt,C_TrialEnd,exp,subjectId,date
citrus fruit (scurvy is caused by a lack of vitamin c),1,Sailors used to suffer from a horrible illness called scurvy. Which food prevents scurvy?,441,1.033,0,1917.8999999910593,p,K,1792.2000000029802,5246.399999991059,HRV,HRV_0025,2022-11-30 17:37:54
The Chrysler Building ,3,What skyscraper's exterior ornaments include radiator caps on the thirty-first floor and hood ornament eagles on the sixty-first floor?,258,1.681,1,5246.5,q,S,2120.7999999970198,9551.29999999702,HRV,HRV_0025,2022-11-30 17:37:54
Orville Wright,4,Who was flying the plane in which the first US airplane fatality occurred? ,377,1.936,2,9551.29999999702,q,S,2199.5,14188.70000000298,HRV,HRV_0025,2022-11-30 17:37:54
Peregrine falcon,1,"With its 240 mph hunting dive, what species of raptor is the fastest animal on earth?",60,0.665,3,14188.79999999702,q,S,1849.7999999970198,17206.79999999702,HRV,HRV_0025,2022-11-30 17:37:54
General Electric ,3,What's the only stock from the original Dow Jones Industrial Average that's still used in computing the index?,310,0.607,4,17206.89999999106,p,K,1834.6000000089407,20151.59999999404,HRV,HRV_0025,2022-11-30 17:37:54
Violin,3,What instrument was invented to sound like a human singing? ,189,0.988,5,20151.70000000298,q,S,1703.699999988079,23345.59999999404,HRV,HRV_0025,2022-11-30 17:37:54
Pumpkin,4,Whittaker Chambers hid Alger Hiss's purloined State Department documents in a hollowed-out what?,360,0.777,6,23345.70000000298,q,S,1594.699999988079,26219.89999999106,HRV,HRV_0025,2022-11-30 17:37:54
Catapult ,4,What artillery weapon was launched upon the world in 400 B.C.?  ,140,1.606,7,26219.89999999106,q,S,1523.800000011921,29852.29999999702,HRV,HRV_0025,2022-11-30 17:37:54
The paper clip,2,"""Gem"" is the trade name for the most common, three-loop design of what?",4,1.696,8,29852.29999999702,q,S,1954.5999999940395,34005.20000000298,HRV,HRV_0025,2022-11-30 17:37:54
Pen(n)sylvania ,3,What proper name is spelled unusually with a single 'n' both on the Liberty Bell and in the U.S. Constitution? ,249,0.618,9,34005.20000000298,q,S,2012.2999999970198,37137.79999999702,HRV,HRV_0025,2022-11-30 17:37:54
Pepper and Mustard,7,What are the top two most popular spices in the world?,422,1.917,10,37137.89999999106,q,S,1806.9000000059605,41364.09999999404,HRV,HRV_0025,2022-11-30 17:37:54
Tea leaves,2,Tasseomancy is a method of fortune telling that primarily uses what? ,418,1.743,11,41364.20000000298,q,S,2083.0,45693.79999999702,HRV,HRV_0025,2022-11-30 17:37:54
Pet Rocks,4,What imports from a Baja California beach made Gary Drahl a millionaire in late 1975?,186,0.841,12,45693.79999999702,q,S,1698.9000000059605,48735.89999999106,HRV,HRV_0025,2022-11-30 17:37:54
"Puffer fish, if they are prepared incorrectly thheir poison could kill the eater. ",5,Cooking which food requires over two years of training?,461,1.162,13,48735.89999999106,q,S,2238.1000000089407,52639.20000000298,HRV,HRV_0025,2022-11-30 17:37:54
American Pie,6,What was the name of the plane Buddy Holly died in?  ,289,1.873,14,52639.20000000298,q,S,1925.0999999940395,56939.89999999106,HRV,HRV_0025,2022-11-30 17:37:54
The guppy,4,What common aquarium fish is named for the naturalist who discovered it in Trinidad in 1876? ,152,1.336,15,56939.89999999106,q,S,1700.9000000059605,60480.0,HRV,HRV_0025,2022-11-30 17:37:54
Coca-cola,7,What popular drink was first marketed as a brain tonic?,405,1.494,16,60480.0,q,S,1839.0999999940395,64315.5,HRV,HRV_0025,2022-11-30 17:37:54
Asparagus,4,what vegetable loses its flavour the quickest?,451,1.341,17,64315.5,q,S,1580.0999999940395,67739.70000000298,HRV,HRV_0025,2022-11-30 17:37:54
honey,7,Which is the only food that can never go off or go bad?,442,1.618,18,67739.70000000298,q,S,1871.2999999970198,71732.59999999404,HRV,HRV_0025,2022-11-30 17:37:54
60 fragments per 100 gram ,4,What amount of insects does the FDA allow in chocolate,453,1.656,19,71732.70000000298,p,K,1915.7999999970198,75807.89999999106,HRV,HRV_0025,2022-11-30 17:37:54
pastry,4,Choux and filo are two types of what food product?,446,0.955,20,75808.0,q,S,1607.7999999970198,78874.09999999404,HRV,HRV_0025,2022-11-30 17:37:54
World War I,6,"During which war was ""The African Queen"" set?",34,1.172,21,78874.09999999404,q,S,1821.0,82370.5,HRV,HRV_0025,2022-11-30 17:37:54
NY,7,In which state was the first execution by electric chair?  ,70,1.994,22,82370.5,q,S,1765.2000000029802,86633.39999999106,HRV,HRV_0025,2022-11-30 17:37:54
The dodo,1,"What is believed to have received its name from the Portuguese word for ""simpleton""? ",199,1.733,23,86633.39999999106,p,K,1788.800000011921,90658.29999999702,HRV,HRV_0025,2022-11-30 17:37:54
Cornea,2,What is the only part of the body that has no blood supply? ,211,0.986,24,90658.29999999702,q,S,1866.0999999940395,94012.89999999106,HRV,HRV_0025,2022-11-30 17:37:54
Pachyderm,7,"What word comes to us from the Greek for ""thick-skinned""?  ",297,1.606,25,94012.89999999106,q,S,1821.800000011921,97944.5,HRV,HRV_0025,2022-11-30 17:37:54
Echinoderms,1,"Starfish belong to what animal phylum, whose name means ""spiny skin""? ",85,1.636,26,97944.5,q,S,1776.7999999970198,101860.59999999404,HRV,HRV_0025,2022-11-30 17:37:54
There was a pound of every ingredient in the original reciipe. ,5,How did the pound cake get its name?,460,1.882,27,101860.59999999404,p,K,1998.2000000029802,106244.20000000298,HRV,HRV_0025,2022-11-30 17:37:54
Sunrise or sunset,4,"When is the optical phenomenon called a ""green flash"" or ""green ray"" visible?  ",313,1.423,28,106244.20000000298,q,S,1502.699999988079,109673.39999999106,HRV,HRV_0025,2022-11-30 17:37:54
Bile,6,"Two of the ""four humors"" the ancients believed controlled temperament consist of what bodily fluid?",118,0.607,29,109673.39999999106,q,S,1806.800000011921,112589.89999999106,HRV,HRV_0025,2022-11-30 17:37:54
Teapot Dome scandal,1,Albert Fall became the first US cabinet officer to serve jail time for his part in what scandal? ,19,1.738,30,112589.89999999106,p,K,2211.800000011921,117043.09999999404,HRV,HRV_0025,2022-11-30 17:37:54
Oklahoma,5,"What U.S. state has the slogan ""Native America"" on its license plates?",271,1.173,31,117043.09999999404,p,K,2446.1000000089407,121165.20000000298,HRV,HRV_0025,2022-11-30 17:37:54
Robert Lincoln ,2,Who was the only person to be nearby at three different presidential assassinations? ,382,1.076,32,121165.20000000298,p,K,1829.3999999910593,124573.20000000298,HRV,HRV_0025,2022-11-30 17:37:54
A mine shaft passage,5,What is an adit?  ,197,1.488,33,124573.20000000298,q,S,1847.699999988079,128412.59999999404,HRV,HRV_0025,2022-11-30 17:37:54
Thomas Crapper,3,What was the unfortunate name of the plumber who helped popularize and improve the flush toilet? ,294,0.62,34,128412.59999999404,p,K,2164.9000000059605,131700.39999999106,HRV,HRV_0025,2022-11-30 17:37:54
Luge,2,What sports term is the shortest word ever to decide the National Spelling Bee?   ,261,1.935,35,131700.39999999106,q,S,1519.2000000029802,135657.59999999404,HRV,HRV_0025,2022-11-30 17:37:54
Snoopy's,4,"Whose doghouse apparently contains a basement, a pool table, an Andrew Wyeth painting, and a Jacuzzi?",387,1.712,36,135657.59999999404,p,K,1611.5,139484.70000000298,HRV,HRV_0025,2022-11-30 17:37:54
A Hawaiian goose,7,What is a nene?,195,1.803,37,139484.70000000298,q,S,1943.8999999910593,143734.0,HRV,HRV_0025,2022-11-30 17:37:54
Pinko,1,What five-letter word did Time magazine coin in 1926 to refer to left-leaners? ,177,1.007,38,143734.0,q,S,2037.0,147280.09999999404,HRV,HRV_0025,2022-11-30 17:37:54
Apples. They don't have caffeine but the natural sugar and vitamins release slowly and make you feel more awake. ,5,Whice fruit is effective than coffee at waking you up in the morning?,454,1.274,39,147280.09999999404,q,S,2580.2000000029802,151637.79999999702,HRV,HRV_0025,2022-11-30 17:37:54
Brazil,3,"The United States has more stars on its flag than any other country, with fifty. What nation is in second place, with twenty-seven?",108,1.85,40,151637.79999999702,p,K,2787.0999999940395,156777.89999999106,HRV,HRV_0025,2022-11-30 17:37:54
Sugar-sweetened beverages are likely the most fattening becaause they are not registered as consumed calories. ,5,What is the most fattening product in the modern diet?,457,0.602,41,156777.89999999106,q,S,1598.300000011921,159481.89999999106,HRV,HRV_0025,2022-11-30 17:37:54
Woodrow Wilson ,7,"Which U.S. president declared the first national ""Mother's Day""?  ",355,1.394,42,159481.89999999106,q,S,2271.6000000089407,163649.79999999702,HRV,HRV_0025,2022-11-30 17:37:54
Oregon ,6,"The world's smallest park, measuring two feet in diameter, is located in what U.S. state? ",112,1.891,43,163649.79999999702,p,K,2182.4000000059605,168225.79999999702,HRV,HRV_0025,2022-11-30 17:37:54
Draw,1,What does a screever do on a sidewalk? ,167,1.965,44,168225.79999999702,q,S,1733.5999999940395,172426.89999999106,HRV,HRV_0025,2022-11-30 17:37:54
Love Me Do ,7,What was The Beatles's first song to hit the UK charts?,280,1.066,45,172426.89999999106,p,K,1746.0,175741.79999999702,HRV,HRV_0025,2022-11-30 17:37:54
A Spoonful of Sugar ,4,What classic Disney song was inspired by lyricist Robert Sherman's fiver-year old son receiving the Sabin polio vaccine at school?,420,1.072,46,175741.79999999702,q,S,1862.4000000059605,179178.89999999106,HRV,HRV_0025,2022-11-30 17:37:54
Endeavour ,2,What is the name of the ship that carried Captain Cook to Australia?  ,208,0.875,47,179178.89999999106,q,S,1660.800000011921,182216.39999999106,HRV,HRV_0025,2022-11-30 17:37:54
Ripe cranerries bounce when dropped on the ground,4,How do farmers test whether cranberries are ripe?,452,0.894,48,182216.39999999106,q,S,1940.6000000089407,185553.89999999106,HRV,HRV_0025,2022-11-30 17:37:54
Kidnapping and killing the Lindbergh baby,3,For what crime was Bruno Hauptmann executed in 1936?,41,1.215,49,185553.89999999106,q,S,1858.5,189130.59999999404,HRV,HRV_0025,2022-11-30 17:37:54
Russia,2,Which country has the most public libraries?  ,339,0.845,50,189130.59999999404,p,K,1787.1000000089407,192265.09999999404,HRV,HRV_0025,2022-11-30 17:37:54
Bacon,4,"In Britain, what kind of meat comes in rashers?",397,1.165,51,192265.09999999404,q,S,1706.0,195639.29999999702,HRV,HRV_0025,2022-11-30 17:37:54
The evacuation of Saigon,3,"""White Christmas"" playing on Armed Forces Radio was the secret signal for what event on April 30, 1975?",6,0.912,52,195639.29999999702,q,S,1765.2999999970198,198819.70000000298,HRV,HRV_0025,2022-11-30 17:37:54
Canadian Oil,1,What is canola an abbreviation for?,436,0.712,53,198819.70000000298,q,S,1665.0,201699.20000000298,HRV,HRV_0025,2022-11-30 17:37:54
Bruce Springsteen's Born in the USA ,5,What was the first CD pressed for commerical release in the U.S.?,282,1.689,54,201699.20000000298,q,S,2259.7999999970198,206150.79999999702,HRV,HRV_0025,2022-11-30 17:37:54
potein,5,"What nutrient comes from meat, eggs, and fish?",433,1.296,55,206150.79999999702,q,S,2159.7000000029802,210108.5,HRV,HRV_0025,2022-11-30 17:37:54
Hawaii,1,Where is the only royal palace in the United States? ,321,0.754,56,210108.5,q,S,1990.3999999910593,213356.29999999702,HRV,HRV_0025,2022-11-30 17:37:54
On a Jell-O box,3,"Where would you see the consumer warning ""Do not use fresh or frozen pineapple, kiwi, ginger-root, papaya, figs, or guava""?",411,1.402,57,213356.29999999702,q,S,2576.4000000059605,217838.09999999404,HRV,HRV_0025,2022-11-30 17:37:54
Avocados have twice the amount of potassium as bananas. ,5,Which fruit has more potassium than bananas?,455,1.626,58,217838.09999999404,q,S,1539.6000000089407,221506.29999999702,HRV,HRV_0025,2022-11-30 17:37:54
American Beauty,4,What Oscar-winning Best Picture is named for a type of rose? ,240,0.579,59,221506.29999999702,p,K,1885.7999999970198,224474.09999999404,HRV,HRV_0025,2022-11-30 17:37:54
Green Eggs and Ham,5,What 1960 classic originated when Bennett Cerf bet one of his authors that he couldn't write a book using only fifty words?,419,1.515,60,224474.09999999404,q,S,1897.6000000089407,228389.39999999106,HRV,HRV_0025,2022-11-30 17:37:54
Zinfindel,4,"What grape, used to make a popular California wine, is called Primitivo in Europe?  ",403,1.785,61,228389.39999999106,p,K,3342.9000000059605,234034.29999999702,HRV,HRV_0025,2022-11-30 17:37:54
Prairie dogs,6,"In 1900, Texas biologist Vernon Bailey discovered a network of tunnels the size of the state of Maryland. What had dug them?",51,0.64,62,234034.39999999106,q,S,2232.9000000059605,237410.70000000298,HRV,HRV_0025,2022-11-30 17:37:54
Black,7,What color lipstick did silent movie stars wear?  ,151,1.106,63,237410.70000000298,q,S,2439.199999988079,241459.20000000298,HRV,HRV_0025,2022-11-30 17:37:54
Blue,3,Lobster blood is what color?,73,1.28,64,241459.20000000298,q,S,2387.8999999910593,245631.0,HRV,HRV_0025,2022-11-30 17:37:54
San Francisco Bay ,7,"What bay is Otis Redding serenading in ""(Sittin' on) the Dock of the Bay""? ",142,1.323,65,245631.0,p,K,2058.7000000029802,249515.20000000298,HRV,HRV_0025,2022-11-30 17:37:54
Penny Marshall,4,Who was the first woman film director to have a film take in more than $100 million at the box office? ,380,0.893,66,249515.20000000298,q,S,2560.8999999910593,253472.29999999702,HRV,HRV_0025,2022-11-30 17:37:54
coca-cola,7,Which famous soft drink was invented in 1892?,425,0.861,67,253472.29999999702,p,K,1984.0999999940395,256820.70000000298,HRV,HRV_0025,2022-11-30 17:37:54
The Leek ,2,"What bulb vegetable is traditionally worn on Saint David's Day, as it's a national symbol of Wales?",145,1.511,68,256820.70000000298,q,S,2665.199999988079,261499.39999999106,HRV,HRV_0025,2022-11-30 17:37:54
Coca-Cola,5,"""Project Kansas"" was the name for the top secret 1985 attempt to revamp what product?",416,0.552,69,261499.39999999106,p,K,2031.800000011921,264586.200000003,HRV,HRV_0025,2022-11-30 17:37:54
A Galapagos giant tortoise ,2,"What kind of animal was Hariet, who died at the Queensland Zoo in 2006 and was claimed to have belonged to Charles Darwin?",223,0.55,70,264586.200000003,p,K,2136.2999999970198,267776.89999999106,HRV,HRV_0025,2022-11-30 17:37:54
Silicon,3,What element is combined with oxygen to make up the mineral quartz?,269,1.883,71,267776.89999999106,q,S,1972.1000000089407,272134.39999999106,HRV,HRV_0025,2022-11-30 17:37:54
Social Security,7,Ida May Fuller was the first U.S. citizen to receive a check for what?,46,1.577,72,272134.39999999106,p,K,1915.9000000059605,276131.299999997,HRV,HRV_0025,2022-11-30 17:37:54
Ampersand (&),7,"What began as a ligature of the letters ""e"" and ""t""?",144,0.79,73,276131.299999997,q,S,1977.5,279401.59999999404,HRV,HRV_0025,2022-11-30 17:37:54
cheese ,5,What item of food holds the world record for being the most stolen item of food in the world?,444,1.171,74,279401.59999999404,q,S,1886.6000000089407,282961.5,HRV,HRV_0025,2022-11-30 17:37:54
Bright red,6,Vitamin A is largely available in natural food sources with which colour?,448,0.783,75,282961.5,q,S,2062.0,286309.700000003,HRV,HRV_0025,2022-11-30 17:37:54
Germany,7,Which European country was the first to produce decaffeinated coffee? ,412,1.423,76,286309.700000003,q,S,2087.5,290323.200000003,HRV,HRV_0025,2022-11-30 17:37:54
South America,2,The electric eel is native only to what continent?,96,0.767,77,290323.200000003,q,S,1564.0,293156.799999997,HRV,HRV_0025,2022-11-30 17:37:54
Iraq,6,In which country were the Hanging Gardens of Babylon located?,69,0.951,78,293156.799999997,p,K,3268.7999999970198,297879.5,HRV,HRV_0025,2022-11-30 17:37:54
Shoe sizes,6,"In Europe, but not the U.S., what are measured in ""Paris Points""?",59,0.739,79,297879.5,q,S,1994.5,301115.89999999106,HRV,HRV_0025,2022-11-30 17:37:54
Poison-arrow frog,4,"Which animal's poison could kill up to 2,200 people? ",329,1.319,80,301115.89999999106,q,S,1752.4000000059605,304690.799999997,HRV,HRV_0025,2022-11-30 17:37:54
PayPal,4,YouTube.com is the brainchild of three former employees of what other major website? ,396,1.056,81,304690.799999997,q,S,1754.0,308004.299999997,HRV,HRV_0025,2022-11-30 17:37:54
George Marshall,7,What future secretary of state became America's first five-star general in December 1944? ,181,0.667,82,308004.299999997,q,S,2187.9000000059605,311361.700000003,HRV,HRV_0025,2022-11-30 17:37:54
KISS ,4,"According to the Guinness Book of Records, what was the loudest rock band ever?",13,1.979,83,311361.700000003,q,S,1600.7999999970198,315443.799999997,HRV,HRV_0025,2022-11-30 17:37:54
The Netherlands,5,In 1568 the Catholic Church sentenced the entire population of which nation to death as heretics?,47,1.711,84,315443.799999997,q,S,2623.0999999940395,320280.5,HRV,HRV_0025,2022-11-30 17:37:54
As Good As It Gets ,7,"What Jack Nicholson comedy was translated as ""Mr. Cat Poop"" in Cantonese when it was released in China?",218,0.743,85,320280.5,q,S,2673.0999999940395,324199.59999999404,HRV,HRV_0025,2022-11-30 17:37:54
Choking on food,6,"Each year, approximately 125 people die of what? ",417,1.713,86,324199.59999999404,q,S,2085.2000000029802,328499.89999999106,HRV,HRV_0025,2022-11-30 17:37:54
Ciabatta,5,"What sandwich bread, because of its shape, takes its name from the Italian for ""carpet slipper""? ",406,1.531,87,328499.89999999106,q,S,1908.300000011921,332442.09999999404,HRV,HRV_0025,2022-11-30 17:37:54
Dragees,4,"What are the sugared almonds, traditionally thrown over the bride and groom at a wedding, called?",430,0.713,88,332442.09999999404,q,S,1835.6000000089407,335492.59999999404,HRV,HRV_0025,2022-11-30 17:37:54
Charles Babbage ,1,"What inventor of the Difference Engine once baked himself in an oven for five minutes, ""to see what would happen""?",192,1.648,89,335492.59999999404,q,S,2639.5,340282.59999999404,HRV,HRV_0025,2022-11-30 17:37:54
Hey Jude,1,What Beatles song lasted the longest on the American charts? ,143,0.561,90,340282.59999999404,q,S,1921.0,343266.799999997,HRV,HRV_0025,2022-11-30 17:37:54
Mung beans ,3,What kind of bean produces the Asian-style bean sprouts in the produce section of supermarkets? ,404,1.233,91,343266.799999997,q,S,2268.2000000029802,347271.39999999106,HRV,HRV_0025,2022-11-30 17:37:54
Cement,5,"The SS Faith, a ship built by Leslie Comyn, was made of what unique material?",105,1.245,92,347271.39999999106,q,S,2101.1000000089407,351120.0,HRV,HRV_0025,2022-11-30 17:37:54
Steamboat Geyser,3,"Which Yellowstone geyser, with eruptions 100 fee taller than Old Faithful's, is the world's tallest?",359,1.461,93,351120.0,q,S,1733.7000000029802,354817.5,HRV,HRV_0025,2022-11-30 17:37:54
Charles ,2,What river runs through Boston? ,252,0.998,94,354817.5,p,K,2721.7999999970198,359042.0,HRV,HRV_0025,2022-11-30 17:37:54
North Korea,6,"Until 2007, what was the only country in the world not to have registered it's on internet domain suffix, "".kp""?",120,0.813,95,359042.0,q,S,2707.2000000029802,363065.299999997,HRV,HRV_0025,2022-11-30 17:37:54
Bumblebee bat,4,"Which mammal is the world's smallest, weighing less than a penny? ",347,1.354,96,363065.299999997,q,S,2193.5999999940395,367115.299999997,HRV,HRV_0025,2022-11-30 17:37:54
Ginseng ,5,"What plant takes its name for the Chinese words for ""man root""? ",245,1.73,97,367115.299999997,q,S,2184.0,371531.799999997,HRV,HRV_0025,2022-11-30 17:37:54
Sri Lanka,7,"The word serendipity comes from Serendip, the Persian name for what island? ",109,1.424,98,371531.799999997,q,S,2548.0999999940395,376007.5,HRV,HRV_0025,2022-11-30 17:37:54
Adobe,4,"What word for mud bricks comes to us from the ancient Egyptian word ""dbt""? ",298,1.488,99,376007.5,q,S,1999.7999999970198,379998.89999999106,HRV,HRV_0025,2022-11-30 17:37:54
Ear ,4,"The pinna is the outer, visible part of what?",103,1.556,100,379999.0,q,S,2062.7000000029802,384119.200000003,HRV,HRV_0025,2022-11-30 17:37:54
Lava lamp ,4,What was first made by suspending paraffin in a solution of water and antifreeze? ,276,1.495,101,384119.299999997,q,S,1815.9000000059605,387933.0,HRV,HRV_0025,2022-11-30 17:37:54
Two of the seven cities of gold,1,What are Quivira and Cibola?  ,136,1.404,102,387933.0,q,S,2038.7000000029802,391878.799999997,HRV,HRV_0025,2022-11-30 17:37:54
chickpeas,5,What is used to make hummus?,424,0.765,103,391878.799999997,q,S,2347.2000000029802,395493.59999999404,HRV,HRV_0025,2022-11-30 17:37:54
Antawn Jamison ,3,What Washington Wizards All-Star still bears the misplaced w in his name from a birth certificate typo?,295,1.568,104,395493.59999999404,p,K,1742.7000000029802,399306.299999997,HRV,HRV_0025,2022-11-30 17:37:54
8 Mile Road ,7,"What road, which names a 2002 film, divides Wayne County from affluent Oakland and Maycomb Counties?",254,1.847,105,399306.299999997,p,K,2492.4000000059605,404149.39999999106,HRV,HRV_0025,2022-11-30 17:37:54
Library of Congress,5,"In 1802, John Beckley became the librarian of what collection containing 740 books at the time?",48,1.303,106,404149.39999999106,q,S,1812.9000000059605,407767.59999999404,HRV,HRV_0025,2022-11-30 17:37:54
Spiro Agnew ,6,"What vice president referred to his critics as the ""nattering nabobs of negativism""? ",274,0.926,107,407767.59999999404,p,K,1935.9000000059605,411132.89999999106,HRV,HRV_0025,2022-11-30 17:37:54
Texas,1,"What state's motto is ""friendship"" since that's supposed to have been the meaning of the state's Caddo Indian name?",263,1.421,108,411133.0,p,K,2316.0,415372.39999999106,HRV,HRV_0025,2022-11-30 17:37:54
Kansas City ,2,The first suburban shopping center in the U.S. was established in what city?,99,1.816,109,415372.39999999106,q,S,1547.0,419238.09999999404,HRV,HRV_0025,2022-11-30 17:37:54
Smoke,3,"in 1908, New York City passed the Sullivan Ordinance which made it illegal for women to do what in public?",52,1.688,110,419238.09999999404,p,K,2227.7999999970198,423656.0,HRV,HRV_0025,2022-11-30 17:37:54
Avocado,5,Pet parrots can eat most human foods except chocolate and which pitted food?  ,398,0.56,111,423656.0,q,S,1939.2000000029802,426657.799999997,HRV,HRV_0025,2022-11-30 17:37:54
Roulette,5,What game was created by French mathematician Blaise Pascal when he was experimenting with perpetual motion? ,182,0.65,112,426657.799999997,p,K,1761.7999999970198,429571.700000003,HRV,HRV_0025,2022-11-30 17:37:54
Sepia,1,What tinting process for black and white photography was named for the genus of cuttlefish that originally provided the pigment?,266,1.164,113,429571.700000003,q,S,1964.0,433202.299999997,HRV,HRV_0025,2022-11-30 17:37:54
Louisiana's,3,What U.S. state's civil law is most closely based on the Napoleonic Code?  ,272,0.943,114,433202.299999997,p,K,1653.2000000029802,436302.39999999106,HRV,HRV_0025,2022-11-30 17:37:54
Tears,1,"At 6-8 weeks, babies start producing what? ",23,0.783,115,436302.39999999106,p,K,2145.2000000029802,439732.89999999106,HRV,HRV_0025,2022-11-30 17:37:54
Gone with the Wind,1,The first swear word on the big screen was in what movie?,100,1.365,116,439732.89999999106,q,S,2944.2000000029802,444544.5,HRV,HRV_0025,2022-11-30 17:37:54
Copperhead snake,5,Which poisonous snake smells like fresh cut cucumbers? ,350,0.989,117,444544.5,q,S,2307.0,448343.0,HRV,HRV_0025,2022-11-30 17:37:54
Cheetah,1,Which is the only cat that cannot retract its claws? ,344,1.422,118,448343.0,q,S,2666.0,452933.0,HRV,HRV_0025,2022-11-30 17:37:54
Paris,2,"What city is home to the world's very first pet cemetery, in which Rin Tin Tin is buried?",148,1.986,119,452933.0,q,S,3037.3999999910593,458458.59999999404,HRV,HRV_0025,2022-11-30 17:37:54
A jenny ,2,What is a female donkey called?,194,1.565,120,458458.59999999404,q,S,2059.4000000059605,462585.299999997,HRV,HRV_0025,2022-11-30 17:37:54
Tobacco,2,"In 2005, Bhutan became the first country to entirely ban what?",57,1.935,121,462585.299999997,p,K,2499.0,467522.200000003,HRV,HRV_0025,2022-11-30 17:37:54
Air bags,2,"Sodium azide, a highly toxic chemical, is best-known for being used to develop what lifesaving devices?",84,1.199,122,467522.200000003,p,K,1628.699999988079,470853.09999999404,HRV,HRV_0025,2022-11-30 17:37:54
Come by her,3,"The title of the song ""Kumbaya"" is actually a distortion of what three-word phrase?",106,0.642,123,470853.09999999404,p,K,2815.1000000089407,474812.89999999106,HRV,HRV_0025,2022-11-30 17:37:54
Pearl Harbor ,7,What late-breaking news story kicked Dumbo off the cover of Time magazine six weeks after the elephant cartoon's release?,227,1.81,124,474812.89999999106,p,K,3502.800000011921,480627.59999999404,HRV,HRV_0025,2022-11-30 17:37:54
Thomas Nast ,7,Which cartoonist is famous for creating the popular image of Santa Claus? ,333,1.802,125,480627.59999999404,p,K,2366.7000000029802,485299.09999999404,HRV,HRV_0025,2022-11-30 17:37:54
The Notorious BIG,2,"Who released only a single album during his lifetime, the ominously named Ready to Die? ",373,1.721,126,485299.09999999404,p,K,3534.7999999970198,491057.59999999404,HRV,HRV_0025,2022-11-30 17:37:54
Sic semper tyrannis ,2,What state motto of Virginia did John Wilkes Booth shout as he jumped from Lincoln's box to the stage of Ford's Theatre? ,262,1.002,127,491057.59999999404,p,K,3446.9000000059605,496009.200000003,HRV,HRV_0025,2022-11-30 17:37:54
Koala,6,"What animal, which eighteenth century settlers called a ""native bear"" has two opposable thumbs on each hand?",134,0.865,128,496009.200000003,q,S,3523.7999999970198,500900.5,HRV,HRV_0025,2022-11-30 17:37:54
Coca-Cola,4,"The BBC once banned the Beatles' ""Come Together"" for ""advertising"" what product in the lyrics?",93,1.214,129,500900.5,q,S,2539.0,505156.5,HRV,HRV_0025,2022-11-30 17:37:54
James Brown,4,"When asked to define ""cool,"" what two words did James Brown use? ",312,1.17,130,505156.5,q,S,2822.3999999910593,509650.700000003,HRV,HRV_0025,2022-11-30 17:37:54
Hong Kong ,5,What city's harbor is overlooked by Victoria Peak? ,185,1.154,131,509650.700000003,q,S,2223.5999999940395,513530.799999997,HRV,HRV_0025,2022-11-30 17:37:54
The crocodile,7,The Egyptian plover is a bird best known for its symbiotic relationship with what host animal?,95,0.827,132,513530.799999997,q,S,3137.0,517998.0,HRV,HRV_0025,2022-11-30 17:37:54
Liberia,3,"Before his ears were cut off in 1990 by a political rival, what nation was ruled by dictator Samuel Doe?",27,0.859,133,517998.0,q,S,3785.2999999970198,523144.200000003,HRV,HRV_0025,2022-11-30 17:37:54
Francisco Goya,4,"After a fever took his hearing, who painted his bleak ""Black Paintings"" in a house called Quinta del Sordo, Spanish for ""House of the Deaf Man""?",15,1.318,134,523144.200000003,q,S,2868.5,527833.3999999911,HRV,HRV_0025,2022-11-30 17:37:54
Everything ,3,Pantophobia is the fear of what?,79,1.426,135,527833.3999999911,q,S,1849.6000000089407,531611.299999997,HRV,HRV_0025,2022-11-30 17:37:54
Haricot beans,3,Baked beans are made from what type of bean?,443,1.752,136,531611.299999997,q,S,2456.2999999970198,536323.299999997,HRV,HRV_0025,2022-11-30 17:37:54
Speed of wind,7,What does an anemometer measure? ,168,1.449,137,536323.299999997,q,S,2017.5999999940395,540293.099999994,HRV,HRV_0025,2022-11-30 17:37:54
Louie Louie,6,What 1963 song led to a thirty-one month FBI investigation into supposed obscenities hidden in its unintelligible lyrics?,122,1.521,138,540293.099999994,q,S,3000.6000000089407,545317.8999999911,HRV,HRV_0025,2022-11-30 17:37:54
Eddie Van Halen,2,"Who performs the guest guitar solo on Michael Jackson's ""Beat It""?  ",371,0.66,139,545317.8999999911,q,S,2580.2000000029802,549060.799999997,HRV,HRV_0025,2022-11-30 17:37:54
An otter,7,What animal lives in a holt? ,133,1.075,140,549060.799999997,q,S,1677.5999999940395,552317.299999997,HRV,HRV_0025,2022-11-30 17:37:54
Claudius,2,Which Roman emperor had a speech impediment?  ,351,0.611,141,552317.299999997,q,S,2175.5,555607.0,HRV,HRV_0025,2022-11-30 17:37:54
Rechargeable batteries,3,"Three quarters of the cadmium mined annually is used, with nickel, to make what household items?",117,1.765,142,555607.0,q,S,3209.0999999940395,561083.0,HRV,HRV_0025,2022-11-30 17:37:54
Andy Kaufman,1,Who was banned from Saturday Night Live by viewer phone vote in 1982? ,376,1.129,143,561083.0,q,S,1883.5999999940395,564598.700000003,HRV,HRV_0025,2022-11-30 17:37:54
Monday,5,The risk of heart attack is highest on which day of the week?,104,1.624,144,564598.700000003,p,K,3520.5,570245.599999994,HRV,HRV_0025,2022-11-30 17:37:54
cooking,4,"If you suffer from Mageirocophobia, what are you scared of?",438,0.862,145,570245.599999994,q,S,2698.1000000089407,574308.3999999911,HRV,HRV_0025,2022-11-30 17:37:54
Ozone,4,"What molecule is named for the Greek word for ""smell,"" because of the odor associated with lightning storms?",232,1.015,146,574308.5,q,S,3579.7000000029802,579405.0,HRV,HRV_0025,2022-11-30 17:37:54
C,2,"James Bond works for M, but what single initial is used for the real-life director of Britain's MI6?",71,1.419,147,579405.0,q,S,3247.7000000029802,584574.099999994,HRV,HRV_0025,2022-11-30 17:37:54
Bling bling ,6,What term does rapper B.G. say he wishes he'd patented when he used it for the title of his massive 1999 hit?,264,1.091,148,584574.099999994,q,S,3570.2999999970198,589738.099999994,HRV,HRV_0025,2022-11-30 17:37:54
Monrovia,7,What African capital city is named after a U.S. president? ,128,0.521,149,589738.099999994,q,S,3032.7000000029802,593793.8999999911,HRV,HRV_0025,2022-11-30 17:37:54
Australia,3,What country has six sheep for every human? ,158,1.4,150,593793.8999999911,p,K,4272.5,599969.0,HRV,HRV_0025,2022-11-30 17:37:54
Bouquet,1,"Young wines are said to have ""aroma."" What do older wines have instead?",395,0.558,151,599969.0,q,S,2601.7999999970198,603631.099999994,HRV,HRV_0025,2022-11-30 17:37:54
