trialN,stimuli,trialStartTime,trialStartTime_UNIX,stimulus1,stimulus2,stimulus1Bid,stimulus2Bid,delta,selected,rt,rt_UNIX,rt_perfnow,receivedResponse,rsp,trialEndTime,trialDuration,trialEndTime_UNIX,trialDuration_UNIX,exp,subjectId,date
0,"[{'imgObject': {}, 'id': 'lox', 'src': '/static/foodstim60/lox.jpg', 'key': 'u', 'origWidth': 410, 'origHeight': 411, 'width': 410, 'height': 411, 'widthPercent': 0.45, 'rescaleHeight': False, 'trialN': 0, 'loaded': True, 'loadedTime': 9471.29999999702, 'positionName': 'LEFT', 'positionCoords': [216.88, 116.5], 'bid': 2.79}, {'imgObject': {}, 'id': 'cherries', 'src': '/static/foodstim60/cherries.jpg', 'key': 'i', 'origWidth': 410, 'origHeight': 411, 'width': 410, 'height': 411, 'widthPercent': 0.45, 'rescaleHeight': False, 'trialN': 0, 'loaded': True, 'loadedTime': 9471.5, 'positionName': 'RIGHT', 'positionCoords': [679.12, 116.5], 'bid': 2.76}]",9579.39999999106,1669830601961,lox,cherries,2.79,2.76,-0.03000000000000025,cherries,2130.4000000059605,2132,2131.2000000029802,True,i,12211.39999999106,2632.0,1669830604593,2632,HRV,HRV_0025,2022-11-30 17:54:38
1,"[{'imgObject': {}, 'id': 'bagel and cc', 'src': '/static/foodstim60/bagel and cc.jpg', 'key': 'u', 'origWidth': 410, 'origHeight': 410, 'width': 410, 'height': 410, 'widthPercent': 0.45, 'rescaleHeight': False, 'trialN': 1, 'loaded': True, 'loadedTime': 9475.59999999404, 'positionName': 'LEFT', 'positionCoords': [216.88, 117], 'bid': 1.84}, {'imgObject': {}, 'id': 'baked potato', 'src': '/static/foodstim60/baked potato.jpg', 'key': 'i', 'origWidth': 409, 'origHeight': 410, 'width': 409, 'height': 410, 'widthPercent': 0.45, 'rescaleHeight': False, 'trialN': 1, 'loaded': True, 'loadedTime': 9482, 'positionName': 'RIGHT', 'positionCoords': [679.12, 117], 'bid': 2.42}]",12211.59999999404,1669830604594,bagel and cc,baked potato,1.84,2.42,0.5799999999999998,bagel and cc,1142.2000000029802,1142,1142.5999999940395,True,u,13855.0,1643.4000000059605,1669830606237,1643,HRV,HRV_0025,2022-11-30 17:54:38
2,"[{'imgObject': {}, 'id': 'edamame', 'src': '/static/foodstim60/edamame.jpg', 'key': 'u', 'origWidth': 409, 'origHeight': 410, 'width': 409, 'height': 410, 'widthPercent': 0.45, 'rescaleHeight': False, 'trialN': 2, 'loaded': True, 'loadedTime': 9483.699999988079, 'positionName': 'LEFT', 'positionCoords': [217.88, 117], 'bid': 3.74}, {'imgObject': {}, 'id': 'Grapes', 'src': '/static/foodstim60/Grapes.jpg', 'key': 'i', 'origWidth': 411, 'origHeight': 411, 'width': 411, 'height': 411, 'widthPercent': 0.45, 'rescaleHeight': False, 'trialN': 2, 'loaded': True, 'loadedTime': 9486.79999999702, 'positionName': 'RIGHT', 'positionCoords': [679.12, 116.5], 'bid': 3.11}]",13855.199999988079,1669830606237,edamame,Grapes,3.74,3.11,-0.6300000000000003,Grapes,1629,1630,1629.5,True,i,15985.39999999106,2130.2000000029802,1669830608367,2130,HRV,HRV_0025,2022-11-30 17:54:38
3,"[{'imgObject': {}, 'id': 'hashbrowns', 'src': '/static/foodstim60/hashbrowns.jpg', 'key': 'u', 'origWidth': 411, 'origHeight': 410, 'width': 411, 'height': 410, 'widthPercent': 0.45, 'rescaleHeight': False, 'trialN': 3, 'loaded': True, 'loadedTime': 9489.699999988079, 'positionName': 'LEFT', 'positionCoords': [215.88, 117], 'bid': 2.35}, {'imgObject': {}, 'id': 'burger', 'src': '/static/foodstim60/burger.jpg', 'key': 'i', 'origWidth': 409, 'origHeight': 409, 'width': 409, 'height': 409, 'widthPercent': 0.45, 'rescaleHeight': False, 'trialN': 3, 'loaded': True, 'loadedTime': 9492.39999999106, 'positionName': 'RIGHT', 'positionCoords': [679.12, 117.5], 'bid': 1.75}]",15985.5,1669830608367,hashbrowns,burger,2.35,1.75,-0.6000000000000001,burger,1673.8999999910593,1675,1674.2999999970198,True,i,18161.69999998808,2176.199999988079,1669830610544,2177,HRV,HRV_0025,2022-11-30 17:54:38
4,"[{'imgObject': {}, 'id': 'cantaloupe', 'src': '/static/foodstim60/cantaloupe.jpg', 'key': 'u', 'origWidth': 409, 'origHeight': 409, 'width': 409, 'height': 409, 'widthPercent': 0.45, 'rescaleHeight': False, 'trialN': 4, 'loaded': True, 'loadedTime': 9493.39999999106, 'positionName': 'LEFT', 'positionCoords': [217.88, 117.5], 'bid': 3.1}, {'imgObject': {}, 'id': 'rigatoni', 'src': '/static/foodstim60/rigatoni.jpg', 'key': 'i', 'origWidth': 411, 'origHeight': 411, 'width': 411, 'height': 411, 'widthPercent': 0.45, 'rescaleHeight': False, 'trialN': 4, 'loaded': True, 'loadedTime': 9494, 'positionName': 'RIGHT', 'positionCoords': [679.12, 116.5], 'bid': 4.98}]",18161.89999999106,1669830610544,cantaloupe,rigatoni,3.1,4.98,1.8800000000000003,rigatoni,1204.1000000089407,1204,1204.5,True,i,19867.39999999106,1705.5,1669830612249,1705,HRV,HRV_0025,2022-11-30 17:54:38
5,"[{'imgObject': {}, 'id': 'omelette', 'src': '/static/foodstim60/omelette.jpg', 'key': 'u', 'origWidth': 410, 'origHeight': 409, 'width': 410, 'height': 409, 'widthPercent': 0.45, 'rescaleHeight': False, 'trialN': 5, 'loaded': True, 'loadedTime': 9497.29999999702, 'positionName': 'LEFT', 'positionCoords': [216.88, 117.5], 'bid': 2.85}, {'imgObject': {}, 'id': 'pear', 'src': '/static/foodstim60/pear.jpg', 'key': 'i', 'origWidth': 411, 'origHeight': 410, 'width': 411, 'height': 410, 'widthPercent': 0.45, 'rescaleHeight': False, 'trialN': 5, 'loaded': True, 'loadedTime': 9500.29999999702, 'positionName': 'RIGHT', 'positionCoords': [679.12, 117], 'bid': 2.74}]",19867.5,1669830612250,omelette,pear,2.85,2.74,-0.10999999999999988,pear,1388.199999988079,1388,1388.699999988079,True,i,21756.5,1889.0,1669830614138,1888,HRV,HRV_0025,2022-11-30 17:54:38
6,"[{'imgObject': {}, 'id': 'steak', 'src': '/static/foodstim60/steak.jpg', 'key': 'u', 'origWidth': 410, 'origHeight': 410, 'width': 410, 'height': 410, 'widthPercent': 0.45, 'rescaleHeight': False, 'trialN': 6, 'loaded': True, 'loadedTime': 9503.29999999702, 'positionName': 'LEFT', 'positionCoords': [216.88, 117], 'bid': 1.92}, {'imgObject': {}, 'id': 'apple slices', 'src': '/static/foodstim60/apple slices.jpg', 'key': 'i', 'origWidth': 409, 'origHeight': 410, 'width': 409, 'height': 410, 'widthPercent': 0.45, 'rescaleHeight': False, 'trialN': 6, 'loaded': True, 'loadedTime': 9505, 'positionName': 'RIGHT', 'positionCoords': [679.12, 117], 'bid': 2.04}]",21756.69999998808,1669830614139,steak,apple slices,1.92,2.04,0.1200000000000001,apple slices,1144.1000000089407,1144,1144.6000000089407,True,i,23402.89999999106,1646.2000000029802,1669830615785,1646,HRV,HRV_0025,2022-11-30 17:54:38
7,"[{'imgObject': {}, 'id': 'ice cream sundae 002', 'src': '/static/foodstim60/ice cream sundae 002.jpg', 'key': 'u', 'origWidth': 409, 'origHeight': 409, 'width': 409, 'height': 409, 'widthPercent': 0.45, 'rescaleHeight': False, 'trialN': 7, 'loaded': True, 'loadedTime': 9505.699999988079, 'positionName': 'LEFT', 'positionCoords': [217.88, 117.5], 'bid': 1.76}, {'imgObject': {}, 'id': 'yogurt no spoon', 'src': '/static/foodstim60/yogurt no spoon.jpg', 'key': 'i', 'origWidth': 411, 'origHeight': 410, 'width': 411, 'height': 410, 'widthPercent': 0.45, 'rescaleHeight': False, 'trialN': 7, 'loaded': True, 'loadedTime': 9513.39999999106, 'positionName': 'RIGHT', 'positionCoords': [679.12, 117], 'bid': 1.6}]",23403.09999999404,1669830615785,ice cream sundae 002,yogurt no spoon,1.76,1.6,-0.15999999999999992,ice cream sundae 002,1259.0999999940395,1260,1259.5,True,u,25163.19999998808,1760.0999999940395,1669830617545,1760,HRV,HRV_0025,2022-11-30 17:54:38
8,"[{'imgObject': {}, 'id': 'turkeysandwich', 'src': '/static/foodstim60/turkeysandwich.jpg', 'key': 'u', 'origWidth': 409, 'origHeight': 409, 'width': 409, 'height': 409, 'widthPercent': 0.45, 'rescaleHeight': False, 'trialN': 8, 'loaded': True, 'loadedTime': 9517.699999988079, 'positionName': 'LEFT', 'positionCoords': [217.88, 117.5], 'bid': 2.94}, {'imgObject': {}, 'id': 'salad w chicken', 'src': '/static/foodstim60/salad w chicken.jpg', 'key': 'i', 'origWidth': 411, 'origHeight': 411, 'width': 411, 'height': 411, 'widthPercent': 0.45, 'rescaleHeight': False, 'trialN': 8, 'loaded': True, 'loadedTime': 9521.59999999404, 'positionName': 'RIGHT', 'positionCoords': [679.12, 116.5], 'bid': 2.71}]",25163.39999999106,1669830617545,turkeysandwich,salad w chicken,2.94,2.71,-0.22999999999999998,turkeysandwich,1014.7999999970198,1016,1015.2000000029802,True,u,26679.0,1515.6000000089407,1669830619061,1516,HRV,HRV_0025,2022-11-30 17:54:38
9,"[{'imgObject': {}, 'id': 'baked potato', 'src': '/static/foodstim60/baked potato.jpg', 'key': 'u', 'origWidth': 409, 'origHeight': 410, 'width': 409, 'height': 410, 'widthPercent': 0.45, 'rescaleHeight': False, 'trialN': 9, 'loaded': True, 'loadedTime': 9479.59999999404, 'positionName': 'LEFT', 'positionCoords': [217.88, 117], 'bid': 2.42}, {'imgObject': {}, 'id': 'eggs', 'src': '/static/foodstim60/eggs.jpg', 'key': 'i', 'origWidth': 409, 'origHeight': 409, 'width': 409, 'height': 409, 'widthPercent': 0.45, 'rescaleHeight': False, 'trialN': 9, 'loaded': True, 'loadedTime': 9522.699999988079, 'positionName': 'RIGHT', 'positionCoords': [679.12, 117.5], 'bid': 2.42}]",26679.09999999404,1669830619061,baked potato,eggs,2.42,2.42,0.0,eggs,1342.4000000059605,1343,1342.7999999970198,True,i,28523.89999999106,1844.7999999970198,1669830620906,1845,HRV,HRV_0025,2022-11-30 17:54:38
10,"[{'imgObject': {}, 'id': 'fruitsalad', 'src': '/static/foodstim60/fruitsalad.jpg', 'key': 'u', 'origWidth': 410, 'origHeight': 410, 'width': 410, 'height': 410, 'widthPercent': 0.45, 'rescaleHeight': False, 'trialN': 10, 'loaded': True, 'loadedTime': 9524.89999999106, 'positionName': 'LEFT', 'positionCoords': [216.88, 117], 'bid': 2.33}, {'imgObject': {}, 'id': 'olives', 'src': '/static/foodstim60/olives.jpg', 'key': 'i', 'origWidth': 410, 'origHeight': 410, 'width': 410, 'height': 410, 'widthPercent': 0.45, 'rescaleHeight': False, 'trialN': 10, 'loaded': True, 'loadedTime': 9525.89999999106, 'positionName': 'RIGHT', 'positionCoords': [679.12, 117], 'bid': 2.64}]",28524.0,1669830620906,fruitsalad,olives,2.33,2.64,0.31000000000000005,fruitsalad,1139.5999999940395,1140,1140.0,True,u,30164.69999998808,1640.699999988079,1669830622547,1641,HRV,HRV_0025,2022-11-30 17:54:38
11,"[{'imgObject': {}, 'id': 'orange slices', 'src': '/static/foodstim60/orange slices.jpg', 'key': 'u', 'origWidth': 409, 'origHeight': 410, 'width': 409, 'height': 410, 'widthPercent': 0.45, 'rescaleHeight': False, 'trialN': 11, 'loaded': True, 'loadedTime': 9528.39999999106, 'positionName': 'LEFT', 'positionCoords': [217.88, 117], 'bid': 4.96}, {'imgObject': {}, 'id': 'cheerios', 'src': '/static/foodstim60/cheerios.jpg', 'key': 'i', 'origWidth': 409, 'origHeight': 410, 'width': 409, 'height': 410, 'widthPercent': 0.45, 'rescaleHeight': False, 'trialN': 11, 'loaded': True, 'loadedTime': 9531.29999999702, 'positionName': 'RIGHT', 'positionCoords': [679.12, 117], 'bid': 8.59}]",30164.79999999702,1669830622547,orange slices,cheerios,4.96,8.59,3.63,cheerios,695,695,695.5,True,i,31360.69999998808,1195.8999999910593,1669830623743,1196,HRV,HRV_0025,2022-11-30 17:54:38
12,"[{'imgObject': {}, 'id': 'turkey sandwich', 'src': '/static/foodstim60/turkey sandwich.jpg', 'key': 'u', 'origWidth': 409, 'origHeight': 409, 'width': 409, 'height': 409, 'widthPercent': 0.45, 'rescaleHeight': False, 'trialN': 12, 'loaded': True, 'loadedTime': 9532.09999999404, 'positionName': 'LEFT', 'positionCoords': [217.88, 117.5], 'bid': 3.45}, {'imgObject': {}, 'id': 'rigatoni', 'src': '/static/foodstim60/rigatoni.jpg', 'key': 'i', 'origWidth': 411, 'origHeight': 411, 'width': 411, 'height': 411, 'widthPercent': 0.45, 'rescaleHeight': False, 'trialN': 12, 'loaded': True, 'loadedTime': 9496.29999999702, 'positionName': 'RIGHT', 'positionCoords': [679.12, 116.5], 'bid': 4.98}]",31360.79999999702,1669830623743,turkey sandwich,rigatoni,3.45,4.98,1.5300000000000002,rigatoni,1162.2000000029802,1162,1162.5999999940395,True,i,33024.09999999404,1663.2999999970198,1669830625406,1663,HRV,HRV_0025,2022-11-30 17:54:38
13,"[{'imgObject': {}, 'id': 'bagel plain', 'src': '/static/foodstim60/bagel plain.jpg', 'key': 'u', 'origWidth': 410, 'origHeight': 410, 'width': 410, 'height': 410, 'widthPercent': 0.45, 'rescaleHeight': False, 'trialN': 13, 'loaded': True, 'loadedTime': 9534.29999999702, 'positionName': 'LEFT', 'positionCoords': [216.88, 117], 'bid': 2.99}, {'imgObject': {}, 'id': 'cantaloupe', 'src': '/static/foodstim60/cantaloupe.jpg', 'key': 'i', 'origWidth': 409, 'origHeight': 409, 'width': 409, 'height': 409, 'widthPercent': 0.45, 'rescaleHeight': False, 'trialN': 13, 'loaded': True, 'loadedTime': 9493.29999999702, 'positionName': 'RIGHT', 'positionCoords': [679.12, 117.5], 'bid': 3.1}]",33024.19999998808,1669830625406,bagel plain,cantaloupe,2.99,3.1,0.10999999999999988,bagel plain,776.8000000119209,777,777.2000000029802,True,u,34302.89999999106,1278.7000000029802,1669830626685,1279,HRV,HRV_0025,2022-11-30 17:54:38
14,"[{'imgObject': {}, 'id': 'popsicles', 'src': '/static/foodstim60/popsicles.jpg', 'key': 'u', 'origWidth': 410, 'origHeight': 410, 'width': 410, 'height': 410, 'widthPercent': 0.45, 'rescaleHeight': False, 'trialN': 14, 'loaded': True, 'loadedTime': 9537.09999999404, 'positionName': 'LEFT', 'positionCoords': [216.88, 117], 'bid': 5.98}, {'imgObject': {}, 'id': 'Grapes', 'src': '/static/foodstim60/Grapes.jpg', 'key': 'i', 'origWidth': 411, 'origHeight': 411, 'width': 411, 'height': 411, 'widthPercent': 0.45, 'rescaleHeight': False, 'trialN': 14, 'loaded': True, 'loadedTime': 9486.39999999106, 'positionName': 'RIGHT', 'positionCoords': [679.12, 116.5], 'bid': 3.11}]",34303.0,1669830626685,popsicles,Grapes,5.98,3.11,-2.8700000000000006,popsicles,923.2999999970198,924,923.6999999880791,True,u,35726.89999999106,1423.8999999910593,1669830628109,1424,HRV,HRV_0025,2022-11-30 17:54:38
15,"[{'imgObject': {}, 'id': 'edamame', 'src': '/static/foodstim60/edamame.jpg', 'key': 'u', 'origWidth': 409, 'origHeight': 410, 'width': 409, 'height': 410, 'widthPercent': 0.45, 'rescaleHeight': False, 'trialN': 15, 'loaded': True, 'loadedTime': 9483.29999999702, 'positionName': 'LEFT', 'positionCoords': [217.88, 117], 'bid': 3.74}, {'imgObject': {}, 'id': 'grilled chicken strips', 'src': '/static/foodstim60/grilled chicken strips.jpg', 'key': 'i', 'origWidth': 410, 'origHeight': 411, 'width': 410, 'height': 411, 'widthPercent': 0.45, 'rescaleHeight': False, 'trialN': 15, 'loaded': True, 'loadedTime': 9537.699999988079, 'positionName': 'RIGHT', 'positionCoords': [679.12, 116.5], 'bid': 3.6}]",35727.0,1669830628109,edamame,grilled chicken strips,3.74,3.6,-0.14000000000000012,grilled chicken strips,948.2999999970198,949,948.7999999970198,True,i,37176.79999999702,1449.7999999970198,1669830629559,1450,HRV,HRV_0025,2022-11-30 17:54:38
16,"[{'imgObject': {}, 'id': 'strawberries', 'src': '/static/foodstim60/strawberries.jpg', 'key': 'u', 'origWidth': 410, 'origHeight': 410, 'width': 410, 'height': 410, 'widthPercent': 0.45, 'rescaleHeight': False, 'trialN': 16, 'loaded': True, 'loadedTime': 9538.79999999702, 'positionName': 'LEFT', 'positionCoords': [216.88, 117], 'bid': 1.98}, {'imgObject': {}, 'id': 'yogurt no spoon', 'src': '/static/foodstim60/yogurt no spoon.jpg', 'key': 'i', 'origWidth': 411, 'origHeight': 410, 'width': 411, 'height': 410, 'widthPercent': 0.45, 'rescaleHeight': False, 'trialN': 16, 'loaded': True, 'loadedTime': 9513.09999999404, 'positionName': 'RIGHT', 'positionCoords': [679.12, 117], 'bid': 1.6}]",37177.0,1669830629559,strawberries,yogurt no spoon,1.98,1.6,-0.3799999999999999,strawberries,1495.5999999940395,1496,1496.0,True,u,39173.89999999106,1996.8999999910593,1669830631556,1997,HRV,HRV_0025,2022-11-30 17:54:38
17,"[{'imgObject': {}, 'id': 'grilled chicken strips', 'src': '/static/foodstim60/grilled chicken strips.jpg', 'key': 'u', 'origWidth': 410, 'origHeight': 411, 'width': 410, 'height': 411, 'widthPercent': 0.45, 'rescaleHeight': False, 'trialN': 17, 'loaded': True, 'loadedTime': 9537.79999999702, 'positionName': 'LEFT', 'positionCoords': [216.88, 116.5], 'bid': 3.6}, {'imgObject': {}, 'id': 'cantaloupe', 'src': '/static/foodstim60/cantaloupe.jpg', 'key': 'i', 'origWidth': 409, 'origHeight': 409, 'width': 409, 'height': 409, 'widthPercent': 0.45, 'rescaleHeight': False, 'trialN': 17, 'loaded': True, 'loadedTime': 9493.59999999404, 'positionName': 'RIGHT', 'positionCoords': [679.12, 117.5], 'bid': 3.1}]",39174.09999999404,1669830631556,grilled chicken strips,cantaloupe,3.6,3.1,-0.5,grilled chicken strips,975.5999999940395,976,976.0999999940395,True,u,40650.69999998808,1476.5999999940395,1669830633033,1477,HRV,HRV_0025,2022-11-30 17:54:38
18,"[{'imgObject': {}, 'id': 'sweetpotato', 'src': '/static/foodstim60/sweetpotato.jpg', 'key': 'u', 'origWidth': 410, 'origHeight': 410, 'width': 410, 'height': 410, 'widthPercent': 0.45, 'rescaleHeight': False, 'trialN': 18, 'loaded': True, 'loadedTime': 9539, 'positionName': 'LEFT', 'positionCoords': [216.88, 117], 'bid': 1.95}, {'imgObject': {}, 'id': 'strawberries', 'src': '/static/foodstim60/strawberries.jpg', 'key': 'i', 'origWidth': 410, 'origHeight': 410, 'width': 410, 'height': 410, 'widthPercent': 0.45, 'rescaleHeight': False, 'trialN': 18, 'loaded': True, 'loadedTime': 9538.199999988079, 'positionName': 'RIGHT', 'positionCoords': [679.12, 117], 'bid': 1.98}]",40650.79999999702,1669830633033,sweetpotato,strawberries,1.95,1.98,0.030000000000000027,strawberries,934,934,934.5,True,i,42086.29999999702,1435.5,1669830634468,1435,HRV,HRV_0025,2022-11-30 17:54:38
19,"[{'imgObject': {}, 'id': 'luckycharms', 'src': '/static/foodstim60/luckycharms.jpg', 'key': 'u', 'origWidth': 410, 'origHeight': 409, 'width': 410, 'height': 409, 'widthPercent': 0.45, 'rescaleHeight': False, 'trialN': 19, 'loaded': True, 'loadedTime': 9541.89999999106, 'positionName': 'LEFT', 'positionCoords': [216.88, 117.5], 'bid': 4.9}, {'imgObject': {}, 'id': 'tacos', 'src': '/static/foodstim60/tacos.jpg', 'key': 'i', 'origWidth': 411, 'origHeight': 411, 'width': 411, 'height': 411, 'widthPercent': 0.45, 'rescaleHeight': False, 'trialN': 19, 'loaded': True, 'loadedTime': 9544.59999999404, 'positionName': 'RIGHT', 'positionCoords': [679.12, 116.5], 'bid': 4.34}]",42086.5,1669830634468,luckycharms,tacos,4.9,4.34,-0.5600000000000005,tacos,1018.6999999880791,1019,1019.0,True,i,43606.19999998808,1519.699999988079,1669830635988,1520,HRV,HRV_0025,2022-11-30 17:54:38
20,"[{'imgObject': {}, 'id': 'shreddedwheatwithmilk', 'src': '/static/foodstim60/shreddedwheatwithmilk.jpg', 'key': 'u', 'origWidth': 410, 'origHeight': 410, 'width': 410, 'height': 410, 'widthPercent': 0.45, 'rescaleHeight': False, 'trialN': 20, 'loaded': True, 'loadedTime': 9545, 'positionName': 'LEFT', 'positionCoords': [216.88, 117], 'bid': 4.2}, {'imgObject': {}, 'id': 'turkeysandwich', 'src': '/static/foodstim60/turkeysandwich.jpg', 'key': 'i', 'origWidth': 409, 'origHeight': 409, 'width': 409, 'height': 409, 'widthPercent': 0.45, 'rescaleHeight': False, 'trialN': 20, 'loaded': True, 'loadedTime': 9518.5, 'positionName': 'RIGHT', 'positionCoords': [679.12, 117.5], 'bid': 2.94}]",43606.29999999702,1669830635988,shreddedwheatwithmilk,turkeysandwich,4.2,2.94,-1.2600000000000002,shreddedwheatwithmilk,1094.7000000029802,1095,1095.2000000029802,True,u,45201.89999999106,1595.5999999940395,1669830637584,1596,HRV,HRV_0025,2022-11-30 17:54:38
21,"[{'imgObject': {}, 'id': 'rigatoni and sauce', 'src': '/static/foodstim60/rigatoni and sauce.jpg', 'key': 'u', 'origWidth': 410, 'origHeight': 411, 'width': 410, 'height': 411, 'widthPercent': 0.45, 'rescaleHeight': False, 'trialN': 21, 'loaded': True, 'loadedTime': 9546.29999999702, 'positionName': 'LEFT', 'positionCoords': [216.88, 116.5], 'bid': 4.01}, {'imgObject': {}, 'id': 'salmon', 'src': '/static/foodstim60/salmon.jpg', 'key': 'i', 'origWidth': 410, 'origHeight': 409, 'width': 410, 'height': 409, 'widthPercent': 0.45, 'rescaleHeight': False, 'trialN': 21, 'loaded': True, 'loadedTime': 9549.59999999404, 'positionName': 'RIGHT', 'positionCoords': [679.12, 117.5], 'bid': 3.97}]",45202.0,1669830637584,rigatoni and sauce,salmon,4.01,3.97,-0.03999999999999959,rigatoni and sauce,1126.3999999910593,1127,1126.8999999910593,True,u,46829.5,1627.5,1669830639211,1627,HRV,HRV_0025,2022-11-30 17:54:38
22,"[{'imgObject': {}, 'id': 'eggs', 'src': '/static/foodstim60/eggs.jpg', 'key': 'u', 'origWidth': 409, 'origHeight': 409, 'width': 409, 'height': 409, 'widthPercent': 0.45, 'rescaleHeight': False, 'trialN': 22, 'loaded': True, 'loadedTime': 9521.89999999106, 'positionName': 'LEFT', 'positionCoords': [217.88, 117.5], 'bid': 2.42}, {'imgObject': {}, 'id': 'fruitsalad', 'src': '/static/foodstim60/fruitsalad.jpg', 'key': 'i', 'origWidth': 410, 'origHeight': 410, 'width': 410, 'height': 410, 'widthPercent': 0.45, 'rescaleHeight': False, 'trialN': 22, 'loaded': True, 'loadedTime': 9525, 'positionName': 'RIGHT', 'positionCoords': [679.12, 117], 'bid': 2.33}]",46829.59999999404,1669830639212,eggs,fruitsalad,2.42,2.33,-0.08999999999999986,fruitsalad,3267.0999999940395,3267,3267.7000000029802,True,i,50599.19999998808,3769.5999999940395,1669830642981,3769,HRV,HRV_0025,2022-11-30 17:54:38
23,"[{'imgObject': {}, 'id': 'chickenfingers', 'src': '/static/foodstim60/chickenfingers.jpg', 'key': 'u', 'origWidth': 410, 'origHeight': 410, 'width': 410, 'height': 410, 'widthPercent': 0.45, 'rescaleHeight': False, 'trialN': 23, 'loaded': True, 'loadedTime': 9550.29999999702, 'positionName': 'LEFT', 'positionCoords': [216.88, 117], 'bid': 2.16}, {'imgObject': {}, 'id': 'ice cream sundae 002', 'src': '/static/foodstim60/ice cream sundae 002.jpg', 'key': 'i', 'origWidth': 409, 'origHeight': 409, 'width': 409, 'height': 409, 'widthPercent': 0.45, 'rescaleHeight': False, 'trialN': 23, 'loaded': True, 'loadedTime': 9506, 'positionName': 'RIGHT', 'positionCoords': [679.12, 117.5], 'bid': 1.76}]",50599.29999999702,1669830642981,chickenfingers,ice cream sundae 002,2.16,1.76,-0.40000000000000013,ice cream sundae 002,1068.7999999970198,1069,1069.2000000029802,True,i,52169.89999999106,1570.5999999940395,1669830644552,1571,HRV,HRV_0025,2022-11-30 17:54:38
24,"[{'imgObject': {}, 'id': 'mango', 'src': '/static/foodstim60/mango.jpg', 'key': 'u', 'origWidth': 411, 'origHeight': 411, 'width': 411, 'height': 411, 'widthPercent': 0.45, 'rescaleHeight': False, 'trialN': 24, 'loaded': True, 'loadedTime': 9551.29999999702, 'positionName': 'LEFT', 'positionCoords': [215.88, 116.5], 'bid': 2.88}, {'imgObject': {}, 'id': 'burger', 'src': '/static/foodstim60/burger.jpg', 'key': 'i', 'origWidth': 409, 'origHeight': 409, 'width': 409, 'height': 409, 'widthPercent': 0.45, 'rescaleHeight': False, 'trialN': 24, 'loaded': True, 'loadedTime': 9490.39999999106, 'positionName': 'RIGHT', 'positionCoords': [679.12, 117.5], 'bid': 1.75}]",52170.0,1669830644552,mango,burger,2.88,1.75,-1.13,mango,2223.199999988079,2224,2223.5999999940395,True,u,54894.5,2724.5,1669830647277,2725,HRV,HRV_0025,2022-11-30 17:54:38
25,"[{'imgObject': {}, 'id': 'steak', 'src': '/static/foodstim60/steak.jpg', 'key': 'u', 'origWidth': 410, 'origHeight': 410, 'width': 410, 'height': 410, 'widthPercent': 0.45, 'rescaleHeight': False, 'trialN': 25, 'loaded': True, 'loadedTime': 9502.199999988079, 'positionName': 'LEFT', 'positionCoords': [216.88, 117], 'bid': 1.92}, {'imgObject': {}, 'id': 'bagel and cc', 'src': '/static/foodstim60/bagel and cc.jpg', 'key': 'i', 'origWidth': 410, 'origHeight': 410, 'width': 410, 'height': 410, 'widthPercent': 0.45, 'rescaleHeight': False, 'trialN': 25, 'loaded': True, 'loadedTime': 9478.29999999702, 'positionName': 'RIGHT', 'positionCoords': [679.12, 117], 'bid': 1.84}]",54894.59999999404,1669830647277,steak,bagel and cc,1.92,1.84,-0.07999999999999985,bagel and cc,1374.7999999970198,1375,1375.2999999970198,True,i,56770.89999999106,1876.2999999970198,1669830649153,1876,HRV,HRV_0025,2022-11-30 17:54:38
26,"[{'imgObject': {}, 'id': 'grilled chicken strips', 'src': '/static/foodstim60/grilled chicken strips.jpg', 'key': 'u', 'origWidth': 410, 'origHeight': 411, 'width': 410, 'height': 411, 'widthPercent': 0.45, 'rescaleHeight': False, 'trialN': 26, 'loaded': True, 'loadedTime': 9537.199999988079, 'positionName': 'LEFT', 'positionCoords': [216.88, 116.5], 'bid': 3.6}, {'imgObject': {}, 'id': 'corn cob', 'src': '/static/foodstim60/corn cob.jpg', 'key': 'i', 'origWidth': 411, 'origHeight': 411, 'width': 411, 'height': 411, 'widthPercent': 0.45, 'rescaleHeight': False, 'trialN': 26, 'loaded': True, 'loadedTime': 9552.09999999404, 'positionName': 'RIGHT', 'positionCoords': [679.12, 116.5], 'bid': 8.92}]",56771.0,1669830649153,grilled chicken strips,corn cob,3.6,8.92,5.32,corn cob,1032.5,1033,1033.0,True,i,58305.0,1534.0,1669830650687,1534,HRV,HRV_0025,2022-11-30 17:54:38
27,"[{'imgObject': {}, 'id': 'blackbeanswithrice', 'src': '/static/foodstim60/blackbeanswithrice.jpg', 'key': 'u', 'origWidth': 410, 'origHeight': 410, 'width': 410, 'height': 410, 'widthPercent': 0.45, 'rescaleHeight': False, 'trialN': 27, 'loaded': True, 'loadedTime': 9554.59999999404, 'positionName': 'LEFT', 'positionCoords': [216.88, 117], 'bid': 4.69}, {'imgObject': {}, 'id': 'shreddedwheatwithmilk', 'src': '/static/foodstim60/shreddedwheatwithmilk.jpg', 'key': 'i', 'origWidth': 410, 'origHeight': 410, 'width': 410, 'height': 410, 'widthPercent': 0.45, 'rescaleHeight': False, 'trialN': 27, 'loaded': True, 'loadedTime': 9545.5, 'positionName': 'RIGHT', 'positionCoords': [679.12, 117], 'bid': 4.2}]",58305.19999998808,1669830650687,blackbeanswithrice,shreddedwheatwithmilk,4.69,4.2,-0.4900000000000002,NaN,NaN,NaN,,False,NaN,62307.29999999702,4002.1000000089407,1669830654689,4002,HRV,HRV_0025,2022-11-30 17:54:38
28,"[{'imgObject': {}, 'id': 'salad w chicken', 'src': '/static/foodstim60/salad w chicken.jpg', 'key': 'u', 'origWidth': 411, 'origHeight': 411, 'width': 411, 'height': 411, 'widthPercent': 0.45, 'rescaleHeight': False, 'trialN': 28, 'loaded': True, 'loadedTime': 9521.699999988079, 'positionName': 'LEFT', 'positionCoords': [215.88, 116.5], 'bid': 2.71}, {'imgObject': {}, 'id': 'raspberries', 'src': '/static/foodstim60/raspberries.jpg', 'key': 'i', 'origWidth': 411, 'origHeight': 411, 'width': 411, 'height': 411, 'widthPercent': 0.45, 'rescaleHeight': False, 'trialN': 28, 'loaded': True, 'loadedTime': 9555.39999999106, 'positionName': 'RIGHT', 'positionCoords': [679.12, 116.5], 'bid': 2.54}]",62307.5,1669830654690,salad w chicken,raspberries,2.71,2.54,-0.16999999999999993,raspberries,138.79999999701977,139,139.19999998807907,True,i,62947.39999999106,639.8999999910593,1669830655329,639,HRV,HRV_0025,2022-11-30 17:54:38
29,"[{'imgObject': {}, 'id': 'sushi w_condiments', 'src': '/static/foodstim60/sushi w_condiments.jpg', 'key': 'u', 'origWidth': 410, 'origHeight': 410, 'width': 410, 'height': 410, 'widthPercent': 0.45, 'rescaleHeight': False, 'trialN': 29, 'loaded': True, 'loadedTime': 9558, 'positionName': 'LEFT', 'positionCoords': [216.88, 117], 'bid': 2.53}, {'imgObject': {}, 'id': 'cocktailshrimp', 'src': '/static/foodstim60/cocktailshrimp.jpg', 'key': 'i', 'origWidth': 410, 'origHeight': 410, 'width': 410, 'height': 410, 'widthPercent': 0.45, 'rescaleHeight': False, 'trialN': 29, 'loaded': True, 'loadedTime': 9559.09999999404, 'positionName': 'RIGHT', 'positionCoords': [679.12, 117], 'bid': 2.84}]",62947.5,1669830655330,sushi w_condiments,cocktailshrimp,2.53,2.84,0.31000000000000005,sushi w_condiments,989.7999999970198,990,990.2999999970198,True,u,64438.69999998808,1491.199999988079,1669830656821,1491,HRV,HRV_0025,2022-11-30 17:54:38
30,"[{'imgObject': {}, 'id': 'kiwi', 'src': '/static/foodstim60/kiwi.jpg', 'key': 'u', 'origWidth': 410, 'origHeight': 410, 'width': 410, 'height': 410, 'widthPercent': 0.45, 'rescaleHeight': False, 'trialN': 30, 'loaded': True, 'loadedTime': 9561.79999999702, 'positionName': 'LEFT', 'positionCoords': [216.88, 117], 'bid': 2.02}, {'imgObject': {}, 'id': 'veggieswithdip', 'src': '/static/foodstim60/veggieswithdip.jpg', 'key': 'i', 'origWidth': 409, 'origHeight': 409, 'width': 409, 'height': 409, 'widthPercent': 0.45, 'rescaleHeight': False, 'trialN': 30, 'loaded': True, 'loadedTime': 9562.699999988079, 'positionName': 'RIGHT', 'positionCoords': [679.12, 117.5], 'bid': 1.53}]",64438.89999999106,1669830656821,kiwi,veggieswithdip,2.02,1.53,-0.49,kiwi,1070.5,1071,1070.9000000059605,True,u,66011.29999999702,1572.4000000059605,1669830658393,1572,HRV,HRV_0025,2022-11-30 17:54:38
31,"[{'imgObject': {}, 'id': 'salmon', 'src': '/static/foodstim60/salmon.jpg', 'key': 'u', 'origWidth': 410, 'origHeight': 409, 'width': 410, 'height': 409, 'widthPercent': 0.45, 'rescaleHeight': False, 'trialN': 31, 'loaded': True, 'loadedTime': 9548.79999999702, 'positionName': 'LEFT', 'positionCoords': [216.88, 117.5], 'bid': 3.97}, {'imgObject': {}, 'id': 'fruitsalad', 'src': '/static/foodstim60/fruitsalad.jpg', 'key': 'i', 'origWidth': 410, 'origHeight': 410, 'width': 410, 'height': 410, 'widthPercent': 0.45, 'rescaleHeight': False, 'trialN': 31, 'loaded': True, 'loadedTime': 9525.09999999404, 'positionName': 'RIGHT', 'positionCoords': [679.12, 117], 'bid': 2.33}]",66011.39999999106,1669830658393,salmon,fruitsalad,3.97,2.33,-1.6400000000000001,salmon,1349.2000000029802,1350,1349.6000000089407,True,u,67861.39999999106,1850.0,1669830660243,1850,HRV,HRV_0025,2022-11-30 17:54:38
32,"[{'imgObject': {}, 'id': 'roastedpotatoes', 'src': '/static/foodstim60/roastedpotatoes.jpg', 'key': 'u', 'origWidth': 409, 'origHeight': 410, 'width': 409, 'height': 410, 'widthPercent': 0.45, 'rescaleHeight': False, 'trialN': 32, 'loaded': True, 'loadedTime': 9563.59999999404, 'positionName': 'LEFT', 'positionCoords': [217.88, 117], 'bid': 2.74}, {'imgObject': {}, 'id': 'popsicles', 'src': '/static/foodstim60/popsicles.jpg', 'key': 'i', 'origWidth': 410, 'origHeight': 410, 'width': 410, 'height': 410, 'widthPercent': 0.45, 'rescaleHeight': False, 'trialN': 32, 'loaded': True, 'loadedTime': 9534.699999988079, 'positionName': 'RIGHT', 'positionCoords': [679.12, 117], 'bid': 5.98}]",67861.5,1669830660244,roastedpotatoes,popsicles,2.74,5.98,3.24,popsicles,766.1999999880791,766,766.6999999880791,True,i,69129.29999999702,1267.7999999970198,1669830661511,1267,HRV,HRV_0025,2022-11-30 17:54:38
33,"[{'imgObject': {}, 'id': 'banana', 'src': '/static/foodstim60/banana.jpg', 'key': 'u', 'origWidth': 410, 'origHeight': 410, 'width': 410, 'height': 410, 'widthPercent': 0.45, 'rescaleHeight': False, 'trialN': 33, 'loaded': True, 'loadedTime': 9564.5, 'positionName': 'LEFT', 'positionCoords': [216.88, 117], 'bid': 3.31}, {'imgObject': {}, 'id': 'luckycharms', 'src': '/static/foodstim60/luckycharms.jpg', 'key': 'i', 'origWidth': 410, 'origHeight': 409, 'width': 410, 'height': 409, 'widthPercent': 0.45, 'rescaleHeight': False, 'trialN': 33, 'loaded': True, 'loadedTime': 9542, 'positionName': 'RIGHT', 'positionCoords': [679.12, 117.5], 'bid': 4.9}]",69129.29999999702,1669830661511,banana,luckycharms,3.31,4.9,1.5900000000000003,luckycharms,904.5999999940395,905,905.0,True,i,70535.29999999702,1406.0,1669830662917,1406,HRV,HRV_0025,2022-11-30 17:54:38
34,"[{'imgObject': {}, 'id': 'steak', 'src': '/static/foodstim60/steak.jpg', 'key': 'u', 'origWidth': 410, 'origHeight': 410, 'width': 410, 'height': 410, 'widthPercent': 0.45, 'rescaleHeight': False, 'trialN': 34, 'loaded': True, 'loadedTime': 9503.199999988079, 'positionName': 'LEFT', 'positionCoords': [216.88, 117], 'bid': 1.92}, {'imgObject': {}, 'id': 'fried eggs', 'src': '/static/foodstim60/fried eggs.jpg', 'key': 'i', 'origWidth': 410, 'origHeight': 410, 'width': 410, 'height': 410, 'widthPercent': 0.45, 'rescaleHeight': False, 'trialN': 34, 'loaded': True, 'loadedTime': 9566.39999999106, 'positionName': 'RIGHT', 'positionCoords': [679.12, 117], 'bid': 2.97}]",70535.39999999106,1669830662917,steak,fried eggs,1.92,2.97,1.0500000000000003,fried eggs,2337.1000000089407,2338,2337.5,True,i,73374.19999998808,2838.7999999970198,1669830665756,2839,HRV,HRV_0025,2022-11-30 17:54:38
35,"[{'imgObject': {}, 'id': 'bagel and cc', 'src': '/static/foodstim60/bagel and cc.jpg', 'key': 'u', 'origWidth': 410, 'origHeight': 410, 'width': 410, 'height': 410, 'widthPercent': 0.45, 'rescaleHeight': False, 'trialN': 35, 'loaded': True, 'loadedTime': 9476.09999999404, 'positionName': 'LEFT', 'positionCoords': [216.88, 117], 'bid': 1.84}, {'imgObject': {}, 'id': 'Tribe humus pita', 'src': '/static/foodstim60/Tribe humus pita.jpg', 'key': 'i', 'origWidth': 411, 'origHeight': 411, 'width': 411, 'height': 411, 'widthPercent': 0.45, 'rescaleHeight': False, 'trialN': 35, 'loaded': True, 'loadedTime': 9567.39999999106, 'positionName': 'RIGHT', 'positionCoords': [679.12, 116.5], 'bid': 2.18}]",73374.29999999702,1669830665756,bagel and cc,Tribe humus pita,1.84,2.18,0.3400000000000001,bagel and cc,836.8999999910593,838,837.2999999970198,True,u,74712.09999999404,1337.7999999970198,1669830667094,1338,HRV,HRV_0025,2022-11-30 17:54:38
36,"[{'imgObject': {}, 'id': 'raisin bran w milk', 'src': '/static/foodstim60/raisin bran w milk.jpg', 'key': 'u', 'origWidth': 411, 'origHeight': 411, 'width': 411, 'height': 411, 'widthPercent': 0.45, 'rescaleHeight': False, 'trialN': 36, 'loaded': True, 'loadedTime': 9568.199999988079, 'positionName': 'LEFT', 'positionCoords': [215.88, 116.5], 'bid': 2.96}, {'imgObject': {}, 'id': 'mango', 'src': '/static/foodstim60/mango.jpg', 'key': 'i', 'origWidth': 411, 'origHeight': 411, 'width': 411, 'height': 411, 'widthPercent': 0.45, 'rescaleHeight': False, 'trialN': 36, 'loaded': True, 'loadedTime': 9551.39999999106, 'positionName': 'RIGHT', 'positionCoords': [679.12, 116.5], 'bid': 2.88}]",74712.29999999702,1669830667094,raisin bran w milk,mango,2.96,2.88,-0.08000000000000007,raisin bran w milk,1402.2999999970198,1403,1402.7000000029802,True,u,76616.0,1903.7000000029802,1669830668998,1904,HRV,HRV_0025,2022-11-30 17:54:38
37,"[{'imgObject': {}, 'id': 'blackbeanswithrice', 'src': '/static/foodstim60/blackbeanswithrice.jpg', 'key': 'u', 'origWidth': 410, 'origHeight': 410, 'width': 410, 'height': 410, 'widthPercent': 0.45, 'rescaleHeight': False, 'trialN': 37, 'loaded': True, 'loadedTime': 9554.89999999106, 'positionName': 'LEFT', 'positionCoords': [216.88, 117], 'bid': 4.69}, {'imgObject': {}, 'id': 'chicken nuggets2', 'src': '/static/foodstim60/chicken nuggets2.jpg', 'key': 'i', 'origWidth': 410, 'origHeight': 409, 'width': 410, 'height': 409, 'widthPercent': 0.45, 'rescaleHeight': False, 'trialN': 37, 'loaded': True, 'loadedTime': 9568.39999999106, 'positionName': 'RIGHT', 'positionCoords': [679.12, 117.5], 'bid': 7.66}]",76616.09999999404,1669830668998,blackbeanswithrice,chicken nuggets2,4.69,7.66,2.9699999999999998,chicken nuggets2,883.5999999940395,884,884.0999999940395,True,i,78000.89999999106,1384.7999999970198,1669830670383,1385,HRV,HRV_0025,2022-11-30 17:54:38
38,"[{'imgObject': {}, 'id': 'orange slices', 'src': '/static/foodstim60/orange slices.jpg', 'key': 'u', 'origWidth': 409, 'origHeight': 410, 'width': 409, 'height': 410, 'widthPercent': 0.45, 'rescaleHeight': False, 'trialN': 38, 'loaded': True, 'loadedTime': 9528.89999999106, 'positionName': 'LEFT', 'positionCoords': [217.88, 117], 'bid': 4.96}, {'imgObject': {}, 'id': 'granola w milk', 'src': '/static/foodstim60/granola w milk.jpg', 'key': 'i', 'origWidth': 410, 'origHeight': 410, 'width': 410, 'height': 410, 'widthPercent': 0.45, 'rescaleHeight': False, 'trialN': 38, 'loaded': True, 'loadedTime': 9569.89999999106, 'positionName': 'RIGHT', 'positionCoords': [679.12, 117], 'bid': 2.99}]",78001.0,1669830670383,orange slices,granola w milk,4.96,2.99,-1.9699999999999998,orange slices,1200.8999999910593,1201,1201.199999988079,True,u,79702.39999999106,1701.3999999910593,1669830672084,1701,HRV,HRV_0025,2022-11-30 17:54:38
39,"[{'imgObject': {}, 'id': 'hotdog w must', 'src': '/static/foodstim60/hotdog w must.jpg', 'key': 'u', 'origWidth': 409, 'origHeight': 409, 'width': 409, 'height': 409, 'widthPercent': 0.45, 'rescaleHeight': False, 'trialN': 39, 'loaded': True, 'loadedTime': 9571.79999999702, 'positionName': 'LEFT', 'positionCoords': [217.88, 117.5], 'bid': 3.36}, {'imgObject': {}, 'id': 'turkey sandwich', 'src': '/static/foodstim60/turkey sandwich.jpg', 'key': 'i', 'origWidth': 409, 'origHeight': 409, 'width': 409, 'height': 409, 'widthPercent': 0.45, 'rescaleHeight': False, 'trialN': 39, 'loaded': True, 'loadedTime': 9531.5, 'positionName': 'RIGHT', 'positionCoords': [679.12, 117.5], 'bid': 3.45}]",79702.5,1669830672085,hotdog w must,turkey sandwich,3.36,3.45,0.0900000000000003,hotdog w must,1033.5,1033,1033.8999999910593,True,u,81237.19999998808,1534.699999988079,1669830673619,1534,HRV,HRV_0025,2022-11-30 17:54:38
40,"[{'imgObject': {}, 'id': 'fruitsalad', 'src': '/static/foodstim60/fruitsalad.jpg', 'key': 'u', 'origWidth': 410, 'origHeight': 410, 'width': 410, 'height': 410, 'widthPercent': 0.45, 'rescaleHeight': False, 'trialN': 40, 'loaded': True, 'loadedTime': 9525.199999988079, 'positionName': 'LEFT', 'positionCoords': [216.88, 117], 'bid': 2.33}, {'imgObject': {}, 'id': 'sweetpotato', 'src': '/static/foodstim60/sweetpotato.jpg', 'key': 'i', 'origWidth': 410, 'origHeight': 410, 'width': 410, 'height': 410, 'widthPercent': 0.45, 'rescaleHeight': False, 'trialN': 40, 'loaded': True, 'loadedTime': 9539.59999999404, 'positionName': 'RIGHT', 'positionCoords': [679.12, 117], 'bid': 1.95}]",81237.29999999702,1669830673619,fruitsalad,sweetpotato,2.33,1.95,-0.3800000000000001,fruitsalad,1033,1034,1033.3999999910593,True,u,82771.59999999404,1534.2999999970198,1669830675154,1535,HRV,HRV_0025,2022-11-30 17:54:38
41,"[{'imgObject': {}, 'id': 'eggs', 'src': '/static/foodstim60/eggs.jpg', 'key': 'u', 'origWidth': 409, 'origHeight': 409, 'width': 409, 'height': 409, 'widthPercent': 0.45, 'rescaleHeight': False, 'trialN': 41, 'loaded': True, 'loadedTime': 9522.59999999404, 'positionName': 'LEFT', 'positionCoords': [217.88, 117.5], 'bid': 2.42}, {'imgObject': {}, 'id': 'ice cream sundae 002', 'src': '/static/foodstim60/ice cream sundae 002.jpg', 'key': 'i', 'origWidth': 409, 'origHeight': 409, 'width': 409, 'height': 409, 'widthPercent': 0.45, 'rescaleHeight': False, 'trialN': 41, 'loaded': True, 'loadedTime': 9506, 'positionName': 'RIGHT', 'positionCoords': [679.12, 117.5], 'bid': 1.76}]",82771.69999998808,1669830675154,eggs,ice cream sundae 002,2.42,1.76,-0.6599999999999999,eggs,1074.6000000089407,1075,1075.1000000089407,True,u,84347.19999998808,1575.5,1669830676729,1575,HRV,HRV_0025,2022-11-30 17:54:38
42,"[{'imgObject': {}, 'id': 'yogurt no spoon', 'src': '/static/foodstim60/yogurt no spoon.jpg', 'key': 'u', 'origWidth': 411, 'origHeight': 410, 'width': 411, 'height': 410, 'widthPercent': 0.45, 'rescaleHeight': False, 'trialN': 42, 'loaded': True, 'loadedTime': 9513.29999999702, 'positionName': 'LEFT', 'positionCoords': [215.88, 117], 'bid': 1.6}, {'imgObject': {}, 'id': 'omelette', 'src': '/static/foodstim60/omelette.jpg', 'key': 'i', 'origWidth': 410, 'origHeight': 409, 'width': 410, 'height': 409, 'widthPercent': 0.45, 'rescaleHeight': False, 'trialN': 42, 'loaded': True, 'loadedTime': 9499, 'positionName': 'RIGHT', 'positionCoords': [679.12, 117.5], 'bid': 2.85}]",84347.29999999702,1669830676729,yogurt no spoon,omelette,1.6,2.85,1.25,omelette,1094.3999999910593,1095,1094.7999999970198,True,i,85942.39999999106,1595.0999999940395,1669830678324,1595,HRV,HRV_0025,2022-11-30 17:54:38
43,"[{'imgObject': {}, 'id': 'yogurt no spoon', 'src': '/static/foodstim60/yogurt no spoon.jpg', 'key': 'u', 'origWidth': 411, 'origHeight': 410, 'width': 411, 'height': 410, 'widthPercent': 0.45, 'rescaleHeight': False, 'trialN': 43, 'loaded': True, 'loadedTime': 9513, 'positionName': 'LEFT', 'positionCoords': [215.88, 117], 'bid': 1.6}, {'imgObject': {}, 'id': 'fruitsalad', 'src': '/static/foodstim60/fruitsalad.jpg', 'key': 'i', 'origWidth': 410, 'origHeight': 410, 'width': 410, 'height': 410, 'widthPercent': 0.45, 'rescaleHeight': False, 'trialN': 43, 'loaded': True, 'loadedTime': 9524.29999999702, 'positionName': 'RIGHT', 'positionCoords': [679.12, 117], 'bid': 2.33}]",85942.59999999404,1669830678325,yogurt no spoon,fruitsalad,1.6,2.33,0.73,yogurt no spoon,838.5999999940395,839,838.9000000059605,True,u,87282.89999999106,1340.2999999970198,1669830679665,1340,HRV,HRV_0025,2022-11-30 17:54:38
44,"[{'imgObject': {}, 'id': 'cherry tomato', 'src': '/static/foodstim60/cherry tomato.jpg', 'key': 'u', 'origWidth': 410, 'origHeight': 410, 'width': 410, 'height': 410, 'widthPercent': 0.45, 'rescaleHeight': False, 'trialN': 44, 'loaded': True, 'loadedTime': 9572.699999988079, 'positionName': 'LEFT', 'positionCoords': [216.88, 117], 'bid': 2.12}, {'imgObject': {}, 'id': 'hotdog w must', 'src': '/static/foodstim60/hotdog w must.jpg', 'key': 'i', 'origWidth': 409, 'origHeight': 409, 'width': 409, 'height': 409, 'widthPercent': 0.45, 'rescaleHeight': False, 'trialN': 44, 'loaded': True, 'loadedTime': 9572, 'positionName': 'RIGHT', 'positionCoords': [679.12, 117.5], 'bid': 3.36}]",87283.0,1669830679665,cherry tomato,hotdog w must,2.12,3.36,1.2399999999999998,cherry tomato,803.7999999970198,804,804.1999999880791,True,u,88588.19999998808,1305.199999988079,1669830680970,1305,HRV,HRV_0025,2022-11-30 17:54:38
45,"[{'imgObject': {}, 'id': 'froot loops w milk', 'src': '/static/foodstim60/froot loops w milk.jpg', 'key': 'u', 'origWidth': 410, 'origHeight': 410, 'width': 410, 'height': 410, 'widthPercent': 0.45, 'rescaleHeight': False, 'trialN': 45, 'loaded': True, 'loadedTime': 9573.29999999702, 'positionName': 'LEFT', 'positionCoords': [216.88, 117], 'bid': 7.41}, {'imgObject': {}, 'id': 'avocado', 'src': '/static/foodstim60/avocado.jpg', 'key': 'i', 'origWidth': 409, 'origHeight': 409, 'width': 409, 'height': 409, 'widthPercent': 0.45, 'rescaleHeight': False, 'trialN': 45, 'loaded': True, 'loadedTime': 9574, 'positionName': 'RIGHT', 'positionCoords': [679.12, 117.5], 'bid': 3.26}]",88588.29999999702,1669830680970,froot loops w milk,avocado,7.41,3.26,-4.15,froot loops w milk,871.7000000029802,873,872.2000000029802,True,u,89961.29999999702,1373.0,1669830682343,1373,HRV,HRV_0025,2022-11-30 17:54:38
46,"[{'imgObject': {}, 'id': 'bagel and cc', 'src': '/static/foodstim60/bagel and cc.jpg', 'key': 'u', 'origWidth': 410, 'origHeight': 410, 'width': 410, 'height': 410, 'widthPercent': 0.45, 'rescaleHeight': False, 'trialN': 46, 'loaded': True, 'loadedTime': 9478.5, 'positionName': 'LEFT', 'positionCoords': [216.88, 117], 'bid': 1.84}, {'imgObject': {}, 'id': 'kiwi', 'src': '/static/foodstim60/kiwi.jpg', 'key': 'i', 'origWidth': 410, 'origHeight': 410, 'width': 410, 'height': 410, 'widthPercent': 0.45, 'rescaleHeight': False, 'trialN': 46, 'loaded': True, 'loadedTime': 9559.39999999106, 'positionName': 'RIGHT', 'positionCoords': [679.12, 117], 'bid': 2.02}]",89961.39999999106,1669830682343,bagel and cc,kiwi,1.84,2.02,0.17999999999999994,bagel and cc,723.6000000089407,725,724.1000000089407,True,u,91186.19999998808,1224.7999999970198,1669830683568,1225,HRV,HRV_0025,2022-11-30 17:54:38
47,"[{'imgObject': {}, 'id': 'luckycharms', 'src': '/static/foodstim60/luckycharms.jpg', 'key': 'u', 'origWidth': 410, 'origHeight': 409, 'width': 410, 'height': 409, 'widthPercent': 0.45, 'rescaleHeight': False, 'trialN': 47, 'loaded': True, 'loadedTime': 9542.29999999702, 'positionName': 'LEFT', 'positionCoords': [216.88, 117.5], 'bid': 4.9}, {'imgObject': {}, 'id': 'raspberries', 'src': '/static/foodstim60/raspberries.jpg', 'key': 'i', 'origWidth': 411, 'origHeight': 411, 'width': 411, 'height': 411, 'widthPercent': 0.45, 'rescaleHeight': False, 'trialN': 47, 'loaded': True, 'loadedTime': 9555.5, 'positionName': 'RIGHT', 'positionCoords': [679.12, 116.5], 'bid': 2.54}]",91186.29999999702,1669830683568,luckycharms,raspberries,4.9,2.54,-2.3600000000000003,luckycharms,784.8999999910593,786,785.5,True,u,92473.39999999106,1287.0999999940395,1669830684855,1287,HRV,HRV_0025,2022-11-30 17:54:38
48,"[{'imgObject': {}, 'id': 'veggieswithdip', 'src': '/static/foodstim60/veggieswithdip.jpg', 'key': 'u', 'origWidth': 409, 'origHeight': 409, 'width': 409, 'height': 409, 'widthPercent': 0.45, 'rescaleHeight': False, 'trialN': 48, 'loaded': True, 'loadedTime': 9562.89999999106, 'positionName': 'LEFT', 'positionCoords': [217.88, 117.5], 'bid': 1.53}, {'imgObject': {}, 'id': 'cocktailshrimp', 'src': '/static/foodstim60/cocktailshrimp.jpg', 'key': 'i', 'origWidth': 410, 'origHeight': 410, 'width': 410, 'height': 410, 'widthPercent': 0.45, 'rescaleHeight': False, 'trialN': 48, 'loaded': True, 'loadedTime': 9559.29999999702, 'positionName': 'RIGHT', 'positionCoords': [679.12, 117], 'bid': 2.84}]",92473.5,1669830684856,veggieswithdip,cocktailshrimp,1.53,2.84,1.3099999999999998,cocktailshrimp,884,884,884.3999999910593,True,i,93858.29999999702,1384.7999999970198,1669830686240,1384,HRV,HRV_0025,2022-11-30 17:54:38
49,"[{'imgObject': {}, 'id': 'raspberries', 'src': '/static/foodstim60/raspberries.jpg', 'key': 'u', 'origWidth': 411, 'origHeight': 411, 'width': 411, 'height': 411, 'widthPercent': 0.45, 'rescaleHeight': False, 'trialN': 49, 'loaded': True, 'loadedTime': 9555.5, 'positionName': 'LEFT', 'positionCoords': [215.88, 116.5], 'bid': 2.54}, {'imgObject': {}, 'id': 'omelette', 'src': '/static/foodstim60/omelette.jpg', 'key': 'i', 'origWidth': 410, 'origHeight': 409, 'width': 410, 'height': 409, 'widthPercent': 0.45, 'rescaleHeight': False, 'trialN': 49, 'loaded': True, 'loadedTime': 9499.29999999702, 'positionName': 'RIGHT', 'positionCoords': [679.12, 117.5], 'bid': 2.85}]",93858.5,1669830686241,raspberries,omelette,2.54,2.85,0.31000000000000005,raspberries,846.8999999910593,847,847.2999999970198,True,u,95206.5,1348.0,1669830687589,1348,HRV,HRV_0025,2022-11-30 17:54:38
50,"[{'imgObject': {}, 'id': 'blackbeanswithrice', 'src': '/static/foodstim60/blackbeanswithrice.jpg', 'key': 'u', 'origWidth': 410, 'origHeight': 410, 'width': 410, 'height': 410, 'widthPercent': 0.45, 'rescaleHeight': False, 'trialN': 50, 'loaded': True, 'loadedTime': 9554.09999999404, 'positionName': 'LEFT', 'positionCoords': [216.88, 117], 'bid': 4.69}, {'imgObject': {}, 'id': 'avocado', 'src': '/static/foodstim60/avocado.jpg', 'key': 'i', 'origWidth': 409, 'origHeight': 409, 'width': 409, 'height': 409, 'widthPercent': 0.45, 'rescaleHeight': False, 'trialN': 50, 'loaded': True, 'loadedTime': 9573.59999999404, 'positionName': 'RIGHT', 'positionCoords': [679.12, 117.5], 'bid': 3.26}]",95206.69999998808,1669830687589,blackbeanswithrice,avocado,4.69,3.26,-1.4300000000000006,blackbeanswithrice,916,916,916.5,True,u,96624.5,1417.800000011921,1669830689007,1418,HRV,HRV_0025,2022-11-30 17:54:38
51,"[{'imgObject': {}, 'id': 'popsicles', 'src': '/static/foodstim60/popsicles.jpg', 'key': 'u', 'origWidth': 410, 'origHeight': 410, 'width': 410, 'height': 410, 'widthPercent': 0.45, 'rescaleHeight': False, 'trialN': 51, 'loaded': True, 'loadedTime': 9535.39999999106, 'positionName': 'LEFT', 'positionCoords': [216.88, 117], 'bid': 5.98}, {'imgObject': {}, 'id': 'grilled chicken strips', 'src': '/static/foodstim60/grilled chicken strips.jpg', 'key': 'i', 'origWidth': 410, 'origHeight': 411, 'width': 410, 'height': 411, 'widthPercent': 0.45, 'rescaleHeight': False, 'trialN': 51, 'loaded': True, 'loadedTime': 9538.09999999404, 'positionName': 'RIGHT', 'positionCoords': [679.12, 116.5], 'bid': 3.6}]",96624.59999999404,1669830689007,popsicles,grilled chicken strips,5.98,3.6,-2.3800000000000003,popsicles,740.2000000029802,740,740.7999999970198,True,u,97866.59999999404,1242.0,1669830690249,1242,HRV,HRV_0025,2022-11-30 17:54:38
52,"[{'imgObject': {}, 'id': 'rigatoni', 'src': '/static/foodstim60/rigatoni.jpg', 'key': 'u', 'origWidth': 411, 'origHeight': 411, 'width': 411, 'height': 411, 'widthPercent': 0.45, 'rescaleHeight': False, 'trialN': 52, 'loaded': True, 'loadedTime': 9496.29999999702, 'positionName': 'LEFT', 'positionCoords': [215.88, 116.5], 'bid': 4.98}, {'imgObject': {}, 'id': 'salad w chicken', 'src': '/static/foodstim60/salad w chicken.jpg', 'key': 'i', 'origWidth': 411, 'origHeight': 411, 'width': 411, 'height': 411, 'widthPercent': 0.45, 'rescaleHeight': False, 'trialN': 52, 'loaded': True, 'loadedTime': 9521.79999999702, 'positionName': 'RIGHT', 'positionCoords': [679.12, 116.5], 'bid': 2.71}]",97866.69999998808,1669830690249,rigatoni,salad w chicken,4.98,2.71,-2.2700000000000005,rigatoni,655.3000000119209,656,656.1000000089407,True,u,99023.59999999404,1156.9000000059605,1669830691406,1157,HRV,HRV_0025,2022-11-30 17:54:38
53,"[{'imgObject': {}, 'id': 'omelette', 'src': '/static/foodstim60/omelette.jpg', 'key': 'u', 'origWidth': 410, 'origHeight': 409, 'width': 410, 'height': 409, 'widthPercent': 0.45, 'rescaleHeight': False, 'trialN': 53, 'loaded': True, 'loadedTime': 9496.699999988079, 'positionName': 'LEFT', 'positionCoords': [216.88, 117.5], 'bid': 2.85}, {'imgObject': {}, 'id': 'salmon', 'src': '/static/foodstim60/salmon.jpg', 'key': 'i', 'origWidth': 410, 'origHeight': 409, 'width': 410, 'height': 409, 'widthPercent': 0.45, 'rescaleHeight': False, 'trialN': 53, 'loaded': True, 'loadedTime': 9549.59999999404, 'positionName': 'RIGHT', 'positionCoords': [679.12, 117.5], 'bid': 3.97}]",99023.69999998808,1669830691406,omelette,salmon,2.85,3.97,1.12,omelette,779.2000000029802,779,779.6000000089407,True,u,100304.29999999702,1280.6000000089407,1669830692686,1280,HRV,HRV_0025,2022-11-30 17:54:38
54,"[{'imgObject': {}, 'id': 'Tribe humus pita', 'src': '/static/foodstim60/Tribe humus pita.jpg', 'key': 'u', 'origWidth': 411, 'origHeight': 411, 'width': 411, 'height': 411, 'widthPercent': 0.45, 'rescaleHeight': False, 'trialN': 54, 'loaded': True, 'loadedTime': 9566.699999988079, 'positionName': 'LEFT', 'positionCoords': [215.88, 116.5], 'bid': 2.18}, {'imgObject': {}, 'id': 'cherry tomato', 'src': '/static/foodstim60/cherry tomato.jpg', 'key': 'i', 'origWidth': 410, 'origHeight': 410, 'width': 410, 'height': 410, 'widthPercent': 0.45, 'rescaleHeight': False, 'trialN': 54, 'loaded': True, 'loadedTime': 9572.09999999404, 'positionName': 'RIGHT', 'positionCoords': [679.12, 117], 'bid': 2.12}]",100304.5,1669830692687,Tribe humus pita,cherry tomato,2.18,2.12,-0.06000000000000005,cherry tomato,821.6999999880791,822,822.0,True,i,101627.0,1322.5,1669830694009,1322,HRV,HRV_0025,2022-11-30 17:54:38
55,"[{'imgObject': {}, 'id': 'bagel and cc', 'src': '/static/foodstim60/bagel and cc.jpg', 'key': 'u', 'origWidth': 410, 'origHeight': 410, 'width': 410, 'height': 410, 'widthPercent': 0.45, 'rescaleHeight': False, 'trialN': 55, 'loaded': True, 'loadedTime': 9478.59999999404, 'positionName': 'LEFT', 'positionCoords': [216.88, 117], 'bid': 1.84}, {'imgObject': {}, 'id': 'sweetpotato', 'src': '/static/foodstim60/sweetpotato.jpg', 'key': 'i', 'origWidth': 410, 'origHeight': 410, 'width': 410, 'height': 410, 'widthPercent': 0.45, 'rescaleHeight': False, 'trialN': 55, 'loaded': True, 'loadedTime': 9539.39999999106, 'positionName': 'RIGHT', 'positionCoords': [679.12, 117], 'bid': 1.95}]",101627.09999999404,1669830694009,bagel and cc,sweetpotato,1.84,1.95,0.10999999999999988,bagel and cc,582.5999999940395,583,583.0,True,u,102711.39999999106,1084.2999999970198,1669830695093,1084,HRV,HRV_0025,2022-11-30 17:54:38
56,"[{'imgObject': {}, 'id': 'fried eggs', 'src': '/static/foodstim60/fried eggs.jpg', 'key': 'u', 'origWidth': 410, 'origHeight': 410, 'width': 410, 'height': 410, 'widthPercent': 0.45, 'rescaleHeight': False, 'trialN': 56, 'loaded': True, 'loadedTime': 9566.29999999702, 'positionName': 'LEFT', 'positionCoords': [216.88, 117], 'bid': 2.97}, {'imgObject': {}, 'id': 'turkeysandwich', 'src': '/static/foodstim60/turkeysandwich.jpg', 'key': 'i', 'origWidth': 409, 'origHeight': 409, 'width': 409, 'height': 409, 'widthPercent': 0.45, 'rescaleHeight': False, 'trialN': 56, 'loaded': True, 'loadedTime': 9518.39999999106, 'positionName': 'RIGHT', 'positionCoords': [679.12, 117.5], 'bid': 2.94}]",102711.5,1669830695094,fried eggs,turkeysandwich,2.97,2.94,-0.03000000000000025,turkeysandwich,1060,1060,1060.3999999910593,True,i,104272.79999999702,1561.2999999970198,1669830696655,1561,HRV,HRV_0025,2022-11-30 17:54:38
57,"[{'imgObject': {}, 'id': 'cherries', 'src': '/static/foodstim60/cherries.jpg', 'key': 'u', 'origWidth': 410, 'origHeight': 411, 'width': 410, 'height': 411, 'widthPercent': 0.45, 'rescaleHeight': False, 'trialN': 57, 'loaded': True, 'loadedTime': 9475, 'positionName': 'LEFT', 'positionCoords': [216.88, 116.5], 'bid': 2.76}, {'imgObject': {}, 'id': 'apple slices', 'src': '/static/foodstim60/apple slices.jpg', 'key': 'i', 'origWidth': 409, 'origHeight': 410, 'width': 409, 'height': 410, 'widthPercent': 0.45, 'rescaleHeight': False, 'trialN': 57, 'loaded': True, 'loadedTime': 9505.09999999404, 'positionName': 'RIGHT', 'positionCoords': [679.12, 117], 'bid': 2.04}]",104272.89999999106,1669830696655,cherries,apple slices,2.76,2.04,-0.7199999999999998,cherries,732.6000000089407,733,733.0,True,u,105506.79999999702,1233.9000000059605,1669830697889,1234,HRV,HRV_0025,2022-11-30 17:54:38
58,"[{'imgObject': {}, 'id': 'rigatoni and sauce', 'src': '/static/foodstim60/rigatoni and sauce.jpg', 'key': 'u', 'origWidth': 410, 'origHeight': 411, 'width': 410, 'height': 411, 'widthPercent': 0.45, 'rescaleHeight': False, 'trialN': 58, 'loaded': True, 'loadedTime': 9546.699999988079, 'positionName': 'LEFT', 'positionCoords': [216.88, 116.5], 'bid': 4.01}, {'imgObject': {}, 'id': 'mac & cheese', 'src': '/static/foodstim60/mac & cheese.jpg', 'key': 'i', 'origWidth': 410, 'origHeight': 410, 'width': 410, 'height': 410, 'widthPercent': 0.45, 'rescaleHeight': False, 'trialN': 58, 'loaded': True, 'loadedTime': 9575, 'positionName': 'RIGHT', 'positionCoords': [679.12, 117], 'bid': 8}]",105507.0,1669830697889,rigatoni and sauce,mac & cheese,4.01,8.0,3.99,mac & cheese,1138.699999988079,1139,1139.199999988079,True,i,107146.39999999106,1639.3999999910593,1669830699528,1639,HRV,HRV_0025,2022-11-30 17:54:38
59,"[{'imgObject': {}, 'id': 'mashed potato', 'src': '/static/foodstim60/mashed potato.jpg', 'key': 'u', 'origWidth': 409, 'origHeight': 409, 'width': 409, 'height': 409, 'widthPercent': 0.45, 'rescaleHeight': False, 'trialN': 59, 'loaded': True, 'loadedTime': 9575.59999999404, 'positionName': 'LEFT', 'positionCoords': [217.88, 117.5], 'bid': 2.79}, {'imgObject': {}, 'id': 'cantaloupe', 'src': '/static/foodstim60/cantaloupe.jpg', 'key': 'i', 'origWidth': 409, 'origHeight': 409, 'width': 409, 'height': 409, 'widthPercent': 0.45, 'rescaleHeight': False, 'trialN': 59, 'loaded': True, 'loadedTime': 9492.699999988079, 'positionName': 'RIGHT', 'positionCoords': [679.12, 117.5], 'bid': 3.1}]",107146.39999999106,1669830699529,mashed potato,cantaloupe,2.79,3.1,0.31000000000000005,mashed potato,1162.5,1162,1162.9000000059605,True,u,108810.09999999404,1663.7000000029802,1669830701192,1663,HRV,HRV_0025,2022-11-30 17:54:38
60,"[{'imgObject': {}, 'id': 'fried eggs', 'src': '/static/foodstim60/fried eggs.jpg', 'key': 'u', 'origWidth': 410, 'origHeight': 410, 'width': 410, 'height': 410, 'widthPercent': 0.45, 'rescaleHeight': False, 'trialN': 60, 'loaded': True, 'loadedTime': 9566.59999999404, 'positionName': 'LEFT', 'positionCoords': [216.88, 117], 'bid': 2.97}, {'imgObject': {}, 'id': 'raisin bran w milk', 'src': '/static/foodstim60/raisin bran w milk.jpg', 'key': 'i', 'origWidth': 411, 'origHeight': 411, 'width': 411, 'height': 411, 'widthPercent': 0.45, 'rescaleHeight': False, 'trialN': 60, 'loaded': True, 'loadedTime': 9568.199999988079, 'positionName': 'RIGHT', 'positionCoords': [679.12, 116.5], 'bid': 2.96}]",108810.19999998808,1669830701192,fried eggs,raisin bran w milk,2.97,2.96,-0.010000000000000231,fried eggs,1215.9000000059605,1217,1216.4000000059605,True,u,110527.59999999404,1717.4000000059605,1669830702910,1718,HRV,HRV_0025,2022-11-30 17:54:38
61,"[{'imgObject': {}, 'id': 'seaweed', 'src': '/static/foodstim60/seaweed.jpg', 'key': 'u', 'origWidth': 410, 'origHeight': 410, 'width': 410, 'height': 410, 'widthPercent': 0.45, 'rescaleHeight': False, 'trialN': 61, 'loaded': True, 'loadedTime': 9576.79999999702, 'positionName': 'LEFT', 'positionCoords': [216.88, 117], 'bid': 1.99}, {'imgObject': {}, 'id': 'Grapes', 'src': '/static/foodstim60/Grapes.jpg', 'key': 'i', 'origWidth': 411, 'origHeight': 411, 'width': 411, 'height': 411, 'widthPercent': 0.45, 'rescaleHeight': False, 'trialN': 61, 'loaded': True, 'loadedTime': 9487.09999999404, 'positionName': 'RIGHT', 'positionCoords': [679.12, 116.5], 'bid': 3.11}]",110527.69999998808,1669830702910,seaweed,Grapes,1.99,3.11,1.1199999999999999,Grapes,2127.6000000089407,2128,2128.1000000089407,True,i,113156.0,2628.300000011921,1669830705538,2628,HRV,HRV_0025,2022-11-30 17:54:38
62,"[{'imgObject': {}, 'id': 'cantaloupe', 'src': '/static/foodstim60/cantaloupe.jpg', 'key': 'u', 'origWidth': 409, 'origHeight': 409, 'width': 409, 'height': 409, 'widthPercent': 0.45, 'rescaleHeight': False, 'trialN': 62, 'loaded': True, 'loadedTime': 9493.09999999404, 'positionName': 'LEFT', 'positionCoords': [217.88, 117.5], 'bid': 3.1}, {'imgObject': {}, 'id': 'burrito', 'src': '/static/foodstim60/burrito.jpg', 'key': 'i', 'origWidth': 410, 'origHeight': 410, 'width': 410, 'height': 410, 'widthPercent': 0.45, 'rescaleHeight': False, 'trialN': 62, 'loaded': True, 'loadedTime': 9576.89999999106, 'positionName': 'RIGHT', 'positionCoords': [679.12, 117], 'bid': 1.98}]",113156.19999998808,1669830705538,cantaloupe,burrito,3.1,1.98,-1.12,cantaloupe,1606.4000000059605,1608,1606.9000000059605,True,u,115264.0,2107.800000011921,1669830707647,2109,HRV,HRV_0025,2022-11-30 17:54:38
63,"[{'imgObject': {}, 'id': 'raisin bran w milk', 'src': '/static/foodstim60/raisin bran w milk.jpg', 'key': 'u', 'origWidth': 411, 'origHeight': 411, 'width': 411, 'height': 411, 'widthPercent': 0.45, 'rescaleHeight': False, 'trialN': 63, 'loaded': True, 'loadedTime': 9568, 'positionName': 'LEFT', 'positionCoords': [215.88, 116.5], 'bid': 2.96}, {'imgObject': {}, 'id': 'bagel and cc', 'src': '/static/foodstim60/bagel and cc.jpg', 'key': 'i', 'origWidth': 410, 'origHeight': 410, 'width': 410, 'height': 410, 'widthPercent': 0.45, 'rescaleHeight': False, 'trialN': 63, 'loaded': True, 'loadedTime': 9476.29999999702, 'positionName': 'RIGHT', 'positionCoords': [679.12, 117], 'bid': 1.84}]",115264.09999999404,1669830707647,raisin bran w milk,bagel and cc,2.96,1.84,-1.1199999999999999,bagel and cc,840.7000000029802,841,841.0,True,i,116606.0,1341.9000000059605,1669830708989,1342,HRV,HRV_0025,2022-11-30 17:54:38
64,"[{'imgObject': {}, 'id': 'corn cob', 'src': '/static/foodstim60/corn cob.jpg', 'key': 'u', 'origWidth': 411, 'origHeight': 411, 'width': 411, 'height': 411, 'widthPercent': 0.45, 'rescaleHeight': False, 'trialN': 64, 'loaded': True, 'loadedTime': 9552, 'positionName': 'LEFT', 'positionCoords': [215.88, 116.5], 'bid': 8.92}, {'imgObject': {}, 'id': 'tacos', 'src': '/static/foodstim60/tacos.jpg', 'key': 'i', 'origWidth': 411, 'origHeight': 411, 'width': 411, 'height': 411, 'widthPercent': 0.45, 'rescaleHeight': False, 'trialN': 64, 'loaded': True, 'loadedTime': 9542.5, 'positionName': 'RIGHT', 'positionCoords': [679.12, 116.5], 'bid': 4.34}]",116606.19999998808,1669830708989,corn cob,tacos,8.92,4.34,-4.58,corn cob,780.8000000119209,781,781.2000000029802,True,u,117888.09999999404,1281.9000000059605,1669830710271,1282,HRV,HRV_0025,2022-11-30 17:54:38
65,"[{'imgObject': {}, 'id': 'granola w milk', 'src': '/static/foodstim60/granola w milk.jpg', 'key': 'u', 'origWidth': 410, 'origHeight': 410, 'width': 410, 'height': 410, 'widthPercent': 0.45, 'rescaleHeight': False, 'trialN': 65, 'loaded': True, 'loadedTime': 9569.29999999702, 'positionName': 'LEFT', 'positionCoords': [216.88, 117], 'bid': 2.99}, {'imgObject': {}, 'id': 'bagel plain', 'src': '/static/foodstim60/bagel plain.jpg', 'key': 'i', 'origWidth': 410, 'origHeight': 410, 'width': 410, 'height': 410, 'widthPercent': 0.45, 'rescaleHeight': False, 'trialN': 65, 'loaded': True, 'loadedTime': 9534.199999988079, 'positionName': 'RIGHT', 'positionCoords': [679.12, 117], 'bid': 2.99}]",117888.09999999404,1669830710271,granola w milk,bagel plain,2.99,2.99,0.0,bagel plain,1076.9000000059605,1077,1077.2999999970198,True,i,119466.5,1578.4000000059605,1669830711849,1578,HRV,HRV_0025,2022-11-30 17:54:38
66,"[{'imgObject': {}, 'id': 'orange slices', 'src': '/static/foodstim60/orange slices.jpg', 'key': 'u', 'origWidth': 409, 'origHeight': 410, 'width': 409, 'height': 410, 'widthPercent': 0.45, 'rescaleHeight': False, 'trialN': 66, 'loaded': True, 'loadedTime': 9527.89999999106, 'positionName': 'LEFT', 'positionCoords': [217.88, 117], 'bid': 4.96}, {'imgObject': {}, 'id': 'rigatoni', 'src': '/static/foodstim60/rigatoni.jpg', 'key': 'i', 'origWidth': 411, 'origHeight': 411, 'width': 411, 'height': 411, 'widthPercent': 0.45, 'rescaleHeight': False, 'trialN': 66, 'loaded': True, 'loadedTime': 9494.39999999106, 'positionName': 'RIGHT', 'positionCoords': [679.12, 116.5], 'bid': 4.98}]",119466.59999999404,1669830711849,orange slices,rigatoni,4.96,4.98,0.020000000000000462,orange slices,700.4000000059605,701,700.7999999970198,True,u,120667.59999999404,1201.0,1669830713050,1201,HRV,HRV_0025,2022-11-30 17:54:38
67,"[{'imgObject': {}, 'id': 'strawberries', 'src': '/static/foodstim60/strawberries.jpg', 'key': 'u', 'origWidth': 410, 'origHeight': 410, 'width': 410, 'height': 410, 'widthPercent': 0.45, 'rescaleHeight': False, 'trialN': 67, 'loaded': True, 'loadedTime': 9539, 'positionName': 'LEFT', 'positionCoords': [216.88, 117], 'bid': 1.98}, {'imgObject': {}, 'id': 'olives', 'src': '/static/foodstim60/olives.jpg', 'key': 'i', 'origWidth': 410, 'origHeight': 410, 'width': 410, 'height': 410, 'widthPercent': 0.45, 'rescaleHeight': False, 'trialN': 67, 'loaded': True, 'loadedTime': 9525.29999999702, 'positionName': 'RIGHT', 'positionCoords': [679.12, 117], 'bid': 2.64}]",120667.69999998808,1669830713050,strawberries,olives,1.98,2.64,0.6600000000000001,strawberries,886.5,887,887.0,True,u,122055.89999999106,1388.2000000029802,1669830714438,1388,HRV,HRV_0025,2022-11-30 17:54:38
68,"[{'imgObject': {}, 'id': 'chickenfingers', 'src': '/static/foodstim60/chickenfingers.jpg', 'key': 'u', 'origWidth': 410, 'origHeight': 410, 'width': 410, 'height': 410, 'widthPercent': 0.45, 'rescaleHeight': False, 'trialN': 68, 'loaded': True, 'loadedTime': 9550.39999999106, 'positionName': 'LEFT', 'positionCoords': [216.88, 117], 'bid': 2.16}, {'imgObject': {}, 'id': 'cherry tomato', 'src': '/static/foodstim60/cherry tomato.jpg', 'key': 'i', 'origWidth': 410, 'origHeight': 410, 'width': 410, 'height': 410, 'widthPercent': 0.45, 'rescaleHeight': False, 'trialN': 68, 'loaded': True, 'loadedTime': 9572.79999999702, 'positionName': 'RIGHT', 'positionCoords': [679.12, 117], 'bid': 2.12}]",122056.09999999404,1669830714439,chickenfingers,cherry tomato,2.16,2.12,-0.040000000000000036,cherry tomato,1004.2000000029802,1004,1004.7000000029802,True,i,123561.79999999702,1505.7000000029802,1669830715944,1505,HRV,HRV_0025,2022-11-30 17:54:38
69,"[{'imgObject': {}, 'id': 'salad w chicken', 'src': '/static/foodstim60/salad w chicken.jpg', 'key': 'u', 'origWidth': 411, 'origHeight': 411, 'width': 411, 'height': 411, 'widthPercent': 0.45, 'rescaleHeight': False, 'trialN': 69, 'loaded': True, 'loadedTime': 9521.79999999702, 'positionName': 'LEFT', 'positionCoords': [215.88, 116.5], 'bid': 2.71}, {'imgObject': {}, 'id': 'hashbrowns', 'src': '/static/foodstim60/hashbrowns.jpg', 'key': 'i', 'origWidth': 411, 'origHeight': 410, 'width': 411, 'height': 410, 'widthPercent': 0.45, 'rescaleHeight': False, 'trialN': 69, 'loaded': True, 'loadedTime': 9487.89999999106, 'positionName': 'RIGHT', 'positionCoords': [679.12, 117], 'bid': 2.35}]",123561.79999999702,1669830715944,salad w chicken,hashbrowns,2.71,2.35,-0.3599999999999999,hashbrowns,1046.8999999910593,1048,1047.2999999970198,True,i,125110.0,1548.2000000029802,1669830717493,1549,HRV,HRV_0025,2022-11-30 17:54:38
70,"[{'imgObject': {}, 'id': 'popsicles', 'src': '/static/foodstim60/popsicles.jpg', 'key': 'u', 'origWidth': 410, 'origHeight': 410, 'width': 410, 'height': 410, 'widthPercent': 0.45, 'rescaleHeight': False, 'trialN': 70, 'loaded': True, 'loadedTime': 9535.29999999702, 'positionName': 'LEFT', 'positionCoords': [216.88, 117], 'bid': 5.98}, {'imgObject': {}, 'id': 'shreddedwheatwithmilk', 'src': '/static/foodstim60/shreddedwheatwithmilk.jpg', 'key': 'i', 'origWidth': 410, 'origHeight': 410, 'width': 410, 'height': 410, 'widthPercent': 0.45, 'rescaleHeight': False, 'trialN': 70, 'loaded': True, 'loadedTime': 9545.79999999702, 'positionName': 'RIGHT', 'positionCoords': [679.12, 117], 'bid': 4.2}]",125110.0,1669830717493,popsicles,shreddedwheatwithmilk,5.98,4.2,-1.7800000000000002,popsicles,1028.7999999970198,1029,1029.2999999970198,True,u,126640.79999999702,1530.7999999970198,1669830719023,1530,HRV,HRV_0025,2022-11-30 17:54:38
71,"[{'imgObject': {}, 'id': 'cherry tomato', 'src': '/static/foodstim60/cherry tomato.jpg', 'key': 'u', 'origWidth': 410, 'origHeight': 410, 'width': 410, 'height': 410, 'widthPercent': 0.45, 'rescaleHeight': False, 'trialN': 71, 'loaded': True, 'loadedTime': 9572.699999988079, 'positionName': 'LEFT', 'positionCoords': [216.88, 117], 'bid': 2.12}, {'imgObject': {}, 'id': 'lox', 'src': '/static/foodstim60/lox.jpg', 'key': 'i', 'origWidth': 410, 'origHeight': 411, 'width': 410, 'height': 411, 'widthPercent': 0.45, 'rescaleHeight': False, 'trialN': 71, 'loaded': True, 'loadedTime': 9470.89999999106, 'positionName': 'RIGHT', 'positionCoords': [679.12, 116.5], 'bid': 2.79}]",126640.89999999106,1669830719023,cherry tomato,lox,2.12,2.79,0.6699999999999999,cherry tomato,1059.1000000089407,1060,1059.5,True,u,128201.5,1560.6000000089407,1669830720584,1561,HRV,HRV_0025,2022-11-30 17:54:38
72,"[{'imgObject': {}, 'id': 'raspberries', 'src': '/static/foodstim60/raspberries.jpg', 'key': 'u', 'origWidth': 411, 'origHeight': 411, 'width': 411, 'height': 411, 'widthPercent': 0.45, 'rescaleHeight': False, 'trialN': 72, 'loaded': True, 'loadedTime': 9555.09999999404, 'positionName': 'LEFT', 'positionCoords': [215.88, 116.5], 'bid': 2.54}, {'imgObject': {}, 'id': 'sweetpotato', 'src': '/static/foodstim60/sweetpotato.jpg', 'key': 'i', 'origWidth': 410, 'origHeight': 410, 'width': 410, 'height': 410, 'widthPercent': 0.45, 'rescaleHeight': False, 'trialN': 72, 'loaded': True, 'loadedTime': 9539.699999988079, 'positionName': 'RIGHT', 'positionCoords': [679.12, 117], 'bid': 1.95}]",128201.5,1669830720584,raspberries,sweetpotato,2.54,1.95,-0.5900000000000001,raspberries,753.5,754,753.8999999910593,True,u,129456.69999998808,1255.199999988079,1669830721839,1255,HRV,HRV_0025,2022-11-30 17:54:38
73,"[{'imgObject': {}, 'id': 'corn cob', 'src': '/static/foodstim60/corn cob.jpg', 'key': 'u', 'origWidth': 411, 'origHeight': 411, 'width': 411, 'height': 411, 'widthPercent': 0.45, 'rescaleHeight': False, 'trialN': 73, 'loaded': True, 'loadedTime': 9553.89999999106, 'positionName': 'LEFT', 'positionCoords': [215.88, 116.5], 'bid': 8.92}, {'imgObject': {}, 'id': 'mac & cheese', 'src': '/static/foodstim60/mac & cheese.jpg', 'key': 'i', 'origWidth': 410, 'origHeight': 410, 'width': 410, 'height': 410, 'widthPercent': 0.45, 'rescaleHeight': False, 'trialN': 73, 'loaded': True, 'loadedTime': 9574.39999999106, 'positionName': 'RIGHT', 'positionCoords': [679.12, 117], 'bid': 8}]",129456.79999999702,1669830721839,corn cob,mac & cheese,8.92,8.0,-0.9199999999999999,corn cob,635.3999999910593,636,635.7999999970198,True,u,130593.59999999404,1136.7999999970198,1669830722976,1137,HRV,HRV_0025,2022-11-30 17:54:38
74,"[{'imgObject': {}, 'id': 'chickenfingers', 'src': '/static/foodstim60/chickenfingers.jpg', 'key': 'u', 'origWidth': 410, 'origHeight': 410, 'width': 410, 'height': 410, 'widthPercent': 0.45, 'rescaleHeight': False, 'trialN': 74, 'loaded': True, 'loadedTime': 9550.39999999106, 'positionName': 'LEFT', 'positionCoords': [216.88, 117], 'bid': 2.16}, {'imgObject': {}, 'id': 'turkey sandwich', 'src': '/static/foodstim60/turkey sandwich.jpg', 'key': 'i', 'origWidth': 409, 'origHeight': 409, 'width': 409, 'height': 409, 'widthPercent': 0.45, 'rescaleHeight': False, 'trialN': 74, 'loaded': True, 'loadedTime': 9532.199999988079, 'positionName': 'RIGHT', 'positionCoords': [679.12, 117.5], 'bid': 3.45}]",130593.79999999702,1669830722976,chickenfingers,turkey sandwich,2.16,3.45,1.29,turkey sandwich,1171.3999999910593,1172,1172.0,True,i,132266.79999999702,1673.0,1669830724649,1673,HRV,HRV_0025,2022-11-30 17:54:38
75,"[{'imgObject': {}, 'id': 'rigatoni and sauce', 'src': '/static/foodstim60/rigatoni and sauce.jpg', 'key': 'u', 'origWidth': 410, 'origHeight': 411, 'width': 410, 'height': 411, 'widthPercent': 0.45, 'rescaleHeight': False, 'trialN': 75, 'loaded': True, 'loadedTime': 9546.39999999106, 'positionName': 'LEFT', 'positionCoords': [216.88, 116.5], 'bid': 4.01}, {'imgObject': {}, 'id': 'hashbrowns', 'src': '/static/foodstim60/hashbrowns.jpg', 'key': 'i', 'origWidth': 411, 'origHeight': 410, 'width': 411, 'height': 410, 'widthPercent': 0.45, 'rescaleHeight': False, 'trialN': 75, 'loaded': True, 'loadedTime': 9489.59999999404, 'positionName': 'RIGHT', 'positionCoords': [679.12, 117], 'bid': 2.35}]",132266.89999999106,1669830724649,rigatoni and sauce,hashbrowns,4.01,2.35,-1.6599999999999997,rigatoni and sauce,1007.6000000089407,1009,1008.2000000029802,True,u,133776.59999999404,1509.7000000029802,1669830726159,1510,HRV,HRV_0025,2022-11-30 17:54:38
76,"[{'imgObject': {}, 'id': 'blueberries', 'src': '/static/foodstim60/blueberries.jpg', 'key': 'u', 'origWidth': 411, 'origHeight': 411, 'width': 411, 'height': 411, 'widthPercent': 0.45, 'rescaleHeight': False, 'trialN': 76, 'loaded': True, 'loadedTime': 9578.199999988079, 'positionName': 'LEFT', 'positionCoords': [215.88, 116.5], 'bid': 2.25}, {'imgObject': {}, 'id': 'veggieswithdip', 'src': '/static/foodstim60/veggieswithdip.jpg', 'key': 'i', 'origWidth': 409, 'origHeight': 409, 'width': 409, 'height': 409, 'widthPercent': 0.45, 'rescaleHeight': False, 'trialN': 76, 'loaded': True, 'loadedTime': 9562.5, 'positionName': 'RIGHT', 'positionCoords': [679.12, 117.5], 'bid': 1.53}]",133776.69999998808,1669830726159,blueberries,veggieswithdip,2.25,1.53,-0.72,blueberries,855.6000000089407,856,856.1000000089407,True,u,135133.19999998808,1356.5,1669830727516,1357,HRV,HRV_0025,2022-11-30 17:54:38
77,"[{'imgObject': {}, 'id': 'banana', 'src': '/static/foodstim60/banana.jpg', 'key': 'u', 'origWidth': 410, 'origHeight': 410, 'width': 410, 'height': 410, 'widthPercent': 0.45, 'rescaleHeight': False, 'trialN': 77, 'loaded': True, 'loadedTime': 9564.199999988079, 'positionName': 'LEFT', 'positionCoords': [216.88, 117], 'bid': 3.31}, {'imgObject': {}, 'id': 'turkey sandwich', 'src': '/static/foodstim60/turkey sandwich.jpg', 'key': 'i', 'origWidth': 409, 'origHeight': 409, 'width': 409, 'height': 409, 'widthPercent': 0.45, 'rescaleHeight': False, 'trialN': 77, 'loaded': True, 'loadedTime': 9532.29999999702, 'positionName': 'RIGHT', 'positionCoords': [679.12, 117.5], 'bid': 3.45}]",135133.29999999702,1669830727516,banana,turkey sandwich,3.31,3.45,0.14000000000000012,turkey sandwich,662.2999999970198,663,662.7999999970198,True,i,136297.09999999404,1163.7999999970198,1669830728680,1164,HRV,HRV_0025,2022-11-30 17:54:38
78,"[{'imgObject': {}, 'id': 'avocado', 'src': '/static/foodstim60/avocado.jpg', 'key': 'u', 'origWidth': 409, 'origHeight': 409, 'width': 409, 'height': 409, 'widthPercent': 0.45, 'rescaleHeight': False, 'trialN': 78, 'loaded': True, 'loadedTime': 9574.199999988079, 'positionName': 'LEFT', 'positionCoords': [217.88, 117.5], 'bid': 3.26}, {'imgObject': {}, 'id': 'salmon', 'src': '/static/foodstim60/salmon.jpg', 'key': 'i', 'origWidth': 410, 'origHeight': 409, 'width': 410, 'height': 409, 'widthPercent': 0.45, 'rescaleHeight': False, 'trialN': 78, 'loaded': True, 'loadedTime': 9549.29999999702, 'positionName': 'RIGHT', 'positionCoords': [679.12, 117.5], 'bid': 3.97}]",136297.19999998808,1669830728680,avocado,salmon,3.26,3.97,0.7100000000000004,salmon,1356.800000011921,1357,1357.2000000029802,True,i,138155.29999999702,1858.1000000089407,1669830730538,1858,HRV,HRV_0025,2022-11-30 17:54:38
79,"[{'imgObject': {}, 'id': 'olives', 'src': '/static/foodstim60/olives.jpg', 'key': 'u', 'origWidth': 410, 'origHeight': 410, 'width': 410, 'height': 410, 'widthPercent': 0.45, 'rescaleHeight': False, 'trialN': 79, 'loaded': True, 'loadedTime': 9526, 'positionName': 'LEFT', 'positionCoords': [216.88, 117], 'bid': 2.64}, {'imgObject': {}, 'id': 'mango', 'src': '/static/foodstim60/mango.jpg', 'key': 'i', 'origWidth': 411, 'origHeight': 411, 'width': 411, 'height': 411, 'widthPercent': 0.45, 'rescaleHeight': False, 'trialN': 79, 'loaded': True, 'loadedTime': 9550.699999988079, 'positionName': 'RIGHT', 'positionCoords': [679.12, 116.5], 'bid': 2.88}]",138155.29999999702,1669830730538,olives,mango,2.64,2.88,0.23999999999999977,olives,847.7999999970198,848,848.2000000029802,True,u,139504.59999999404,1349.2999999970198,1669830731887,1349,HRV,HRV_0025,2022-11-30 17:54:38
80,"[{'imgObject': {}, 'id': 'sweetpotato', 'src': '/static/foodstim60/sweetpotato.jpg', 'key': 'u', 'origWidth': 410, 'origHeight': 410, 'width': 410, 'height': 410, 'widthPercent': 0.45, 'rescaleHeight': False, 'trialN': 80, 'loaded': True, 'loadedTime': 9541.29999999702, 'positionName': 'LEFT', 'positionCoords': [216.88, 117], 'bid': 1.95}, {'imgObject': {}, 'id': 'bagel plain', 'src': '/static/foodstim60/bagel plain.jpg', 'key': 'i', 'origWidth': 410, 'origHeight': 410, 'width': 410, 'height': 410, 'widthPercent': 0.45, 'rescaleHeight': False, 'trialN': 80, 'loaded': True, 'loadedTime': 9532.5, 'positionName': 'RIGHT', 'positionCoords': [679.12, 117], 'bid': 2.99}]",139504.79999999702,1669830731887,sweetpotato,bagel plain,1.95,2.99,1.0400000000000003,bagel plain,922.3999999910593,923,922.7999999970198,True,i,140928.19999998808,1423.3999999910593,1669830733311,1424,HRV,HRV_0025,2022-11-30 17:54:38
81,"[{'imgObject': {}, 'id': 'raspberries', 'src': '/static/foodstim60/raspberries.jpg', 'key': 'u', 'origWidth': 411, 'origHeight': 411, 'width': 411, 'height': 411, 'widthPercent': 0.45, 'rescaleHeight': False, 'trialN': 81, 'loaded': True, 'loadedTime': 9555.699999988079, 'positionName': 'LEFT', 'positionCoords': [215.88, 116.5], 'bid': 2.54}, {'imgObject': {}, 'id': 'blueberries', 'src': '/static/foodstim60/blueberries.jpg', 'key': 'i', 'origWidth': 411, 'origHeight': 411, 'width': 411, 'height': 411, 'widthPercent': 0.45, 'rescaleHeight': False, 'trialN': 81, 'loaded': True, 'loadedTime': 9578, 'positionName': 'RIGHT', 'positionCoords': [679.12, 116.5], 'bid': 2.25}]",140928.29999999702,1669830733311,raspberries,blueberries,2.54,2.25,-0.29000000000000004,raspberries,910.0999999940395,910,910.5,True,u,142339.19999998808,1410.8999999910593,1669830734722,1411,HRV,HRV_0025,2022-11-30 17:54:38
82,"[{'imgObject': {}, 'id': 'tacos', 'src': '/static/foodstim60/tacos.jpg', 'key': 'u', 'origWidth': 411, 'origHeight': 411, 'width': 411, 'height': 411, 'widthPercent': 0.45, 'rescaleHeight': False, 'trialN': 82, 'loaded': True, 'loadedTime': 9544.699999988079, 'positionName': 'LEFT', 'positionCoords': [215.88, 116.5], 'bid': 4.34}, {'imgObject': {}, 'id': 'raisin bran w milk', 'src': '/static/foodstim60/raisin bran w milk.jpg', 'key': 'i', 'origWidth': 411, 'origHeight': 411, 'width': 411, 'height': 411, 'widthPercent': 0.45, 'rescaleHeight': False, 'trialN': 82, 'loaded': True, 'loadedTime': 9567.59999999404, 'positionName': 'RIGHT', 'positionCoords': [679.12, 116.5], 'bid': 2.96}]",142339.29999999702,1669830734722,tacos,raisin bran w milk,4.34,2.96,-1.38,tacos,623.0999999940395,623,623.5999999940395,True,u,143463.79999999702,1124.5,1669830735846,1124,HRV,HRV_0025,2022-11-30 17:54:38
83,"[{'imgObject': {}, 'id': 'strawberries', 'src': '/static/foodstim60/strawberries.jpg', 'key': 'u', 'origWidth': 410, 'origHeight': 410, 'width': 410, 'height': 410, 'widthPercent': 0.45, 'rescaleHeight': False, 'trialN': 83, 'loaded': True, 'loadedTime': 9538.89999999106, 'positionName': 'LEFT', 'positionCoords': [216.88, 117], 'bid': 1.98}, {'imgObject': {}, 'id': 'steak', 'src': '/static/foodstim60/steak.jpg', 'key': 'i', 'origWidth': 410, 'origHeight': 410, 'width': 410, 'height': 410, 'widthPercent': 0.45, 'rescaleHeight': False, 'trialN': 83, 'loaded': True, 'loadedTime': 9503.39999999106, 'positionName': 'RIGHT', 'positionCoords': [679.12, 117], 'bid': 1.92}]",143463.89999999106,1669830735847,strawberries,steak,1.98,1.92,-0.06000000000000005,strawberries,931.6000000089407,932,932.1000000089407,True,u,144897.09999999404,1433.2000000029802,1669830737280,1433,HRV,HRV_0025,2022-11-30 17:54:38
84,"[{'imgObject': {}, 'id': 'corn cob', 'src': '/static/foodstim60/corn cob.jpg', 'key': 'u', 'origWidth': 411, 'origHeight': 411, 'width': 411, 'height': 411, 'widthPercent': 0.45, 'rescaleHeight': False, 'trialN': 84, 'loaded': True, 'loadedTime': 9552, 'positionName': 'LEFT', 'positionCoords': [215.88, 116.5], 'bid': 8.92}, {'imgObject': {}, 'id': 'cheerios', 'src': '/static/foodstim60/cheerios.jpg', 'key': 'i', 'origWidth': 409, 'origHeight': 410, 'width': 409, 'height': 410, 'widthPercent': 0.45, 'rescaleHeight': False, 'trialN': 84, 'loaded': True, 'loadedTime': 9529.5, 'positionName': 'RIGHT', 'positionCoords': [679.12, 117], 'bid': 8.59}]",144897.19999998808,1669830737280,corn cob,cheerios,8.92,8.59,-0.33000000000000007,corn cob,858.5,859,859.0,True,u,146257.19999998808,1360.0,1669830738640,1360,HRV,HRV_0025,2022-11-30 17:54:38
85,"[{'imgObject': {}, 'id': 'apple slices', 'src': '/static/foodstim60/apple slices.jpg', 'key': 'u', 'origWidth': 409, 'origHeight': 410, 'width': 409, 'height': 410, 'widthPercent': 0.45, 'rescaleHeight': False, 'trialN': 85, 'loaded': True, 'loadedTime': 9504.699999988079, 'positionName': 'LEFT', 'positionCoords': [217.88, 117], 'bid': 2.04}, {'imgObject': {}, 'id': 'yogurt no spoon', 'src': '/static/foodstim60/yogurt no spoon.jpg', 'key': 'i', 'origWidth': 411, 'origHeight': 410, 'width': 411, 'height': 410, 'widthPercent': 0.45, 'rescaleHeight': False, 'trialN': 85, 'loaded': True, 'loadedTime': 9512.5, 'positionName': 'RIGHT', 'positionCoords': [679.12, 117], 'bid': 1.6}]",146257.39999999106,1669830738640,apple slices,yogurt no spoon,2.04,1.6,-0.43999999999999995,apple slices,925.9000000059605,926,926.2999999970198,True,u,147684.39999999106,1427.0,1669830740067,1427,HRV,HRV_0025,2022-11-30 17:54:38
86,"[{'imgObject': {}, 'id': 'kiwi', 'src': '/static/foodstim60/kiwi.jpg', 'key': 'u', 'origWidth': 410, 'origHeight': 410, 'width': 410, 'height': 410, 'widthPercent': 0.45, 'rescaleHeight': False, 'trialN': 86, 'loaded': True, 'loadedTime': 9559.89999999106, 'positionName': 'LEFT', 'positionCoords': [216.88, 117], 'bid': 2.02}, {'imgObject': {}, 'id': 'burrito', 'src': '/static/foodstim60/burrito.jpg', 'key': 'i', 'origWidth': 410, 'origHeight': 410, 'width': 410, 'height': 410, 'widthPercent': 0.45, 'rescaleHeight': False, 'trialN': 86, 'loaded': True, 'loadedTime': 9577.5, 'positionName': 'RIGHT', 'positionCoords': [679.12, 117], 'bid': 1.98}]",147684.5,1669830740067,kiwi,burrito,2.02,1.98,-0.040000000000000036,kiwi,1465,1466,1465.3999999910593,True,u,149650.69999998808,1966.199999988079,1669830742033,1966,HRV,HRV_0025,2022-11-30 17:54:38
87,"[{'imgObject': {}, 'id': 'blueberries', 'src': '/static/foodstim60/blueberries.jpg', 'key': 'u', 'origWidth': 411, 'origHeight': 411, 'width': 411, 'height': 411, 'widthPercent': 0.45, 'rescaleHeight': False, 'trialN': 87, 'loaded': True, 'loadedTime': 9577.59999999404, 'positionName': 'LEFT', 'positionCoords': [215.88, 116.5], 'bid': 2.25}, {'imgObject': {}, 'id': 'steak', 'src': '/static/foodstim60/steak.jpg', 'key': 'i', 'origWidth': 410, 'origHeight': 410, 'width': 410, 'height': 410, 'widthPercent': 0.45, 'rescaleHeight': False, 'trialN': 87, 'loaded': True, 'loadedTime': 9502.89999999106, 'positionName': 'RIGHT', 'positionCoords': [679.12, 117], 'bid': 1.92}]",149650.79999999702,1669830742033,blueberries,steak,2.25,1.92,-0.33000000000000007,blueberries,775.3999999910593,776,775.8999999910593,True,u,150927.79999999702,1277.0,1669830743310,1277,HRV,HRV_0025,2022-11-30 17:54:38
88,"[{'imgObject': {}, 'id': 'mac & cheese', 'src': '/static/foodstim60/mac & cheese.jpg', 'key': 'u', 'origWidth': 410, 'origHeight': 410, 'width': 410, 'height': 410, 'widthPercent': 0.45, 'rescaleHeight': False, 'trialN': 88, 'loaded': True, 'loadedTime': 9575.09999999404, 'positionName': 'LEFT', 'positionCoords': [216.88, 117], 'bid': 8}, {'imgObject': {}, 'id': 'luckycharms', 'src': '/static/foodstim60/luckycharms.jpg', 'key': 'i', 'origWidth': 410, 'origHeight': 409, 'width': 410, 'height': 409, 'widthPercent': 0.45, 'rescaleHeight': False, 'trialN': 88, 'loaded': True, 'loadedTime': 9542.199999988079, 'positionName': 'RIGHT', 'positionCoords': [679.12, 117.5], 'bid': 4.9}]",150927.89999999106,1669830743310,mac & cheese,luckycharms,8.0,4.9,-3.0999999999999996,mac & cheese,923.5,924,923.9000000059605,True,u,152352.19999998808,1424.2999999970198,1669830744735,1425,HRV,HRV_0025,2022-11-30 17:54:38
89,"[{'imgObject': {}, 'id': 'hotdog w must', 'src': '/static/foodstim60/hotdog w must.jpg', 'key': 'u', 'origWidth': 409, 'origHeight': 409, 'width': 409, 'height': 409, 'widthPercent': 0.45, 'rescaleHeight': False, 'trialN': 89, 'loaded': True, 'loadedTime': 9571.59999999404, 'positionName': 'LEFT', 'positionCoords': [217.88, 117.5], 'bid': 3.36}, {'imgObject': {}, 'id': 'avocado', 'src': '/static/foodstim60/avocado.jpg', 'key': 'i', 'origWidth': 409, 'origHeight': 409, 'width': 409, 'height': 409, 'widthPercent': 0.45, 'rescaleHeight': False, 'trialN': 89, 'loaded': True, 'loadedTime': 9574.09999999404, 'positionName': 'RIGHT', 'positionCoords': [679.12, 117.5], 'bid': 3.26}]",152352.19999998808,1669830744735,hotdog w must,avocado,3.36,3.26,-0.10000000000000009,hotdog w must,1364.300000011921,1365,1364.800000011921,True,u,154217.89999999106,1865.7000000029802,1669830746601,1866,HRV,HRV_0025,2022-11-30 17:54:38
90,"[{'imgObject': {}, 'id': 'kiwi', 'src': '/static/foodstim60/kiwi.jpg', 'key': 'u', 'origWidth': 410, 'origHeight': 410, 'width': 410, 'height': 410, 'widthPercent': 0.45, 'rescaleHeight': False, 'trialN': 90, 'loaded': True, 'loadedTime': 9560, 'positionName': 'LEFT', 'positionCoords': [216.88, 117], 'bid': 2.02}, {'imgObject': {}, 'id': 'avocado', 'src': '/static/foodstim60/avocado.jpg', 'key': 'i', 'origWidth': 409, 'origHeight': 409, 'width': 409, 'height': 409, 'widthPercent': 0.45, 'rescaleHeight': False, 'trialN': 90, 'loaded': True, 'loadedTime': 9574.199999988079, 'positionName': 'RIGHT', 'positionCoords': [679.12, 117.5], 'bid': 3.26}]",160845.79999999702,1669830753228,kiwi,avocado,2.02,3.26,1.2399999999999998,avocado,1132.0999999940395,1133,1132.7000000029802,True,i,162478.59999999404,1632.7999999970198,1669830754861,1633,HRV,HRV_0025,2022-11-30 17:54:38
91,"[{'imgObject': {}, 'id': 'blueberries', 'src': '/static/foodstim60/blueberries.jpg', 'key': 'u', 'origWidth': 411, 'origHeight': 411, 'width': 411, 'height': 411, 'widthPercent': 0.45, 'rescaleHeight': False, 'trialN': 91, 'loaded': True, 'loadedTime': 9578.09999999404, 'positionName': 'LEFT', 'positionCoords': [215.88, 116.5], 'bid': 2.25}, {'imgObject': {}, 'id': 'chickenfingers', 'src': '/static/foodstim60/chickenfingers.jpg', 'key': 'i', 'origWidth': 410, 'origHeight': 410, 'width': 410, 'height': 410, 'widthPercent': 0.45, 'rescaleHeight': False, 'trialN': 91, 'loaded': True, 'loadedTime': 9549.79999999702, 'positionName': 'RIGHT', 'positionCoords': [679.12, 117], 'bid': 2.16}]",162478.69999998808,1669830754861,blueberries,chickenfingers,2.25,2.16,-0.08999999999999986,chickenfingers,1177,1178,1177.5,True,i,164157.5,1678.800000011921,1669830756540,1679,HRV,HRV_0025,2022-11-30 17:54:38
92,"[{'imgObject': {}, 'id': 'chickenfingers', 'src': '/static/foodstim60/chickenfingers.jpg', 'key': 'u', 'origWidth': 410, 'origHeight': 410, 'width': 410, 'height': 410, 'widthPercent': 0.45, 'rescaleHeight': False, 'trialN': 92, 'loaded': True, 'loadedTime': 9550.59999999404, 'positionName': 'LEFT', 'positionCoords': [216.88, 117], 'bid': 2.16}, {'imgObject': {}, 'id': 'mashed potato', 'src': '/static/foodstim60/mashed potato.jpg', 'key': 'i', 'origWidth': 409, 'origHeight': 409, 'width': 409, 'height': 409, 'widthPercent': 0.45, 'rescaleHeight': False, 'trialN': 92, 'loaded': True, 'loadedTime': 9575.79999999702, 'positionName': 'RIGHT', 'positionCoords': [679.12, 117.5], 'bid': 2.79}]",164157.59999999404,1669830756540,chickenfingers,mashed potato,2.16,2.79,0.6299999999999999,mashed potato,794.2999999970198,795,794.5999999940395,True,i,165453.09999999404,1295.5,1669830757836,1296,HRV,HRV_0025,2022-11-30 17:54:38
93,"[{'imgObject': {}, 'id': 'orange slices', 'src': '/static/foodstim60/orange slices.jpg', 'key': 'u', 'origWidth': 409, 'origHeight': 410, 'width': 409, 'height': 410, 'widthPercent': 0.45, 'rescaleHeight': False, 'trialN': 93, 'loaded': True, 'loadedTime': 9528.59999999404, 'positionName': 'LEFT', 'positionCoords': [217.88, 117], 'bid': 4.96}, {'imgObject': {}, 'id': 'popsicles', 'src': '/static/foodstim60/popsicles.jpg', 'key': 'i', 'origWidth': 410, 'origHeight': 410, 'width': 410, 'height': 410, 'widthPercent': 0.45, 'rescaleHeight': False, 'trialN': 93, 'loaded': True, 'loadedTime': 9535.39999999106, 'positionName': 'RIGHT', 'positionCoords': [679.12, 117], 'bid': 5.98}]",165453.29999999702,1669830757836,orange slices,popsicles,4.96,5.98,1.0200000000000005,popsicles,1042.7000000029802,1043,1043.2000000029802,True,i,166997.39999999106,1544.0999999940395,1669830759380,1544,HRV,HRV_0025,2022-11-30 17:54:38
94,"[{'imgObject': {}, 'id': 'burger', 'src': '/static/foodstim60/burger.jpg', 'key': 'u', 'origWidth': 409, 'origHeight': 409, 'width': 409, 'height': 409, 'widthPercent': 0.45, 'rescaleHeight': False, 'trialN': 94, 'loaded': True, 'loadedTime': 9490, 'positionName': 'LEFT', 'positionCoords': [217.88, 117.5], 'bid': 1.75}, {'imgObject': {}, 'id': 'cherry tomato', 'src': '/static/foodstim60/cherry tomato.jpg', 'key': 'i', 'origWidth': 410, 'origHeight': 410, 'width': 410, 'height': 410, 'widthPercent': 0.45, 'rescaleHeight': False, 'trialN': 94, 'loaded': True, 'loadedTime': 9572.5, 'positionName': 'RIGHT', 'positionCoords': [679.12, 117], 'bid': 2.12}]",166997.59999999404,1669830759380,burger,cherry tomato,1.75,2.12,0.3700000000000001,cherry tomato,1979.7000000029802,1980,1980.0999999940395,True,i,169478.0,2480.4000000059605,1669830761861,2481,HRV,HRV_0025,2022-11-30 17:54:38
95,"[{'imgObject': {}, 'id': 'Tribe humus pita', 'src': '/static/foodstim60/Tribe humus pita.jpg', 'key': 'u', 'origWidth': 411, 'origHeight': 411, 'width': 411, 'height': 411, 'widthPercent': 0.45, 'rescaleHeight': False, 'trialN': 95, 'loaded': True, 'loadedTime': 9567.199999988079, 'positionName': 'LEFT', 'positionCoords': [215.88, 116.5], 'bid': 2.18}, {'imgObject': {}, 'id': 'blueberries', 'src': '/static/foodstim60/blueberries.jpg', 'key': 'i', 'origWidth': 411, 'origHeight': 411, 'width': 411, 'height': 411, 'widthPercent': 0.45, 'rescaleHeight': False, 'trialN': 95, 'loaded': True, 'loadedTime': 9578.199999988079, 'positionName': 'RIGHT', 'positionCoords': [679.12, 116.5], 'bid': 2.25}]",169478.19999998808,1669830761861,Tribe humus pita,blueberries,2.18,2.25,0.06999999999999984,NaN,NaN,NaN,,False,NaN,173479.69999998808,4001.5,1669830765862,4001,HRV,HRV_0025,2022-11-30 17:54:38
96,"[{'imgObject': {}, 'id': 'eggs', 'src': '/static/foodstim60/eggs.jpg', 'key': 'u', 'origWidth': 409, 'origHeight': 409, 'width': 409, 'height': 409, 'widthPercent': 0.45, 'rescaleHeight': False, 'trialN': 96, 'loaded': True, 'loadedTime': 9522.79999999702, 'positionName': 'LEFT', 'positionCoords': [217.88, 117.5], 'bid': 2.42}, {'imgObject': {}, 'id': 'cherry tomato', 'src': '/static/foodstim60/cherry tomato.jpg', 'key': 'i', 'origWidth': 410, 'origHeight': 410, 'width': 410, 'height': 410, 'widthPercent': 0.45, 'rescaleHeight': False, 'trialN': 96, 'loaded': True, 'loadedTime': 9572.5, 'positionName': 'RIGHT', 'positionCoords': [679.12, 117], 'bid': 2.12}]",173479.79999999702,1669830765862,eggs,cherry tomato,2.42,2.12,-0.2999999999999998,cherry tomato,877.8999999910593,879,878.5,True,i,174860.09999999404,1380.2999999970198,1669830767243,1381,HRV,HRV_0025,2022-11-30 17:54:38
97,"[{'imgObject': {}, 'id': 'lox', 'src': '/static/foodstim60/lox.jpg', 'key': 'u', 'origWidth': 410, 'origHeight': 411, 'width': 410, 'height': 411, 'widthPercent': 0.45, 'rescaleHeight': False, 'trialN': 97, 'loaded': True, 'loadedTime': 9469.699999988079, 'positionName': 'LEFT', 'positionCoords': [216.88, 116.5], 'bid': 2.79}, {'imgObject': {}, 'id': 'mac & cheese', 'src': '/static/foodstim60/mac & cheese.jpg', 'key': 'i', 'origWidth': 410, 'origHeight': 410, 'width': 410, 'height': 410, 'widthPercent': 0.45, 'rescaleHeight': False, 'trialN': 97, 'loaded': True, 'loadedTime': 9575.09999999404, 'positionName': 'RIGHT', 'positionCoords': [679.12, 117], 'bid': 8}]",174860.29999999702,1669830767243,lox,mac & cheese,2.79,8.0,5.21,mac & cheese,1959.7999999970198,1960,1960.2000000029802,True,i,177321.39999999106,2461.0999999940395,1669830769704,2461,HRV,HRV_0025,2022-11-30 17:54:38
98,"[{'imgObject': {}, 'id': 'shreddedwheatwithmilk', 'src': '/static/foodstim60/shreddedwheatwithmilk.jpg', 'key': 'u', 'origWidth': 410, 'origHeight': 410, 'width': 410, 'height': 410, 'widthPercent': 0.45, 'rescaleHeight': False, 'trialN': 98, 'loaded': True, 'loadedTime': 9545.39999999106, 'positionName': 'LEFT', 'positionCoords': [216.88, 117], 'bid': 4.2}, {'imgObject': {}, 'id': 'cheerios', 'src': '/static/foodstim60/cheerios.jpg', 'key': 'i', 'origWidth': 409, 'origHeight': 410, 'width': 409, 'height': 410, 'widthPercent': 0.45, 'rescaleHeight': False, 'trialN': 98, 'loaded': True, 'loadedTime': 9531.09999999404, 'positionName': 'RIGHT', 'positionCoords': [679.12, 117], 'bid': 8.59}]",177321.59999999404,1669830769704,shreddedwheatwithmilk,cheerios,4.2,8.59,4.39,cheerios,922.5,923,922.9000000059605,True,i,178745.09999999404,1423.5,1669830771128,1424,HRV,HRV_0025,2022-11-30 17:54:38
99,"[{'imgObject': {}, 'id': 'edamame', 'src': '/static/foodstim60/edamame.jpg', 'key': 'u', 'origWidth': 409, 'origHeight': 410, 'width': 409, 'height': 410, 'widthPercent': 0.45, 'rescaleHeight': False, 'trialN': 99, 'loaded': True, 'loadedTime': 9483, 'positionName': 'LEFT', 'positionCoords': [217.88, 117], 'bid': 3.74}, {'imgObject': {}, 'id': 'cocktailshrimp', 'src': '/static/foodstim60/cocktailshrimp.jpg', 'key': 'i', 'origWidth': 410, 'origHeight': 410, 'width': 410, 'height': 410, 'widthPercent': 0.45, 'rescaleHeight': False, 'trialN': 99, 'loaded': True, 'loadedTime': 9559.199999988079, 'positionName': 'RIGHT', 'positionCoords': [679.12, 117], 'bid': 2.84}]",178745.19999998808,1669830771128,edamame,cocktailshrimp,3.74,2.84,-0.9000000000000004,cocktailshrimp,1053.1000000089407,1054,1053.6000000089407,True,i,180299.79999999702,1554.6000000089407,1669830772683,1555,HRV,HRV_0025,2022-11-30 17:54:38
100,"[{'imgObject': {}, 'id': 'hashbrowns', 'src': '/static/foodstim60/hashbrowns.jpg', 'key': 'u', 'origWidth': 411, 'origHeight': 410, 'width': 411, 'height': 410, 'widthPercent': 0.45, 'rescaleHeight': False, 'trialN': 100, 'loaded': True, 'loadedTime': 9487.39999999106, 'positionName': 'LEFT', 'positionCoords': [215.88, 117], 'bid': 2.35}, {'imgObject': {}, 'id': 'baked potato', 'src': '/static/foodstim60/baked potato.jpg', 'key': 'i', 'origWidth': 409, 'origHeight': 410, 'width': 409, 'height': 410, 'widthPercent': 0.45, 'rescaleHeight': False, 'trialN': 100, 'loaded': True, 'loadedTime': 9479.79999999702, 'positionName': 'RIGHT', 'positionCoords': [679.12, 117], 'bid': 2.42}]",180299.89999999106,1669830772683,hashbrowns,baked potato,2.35,2.42,0.06999999999999984,baked potato,1480.7000000029802,1481,1481.2000000029802,True,i,182281.69999998808,1981.7999999970198,1669830774665,1982,HRV,HRV_0025,2022-11-30 17:54:38
101,"[{'imgObject': {}, 'id': 'banana', 'src': '/static/foodstim60/banana.jpg', 'key': 'u', 'origWidth': 410, 'origHeight': 410, 'width': 410, 'height': 410, 'widthPercent': 0.45, 'rescaleHeight': False, 'trialN': 101, 'loaded': True, 'loadedTime': 9564.09999999404, 'positionName': 'LEFT', 'positionCoords': [216.88, 117], 'bid': 3.31}, {'imgObject': {}, 'id': 'rigatoni and sauce', 'src': '/static/foodstim60/rigatoni and sauce.jpg', 'key': 'i', 'origWidth': 410, 'origHeight': 411, 'width': 410, 'height': 411, 'widthPercent': 0.45, 'rescaleHeight': False, 'trialN': 101, 'loaded': True, 'loadedTime': 9546.59999999404, 'positionName': 'RIGHT', 'positionCoords': [679.12, 116.5], 'bid': 4.01}]",182281.79999999702,1669830774665,banana,rigatoni and sauce,3.31,4.01,0.6999999999999997,rigatoni and sauce,1242.2999999970198,1243,1243.0,True,i,184026.19999998808,1744.3999999910593,1669830776409,1744,HRV,HRV_0025,2022-11-30 17:54:38
102,"[{'imgObject': {}, 'id': 'apple slices', 'src': '/static/foodstim60/apple slices.jpg', 'key': 'u', 'origWidth': 409, 'origHeight': 410, 'width': 409, 'height': 410, 'widthPercent': 0.45, 'rescaleHeight': False, 'trialN': 102, 'loaded': True, 'loadedTime': 9504, 'positionName': 'LEFT', 'positionCoords': [217.88, 117], 'bid': 2.04}, {'imgObject': {}, 'id': 'kiwi', 'src': '/static/foodstim60/kiwi.jpg', 'key': 'i', 'origWidth': 410, 'origHeight': 410, 'width': 410, 'height': 410, 'widthPercent': 0.45, 'rescaleHeight': False, 'trialN': 102, 'loaded': True, 'loadedTime': 9561.699999988079, 'positionName': 'RIGHT', 'positionCoords': [679.12, 117], 'bid': 2.02}]",184026.29999999702,1669830776409,apple slices,kiwi,2.04,2.02,-0.020000000000000018,apple slices,728.5,729,729.0,True,u,185256.29999999702,1230.0,1669830777639,1230,HRV,HRV_0025,2022-11-30 17:54:38
103,"[{'imgObject': {}, 'id': 'granola w milk', 'src': '/static/foodstim60/granola w milk.jpg', 'key': 'u', 'origWidth': 410, 'origHeight': 410, 'width': 410, 'height': 410, 'widthPercent': 0.45, 'rescaleHeight': False, 'trialN': 103, 'loaded': True, 'loadedTime': 9570, 'positionName': 'LEFT', 'positionCoords': [216.88, 117], 'bid': 2.99}, {'imgObject': {}, 'id': 'turkey sandwich', 'src': '/static/foodstim60/turkey sandwich.jpg', 'key': 'i', 'origWidth': 409, 'origHeight': 409, 'width': 409, 'height': 409, 'widthPercent': 0.45, 'rescaleHeight': False, 'trialN': 103, 'loaded': True, 'loadedTime': 9531.89999999106, 'positionName': 'RIGHT', 'positionCoords': [679.12, 117.5], 'bid': 3.45}]",185256.5,1669830777639,granola w milk,turkey sandwich,2.99,3.45,0.45999999999999996,granola w milk,726.5999999940395,727,727.0,True,u,186485.0,1228.5,1669830778868,1229,HRV,HRV_0025,2022-11-30 17:54:38
104,"[{'imgObject': {}, 'id': 'omelette', 'src': '/static/foodstim60/omelette.jpg', 'key': 'u', 'origWidth': 410, 'origHeight': 409, 'width': 410, 'height': 409, 'widthPercent': 0.45, 'rescaleHeight': False, 'trialN': 104, 'loaded': True, 'loadedTime': 9497.09999999404, 'positionName': 'LEFT', 'positionCoords': [216.88, 117.5], 'bid': 2.85}, {'imgObject': {}, 'id': 'cocktailshrimp', 'src': '/static/foodstim60/cocktailshrimp.jpg', 'key': 'i', 'origWidth': 410, 'origHeight': 410, 'width': 410, 'height': 410, 'widthPercent': 0.45, 'rescaleHeight': False, 'trialN': 104, 'loaded': True, 'loadedTime': 9559.09999999404, 'positionName': 'RIGHT', 'positionCoords': [679.12, 117], 'bid': 2.84}]",186485.09999999404,1669830778868,omelette,cocktailshrimp,2.85,2.84,-0.010000000000000231,cocktailshrimp,698.2999999970198,699,698.7999999970198,True,i,187685.0,1199.9000000059605,1669830780068,1200,HRV,HRV_0025,2022-11-30 17:54:38
105,"[{'imgObject': {}, 'id': 'burrito', 'src': '/static/foodstim60/burrito.jpg', 'key': 'u', 'origWidth': 410, 'origHeight': 410, 'width': 410, 'height': 410, 'widthPercent': 0.45, 'rescaleHeight': False, 'trialN': 105, 'loaded': True, 'loadedTime': 9577.5, 'positionName': 'LEFT', 'positionCoords': [216.88, 117], 'bid': 1.98}, {'imgObject': {}, 'id': 'burger', 'src': '/static/foodstim60/burger.jpg', 'key': 'i', 'origWidth': 409, 'origHeight': 409, 'width': 409, 'height': 409, 'widthPercent': 0.45, 'rescaleHeight': False, 'trialN': 105, 'loaded': True, 'loadedTime': 9492.5, 'positionName': 'RIGHT', 'positionCoords': [679.12, 117.5], 'bid': 1.75}]",187685.09999999404,1669830780068,burrito,burger,1.98,1.75,-0.22999999999999998,burrito,657.2000000029802,658,657.5999999940395,True,u,188844.0,1158.9000000059605,1669830781227,1159,HRV,HRV_0025,2022-11-30 17:54:38
106,"[{'imgObject': {}, 'id': 'pear', 'src': '/static/foodstim60/pear.jpg', 'key': 'u', 'origWidth': 411, 'origHeight': 410, 'width': 411, 'height': 410, 'widthPercent': 0.45, 'rescaleHeight': False, 'trialN': 106, 'loaded': True, 'loadedTime': 9499.699999988079, 'positionName': 'LEFT', 'positionCoords': [215.88, 117], 'bid': 2.74}, {'imgObject': {}, 'id': 'froot loops w milk', 'src': '/static/foodstim60/froot loops w milk.jpg', 'key': 'i', 'origWidth': 410, 'origHeight': 410, 'width': 410, 'height': 410, 'widthPercent': 0.45, 'rescaleHeight': False, 'trialN': 106, 'loaded': True, 'loadedTime': 9573.5, 'positionName': 'RIGHT', 'positionCoords': [679.12, 117], 'bid': 7.41}]",188844.19999998808,1669830781227,pear,froot loops w milk,2.74,7.41,4.67,froot loops w milk,755.5,756,755.9000000059605,True,i,190101.59999999404,1257.4000000059605,1669830782484,1257,HRV,HRV_0025,2022-11-30 17:54:38
107,"[{'imgObject': {}, 'id': 'cantaloupe', 'src': '/static/foodstim60/cantaloupe.jpg', 'key': 'u', 'origWidth': 409, 'origHeight': 409, 'width': 409, 'height': 409, 'widthPercent': 0.45, 'rescaleHeight': False, 'trialN': 107, 'loaded': True, 'loadedTime': 9493.199999988079, 'positionName': 'LEFT', 'positionCoords': [217.88, 117.5], 'bid': 3.1}, {'imgObject': {}, 'id': 'Grapes', 'src': '/static/foodstim60/Grapes.jpg', 'key': 'i', 'origWidth': 411, 'origHeight': 411, 'width': 411, 'height': 411, 'widthPercent': 0.45, 'rescaleHeight': False, 'trialN': 107, 'loaded': True, 'loadedTime': 9487.199999988079, 'positionName': 'RIGHT', 'positionCoords': [679.12, 116.5], 'bid': 3.11}]",190101.69999998808,1669830782485,cantaloupe,Grapes,3.1,3.11,0.009999999999999787,Grapes,885.9000000059605,886,886.3000000119209,True,i,191488.19999998808,1386.5,1669830783871,1386,HRV,HRV_0025,2022-11-30 17:54:38
108,"[{'imgObject': {}, 'id': 'corn cob', 'src': '/static/foodstim60/corn cob.jpg', 'key': 'u', 'origWidth': 411, 'origHeight': 411, 'width': 411, 'height': 411, 'widthPercent': 0.45, 'rescaleHeight': False, 'trialN': 108, 'loaded': True, 'loadedTime': 9552.199999988079, 'positionName': 'LEFT', 'positionCoords': [215.88, 116.5], 'bid': 8.92}, {'imgObject': {}, 'id': 'eggsalad', 'src': '/static/foodstim60/eggsalad.jpg', 'key': 'i', 'origWidth': 410, 'origHeight': 409, 'width': 410, 'height': 409, 'widthPercent': 0.45, 'rescaleHeight': False, 'trialN': 108, 'loaded': True, 'loadedTime': 9579, 'positionName': 'RIGHT', 'positionCoords': [679.12, 117.5], 'bid': 2.84}]",191488.39999999106,1669830783871,corn cob,eggsalad,8.92,2.84,-6.08,corn cob,507.1000000089407,508,507.40000000596046,True,u,192496.89999999106,1008.5,1669830784880,1009,HRV,HRV_0025,2022-11-30 17:54:38
109,"[{'imgObject': {}, 'id': 'burrito', 'src': '/static/foodstim60/burrito.jpg', 'key': 'u', 'origWidth': 410, 'origHeight': 410, 'width': 410, 'height': 410, 'widthPercent': 0.45, 'rescaleHeight': False, 'trialN': 109, 'loaded': True, 'loadedTime': 9577.39999999106, 'positionName': 'LEFT', 'positionCoords': [216.88, 117], 'bid': 1.98}, {'imgObject': {}, 'id': 'salad w chicken', 'src': '/static/foodstim60/salad w chicken.jpg', 'key': 'i', 'origWidth': 411, 'origHeight': 411, 'width': 411, 'height': 411, 'widthPercent': 0.45, 'rescaleHeight': False, 'trialN': 109, 'loaded': True, 'loadedTime': 9520.89999999106, 'positionName': 'RIGHT', 'positionCoords': [679.12, 116.5], 'bid': 2.71}]",192497.09999999404,1669830784880,burrito,salad w chicken,1.98,2.71,0.73,salad w chicken,1102.9000000059605,1103,1103.2999999970198,True,i,194101.09999999404,1604.0,1669830786484,1604,HRV,HRV_0025,2022-11-30 17:54:38
