success,trial_type,trial_index,time_elapsed,internal_node_id,Block,TrialNumber,TrialTime,trialTimeDiff,FPS_avg,FPS_med,FPS_mode,TrialDur,winResizeTime,rt,block,button_pressed,MotCoh,MotDir,ColCoh,Color,ChoiceKey,Choice,Accuracy,RT,nFrames,FPS,PPD,missTrial,missTrialMsg,onsetDelay,fullScreenExitTime,canvCenter,TrialType,Score,BlockTrial,stimulus,button_labels,exp,subjectId,date
True,fullscreen,0,3134,0.0-0.0,0.0,1.0,,,,,,,,,,,,,,,,,,,,,,,,,,,,,,,,HRV,HRV_0025,2022-11-30 18:05:35
,wl-check-fps,1,8148,0.0-1.0,0.0,2.0,"[3786.8, 3797.7, 3814.5, 3831, 3847.8, 3864.5, 3881.1, 3897.8, 3914.4, 3931.4, 3947.8, 3964.4, 3981.1, 3997.8, 4014.4, 4031, 4047.7, 4064.4, 4081, 4097.8, 4114.4, 4131.1, 4147.8, 4164.4, 4197.8, 4214.4, 4231.1, 4247.8, 4264.4, 4281, 4297.7, 4314.5, 4331, 4347.7, 4364.5, 4381.1, 4397.7, 4414.5, 4431.1, 4447.9, 4464.4, 4481.1, 4497.8, 4514.4, 4531.2, 4547.8, 4564.4, 4581.1, 4597.7, 4614.4, 4631.1, 4647.9, 4664.5, 4681.1, 4697.8, 4714.5, 4731.2, 4747.9, 4764.4, 4781.1, 4797.8, 4814.4, 4831.1, 4848.3, 4864.5, 4881.3, 4897.8, 4914.4, 4931, 4947.8, 4964.4, 4981.1, 4997.7, 5014.4, 5031.2, 5047.7, 5064.4, 5081.1, 5097.8, 5114.4, 5131, 5147.8, 5164.4, 5181.1, 5197.8, 5214.4, 5231.1, 5247.8, 5264.5, 5281.1, 5297.7, 5314.5, 5331.1, 5347.8, 5364.5, 5381.1, 5397.8, 5414.4, 5431.2, 5447.8, 5464.5, 5481.1, 5497.8, 5514.4, 5531.1, 5547.8, 5564.5, 5581, 5597.8, 5614.5, 5631.1, 5647.7, 5664.5, 5681.3, 5697.8, 5714.4, 5731.1, 5747.9, 5764.5, 5781, 5797.8, 5814.4, 5831.1, 5847.8, 5864.5, 5881.1, 5897.8, 5914.4, 5931.1, 5947.9, 5964.5, 5981.1, 5997.8, 6014.4, 6031.1, 6047.8, 6064.4, 6081.1, 6097.8, 6114.4, 6131.1, 6147.8, 6164.4, 6181.1, 6197.7, 6214.4, 6231.1, 6247.8, 6264.4, 6281.1, 6297.8, 6314.5, 6331.1, 6347.7, 6364.4, 6381.1, 6397.8, 6414.4, 6431.2, 6447.9, 6464.4, 6481.1, 6497.7, 6514.4, 6531.1, 6547.7, 6564.4, 6581.1, 6597.7, 6614.5, 6631, 6647.8, 6664.5, 6681.1, 6697.9, 6714.6, 6731.2, 6747.8, 6764.5, 6781.1, 6797.8, 6814.4, 6831.1, 6847.9, 6864.5, 6881.1, 6897.8, 6914.4, 6931.1, 6947.8, 6964.4, 6981.1, 6997.8, 7014.3, 7031.1, 7047.7, 7064.4, 7081.1, 7097.8, 7114.4, 7132.9, 7147.8, 7164.4, 7181.1, 7197.7, 7214.4, 7231.1, 7247.7, 7264.5, 7281.1, 7297.8, 7314.4, 7331.1, 7347.8, 7364.4, 7381.1, 7397.7, 7414.4, 7431.2, 7447.8, 7464.4, 7481.1, 7497.8, 7514.4, 7531, 7547.7, 7564.4, 7581.1, 7597.7, 7614.4, 7631, 7647.7, 7664.4, 7681.1, 7697.8, 7714.5, 7731.2, 7747.9, 7764.5, 7781.1, 7797.8, 7814.5, 7831.1, 7847.8, 7864.4, 7881.1, 7897.8, 7914.5, 7931, 7947.7, 7964.4, 7981.1, 7997.8, 8014.4, 8031, 8047.8, 8064.4, 8081.1, 8097.8, 8114.4, 8131.1, 8147.8, 8164.4, 8181.1, 8197.8, 8214.4, 8231.1, 8247.7, 8264.5, 8281.2, 8297.8, 8314.5, 8331.1, 8347.8, 8364.5, 8381.1, 8397.8, 8414.4, 8431.2, 8447.9, 8464.4, 8481, 8497.7, 8514.4, 8531, 8547.8, 8564.4, 8581.1, 8597.8, 8614.4, 8631, 8647.7, 8664.4, 8681.1, 8697.7, 8714.4, 8731.1, 8747.8, 8764.6, 8781.2]","[0.8, 10.9, 16.8, 16.5, 16.8, 16.7, 16.6, 16.7, 16.6, 17, 16.4, 16.6, 16.7, 16.7, 16.6, 16.6, 16.7, 16.7, 16.6, 16.8, 16.6, 16.7, 16.7, 16.6, 33.4, 16.6, 16.7, 16.7, 16.6, 16.6, 16.7, 16.8, 16.5, 16.7, 16.8, 16.6, 16.6, 16.8, 16.6, 16.8, 16.5, 16.7, 16.7, 16.6, 16.8, 16.6, 16.6, 16.7, 16.6, 16.7, 16.7, 16.8, 16.6, 16.6, 16.7, 16.7, 16.7, 16.7, 16.5, 16.7, 16.7, 16.6, 16.7, 17.2, 16.2, 16.8, 16.5, 16.6, 16.6, 16.8, 16.6, 16.7, 16.6, 16.7, 16.8, 16.5, 16.7, 16.7, 16.7, 16.6, 16.6, 16.8, 16.6, 16.7, 16.7, 16.6, 16.7, 16.7, 16.7, 16.6, 16.6, 16.8, 16.6, 16.7, 16.7, 16.6, 16.7, 16.6, 16.8, 16.6, 16.7, 16.6, 16.7, 16.6, 16.7, 16.7, 16.7, 16.5, 16.8, 16.7, 16.6, 16.6, 16.8, 16.8, 16.5, 16.6, 16.7, 16.8, 16.6, 16.5, 16.8, 16.6, 16.7, 16.7, 16.7, 16.6, 16.7, 16.6, 16.7, 16.8, 16.6, 16.6, 16.7, 16.6, 16.7, 16.7, 16.6, 16.7, 16.7, 16.6, 16.7, 16.7, 16.6, 16.7, 16.6, 16.7, 16.7, 16.7, 16.6, 16.7, 16.7, 16.7, 16.6, 16.6, 16.7, 16.7, 16.7, 16.6, 16.8, 16.7, 16.5, 16.7, 16.6, 16.7, 16.7, 16.6, 16.7, 16.7, 16.6, 16.8, 16.5, 16.8, 16.7, 16.6, 16.8, 16.7, 16.6, 16.6, 16.7, 16.6, 16.7, 16.6, 16.7, 16.8, 16.6, 16.6, 16.7, 16.6, 16.7, 16.7, 16.6, 16.7, 16.7, 16.5, 16.8, 16.6, 16.7, 16.7, 16.7, 16.6, 18.5, 14.9, 16.6, 16.7, 16.6, 16.7, 16.7, 16.6, 16.8, 16.6, 16.7, 16.6, 16.7, 16.7, 16.6, 16.7, 16.6, 16.7, 16.8, 16.6, 16.6, 16.7, 16.7, 16.6, 16.6, 16.7, 16.7, 16.7, 16.6, 16.7, 16.6, 16.7, 16.7, 16.7, 16.7, 16.7, 16.7, 16.7, 16.6, 16.6, 16.7, 16.7, 16.6, 16.7, 16.6, 16.7, 16.7, 16.7, 16.5, 16.7, 16.7, 16.7, 16.7, 16.6, 16.6, 16.8, 16.6, 16.7, 16.7, 16.6, 16.7, 16.7, 16.6, 16.7, 16.7, 16.6, 16.7, 16.6, 16.8, 16.7, 16.6, 16.7, 16.6, 16.7, 16.7, 16.6, 16.7, 16.6, 16.8, 16.7, 16.5, 16.6, 16.7, 16.7, 16.6, 16.8, 16.6, 16.7, 16.7, 16.6, 16.6, 16.7, 16.7, 16.7, 16.6, 16.7, 16.7, 16.7, 16.8, 16.6]",60.0,60.0,60.0,5011.8,[],,,,,,,,,,,,,,,,,,,,,,,,,HRV,HRV_0025,2022-11-30 18:05:35
,wl-html-keyboard-response,2,15932,0.0-2.0-0.0,0.0,3.0,,,,,,,,5781.0,0.0,0,,,,,,,,,,,,,,,,,,,,,,HRV,HRV_0025,2022-11-30 18:05:35
,wl-rdm,3,23781,0.0-3.0-0.0,0.0,4.0,,,,,,,[],,,,0.0,0.0,87.9,0.0,u,0.0,True,2266.6000000089407,136.0,60.0,40.0,False,,3000.0,[],"[653, 322]",ColorTask_Demo,,,,,HRV,HRV_0025,2022-11-30 18:05:35
,wl-rdm,4,29031,0.0-3.0-1.0,0.0,5.0,,,,,,,[],,,,0.0,0.0,87.9,1.0,i,1.0,True,1154.8999999910593,70.0,60.0,40.0,False,,2000.0,[],"[653, 322]",ColorTask_Demo,,,,,HRV,HRV_0025,2022-11-30 18:05:35
,wl-html-keyboard-response,5,33248,0.0-3.0-2.0,0.0,6.0,,,,,,,,2214.2999999970198,0.0,1,,,,,,,,,,,,,,,,,,,,,,HRV,HRV_0025,2022-11-30 18:05:35
,wl-html-keyboard-response,6,41458,0.0-4.0-0.0,0.0,7.0,,,,,,,,6207.0,0.0,0,,,,,,,,,,,,,,,,,,,,,,HRV,HRV_0025,2022-11-30 18:05:35
,wl-html-keyboard-response,7,50604,0.0-5.0-0.0,0.0,8.0,,,,,,,,7144.20000000298,0.0,0,,,,,,,,,,,,,,,,,,,,,,HRV,HRV_0025,2022-11-30 18:05:35
,wl-rdm,8,53097,0.0-6.0-0.0,0.0,9.0,,,,,,,[],,,,,,62.5,0.0,u,0.0,True,1024.5999999940395,62.0,60.0,40.0,False,,386.2713551865902,[],"[653, 322]",ColorTask,1.0,1.0,,,HRV,HRV_0025,2022-11-30 18:05:35
,wl-rdm,9,55397,0.0-6.1-0.1,0.0,10.0,,,,,,,[],,,,,,53.2,1.0,i,1.0,True,997.4000000059605,60.0,60.0,40.0,False,,219.75132984760597,[],"[653, 322]",ColorTask,2.0,2.0,,,HRV,HRV_0025,2022-11-30 18:05:35
,wl-rdm,10,57681,0.0-6.2-0.2,0.0,11.0,,,,,,,[],,,,,,53.2,0.0,i,1.0,False,824.5,50.0,60.0,40.0,False,,379.3733175226435,[],"[653, 322]",ColorTask,1.0,3.0,,,HRV,HRV_0025,2022-11-30 18:05:35
,wl-rdm,11,59781,0.0-6.3-0.3,0.0,12.0,,,,,,,[],,,,,,56.4,1.0,i,1.0,True,810.2999999970198,49.0,60.0,40.0,False,,205.26730222311863,[],"[653, 322]",ColorTask,2.0,4.0,,,HRV,HRV_0025,2022-11-30 18:05:35
,wl-rdm,12,61980,0.0-6.4-0.4,0.0,13.0,,,,,,,[],,,,,,62.5,1.0,i,1.0,True,819.2000000029802,50.0,60.0,40.0,False,,310.7298388936197,[],"[653, 322]",ColorTask,3.0,5.0,,,HRV,HRV_0025,2022-11-30 18:05:35
,wl-rdm,13,64197,0.0-6.5-0.5,0.0,14.0,,,,,,,[],,,,,,62.5,1.0,u,0.0,False,918.8999999910593,56.0,60.0,40.0,False,,200.4127906917568,[],"[653, 322]",ColorTask,2.0,6.0,,,HRV,HRV_0025,2022-11-30 18:05:35
,wl-rdm,14,66280,0.0-6.6-0.6,0.0,15.0,,,,,,,[],,,,,,56.4,0.0,u,0.0,True,748.3000000119209,45.0,60.0,40.0,False,,251.92961365237463,[],"[653, 322]",ColorTask,3.0,7.0,,,HRV,HRV_0025,2022-11-30 18:05:35
,wl-rdm,15,68297,0.0-6.7-0.7,0.0,16.0,,,,,,,[],,,,,,87.9,0.0,u,0.0,True,678.0,41.0,60.0,40.0,False,,257.26777690003394,[],"[653, 322]",ColorTask,4.0,8.0,,,HRV,HRV_0025,2022-11-30 18:05:35
,wl-rdm,16,70447,0.0-6.8-0.8,0.0,17.0,,,,,,,[],,,,,,50.0,0.0,i,1.0,False,713.6000000089407,43.0,60.0,40.0,False,,348.3159942580748,[],"[653, 322]",ColorTask,3.0,9.0,,,HRV,HRV_0025,2022-11-30 18:05:35
,wl-rdm,17,72563,0.0-6.9-0.9,0.0,18.0,,,,,,,[],,,,,,50.0,0.0,i,1.0,False,736.5,45.0,60.0,40.0,False,,285.2691924926113,[],"[653, 322]",ColorTask,2.0,10.0,,,HRV,HRV_0025,2022-11-30 18:05:35
,wl-rdm,18,74597,0.0-6.10-0.10,0.0,19.0,,,,,,,[],,,,,,53.2,0.0,u,0.0,True,702.9000000059605,43.0,60.0,40.0,False,,242.73200782253966,[],"[653, 322]",ColorTask,3.0,11.0,,,HRV,HRV_0025,2022-11-30 18:05:35
,wl-rdm,19,76647,0.0-6.11-0.11,0.0,20.0,,,,,,,[],,,,,,73.6,1.0,u,0.0,False,739.5999999940395,45.0,60.0,40.0,False,,220.51596372984528,[],"[653, 322]",ColorTask,2.0,12.0,,,HRV,HRV_0025,2022-11-30 18:05:35
,wl-rdm,20,78797,0.0-6.12-0.12,0.0,21.0,,,,,,,[],,,,,,73.6,1.0,i,1.0,True,839.1999999880791,51.0,60.0,40.0,False,,241.33145116480108,[],"[653, 322]",ColorTask,3.0,13.0,,,HRV,HRV_0025,2022-11-30 18:05:35
,wl-rdm,21,80863,0.0-6.13-0.13,0.0,22.0,,,,,,,[],,,,,,73.6,1.0,i,1.0,True,645.3999999910593,39.0,60.0,40.0,False,,348.4154846758114,[],"[653, 322]",ColorTask,4.0,14.0,,,HRV,HRV_0025,2022-11-30 18:05:35
,wl-rdm,22,83197,0.0-6.14-0.14,0.0,23.0,,,,,,,[],,,,,,53.2,1.0,i,1.0,True,900.7999999970198,55.0,60.0,40.0,False,,364.71624364912793,[],"[653, 322]",ColorTask,5.0,15.0,,,HRV,HRV_0025,2022-11-30 18:05:35
,wl-rdm,23,85380,0.0-6.15-0.15,0.0,24.0,,,,,,,[],,,,,,56.4,0.0,u,0.0,True,892.2000000029802,54.0,60.0,40.0,False,,202.15763568505946,[],"[653, 322]",ColorTask,6.0,16.0,,,HRV,HRV_0025,2022-11-30 18:05:35
,wl-rdm,24,87597,0.0-6.16-0.16,0.0,25.0,,,,,,,[],,,,,,87.9,0.0,u,0.0,True,801.6000000089407,49.0,60.0,40.0,False,,322.55268581715836,[],"[653, 322]",ColorTask,7.0,17.0,,,HRV,HRV_0025,2022-11-30 18:05:35
,wl-rdm,25,89730,0.0-6.17-0.17,0.0,26.0,,,,,,,[],,,,,,87.9,0.0,u,0.0,True,775.2999999970198,47.0,60.0,40.0,False,,297.5299660025597,[],"[653, 322]",ColorTask,8.0,18.0,,,HRV,HRV_0025,2022-11-30 18:05:35
,wl-rdm,26,91747,0.0-6.18-0.18,0.0,27.0,,,,,,,[],,,,,,62.5,0.0,u,0.0,True,704.7000000029802,43.0,60.0,40.0,False,,226.879639979026,[],"[653, 322]",ColorTask,9.0,19.0,,,HRV,HRV_0025,2022-11-30 18:05:35
,wl-rdm,27,93913,0.0-6.19-0.19,0.0,28.0,,,,,,,[],,,,,,56.4,0.0,u,0.0,True,801.9000000059605,49.0,60.0,40.0,False,,272.9415914896839,[],"[653, 322]",ColorTask,10.0,20.0,,,HRV,HRV_0025,2022-11-30 18:05:35
,wl-rdm,28,95897,0.0-6.20-0.20,0.0,29.0,,,,,,,[],,,,,,62.5,0.0,u,0.0,True,688.6000000089407,42.0,60.0,40.0,False,,213.616884044822,[],"[653, 322]",ColorTask,11.0,21.0,,,HRV,HRV_0025,2022-11-30 18:05:35
,wl-rdm,29,98097,0.0-6.21-0.21,0.0,30.0,,,,,,,[],,,,,,56.4,0.0,u,0.0,True,736.0,45.0,60.0,40.0,False,,393.5959072015703,[],"[653, 322]",ColorTask,12.0,22.0,,,HRV,HRV_0025,2022-11-30 18:05:35
,wl-rdm,30,100013,0.0-6.22-0.22,0.0,31.0,,,,,,,[],,,,,,73.6,0.0,u,0.0,True,616.0999999940395,37.0,60.0,40.0,False,,224.10907887210763,[],"[653, 322]",ColorTask,13.0,23.0,,,HRV,HRV_0025,2022-11-30 18:05:35
,wl-rdm,31,102263,0.0-6.23-0.23,0.0,32.0,,,,,,,[],,,,,,50.0,0.0,i,1.0,False,789.7999999821186,48.0,60.0,40.0,False,,371.13324815985925,[],"[653, 322]",ColorTask,12.0,24.0,,,HRV,HRV_0025,2022-11-30 18:05:35
,wl-rdm,32,104330,0.0-6.24-0.24,0.0,33.0,,,,,,,[],,,,,,87.9,1.0,i,1.0,True,639.4000000059605,39.0,60.0,40.0,False,,341.8187680233533,[],"[653, 322]",ColorTask,13.0,25.0,,,HRV,HRV_0025,2022-11-30 18:05:35
,wl-rdm,33,106497,0.0-6.25-0.25,0.0,34.0,,,,,,,[],,,,,,73.6,1.0,i,1.0,True,828.4000000059605,50.0,60.0,40.0,False,,270.39086201958895,[],"[653, 322]",ColorTask,14.0,26.0,,,HRV,HRV_0025,2022-11-30 18:05:35
,wl-rdm,34,108914,0.0-6.26-0.26,0.0,35.0,,,,,,,[],,,,,,56.4,0.0,i,1.0,False,937.3999999910593,57.0,60.0,40.0,False,,396.46197246825386,[],"[653, 322]",ColorTask,13.0,27.0,,,HRV,HRV_0025,2022-11-30 18:05:35
,wl-rdm,35,110980,0.0-6.27-0.27,0.0,36.0,,,,,,,[],,,,,,50.0,1.0,i,1.0,True,709.5,43.0,60.0,40.0,False,,279.47673841037204,[],"[653, 322]",ColorTask,14.0,28.0,,,HRV,HRV_0025,2022-11-30 18:05:35
,wl-rdm,36,113513,0.0-6.28-0.28,0.0,37.0,,,,,,,[],,,,,,56.4,1.0,u,0.0,False,1208.7000000029802,73.0,60.0,40.0,False,,252.26411397948704,[],"[653, 322]",ColorTask,13.0,29.0,,,HRV,HRV_0025,2022-11-30 18:05:35
,wl-rdm,37,116047,0.0-6.29-0.29,0.0,38.0,,,,,,,[],,,,,,56.4,1.0,u,0.0,False,1173.0999999940395,71.0,60.0,40.0,False,,272.78271433091714,[],"[653, 322]",ColorTask,12.0,30.0,,,HRV,HRV_0025,2022-11-30 18:05:35
,wl-rdm,38,118597,0.0-6.30-0.30,0.0,39.0,,,,,,,[],,,,,,62.5,1.0,i,1.0,True,1089.9000000059605,66.0,60.0,40.0,False,,379.91676911349896,[],"[653, 322]",ColorTask,13.0,31.0,,,HRV,HRV_0025,2022-11-30 18:05:35
,wl-rdm,39,120947,0.0-6.31-0.31,0.0,40.0,,,,,,,[],,,,,,53.2,0.0,i,1.0,False,1051.9000000059605,64.0,60.0,40.0,False,,214.27991266184407,[],"[653, 322]",ColorTask,12.0,32.0,,,HRV,HRV_0025,2022-11-30 18:05:35
,wl-rdm,40,123464,0.0-6.32-0.32,0.0,41.0,,,,,,,[],,,,,,56.4,0.0,u,0.0,True,1112.5,67.0,60.0,40.0,False,,321.71176055598346,[],"[653, 322]",ColorTask,13.0,33.0,,,HRV,HRV_0025,2022-11-30 18:05:35
,wl-rdm,41,125997,0.0-6.33-0.33,0.0,42.0,,,,,,,[],,,,,,56.4,1.0,i,1.0,True,1162.199999988079,70.0,60.0,40.0,False,,308.2139947812274,[],"[653, 322]",ColorTask,14.0,34.0,,,HRV,HRV_0025,2022-11-30 18:05:35
,wl-rdm,42,128330,0.0-6.34-0.34,0.0,43.0,,,,,,,[],,,,,,53.2,1.0,i,1.0,True,870.2000000029802,53.0,60.0,40.0,False,,390.624288388591,[],"[653, 322]",ColorTask,15.0,35.0,,,HRV,HRV_0025,2022-11-30 18:05:35
,wl-rdm,43,130714,0.0-6.35-0.35,0.0,44.0,,,,,,,[],,,,,,53.2,1.0,i,1.0,True,1050.5,64.0,60.0,40.0,False,,237.84344631456565,[],"[653, 322]",ColorTask,16.0,36.0,,,HRV,HRV_0025,2022-11-30 18:05:35
,wl-rdm,44,133097,0.0-6.36-0.36,0.0,45.0,,,,,,,[],,,,,,53.2,0.0,i,1.0,False,945.5,57.0,60.0,40.0,False,,354.4896795432256,[],"[653, 322]",ColorTask,15.0,37.0,,,HRV,HRV_0025,2022-11-30 18:05:35
,wl-rdm,45,135530,0.0-6.37-0.37,0.0,46.0,,,,,,,[],,,,,,53.2,0.0,u,0.0,True,1052.0,64.0,60.0,40.0,False,,292.7352689256046,[],"[653, 322]",ColorTask,16.0,38.0,,,HRV,HRV_0025,2022-11-30 18:05:35
,wl-rdm,46,137964,0.0-6.38-0.38,0.0,47.0,,,,,,,[],,,,,,50.0,1.0,u,0.0,False,1136.3999999910593,69.0,60.0,40.0,False,,203.20766105518942,[],"[653, 322]",ColorTask,15.0,39.0,,,HRV,HRV_0025,2022-11-30 18:05:35
,wl-rdm,47,140364,0.0-6.39-0.39,0.0,48.0,,,,,,,[],,,,,,50.0,1.0,i,1.0,True,977.9000000059605,59.0,60.0,40.0,False,,348.3984824101113,[],"[653, 322]",ColorTask,16.0,40.0,,,HRV,HRV_0025,2022-11-30 18:05:35
,wl-rdm,48,142797,0.0-6.40-0.40,0.0,49.0,,,,,,,[],,,,,,62.5,0.0,u,0.0,True,990.7999999970198,60.0,60.0,40.0,False,,355.57905163978563,[],"[653, 322]",ColorTask,17.0,41.0,,,HRV,HRV_0025,2022-11-30 18:05:35
,wl-rdm,49,144897,0.0-6.41-0.41,0.0,50.0,,,,,,,[],,,,,,87.9,1.0,i,1.0,True,740.6000000089407,45.0,60.0,40.0,False,,271.26509881075157,[],"[653, 322]",ColorTask,18.0,42.0,,,HRV,HRV_0025,2022-11-30 18:05:35
,wl-rdm,50,147230,0.0-6.42-0.42,0.0,51.0,,,,,,,[],,,,,,62.5,0.0,u,0.0,True,948.7000000029802,57.0,60.0,40.0,False,,300.4364028213306,[],"[653, 322]",ColorTask,19.0,43.0,,,HRV,HRV_0025,2022-11-30 18:05:35
,wl-rdm,51,149414,0.0-6.43-0.43,0.0,52.0,,,,,,,[],,,,,,50.0,1.0,i,1.0,True,812.3000000119209,49.0,60.0,40.0,False,,289.17061590486134,[],"[653, 322]",ColorTask,20.0,44.0,,,HRV,HRV_0025,2022-11-30 18:05:35
,wl-rdm,52,151847,0.0-6.44-0.44,0.0,53.0,,,,,,,[],,,,,,56.4,1.0,u,0.0,False,1087.6000000089407,66.0,60.0,40.0,False,,264.6750187961663,[],"[653, 322]",ColorTask,19.0,45.0,,,HRV,HRV_0025,2022-11-30 18:05:35
,wl-rdm,53,154047,0.0-6.45-0.45,0.0,54.0,,,,,,,[],,,,,,87.9,0.0,u,0.0,True,823.0,50.0,60.0,40.0,False,,299.33635556887225,[],"[653, 322]",ColorTask,20.0,46.0,,,HRV,HRV_0025,2022-11-30 18:05:35
,wl-rdm,54,156497,0.0-6.46-0.46,0.0,55.0,,,,,,,[],,,,,,50.0,1.0,i,1.0,True,1022.2999999970198,62.0,60.0,40.0,False,,347.35011543209487,[],"[653, 322]",ColorTask,21.0,47.0,,,HRV,HRV_0025,2022-11-30 18:05:35
,wl-rdm,55,158680,0.0-6.47-0.47,0.0,56.0,,,,,,,[],,,,,,62.5,0.0,u,0.0,True,883.0,53.0,60.0,40.0,False,,228.35637477144613,[],"[653, 322]",ColorTask,22.0,48.0,,,HRV,HRV_0025,2022-11-30 18:05:35
,wl-rdm,56,161030,0.0-6.48-0.48,0.0,57.0,,,,,,,[],,,,,,53.2,0.0,i,1.0,False,1025.6000000089407,62.0,60.0,40.0,False,,249.16125464771707,[],"[653, 322]",ColorTask,21.0,49.0,,,HRV,HRV_0025,2022-11-30 18:05:35
,wl-rdm,57,163230,0.0-6.49-0.49,0.0,58.0,,,,,,,[],,,,,,50.0,1.0,i,1.0,True,901.8000000119209,55.0,60.0,40.0,False,,212.62020030616713,[],"[653, 322]",ColorTask,22.0,50.0,,,HRV,HRV_0025,2022-11-30 18:05:35
,wl-rdm,58,165614,0.0-6.50-0.50,0.0,59.0,,,,,,,[],,,,,,56.4,0.0,u,0.0,True,1096.0999999940395,66.0,60.0,40.0,False,,210.82213087272225,[],"[653, 322]",ColorTask,23.0,51.0,,,HRV,HRV_0025,2022-11-30 18:05:35
,wl-rdm,59,168080,0.0-6.51-0.51,0.0,60.0,,,,,,,[],,,,,,53.2,1.0,u,0.0,False,1037.7999999970198,63.0,60.0,40.0,False,,340.5617735762708,[],"[653, 322]",ColorTask,22.0,52.0,,,HRV,HRV_0025,2022-11-30 18:05:35
,wl-rdm,60,170330,0.0-6.52-0.52,0.0,61.0,,,,,,,[],,,,,,73.6,0.0,u,0.0,True,911.7000000029802,55.0,60.0,40.0,False,,251.89997978000156,[],"[653, 322]",ColorTask,23.0,53.0,,,HRV,HRV_0025,2022-11-30 18:05:35
,wl-rdm,61,172864,0.0-6.53-0.53,0.0,62.0,,,,,,,[],,,,,,73.6,0.0,u,0.0,True,1066.6000000089407,64.0,60.0,40.0,False,,393.48038723700665,[],"[653, 322]",ColorTask,24.0,54.0,,,HRV,HRV_0025,2022-11-30 18:05:35
,wl-rdm,62,175230,0.0-6.54-0.54,0.0,63.0,,,,,,,[],,,,,,50.0,0.0,u,0.0,True,967.5999999940395,59.0,60.0,40.0,False,,326.83066730531016,[],"[653, 322]",ColorTask,25.0,55.0,,,HRV,HRV_0025,2022-11-30 18:05:35
,wl-rdm,63,177530,0.0-6.55-0.55,0.0,64.0,,,,,,,[],,,,,,73.6,1.0,i,1.0,True,998.9000000059605,60.0,60.0,40.0,False,,230.3876039758511,[],"[653, 322]",ColorTask,26.0,56.0,,,HRV,HRV_0025,2022-11-30 18:05:35
,wl-rdm,64,180197,0.0-6.56-0.56,0.0,65.0,,,,,,,[],,,,,,56.4,1.0,i,1.0,True,1270.7999999970198,77.0,60.0,40.0,False,,307.2861019734905,[],"[653, 322]",ColorTask,27.0,57.0,,,HRV,HRV_0025,2022-11-30 18:05:35
,wl-rdm,65,182631,0.0-6.57-0.57,0.0,66.0,,,,,,,[],,,,,,73.6,1.0,i,1.0,True,1031.7999999970198,62.0,60.0,40.0,False,,346.42375578456495,[],"[653, 322]",ColorTask,28.0,58.0,,,HRV,HRV_0025,2022-11-30 18:05:35
,wl-rdm,66,185214,0.0-6.58-0.58,0.0,67.0,,,,,,,[],,,,,,62.5,1.0,i,1.0,True,1119.6000000089407,68.0,60.0,40.0,False,,377.2899210213688,[],"[653, 322]",ColorTask,29.0,59.0,,,HRV,HRV_0025,2022-11-30 18:05:35
,wl-rdm,67,187447,0.0-6.59-0.59,0.0,68.0,,,,,,,[],,,,,,73.6,1.0,i,1.0,True,843.2000000029802,51.0,60.0,40.0,False,,312.3606578009047,[],"[653, 322]",ColorTask,30.0,60.0,,,HRV,HRV_0025,2022-11-30 18:05:35
,wl-rdm,68,189897,0.0-6.60-0.60,0.0,69.0,,,,,,,[],,,,,,87.9,1.0,i,1.0,True,982.9000000059605,59.0,60.0,40.0,False,,389.490293433194,[],"[653, 322]",ColorTask,31.0,61.0,,,HRV,HRV_0025,2022-11-30 18:05:35
,wl-rdm,69,192164,0.0-6.61-0.61,0.0,70.0,,,,,,,[],,,,,,87.9,1.0,i,1.0,True,837.0,51.0,60.0,40.0,False,,338.1202540285641,[],"[653, 322]",ColorTask,32.0,62.0,,,HRV,HRV_0025,2022-11-30 18:05:35
,wl-rdm,70,194297,0.0-6.62-0.62,0.0,71.0,,,,,,,[],,,,,,56.4,1.0,i,1.0,True,783.2000000029802,47.0,60.0,40.0,False,,271.6480602642091,[],"[653, 322]",ColorTask,33.0,63.0,,,HRV,HRV_0025,2022-11-30 18:05:35
,wl-rdm,71,196581,0.0-6.63-0.63,0.0,72.0,,,,,,,[],,,,,,50.0,0.0,i,1.0,False,994.0,60.0,60.0,40.0,False,,201.5797925191796,[],"[653, 322]",ColorTask,32.0,64.0,,,HRV,HRV_0025,2022-11-30 18:05:35
,wl-rdm,72,198914,0.0-6.64-0.64,0.0,73.0,,,,,,,[],,,,,,62.5,1.0,i,1.0,True,996.5,60.0,60.0,40.0,False,,261.4352026035281,[],"[653, 322]",ColorTask,33.0,65.0,,,HRV,HRV_0025,2022-11-30 18:05:35
,wl-rdm,73,201131,0.0-6.65-0.65,0.0,74.0,,,,,,,[],,,,,,87.9,0.0,u,0.0,True,783.9000000059605,48.0,60.0,40.0,False,,360.5574345034941,[],"[653, 322]",ColorTask,34.0,66.0,,,HRV,HRV_0025,2022-11-30 18:05:35
,wl-rdm,74,203364,0.0-6.66-0.66,0.0,75.0,,,,,,,[],,,,,,62.5,0.0,u,0.0,True,917.7999999970198,56.0,60.0,40.0,False,,245.6426062594286,[],"[653, 322]",ColorTask,35.0,67.0,,,HRV,HRV_0025,2022-11-30 18:05:35
,wl-rdm,75,205464,0.0-6.67-0.67,0.0,76.0,,,,,,,[],,,,,,62.5,1.0,i,1.0,True,761.8999999910593,46.0,60.0,40.0,False,,252.22418538584776,[],"[653, 322]",ColorTask,36.0,68.0,,,HRV,HRV_0025,2022-11-30 18:05:35
,wl-rdm,76,207514,0.0-6.68-0.68,0.0,77.0,,,,,,,[],,,,,,87.9,1.0,i,1.0,True,673.7000000029802,41.0,60.0,40.0,False,,288.5676804937838,[],"[653, 322]",ColorTask,37.0,69.0,,,HRV,HRV_0025,2022-11-30 18:05:35
,wl-rdm,77,209914,0.0-6.69-0.69,0.0,78.0,,,,,,,[],,,,,,50.0,0.0,u,0.0,True,949.0999999940395,57.0,60.0,40.0,False,,388.8205718264554,[],"[653, 322]",ColorTask,38.0,70.0,,,HRV,HRV_0025,2022-11-30 18:05:35
,wl-rdm,78,212181,0.0-6.70-0.70,0.0,79.0,,,,,,,[],,,,,,50.0,0.0,i,1.0,False,903.2000000029802,55.0,60.0,40.0,False,,283.1375404055398,[],"[653, 322]",ColorTask,37.0,71.0,,,HRV,HRV_0025,2022-11-30 18:05:35
,wl-rdm,79,214447,0.0-6.71-0.71,0.0,80.0,,,,,,,[],,,,,,53.2,0.0,u,0.0,True,850.0,51.0,60.0,40.0,False,,341.1687677484204,[],"[653, 322]",ColorTask,38.0,72.0,,,HRV,HRV_0025,2022-11-30 18:05:35
,wl-rdm,80,216714,0.0-6.72-0.72,0.0,81.0,,,,,,,[],,,,,,50.0,1.0,u,0.0,False,902.0999999940395,55.0,60.0,40.0,False,,269.49948986246056,[],"[653, 322]",ColorTask,37.0,73.0,,,HRV,HRV_0025,2022-11-30 18:05:35
,wl-rdm,81,219014,0.0-6.73-0.73,0.0,82.0,,,,,,,[],,,,,,73.6,0.0,i,1.0,False,863.7999999970198,52.0,60.0,40.0,False,,371.59500303538994,[],"[653, 322]",ColorTask,36.0,74.0,,,HRV,HRV_0025,2022-11-30 18:05:35
,wl-rdm,82,221414,0.0-6.74-0.74,0.0,83.0,,,,,,,[],,,,,,50.0,1.0,u,0.0,False,971.2000000029802,59.0,60.0,40.0,False,,348.3267285547313,[],"[653, 322]",ColorTask,35.0,75.0,,,HRV,HRV_0025,2022-11-30 18:05:35
,wl-rdm,83,223814,0.0-6.75-0.75,0.0,84.0,,,,,,,[],,,,,,53.2,1.0,i,1.0,True,998.7000000029802,60.0,60.0,40.0,False,,348.14695128407084,[],"[653, 322]",ColorTask,36.0,76.0,,,HRV,HRV_0025,2022-11-30 18:05:35
,wl-rdm,84,225931,0.0-6.76-0.76,0.0,85.0,,,,,,,[],,,,,,87.9,1.0,i,1.0,True,753.2000000029802,46.0,60.0,40.0,False,,269.0970097696912,[],"[653, 322]",ColorTask,37.0,77.0,,,HRV,HRV_0025,2022-11-30 18:05:35
,wl-rdm,85,228147,0.0-6.77-0.77,0.0,86.0,,,,,,,[],,,,,,87.9,1.0,i,1.0,True,773.6999999880791,47.0,60.0,40.0,False,,356.3209498562357,[],"[653, 322]",ColorTask,38.0,78.0,,,HRV,HRV_0025,2022-11-30 18:05:35
,wl-rdm,86,230481,0.0-6.78-0.78,0.0,87.0,,,,,,,[],,,,,,56.4,1.0,i,1.0,True,869.3999999910593,53.0,60.0,40.0,False,,382.68491566260417,[],"[653, 322]",ColorTask,39.0,79.0,,,HRV,HRV_0025,2022-11-30 18:05:35
,wl-rdm,87,232597,0.0-6.79-0.79,0.0,88.0,,,,,,,[],,,,,,87.9,0.0,u,0.0,True,802.5,49.0,60.0,40.0,False,,227.0075634208872,[],"[653, 322]",ColorTask,40.0,80.0,,,HRV,HRV_0025,2022-11-30 18:05:35
,wl-rdm,88,234731,0.0-6.80-0.80,0.0,89.0,,,,,,,[],,,,,,73.6,1.0,i,1.0,True,768.2000000029802,47.0,60.0,40.0,False,,267.8861328722003,[],"[653, 322]",ColorTask,41.0,81.0,,,HRV,HRV_0025,2022-11-30 18:05:35
,wl-rdm,89,237264,0.0-6.81-0.81,0.0,90.0,,,,,,,[],,,,,,53.2,1.0,i,1.0,True,1165.2999999970198,70.0,60.0,40.0,False,,286.5893841166975,[],"[653, 322]",ColorTask,42.0,82.0,,,HRV,HRV_0025,2022-11-30 18:05:35
,wl-rdm,90,239664,0.0-6.82-0.82,0.0,91.0,,,,,,,[],,,,,,53.2,0.0,i,1.0,False,1115.5,67.0,60.0,40.0,False,,203.21627785117929,[],"[653, 322]",ColorTask,41.0,83.0,,,HRV,HRV_0025,2022-11-30 18:05:35
,wl-rdm,91,241947,0.0-6.83-0.83,0.0,92.0,,,,,,,[],,,,,,56.4,0.0,u,0.0,True,901.0999999940395,55.0,60.0,40.0,False,,313.7973079855832,[],"[653, 322]",ColorTask,42.0,84.0,,,HRV,HRV_0025,2022-11-30 18:05:35
,wl-rdm,92,243964,0.0-6.84-0.84,0.0,93.0,,,,,,,[],,,,,,87.9,1.0,i,1.0,True,692.3000000119209,42.0,60.0,40.0,False,,237.85360190927918,[],"[653, 322]",ColorTask,43.0,85.0,,,HRV,HRV_0025,2022-11-30 18:05:35
,wl-rdm,93,246114,0.0-6.85-0.85,0.0,94.0,,,,,,,[],,,,,,73.6,0.0,u,0.0,True,802.1999999880791,49.0,60.0,40.0,False,,255.30012635826066,[],"[653, 322]",ColorTask,44.0,86.0,,,HRV,HRV_0025,2022-11-30 18:05:35
,wl-rdm,94,248698,0.0-6.86-0.86,0.0,95.0,,,,,,,[],,,,,,62.5,1.0,i,1.0,True,1242.8999999910593,75.0,60.0,40.0,False,,255.76942457818612,[],"[653, 322]",ColorTask,45.0,87.0,,,HRV,HRV_0025,2022-11-30 18:05:35
,wl-rdm,95,250981,0.0-6.87-0.87,0.0,96.0,,,,,,,[],,,,,,62.5,1.0,i,1.0,True,818.0,50.0,60.0,40.0,False,,373.84515483623676,[],"[653, 322]",ColorTask,46.0,88.0,,,HRV,HRV_0025,2022-11-30 18:05:35
,wl-rdm,96,253181,0.0-6.88-0.88,0.0,97.0,,,,,,,[],,,,,,62.5,1.0,i,1.0,True,837.0,51.0,60.0,40.0,False,,288.0658745060582,[],"[653, 322]",ColorTask,47.0,89.0,,,HRV,HRV_0025,2022-11-30 18:05:35
,wl-rdm,97,255297,0.0-6.89-0.89,0.0,98.0,,,,,,,[],,,,,,73.6,1.0,i,1.0,True,824.5,50.0,60.0,40.0,False,,212.03648896694435,[],"[653, 322]",ColorTask,48.0,90.0,,,HRV,HRV_0025,2022-11-30 18:05:35
,wl-rdm,98,257697,0.0-6.90-0.90,0.0,99.0,,,,,,,[],,,,,,53.2,1.0,i,1.0,True,953.4000000059605,58.0,60.0,40.0,False,,369.82312543815624,[],"[653, 322]",ColorTask,49.0,91.0,,,HRV,HRV_0025,2022-11-30 18:05:35
,wl-rdm,99,260064,0.0-6.91-0.91,0.0,100.0,,,,,,,[],,,,,,62.5,0.0,u,0.0,True,924.3999999910593,56.0,60.0,40.0,False,,356.33783900636877,[],"[653, 322]",ColorTask,50.0,92.0,,,HRV,HRV_0025,2022-11-30 18:05:35
,wl-rdm,100,262098,0.0-6.92-0.92,0.0,101.0,,,,,,,[],,,,,,87.9,0.0,u,0.0,True,647.8999999910593,39.0,60.0,40.0,False,,316.41246602219127,[],"[653, 322]",ColorTask,51.0,93.0,,,HRV,HRV_0025,2022-11-30 18:05:35
,wl-rdm,101,264064,0.0-6.93-0.93,0.0,102.0,,,,,,,[],,,,,,62.5,0.0,u,0.0,True,545.6000000089407,33.0,60.0,40.0,False,,349.02481112227713,[],"[653, 322]",ColorTask,52.0,94.0,,,HRV,HRV_0025,2022-11-30 18:05:35
,wl-rdm,102,266464,0.0-6.94-0.94,0.0,103.0,,,,,,,[],,,,,,53.2,0.0,u,0.0,True,1039.6000000089407,63.0,60.0,40.0,False,,282.96176326836866,[],"[653, 322]",ColorTask,53.0,95.0,,,HRV,HRV_0025,2022-11-30 18:05:35
,wl-rdm,103,268881,0.0-6.95-0.95,0.0,104.0,,,,,,,[],,,,,,50.0,1.0,i,1.0,True,936.2000000029802,57.0,60.0,40.0,False,,391.9499573920185,[],"[653, 322]",ColorTask,54.0,96.0,,,HRV,HRV_0025,2022-11-30 18:05:35
,wl-rdm,104,270881,0.0-6.96-0.96,0.0,105.0,,,,,,,[],,,,,,87.9,0.0,u,0.0,True,674.2000000029802,41.0,60.0,40.0,False,,251.01264186204816,[],"[653, 322]",ColorTask,55.0,97.0,,,HRV,HRV_0025,2022-11-30 18:05:35
,wl-rdm,105,272881,0.0-6.97-0.97,0.0,106.0,,,,,,,[],,,,,,87.9,0.0,u,0.0,True,716.5000000149012,43.0,60.0,40.0,False,,208.0164665037578,[],"[653, 322]",ColorTask,56.0,98.0,,,HRV,HRV_0025,2022-11-30 18:05:35
,wl-rdm,106,275047,0.0-6.98-0.98,0.0,107.0,,,,,,,[],,,,,,73.6,0.0,u,0.0,True,763.9000000059605,46.0,60.0,40.0,False,,330.13956406865395,[],"[653, 322]",ColorTask,57.0,99.0,,,HRV,HRV_0025,2022-11-30 18:05:35
,wl-rdm,107,277247,0.0-6.99-0.99,0.0,108.0,,,,,,,[],,,,,,73.6,0.0,u,0.0,True,738.5999999940395,45.0,60.0,40.0,False,,371.45038469029157,[],"[653, 322]",ColorTask,58.0,100.0,,,HRV,HRV_0025,2022-11-30 18:05:35
,wl-rdm,108,279631,0.0-6.100-0.100,0.0,109.0,,,,,,,[],,,,,,50.0,0.0,u,0.0,True,1018.0,62.0,60.0,40.0,False,,294.5124835400533,[],"[653, 322]",ColorTask,59.0,101.0,,,HRV,HRV_0025,2022-11-30 18:05:35
,wl-rdm,109,281847,0.0-6.101-0.101,0.0,110.0,,,,,,,[],,,,,,73.6,0.0,u,0.0,True,888.0,54.0,60.0,40.0,False,,235.313116214726,[],"[653, 322]",ColorTask,60.0,102.0,,,HRV,HRV_0025,2022-11-30 18:05:35
,wl-rdm,110,284247,0.0-6.102-0.102,0.0,111.0,,,,,,,[],,,,,,56.4,0.0,u,0.0,True,962.0,58.0,60.0,40.0,False,,351.8237234995485,[],"[653, 322]",ColorTask,61.0,103.0,,,HRV,HRV_0025,2022-11-30 18:05:35
,wl-rdm,111,286481,0.0-6.103-0.103,0.0,112.0,,,,,,,[],,,,,,87.9,1.0,i,1.0,True,795.2000000029802,48.0,60.0,40.0,False,,354.1648843393706,[],"[653, 322]",ColorTask,62.0,104.0,,,HRV,HRV_0025,2022-11-30 18:05:35
,wl-rdm,112,288797,0.0-6.104-0.104,0.0,113.0,,,,,,,[],,,,,,73.6,0.0,u,0.0,True,905.5,55.0,60.0,40.0,False,,320.1112430531507,[],"[653, 322]",ColorTask,63.0,105.0,,,HRV,HRV_0025,2022-11-30 18:05:35
,wl-rdm,113,291197,0.0-6.105-0.105,0.0,114.0,,,,,,,[],,,,,,53.2,1.0,i,1.0,True,1065.5,64.0,60.0,40.0,False,,259.2256448555923,[],"[653, 322]",ColorTask,64.0,106.0,,,HRV,HRV_0025,2022-11-30 18:05:35
,wl-rdm,114,293547,0.0-6.106-0.106,0.0,115.0,,,,,,,[],,,,,,56.4,1.0,i,1.0,True,1052.7000000029802,64.0,60.0,40.0,False,,201.0278925695641,[],"[653, 322]",ColorTask,65.0,107.0,,,HRV,HRV_0025,2022-11-30 18:05:35
,wl-rdm,115,295798,0.0-6.107-0.107,0.0,116.0,,,,,,,[],,,,,,50.0,0.0,i,1.0,False,854.1000000089407,52.0,60.0,40.0,False,,312.0582192184441,[],"[653, 322]",ColorTask,64.0,108.0,,,HRV,HRV_0025,2022-11-30 18:05:35
,wl-html-keyboard-response,116,403324,0.0-7.0-0.0,1.0,116.0,,,,,,,,105523.40000000596,1.0,0,,,,,,,,,,,,True,undefinedblurEvent ,,,,,,,,,HRV,HRV_0025,2022-11-30 18:05:35
,wl-rdm,117,405497,0.0-8.0-0.0,1.0,117.0,,,,,,,[],,,,,,53.2,0.0,u,0.0,True,819.2000000029802,50.0,60.0,40.0,False,,271.5694424043909,[],"[653, 322]",ColorTask,65.0,1.0,,,HRV,HRV_0025,2022-11-30 18:05:35
,wl-rdm,118,407580,0.0-8.1-0.1,1.0,118.0,,,,,,,[],,,,,,73.6,0.0,u,0.0,True,710.2999999970198,43.0,60.0,40.0,False,,291.2980260313202,[],"[653, 322]",ColorTask,66.0,2.0,,,HRV,HRV_0025,2022-11-30 18:05:35
,wl-rdm,119,409547,0.0-8.2-0.2,1.0,119.0,,,,,,,[],,,,,,87.9,0.0,u,0.0,True,521.5999999940395,32.0,60.0,40.0,False,,361.74300645263935,[],"[653, 322]",ColorTask,67.0,3.0,,,HRV,HRV_0025,2022-11-30 18:05:35
,wl-rdm,120,411630,0.0-8.3-0.3,1.0,120.0,,,,,,,[],,,,,,56.4,1.0,i,1.0,True,646.5,39.0,60.0,40.0,False,,370.5789650994037,[],"[653, 322]",ColorTask,68.0,4.0,,,HRV,HRV_0025,2022-11-30 18:05:35
,wl-rdm,121,413530,0.0-8.4-0.4,1.0,121.0,,,,,,,[],,,,,,73.6,1.0,i,1.0,True,543.2999999970198,33.0,60.0,40.0,False,,270.1847729313513,[],"[653, 322]",ColorTask,69.0,5.0,,,HRV,HRV_0025,2022-11-30 18:05:35
,wl-rdm,122,415630,0.0-8.5-0.5,1.0,122.0,,,,,,,[],,,,,,56.4,0.0,u,0.0,True,733.9000000059605,45.0,60.0,40.0,False,,280.5262592381439,[],"[653, 322]",ColorTask,70.0,6.0,,,HRV,HRV_0025,2022-11-30 18:05:35
,wl-rdm,123,417680,0.0-8.6-0.6,1.0,123.0,,,,,,,[],,,,,,50.0,1.0,i,1.0,True,705.3000000119209,43.0,60.0,40.0,False,,257.53557898721687,[],"[653, 322]",ColorTask,71.0,7.0,,,HRV,HRV_0025,2022-11-30 18:05:35
,wl-rdm,124,419814,0.0-8.7-0.7,1.0,124.0,,,,,,,[],,,,,,50.0,1.0,u,0.0,False,834.1999999880791,51.0,60.0,40.0,False,,224.81541940160162,[],"[653, 322]",ColorTask,70.0,8.0,,,HRV,HRV_0025,2022-11-30 18:05:35
,wl-rdm,125,421980,0.0-8.8-0.8,1.0,125.0,,,,,,,[],,,,,,73.6,0.0,i,1.0,False,761.2999999970198,46.0,60.0,40.0,False,,341.15716444587713,[],"[653, 322]",ColorTask,69.0,9.0,,,HRV,HRV_0025,2022-11-30 18:05:35
,wl-rdm,126,423797,0.0-8.9-0.9,1.0,126.0,,,,,,,[],,,,,,87.9,1.0,i,1.0,True,522.1000000089407,32.0,60.0,40.0,False,,211.41429890260792,[],"[653, 322]",ColorTask,70.0,10.0,,,HRV,HRV_0025,2022-11-30 18:05:35
,wl-rdm,127,425764,0.0-8.10-0.10,1.0,127.0,,,,,,,[],,,,,,87.9,0.0,u,0.0,True,635.0,39.0,60.0,40.0,False,,246.26939113620216,[],"[653, 322]",ColorTask,71.0,11.0,,,HRV,HRV_0025,2022-11-30 18:05:35
,wl-rdm,128,427914,0.0-8.11-0.11,1.0,128.0,,,,,,,[],,,,,,62.5,1.0,i,1.0,True,670.8999999910593,41.0,60.0,40.0,False,,398.39936746307876,[],"[653, 322]",ColorTask,72.0,12.0,,,HRV,HRV_0025,2022-11-30 18:05:35
,wl-rdm,129,429931,0.0-8.12-0.12,1.0,129.0,,,,,,,[],,,,,,62.5,1.0,i,1.0,True,697.0,42.0,60.0,40.0,False,,236.78057409467294,[],"[653, 322]",ColorTask,73.0,13.0,,,HRV,HRV_0025,2022-11-30 18:05:35
,wl-rdm,130,432331,0.0-8.13-0.13,1.0,130.0,,,,,,,[],,,,,,50.0,1.0,i,1.0,True,965.6000000089407,58.0,60.0,40.0,False,,367.75164070935324,[],"[653, 322]",ColorTask,74.0,14.0,,,HRV,HRV_0025,2022-11-30 18:05:35
,wl-rdm,131,434497,0.0-8.14-0.14,1.0,131.0,,,,,,,[],,,,,,50.0,0.0,i,1.0,False,722.5000000149012,44.0,60.0,40.0,False,,356.4210803585126,[],"[653, 322]",ColorTask,73.0,15.0,,,HRV,HRV_0025,2022-11-30 18:05:35
,wl-rdm,132,436447,0.0-8.15-0.15,1.0,132.0,,,,,,,[],,,,,,62.5,1.0,i,1.0,True,580.3999999910593,35.0,60.0,40.0,False,,286.52889430651794,[],"[653, 322]",ColorTask,74.0,16.0,,,HRV,HRV_0025,2022-11-30 18:05:35
,wl-rdm,133,438414,0.0-8.16-0.16,1.0,133.0,,,,,,,[],,,,,,87.9,0.0,u,0.0,True,643.5,39.0,60.0,40.0,False,,248.5625837013997,[],"[653, 322]",ColorTask,75.0,17.0,,,HRV,HRV_0025,2022-11-30 18:05:35
,wl-rdm,134,440697,0.0-8.17-0.17,1.0,134.0,,,,,,,[],,,,,,50.0,0.0,u,0.0,True,841.5,51.0,60.0,40.0,False,,364.48103060159565,[],"[653, 322]",ColorTask,76.0,18.0,,,HRV,HRV_0025,2022-11-30 18:05:35
,wl-rdm,135,442783,0.0-8.18-0.18,1.0,135.0,,,,,,,[],,,,,,62.5,0.0,u,0.0,True,768.2000000029802,47.0,60.0,40.0,False,,244.95056013814593,[],"[653, 322]",ColorTask,77.0,19.0,,,HRV,HRV_0025,2022-11-30 18:05:35
,wl-rdm,136,444897,0.0-8.19-0.19,1.0,136.0,,,,,,,[],,,,,,62.5,0.0,u,0.0,True,776.7000000029802,47.0,60.0,40.0,False,,279.33055689914875,[],"[653, 322]",ColorTask,78.0,20.0,,,HRV,HRV_0025,2022-11-30 18:05:35
,wl-rdm,137,446931,0.0-8.20-0.20,1.0,137.0,,,,,,,[],,,,,,50.0,1.0,u,0.0,False,688.0,42.0,60.0,40.0,False,,254.96586520693162,[],"[653, 322]",ColorTask,77.0,21.0,,,HRV,HRV_0025,2022-11-30 18:05:35
,wl-rdm,138,448897,0.0-8.21-0.21,1.0,138.0,,,,,,,[],,,,,,62.5,1.0,i,1.0,True,539.3000000119209,33.0,60.0,40.0,False,,343.5868016610301,[],"[653, 322]",ColorTask,78.0,22.0,,,HRV,HRV_0025,2022-11-30 18:05:35
,wl-rdm,139,451397,0.0-8.22-0.22,1.0,139.0,,,,,,,[],,,,,,56.4,1.0,i,1.0,True,1180.8999999910593,71.0,60.0,40.0,False,,235.81742802416966,[],"[653, 322]",ColorTask,79.0,23.0,,,HRV,HRV_0025,2022-11-30 18:05:35
,wl-rdm,140,453397,0.0-8.23-0.23,1.0,140.0,,,,,,,[],,,,,,73.6,0.0,u,0.0,True,655.7000000029802,40.0,60.0,40.0,False,,278.0407307536621,[],"[653, 322]",ColorTask,80.0,24.0,,,HRV,HRV_0025,2022-11-30 18:05:35
,wl-rdm,141,455997,0.0-8.24-0.24,1.0,141.0,,,,,,,[],,,,,,56.4,0.0,u,0.0,True,1147.5999999940395,69.0,60.0,40.0,False,,390.682783644981,[],"[653, 322]",ColorTask,81.0,25.0,,,HRV,HRV_0025,2022-11-30 18:05:35
,wl-rdm,142,458014,0.0-8.25-0.25,1.0,142.0,,,,,,,[],,,,,,87.9,0.0,u,0.0,True,628.0,38.0,60.0,40.0,False,,302.99068214496924,[],"[653, 322]",ColorTask,82.0,26.0,,,HRV,HRV_0025,2022-11-30 18:05:35
,wl-rdm,143,460164,0.0-8.26-0.26,1.0,143.0,,,,,,,[],,,,,,53.2,1.0,i,1.0,True,862.7999999970198,52.0,60.0,40.0,False,,207.67130165039512,[],"[653, 322]",ColorTask,83.0,27.0,,,HRV,HRV_0025,2022-11-30 18:05:35
,wl-rdm,144,462414,0.0-8.27-0.27,1.0,144.0,,,,,,,[],,,,,,62.5,1.0,i,1.0,True,918.7000000029802,56.0,60.0,40.0,False,,235.48155764512242,[],"[653, 322]",ColorTask,84.0,28.0,,,HRV,HRV_0025,2022-11-30 18:05:35
,wl-rdm,145,464514,0.0-8.28-0.28,1.0,145.0,,,,,,,[],,,,,,53.2,1.0,i,1.0,True,800.8000000119209,49.0,60.0,40.0,False,,230.96764072754678,[],"[653, 322]",ColorTask,85.0,29.0,,,HRV,HRV_0025,2022-11-30 18:05:35
,wl-rdm,146,466481,0.0-8.29-0.29,1.0,146.0,,,,,,,[],,,,,,87.9,0.0,u,0.0,True,600.9000000059605,37.0,60.0,40.0,False,,268.79783553477716,[],"[653, 322]",ColorTask,86.0,30.0,,,HRV,HRV_0025,2022-11-30 18:05:35
,wl-rdm,147,468764,0.0-8.30-0.30,1.0,147.0,,,,,,,[],,,,,,50.0,1.0,i,1.0,True,995.8000000119209,60.0,60.0,40.0,False,,200.59006307590695,[],"[653, 322]",ColorTask,87.0,31.0,,,HRV,HRV_0025,2022-11-30 18:05:35
,wl-rdm,148,470981,0.0-8.31-0.31,1.0,148.0,,,,,,,[],,,,,,53.2,0.0,i,1.0,False,870.7000000029802,53.0,60.0,40.0,False,,258.98965725390985,[],"[653, 322]",ColorTask,86.0,32.0,,,HRV,HRV_0025,2022-11-30 18:05:35
,wl-rdm,149,472931,0.0-8.32-0.32,1.0,149.0,,,,,,,[],,,,,,73.6,1.0,i,1.0,True,625.0,38.0,60.0,40.0,False,,242.7974941134729,[],"[653, 322]",ColorTask,87.0,33.0,,,HRV,HRV_0025,2022-11-30 18:05:35
,wl-rdm,150,475097,0.0-8.33-0.33,1.0,150.0,,,,,,,[],,,,,,53.2,1.0,u,0.0,False,715.0,43.0,60.0,40.0,False,,387.13665445017966,[],"[653, 322]",ColorTask,86.0,34.0,,,HRV,HRV_0025,2022-11-30 18:05:35
,wl-rdm,151,477447,0.0-8.34-0.34,1.0,151.0,,,,,,,[],,,,,,56.4,0.0,i,1.0,False,1016.0,61.0,60.0,40.0,False,,259.6484730670989,[],"[653, 322]",ColorTask,85.0,35.0,,,HRV,HRV_0025,2022-11-30 18:05:35
,wl-rdm,152,479681,0.0-8.35-0.35,1.0,152.0,,,,,,,[],,,,,,53.2,0.0,u,0.0,True,922.5999999940395,56.0,60.0,40.0,False,,218.78386305354854,[],"[653, 322]",ColorTask,86.0,36.0,,,HRV,HRV_0025,2022-11-30 18:05:35
,wl-rdm,153,481747,0.0-8.36-0.36,1.0,153.0,,,,,,,[],,,,,,53.2,1.0,i,1.0,True,662.7999999970198,40.0,60.0,40.0,False,,319.74707796738204,[],"[653, 322]",ColorTask,87.0,37.0,,,HRV,HRV_0025,2022-11-30 18:05:35
,wl-rdm,154,483914,0.0-8.37-0.37,1.0,154.0,,,,,,,[],,,,,,56.4,1.0,i,1.0,True,868.1999999880791,53.0,60.0,40.0,False,,202.92032767914185,[],"[653, 322]",ColorTask,88.0,38.0,,,HRV,HRV_0025,2022-11-30 18:05:35
,wl-rdm,155,485964,0.0-8.38-0.38,1.0,155.0,,,,,,,[],,,,,,56.4,0.0,i,1.0,False,757.2999999970198,46.0,60.0,40.0,False,,210.2114560520963,[],"[653, 322]",ColorTask,87.0,39.0,,,HRV,HRV_0025,2022-11-30 18:05:35
,wl-rdm,156,488347,0.0-8.39-0.39,1.0,156.0,,,,,,,[],,,,,,56.4,1.0,i,1.0,True,1084.8999999910593,66.0,60.0,40.0,False,,203.06791593059796,[],"[653, 322]",ColorTask,88.0,40.0,,,HRV,HRV_0025,2022-11-30 18:05:35
,wl-rdm,157,490630,0.0-8.40-0.40,1.0,157.0,,,,,,,[],,,,,,50.0,0.0,i,1.0,False,943.3999999910593,57.0,60.0,40.0,False,,257.6608819141222,[],"[653, 322]",ColorTask,87.0,41.0,,,HRV,HRV_0025,2022-11-30 18:05:35
,wl-rdm,158,493280,0.0-8.41-0.41,1.0,158.0,,,,,,,[],,,,,,50.0,0.0,i,1.0,False,1279.9000000059605,77.0,60.0,40.0,False,,293.6921314430585,[],"[653, 322]",ColorTask,86.0,42.0,,,HRV,HRV_0025,2022-11-30 18:05:35
,wl-rdm,159,495447,0.0-8.42-0.42,1.0,159.0,,,,,,,[],,,,,,73.6,1.0,i,1.0,True,763.9000000059605,46.0,60.0,40.0,False,,321.98910864084917,[],"[653, 322]",ColorTask,87.0,43.0,,,HRV,HRV_0025,2022-11-30 18:05:35
,wl-rdm,160,497647,0.0-8.43-0.43,1.0,160.0,,,,,,,[],,,,,,73.6,0.0,u,0.0,True,870.1999999880791,53.0,60.0,40.0,False,,263.87408338033106,[],"[653, 322]",ColorTask,88.0,44.0,,,HRV,HRV_0025,2022-11-30 18:05:35
,wl-rdm,161,499647,0.0-8.44-0.44,1.0,161.0,,,,,,,[],,,,,,73.6,1.0,i,1.0,True,656.2999999970198,40.0,60.0,40.0,False,,262.81673911794473,[],"[653, 322]",ColorTask,89.0,45.0,,,HRV,HRV_0025,2022-11-30 18:05:35
,wl-rdm,162,501797,0.0-8.45-0.45,1.0,162.0,,,,,,,[],,,,,,53.2,0.0,u,0.0,True,819.5,50.0,60.0,40.0,False,,255.9838449860939,[],"[653, 322]",ColorTask,90.0,46.0,,,HRV,HRV_0025,2022-11-30 18:05:35
,wl-rdm,163,503881,0.0-8.46-0.46,1.0,163.0,,,,,,,[],,,,,,73.6,0.0,i,1.0,False,790.0,48.0,60.0,40.0,False,,218.7400920137975,[],"[653, 322]",ColorTask,89.0,47.0,,,HRV,HRV_0025,2022-11-30 18:05:35
,wl-rdm,164,505914,0.0-8.47-0.47,1.0,164.0,,,,,,,[],,,,,,73.6,0.0,u,0.0,True,702.0999999940395,43.0,60.0,40.0,False,,262.51136017206596,[],"[653, 322]",ColorTask,90.0,48.0,,,HRV,HRV_0025,2022-11-30 18:05:35
,wl-rdm,165,508247,0.0-8.48-0.48,1.0,165.0,,,,,,,[],,,,,,62.5,0.0,i,1.0,False,1010.4000000059605,61.0,60.0,40.0,False,,237.92725652010938,[],"[653, 322]",ColorTask,89.0,49.0,,,HRV,HRV_0025,2022-11-30 18:05:35
,wl-rdm,166,510747,0.0-8.49-0.49,1.0,166.0,,,,,,,[],,,,,,53.2,1.0,i,1.0,True,1067.3999999910593,65.0,60.0,40.0,False,,335.41282333639987,[],"[653, 322]",ColorTask,90.0,50.0,,,HRV,HRV_0025,2022-11-30 18:05:35
,wl-rdm,167,513030,0.0-8.50-0.50,1.0,167.0,,,,,,,[],,,,,,62.5,0.0,u,0.0,True,932.0999999940395,56.0,60.0,40.0,False,,269.2034573769615,[],"[653, 322]",ColorTask,91.0,51.0,,,HRV,HRV_0025,2022-11-30 18:05:35
,wl-rdm,168,515064,0.0-8.51-0.51,1.0,168.0,,,,,,,[],,,,,,62.5,1.0,i,1.0,True,737.5,45.0,60.0,40.0,False,,202.6327610189841,[],"[653, 322]",ColorTask,92.0,52.0,,,HRV,HRV_0025,2022-11-30 18:05:35
,wl-rdm,169,517697,0.0-8.52-0.52,1.0,169.0,,,,,,,[],,,,,,50.0,0.0,u,0.0,True,1315.2999999970198,79.0,60.0,40.0,False,,237.1820291046447,[],"[653, 322]",ColorTask,93.0,53.0,,,HRV,HRV_0025,2022-11-30 18:05:35
,wl-rdm,170,519814,0.0-8.53-0.53,1.0,170.0,,,,,,,[],,,,,,56.4,1.0,i,1.0,True,825.6999999880791,50.0,60.0,40.0,False,,201.95242487296625,[],"[653, 322]",ColorTask,94.0,54.0,,,HRV,HRV_0025,2022-11-30 18:05:35
,wl-rdm,171,522197,0.0-8.54-0.54,1.0,171.0,,,,,,,[],,,,,,62.5,1.0,i,1.0,True,1078.2999999970198,65.0,60.0,40.0,False,,216.60949354747243,[],"[653, 322]",ColorTask,95.0,55.0,,,HRV,HRV_0025,2022-11-30 18:05:35
,wl-rdm,172,524214,0.0-8.55-0.55,1.0,172.0,,,,,,,[],,,,,,87.9,1.0,i,1.0,True,602.2000000029802,37.0,60.0,40.0,False,,331.32384700197696,[],"[653, 322]",ColorTask,96.0,56.0,,,HRV,HRV_0025,2022-11-30 18:05:35
,wl-rdm,173,526530,0.0-8.56-0.56,1.0,173.0,,,,,,,[],,,,,,56.4,1.0,i,1.0,True,838.0999999940395,51.0,60.0,40.0,False,,387.83049767226237,[],"[653, 322]",ColorTask,97.0,57.0,,,HRV,HRV_0025,2022-11-30 18:05:35
,wl-rdm,174,528747,0.0-8.57-0.57,1.0,174.0,,,,,,,[],,,,,,50.0,1.0,i,1.0,True,901.5,55.0,60.0,40.0,False,,230.46851972384587,[],"[653, 322]",ColorTask,98.0,58.0,,,HRV,HRV_0025,2022-11-30 18:05:35
,wl-rdm,175,530814,0.0-8.58-0.58,1.0,175.0,,,,,,,[],,,,,,50.0,0.0,i,1.0,False,758.7000000029802,46.0,60.0,40.0,False,,231.74711052947066,[],"[653, 322]",ColorTask,97.0,59.0,,,HRV,HRV_0025,2022-11-30 18:05:35
,wl-rdm,176,532980,0.0-8.59-0.59,1.0,176.0,,,,,,,[],,,,,,62.5,1.0,i,1.0,True,899.0999999940395,54.0,60.0,40.0,False,,204.2052944106806,[],"[653, 322]",ColorTask,98.0,60.0,,,HRV,HRV_0025,2022-11-30 18:05:35
,wl-rdm,177,535747,0.0-8.60-0.60,1.0,177.0,,,,,,,[],,,,,,50.0,1.0,u,0.0,False,1424.0999999940395,86.0,60.0,40.0,False,,282.45125125814997,[],"[653, 322]",ColorTask,97.0,61.0,,,HRV,HRV_0025,2022-11-30 18:05:35
,wl-rdm,178,537564,0.0-8.61-0.61,1.0,178.0,,,,,,,[],,,,,,87.9,1.0,i,1.0,True,531.2999999970198,32.0,60.0,40.0,False,,204.03594383001135,[],"[653, 322]",ColorTask,98.0,62.0,,,HRV,HRV_0025,2022-11-30 18:05:35
,wl-rdm,179,539430,0.0-8.62-0.62,1.0,179.0,,,,,,,[],,,,,,87.9,1.0,i,1.0,True,544.5,33.0,60.0,40.0,False,,246.67237207245915,[],"[653, 322]",ColorTask,99.0,63.0,,,HRV,HRV_0025,2022-11-30 18:05:35
,wl-rdm,180,541414,0.0-8.63-0.63,1.0,180.0,,,,,,,[],,,,,,87.9,0.0,u,0.0,True,693.4000000059605,42.0,60.0,40.0,False,,207.82095262807653,[],"[653, 322]",ColorTask,100.0,64.0,,,HRV,HRV_0025,2022-11-30 18:05:35
,wl-rdm,181,543647,0.0-8.64-0.64,1.0,181.0,,,,,,,[],,,,,,87.9,0.0,u,0.0,True,771.6000000089407,47.0,60.0,40.0,False,,374.9741396798504,[],"[653, 322]",ColorTask,101.0,65.0,,,HRV,HRV_0025,2022-11-30 18:05:35
,wl-rdm,182,546280,0.0-8.65-0.65,1.0,182.0,,,,,,,[],,,,,,53.2,0.0,u,0.0,True,1291.199999988079,78.0,60.0,40.0,False,,263.99418609438976,[],"[653, 322]",ColorTask,102.0,66.0,,,HRV,HRV_0025,2022-11-30 18:05:35
,wl-rdm,183,549080,0.0-8.66-0.66,1.0,183.0,,,,,,,[],,,,,,56.4,0.0,i,1.0,False,1446.5,87.0,60.0,40.0,False,,269.4262959322586,[],"[653, 322]",ColorTask,101.0,67.0,,,HRV,HRV_0025,2022-11-30 18:05:35
,wl-rdm,184,551264,0.0-8.67-0.67,1.0,184.0,,,,,,,[],,,,,,56.4,1.0,i,1.0,True,794.7000000029802,48.0,60.0,40.0,False,,310.22504892288794,[],"[653, 322]",ColorTask,102.0,68.0,,,HRV,HRV_0025,2022-11-30 18:05:35
,wl-rdm,185,553330,0.0-8.68-0.68,1.0,185.0,,,,,,,[],,,,,,50.0,0.0,i,1.0,False,725.0999999940395,44.0,60.0,40.0,False,,250.66967489397746,[],"[653, 322]",ColorTask,101.0,69.0,,,HRV,HRV_0025,2022-11-30 18:05:35
,wl-rdm,186,555730,0.0-8.69-0.69,1.0,186.0,,,,,,,[],,,,,,56.4,0.0,u,0.0,True,1044.0999999940395,63.0,60.0,40.0,False,,274.2769217621457,[],"[653, 322]",ColorTask,102.0,70.0,,,HRV,HRV_0025,2022-11-30 18:05:35
,wl-rdm,187,558230,0.0-8.70-0.70,1.0,187.0,,,,,,,[],,,,,,56.4,1.0,i,1.0,True,1051.8999999910593,64.0,60.0,40.0,False,,361.4169972715095,[],"[653, 322]",ColorTask,103.0,71.0,,,HRV,HRV_0025,2022-11-30 18:05:35
,wl-rdm,188,560464,0.0-8.71-0.71,1.0,188.0,,,,,,,[],,,,,,62.5,0.0,u,0.0,True,888.5999999940395,54.0,60.0,40.0,False,,269.23611030402094,[],"[653, 322]",ColorTask,104.0,72.0,,,HRV,HRV_0025,2022-11-30 18:05:35
,wl-rdm,189,562797,0.0-8.72-0.72,1.0,189.0,,,,,,,[],,,,,,50.0,1.0,i,1.0,True,1038.7000000029802,63.0,60.0,40.0,False,,222.88391440453066,[],"[653, 322]",ColorTask,105.0,73.0,,,HRV,HRV_0025,2022-11-30 18:05:35
,wl-rdm,190,565180,0.0-8.73-0.73,1.0,190.0,,,,,,,[],,,,,,50.0,0.0,i,1.0,False,906.8999999910593,55.0,60.0,40.0,False,,389.5585658664197,[],"[653, 322]",ColorTask,104.0,74.0,,,HRV,HRV_0025,2022-11-30 18:05:35
,wl-rdm,191,567214,0.0-8.74-0.74,1.0,191.0,,,,,,,[],,,,,,73.6,1.0,i,1.0,True,643.0,39.0,60.0,40.0,False,,310.82189876267205,[],"[653, 322]",ColorTask,105.0,75.0,,,HRV,HRV_0025,2022-11-30 18:05:35
,wl-rdm,192,569680,0.0-8.75-0.75,1.0,192.0,,,,,,,[],,,,,,56.4,0.0,i,1.0,False,1092.0,66.0,60.0,40.0,False,,306.82273961781794,[],"[653, 322]",ColorTask,104.0,76.0,,,HRV,HRV_0025,2022-11-30 18:05:35
,wl-rdm,193,572280,0.0-8.76-0.76,1.0,193.0,,,,,,,[],,,,,,56.4,0.0,u,0.0,True,1250.800000011921,76.0,60.0,40.0,False,,266.20358351449244,[],"[653, 322]",ColorTask,105.0,77.0,,,HRV,HRV_0025,2022-11-30 18:05:35
,wl-rdm,194,574397,0.0-8.77-0.77,1.0,194.0,,,,,,,[],,,,,,87.9,1.0,i,1.0,True,690.5999999940395,42.0,60.0,40.0,False,,343.4006707117649,[],"[653, 322]",ColorTask,106.0,78.0,,,HRV,HRV_0025,2022-11-30 18:05:35
,wl-rdm,195,576797,0.0-8.78-0.78,1.0,195.0,,,,,,,[],,,,,,53.2,1.0,u,0.0,False,1041.0999999940395,63.0,60.0,40.0,False,,290.1841396889588,[],"[653, 322]",ColorTask,105.0,79.0,,,HRV,HRV_0025,2022-11-30 18:05:35
,wl-rdm,196,579297,0.0-8.79-0.79,1.0,196.0,,,,,,,[],,,,,,50.0,1.0,i,1.0,True,1062.6000000089407,64.0,60.0,40.0,False,,362.6432407451029,[],"[653, 322]",ColorTask,106.0,80.0,,,HRV,HRV_0025,2022-11-30 18:05:35
,wl-rdm,197,581214,0.0-8.80-0.80,1.0,197.0,,,,,,,[],,,,,,73.6,1.0,i,1.0,True,606.1000000089407,37.0,60.0,40.0,False,,218.1406774013925,[],"[653, 322]",ColorTask,107.0,81.0,,,HRV,HRV_0025,2022-11-30 18:05:35
,wl-rdm,198,583497,0.0-8.81-0.81,1.0,198.0,,,,,,,[],,,,,,53.2,1.0,u,0.0,False,984.0,60.0,60.0,40.0,False,,226.06692601243986,[],"[653, 322]",ColorTask,106.0,82.0,,,HRV,HRV_0025,2022-11-30 18:05:35
,wl-rdm,199,585430,0.0-8.82-0.82,1.0,199.0,,,,,,,[],,,,,,87.9,1.0,i,1.0,True,640.0999999940395,39.0,60.0,40.0,False,,203.44584576521447,[],"[653, 322]",ColorTask,107.0,83.0,,,HRV,HRV_0025,2022-11-30 18:05:35
,wl-rdm,200,587347,0.0-8.83-0.83,1.0,200.0,,,,,,,[],,,,,,87.9,1.0,i,1.0,True,559.4000000059605,34.0,60.0,40.0,False,,267.6010338024442,[],"[653, 322]",ColorTask,108.0,84.0,,,HRV,HRV_0025,2022-11-30 18:05:35
,wl-rdm,201,589330,0.0-8.84-0.84,1.0,201.0,,,,,,,[],,,,,,87.9,0.0,u,0.0,True,693.6999999880791,42.0,60.0,40.0,False,,209.5375822358473,[],"[653, 322]",ColorTask,109.0,85.0,,,HRV,HRV_0025,2022-11-30 18:05:35
,wl-rdm,202,592030,0.0-8.85-0.85,1.0,202.0,,,,,,,[],,,,,,62.5,0.0,i,1.0,False,1328.6000000089407,80.0,60.0,40.0,False,,305.42360439890444,[],"[653, 322]",ColorTask,108.0,86.0,,,HRV,HRV_0025,2022-11-30 18:05:35
,wl-rdm,203,594697,0.0-8.86-0.86,1.0,203.0,,,,,,,[],,,,,,53.2,1.0,i,1.0,True,1365.2000000029802,82.0,60.0,40.0,False,,221.47629843187792,[],"[653, 322]",ColorTask,109.0,87.0,,,HRV,HRV_0025,2022-11-30 18:05:35
,wl-rdm,204,597181,0.0-8.87-0.87,1.0,204.0,,,,,,,[],,,,,,50.0,0.0,u,0.0,True,1168.1000000089407,71.0,60.0,40.0,False,,221.0128566128071,[],"[653, 322]",ColorTask,110.0,88.0,,,HRV,HRV_0025,2022-11-30 18:05:35
,wl-rdm,205,599464,0.0-8.88-0.88,1.0,205.0,,,,,,,[],,,,,,73.6,0.0,u,0.0,True,925.7999999970198,56.0,60.0,40.0,False,,269.8913955975945,[],"[653, 322]",ColorTask,111.0,89.0,,,HRV,HRV_0025,2022-11-30 18:05:35
,wl-rdm,206,601997,0.0-8.89-0.89,1.0,206.0,,,,,,,[],,,,,,62.5,0.0,u,0.0,True,1091.7000000029802,66.0,60.0,40.0,False,,353.5103167330302,[],"[653, 322]",ColorTask,112.0,90.0,,,HRV,HRV_0025,2022-11-30 18:05:35
,wl-rdm,207,604230,0.0-8.90-0.90,1.0,207.0,,,,,,,[],,,,,,73.6,1.0,i,1.0,True,888.1000000089407,54.0,60.0,40.0,False,,260.78871171065526,[],"[653, 322]",ColorTask,113.0,91.0,,,HRV,HRV_0025,2022-11-30 18:05:35
,wl-rdm,208,606630,0.0-8.91-0.91,1.0,208.0,,,,,,,[],,,,,,62.5,1.0,i,1.0,True,945.3999999910593,57.0,60.0,40.0,False,,375.16977911514334,[],"[653, 322]",ColorTask,114.0,92.0,,,HRV,HRV_0025,2022-11-30 18:05:35
,wl-rdm,209,608547,0.0-8.92-0.92,1.0,209.0,,,,,,,[],,,,,,87.9,0.0,u,0.0,True,621.2999999970198,38.0,60.0,40.0,False,,212.38171382961937,[],"[653, 322]",ColorTask,115.0,93.0,,,HRV,HRV_0025,2022-11-30 18:05:35
,wl-rdm,210,610963,0.0-8.93-0.93,1.0,210.0,,,,,,,[],,,,,,56.4,0.0,u,0.0,True,1149.0,69.0,60.0,40.0,False,,209.65523372060525,[],"[653, 322]",ColorTask,116.0,94.0,,,HRV,HRV_0025,2022-11-30 18:05:35
,wl-rdm,211,613113,0.0-8.94-0.94,1.0,211.0,,,,,,,[],,,,,,73.6,1.0,i,1.0,True,835.9000000059605,51.0,60.0,40.0,False,,234.26441583877752,[],"[653, 322]",ColorTask,117.0,95.0,,,HRV,HRV_0025,2022-11-30 18:05:35
,wl-rdm,212,615780,0.0-8.95-0.95,1.0,212.0,,,,,,,[],,,,,,53.2,0.0,i,1.0,False,1247.4000000059605,75.0,60.0,40.0,False,,340.09444693579826,[],"[653, 322]",ColorTask,116.0,96.0,,,HRV,HRV_0025,2022-11-30 18:05:35
,wl-rdm,213,617846,0.0-8.96-0.96,1.0,213.0,,,,,,,[],,,,,,87.9,1.0,i,1.0,True,660.5999999940395,40.0,60.0,40.0,False,,328.65017515404156,[],"[653, 322]",ColorTask,117.0,97.0,,,HRV,HRV_0025,2022-11-30 18:05:35
,wl-rdm,214,619813,0.0-8.97-0.97,1.0,214.0,,,,,,,[],,,,,,73.6,0.0,u,0.0,True,615.5,37.0,60.0,40.0,False,,284.98348217416935,[],"[653, 322]",ColorTask,118.0,98.0,,,HRV,HRV_0025,2022-11-30 18:05:35
,wl-rdm,215,622463,0.0-8.98-0.98,1.0,215.0,,,,,,,[],,,,,,62.5,0.0,i,1.0,False,1286.7000000029802,78.0,60.0,40.0,False,,277.3643700951985,[],"[653, 322]",ColorTask,117.0,99.0,,,HRV,HRV_0025,2022-11-30 18:05:35
,wl-rdm,216,625030,0.0-8.99-0.99,1.0,216.0,,,,,,,[],,,,,,53.2,0.0,u,0.0,True,1291.6000000089407,78.0,60.0,40.0,False,,211.70825288498997,[],"[653, 322]",ColorTask,118.0,100.0,,,HRV,HRV_0025,2022-11-30 18:05:35
,wl-rdm,217,627363,0.0-8.100-0.100,1.0,217.0,,,,,,,[],,,,,,73.6,1.0,i,1.0,True,891.5999999940395,54.0,60.0,40.0,False,,357.77663506720955,[],"[653, 322]",ColorTask,119.0,101.0,,,HRV,HRV_0025,2022-11-30 18:05:35
,wl-rdm,218,630247,0.0-8.101-0.101,1.0,218.0,,,,,,,[],,,,,,53.2,1.0,i,1.0,True,1477.5,89.0,60.0,40.0,False,,333.29829604983576,[],"[653, 322]",ColorTask,120.0,102.0,,,HRV,HRV_0025,2022-11-30 18:05:35
,wl-rdm,219,632863,0.0-8.102-0.102,1.0,219.0,,,,,,,[],,,,,,56.4,1.0,i,1.0,True,1255.300000011921,76.0,60.0,40.0,False,,275.9529933885865,[],"[653, 322]",ColorTask,121.0,103.0,,,HRV,HRV_0025,2022-11-30 18:05:35
,wl-rdm,220,635163,0.0-8.103-0.103,1.0,220.0,,,,,,,[],,,,,,62.5,0.0,u,0.0,True,1027.9000000059605,62.0,60.0,40.0,False,,211.2520255038414,[],"[653, 322]",ColorTask,122.0,104.0,,,HRV,HRV_0025,2022-11-30 18:05:35
,wl-rdm,221,637630,0.0-8.104-0.104,1.0,221.0,,,,,,,[],,,,,,53.2,0.0,u,0.0,True,1170.9000000059605,71.0,60.0,40.0,False,,210.3792558904755,[],"[653, 322]",ColorTask,123.0,105.0,,,HRV,HRV_0025,2022-11-30 18:05:35
,wl-rdm,222,639863,0.0-8.105-0.105,1.0,222.0,,,,,,,[],,,,,,73.6,0.0,u,0.0,True,869.7999999970198,53.0,60.0,40.0,False,,282.4360655800861,[],"[653, 322]",ColorTask,124.0,106.0,,,HRV,HRV_0025,2022-11-30 18:05:35
,wl-rdm,223,642030,0.0-8.106-0.106,1.0,223.0,,,,,,,[],,,,,,87.9,1.0,i,1.0,True,774.6000000089407,47.0,60.0,40.0,False,,332.7014035972886,[],"[653, 322]",ColorTask,125.0,107.0,,,HRV,HRV_0025,2022-11-30 18:05:35
,wl-rdm,224,644647,0.0-8.107-0.107,1.0,224.0,,,,,,,[],,,,,,53.2,0.0,u,0.0,True,1226.5,74.0,60.0,40.0,False,,321.3528283206049,[],"[653, 322]",ColorTask,126.0,108.0,,,HRV,HRV_0025,2022-11-30 18:05:35
,wl-html-button-response,225,650700,0.0-9.0-0.0,,,,,,,,,,6051.70000000298,,0,,,,,,,,,,,,,,,,,,,,<h3>End of this session. Thank you!</h3><br>,['Close window'],HRV,HRV_0025,2022-11-30 18:05:35
