trialN,stimuli,trialStartTime,trialStartTime_UNIX,stimulus1,stimulus2,stimulus1Bid,stimulus2Bid,delta,selected,rt,rt_UNIX,rt_perfnow,receivedResponse,rsp,trialEndTime,trialDuration,trialEndTime_UNIX,trialDuration_UNIX,exp,subjectId,date
0,"[{'imgObject': {}, 'id': 'apple slices', 'src': '/static/foodstim60/apple slices.jpg', 'key': 'u', 'origWidth': 409, 'origHeight': 410, 'width': 409, 'height': 410, 'widthPercent': 0.45, 'rescaleHeight': False, 'trialN': 0, 'loaded': True, 'loadedTime': 2817, 'positionName': 'LEFT', 'positionCoords': [328.28, 227], 'bid': 9.01}, {'imgObject': {}, 'id': 'eggsalad', 'src': '/static/foodstim60/eggsalad.jpg', 'key': 'i', 'origWidth': 410, 'origHeight': 409, 'width': 410, 'height': 409, 'widthPercent': 0.45, 'rescaleHeight': False, 'trialN': 0, 'loaded': True, 'loadedTime': 2845.300000011921, 'positionName': 'RIGHT', 'positionCoords': [798.72, 227.5], 'bid': 7.18}]",3245.0,1669830008329,apple slices,eggsalad,9.01,7.18,-1.83,apple slices,1128.1000000238419,1129,1129.1000000238419,True,u,4880.300000011921,1635.300000011921,1669830009964,1635,HRV,HRV_0094,2022-11-30 17:47:23
1,"[{'imgObject': {}, 'id': 'grilled chicken strips', 'src': '/static/foodstim60/grilled chicken strips.jpg', 'key': 'u', 'origWidth': 410, 'origHeight': 411, 'width': 410, 'height': 411, 'widthPercent': 0.45, 'rescaleHeight': False, 'trialN': 1, 'loaded': True, 'loadedTime': 2849.300000011921, 'positionName': 'LEFT', 'positionCoords': [327.28, 226.5], 'bid': 7.890000000000001}, {'imgObject': {}, 'id': 'fruitsalad', 'src': '/static/foodstim60/fruitsalad.jpg', 'key': 'i', 'origWidth': 410, 'origHeight': 410, 'width': 410, 'height': 410, 'widthPercent': 0.45, 'rescaleHeight': False, 'trialN': 1, 'loaded': True, 'loadedTime': 2851, 'positionName': 'RIGHT', 'positionCoords': [798.72, 227], 'bid': 6.78}]",4880.700000047684,1669830009965,grilled chicken strips,fruitsalad,7.890000000000001,6.78,-1.1100000000000003,fruitsalad,848,848,848.7999999523163,True,i,6231.400000035763,1350.699999988079,1669830011315,1350,HRV,HRV_0094,2022-11-30 17:47:23
2,"[{'imgObject': {}, 'id': 'roastedpotatoes', 'src': '/static/foodstim60/roastedpotatoes.jpg', 'key': 'u', 'origWidth': 409, 'origHeight': 410, 'width': 409, 'height': 410, 'widthPercent': 0.45, 'rescaleHeight': False, 'trialN': 2, 'loaded': True, 'loadedTime': 2852.2000000476837, 'positionName': 'LEFT', 'positionCoords': [328.28, 227], 'bid': 8.72}, {'imgObject': {}, 'id': 'tacos', 'src': '/static/foodstim60/tacos.jpg', 'key': 'i', 'origWidth': 411, 'origHeight': 411, 'width': 411, 'height': 411, 'widthPercent': 0.45, 'rescaleHeight': False, 'trialN': 2, 'loaded': True, 'loadedTime': 2855.600000023842, 'positionName': 'RIGHT', 'positionCoords': [798.72, 226.5], 'bid': 9.17}]",6232.200000047684,1669830011316,roastedpotatoes,tacos,8.72,9.17,0.4499999999999993,roastedpotatoes,760.5,761,760.8999999761581,True,u,7497.100000023842,1264.8999999761581,1669830012581,1265,HRV,HRV_0094,2022-11-30 17:47:23
3,"[{'imgObject': {}, 'id': 'turkeysandwich', 'src': '/static/foodstim60/turkeysandwich.jpg', 'key': 'u', 'origWidth': 409, 'origHeight': 409, 'width': 409, 'height': 409, 'widthPercent': 0.45, 'rescaleHeight': False, 'trialN': 3, 'loaded': True, 'loadedTime': 2859.7000000476837, 'positionName': 'LEFT', 'positionCoords': [328.28, 227.5], 'bid': 3.72}, {'imgObject': {}, 'id': 'mashed potato', 'src': '/static/foodstim60/mashed potato.jpg', 'key': 'i', 'origWidth': 409, 'origHeight': 409, 'width': 409, 'height': 409, 'widthPercent': 0.45, 'rescaleHeight': False, 'trialN': 3, 'loaded': True, 'loadedTime': 2861.300000011921, 'positionName': 'RIGHT', 'positionCoords': [798.72, 227.5], 'bid': 9.01}]",7498.100000023842,1669830012582,turkeysandwich,mashed potato,3.72,9.01,5.289999999999999,mashed potato,866.6999999880791,868,867.6000000238419,True,i,8882.5,1384.3999999761581,1669830013967,1385,HRV,HRV_0094,2022-11-30 17:47:23
4,"[{'imgObject': {}, 'id': 'ice cream sundae 002', 'src': '/static/foodstim60/ice cream sundae 002.jpg', 'key': 'u', 'origWidth': 409, 'origHeight': 409, 'width': 409, 'height': 409, 'widthPercent': 0.45, 'rescaleHeight': False, 'trialN': 4, 'loaded': True, 'loadedTime': 2863.5, 'positionName': 'LEFT', 'positionCoords': [328.28, 227.5], 'bid': 5.92}, {'imgObject': {}, 'id': 'Tribe humus pita', 'src': '/static/foodstim60/Tribe humus pita.jpg', 'key': 'i', 'origWidth': 411, 'origHeight': 411, 'width': 411, 'height': 411, 'widthPercent': 0.45, 'rescaleHeight': False, 'trialN': 4, 'loaded': True, 'loadedTime': 2867.2000000476837, 'positionName': 'RIGHT', 'positionCoords': [798.72, 226.5], 'bid': 5.88}]",8883.300000011921,1669830013967,ice cream sundae 002,Tribe humus pita,5.92,5.88,-0.040000000000000036,Tribe humus pita,601.6999999880791,604,603.3000000119209,True,i,9995.800000011921,1112.5,1669830015080,1113,HRV,HRV_0094,2022-11-30 17:47:23
5,"[{'imgObject': {}, 'id': 'pear', 'src': '/static/foodstim60/pear.jpg', 'key': 'u', 'origWidth': 411, 'origHeight': 410, 'width': 411, 'height': 410, 'widthPercent': 0.45, 'rescaleHeight': False, 'trialN': 5, 'loaded': True, 'loadedTime': 2869.2000000476837, 'positionName': 'LEFT', 'positionCoords': [326.28, 227], 'bid': 8.17}, {'imgObject': {}, 'id': 'chickenfingers', 'src': '/static/foodstim60/chickenfingers.jpg', 'key': 'i', 'origWidth': 410, 'origHeight': 410, 'width': 410, 'height': 410, 'widthPercent': 0.45, 'rescaleHeight': False, 'trialN': 5, 'loaded': True, 'loadedTime': 2871.2000000476837, 'positionName': 'RIGHT', 'positionCoords': [798.72, 227], 'bid': 9.11}]",9996.700000047684,1669830015081,pear,chickenfingers,8.17,9.11,0.9399999999999995,chickenfingers,642.2999999523163,643,643.7999999523163,True,i,11147.800000011921,1151.0999999642372,1669830016232,1151,HRV,HRV_0094,2022-11-30 17:47:23
6,"[{'imgObject': {}, 'id': 'apple slices', 'src': '/static/foodstim60/apple slices.jpg', 'key': 'u', 'origWidth': 409, 'origHeight': 410, 'width': 409, 'height': 410, 'widthPercent': 0.45, 'rescaleHeight': False, 'trialN': 6, 'loaded': True, 'loadedTime': 2804.400000035763, 'positionName': 'LEFT', 'positionCoords': [328.28, 227], 'bid': 9.01}, {'imgObject': {}, 'id': 'banana', 'src': '/static/foodstim60/banana.jpg', 'key': 'i', 'origWidth': 410, 'origHeight': 410, 'width': 410, 'height': 410, 'widthPercent': 0.45, 'rescaleHeight': False, 'trialN': 6, 'loaded': True, 'loadedTime': 2876.300000011921, 'positionName': 'RIGHT', 'positionCoords': [798.72, 227], 'bid': 8.47}]",11148.800000011921,1669830016233,apple slices,banana,9.01,8.47,-0.5399999999999991,apple slices,687.1999999880791,688,688.1000000238419,True,u,12357.400000035763,1208.6000000238419,1669830017441,1208,HRV,HRV_0094,2022-11-30 17:47:23
7,"[{'imgObject': {}, 'id': 'hotdog w must', 'src': '/static/foodstim60/hotdog w must.jpg', 'key': 'u', 'origWidth': 409, 'origHeight': 409, 'width': 409, 'height': 409, 'widthPercent': 0.45, 'rescaleHeight': False, 'trialN': 7, 'loaded': True, 'loadedTime': 2882.800000011921, 'positionName': 'LEFT', 'positionCoords': [328.28, 227.5], 'bid': 0.16}, {'imgObject': {}, 'id': 'froot loops w milk', 'src': '/static/foodstim60/froot loops w milk.jpg', 'key': 'i', 'origWidth': 410, 'origHeight': 410, 'width': 410, 'height': 410, 'widthPercent': 0.45, 'rescaleHeight': False, 'trialN': 7, 'loaded': True, 'loadedTime': 2884.100000023842, 'positionName': 'RIGHT', 'positionCoords': [798.72, 227], 'bid': 0.31}]",12358.0,1669830017442,hotdog w must,froot loops w milk,0.16,0.31,0.15,froot loops w milk,519.4000000357628,522,521.6000000238419,True,i,13389.700000047684,1031.7000000476837,1669830018474,1032,HRV,HRV_0094,2022-11-30 17:47:23
8,"[{'imgObject': {}, 'id': 'pear', 'src': '/static/foodstim60/pear.jpg', 'key': 'u', 'origWidth': 411, 'origHeight': 410, 'width': 411, 'height': 410, 'widthPercent': 0.45, 'rescaleHeight': False, 'trialN': 8, 'loaded': True, 'loadedTime': 2869.5, 'positionName': 'LEFT', 'positionCoords': [326.28, 227], 'bid': 8.17}, {'imgObject': {}, 'id': 'grilled chicken strips', 'src': '/static/foodstim60/grilled chicken strips.jpg', 'key': 'i', 'origWidth': 410, 'origHeight': 411, 'width': 410, 'height': 411, 'widthPercent': 0.45, 'rescaleHeight': False, 'trialN': 8, 'loaded': True, 'loadedTime': 2849.5, 'positionName': 'RIGHT', 'positionCoords': [798.72, 226.5], 'bid': 7.890000000000001}]",13390.200000047684,1669830018474,pear,grilled chicken strips,8.17,7.890000000000001,-0.27999999999999936,pear,1103.699999988079,1105,1104.5999999642372,True,u,15012.600000023842,1622.3999999761581,1669830020097,1623,HRV,HRV_0094,2022-11-30 17:47:23
9,"[{'imgObject': {}, 'id': 'grilled chicken strips', 'src': '/static/foodstim60/grilled chicken strips.jpg', 'key': 'u', 'origWidth': 410, 'origHeight': 411, 'width': 410, 'height': 411, 'widthPercent': 0.45, 'rescaleHeight': False, 'trialN': 9, 'loaded': True, 'loadedTime': 2848.2000000476837, 'positionName': 'LEFT', 'positionCoords': [327.28, 226.5], 'bid': 7.890000000000001}, {'imgObject': {}, 'id': 'cocktailshrimp', 'src': '/static/foodstim60/cocktailshrimp.jpg', 'key': 'i', 'origWidth': 410, 'origHeight': 410, 'width': 410, 'height': 410, 'widthPercent': 0.45, 'rescaleHeight': False, 'trialN': 9, 'loaded': True, 'loadedTime': 2908.5, 'positionName': 'RIGHT', 'positionCoords': [798.72, 227], 'bid': 0.62}]",15013.100000023842,1669830020097,grilled chicken strips,cocktailshrimp,7.890000000000001,0.62,-7.2700000000000005,cocktailshrimp,1377.800000011921,1380,1380.5,True,i,16902.0,1888.8999999761581,1669830021986,1889,HRV,HRV_0094,2022-11-30 17:47:23
10,"[{'imgObject': {}, 'id': 'Tribe humus pita', 'src': '/static/foodstim60/Tribe humus pita.jpg', 'key': 'u', 'origWidth': 411, 'origHeight': 411, 'width': 411, 'height': 411, 'widthPercent': 0.45, 'rescaleHeight': False, 'trialN': 10, 'loaded': True, 'loadedTime': 2867.300000011921, 'positionName': 'LEFT', 'positionCoords': [326.28, 226.5], 'bid': 5.88}, {'imgObject': {}, 'id': 'eggsalad', 'src': '/static/foodstim60/eggsalad.jpg', 'key': 'i', 'origWidth': 410, 'origHeight': 409, 'width': 410, 'height': 409, 'widthPercent': 0.45, 'rescaleHeight': False, 'trialN': 10, 'loaded': True, 'loadedTime': 2846.300000011921, 'positionName': 'RIGHT', 'positionCoords': [798.72, 227.5], 'bid': 7.18}]",16902.80000001192,1669830021987,Tribe humus pita,eggsalad,5.88,7.18,1.2999999999999998,eggsalad,1567.4000000357628,1569,1568.9000000357628,True,i,18982.200000047684,2079.400000035763,1669830024066,2079,HRV,HRV_0094,2022-11-30 17:47:23
11,"[{'imgObject': {}, 'id': 'mac & cheese', 'src': '/static/foodstim60/mac & cheese.jpg', 'key': 'u', 'origWidth': 410, 'origHeight': 410, 'width': 410, 'height': 410, 'widthPercent': 0.45, 'rescaleHeight': False, 'trialN': 11, 'loaded': True, 'loadedTime': 2910.7000000476837, 'positionName': 'LEFT', 'positionCoords': [327.28, 227], 'bid': 7.1000000000000005}, {'imgObject': {}, 'id': 'banana', 'src': '/static/foodstim60/banana.jpg', 'key': 'i', 'origWidth': 410, 'origHeight': 410, 'width': 410, 'height': 410, 'widthPercent': 0.45, 'rescaleHeight': False, 'trialN': 11, 'loaded': True, 'loadedTime': 2875.5, 'positionName': 'RIGHT', 'positionCoords': [798.72, 227], 'bid': 8.47}]",18982.900000035763,1669830024067,mac & cheese,banana,7.1000000000000005,8.47,1.37,mac & cheese,762.5,763,763.3000000119209,True,u,20255.900000035763,1273.0,1669830025340,1273,HRV,HRV_0094,2022-11-30 17:47:23
12,"[{'imgObject': {}, 'id': 'sweetpotato', 'src': '/static/foodstim60/sweetpotato.jpg', 'key': 'u', 'origWidth': 410, 'origHeight': 410, 'width': 410, 'height': 410, 'widthPercent': 0.45, 'rescaleHeight': False, 'trialN': 12, 'loaded': True, 'loadedTime': 2920.7000000476837, 'positionName': 'LEFT', 'positionCoords': [327.28, 227], 'bid': 6.73}, {'imgObject': {}, 'id': 'hashbrowns', 'src': '/static/foodstim60/hashbrowns.jpg', 'key': 'i', 'origWidth': 411, 'origHeight': 410, 'width': 411, 'height': 410, 'widthPercent': 0.45, 'rescaleHeight': False, 'trialN': 12, 'loaded': True, 'loadedTime': 2932.800000011921, 'positionName': 'RIGHT', 'positionCoords': [798.72, 227], 'bid': 0.98}]",20256.900000035763,1669830025341,sweetpotato,hashbrowns,6.73,0.98,-5.75,hashbrowns,708.3000000119209,708,708.6999999880791,True,i,21474.0,1217.0999999642372,1669830026558,1217,HRV,HRV_0094,2022-11-30 17:47:23
13,"[{'imgObject': {}, 'id': 'veggieswithdip', 'src': '/static/foodstim60/veggieswithdip.jpg', 'key': 'u', 'origWidth': 409, 'origHeight': 409, 'width': 409, 'height': 409, 'widthPercent': 0.45, 'rescaleHeight': False, 'trialN': 13, 'loaded': True, 'loadedTime': 2951.7000000476837, 'positionName': 'LEFT', 'positionCoords': [328.28, 227.5], 'bid': 7}, {'imgObject': {}, 'id': 'burger', 'src': '/static/foodstim60/burger.jpg', 'key': 'i', 'origWidth': 409, 'origHeight': 409, 'width': 409, 'height': 409, 'widthPercent': 0.45, 'rescaleHeight': False, 'trialN': 13, 'loaded': True, 'loadedTime': 2957.900000035763, 'positionName': 'RIGHT', 'positionCoords': [798.72, 227.5], 'bid': 7}]",21474.5,1669830026558,veggieswithdip,burger,7.0,7.0,0.0,burger,1336.6000000238419,1338,1338.0,True,i,23334.600000023842,1860.1000000238419,1669830028418,1860,HRV,HRV_0094,2022-11-30 17:47:23
14,"[{'imgObject': {}, 'id': 'rigatoni and sauce', 'src': '/static/foodstim60/rigatoni and sauce.jpg', 'key': 'u', 'origWidth': 410, 'origHeight': 411, 'width': 410, 'height': 411, 'widthPercent': 0.45, 'rescaleHeight': False, 'trialN': 14, 'loaded': True, 'loadedTime': 2965.300000011921, 'positionName': 'LEFT', 'positionCoords': [327.28, 226.5], 'bid': 8.9}, {'imgObject': {}, 'id': 'burrito', 'src': '/static/foodstim60/burrito.jpg', 'key': 'i', 'origWidth': 410, 'origHeight': 410, 'width': 410, 'height': 410, 'widthPercent': 0.45, 'rescaleHeight': False, 'trialN': 14, 'loaded': True, 'loadedTime': 2979.5, 'positionName': 'RIGHT', 'positionCoords': [798.72, 227], 'bid': 8.290000000000001}]",23335.200000047684,1669830028419,rigatoni and sauce,burrito,8.9,8.290000000000001,-0.6099999999999994,rigatoni and sauce,818.5999999642372,820,819.3999999761581,True,u,24655.200000047684,1320.0,1669830029739,1320,HRV,HRV_0094,2022-11-30 17:47:23
15,"[{'imgObject': {}, 'id': 'cherries', 'src': '/static/foodstim60/cherries.jpg', 'key': 'u', 'origWidth': 410, 'origHeight': 411, 'width': 410, 'height': 411, 'widthPercent': 0.45, 'rescaleHeight': False, 'trialN': 15, 'loaded': True, 'loadedTime': 2840.400000035763, 'positionName': 'LEFT', 'positionCoords': [327.28, 226.5], 'bid': 9.23}, {'imgObject': {}, 'id': 'sweetpotato', 'src': '/static/foodstim60/sweetpotato.jpg', 'key': 'i', 'origWidth': 410, 'origHeight': 410, 'width': 410, 'height': 410, 'widthPercent': 0.45, 'rescaleHeight': False, 'trialN': 15, 'loaded': True, 'loadedTime': 2920.400000035763, 'positionName': 'RIGHT', 'positionCoords': [798.72, 227], 'bid': 6.73}]",24656.0,1669830029740,cherries,sweetpotato,9.23,6.73,-2.5,cherries,744.6000000238419,746,746.6000000238419,True,u,25907.600000023842,1251.6000000238419,1669830030991,1251,HRV,HRV_0094,2022-11-30 17:47:23
16,"[{'imgObject': {}, 'id': 'fruitsalad', 'src': '/static/foodstim60/fruitsalad.jpg', 'key': 'u', 'origWidth': 410, 'origHeight': 410, 'width': 410, 'height': 410, 'widthPercent': 0.45, 'rescaleHeight': False, 'trialN': 16, 'loaded': True, 'loadedTime': 2851.900000035763, 'positionName': 'LEFT', 'positionCoords': [327.28, 227], 'bid': 6.78}, {'imgObject': {}, 'id': 'steak', 'src': '/static/foodstim60/steak.jpg', 'key': 'i', 'origWidth': 410, 'origHeight': 410, 'width': 410, 'height': 410, 'widthPercent': 0.45, 'rescaleHeight': False, 'trialN': 16, 'loaded': True, 'loadedTime': 2912.600000023842, 'positionName': 'RIGHT', 'positionCoords': [798.72, 227], 'bid': 6.8}]",25908.400000035763,1669830030992,fruitsalad,steak,6.78,6.8,0.019999999999999574,steak,891.5,892,892.1999999880791,True,i,27307.100000023842,1398.699999988079,1669830032391,1399,HRV,HRV_0094,2022-11-30 17:47:23
17,"[{'imgObject': {}, 'id': 'mango', 'src': '/static/foodstim60/mango.jpg', 'key': 'u', 'origWidth': 411, 'origHeight': 411, 'width': 411, 'height': 411, 'widthPercent': 0.45, 'rescaleHeight': False, 'trialN': 17, 'loaded': True, 'loadedTime': 2954.5, 'positionName': 'LEFT', 'positionCoords': [326.28, 226.5], 'bid': 7.81}, {'imgObject': {}, 'id': 'raisin bran w milk', 'src': '/static/foodstim60/raisin bran w milk.jpg', 'key': 'i', 'origWidth': 411, 'origHeight': 411, 'width': 411, 'height': 411, 'widthPercent': 0.45, 'rescaleHeight': False, 'trialN': 17, 'loaded': True, 'loadedTime': 2964.5, 'positionName': 'RIGHT', 'positionCoords': [798.72, 226.5], 'bid': 7.69}]",27307.400000035763,1669830032391,mango,raisin bran w milk,7.81,7.69,-0.11999999999999922,mango,1370.8999999761581,1372,1372.699999988079,True,u,29195.30000001192,1887.8999999761581,1669830034279,1888,HRV,HRV_0094,2022-11-30 17:47:23
18,"[{'imgObject': {}, 'id': 'ice cream sundae 002', 'src': '/static/foodstim60/ice cream sundae 002.jpg', 'key': 'u', 'origWidth': 409, 'origHeight': 409, 'width': 409, 'height': 409, 'widthPercent': 0.45, 'rescaleHeight': False, 'trialN': 18, 'loaded': True, 'loadedTime': 2863.800000011921, 'positionName': 'LEFT', 'positionCoords': [328.28, 227.5], 'bid': 5.92}, {'imgObject': {}, 'id': 'turkey sandwich', 'src': '/static/foodstim60/turkey sandwich.jpg', 'key': 'i', 'origWidth': 409, 'origHeight': 409, 'width': 409, 'height': 409, 'widthPercent': 0.45, 'rescaleHeight': False, 'trialN': 18, 'loaded': True, 'loadedTime': 2981.800000011921, 'positionName': 'RIGHT', 'positionCoords': [798.72, 227.5], 'bid': 0.88}]",29196.0,1669830034279,ice cream sundae 002,turkey sandwich,5.92,0.88,-5.04,turkey sandwich,599.7000000476837,602,601.3000000119209,True,i,30308.900000035763,1112.9000000357628,1669830035392,1113,HRV,HRV_0094,2022-11-30 17:47:23
19,"[{'imgObject': {}, 'id': 'blueberries', 'src': '/static/foodstim60/blueberries.jpg', 'key': 'u', 'origWidth': 411, 'origHeight': 411, 'width': 411, 'height': 411, 'widthPercent': 0.45, 'rescaleHeight': False, 'trialN': 19, 'loaded': True, 'loadedTime': 2983.7000000476837, 'positionName': 'LEFT', 'positionCoords': [326.28, 226.5], 'bid': 8.17}, {'imgObject': {}, 'id': 'edamame', 'src': '/static/foodstim60/edamame.jpg', 'key': 'i', 'origWidth': 409, 'origHeight': 410, 'width': 409, 'height': 410, 'widthPercent': 0.45, 'rescaleHeight': False, 'trialN': 19, 'loaded': True, 'loadedTime': 2999, 'positionName': 'RIGHT', 'positionCoords': [798.72, 227], 'bid': 8.24}]",30309.80000001192,1669830035393,blueberries,edamame,8.17,8.24,0.07000000000000028,edamame,655,655,655.3000000119209,True,i,31479.700000047684,1169.9000000357628,1669830036563,1170,HRV,HRV_0094,2022-11-30 17:47:23
20,"[{'imgObject': {}, 'id': 'turkey sandwich', 'src': '/static/foodstim60/turkey sandwich.jpg', 'key': 'u', 'origWidth': 409, 'origHeight': 409, 'width': 409, 'height': 409, 'widthPercent': 0.45, 'rescaleHeight': False, 'trialN': 20, 'loaded': True, 'loadedTime': 2983.5, 'positionName': 'LEFT', 'positionCoords': [328.28, 227.5], 'bid': 0.88}, {'imgObject': {}, 'id': 'blueberries', 'src': '/static/foodstim60/blueberries.jpg', 'key': 'i', 'origWidth': 411, 'origHeight': 411, 'width': 411, 'height': 411, 'widthPercent': 0.45, 'rescaleHeight': False, 'trialN': 20, 'loaded': True, 'loadedTime': 2998.900000035763, 'positionName': 'RIGHT', 'positionCoords': [798.72, 226.5], 'bid': 8.17}]",31480.700000047684,1669830036564,turkey sandwich,blueberries,0.88,8.17,7.29,turkey sandwich,785.7999999523163,787,786.6999999880791,True,u,32775.0,1294.2999999523163,1669830037858,1294,HRV,HRV_0094,2022-11-30 17:47:23
21,"[{'imgObject': {}, 'id': 'Grapes', 'src': '/static/foodstim60/Grapes.jpg', 'key': 'u', 'origWidth': 411, 'origHeight': 411, 'width': 411, 'height': 411, 'widthPercent': 0.45, 'rescaleHeight': False, 'trialN': 21, 'loaded': True, 'loadedTime': 3014.2000000476837, 'positionName': 'LEFT', 'positionCoords': [326.28, 226.5], 'bid': 9.25}, {'imgObject': {}, 'id': 'banana', 'src': '/static/foodstim60/banana.jpg', 'key': 'i', 'origWidth': 410, 'origHeight': 410, 'width': 410, 'height': 410, 'widthPercent': 0.45, 'rescaleHeight': False, 'trialN': 21, 'loaded': True, 'loadedTime': 2874.800000011921, 'positionName': 'RIGHT', 'positionCoords': [798.72, 227], 'bid': 8.47}]",32775.200000047684,1669830037858,Grapes,banana,9.25,8.47,-0.7799999999999994,Grapes,673.6999999880791,675,674.8999999761581,True,u,33965.5,1190.2999999523163,1669830039049,1191,HRV,HRV_0094,2022-11-30 17:47:23
22,"[{'imgObject': {}, 'id': 'salmon', 'src': '/static/foodstim60/salmon.jpg', 'key': 'u', 'origWidth': 410, 'origHeight': 409, 'width': 410, 'height': 409, 'widthPercent': 0.45, 'rescaleHeight': False, 'trialN': 22, 'loaded': True, 'loadedTime': 3015.400000035763, 'positionName': 'LEFT', 'positionCoords': [327.28, 227.5], 'bid': 2.29}, {'imgObject': {}, 'id': 'cheerios', 'src': '/static/foodstim60/cheerios.jpg', 'key': 'i', 'origWidth': 409, 'origHeight': 410, 'width': 409, 'height': 410, 'widthPercent': 0.45, 'rescaleHeight': False, 'trialN': 22, 'loaded': True, 'loadedTime': 3030.300000011921, 'positionName': 'RIGHT', 'positionCoords': [798.72, 227], 'bid': 1.62}]",33966.30000001192,1669830039050,salmon,cheerios,2.29,1.62,-0.6699999999999999,salmon,2479.400000035763,2481,2481.0,True,u,36958.80000001192,2992.5,1669830042042,2992,HRV,HRV_0094,2022-11-30 17:47:23
23,"[{'imgObject': {}, 'id': 'burger', 'src': '/static/foodstim60/burger.jpg', 'key': 'u', 'origWidth': 409, 'origHeight': 409, 'width': 409, 'height': 409, 'widthPercent': 0.45, 'rescaleHeight': False, 'trialN': 23, 'loaded': True, 'loadedTime': 2958.100000023842, 'positionName': 'LEFT', 'positionCoords': [328.28, 227.5], 'bid': 7}, {'imgObject': {}, 'id': 'edamame', 'src': '/static/foodstim60/edamame.jpg', 'key': 'i', 'origWidth': 409, 'origHeight': 410, 'width': 409, 'height': 410, 'widthPercent': 0.45, 'rescaleHeight': False, 'trialN': 23, 'loaded': True, 'loadedTime': 3001.800000011921, 'positionName': 'RIGHT', 'positionCoords': [798.72, 227], 'bid': 8.24}]",36959.0,1669830042042,burger,edamame,7.0,8.24,1.2400000000000002,burger,555.4000000357628,557,556.4000000357628,True,u,38026.90000003576,1067.9000000357628,1669830043110,1068,HRV,HRV_0094,2022-11-30 17:47:23
24,"[{'imgObject': {}, 'id': 'omelette', 'src': '/static/foodstim60/omelette.jpg', 'key': 'u', 'origWidth': 410, 'origHeight': 409, 'width': 410, 'height': 409, 'widthPercent': 0.45, 'rescaleHeight': False, 'trialN': 24, 'loaded': True, 'loadedTime': 3033.2000000476837, 'positionName': 'LEFT', 'positionCoords': [327.28, 227.5], 'bid': 5.24}, {'imgObject': {}, 'id': 'seaweed', 'src': '/static/foodstim60/seaweed.jpg', 'key': 'i', 'origWidth': 410, 'origHeight': 410, 'width': 410, 'height': 410, 'widthPercent': 0.45, 'rescaleHeight': False, 'trialN': 24, 'loaded': True, 'loadedTime': 3035.300000011921, 'positionName': 'RIGHT', 'positionCoords': [798.72, 227], 'bid': 0.42}]",38027.40000003576,1669830043111,omelette,seaweed,5.24,0.42,-4.82,seaweed,801.6999999880791,804,804.3999999761581,True,i,39336.80000001192,1309.3999999761581,1669830044420,1309,HRV,HRV_0094,2022-11-30 17:47:23
25,"[{'imgObject': {}, 'id': 'mac & cheese', 'src': '/static/foodstim60/mac & cheese.jpg', 'key': 'u', 'origWidth': 410, 'origHeight': 410, 'width': 410, 'height': 410, 'widthPercent': 0.45, 'rescaleHeight': False, 'trialN': 25, 'loaded': True, 'loadedTime': 2908.7000000476837, 'positionName': 'LEFT', 'positionCoords': [327.28, 227], 'bid': 7.1000000000000005}, {'imgObject': {}, 'id': 'fried eggs', 'src': '/static/foodstim60/fried eggs.jpg', 'key': 'i', 'origWidth': 410, 'origHeight': 410, 'width': 410, 'height': 410, 'widthPercent': 0.45, 'rescaleHeight': False, 'trialN': 25, 'loaded': True, 'loadedTime': 3041, 'positionName': 'RIGHT', 'positionCoords': [798.72, 227], 'bid': 7.1000000000000005}]",39337.10000002384,1669830044420,mac & cheese,fried eggs,7.1000000000000005,7.1000000000000005,0.0,mac & cheese,1009.3999999761581,1010,1010.1000000238419,True,u,40869.40000003576,1532.300000011921,1669830045953,1533,HRV,HRV_0094,2022-11-30 17:47:23
26,"[{'imgObject': {}, 'id': 'raisin bran w milk', 'src': '/static/foodstim60/raisin bran w milk.jpg', 'key': 'u', 'origWidth': 411, 'origHeight': 411, 'width': 411, 'height': 411, 'widthPercent': 0.45, 'rescaleHeight': False, 'trialN': 26, 'loaded': True, 'loadedTime': 2964.7000000476837, 'positionName': 'LEFT', 'positionCoords': [326.28, 226.5], 'bid': 7.69}, {'imgObject': {}, 'id': 'corn cob', 'src': '/static/foodstim60/corn cob.jpg', 'key': 'i', 'origWidth': 411, 'origHeight': 411, 'width': 411, 'height': 411, 'widthPercent': 0.45, 'rescaleHeight': False, 'trialN': 26, 'loaded': True, 'loadedTime': 3043.400000035763, 'positionName': 'RIGHT', 'positionCoords': [798.72, 226.5], 'bid': 9.06}]",40870.40000003576,1669830045954,raisin bran w milk,corn cob,7.69,9.06,1.37,corn cob,763.0999999642372,764,764.5,True,i,42151.200000047684,1280.800000011921,1669830047234,1280,HRV,HRV_0094,2022-11-30 17:47:23
27,"[{'imgObject': {}, 'id': 'rigatoni and sauce', 'src': '/static/foodstim60/rigatoni and sauce.jpg', 'key': 'u', 'origWidth': 410, 'origHeight': 411, 'width': 410, 'height': 411, 'widthPercent': 0.45, 'rescaleHeight': False, 'trialN': 27, 'loaded': True, 'loadedTime': 2966.7000000476837, 'positionName': 'LEFT', 'positionCoords': [327.28, 226.5], 'bid': 8.9}, {'imgObject': {}, 'id': 'apple slices', 'src': '/static/foodstim60/apple slices.jpg', 'key': 'i', 'origWidth': 409, 'origHeight': 410, 'width': 409, 'height': 410, 'widthPercent': 0.45, 'rescaleHeight': False, 'trialN': 27, 'loaded': True, 'loadedTime': 2710, 'positionName': 'RIGHT', 'positionCoords': [798.72, 227], 'bid': 9.01}]",42152.30000001192,1669830047235,rigatoni and sauce,apple slices,8.9,9.01,0.10999999999999943,rigatoni and sauce,645.1999999880791,647,646.6999999880791,True,u,43305.60000002384,1153.300000011921,1669830048389,1154,HRV,HRV_0094,2022-11-30 17:47:23
28,"[{'imgObject': {}, 'id': 'apple slices', 'src': '/static/foodstim60/apple slices.jpg', 'key': 'u', 'origWidth': 409, 'origHeight': 410, 'width': 409, 'height': 410, 'widthPercent': 0.45, 'rescaleHeight': False, 'trialN': 28, 'loaded': True, 'loadedTime': 2805, 'positionName': 'LEFT', 'positionCoords': [328.28, 227], 'bid': 9.01}, {'imgObject': {}, 'id': 'bagel and cc', 'src': '/static/foodstim60/bagel and cc.jpg', 'key': 'i', 'origWidth': 410, 'origHeight': 410, 'width': 410, 'height': 410, 'widthPercent': 0.45, 'rescaleHeight': False, 'trialN': 28, 'loaded': True, 'loadedTime': 3050.2000000476837, 'positionName': 'RIGHT', 'positionCoords': [798.72, 227], 'bid': 9.3}]",43305.80000001192,1669830048389,apple slices,bagel and cc,9.01,9.3,0.2900000000000009,bagel and cc,1762.6000000238419,1763,1763.300000011921,True,i,45587.5,2281.699999988079,1669830050671,2282,HRV,HRV_0094,2022-11-30 17:47:23
29,"[{'imgObject': {}, 'id': 'burger', 'src': '/static/foodstim60/burger.jpg', 'key': 'u', 'origWidth': 409, 'origHeight': 409, 'width': 409, 'height': 409, 'widthPercent': 0.45, 'rescaleHeight': False, 'trialN': 29, 'loaded': True, 'loadedTime': 2957.800000011921, 'positionName': 'LEFT', 'positionCoords': [328.28, 227.5], 'bid': 7}, {'imgObject': {}, 'id': 'mango', 'src': '/static/foodstim60/mango.jpg', 'key': 'i', 'origWidth': 411, 'origHeight': 411, 'width': 411, 'height': 411, 'widthPercent': 0.45, 'rescaleHeight': False, 'trialN': 29, 'loaded': True, 'loadedTime': 2953, 'positionName': 'RIGHT', 'positionCoords': [798.72, 226.5], 'bid': 7.81}]",45588.5,1669830050672,burger,mango,7.0,7.81,0.8099999999999996,burger,630.3000000119209,631,631.3000000119209,True,u,46729.700000047684,1141.2000000476837,1669830051813,1141,HRV,HRV_0094,2022-11-30 17:47:23
30,"[{'imgObject': {}, 'id': 'raisin bran w milk', 'src': '/static/foodstim60/raisin bran w milk.jpg', 'key': 'u', 'origWidth': 411, 'origHeight': 411, 'width': 411, 'height': 411, 'widthPercent': 0.45, 'rescaleHeight': False, 'trialN': 30, 'loaded': True, 'loadedTime': 2958.400000035763, 'positionName': 'LEFT', 'positionCoords': [326.28, 226.5], 'bid': 7.69}, {'imgObject': {}, 'id': 'grilled chicken strips', 'src': '/static/foodstim60/grilled chicken strips.jpg', 'key': 'i', 'origWidth': 410, 'origHeight': 411, 'width': 410, 'height': 411, 'widthPercent': 0.45, 'rescaleHeight': False, 'trialN': 30, 'loaded': True, 'loadedTime': 2849.100000023842, 'positionName': 'RIGHT', 'positionCoords': [798.72, 226.5], 'bid': 7.890000000000001}]",46730.60000002384,1669830051814,raisin bran w milk,grilled chicken strips,7.69,7.890000000000001,0.20000000000000018,grilled chicken strips,913.6000000238419,915,915.1000000238419,True,i,48159.80000001192,1429.199999988079,1669830053243,1429,HRV,HRV_0094,2022-11-30 17:47:23
31,"[{'imgObject': {}, 'id': 'rigatoni', 'src': '/static/foodstim60/rigatoni.jpg', 'key': 'u', 'origWidth': 411, 'origHeight': 411, 'width': 411, 'height': 411, 'widthPercent': 0.45, 'rescaleHeight': False, 'trialN': 31, 'loaded': True, 'loadedTime': 3052.300000011921, 'positionName': 'LEFT', 'positionCoords': [326.28, 226.5], 'bid': 8.52}, {'imgObject': {}, 'id': 'avocado', 'src': '/static/foodstim60/avocado.jpg', 'key': 'i', 'origWidth': 409, 'origHeight': 409, 'width': 409, 'height': 409, 'widthPercent': 0.45, 'rescaleHeight': False, 'trialN': 31, 'loaded': True, 'loadedTime': 3082.5, 'positionName': 'RIGHT', 'positionCoords': [798.72, 227.5], 'bid': 8.48}]",48160.30000001192,1669830053244,rigatoni,avocado,8.52,8.48,-0.03999999999999915,avocado,767.9000000357628,768,768.1999999880791,True,i,49435.30000001192,1275.0,1669830054519,1275,HRV,HRV_0094,2022-11-30 17:47:23
32,"[{'imgObject': {}, 'id': 'edamame', 'src': '/static/foodstim60/edamame.jpg', 'key': 'u', 'origWidth': 409, 'origHeight': 410, 'width': 409, 'height': 410, 'widthPercent': 0.45, 'rescaleHeight': False, 'trialN': 32, 'loaded': True, 'loadedTime': 3001.400000035763, 'positionName': 'LEFT', 'positionCoords': [328.28, 227], 'bid': 8.24}, {'imgObject': {}, 'id': 'baked potato', 'src': '/static/foodstim60/baked potato.jpg', 'key': 'i', 'origWidth': 409, 'origHeight': 410, 'width': 409, 'height': 410, 'widthPercent': 0.45, 'rescaleHeight': False, 'trialN': 32, 'loaded': True, 'loadedTime': 3085.900000035763, 'positionName': 'RIGHT', 'positionCoords': [798.72, 227], 'bid': 8.82}]",49435.5,1669830054519,edamame,baked potato,8.24,8.82,0.5800000000000001,edamame,992,992,992.6000000238419,True,u,50937.0,1501.5,1669830056020,1501,HRV,HRV_0094,2022-11-30 17:47:23
33,"[{'imgObject': {}, 'id': 'hashbrowns', 'src': '/static/foodstim60/hashbrowns.jpg', 'key': 'u', 'origWidth': 411, 'origHeight': 410, 'width': 411, 'height': 410, 'widthPercent': 0.45, 'rescaleHeight': False, 'trialN': 33, 'loaded': True, 'loadedTime': 2932.900000035763, 'positionName': 'LEFT', 'positionCoords': [326.28, 227], 'bid': 0.98}, {'imgObject': {}, 'id': 'shreddedwheatwithmilk', 'src': '/static/foodstim60/shreddedwheatwithmilk.jpg', 'key': 'i', 'origWidth': 410, 'origHeight': 410, 'width': 410, 'height': 410, 'widthPercent': 0.45, 'rescaleHeight': False, 'trialN': 33, 'loaded': True, 'loadedTime': 3102.7000000476837, 'positionName': 'RIGHT', 'positionCoords': [798.72, 227], 'bid': 1.19}]",50937.200000047684,1669830056020,hashbrowns,shreddedwheatwithmilk,0.98,1.19,0.20999999999999996,hashbrowns,1012.5999999642372,1014,1013.2999999523163,True,u,52466.90000003576,1529.699999988079,1669830057550,1530,HRV,HRV_0094,2022-11-30 17:47:23
34,"[{'imgObject': {}, 'id': 'hotdog w must', 'src': '/static/foodstim60/hotdog w must.jpg', 'key': 'u', 'origWidth': 409, 'origHeight': 409, 'width': 409, 'height': 409, 'widthPercent': 0.45, 'rescaleHeight': False, 'trialN': 34, 'loaded': True, 'loadedTime': 2881.2000000476837, 'positionName': 'LEFT', 'positionCoords': [328.28, 227.5], 'bid': 0.16}, {'imgObject': {}, 'id': 'eggsalad', 'src': '/static/foodstim60/eggsalad.jpg', 'key': 'i', 'origWidth': 410, 'origHeight': 409, 'width': 410, 'height': 409, 'widthPercent': 0.45, 'rescaleHeight': False, 'trialN': 34, 'loaded': True, 'loadedTime': 2843.300000011921, 'positionName': 'RIGHT', 'positionCoords': [798.72, 227.5], 'bid': 7.18}]",52467.200000047684,1669830057550,hotdog w must,eggsalad,0.16,7.18,7.02,eggsalad,2622.399999976158,2624,2624.0,True,i,55598.30000001192,3131.099999964237,1669830060682,3132,HRV,HRV_0094,2022-11-30 17:47:23
35,"[{'imgObject': {}, 'id': 'fruitsalad', 'src': '/static/foodstim60/fruitsalad.jpg', 'key': 'u', 'origWidth': 410, 'origHeight': 410, 'width': 410, 'height': 410, 'widthPercent': 0.45, 'rescaleHeight': False, 'trialN': 35, 'loaded': True, 'loadedTime': 2851.300000011921, 'positionName': 'LEFT', 'positionCoords': [327.28, 227], 'bid': 6.78}, {'imgObject': {}, 'id': 'Grapes', 'src': '/static/foodstim60/Grapes.jpg', 'key': 'i', 'origWidth': 411, 'origHeight': 411, 'width': 411, 'height': 411, 'widthPercent': 0.45, 'rescaleHeight': False, 'trialN': 35, 'loaded': True, 'loadedTime': 3014, 'positionName': 'RIGHT', 'positionCoords': [798.72, 226.5], 'bid': 9.25}]",55598.90000003576,1669830060682,fruitsalad,Grapes,6.78,9.25,2.4699999999999998,fruitsalad,815.8999999761581,818,817.3999999761581,True,u,56925.200000047684,1326.300000011921,1669830062008,1326,HRV,HRV_0094,2022-11-30 17:47:23
36,"[{'imgObject': {}, 'id': 'kiwi', 'src': '/static/foodstim60/kiwi.jpg', 'key': 'u', 'origWidth': 410, 'origHeight': 410, 'width': 410, 'height': 410, 'widthPercent': 0.45, 'rescaleHeight': False, 'trialN': 36, 'loaded': True, 'loadedTime': 3105.600000023842, 'positionName': 'LEFT', 'positionCoords': [327.28, 227], 'bid': 9.16}, {'imgObject': {}, 'id': 'raspberries', 'src': '/static/foodstim60/raspberries.jpg', 'key': 'i', 'origWidth': 411, 'origHeight': 411, 'width': 411, 'height': 411, 'widthPercent': 0.45, 'rescaleHeight': False, 'trialN': 36, 'loaded': True, 'loadedTime': 3122.300000011921, 'positionName': 'RIGHT', 'positionCoords': [798.72, 226.5], 'bid': 9.44}]",56926.700000047684,1669830062010,kiwi,raspberries,9.16,9.44,0.27999999999999936,raspberries,680.1999999880791,682,681.7999999523163,True,i,58118.90000003576,1192.199999988079,1669830063202,1192,HRV,HRV_0094,2022-11-30 17:47:23
37,"[{'imgObject': {}, 'id': 'corn cob', 'src': '/static/foodstim60/corn cob.jpg', 'key': 'u', 'origWidth': 411, 'origHeight': 411, 'width': 411, 'height': 411, 'widthPercent': 0.45, 'rescaleHeight': False, 'trialN': 37, 'loaded': True, 'loadedTime': 3048.300000011921, 'positionName': 'LEFT', 'positionCoords': [326.28, 226.5], 'bid': 9.06}, {'imgObject': {}, 'id': 'mashed potato', 'src': '/static/foodstim60/mashed potato.jpg', 'key': 'i', 'origWidth': 409, 'origHeight': 409, 'width': 409, 'height': 409, 'widthPercent': 0.45, 'rescaleHeight': False, 'trialN': 37, 'loaded': True, 'loadedTime': 2861.400000035763, 'positionName': 'RIGHT', 'positionCoords': [798.72, 227.5], 'bid': 9.01}]",58119.5,1669830063203,corn cob,mashed potato,9.06,9.01,-0.05000000000000071,corn cob,3324.300000011921,3326,3325.900000035763,True,u,61956.40000003576,3836.900000035763,1669830067040,3837,HRV,HRV_0094,2022-11-30 17:47:23
38,"[{'imgObject': {}, 'id': 'mac & cheese', 'src': '/static/foodstim60/mac & cheese.jpg', 'key': 'u', 'origWidth': 410, 'origHeight': 410, 'width': 410, 'height': 410, 'widthPercent': 0.45, 'rescaleHeight': False, 'trialN': 38, 'loaded': True, 'loadedTime': 2909.900000035763, 'positionName': 'LEFT', 'positionCoords': [327.28, 227], 'bid': 7.1000000000000005}, {'imgObject': {}, 'id': 'pear', 'src': '/static/foodstim60/pear.jpg', 'key': 'i', 'origWidth': 411, 'origHeight': 410, 'width': 411, 'height': 410, 'widthPercent': 0.45, 'rescaleHeight': False, 'trialN': 38, 'loaded': True, 'loadedTime': 2867.800000011921, 'positionName': 'RIGHT', 'positionCoords': [798.72, 227], 'bid': 8.17}]",61956.40000003576,1669830067040,mac & cheese,pear,7.1000000000000005,8.17,1.0699999999999994,mac & cheese,575.3000000119209,577,576.8000000119209,True,u,63040.10000002384,1083.699999988079,1669830068123,1083,HRV,HRV_0094,2022-11-30 17:47:23
39,"[{'imgObject': {}, 'id': 'cocktailshrimp', 'src': '/static/foodstim60/cocktailshrimp.jpg', 'key': 'u', 'origWidth': 410, 'origHeight': 410, 'width': 410, 'height': 410, 'widthPercent': 0.45, 'rescaleHeight': False, 'trialN': 39, 'loaded': True, 'loadedTime': 2903.300000011921, 'positionName': 'LEFT', 'positionCoords': [327.28, 227], 'bid': 0.62}, {'imgObject': {}, 'id': 'salad w chicken', 'src': '/static/foodstim60/salad w chicken.jpg', 'key': 'i', 'origWidth': 411, 'origHeight': 411, 'width': 411, 'height': 411, 'widthPercent': 0.45, 'rescaleHeight': False, 'trialN': 39, 'loaded': True, 'loadedTime': 3124, 'positionName': 'RIGHT', 'positionCoords': [798.72, 226.5], 'bid': 2.3000000000000003}]",63040.5,1669830068124,cocktailshrimp,salad w chicken,0.62,2.3000000000000003,1.6800000000000002,salad w chicken,543.7000000476837,545,545.2000000476837,True,i,64100.700000047684,1060.2000000476837,1669830069184,1060,HRV,HRV_0094,2022-11-30 17:47:23
40,"[{'imgObject': {}, 'id': 'fruitsalad', 'src': '/static/foodstim60/fruitsalad.jpg', 'key': 'u', 'origWidth': 410, 'origHeight': 410, 'width': 410, 'height': 410, 'widthPercent': 0.45, 'rescaleHeight': False, 'trialN': 40, 'loaded': True, 'loadedTime': 2849.600000023842, 'positionName': 'LEFT', 'positionCoords': [327.28, 227], 'bid': 6.78}, {'imgObject': {}, 'id': 'luckycharms', 'src': '/static/foodstim60/luckycharms.jpg', 'key': 'i', 'origWidth': 410, 'origHeight': 409, 'width': 410, 'height': 409, 'widthPercent': 0.45, 'rescaleHeight': False, 'trialN': 40, 'loaded': True, 'loadedTime': 3125.600000023842, 'positionName': 'RIGHT', 'positionCoords': [798.72, 227.5], 'bid': 1.04}]",64101.10000002384,1669830069184,fruitsalad,luckycharms,6.78,1.04,-5.74,fruitsalad,631.1000000238419,633,632.5,True,u,65240.80000001192,1139.699999988079,1669830070324,1140,HRV,HRV_0094,2022-11-30 17:47:23
41,"[{'imgObject': {}, 'id': 'baked potato', 'src': '/static/foodstim60/baked potato.jpg', 'key': 'u', 'origWidth': 409, 'origHeight': 410, 'width': 409, 'height': 410, 'widthPercent': 0.45, 'rescaleHeight': False, 'trialN': 41, 'loaded': True, 'loadedTime': 3101.600000023842, 'positionName': 'LEFT', 'positionCoords': [328.28, 227], 'bid': 8.82}, {'imgObject': {}, 'id': 'cherries', 'src': '/static/foodstim60/cherries.jpg', 'key': 'i', 'origWidth': 410, 'origHeight': 411, 'width': 410, 'height': 411, 'widthPercent': 0.45, 'rescaleHeight': False, 'trialN': 41, 'loaded': True, 'loadedTime': 2841.5, 'positionName': 'RIGHT', 'positionCoords': [798.72, 226.5], 'bid': 9.23}]",65241.10000002384,1669830070324,baked potato,cherries,8.82,9.23,0.41000000000000014,cherries,632.5,634,633.3999999761581,True,i,66389.80000001192,1148.699999988079,1669830071473,1149,HRV,HRV_0094,2022-11-30 17:47:23
42,"[{'imgObject': {}, 'id': 'bagel and cc', 'src': '/static/foodstim60/bagel and cc.jpg', 'key': 'u', 'origWidth': 410, 'origHeight': 410, 'width': 410, 'height': 410, 'widthPercent': 0.45, 'rescaleHeight': False, 'trialN': 42, 'loaded': True, 'loadedTime': 3050.400000035763, 'positionName': 'LEFT', 'positionCoords': [327.28, 227], 'bid': 9.3}, {'imgObject': {}, 'id': 'steak', 'src': '/static/foodstim60/steak.jpg', 'key': 'i', 'origWidth': 410, 'origHeight': 410, 'width': 410, 'height': 410, 'widthPercent': 0.45, 'rescaleHeight': False, 'trialN': 42, 'loaded': True, 'loadedTime': 2913, 'positionName': 'RIGHT', 'positionCoords': [798.72, 227], 'bid': 6.8}]",66390.10000002384,1669830071473,bagel and cc,steak,9.3,6.8,-2.500000000000001,bagel and cc,661.3999999761581,663,662.5,True,u,67571.0,1180.8999999761581,1669830072654,1181,HRV,HRV_0094,2022-11-30 17:47:23
43,"[{'imgObject': {}, 'id': 'blackbeanswithrice', 'src': '/static/foodstim60/blackbeanswithrice.jpg', 'key': 'u', 'origWidth': 410, 'origHeight': 410, 'width': 410, 'height': 410, 'widthPercent': 0.45, 'rescaleHeight': False, 'trialN': 43, 'loaded': True, 'loadedTime': 3140.100000023842, 'positionName': 'LEFT', 'positionCoords': [327.28, 227], 'bid': 6.1000000000000005}, {'imgObject': {}, 'id': 'sushi w_condiments', 'src': '/static/foodstim60/sushi w_condiments.jpg', 'key': 'i', 'origWidth': 410, 'origHeight': 410, 'width': 410, 'height': 410, 'widthPercent': 0.45, 'rescaleHeight': False, 'trialN': 43, 'loaded': True, 'loadedTime': 3156.100000023842, 'positionName': 'RIGHT', 'positionCoords': [798.72, 227], 'bid': 0.93}]",67571.40000003576,1669830072655,blackbeanswithrice,sushi w_condiments,6.1000000000000005,0.93,-5.170000000000001,blackbeanswithrice,774.1999999880791,775,775.5999999642372,True,u,68852.40000003576,1281.0,1669830073936,1281,HRV,HRV_0094,2022-11-30 17:47:23
44,"[{'imgObject': {}, 'id': 'burger', 'src': '/static/foodstim60/burger.jpg', 'key': 'u', 'origWidth': 409, 'origHeight': 409, 'width': 409, 'height': 409, 'widthPercent': 0.45, 'rescaleHeight': False, 'trialN': 44, 'loaded': True, 'loadedTime': 2956.2000000476837, 'positionName': 'LEFT', 'positionCoords': [328.28, 227.5], 'bid': 7}, {'imgObject': {}, 'id': 'cheerios', 'src': '/static/foodstim60/cheerios.jpg', 'key': 'i', 'origWidth': 409, 'origHeight': 410, 'width': 409, 'height': 410, 'widthPercent': 0.45, 'rescaleHeight': False, 'trialN': 44, 'loaded': True, 'loadedTime': 3031.900000035763, 'positionName': 'RIGHT', 'positionCoords': [798.72, 227], 'bid': 1.62}]",68852.60000002384,1669830073936,burger,cheerios,7.0,1.62,-5.38,burger,585.3000000119209,587,586.8000000119209,True,u,69953.70000004768,1101.1000000238419,1669830075037,1101,HRV,HRV_0094,2022-11-30 17:47:23
45,"[{'imgObject': {}, 'id': 'bagel and cc', 'src': '/static/foodstim60/bagel and cc.jpg', 'key': 'u', 'origWidth': 410, 'origHeight': 410, 'width': 410, 'height': 410, 'widthPercent': 0.45, 'rescaleHeight': False, 'trialN': 45, 'loaded': True, 'loadedTime': 3048.600000023842, 'positionName': 'LEFT', 'positionCoords': [327.28, 227], 'bid': 9.3}, {'imgObject': {}, 'id': 'olives', 'src': '/static/foodstim60/olives.jpg', 'key': 'i', 'origWidth': 410, 'origHeight': 410, 'width': 410, 'height': 410, 'widthPercent': 0.45, 'rescaleHeight': False, 'trialN': 45, 'loaded': True, 'loadedTime': 3160.5, 'positionName': 'RIGHT', 'positionCoords': [798.72, 227], 'bid': 9.11}]",69954.0,1669830075037,bagel and cc,olives,9.3,9.11,-0.19000000000000128,NaN,NaN,NaN,,False,NaN,73968.10000002384,4014.100000023842,1669830079051,4014,HRV,HRV_0094,2022-11-30 17:47:23
46,"[{'imgObject': {}, 'id': 'cherries', 'src': '/static/foodstim60/cherries.jpg', 'key': 'u', 'origWidth': 410, 'origHeight': 411, 'width': 410, 'height': 411, 'widthPercent': 0.45, 'rescaleHeight': False, 'trialN': 46, 'loaded': True, 'loadedTime': 2842.400000035763, 'positionName': 'LEFT', 'positionCoords': [327.28, 226.5], 'bid': 9.23}, {'imgObject': {}, 'id': 'strawberries', 'src': '/static/foodstim60/strawberries.jpg', 'key': 'i', 'origWidth': 410, 'origHeight': 410, 'width': 410, 'height': 410, 'widthPercent': 0.45, 'rescaleHeight': False, 'trialN': 46, 'loaded': True, 'loadedTime': 3161.800000011921, 'positionName': 'RIGHT', 'positionCoords': [798.72, 227], 'bid': 9.89}]",73968.70000004768,1669830079052,cherries,strawberries,9.23,9.89,0.6600000000000001,strawberries,1843.199999988079,1845,1844.5999999642372,True,i,76331.70000004768,2363.0,1669830081415,2363,HRV,HRV_0094,2022-11-30 17:47:23
47,"[{'imgObject': {}, 'id': 'tacos', 'src': '/static/foodstim60/tacos.jpg', 'key': 'u', 'origWidth': 411, 'origHeight': 411, 'width': 411, 'height': 411, 'widthPercent': 0.45, 'rescaleHeight': False, 'trialN': 47, 'loaded': True, 'loadedTime': 2858, 'positionName': 'LEFT', 'positionCoords': [326.28, 226.5], 'bid': 9.17}, {'imgObject': {}, 'id': 'edamame', 'src': '/static/foodstim60/edamame.jpg', 'key': 'i', 'origWidth': 409, 'origHeight': 410, 'width': 409, 'height': 410, 'widthPercent': 0.45, 'rescaleHeight': False, 'trialN': 47, 'loaded': True, 'loadedTime': 3001.100000023842, 'positionName': 'RIGHT', 'positionCoords': [798.72, 227], 'bid': 8.24}]",76332.40000003576,1669830081416,tacos,edamame,9.17,8.24,-0.9299999999999997,tacos,707.8999999761581,709,709.0,True,u,77546.0,1213.5999999642372,1669830082629,1213,HRV,HRV_0094,2022-11-30 17:47:23
48,"[{'imgObject': {}, 'id': 'apple slices', 'src': '/static/foodstim60/apple slices.jpg', 'key': 'u', 'origWidth': 409, 'origHeight': 410, 'width': 409, 'height': 410, 'widthPercent': 0.45, 'rescaleHeight': False, 'trialN': 48, 'loaded': True, 'loadedTime': 2804.800000011921, 'positionName': 'LEFT', 'positionCoords': [328.28, 227], 'bid': 9.01}, {'imgObject': {}, 'id': 'corn cob', 'src': '/static/foodstim60/corn cob.jpg', 'key': 'i', 'origWidth': 411, 'origHeight': 411, 'width': 411, 'height': 411, 'widthPercent': 0.45, 'rescaleHeight': False, 'trialN': 48, 'loaded': True, 'loadedTime': 3043.300000011921, 'positionName': 'RIGHT', 'positionCoords': [798.72, 226.5], 'bid': 9.06}]",77546.20000004768,1669830082629,apple slices,corn cob,9.01,9.06,0.05000000000000071,corn cob,585.7999999523163,587,586.5,True,i,78643.20000004768,1097.0,1669830083726,1097,HRV,HRV_0094,2022-11-30 17:47:23
49,"[{'imgObject': {}, 'id': 'bagel plain', 'src': '/static/foodstim60/bagel plain.jpg', 'key': 'u', 'origWidth': 410, 'origHeight': 410, 'width': 410, 'height': 410, 'widthPercent': 0.45, 'rescaleHeight': False, 'trialN': 49, 'loaded': True, 'loadedTime': 3168.300000011921, 'positionName': 'LEFT', 'positionCoords': [327.28, 227], 'bid': 7.66}, {'imgObject': {}, 'id': 'mac & cheese', 'src': '/static/foodstim60/mac & cheese.jpg', 'key': 'i', 'origWidth': 410, 'origHeight': 410, 'width': 410, 'height': 410, 'widthPercent': 0.45, 'rescaleHeight': False, 'trialN': 49, 'loaded': True, 'loadedTime': 2910.400000035763, 'positionName': 'RIGHT', 'positionCoords': [798.72, 227], 'bid': 7.1000000000000005}]",78644.20000004768,1669830083727,bagel plain,mac & cheese,7.66,7.1000000000000005,-0.5599999999999996,bagel plain,990.3999999761581,992,991.8999999761581,True,u,80154.40000003576,1510.199999988079,1669830085238,1511,HRV,HRV_0094,2022-11-30 17:47:23
50,"[{'imgObject': {}, 'id': 'seaweed', 'src': '/static/foodstim60/seaweed.jpg', 'key': 'u', 'origWidth': 410, 'origHeight': 410, 'width': 410, 'height': 410, 'widthPercent': 0.45, 'rescaleHeight': False, 'trialN': 50, 'loaded': True, 'loadedTime': 3033.900000035763, 'positionName': 'LEFT', 'positionCoords': [327.28, 227], 'bid': 0.42}, {'imgObject': {}, 'id': 'mango', 'src': '/static/foodstim60/mango.jpg', 'key': 'i', 'origWidth': 411, 'origHeight': 411, 'width': 411, 'height': 411, 'widthPercent': 0.45, 'rescaleHeight': False, 'trialN': 50, 'loaded': True, 'loadedTime': 2955.300000011921, 'positionName': 'RIGHT', 'positionCoords': [798.72, 226.5], 'bid': 7.81}]",80154.70000004768,1669830085238,seaweed,mango,0.42,7.81,7.39,mango,562.3999999761581,564,564.0,True,i,81232.80000001192,1078.0999999642372,1669830086316,1078,HRV,HRV_0094,2022-11-30 17:47:23
51,"[{'imgObject': {}, 'id': 'yogurt no spoon', 'src': '/static/foodstim60/yogurt no spoon.jpg', 'key': 'u', 'origWidth': 411, 'origHeight': 410, 'width': 411, 'height': 410, 'widthPercent': 0.45, 'rescaleHeight': False, 'trialN': 51, 'loaded': True, 'loadedTime': 3169.7000000476837, 'positionName': 'LEFT', 'positionCoords': [326.28, 227], 'bid': 5.83}, {'imgObject': {}, 'id': 'olives', 'src': '/static/foodstim60/olives.jpg', 'key': 'i', 'origWidth': 410, 'origHeight': 410, 'width': 410, 'height': 410, 'widthPercent': 0.45, 'rescaleHeight': False, 'trialN': 51, 'loaded': True, 'loadedTime': 3158.7000000476837, 'positionName': 'RIGHT', 'positionCoords': [798.72, 227], 'bid': 9.11}]",81233.0,1669830086316,yogurt no spoon,olives,5.83,9.11,3.2799999999999994,olives,665.9000000357628,668,667.5,True,i,82415.30000001192,1182.300000011921,1669830087498,1182,HRV,HRV_0094,2022-11-30 17:47:23
52,"[{'imgObject': {}, 'id': 'salad w chicken', 'src': '/static/foodstim60/salad w chicken.jpg', 'key': 'u', 'origWidth': 411, 'origHeight': 411, 'width': 411, 'height': 411, 'widthPercent': 0.45, 'rescaleHeight': False, 'trialN': 52, 'loaded': True, 'loadedTime': 3123.7000000476837, 'positionName': 'LEFT', 'positionCoords': [326.28, 226.5], 'bid': 2.3000000000000003}, {'imgObject': {}, 'id': 'granola w milk', 'src': '/static/foodstim60/granola w milk.jpg', 'key': 'i', 'origWidth': 410, 'origHeight': 410, 'width': 410, 'height': 410, 'widthPercent': 0.45, 'rescaleHeight': False, 'trialN': 52, 'loaded': True, 'loadedTime': 3169.900000035763, 'positionName': 'RIGHT', 'positionCoords': [798.72, 227], 'bid': 2.81}]",82416.20000004768,1669830087499,salad w chicken,granola w milk,2.3000000000000003,2.81,0.5099999999999998,salad w chicken,822.6999999880791,825,824.0999999642372,True,u,83745.20000004768,1329.0,1669830088828,1329,HRV,HRV_0094,2022-11-30 17:47:23
53,"[{'imgObject': {}, 'id': 'turkeysandwich', 'src': '/static/foodstim60/turkeysandwich.jpg', 'key': 'u', 'origWidth': 409, 'origHeight': 409, 'width': 409, 'height': 409, 'widthPercent': 0.45, 'rescaleHeight': False, 'trialN': 53, 'loaded': True, 'loadedTime': 2858.100000023842, 'positionName': 'LEFT', 'positionCoords': [328.28, 227.5], 'bid': 3.72}, {'imgObject': {}, 'id': 'omelette', 'src': '/static/foodstim60/omelette.jpg', 'key': 'i', 'origWidth': 410, 'origHeight': 409, 'width': 410, 'height': 409, 'widthPercent': 0.45, 'rescaleHeight': False, 'trialN': 53, 'loaded': True, 'loadedTime': 3033.800000011921, 'positionName': 'RIGHT', 'positionCoords': [798.72, 227.5], 'bid': 5.24}]",83745.5,1669830088829,turkeysandwich,omelette,3.72,5.24,1.52,omelette,640.9000000357628,642,641.8000000119209,True,i,84898.90000003576,1153.4000000357628,1669830089982,1153,HRV,HRV_0094,2022-11-30 17:47:23
54,"[{'imgObject': {}, 'id': 'orange slices', 'src': '/static/foodstim60/orange slices.jpg', 'key': 'u', 'origWidth': 409, 'origHeight': 410, 'width': 409, 'height': 410, 'widthPercent': 0.45, 'rescaleHeight': False, 'trialN': 54, 'loaded': True, 'loadedTime': 3173.400000035763, 'positionName': 'LEFT', 'positionCoords': [328.28, 227], 'bid': 9.3}, {'imgObject': {}, 'id': 'chickenfingers', 'src': '/static/foodstim60/chickenfingers.jpg', 'key': 'i', 'origWidth': 410, 'origHeight': 410, 'width': 410, 'height': 410, 'widthPercent': 0.45, 'rescaleHeight': False, 'trialN': 54, 'loaded': True, 'loadedTime': 2872.2000000476837, 'positionName': 'RIGHT', 'positionCoords': [798.72, 227], 'bid': 9.11}]",84899.90000003576,1669830089983,orange slices,chickenfingers,9.3,9.11,-0.19000000000000128,chickenfingers,922.1999999880791,924,924.0,True,i,86337.5,1437.5999999642372,1669830091421,1438,HRV,HRV_0094,2022-11-30 17:47:23
55,"[{'imgObject': {}, 'id': 'bagel plain', 'src': '/static/foodstim60/bagel plain.jpg', 'key': 'u', 'origWidth': 410, 'origHeight': 410, 'width': 410, 'height': 410, 'widthPercent': 0.45, 'rescaleHeight': False, 'trialN': 55, 'loaded': True, 'loadedTime': 3168.400000035763, 'positionName': 'LEFT', 'positionCoords': [327.28, 227], 'bid': 7.66}, {'imgObject': {}, 'id': 'steak', 'src': '/static/foodstim60/steak.jpg', 'key': 'i', 'origWidth': 410, 'origHeight': 410, 'width': 410, 'height': 410, 'widthPercent': 0.45, 'rescaleHeight': False, 'trialN': 55, 'loaded': True, 'loadedTime': 2913.600000023842, 'positionName': 'RIGHT', 'positionCoords': [798.72, 227], 'bid': 6.8}]",86338.40000003576,1669830091422,bagel plain,steak,7.66,6.8,-0.8600000000000003,bagel plain,656.3999999761581,657,656.8999999761581,True,u,87517.0,1178.5999999642372,1669830092600,1178,HRV,HRV_0094,2022-11-30 17:47:23
56,"[{'imgObject': {}, 'id': 'pear', 'src': '/static/foodstim60/pear.jpg', 'key': 'u', 'origWidth': 411, 'origHeight': 410, 'width': 411, 'height': 410, 'widthPercent': 0.45, 'rescaleHeight': False, 'trialN': 56, 'loaded': True, 'loadedTime': 2869.7000000476837, 'positionName': 'LEFT', 'positionCoords': [326.28, 227], 'bid': 8.17}, {'imgObject': {}, 'id': 'mango', 'src': '/static/foodstim60/mango.jpg', 'key': 'i', 'origWidth': 411, 'origHeight': 411, 'width': 411, 'height': 411, 'widthPercent': 0.45, 'rescaleHeight': False, 'trialN': 56, 'loaded': True, 'loadedTime': 2955.100000023842, 'positionName': 'RIGHT', 'positionCoords': [798.72, 226.5], 'bid': 7.81}]",87517.60000002384,1669830092601,pear,mango,8.17,7.81,-0.3600000000000003,pear,894.1999999880791,895,895.5,True,u,88928.40000003576,1410.800000011921,1669830094013,1412,HRV,HRV_0094,2022-11-30 17:47:23
57,"[{'imgObject': {}, 'id': 'cantaloupe', 'src': '/static/foodstim60/cantaloupe.jpg', 'key': 'u', 'origWidth': 409, 'origHeight': 409, 'width': 409, 'height': 409, 'widthPercent': 0.45, 'rescaleHeight': False, 'trialN': 57, 'loaded': True, 'loadedTime': 3174.900000035763, 'positionName': 'LEFT', 'positionCoords': [328.28, 227.5], 'bid': 9.54}, {'imgObject': {}, 'id': 'cherry tomato', 'src': '/static/foodstim60/cherry tomato.jpg', 'key': 'i', 'origWidth': 410, 'origHeight': 410, 'width': 410, 'height': 410, 'widthPercent': 0.45, 'rescaleHeight': False, 'trialN': 57, 'loaded': True, 'loadedTime': 3188.300000011921, 'positionName': 'RIGHT', 'positionCoords': [798.72, 227], 'bid': 9.11}]",88928.70000004768,1669830094013,cantaloupe,cherry tomato,9.54,9.11,-0.4299999999999997,cantaloupe,2144.7999999523163,2146,2145.199999988079,True,u,91583.90000003576,2655.199999988079,1669830096668,2655,HRV,HRV_0094,2022-11-30 17:47:23
58,"[{'imgObject': {}, 'id': 'rigatoni', 'src': '/static/foodstim60/rigatoni.jpg', 'key': 'u', 'origWidth': 411, 'origHeight': 411, 'width': 411, 'height': 411, 'widthPercent': 0.45, 'rescaleHeight': False, 'trialN': 58, 'loaded': True, 'loadedTime': 3081.5, 'positionName': 'LEFT', 'positionCoords': [326.28, 226.5], 'bid': 8.52}, {'imgObject': {}, 'id': 'eggs', 'src': '/static/foodstim60/eggs.jpg', 'key': 'i', 'origWidth': 409, 'origHeight': 409, 'width': 409, 'height': 409, 'widthPercent': 0.45, 'rescaleHeight': False, 'trialN': 58, 'loaded': True, 'loadedTime': 3190.300000011921, 'positionName': 'RIGHT', 'positionCoords': [798.72, 227.5], 'bid': 1.51}]",91584.30000001192,1669830096669,rigatoni,eggs,8.52,1.51,-7.01,rigatoni,774.8000000119209,776,776.4000000357628,True,u,92867.5,1283.199999988079,1669830097952,1283,HRV,HRV_0094,2022-11-30 17:47:23
59,"[{'imgObject': {}, 'id': 'cocktailshrimp', 'src': '/static/foodstim60/cocktailshrimp.jpg', 'key': 'u', 'origWidth': 410, 'origHeight': 410, 'width': 410, 'height': 410, 'widthPercent': 0.45, 'rescaleHeight': False, 'trialN': 59, 'loaded': True, 'loadedTime': 2908.300000011921, 'positionName': 'LEFT', 'positionCoords': [327.28, 227], 'bid': 0.62}, {'imgObject': {}, 'id': 'yogurt no spoon', 'src': '/static/foodstim60/yogurt no spoon.jpg', 'key': 'i', 'origWidth': 411, 'origHeight': 410, 'width': 411, 'height': 410, 'widthPercent': 0.45, 'rescaleHeight': False, 'trialN': 59, 'loaded': True, 'loadedTime': 3168.600000023842, 'positionName': 'RIGHT', 'positionCoords': [798.72, 227], 'bid': 5.83}]",92868.40000003576,1669830097953,cocktailshrimp,yogurt no spoon,0.62,5.83,5.21,yogurt no spoon,602.3999999761581,604,603.8000000119209,True,i,93985.5,1117.0999999642372,1669830099070,1117,HRV,HRV_0094,2022-11-30 17:47:23
60,"[{'imgObject': {}, 'id': 'froot loops w milk', 'src': '/static/foodstim60/froot loops w milk.jpg', 'key': 'u', 'origWidth': 410, 'origHeight': 410, 'width': 410, 'height': 410, 'widthPercent': 0.45, 'rescaleHeight': False, 'trialN': 60, 'loaded': True, 'loadedTime': 2899.7000000476837, 'positionName': 'LEFT', 'positionCoords': [327.28, 227], 'bid': 0.31}, {'imgObject': {}, 'id': 'raisin bran w milk', 'src': '/static/foodstim60/raisin bran w milk.jpg', 'key': 'i', 'origWidth': 411, 'origHeight': 411, 'width': 411, 'height': 411, 'widthPercent': 0.45, 'rescaleHeight': False, 'trialN': 60, 'loaded': True, 'loadedTime': 2965.100000023842, 'positionName': 'RIGHT', 'positionCoords': [798.72, 226.5], 'bid': 7.69}]",93986.40000003576,1669830099071,froot loops w milk,raisin bran w milk,0.31,7.69,7.380000000000001,raisin bran w milk,558.0999999642372,559,558.8999999761581,True,i,95050.20000004768,1063.800000011921,1669830100135,1064,HRV,HRV_0094,2022-11-30 17:47:23
61,"[{'imgObject': {}, 'id': 'fruitsalad', 'src': '/static/foodstim60/fruitsalad.jpg', 'key': 'u', 'origWidth': 410, 'origHeight': 410, 'width': 410, 'height': 410, 'widthPercent': 0.45, 'rescaleHeight': False, 'trialN': 61, 'loaded': True, 'loadedTime': 2850.600000023842, 'positionName': 'LEFT', 'positionCoords': [327.28, 227], 'bid': 6.78}, {'imgObject': {}, 'id': 'veggieswithdip', 'src': '/static/foodstim60/veggieswithdip.jpg', 'key': 'i', 'origWidth': 409, 'origHeight': 409, 'width': 409, 'height': 409, 'widthPercent': 0.45, 'rescaleHeight': False, 'trialN': 61, 'loaded': True, 'loadedTime': 2951.2000000476837, 'positionName': 'RIGHT', 'positionCoords': [798.72, 227.5], 'bid': 7}]",95050.60000002384,1669830100135,fruitsalad,veggieswithdip,6.78,7.0,0.21999999999999975,fruitsalad,564.6000000238419,566,566.1000000238419,True,u,96129.5,1078.8999999761581,1669830101214,1079,HRV,HRV_0094,2022-11-30 17:47:23
62,"[{'imgObject': {}, 'id': 'tacos', 'src': '/static/foodstim60/tacos.jpg', 'key': 'u', 'origWidth': 411, 'origHeight': 411, 'width': 411, 'height': 411, 'widthPercent': 0.45, 'rescaleHeight': False, 'trialN': 62, 'loaded': True, 'loadedTime': 2856.900000035763, 'positionName': 'LEFT', 'positionCoords': [326.28, 226.5], 'bid': 9.17}, {'imgObject': {}, 'id': 'cherries', 'src': '/static/foodstim60/cherries.jpg', 'key': 'i', 'origWidth': 410, 'origHeight': 411, 'width': 410, 'height': 411, 'widthPercent': 0.45, 'rescaleHeight': False, 'trialN': 62, 'loaded': True, 'loadedTime': 2842.900000035763, 'positionName': 'RIGHT', 'positionCoords': [798.72, 226.5], 'bid': 9.23}]",96129.80000001192,1669830101214,tacos,cherries,9.17,9.23,0.0600000000000005,tacos,627,629,628.6000000238419,True,u,97267.40000003576,1137.6000000238419,1669830102352,1138,HRV,HRV_0094,2022-11-30 17:47:23
63,"[{'imgObject': {}, 'id': 'blackbeanswithrice', 'src': '/static/foodstim60/blackbeanswithrice.jpg', 'key': 'u', 'origWidth': 410, 'origHeight': 410, 'width': 410, 'height': 410, 'widthPercent': 0.45, 'rescaleHeight': False, 'trialN': 63, 'loaded': True, 'loadedTime': 3126.7000000476837, 'positionName': 'LEFT', 'positionCoords': [327.28, 227], 'bid': 6.1000000000000005}, {'imgObject': {}, 'id': 'Tribe humus pita', 'src': '/static/foodstim60/Tribe humus pita.jpg', 'key': 'i', 'origWidth': 411, 'origHeight': 411, 'width': 411, 'height': 411, 'widthPercent': 0.45, 'rescaleHeight': False, 'trialN': 63, 'loaded': True, 'loadedTime': 2867.600000023842, 'positionName': 'RIGHT', 'positionCoords': [798.72, 226.5], 'bid': 5.88}]",97268.30000001192,1669830102353,blackbeanswithrice,Tribe humus pita,6.1000000000000005,5.88,-0.22000000000000064,blackbeanswithrice,726.5,727,727.3000000119209,True,u,98510.10000002384,1241.800000011921,1669830103595,1242,HRV,HRV_0094,2022-11-30 17:47:23
64,"[{'imgObject': {}, 'id': 'roastedpotatoes', 'src': '/static/foodstim60/roastedpotatoes.jpg', 'key': 'u', 'origWidth': 409, 'origHeight': 410, 'width': 409, 'height': 410, 'widthPercent': 0.45, 'rescaleHeight': False, 'trialN': 64, 'loaded': True, 'loadedTime': 2854.5, 'positionName': 'LEFT', 'positionCoords': [328.28, 227], 'bid': 8.72}, {'imgObject': {}, 'id': 'cheerios', 'src': '/static/foodstim60/cheerios.jpg', 'key': 'i', 'origWidth': 409, 'origHeight': 410, 'width': 409, 'height': 410, 'widthPercent': 0.45, 'rescaleHeight': False, 'trialN': 64, 'loaded': True, 'loadedTime': 3031.900000035763, 'positionName': 'RIGHT', 'positionCoords': [798.72, 227], 'bid': 1.62}]",98510.5,1669830103595,roastedpotatoes,cheerios,8.72,1.62,-7.1000000000000005,roastedpotatoes,557.8000000119209,559,558.7000000476837,True,u,99582.80000001192,1072.300000011921,1669830104667,1072,HRV,HRV_0094,2022-11-30 17:47:23
65,"[{'imgObject': {}, 'id': 'eggsalad', 'src': '/static/foodstim60/eggsalad.jpg', 'key': 'u', 'origWidth': 410, 'origHeight': 409, 'width': 410, 'height': 409, 'widthPercent': 0.45, 'rescaleHeight': False, 'trialN': 65, 'loaded': True, 'loadedTime': 2844.600000023842, 'positionName': 'LEFT', 'positionCoords': [327.28, 227.5], 'bid': 7.18}, {'imgObject': {}, 'id': 'fruitsalad', 'src': '/static/foodstim60/fruitsalad.jpg', 'key': 'i', 'origWidth': 410, 'origHeight': 410, 'width': 410, 'height': 410, 'widthPercent': 0.45, 'rescaleHeight': False, 'trialN': 65, 'loaded': True, 'loadedTime': 2851.100000023842, 'positionName': 'RIGHT', 'positionCoords': [798.72, 227], 'bid': 6.78}]",99582.90000003576,1669830104668,eggsalad,fruitsalad,7.18,6.78,-0.39999999999999947,fruitsalad,583.8999999761581,584,584.8000000119209,True,i,100685.10000002384,1102.199999988079,1669830105770,1102,HRV,HRV_0094,2022-11-30 17:47:23
66,"[{'imgObject': {}, 'id': 'hashbrowns', 'src': '/static/foodstim60/hashbrowns.jpg', 'key': 'u', 'origWidth': 411, 'origHeight': 410, 'width': 411, 'height': 410, 'widthPercent': 0.45, 'rescaleHeight': False, 'trialN': 66, 'loaded': True, 'loadedTime': 2932.7000000476837, 'positionName': 'LEFT', 'positionCoords': [326.28, 227], 'bid': 0.98}, {'imgObject': {}, 'id': 'omelette', 'src': '/static/foodstim60/omelette.jpg', 'key': 'i', 'origWidth': 410, 'origHeight': 409, 'width': 410, 'height': 409, 'widthPercent': 0.45, 'rescaleHeight': False, 'trialN': 66, 'loaded': True, 'loadedTime': 3032, 'positionName': 'RIGHT', 'positionCoords': [798.72, 227.5], 'bid': 5.24}]",100685.60000002384,1669830105770,hashbrowns,omelette,0.98,5.24,4.26,omelette,809.3000000119209,811,810.6999999880791,True,i,102004.80000001192,1319.199999988079,1669830107089,1319,HRV,HRV_0094,2022-11-30 17:47:23
67,"[{'imgObject': {}, 'id': 'raspberries', 'src': '/static/foodstim60/raspberries.jpg', 'key': 'u', 'origWidth': 411, 'origHeight': 411, 'width': 411, 'height': 411, 'widthPercent': 0.45, 'rescaleHeight': False, 'trialN': 67, 'loaded': True, 'loadedTime': 3108.300000011921, 'positionName': 'LEFT', 'positionCoords': [326.28, 226.5], 'bid': 9.44}, {'imgObject': {}, 'id': 'strawberries', 'src': '/static/foodstim60/strawberries.jpg', 'key': 'i', 'origWidth': 410, 'origHeight': 410, 'width': 410, 'height': 410, 'widthPercent': 0.45, 'rescaleHeight': False, 'trialN': 67, 'loaded': True, 'loadedTime': 3162, 'positionName': 'RIGHT', 'positionCoords': [798.72, 227], 'bid': 9.89}]",102005.40000003576,1669830107090,raspberries,strawberries,9.44,9.89,0.45000000000000107,strawberries,591.5,593,593.0999999642372,True,i,103107.60000002384,1102.199999988079,1669830108192,1102,HRV,HRV_0094,2022-11-30 17:47:23
68,"[{'imgObject': {}, 'id': 'rigatoni', 'src': '/static/foodstim60/rigatoni.jpg', 'key': 'u', 'origWidth': 411, 'origHeight': 411, 'width': 411, 'height': 411, 'widthPercent': 0.45, 'rescaleHeight': False, 'trialN': 68, 'loaded': True, 'loadedTime': 3052.600000023842, 'positionName': 'LEFT', 'positionCoords': [326.28, 226.5], 'bid': 8.52}, {'imgObject': {}, 'id': 'kiwi', 'src': '/static/foodstim60/kiwi.jpg', 'key': 'i', 'origWidth': 410, 'origHeight': 410, 'width': 410, 'height': 410, 'widthPercent': 0.45, 'rescaleHeight': False, 'trialN': 68, 'loaded': True, 'loadedTime': 3106, 'positionName': 'RIGHT', 'positionCoords': [798.72, 227], 'bid': 9.16}]",103108.20000004768,1669830108193,rigatoni,kiwi,8.52,9.16,0.6400000000000006,kiwi,631.2999999523163,633,632.8999999761581,True,i,104254.70000004768,1146.5,1669830109339,1146,HRV,HRV_0094,2022-11-30 17:47:23
69,"[{'imgObject': {}, 'id': 'steak', 'src': '/static/foodstim60/steak.jpg', 'key': 'u', 'origWidth': 410, 'origHeight': 410, 'width': 410, 'height': 410, 'widthPercent': 0.45, 'rescaleHeight': False, 'trialN': 69, 'loaded': True, 'loadedTime': 2917.800000011921, 'positionName': 'LEFT', 'positionCoords': [327.28, 227], 'bid': 6.8}, {'imgObject': {}, 'id': 'shreddedwheatwithmilk', 'src': '/static/foodstim60/shreddedwheatwithmilk.jpg', 'key': 'i', 'origWidth': 410, 'origHeight': 410, 'width': 410, 'height': 410, 'widthPercent': 0.45, 'rescaleHeight': False, 'trialN': 69, 'loaded': True, 'loadedTime': 3101.7000000476837, 'positionName': 'RIGHT', 'positionCoords': [798.72, 227], 'bid': 1.19}]",104255.5,1669830109340,steak,shreddedwheatwithmilk,6.8,1.19,-5.609999999999999,steak,843.9000000357628,845,845.1000000238419,True,u,105619.5,1364.0,1669830110704,1364,HRV,HRV_0094,2022-11-30 17:47:23
70,"[{'imgObject': {}, 'id': 'blackbeanswithrice', 'src': '/static/foodstim60/blackbeanswithrice.jpg', 'key': 'u', 'origWidth': 410, 'origHeight': 410, 'width': 410, 'height': 410, 'widthPercent': 0.45, 'rescaleHeight': False, 'trialN': 70, 'loaded': True, 'loadedTime': 3126.5, 'positionName': 'LEFT', 'positionCoords': [327.28, 227], 'bid': 6.1000000000000005}, {'imgObject': {}, 'id': 'turkeysandwich', 'src': '/static/foodstim60/turkeysandwich.jpg', 'key': 'i', 'origWidth': 409, 'origHeight': 409, 'width': 409, 'height': 409, 'widthPercent': 0.45, 'rescaleHeight': False, 'trialN': 70, 'loaded': True, 'loadedTime': 2859.900000035763, 'positionName': 'RIGHT', 'positionCoords': [798.72, 227.5], 'bid': 3.72}]",105620.5,1669830110705,blackbeanswithrice,turkeysandwich,6.1000000000000005,3.72,-2.3800000000000003,turkeysandwich,772.4000000357628,774,773.6000000238419,True,i,106906.40000003576,1285.9000000357628,1669830111991,1286,HRV,HRV_0094,2022-11-30 17:47:23
71,"[{'imgObject': {}, 'id': 'turkeysandwich', 'src': '/static/foodstim60/turkeysandwich.jpg', 'key': 'u', 'origWidth': 409, 'origHeight': 409, 'width': 409, 'height': 409, 'widthPercent': 0.45, 'rescaleHeight': False, 'trialN': 71, 'loaded': True, 'loadedTime': 2859.400000035763, 'positionName': 'LEFT', 'positionCoords': [328.28, 227.5], 'bid': 3.72}, {'imgObject': {}, 'id': 'turkey sandwich', 'src': '/static/foodstim60/turkey sandwich.jpg', 'key': 'i', 'origWidth': 409, 'origHeight': 409, 'width': 409, 'height': 409, 'widthPercent': 0.45, 'rescaleHeight': False, 'trialN': 71, 'loaded': True, 'loadedTime': 2983, 'positionName': 'RIGHT', 'positionCoords': [798.72, 227.5], 'bid': 0.88}]",106907.0,1669830111992,turkeysandwich,turkey sandwich,3.72,0.88,-2.8400000000000003,turkey sandwich,986.7000000476837,987,987.2000000476837,True,i,108410.20000004768,1503.2000000476837,1669830113495,1503,HRV,HRV_0094,2022-11-30 17:47:23
72,"[{'imgObject': {}, 'id': 'granola w milk', 'src': '/static/foodstim60/granola w milk.jpg', 'key': 'u', 'origWidth': 410, 'origHeight': 410, 'width': 410, 'height': 410, 'widthPercent': 0.45, 'rescaleHeight': False, 'trialN': 72, 'loaded': True, 'loadedTime': 3171.400000035763, 'positionName': 'LEFT', 'positionCoords': [327.28, 227], 'bid': 2.81}, {'imgObject': {}, 'id': 'popsicles', 'src': '/static/foodstim60/popsicles.jpg', 'key': 'i', 'origWidth': 410, 'origHeight': 410, 'width': 410, 'height': 410, 'widthPercent': 0.45, 'rescaleHeight': False, 'trialN': 72, 'loaded': True, 'loadedTime': 3243.300000011921, 'positionName': 'RIGHT', 'positionCoords': [798.72, 227], 'bid': 0.87}]",108411.20000004768,1669830113496,granola w milk,popsicles,2.81,0.87,-1.94,popsicles,911.7999999523163,913,913.1999999880791,True,i,109834.5,1423.2999999523163,1669830114919,1423,HRV,HRV_0094,2022-11-30 17:47:23
73,"[{'imgObject': {}, 'id': 'veggieswithdip', 'src': '/static/foodstim60/veggieswithdip.jpg', 'key': 'u', 'origWidth': 409, 'origHeight': 409, 'width': 409, 'height': 409, 'widthPercent': 0.45, 'rescaleHeight': False, 'trialN': 73, 'loaded': True, 'loadedTime': 2951.400000035763, 'positionName': 'LEFT', 'positionCoords': [328.28, 227.5], 'bid': 7}, {'imgObject': {}, 'id': 'eggs', 'src': '/static/foodstim60/eggs.jpg', 'key': 'i', 'origWidth': 409, 'origHeight': 409, 'width': 409, 'height': 409, 'widthPercent': 0.45, 'rescaleHeight': False, 'trialN': 73, 'loaded': True, 'loadedTime': 3189.7000000476837, 'positionName': 'RIGHT', 'positionCoords': [798.72, 227.5], 'bid': 1.51}]",109835.10000002384,1669830114920,veggieswithdip,eggs,7.0,1.51,-5.49,veggieswithdip,2103.699999988079,2104,2104.100000023842,True,u,112452.20000004768,2617.100000023842,1669830117537,2617,HRV,HRV_0094,2022-11-30 17:47:23
74,"[{'imgObject': {}, 'id': 'chickenfingers', 'src': '/static/foodstim60/chickenfingers.jpg', 'key': 'u', 'origWidth': 410, 'origHeight': 410, 'width': 410, 'height': 410, 'widthPercent': 0.45, 'rescaleHeight': False, 'trialN': 74, 'loaded': True, 'loadedTime': 2870.100000023842, 'positionName': 'LEFT', 'positionCoords': [327.28, 227], 'bid': 9.11}, {'imgObject': {}, 'id': 'kiwi', 'src': '/static/foodstim60/kiwi.jpg', 'key': 'i', 'origWidth': 410, 'origHeight': 410, 'width': 410, 'height': 410, 'widthPercent': 0.45, 'rescaleHeight': False, 'trialN': 74, 'loaded': True, 'loadedTime': 3105.400000035763, 'positionName': 'RIGHT', 'positionCoords': [798.72, 227], 'bid': 9.16}]",112452.5,1669830117537,chickenfingers,kiwi,9.11,9.16,0.05000000000000071,chickenfingers,2755.300000011921,2756,2756.0,True,u,115723.90000003576,3271.400000035763,1669830120808,3271,HRV,HRV_0094,2022-11-30 17:47:23
75,"[{'imgObject': {}, 'id': 'turkey sandwich', 'src': '/static/foodstim60/turkey sandwich.jpg', 'key': 'u', 'origWidth': 409, 'origHeight': 409, 'width': 409, 'height': 409, 'widthPercent': 0.45, 'rescaleHeight': False, 'trialN': 75, 'loaded': True, 'loadedTime': 2983.400000035763, 'positionName': 'LEFT', 'positionCoords': [328.28, 227.5], 'bid': 0.88}, {'imgObject': {}, 'id': 'hotdog w must', 'src': '/static/foodstim60/hotdog w must.jpg', 'key': 'i', 'origWidth': 409, 'origHeight': 409, 'width': 409, 'height': 409, 'widthPercent': 0.45, 'rescaleHeight': False, 'trialN': 75, 'loaded': True, 'loadedTime': 2876.400000035763, 'positionName': 'RIGHT', 'positionCoords': [798.72, 227.5], 'bid': 0.16}]",115724.20000004768,1669830120809,turkey sandwich,hotdog w must,0.88,0.16,-0.72,turkey sandwich,738.6999999880791,739,739.0999999642372,True,u,116974.80000001192,1250.5999999642372,1669830122059,1250,HRV,HRV_0094,2022-11-30 17:47:23
76,"[{'imgObject': {}, 'id': 'strawberries', 'src': '/static/foodstim60/strawberries.jpg', 'key': 'u', 'origWidth': 410, 'origHeight': 410, 'width': 410, 'height': 410, 'widthPercent': 0.45, 'rescaleHeight': False, 'trialN': 76, 'loaded': True, 'loadedTime': 3160.7000000476837, 'positionName': 'LEFT', 'positionCoords': [327.28, 227], 'bid': 9.89}, {'imgObject': {}, 'id': 'mac & cheese', 'src': '/static/foodstim60/mac & cheese.jpg', 'key': 'i', 'origWidth': 410, 'origHeight': 410, 'width': 410, 'height': 410, 'widthPercent': 0.45, 'rescaleHeight': False, 'trialN': 76, 'loaded': True, 'loadedTime': 2910.800000011921, 'positionName': 'RIGHT', 'positionCoords': [798.72, 227], 'bid': 7.1000000000000005}]",116974.90000003576,1669830122060,strawberries,mac & cheese,9.89,7.1000000000000005,-2.79,strawberries,576.5999999642372,578,578.0,True,u,118061.5,1086.5999999642372,1669830123146,1086,HRV,HRV_0094,2022-11-30 17:47:23
77,"[{'imgObject': {}, 'id': 'granola w milk', 'src': '/static/foodstim60/granola w milk.jpg', 'key': 'u', 'origWidth': 410, 'origHeight': 410, 'width': 410, 'height': 410, 'widthPercent': 0.45, 'rescaleHeight': False, 'trialN': 77, 'loaded': True, 'loadedTime': 3170.900000035763, 'positionName': 'LEFT', 'positionCoords': [327.28, 227], 'bid': 2.81}, {'imgObject': {}, 'id': 'hotdog w must', 'src': '/static/foodstim60/hotdog w must.jpg', 'key': 'i', 'origWidth': 409, 'origHeight': 409, 'width': 409, 'height': 409, 'widthPercent': 0.45, 'rescaleHeight': False, 'trialN': 77, 'loaded': True, 'loadedTime': 2882.2000000476837, 'positionName': 'RIGHT', 'positionCoords': [798.72, 227.5], 'bid': 0.16}]",118062.10000002384,1669830123147,granola w milk,hotdog w must,2.81,0.16,-2.65,hotdog w must,1294.6000000238419,1303,1303.199999988079,True,i,119873.30000001192,1811.199999988079,1669830124958,1811,HRV,HRV_0094,2022-11-30 17:47:23
78,"[{'imgObject': {}, 'id': 'luckycharms', 'src': '/static/foodstim60/luckycharms.jpg', 'key': 'u', 'origWidth': 410, 'origHeight': 409, 'width': 410, 'height': 409, 'widthPercent': 0.45, 'rescaleHeight': False, 'trialN': 78, 'loaded': True, 'loadedTime': 3125.100000023842, 'positionName': 'LEFT', 'positionCoords': [327.28, 227.5], 'bid': 1.04}, {'imgObject': {}, 'id': 'hashbrowns', 'src': '/static/foodstim60/hashbrowns.jpg', 'key': 'i', 'origWidth': 411, 'origHeight': 410, 'width': 411, 'height': 410, 'widthPercent': 0.45, 'rescaleHeight': False, 'trialN': 78, 'loaded': True, 'loadedTime': 2931.400000035763, 'positionName': 'RIGHT', 'positionCoords': [798.72, 227], 'bid': 0.98}]",119874.20000004768,1669830124959,luckycharms,hashbrowns,1.04,0.98,-0.06000000000000005,NaN,NaN,NaN,,False,NaN,123895.20000004768,4021.0,1669830128980,4021,HRV,HRV_0094,2022-11-30 17:47:23
79,"[{'imgObject': {}, 'id': 'avocado', 'src': '/static/foodstim60/avocado.jpg', 'key': 'u', 'origWidth': 409, 'origHeight': 409, 'width': 409, 'height': 409, 'widthPercent': 0.45, 'rescaleHeight': False, 'trialN': 79, 'loaded': True, 'loadedTime': 3084.100000023842, 'positionName': 'LEFT', 'positionCoords': [328.28, 227.5], 'bid': 8.48}, {'imgObject': {}, 'id': 'mashed potato', 'src': '/static/foodstim60/mashed potato.jpg', 'key': 'i', 'origWidth': 409, 'origHeight': 409, 'width': 409, 'height': 409, 'widthPercent': 0.45, 'rescaleHeight': False, 'trialN': 79, 'loaded': True, 'loadedTime': 2861.5, 'positionName': 'RIGHT', 'positionCoords': [798.72, 227.5], 'bid': 9.01}]",123896.20000004768,1669830128981,avocado,mashed potato,8.48,9.01,0.5299999999999994,NaN,NaN,NaN,,False,NaN,127911.90000003576,4015.699999988079,1669830132997,4016,HRV,HRV_0094,2022-11-30 17:47:23
80,"[{'imgObject': {}, 'id': 'mango', 'src': '/static/foodstim60/mango.jpg', 'key': 'u', 'origWidth': 411, 'origHeight': 411, 'width': 411, 'height': 411, 'widthPercent': 0.45, 'rescaleHeight': False, 'trialN': 80, 'loaded': True, 'loadedTime': 2955.2000000476837, 'positionName': 'LEFT', 'positionCoords': [326.28, 226.5], 'bid': 7.81}, {'imgObject': {}, 'id': 'sweetpotato', 'src': '/static/foodstim60/sweetpotato.jpg', 'key': 'i', 'origWidth': 410, 'origHeight': 410, 'width': 410, 'height': 410, 'widthPercent': 0.45, 'rescaleHeight': False, 'trialN': 80, 'loaded': True, 'loadedTime': 2919.900000035763, 'positionName': 'RIGHT', 'positionCoords': [798.72, 227], 'bid': 6.73}]",127912.90000003576,1669830132997,mango,sweetpotato,7.81,6.73,-1.0799999999999992,NaN,NaN,NaN,,False,NaN,131920.10000002384,4007.199999988079,1669830137005,4008,HRV,HRV_0094,2022-11-30 17:47:23
81,"[{'imgObject': {}, 'id': 'cherry tomato', 'src': '/static/foodstim60/cherry tomato.jpg', 'key': 'u', 'origWidth': 410, 'origHeight': 410, 'width': 410, 'height': 410, 'widthPercent': 0.45, 'rescaleHeight': False, 'trialN': 81, 'loaded': True, 'loadedTime': 3188.2000000476837, 'positionName': 'LEFT', 'positionCoords': [327.28, 227], 'bid': 9.11}, {'imgObject': {}, 'id': 'mango', 'src': '/static/foodstim60/mango.jpg', 'key': 'i', 'origWidth': 411, 'origHeight': 411, 'width': 411, 'height': 411, 'widthPercent': 0.45, 'rescaleHeight': False, 'trialN': 81, 'loaded': True, 'loadedTime': 2955.7000000476837, 'positionName': 'RIGHT', 'positionCoords': [798.72, 226.5], 'bid': 7.81}]",131920.30000001192,1669830137005,cherry tomato,mango,9.11,7.81,-1.2999999999999998,NaN,NaN,NaN,,False,NaN,135950.90000003576,4030.600000023842,1669830141036,4031,HRV,HRV_0094,2022-11-30 17:47:23
82,"[{'imgObject': {}, 'id': 'chicken nuggets2', 'src': '/static/foodstim60/chicken nuggets2.jpg', 'key': 'u', 'origWidth': 410, 'origHeight': 409, 'width': 410, 'height': 409, 'widthPercent': 0.45, 'rescaleHeight': False, 'trialN': 82, 'loaded': True, 'loadedTime': 3191.600000023842, 'positionName': 'LEFT', 'positionCoords': [327.28, 227.5], 'bid': 0.31}, {'imgObject': {}, 'id': 'seaweed', 'src': '/static/foodstim60/seaweed.jpg', 'key': 'i', 'origWidth': 410, 'origHeight': 410, 'width': 410, 'height': 410, 'widthPercent': 0.45, 'rescaleHeight': False, 'trialN': 82, 'loaded': True, 'loadedTime': 3035.400000035763, 'positionName': 'RIGHT', 'positionCoords': [798.72, 227], 'bid': 0.42}]",135951.30000001192,1669830141036,chicken nuggets2,seaweed,0.31,0.42,0.10999999999999999,NaN,NaN,NaN,,False,NaN,139963.5,4012.199999988079,1669830145048,4012,HRV,HRV_0094,2022-11-30 17:47:23
83,"[{'imgObject': {}, 'id': 'roastedpotatoes', 'src': '/static/foodstim60/roastedpotatoes.jpg', 'key': 'u', 'origWidth': 409, 'origHeight': 410, 'width': 409, 'height': 410, 'widthPercent': 0.45, 'rescaleHeight': False, 'trialN': 83, 'loaded': True, 'loadedTime': 2855.2000000476837, 'positionName': 'LEFT', 'positionCoords': [328.28, 227], 'bid': 8.72}, {'imgObject': {}, 'id': 'raspberries', 'src': '/static/foodstim60/raspberries.jpg', 'key': 'i', 'origWidth': 411, 'origHeight': 411, 'width': 411, 'height': 411, 'widthPercent': 0.45, 'rescaleHeight': False, 'trialN': 83, 'loaded': True, 'loadedTime': 3106.400000035763, 'positionName': 'RIGHT', 'positionCoords': [798.72, 226.5], 'bid': 9.44}]",139964.10000002384,1669830145049,roastedpotatoes,raspberries,8.72,9.44,0.7199999999999989,raspberries,3293.300000011921,3293,3293.699999988079,True,i,143759.80000001192,3795.699999988079,1669830148845,3796,HRV,HRV_0094,2022-11-30 17:47:23
84,"[{'imgObject': {}, 'id': 'rigatoni and sauce', 'src': '/static/foodstim60/rigatoni and sauce.jpg', 'key': 'u', 'origWidth': 410, 'origHeight': 411, 'width': 410, 'height': 411, 'widthPercent': 0.45, 'rescaleHeight': False, 'trialN': 84, 'loaded': True, 'loadedTime': 2967.300000011921, 'positionName': 'LEFT', 'positionCoords': [327.28, 226.5], 'bid': 8.9}, {'imgObject': {}, 'id': 'Grapes', 'src': '/static/foodstim60/Grapes.jpg', 'key': 'i', 'origWidth': 411, 'origHeight': 411, 'width': 411, 'height': 411, 'widthPercent': 0.45, 'rescaleHeight': False, 'trialN': 84, 'loaded': True, 'loadedTime': 3003.5, 'positionName': 'RIGHT', 'positionCoords': [798.72, 226.5], 'bid': 9.25}]",143760.80000001192,1669830148845,rigatoni and sauce,Grapes,8.9,9.25,0.34999999999999964,Grapes,816.6000000238419,817,817.0,True,i,145094.5,1333.699999988079,1669830150179,1334,HRV,HRV_0094,2022-11-30 17:47:23
85,"[{'imgObject': {}, 'id': 'blueberries', 'src': '/static/foodstim60/blueberries.jpg', 'key': 'u', 'origWidth': 411, 'origHeight': 411, 'width': 411, 'height': 411, 'widthPercent': 0.45, 'rescaleHeight': False, 'trialN': 85, 'loaded': True, 'loadedTime': 2998.300000011921, 'positionName': 'LEFT', 'positionCoords': [326.28, 226.5], 'bid': 8.17}, {'imgObject': {}, 'id': 'roastedpotatoes', 'src': '/static/foodstim60/roastedpotatoes.jpg', 'key': 'i', 'origWidth': 409, 'origHeight': 410, 'width': 409, 'height': 410, 'widthPercent': 0.45, 'rescaleHeight': False, 'trialN': 85, 'loaded': True, 'loadedTime': 2854.800000011921, 'positionName': 'RIGHT', 'positionCoords': [798.72, 227], 'bid': 8.72}]",145094.80000001192,1669830150179,blueberries,roastedpotatoes,8.17,8.72,0.5500000000000007,roastedpotatoes,701.1999999880791,704,703.3000000119209,True,i,146304.40000003576,1209.6000000238419,1669830151389,1210,HRV,HRV_0094,2022-11-30 17:47:23
86,"[{'imgObject': {}, 'id': 'lox', 'src': '/static/foodstim60/lox.jpg', 'key': 'u', 'origWidth': 410, 'origHeight': 411, 'width': 410, 'height': 411, 'widthPercent': 0.45, 'rescaleHeight': False, 'trialN': 86, 'loaded': True, 'loadedTime': 3193.100000023842, 'positionName': 'LEFT', 'positionCoords': [327.28, 226.5], 'bid': 3.88}, {'imgObject': {}, 'id': 'sushi w_condiments', 'src': '/static/foodstim60/sushi w_condiments.jpg', 'key': 'i', 'origWidth': 410, 'origHeight': 410, 'width': 410, 'height': 410, 'widthPercent': 0.45, 'rescaleHeight': False, 'trialN': 86, 'loaded': True, 'loadedTime': 3154.800000011921, 'positionName': 'RIGHT', 'positionCoords': [798.72, 227], 'bid': 0.93}]",146305.20000004768,1669830151390,lox,sushi w_condiments,3.88,0.93,-2.9499999999999997,lox,952.2999999523163,954,954.2999999523163,True,u,147762.0,1456.7999999523163,1669830152847,1457,HRV,HRV_0094,2022-11-30 17:47:23
87,"[{'imgObject': {}, 'id': 'avocado', 'src': '/static/foodstim60/avocado.jpg', 'key': 'u', 'origWidth': 409, 'origHeight': 409, 'width': 409, 'height': 409, 'widthPercent': 0.45, 'rescaleHeight': False, 'trialN': 87, 'loaded': True, 'loadedTime': 3084.600000023842, 'positionName': 'LEFT', 'positionCoords': [328.28, 227.5], 'bid': 8.48}, {'imgObject': {}, 'id': 'roastedpotatoes', 'src': '/static/foodstim60/roastedpotatoes.jpg', 'key': 'i', 'origWidth': 409, 'origHeight': 410, 'width': 409, 'height': 410, 'widthPercent': 0.45, 'rescaleHeight': False, 'trialN': 87, 'loaded': True, 'loadedTime': 2853.400000035763, 'positionName': 'RIGHT', 'positionCoords': [798.72, 227], 'bid': 8.72}]",147762.90000003576,1669830152847,avocado,roastedpotatoes,8.48,8.72,0.2400000000000002,avocado,693,694,693.8999999761581,True,u,148969.40000003576,1206.5,1669830154054,1207,HRV,HRV_0094,2022-11-30 17:47:23
88,"[{'imgObject': {}, 'id': 'kiwi', 'src': '/static/foodstim60/kiwi.jpg', 'key': 'u', 'origWidth': 410, 'origHeight': 410, 'width': 410, 'height': 410, 'widthPercent': 0.45, 'rescaleHeight': False, 'trialN': 88, 'loaded': True, 'loadedTime': 3103.300000011921, 'positionName': 'LEFT', 'positionCoords': [327.28, 227], 'bid': 9.16}, {'imgObject': {}, 'id': 'ice cream sundae 002', 'src': '/static/foodstim60/ice cream sundae 002.jpg', 'key': 'i', 'origWidth': 409, 'origHeight': 409, 'width': 409, 'height': 409, 'widthPercent': 0.45, 'rescaleHeight': False, 'trialN': 88, 'loaded': True, 'loadedTime': 2863.100000023842, 'positionName': 'RIGHT', 'positionCoords': [798.72, 227.5], 'bid': 5.92}]",148969.5,1669830154054,kiwi,ice cream sundae 002,9.16,5.92,-3.24,kiwi,618.8000000119209,620,619.9000000357628,True,u,150103.0,1133.5,1669830155188,1134,HRV,HRV_0094,2022-11-30 17:47:23
89,"[{'imgObject': {}, 'id': 'cherries', 'src': '/static/foodstim60/cherries.jpg', 'key': 'u', 'origWidth': 410, 'origHeight': 411, 'width': 410, 'height': 411, 'widthPercent': 0.45, 'rescaleHeight': False, 'trialN': 89, 'loaded': True, 'loadedTime': 2841.900000035763, 'positionName': 'LEFT', 'positionCoords': [327.28, 226.5], 'bid': 9.23}, {'imgObject': {}, 'id': 'burrito', 'src': '/static/foodstim60/burrito.jpg', 'key': 'i', 'origWidth': 410, 'origHeight': 410, 'width': 410, 'height': 410, 'widthPercent': 0.45, 'rescaleHeight': False, 'trialN': 89, 'loaded': True, 'loadedTime': 2980.400000035763, 'positionName': 'RIGHT', 'positionCoords': [798.72, 227], 'bid': 8.290000000000001}]",150103.90000003576,1669830155189,cherries,burrito,9.23,8.290000000000001,-0.9399999999999995,burrito,679.3999999761581,680,680.8999999761581,True,i,151302.0,1198.0999999642372,1669830156387,1198,HRV,HRV_0094,2022-11-30 17:47:23
90,"[{'imgObject': {}, 'id': 'chicken nuggets2', 'src': '/static/foodstim60/chicken nuggets2.jpg', 'key': 'u', 'origWidth': 410, 'origHeight': 409, 'width': 410, 'height': 409, 'widthPercent': 0.45, 'rescaleHeight': False, 'trialN': 90, 'loaded': True, 'loadedTime': 3191.7000000476837, 'positionName': 'LEFT', 'positionCoords': [327.28, 227.5], 'bid': 0.31}, {'imgObject': {}, 'id': 'sushi w_condiments', 'src': '/static/foodstim60/sushi w_condiments.jpg', 'key': 'i', 'origWidth': 410, 'origHeight': 410, 'width': 410, 'height': 410, 'widthPercent': 0.45, 'rescaleHeight': False, 'trialN': 90, 'loaded': True, 'loadedTime': 3155.800000011921, 'positionName': 'RIGHT', 'positionCoords': [798.72, 227], 'bid': 0.93}]",313700.0,1669830318784,chicken nuggets2,sushi w_condiments,0.31,0.93,0.6200000000000001,chicken nuggets2,1234.1000000238419,1235,1234.5,True,u,315452.2000000477,1752.2000000476837,1669830320537,1753,HRV,HRV_0094,2022-11-30 17:47:23
91,"[{'imgObject': {}, 'id': 'cocktailshrimp', 'src': '/static/foodstim60/cocktailshrimp.jpg', 'key': 'u', 'origWidth': 410, 'origHeight': 410, 'width': 410, 'height': 410, 'widthPercent': 0.45, 'rescaleHeight': False, 'trialN': 91, 'loaded': True, 'loadedTime': 2907.100000023842, 'positionName': 'LEFT', 'positionCoords': [327.28, 227], 'bid': 0.62}, {'imgObject': {}, 'id': 'popsicles', 'src': '/static/foodstim60/popsicles.jpg', 'key': 'i', 'origWidth': 410, 'origHeight': 410, 'width': 410, 'height': 410, 'widthPercent': 0.45, 'rescaleHeight': False, 'trialN': 91, 'loaded': True, 'loadedTime': 3243.600000023842, 'positionName': 'RIGHT', 'positionCoords': [798.72, 227], 'bid': 0.87}]",315452.60000002384,1669830320537,cocktailshrimp,popsicles,0.62,0.87,0.25,popsicles,560.3999999761581,561,560.8000000119209,True,i,316534.2000000477,1081.6000000238419,1669830321619,1082,HRV,HRV_0094,2022-11-30 17:47:23
92,"[{'imgObject': {}, 'id': 'bagel plain', 'src': '/static/foodstim60/bagel plain.jpg', 'key': 'u', 'origWidth': 410, 'origHeight': 410, 'width': 410, 'height': 410, 'widthPercent': 0.45, 'rescaleHeight': False, 'trialN': 92, 'loaded': True, 'loadedTime': 3168.400000035763, 'positionName': 'LEFT', 'positionCoords': [327.28, 227], 'bid': 7.66}, {'imgObject': {}, 'id': 'chicken nuggets2', 'src': '/static/foodstim60/chicken nuggets2.jpg', 'key': 'i', 'origWidth': 410, 'origHeight': 409, 'width': 410, 'height': 409, 'widthPercent': 0.45, 'rescaleHeight': False, 'trialN': 92, 'loaded': True, 'loadedTime': 3191.400000035763, 'positionName': 'RIGHT', 'positionCoords': [798.72, 227.5], 'bid': 0.31}]",316534.90000003576,1669830321619,bagel plain,chicken nuggets2,7.66,0.31,-7.3500000000000005,bagel plain,928.5999999642372,931,930.3000000119209,True,u,317966.8000000119,1431.8999999761581,1669830323051,1432,HRV,HRV_0094,2022-11-30 17:47:23
93,"[{'imgObject': {}, 'id': 'shreddedwheatwithmilk', 'src': '/static/foodstim60/shreddedwheatwithmilk.jpg', 'key': 'u', 'origWidth': 410, 'origHeight': 410, 'width': 410, 'height': 410, 'widthPercent': 0.45, 'rescaleHeight': False, 'trialN': 93, 'loaded': True, 'loadedTime': 3102.800000011921, 'positionName': 'LEFT', 'positionCoords': [327.28, 227], 'bid': 1.19}, {'imgObject': {}, 'id': 'avocado', 'src': '/static/foodstim60/avocado.jpg', 'key': 'i', 'origWidth': 409, 'origHeight': 409, 'width': 409, 'height': 409, 'widthPercent': 0.45, 'rescaleHeight': False, 'trialN': 93, 'loaded': True, 'loadedTime': 3084.300000011921, 'positionName': 'RIGHT', 'positionCoords': [798.72, 227.5], 'bid': 8.48}]",317967.40000003576,1669830323052,shreddedwheatwithmilk,avocado,1.19,8.48,7.290000000000001,avocado,618.3000000119209,620,620.1999999880791,True,i,319091.10000002384,1123.699999988079,1669830324176,1124,HRV,HRV_0094,2022-11-30 17:47:23
94,"[{'imgObject': {}, 'id': 'bagel plain', 'src': '/static/foodstim60/bagel plain.jpg', 'key': 'u', 'origWidth': 410, 'origHeight': 410, 'width': 410, 'height': 410, 'widthPercent': 0.45, 'rescaleHeight': False, 'trialN': 94, 'loaded': True, 'loadedTime': 3166.600000023842, 'positionName': 'LEFT', 'positionCoords': [327.28, 227], 'bid': 7.66}, {'imgObject': {}, 'id': 'ice cream sundae 002', 'src': '/static/foodstim60/ice cream sundae 002.jpg', 'key': 'i', 'origWidth': 409, 'origHeight': 409, 'width': 409, 'height': 409, 'widthPercent': 0.45, 'rescaleHeight': False, 'trialN': 94, 'loaded': True, 'loadedTime': 2864.5, 'positionName': 'RIGHT', 'positionCoords': [798.72, 227.5], 'bid': 5.92}]",319091.8000000119,1669830324176,bagel plain,ice cream sundae 002,7.66,5.92,-1.7400000000000002,bagel plain,641.8000000119209,644,643.4000000357628,True,u,320245.3000000119,1153.5,1669830325330,1154,HRV,HRV_0094,2022-11-30 17:47:23
95,"[{'imgObject': {}, 'id': 'bagel plain', 'src': '/static/foodstim60/bagel plain.jpg', 'key': 'u', 'origWidth': 410, 'origHeight': 410, 'width': 410, 'height': 410, 'widthPercent': 0.45, 'rescaleHeight': False, 'trialN': 95, 'loaded': True, 'loadedTime': 3167.900000035763, 'positionName': 'LEFT', 'positionCoords': [327.28, 227], 'bid': 7.66}, {'imgObject': {}, 'id': 'eggsalad', 'src': '/static/foodstim60/eggsalad.jpg', 'key': 'i', 'origWidth': 410, 'origHeight': 409, 'width': 410, 'height': 409, 'widthPercent': 0.45, 'rescaleHeight': False, 'trialN': 95, 'loaded': True, 'loadedTime': 2845, 'positionName': 'RIGHT', 'positionCoords': [798.72, 227.5], 'bid': 7.18}]",320245.60000002384,1669830325330,bagel plain,eggsalad,7.66,7.18,-0.4800000000000004,bagel plain,742,743,742.5,True,u,321498.10000002384,1252.5,1669830326583,1253,HRV,HRV_0094,2022-11-30 17:47:23
96,"[{'imgObject': {}, 'id': 'lox', 'src': '/static/foodstim60/lox.jpg', 'key': 'u', 'origWidth': 410, 'origHeight': 411, 'width': 410, 'height': 411, 'widthPercent': 0.45, 'rescaleHeight': False, 'trialN': 96, 'loaded': True, 'loadedTime': 3193.100000023842, 'positionName': 'LEFT', 'positionCoords': [327.28, 226.5], 'bid': 3.88}, {'imgObject': {}, 'id': 'froot loops w milk', 'src': '/static/foodstim60/froot loops w milk.jpg', 'key': 'i', 'origWidth': 410, 'origHeight': 410, 'width': 410, 'height': 410, 'widthPercent': 0.45, 'rescaleHeight': False, 'trialN': 96, 'loaded': True, 'loadedTime': 2901.900000035763, 'positionName': 'RIGHT', 'positionCoords': [798.72, 227], 'bid': 0.31}]",321498.40000003576,1669830326583,lox,froot loops w milk,3.88,0.31,-3.57,lox,1253.199999988079,1255,1254.800000011921,True,u,323254.2000000477,1755.800000011921,1669830328339,1756,HRV,HRV_0094,2022-11-30 17:47:23
97,"[{'imgObject': {}, 'id': 'salmon', 'src': '/static/foodstim60/salmon.jpg', 'key': 'u', 'origWidth': 410, 'origHeight': 409, 'width': 410, 'height': 409, 'widthPercent': 0.45, 'rescaleHeight': False, 'trialN': 97, 'loaded': True, 'loadedTime': 3015.600000023842, 'positionName': 'LEFT', 'positionCoords': [327.28, 227.5], 'bid': 2.29}, {'imgObject': {}, 'id': 'fried eggs', 'src': '/static/foodstim60/fried eggs.jpg', 'key': 'i', 'origWidth': 410, 'origHeight': 410, 'width': 410, 'height': 410, 'widthPercent': 0.45, 'rescaleHeight': False, 'trialN': 97, 'loaded': True, 'loadedTime': 3041.800000011921, 'positionName': 'RIGHT', 'positionCoords': [798.72, 227], 'bid': 7.1000000000000005}]",323255.3000000119,1669830328340,salmon,fried eggs,2.29,7.1000000000000005,4.8100000000000005,salmon,780.6000000238419,781,781.3000000119209,True,u,324552.0,1296.699999988079,1669830329636,1296,HRV,HRV_0094,2022-11-30 17:47:23
98,"[{'imgObject': {}, 'id': 'fried eggs', 'src': '/static/foodstim60/fried eggs.jpg', 'key': 'u', 'origWidth': 410, 'origHeight': 410, 'width': 410, 'height': 410, 'widthPercent': 0.45, 'rescaleHeight': False, 'trialN': 98, 'loaded': True, 'loadedTime': 3040.5, 'positionName': 'LEFT', 'positionCoords': [327.28, 227], 'bid': 7.1000000000000005}, {'imgObject': {}, 'id': 'burrito', 'src': '/static/foodstim60/burrito.jpg', 'key': 'i', 'origWidth': 410, 'origHeight': 410, 'width': 410, 'height': 410, 'widthPercent': 0.45, 'rescaleHeight': False, 'trialN': 98, 'loaded': True, 'loadedTime': 2979.900000035763, 'positionName': 'RIGHT', 'positionCoords': [798.72, 227], 'bid': 8.290000000000001}]",324552.5,1669830329637,fried eggs,burrito,7.1000000000000005,8.290000000000001,1.1900000000000004,burrito,1102,1104,1103.7000000476837,True,i,326164.8000000119,1612.300000011921,1669830331249,1612,HRV,HRV_0094,2022-11-30 17:47:23
99,"[{'imgObject': {}, 'id': 'lox', 'src': '/static/foodstim60/lox.jpg', 'key': 'u', 'origWidth': 410, 'origHeight': 411, 'width': 410, 'height': 411, 'widthPercent': 0.45, 'rescaleHeight': False, 'trialN': 99, 'loaded': True, 'loadedTime': 3191.800000011921, 'positionName': 'LEFT', 'positionCoords': [327.28, 226.5], 'bid': 3.88}, {'imgObject': {}, 'id': 'corn cob', 'src': '/static/foodstim60/corn cob.jpg', 'key': 'i', 'origWidth': 411, 'origHeight': 411, 'width': 411, 'height': 411, 'widthPercent': 0.45, 'rescaleHeight': False, 'trialN': 99, 'loaded': True, 'loadedTime': 3043.5, 'positionName': 'RIGHT', 'positionCoords': [798.72, 226.5], 'bid': 9.06}]",326165.7000000477,1669830331250,lox,corn cob,3.88,9.06,5.180000000000001,corn cob,2315.699999988079,2317,2316.699999988079,True,i,328988.5,2822.7999999523163,1669830334073,2823,HRV,HRV_0094,2022-11-30 17:47:23
100,"[{'imgObject': {}, 'id': 'granola w milk', 'src': '/static/foodstim60/granola w milk.jpg', 'key': 'u', 'origWidth': 410, 'origHeight': 410, 'width': 410, 'height': 410, 'widthPercent': 0.45, 'rescaleHeight': False, 'trialN': 100, 'loaded': True, 'loadedTime': 3171, 'positionName': 'LEFT', 'positionCoords': [327.28, 227], 'bid': 2.81}, {'imgObject': {}, 'id': 'apple slices', 'src': '/static/foodstim60/apple slices.jpg', 'key': 'i', 'origWidth': 409, 'origHeight': 410, 'width': 409, 'height': 410, 'widthPercent': 0.45, 'rescaleHeight': False, 'trialN': 100, 'loaded': True, 'loadedTime': 2803.800000011921, 'positionName': 'RIGHT', 'positionCoords': [798.72, 227], 'bid': 9.01}]",328988.7000000477,1669830334073,granola w milk,apple slices,2.81,9.01,6.199999999999999,apple slices,667.5,669,668.6999999880791,True,i,330170.0,1181.2999999523163,1669830335254,1181,HRV,HRV_0094,2022-11-30 17:47:23
101,"[{'imgObject': {}, 'id': 'Grapes', 'src': '/static/foodstim60/Grapes.jpg', 'key': 'u', 'origWidth': 411, 'origHeight': 411, 'width': 411, 'height': 411, 'widthPercent': 0.45, 'rescaleHeight': False, 'trialN': 101, 'loaded': True, 'loadedTime': 3003.7000000476837, 'positionName': 'LEFT', 'positionCoords': [326.28, 226.5], 'bid': 9.25}, {'imgObject': {}, 'id': 'cherry tomato', 'src': '/static/foodstim60/cherry tomato.jpg', 'key': 'i', 'origWidth': 410, 'origHeight': 410, 'width': 410, 'height': 410, 'widthPercent': 0.45, 'rescaleHeight': False, 'trialN': 101, 'loaded': True, 'loadedTime': 3187.900000035763, 'positionName': 'RIGHT', 'positionCoords': [798.72, 227], 'bid': 9.11}]",330170.40000003576,1669830335255,Grapes,cherry tomato,9.25,9.11,-0.14000000000000057,Grapes,695.1999999880791,696,695.8000000119209,True,u,331382.7000000477,1212.300000011921,1669830336467,1212,HRV,HRV_0094,2022-11-30 17:47:23
102,"[{'imgObject': {}, 'id': 'banana', 'src': '/static/foodstim60/banana.jpg', 'key': 'u', 'origWidth': 410, 'origHeight': 410, 'width': 410, 'height': 410, 'widthPercent': 0.45, 'rescaleHeight': False, 'trialN': 102, 'loaded': True, 'loadedTime': 2876.100000023842, 'positionName': 'LEFT', 'positionCoords': [327.28, 227], 'bid': 8.47}, {'imgObject': {}, 'id': 'luckycharms', 'src': '/static/foodstim60/luckycharms.jpg', 'key': 'i', 'origWidth': 410, 'origHeight': 409, 'width': 410, 'height': 409, 'widthPercent': 0.45, 'rescaleHeight': False, 'trialN': 102, 'loaded': True, 'loadedTime': 3124.2000000476837, 'positionName': 'RIGHT', 'positionCoords': [798.72, 227.5], 'bid': 1.04}]",331383.90000003576,1669830336468,banana,luckycharms,8.47,1.04,-7.430000000000001,banana,689.5,691,690.5,True,u,332586.2000000477,1202.300000011921,1669830337671,1203,HRV,HRV_0094,2022-11-30 17:47:23
103,"[{'imgObject': {}, 'id': 'kiwi', 'src': '/static/foodstim60/kiwi.jpg', 'key': 'u', 'origWidth': 410, 'origHeight': 410, 'width': 410, 'height': 410, 'widthPercent': 0.45, 'rescaleHeight': False, 'trialN': 103, 'loaded': True, 'loadedTime': 3105.2000000476837, 'positionName': 'LEFT', 'positionCoords': [327.28, 227], 'bid': 9.16}, {'imgObject': {}, 'id': 'blueberries', 'src': '/static/foodstim60/blueberries.jpg', 'key': 'i', 'origWidth': 411, 'origHeight': 411, 'width': 411, 'height': 411, 'widthPercent': 0.45, 'rescaleHeight': False, 'trialN': 103, 'loaded': True, 'loadedTime': 2998.7000000476837, 'positionName': 'RIGHT', 'positionCoords': [798.72, 226.5], 'bid': 8.17}]",332587.0,1669830337672,kiwi,blueberries,9.16,8.17,-0.9900000000000002,kiwi,684.7000000476837,686,686.4000000357628,True,u,333787.90000003576,1200.9000000357628,1669830338872,1200,HRV,HRV_0094,2022-11-30 17:47:23
104,"[{'imgObject': {}, 'id': 'mac & cheese', 'src': '/static/foodstim60/mac & cheese.jpg', 'key': 'u', 'origWidth': 410, 'origHeight': 410, 'width': 410, 'height': 410, 'widthPercent': 0.45, 'rescaleHeight': False, 'trialN': 104, 'loaded': True, 'loadedTime': 2910.100000023842, 'positionName': 'LEFT', 'positionCoords': [327.28, 227], 'bid': 7.1000000000000005}, {'imgObject': {}, 'id': 'salad w chicken', 'src': '/static/foodstim60/salad w chicken.jpg', 'key': 'i', 'origWidth': 411, 'origHeight': 411, 'width': 411, 'height': 411, 'widthPercent': 0.45, 'rescaleHeight': False, 'trialN': 104, 'loaded': True, 'loadedTime': 3124.2000000476837, 'positionName': 'RIGHT', 'positionCoords': [798.72, 226.5], 'bid': 2.3000000000000003}]",333788.40000003576,1669830338873,mac & cheese,salad w chicken,7.1000000000000005,2.3000000000000003,-4.800000000000001,mac & cheese,823.5,824,824.5,True,u,335122.90000003576,1334.5,1669830340207,1334,HRV,HRV_0094,2022-11-30 17:47:23
105,"[{'imgObject': {}, 'id': 'sushi w_condiments', 'src': '/static/foodstim60/sushi w_condiments.jpg', 'key': 'u', 'origWidth': 410, 'origHeight': 410, 'width': 410, 'height': 410, 'widthPercent': 0.45, 'rescaleHeight': False, 'trialN': 105, 'loaded': True, 'loadedTime': 3155.400000035763, 'positionName': 'LEFT', 'positionCoords': [327.28, 227], 'bid': 0.93}, {'imgObject': {}, 'id': 'turkey sandwich', 'src': '/static/foodstim60/turkey sandwich.jpg', 'key': 'i', 'origWidth': 409, 'origHeight': 409, 'width': 409, 'height': 409, 'widthPercent': 0.45, 'rescaleHeight': False, 'trialN': 105, 'loaded': True, 'loadedTime': 2983.100000023842, 'positionName': 'RIGHT', 'positionCoords': [798.72, 227.5], 'bid': 0.88}]",335123.10000002384,1669830340208,sushi w_condiments,turkey sandwich,0.93,0.88,-0.050000000000000044,NaN,NaN,NaN,,False,NaN,339145.3000000119,4022.199999988079,1669830344230,4022,HRV,HRV_0094,2022-11-30 17:47:23
106,"[{'imgObject': {}, 'id': 'popsicles', 'src': '/static/foodstim60/popsicles.jpg', 'key': 'u', 'origWidth': 410, 'origHeight': 410, 'width': 410, 'height': 410, 'widthPercent': 0.45, 'rescaleHeight': False, 'trialN': 106, 'loaded': True, 'loadedTime': 3243.600000023842, 'positionName': 'LEFT', 'positionCoords': [327.28, 227], 'bid': 0.87}, {'imgObject': {}, 'id': 'eggs', 'src': '/static/foodstim60/eggs.jpg', 'key': 'i', 'origWidth': 409, 'origHeight': 409, 'width': 409, 'height': 409, 'widthPercent': 0.45, 'rescaleHeight': False, 'trialN': 106, 'loaded': True, 'loadedTime': 3188.800000011921, 'positionName': 'RIGHT', 'positionCoords': [798.72, 227.5], 'bid': 1.51}]",339145.90000003576,1669830344230,popsicles,eggs,0.87,1.51,0.64,NaN,NaN,NaN,,False,NaN,343166.60000002384,4020.699999988079,1669830348251,4021,HRV,HRV_0094,2022-11-30 17:47:23
107,"[{'imgObject': {}, 'id': 'cherry tomato', 'src': '/static/foodstim60/cherry tomato.jpg', 'key': 'u', 'origWidth': 410, 'origHeight': 410, 'width': 410, 'height': 410, 'widthPercent': 0.45, 'rescaleHeight': False, 'trialN': 107, 'loaded': True, 'loadedTime': 3188.600000023842, 'positionName': 'LEFT', 'positionCoords': [327.28, 227], 'bid': 9.11}, {'imgObject': {}, 'id': 'chickenfingers', 'src': '/static/foodstim60/chickenfingers.jpg', 'key': 'i', 'origWidth': 410, 'origHeight': 410, 'width': 410, 'height': 410, 'widthPercent': 0.45, 'rescaleHeight': False, 'trialN': 107, 'loaded': True, 'loadedTime': 2871.600000023842, 'positionName': 'RIGHT', 'positionCoords': [798.72, 227], 'bid': 9.11}]",343166.8000000119,1669830348251,cherry tomato,chickenfingers,9.11,9.11,0.0,cherry tomato,572.8000000119209,574,573.4000000357628,True,u,344241.3000000119,1074.5,1669830349326,1075,HRV,HRV_0094,2022-11-30 17:47:23
108,"[{'imgObject': {}, 'id': 'edamame', 'src': '/static/foodstim60/edamame.jpg', 'key': 'u', 'origWidth': 409, 'origHeight': 410, 'width': 409, 'height': 410, 'widthPercent': 0.45, 'rescaleHeight': False, 'trialN': 108, 'loaded': True, 'loadedTime': 3000.300000011921, 'positionName': 'LEFT', 'positionCoords': [328.28, 227], 'bid': 8.24}, {'imgObject': {}, 'id': 'banana', 'src': '/static/foodstim60/banana.jpg', 'key': 'i', 'origWidth': 410, 'origHeight': 410, 'width': 410, 'height': 410, 'widthPercent': 0.45, 'rescaleHeight': False, 'trialN': 108, 'loaded': True, 'loadedTime': 2875.900000035763, 'positionName': 'RIGHT', 'positionCoords': [798.72, 227], 'bid': 8.47}]",344241.5,1669830349326,edamame,banana,8.24,8.47,0.23000000000000043,banana,514.4000000357628,515,514.9000000357628,True,i,345277.2000000477,1035.7000000476837,1669830350362,1036,HRV,HRV_0094,2022-11-30 17:47:23
