trialN,stimuli,question,trialStartTime,trialStartTime_UNIX,stimulus1,rt,receivedResponse,rating,trialEndTime,trialDuration,stimulus1Loaded,exp,subjectId,date
0,"[{'imgObject': {}, 'id': 'bagel and cc', 'src': '/static/foodstim60/bagel and cc.jpg', 'key': 'NaN', 'origWidth': 410, 'origHeight': 410, 'width': 410, 'height': 410, 'widthPercent': 0.8, 'rescaleHeight': True, 'trialN': 0, 'loaded': True, 'loadedTime': 57588.30000001192, 'positionName': 'CENTER', 'positionCoords': [563, 227]}]",Rate how much you want to eat this food from 0 (least) to 10 (most).,58138.30000001192,1669829686887,bagel and cc,1689.3999999761581,True,8.45,59827.69999998808,1689.3999999761581,True,HRV,HRV_0094,2022-11-30 17:36:37
1,"[{'imgObject': {}, 'id': 'eggs', 'src': '/static/foodstim60/eggs.jpg', 'key': 'NaN', 'origWidth': 409, 'origHeight': 409, 'width': 409, 'height': 409, 'widthPercent': 0.8, 'rescaleHeight': True, 'trialN': 1, 'loaded': True, 'loadedTime': 57580.60000002384, 'positionName': 'CENTER', 'positionCoords': [563.5, 227.5]}]",Rate how much you want to eat this food from 0 (least) to 10 (most).,59832.10000002384,1669829688581,eggs,1196.199999988079,True,4.34,61028.30000001192,1196.199999988079,True,HRV,HRV_0094,2022-11-30 17:36:37
2,"[{'imgObject': {}, 'id': 'hotdog w must', 'src': '/static/foodstim60/hotdog w must.jpg', 'key': 'NaN', 'origWidth': 409, 'origHeight': 409, 'width': 409, 'height': 409, 'widthPercent': 0.8, 'rescaleHeight': True, 'trialN': 2, 'loaded': True, 'loadedTime': 57641.30000001192, 'positionName': 'CENTER', 'positionCoords': [563.5, 227.5]}]",Rate how much you want to eat this food from 0 (least) to 10 (most).,61031.19999998808,1669829689779,hotdog w must,1188.699999988079,True,0.8300000000000001,62219.89999997616,1188.699999988079,True,HRV,HRV_0094,2022-11-30 17:36:37
3,"[{'imgObject': {}, 'id': 'turkey sandwich', 'src': '/static/foodstim60/turkey sandwich.jpg', 'key': 'NaN', 'origWidth': 409, 'origHeight': 409, 'width': 409, 'height': 409, 'widthPercent': 0.8, 'rescaleHeight': True, 'trialN': 3, 'loaded': True, 'loadedTime': 57677, 'positionName': 'CENTER', 'positionCoords': [563.5, 227.5]}]",Rate how much you want to eat this food from 0 (least) to 10 (most).,62222.89999997616,1669829690971,turkey sandwich,884.5,True,0.22,63107.39999997616,884.5,True,HRV,HRV_0094,2022-11-30 17:36:37
4,"[{'imgObject': {}, 'id': 'Tribe humus pita', 'src': '/static/foodstim60/Tribe humus pita.jpg', 'key': 'NaN', 'origWidth': 411, 'origHeight': 411, 'width': 411, 'height': 411, 'widthPercent': 0.8, 'rescaleHeight': True, 'trialN': 4, 'loaded': True, 'loadedTime': 57683.69999998808, 'positionName': 'CENTER', 'positionCoords': [562.5, 226.5]}]",Rate how much you want to eat this food from 0 (least) to 10 (most).,63110.80000001192,1669829691858,Tribe humus pita,1036.8999999761581,True,5.95,64147.69999998808,1036.8999999761581,True,HRV,HRV_0094,2022-11-30 17:36:37
5,"[{'imgObject': {}, 'id': 'rigatoni and sauce', 'src': '/static/foodstim60/rigatoni and sauce.jpg', 'key': 'NaN', 'origWidth': 410, 'origHeight': 411, 'width': 410, 'height': 411, 'widthPercent': 0.8, 'rescaleHeight': True, 'trialN': 5, 'loaded': True, 'loadedTime': 57719.19999998808, 'positionName': 'CENTER', 'positionCoords': [563, 226.5]}]",Rate how much you want to eat this food from 0 (least) to 10 (most).,64150.30000001192,1669829692898,rigatoni and sauce,845.5999999642372,True,8.05,64995.89999997616,845.5999999642372,True,HRV,HRV_0094,2022-11-30 17:36:37
6,"[{'imgObject': {}, 'id': 'mango', 'src': '/static/foodstim60/mango.jpg', 'key': 'NaN', 'origWidth': 411, 'origHeight': 411, 'width': 411, 'height': 411, 'widthPercent': 0.8, 'rescaleHeight': True, 'trialN': 6, 'loaded': True, 'loadedTime': 57730.69999998808, 'positionName': 'CENTER', 'positionCoords': [562.5, 226.5]}]",Rate how much you want to eat this food from 0 (least) to 10 (most).,64998.30000001192,1669829693746,mango,925.5999999642372,True,9.27,65923.89999997616,925.5999999642372,True,HRV,HRV_0094,2022-11-30 17:36:37
7,"[{'imgObject': {}, 'id': 'luckycharms', 'src': '/static/foodstim60/luckycharms.jpg', 'key': 'NaN', 'origWidth': 410, 'origHeight': 409, 'width': 410, 'height': 409, 'widthPercent': 0.8, 'rescaleHeight': True, 'trialN': 7, 'loaded': True, 'loadedTime': 57714.80000001192, 'positionName': 'CENTER', 'positionCoords': [563, 227.5]}]",Rate how much you want to eat this food from 0 (least) to 10 (most).,65926.69999998808,1669829694674,luckycharms,2084.300000011921,True,0.26,68011.0,2084.300000011921,True,HRV,HRV_0094,2022-11-30 17:36:37
8,"[{'imgObject': {}, 'id': 'olives', 'src': '/static/foodstim60/olives.jpg', 'key': 'NaN', 'origWidth': 410, 'origHeight': 410, 'width': 410, 'height': 410, 'widthPercent': 0.8, 'rescaleHeight': True, 'trialN': 8, 'loaded': True, 'loadedTime': 57734.60000002384, 'positionName': 'CENTER', 'positionCoords': [563, 227]}]",Rate how much you want to eat this food from 0 (least) to 10 (most).,68012.60000002384,1669829696760,olives,1103.2999999523163,True,7.13,69115.89999997616,1103.2999999523163,True,HRV,HRV_0094,2022-11-30 17:36:37
9,"[{'imgObject': {}, 'id': 'salad w chicken', 'src': '/static/foodstim60/salad w chicken.jpg', 'key': 'NaN', 'origWidth': 411, 'origHeight': 411, 'width': 411, 'height': 411, 'widthPercent': 0.8, 'rescaleHeight': True, 'trialN': 9, 'loaded': True, 'loadedTime': 57742.39999997616, 'positionName': 'CENTER', 'positionCoords': [562.5, 226.5]}]",Rate how much you want to eat this food from 0 (least) to 10 (most).,69118.39999997616,1669829697866,salad w chicken,988.7000000476837,True,1.11,70107.10000002384,988.7000000476837,True,HRV,HRV_0094,2022-11-30 17:36:37
10,"[{'imgObject': {}, 'id': 'blackbeanswithrice', 'src': '/static/foodstim60/blackbeanswithrice.jpg', 'key': 'NaN', 'origWidth': 410, 'origHeight': 410, 'width': 410, 'height': 410, 'widthPercent': 0.8, 'rescaleHeight': True, 'trialN': 10, 'loaded': True, 'loadedTime': 57738.10000002384, 'positionName': 'CENTER', 'positionCoords': [563, 227]}]",Rate how much you want to eat this food from 0 (least) to 10 (most).,70109.5,1669829698857,blackbeanswithrice,1382.3999999761581,True,4.42,71491.89999997616,1382.3999999761581,True,HRV,HRV_0094,2022-11-30 17:36:37
11,"[{'imgObject': {}, 'id': 'cherries', 'src': '/static/foodstim60/cherries.jpg', 'key': 'NaN', 'origWidth': 410, 'origHeight': 411, 'width': 410, 'height': 411, 'widthPercent': 0.8, 'rescaleHeight': True, 'trialN': 11, 'loaded': True, 'loadedTime': 57746, 'positionName': 'CENTER', 'positionCoords': [563, 226.5]}]",Rate how much you want to eat this food from 0 (least) to 10 (most).,71494.10000002384,1669829700242,cherries,1022.0,True,8.68,72516.10000002384,1022.0,True,HRV,HRV_0094,2022-11-30 17:36:37
12,"[{'imgObject': {}, 'id': 'salmon', 'src': '/static/foodstim60/salmon.jpg', 'key': 'NaN', 'origWidth': 410, 'origHeight': 409, 'width': 410, 'height': 409, 'widthPercent': 0.8, 'rescaleHeight': True, 'trialN': 12, 'loaded': True, 'loadedTime': 57759.39999997616, 'positionName': 'CENTER', 'positionCoords': [563, 227.5]}]",Rate how much you want to eat this food from 0 (least) to 10 (most).,72519.19999998808,1669829701267,salmon,932.6999999880791,True,5.5200000000000005,73451.89999997616,932.6999999880791,True,HRV,HRV_0094,2022-11-30 17:36:37
13,"[{'imgObject': {}, 'id': 'raisin bran w milk', 'src': '/static/foodstim60/raisin bran w milk.jpg', 'key': 'NaN', 'origWidth': 411, 'origHeight': 411, 'width': 411, 'height': 411, 'widthPercent': 0.8, 'rescaleHeight': True, 'trialN': 13, 'loaded': True, 'loadedTime': 57776.30000001192, 'positionName': 'CENTER', 'positionCoords': [562.5, 226.5]}]",Rate how much you want to eat this food from 0 (least) to 10 (most).,73454.60000002384,1669829702202,raisin bran w milk,844.7999999523163,True,6.3100000000000005,74299.39999997616,844.7999999523163,True,HRV,HRV_0094,2022-11-30 17:36:37
14,"[{'imgObject': {}, 'id': 'avocado', 'src': '/static/foodstim60/avocado.jpg', 'key': 'NaN', 'origWidth': 409, 'origHeight': 409, 'width': 409, 'height': 409, 'widthPercent': 0.8, 'rescaleHeight': True, 'trialN': 14, 'loaded': True, 'loadedTime': 57762.19999998808, 'positionName': 'CENTER', 'positionCoords': [563.5, 227.5]}]",Rate how much you want to eat this food from 0 (least) to 10 (most).,74301.39999997616,1669829703049,avocado,766.4000000357628,True,8.11,75067.80000001192,766.4000000357628,True,HRV,HRV_0094,2022-11-30 17:36:37
15,"[{'imgObject': {}, 'id': 'fried eggs', 'src': '/static/foodstim60/fried eggs.jpg', 'key': 'NaN', 'origWidth': 410, 'origHeight': 410, 'width': 410, 'height': 410, 'widthPercent': 0.8, 'rescaleHeight': True, 'trialN': 15, 'loaded': True, 'loadedTime': 57766.89999997616, 'positionName': 'CENTER', 'positionCoords': [563, 227]}]",Rate how much you want to eat this food from 0 (least) to 10 (most).,75070.60000002384,1669829703818,fried eggs,1157.2999999523163,True,7.23,76227.89999997616,1157.2999999523163,True,HRV,HRV_0094,2022-11-30 17:36:37
16,"[{'imgObject': {}, 'id': 'mac & cheese', 'src': '/static/foodstim60/mac & cheese.jpg', 'key': 'NaN', 'origWidth': 410, 'origHeight': 410, 'width': 410, 'height': 410, 'widthPercent': 0.8, 'rescaleHeight': True, 'trialN': 16, 'loaded': True, 'loadedTime': 57775.10000002384, 'positionName': 'CENTER', 'positionCoords': [563, 227]}]",Rate how much you want to eat this food from 0 (least) to 10 (most).,76230.69999998808,1669829704978,mac & cheese,1028.699999988079,True,7.0,77259.39999997616,1028.699999988079,True,HRV,HRV_0094,2022-11-30 17:36:37
17,"[{'imgObject': {}, 'id': 'cheerios', 'src': '/static/foodstim60/cheerios.jpg', 'key': 'NaN', 'origWidth': 409, 'origHeight': 410, 'width': 409, 'height': 410, 'widthPercent': 0.8, 'rescaleHeight': True, 'trialN': 17, 'loaded': True, 'loadedTime': 57788.89999997616, 'positionName': 'CENTER', 'positionCoords': [563.5, 227]}]",Rate how much you want to eat this food from 0 (least) to 10 (most).,77262.19999998808,1669829706010,cheerios,805.4000000357628,True,8.16,78067.60000002384,805.4000000357628,True,HRV,HRV_0094,2022-11-30 17:36:37
18,"[{'imgObject': {}, 'id': 'tacos', 'src': '/static/foodstim60/tacos.jpg', 'key': 'NaN', 'origWidth': 411, 'origHeight': 411, 'width': 411, 'height': 411, 'widthPercent': 0.8, 'rescaleHeight': True, 'trialN': 18, 'loaded': True, 'loadedTime': 57796.39999997616, 'positionName': 'CENTER', 'positionCoords': [562.5, 226.5]}]",Rate how much you want to eat this food from 0 (least) to 10 (most).,78070.5,1669829706818,tacos,1204.3999999761581,True,9.44,79274.89999997616,1204.3999999761581,True,HRV,HRV_0094,2022-11-30 17:36:37
19,"[{'imgObject': {}, 'id': 'roastedpotatoes', 'src': '/static/foodstim60/roastedpotatoes.jpg', 'key': 'NaN', 'origWidth': 409, 'origHeight': 410, 'width': 409, 'height': 410, 'widthPercent': 0.8, 'rescaleHeight': True, 'trialN': 19, 'loaded': True, 'loadedTime': 57811.10000002384, 'positionName': 'CENTER', 'positionCoords': [563.5, 227]}]",Rate how much you want to eat this food from 0 (least) to 10 (most).,79276.0,1669829708024,roastedpotatoes,1079.6000000238419,True,7.68,80355.60000002384,1079.6000000238419,True,HRV,HRV_0094,2022-11-30 17:36:37
20,"[{'imgObject': {}, 'id': 'grilled chicken strips', 'src': '/static/foodstim60/grilled chicken strips.jpg', 'key': 'NaN', 'origWidth': 410, 'origHeight': 411, 'width': 410, 'height': 411, 'widthPercent': 0.8, 'rescaleHeight': True, 'trialN': 20, 'loaded': True, 'loadedTime': 57808.10000002384, 'positionName': 'CENTER', 'positionCoords': [563, 226.5]}]",Rate how much you want to eat this food from 0 (least) to 10 (most).,80358.10000002384,1669829709106,grilled chicken strips,877.6999999880791,True,8.45,81235.80000001192,877.6999999880791,True,HRV,HRV_0094,2022-11-30 17:36:37
21,"[{'imgObject': {}, 'id': 'bagel plain', 'src': '/static/foodstim60/bagel plain.jpg', 'key': 'NaN', 'origWidth': 410, 'origHeight': 410, 'width': 410, 'height': 410, 'widthPercent': 0.8, 'rescaleHeight': True, 'trialN': 21, 'loaded': True, 'loadedTime': 57819.39999997616, 'positionName': 'CENTER', 'positionCoords': [563, 227]}]",Rate how much you want to eat this food from 0 (least) to 10 (most).,81238.60000002384,1669829709986,bagel plain,813.0999999642372,True,7.9,82051.69999998808,813.0999999642372,True,HRV,HRV_0094,2022-11-30 17:36:37
22,"[{'imgObject': {}, 'id': 'turkeysandwich', 'src': '/static/foodstim60/turkeysandwich.jpg', 'key': 'NaN', 'origWidth': 409, 'origHeight': 409, 'width': 409, 'height': 409, 'widthPercent': 0.8, 'rescaleHeight': True, 'trialN': 22, 'loaded': True, 'loadedTime': 57831.39999997616, 'positionName': 'CENTER', 'positionCoords': [563.5, 227.5]}]",Rate how much you want to eat this food from 0 (least) to 10 (most).,82054.5,1669829710802,turkeysandwich,893.3000000119209,True,5.82,82947.80000001192,893.3000000119209,True,HRV,HRV_0094,2022-11-30 17:36:37
23,"[{'imgObject': {}, 'id': 'fruitsalad', 'src': '/static/foodstim60/fruitsalad.jpg', 'key': 'NaN', 'origWidth': 410, 'origHeight': 410, 'width': 410, 'height': 410, 'widthPercent': 0.8, 'rescaleHeight': True, 'trialN': 23, 'loaded': True, 'loadedTime': 57833.5, 'positionName': 'CENTER', 'positionCoords': [563, 227]}]",Rate how much you want to eat this food from 0 (least) to 10 (most).,82950.19999998808,1669829711698,fruitsalad,1005.1000000238419,True,9.040000000000001,83955.30000001192,1005.1000000238419,True,HRV,HRV_0094,2022-11-30 17:36:37
24,"[{'imgObject': {}, 'id': 'seaweed', 'src': '/static/foodstim60/seaweed.jpg', 'key': 'NaN', 'origWidth': 410, 'origHeight': 410, 'width': 410, 'height': 410, 'widthPercent': 0.8, 'rescaleHeight': True, 'trialN': 24, 'loaded': True, 'loadedTime': 57837.39999997616, 'positionName': 'CENTER', 'positionCoords': [563, 227]}]",Rate how much you want to eat this food from 0 (least) to 10 (most).,83956.60000002384,1669829712704,seaweed,1367.5999999642372,True,3.75,85324.19999998808,1367.5999999642372,True,HRV,HRV_0094,2022-11-30 17:36:37
25,"[{'imgObject': {}, 'id': 'sweetpotato', 'src': '/static/foodstim60/sweetpotato.jpg', 'key': 'NaN', 'origWidth': 410, 'origHeight': 410, 'width': 410, 'height': 410, 'widthPercent': 0.8, 'rescaleHeight': True, 'trialN': 25, 'loaded': True, 'loadedTime': 57845.5, 'positionName': 'CENTER', 'positionCoords': [563, 227]}]",Rate how much you want to eat this food from 0 (least) to 10 (most).,85328.0,1669829714076,sweetpotato,5691.5,True,4.0200000000000005,91019.5,5691.5,True,HRV,HRV_0094,2022-11-30 17:36:37
26,"[{'imgObject': {}, 'id': 'lox', 'src': '/static/foodstim60/lox.jpg', 'key': 'NaN', 'origWidth': 410, 'origHeight': 411, 'width': 410, 'height': 411, 'widthPercent': 0.8, 'rescaleHeight': True, 'trialN': 26, 'loaded': True, 'loadedTime': 57849.10000002384, 'positionName': 'CENTER', 'positionCoords': [563, 226.5]}]",Rate how much you want to eat this food from 0 (least) to 10 (most).,91022.10000002384,1669829719770,lox,1541.5,True,2.09,92563.60000002384,1541.5,True,HRV,HRV_0094,2022-11-30 17:36:37
27,"[{'imgObject': {}, 'id': 'apple slices', 'src': '/static/foodstim60/apple slices.jpg', 'key': 'NaN', 'origWidth': 409, 'origHeight': 410, 'width': 409, 'height': 410, 'widthPercent': 0.8, 'rescaleHeight': True, 'trialN': 27, 'loaded': True, 'loadedTime': 57878.69999998808, 'positionName': 'CENTER', 'positionCoords': [563.5, 227]}]",Rate how much you want to eat this food from 0 (least) to 10 (most).,92565.89999997616,1669829721314,apple slices,1045.5,True,9.34,93611.39999997616,1045.5,True,HRV,HRV_0094,2022-11-30 17:36:37
28,"[{'imgObject': {}, 'id': 'omelette', 'src': '/static/foodstim60/omelette.jpg', 'key': 'NaN', 'origWidth': 410, 'origHeight': 409, 'width': 410, 'height': 409, 'widthPercent': 0.8, 'rescaleHeight': True, 'trialN': 28, 'loaded': True, 'loadedTime': 57899.69999998808, 'positionName': 'CENTER', 'positionCoords': [563, 227.5]}]",Rate how much you want to eat this food from 0 (least) to 10 (most).,93614.30000001192,1669829722362,omelette,861.5999999642372,True,3.38,94475.89999997616,861.5999999642372,True,HRV,HRV_0094,2022-11-30 17:36:37
29,"[{'imgObject': {}, 'id': 'sushi w_condiments', 'src': '/static/foodstim60/sushi w_condiments.jpg', 'key': 'NaN', 'origWidth': 410, 'origHeight': 410, 'width': 410, 'height': 410, 'widthPercent': 0.8, 'rescaleHeight': True, 'trialN': 29, 'loaded': True, 'loadedTime': 57902.69999998808, 'positionName': 'CENTER', 'positionCoords': [563, 227]}]",Rate how much you want to eat this food from 0 (least) to 10 (most).,94478.39999997616,1669829723226,sushi w_condiments,1021.6000000238419,True,2.68,95500.0,1021.6000000238419,True,HRV,HRV_0094,2022-11-30 17:36:37
30,"[{'imgObject': {}, 'id': 'strawberries', 'src': '/static/foodstim60/strawberries.jpg', 'key': 'NaN', 'origWidth': 410, 'origHeight': 410, 'width': 410, 'height': 410, 'widthPercent': 0.8, 'rescaleHeight': True, 'trialN': 30, 'loaded': True, 'loadedTime': 57904.60000002384, 'positionName': 'CENTER', 'positionCoords': [563, 227]}]",Rate how much you want to eat this food from 0 (least) to 10 (most).,95502.30000001192,1669829724250,strawberries,1589.3999999761581,True,9.17,97091.69999998808,1589.3999999761581,True,HRV,HRV_0094,2022-11-30 17:36:37
31,"[{'imgObject': {}, 'id': 'granola w milk', 'src': '/static/foodstim60/granola w milk.jpg', 'key': 'NaN', 'origWidth': 410, 'origHeight': 410, 'width': 410, 'height': 410, 'widthPercent': 0.8, 'rescaleHeight': True, 'trialN': 31, 'loaded': True, 'loadedTime': 57907.89999997616, 'positionName': 'CENTER', 'positionCoords': [563, 227]}]",Rate how much you want to eat this food from 0 (least) to 10 (most).,97094.5,1669829725842,granola w milk,1046.300000011921,True,1.8800000000000001,98140.80000001192,1046.300000011921,True,HRV,HRV_0094,2022-11-30 17:36:37
32,"[{'imgObject': {}, 'id': 'steak', 'src': '/static/foodstim60/steak.jpg', 'key': 'NaN', 'origWidth': 410, 'origHeight': 410, 'width': 410, 'height': 410, 'widthPercent': 0.8, 'rescaleHeight': True, 'trialN': 32, 'loaded': True, 'loadedTime': 57922.89999997616, 'positionName': 'CENTER', 'positionCoords': [563, 227]}]",Rate how much you want to eat this food from 0 (least) to 10 (most).,98143.69999998808,1669829726891,steak,987.6999999880791,True,3.3000000000000003,99131.39999997616,987.6999999880791,True,HRV,HRV_0094,2022-11-30 17:36:37
33,"[{'imgObject': {}, 'id': 'popsicles', 'src': '/static/foodstim60/popsicles.jpg', 'key': 'NaN', 'origWidth': 410, 'origHeight': 410, 'width': 410, 'height': 410, 'widthPercent': 0.8, 'rescaleHeight': True, 'trialN': 33, 'loaded': True, 'loadedTime': 57926.30000001192, 'positionName': 'CENTER', 'positionCoords': [563, 227]}]",Rate how much you want to eat this food from 0 (least) to 10 (most).,99134.69999998808,1669829727882,popsicles,2349.0,True,5.1000000000000005,101483.69999998808,2349.0,True,HRV,HRV_0094,2022-11-30 17:36:37
34,"[{'imgObject': {}, 'id': 'baked potato', 'src': '/static/foodstim60/baked potato.jpg', 'key': 'NaN', 'origWidth': 409, 'origHeight': 410, 'width': 409, 'height': 410, 'widthPercent': 0.8, 'rescaleHeight': True, 'trialN': 34, 'loaded': True, 'loadedTime': 57931.19999998808, 'positionName': 'CENTER', 'positionCoords': [563.5, 227]}]",Rate how much you want to eat this food from 0 (least) to 10 (most).,101486.0,1669829730234,baked potato,2069.600000023842,True,8.22,103555.60000002384,2069.600000023842,True,HRV,HRV_0094,2022-11-30 17:36:37
35,"[{'imgObject': {}, 'id': 'Grapes', 'src': '/static/foodstim60/Grapes.jpg', 'key': 'NaN', 'origWidth': 411, 'origHeight': 411, 'width': 411, 'height': 411, 'widthPercent': 0.8, 'rescaleHeight': True, 'trialN': 35, 'loaded': True, 'loadedTime': 57938.80000001192, 'positionName': 'CENTER', 'positionCoords': [562.5, 226.5]}]",Rate how much you want to eat this food from 0 (least) to 10 (most).,103558.19999998808,1669829732306,Grapes,869.6000000238419,True,9.5,104427.80000001192,869.6000000238419,True,HRV,HRV_0094,2022-11-30 17:36:37
36,"[{'imgObject': {}, 'id': 'cantaloupe', 'src': '/static/foodstim60/cantaloupe.jpg', 'key': 'NaN', 'origWidth': 409, 'origHeight': 409, 'width': 409, 'height': 409, 'widthPercent': 0.8, 'rescaleHeight': True, 'trialN': 36, 'loaded': True, 'loadedTime': 57998.69999998808, 'positionName': 'CENTER', 'positionCoords': [563.5, 227.5]}]",Rate how much you want to eat this food from 0 (least) to 10 (most).,104431.19999998808,1669829733179,cantaloupe,772.5,True,8.82,105203.69999998808,772.5,True,HRV,HRV_0094,2022-11-30 17:36:37
37,"[{'imgObject': {}, 'id': 'burrito', 'src': '/static/foodstim60/burrito.jpg', 'key': 'NaN', 'origWidth': 410, 'origHeight': 410, 'width': 410, 'height': 410, 'widthPercent': 0.8, 'rescaleHeight': True, 'trialN': 37, 'loaded': True, 'loadedTime': 57965.69999998808, 'positionName': 'CENTER', 'positionCoords': [563, 227]}]",Rate how much you want to eat this food from 0 (least) to 10 (most).,105206.30000001192,1669829733954,burrito,1316.5999999642372,True,7.890000000000001,106522.89999997616,1316.5999999642372,True,HRV,HRV_0094,2022-11-30 17:36:37
38,"[{'imgObject': {}, 'id': 'rigatoni', 'src': '/static/foodstim60/rigatoni.jpg', 'key': 'NaN', 'origWidth': 411, 'origHeight': 411, 'width': 411, 'height': 411, 'widthPercent': 0.8, 'rescaleHeight': True, 'trialN': 38, 'loaded': True, 'loadedTime': 57999.69999998808, 'positionName': 'CENTER', 'positionCoords': [562.5, 226.5]}]",Rate how much you want to eat this food from 0 (least) to 10 (most).,106527.89999997616,1669829735276,rigatoni,19627.700000047684,True,2.57,126155.60000002384,19627.700000047684,True,HRV,HRV_0094,2022-11-30 17:36:37
39,"[{'imgObject': {}, 'id': 'froot loops w milk', 'src': '/static/foodstim60/froot loops w milk.jpg', 'key': 'NaN', 'origWidth': 410, 'origHeight': 410, 'width': 410, 'height': 410, 'widthPercent': 0.8, 'rescaleHeight': True, 'trialN': 39, 'loaded': True, 'loadedTime': 58003.5, 'positionName': 'CENTER', 'positionCoords': [563, 227]}]",Rate how much you want to eat this food from 0 (least) to 10 (most).,126158.10000002384,1669829754906,froot loops w milk,1036.7999999523163,True,0.98,127194.89999997616,1036.7999999523163,True,HRV,HRV_0094,2022-11-30 17:36:37
40,"[{'imgObject': {}, 'id': 'corn cob', 'src': '/static/foodstim60/corn cob.jpg', 'key': 'NaN', 'origWidth': 411, 'origHeight': 411, 'width': 411, 'height': 411, 'widthPercent': 0.8, 'rescaleHeight': True, 'trialN': 40, 'loaded': True, 'loadedTime': 58001.69999998808, 'positionName': 'CENTER', 'positionCoords': [562.5, 226.5]}]",Rate how much you want to eat this food from 0 (least) to 10 (most).,127196.69999998808,1669829755945,corn cob,926.1000000238419,True,8.05,128122.80000001192,926.1000000238419,True,HRV,HRV_0094,2022-11-30 17:36:37
41,"[{'imgObject': {}, 'id': 'orange slices', 'src': '/static/foodstim60/orange slices.jpg', 'key': 'NaN', 'origWidth': 409, 'origHeight': 410, 'width': 409, 'height': 410, 'widthPercent': 0.8, 'rescaleHeight': True, 'trialN': 41, 'loaded': True, 'loadedTime': 58004.69999998808, 'positionName': 'CENTER', 'positionCoords': [563.5, 227]}]",Rate how much you want to eat this food from 0 (least) to 10 (most).,128124.30000001192,1669829756872,orange slices,814.5,True,3.81,128938.80000001192,814.5,True,HRV,HRV_0094,2022-11-30 17:36:37
42,"[{'imgObject': {}, 'id': 'chickenfingers', 'src': '/static/foodstim60/chickenfingers.jpg', 'key': 'NaN', 'origWidth': 410, 'origHeight': 410, 'width': 410, 'height': 410, 'widthPercent': 0.8, 'rescaleHeight': True, 'trialN': 42, 'loaded': True, 'loadedTime': 58021.30000001192, 'positionName': 'CENTER', 'positionCoords': [563, 227]}]",Rate how much you want to eat this food from 0 (least) to 10 (most).,128939.80000001192,1669829757688,chickenfingers,13096.0,True,8.24,142035.80000001192,13096.0,True,HRV,HRV_0094,2022-11-30 17:36:37
43,"[{'imgObject': {}, 'id': 'mashed potato', 'src': '/static/foodstim60/mashed potato.jpg', 'key': 'NaN', 'origWidth': 409, 'origHeight': 409, 'width': 409, 'height': 409, 'widthPercent': 0.8, 'rescaleHeight': True, 'trialN': 43, 'loaded': True, 'loadedTime': 58026.89999997616, 'positionName': 'CENTER', 'positionCoords': [563.5, 227.5]}]",Rate how much you want to eat this food from 0 (least) to 10 (most).,142038.5,1669829770787,mashed potato,1469.199999988079,True,8.28,143507.69999998808,1469.199999988079,True,HRV,HRV_0094,2022-11-30 17:36:37
44,"[{'imgObject': {}, 'id': 'kiwi', 'src': '/static/foodstim60/kiwi.jpg', 'key': 'NaN', 'origWidth': 410, 'origHeight': 410, 'width': 410, 'height': 410, 'widthPercent': 0.8, 'rescaleHeight': True, 'trialN': 44, 'loaded': True, 'loadedTime': 58022.30000001192, 'positionName': 'CENTER', 'positionCoords': [563, 227]}]",Rate how much you want to eat this food from 0 (least) to 10 (most).,143510.39999997616,1669829772259,kiwi,852.9000000357628,True,9.14,144363.30000001192,852.9000000357628,True,HRV,HRV_0094,2022-11-30 17:36:37
45,"[{'imgObject': {}, 'id': 'blueberries', 'src': '/static/foodstim60/blueberries.jpg', 'key': 'NaN', 'origWidth': 411, 'origHeight': 411, 'width': 411, 'height': 411, 'widthPercent': 0.8, 'rescaleHeight': True, 'trialN': 45, 'loaded': True, 'loadedTime': 58023.69999998808, 'positionName': 'CENTER', 'positionCoords': [562.5, 226.5]}]",Rate how much you want to eat this food from 0 (least) to 10 (most).,144365.69999998808,1669829773114,blueberries,1005.8000000119209,True,9.14,145371.5,1005.8000000119209,True,HRV,HRV_0094,2022-11-30 17:36:37
46,"[{'imgObject': {}, 'id': 'eggsalad', 'src': '/static/foodstim60/eggsalad.jpg', 'key': 'NaN', 'origWidth': 410, 'origHeight': 409, 'width': 410, 'height': 409, 'widthPercent': 0.8, 'rescaleHeight': True, 'trialN': 46, 'loaded': True, 'loadedTime': 58031.60000002384, 'positionName': 'CENTER', 'positionCoords': [563, 227.5]}]",Rate how much you want to eat this food from 0 (least) to 10 (most).,145373.89999997616,1669829774122,eggsalad,781.7000000476837,True,7.86,146155.60000002384,781.7000000476837,True,HRV,HRV_0094,2022-11-30 17:36:37
47,"[{'imgObject': {}, 'id': 'cherry tomato', 'src': '/static/foodstim60/cherry tomato.jpg', 'key': 'NaN', 'origWidth': 410, 'origHeight': 410, 'width': 410, 'height': 410, 'widthPercent': 0.8, 'rescaleHeight': True, 'trialN': 47, 'loaded': True, 'loadedTime': 58045.10000002384, 'positionName': 'CENTER', 'positionCoords': [563, 227]}]",Rate how much you want to eat this food from 0 (least) to 10 (most).,146158.30000001192,1669829774906,cherry tomato,692.3000000119209,True,8.73,146850.60000002384,692.3000000119209,True,HRV,HRV_0094,2022-11-30 17:36:37
48,"[{'imgObject': {}, 'id': 'pear', 'src': '/static/foodstim60/pear.jpg', 'key': 'NaN', 'origWidth': 411, 'origHeight': 410, 'width': 411, 'height': 410, 'widthPercent': 0.8, 'rescaleHeight': True, 'trialN': 48, 'loaded': True, 'loadedTime': 58054.69999998808, 'positionName': 'CENTER', 'positionCoords': [562.5, 227]}]",Rate how much you want to eat this food from 0 (least) to 10 (most).,146852.39999997616,1669829775600,pear,791.2000000476837,True,8.8,147643.60000002384,791.2000000476837,True,HRV,HRV_0094,2022-11-30 17:36:37
49,"[{'imgObject': {}, 'id': 'chicken nuggets2', 'src': '/static/foodstim60/chicken nuggets2.jpg', 'key': 'NaN', 'origWidth': 410, 'origHeight': 409, 'width': 410, 'height': 409, 'widthPercent': 0.8, 'rescaleHeight': True, 'trialN': 49, 'loaded': True, 'loadedTime': 58059, 'positionName': 'CENTER', 'positionCoords': [563, 227.5]}]",Rate how much you want to eat this food from 0 (least) to 10 (most).,147646.5,1669829776395,chicken nuggets2,1245.3999999761581,True,3.7600000000000002,148891.89999997616,1245.3999999761581,True,HRV,HRV_0094,2022-11-30 17:36:37
50,"[{'imgObject': {}, 'id': 'shreddedwheatwithmilk', 'src': '/static/foodstim60/shreddedwheatwithmilk.jpg', 'key': 'NaN', 'origWidth': 410, 'origHeight': 410, 'width': 410, 'height': 410, 'widthPercent': 0.8, 'rescaleHeight': True, 'trialN': 50, 'loaded': True, 'loadedTime': 58068.39999997616, 'positionName': 'CENTER', 'positionCoords': [563, 227]}]",Rate how much you want to eat this food from 0 (least) to 10 (most).,148894.69999998808,1669829777643,shreddedwheatwithmilk,1012.1000000238419,True,1.97,149906.80000001192,1012.1000000238419,True,HRV,HRV_0094,2022-11-30 17:36:37
51,"[{'imgObject': {}, 'id': 'burger', 'src': '/static/foodstim60/burger.jpg', 'key': 'NaN', 'origWidth': 409, 'origHeight': 409, 'width': 409, 'height': 409, 'widthPercent': 0.8, 'rescaleHeight': True, 'trialN': 51, 'loaded': True, 'loadedTime': 58064.10000002384, 'positionName': 'CENTER', 'positionCoords': [563.5, 227.5]}]",Rate how much you want to eat this food from 0 (least) to 10 (most).,149908.5,1669829778657,burger,750.6000000238419,True,3.37,150659.10000002384,750.6000000238419,True,HRV,HRV_0094,2022-11-30 17:36:37
52,"[{'imgObject': {}, 'id': 'raspberries', 'src': '/static/foodstim60/raspberries.jpg', 'key': 'NaN', 'origWidth': 411, 'origHeight': 411, 'width': 411, 'height': 411, 'widthPercent': 0.8, 'rescaleHeight': True, 'trialN': 52, 'loaded': True, 'loadedTime': 58080, 'positionName': 'CENTER', 'positionCoords': [562.5, 226.5]}]",Rate how much you want to eat this food from 0 (least) to 10 (most).,150662.80000001192,1669829779411,raspberries,988.1999999880791,True,9.1,151651.0,988.1999999880791,True,HRV,HRV_0094,2022-11-30 17:36:37
53,"[{'imgObject': {}, 'id': 'edamame', 'src': '/static/foodstim60/edamame.jpg', 'key': 'NaN', 'origWidth': 409, 'origHeight': 410, 'width': 409, 'height': 410, 'widthPercent': 0.8, 'rescaleHeight': True, 'trialN': 53, 'loaded': True, 'loadedTime': 58083.89999997616, 'positionName': 'CENTER', 'positionCoords': [563.5, 227]}]",Rate how much you want to eat this food from 0 (least) to 10 (most).,151655.19999998808,1669829780403,edamame,819.9000000357628,True,6.2700000000000005,152475.10000002384,819.9000000357628,True,HRV,HRV_0094,2022-11-30 17:36:37
54,"[{'imgObject': {}, 'id': 'veggieswithdip', 'src': '/static/foodstim60/veggieswithdip.jpg', 'key': 'NaN', 'origWidth': 409, 'origHeight': 409, 'width': 409, 'height': 409, 'widthPercent': 0.8, 'rescaleHeight': True, 'trialN': 54, 'loaded': True, 'loadedTime': 58088.30000001192, 'positionName': 'CENTER', 'positionCoords': [563.5, 227.5]}]",Rate how much you want to eat this food from 0 (least) to 10 (most).,152477.69999998808,1669829781226,veggieswithdip,1197.5,True,8.89,153675.19999998808,1197.5,True,HRV,HRV_0094,2022-11-30 17:36:37
55,"[{'imgObject': {}, 'id': 'cocktailshrimp', 'src': '/static/foodstim60/cocktailshrimp.jpg', 'key': 'NaN', 'origWidth': 410, 'origHeight': 410, 'width': 410, 'height': 410, 'widthPercent': 0.8, 'rescaleHeight': True, 'trialN': 55, 'loaded': True, 'loadedTime': 58098.19999998808, 'positionName': 'CENTER', 'positionCoords': [563, 227]}]",Rate how much you want to eat this food from 0 (least) to 10 (most).,153677.60000002384,1669829782426,cocktailshrimp,1134.0999999642372,True,0.78,154811.69999998808,1134.0999999642372,True,HRV,HRV_0094,2022-11-30 17:36:37
56,"[{'imgObject': {}, 'id': 'banana', 'src': '/static/foodstim60/banana.jpg', 'key': 'NaN', 'origWidth': 410, 'origHeight': 410, 'width': 410, 'height': 410, 'widthPercent': 0.8, 'rescaleHeight': True, 'trialN': 56, 'loaded': True, 'loadedTime': 58105.60000002384, 'positionName': 'CENTER', 'positionCoords': [563, 227]}]",Rate how much you want to eat this food from 0 (least) to 10 (most).,154813.89999997616,1669829783562,banana,4317.700000047684,True,8.540000000000001,159131.60000002384,4317.700000047684,True,HRV,HRV_0094,2022-11-30 17:36:37
57,"[{'imgObject': {}, 'id': 'ice cream sundae 002', 'src': '/static/foodstim60/ice cream sundae 002.jpg', 'key': 'NaN', 'origWidth': 409, 'origHeight': 409, 'width': 409, 'height': 409, 'widthPercent': 0.8, 'rescaleHeight': True, 'trialN': 57, 'loaded': True, 'loadedTime': 58117, 'positionName': 'CENTER', 'positionCoords': [563.5, 227.5]}]",Rate how much you want to eat this food from 0 (least) to 10 (most).,159134.39999997616,1669829787883,ice cream sundae 002,8020.300000011921,True,3.59,167154.69999998808,8020.300000011921,True,HRV,HRV_0094,2022-11-30 17:36:37
58,"[{'imgObject': {}, 'id': 'yogurt no spoon', 'src': '/static/foodstim60/yogurt no spoon.jpg', 'key': 'NaN', 'origWidth': 411, 'origHeight': 410, 'width': 411, 'height': 410, 'widthPercent': 0.8, 'rescaleHeight': True, 'trialN': 58, 'loaded': True, 'loadedTime': 58124.80000001192, 'positionName': 'CENTER', 'positionCoords': [562.5, 227]}]",Rate how much you want to eat this food from 0 (least) to 10 (most).,167156.19999998808,1669829795904,yogurt no spoon,1007.4000000357628,True,2.43,168163.60000002384,1007.4000000357628,True,HRV,HRV_0094,2022-11-30 17:36:37
59,"[{'imgObject': {}, 'id': 'hashbrowns', 'src': '/static/foodstim60/hashbrowns.jpg', 'key': 'NaN', 'origWidth': 411, 'origHeight': 410, 'width': 411, 'height': 410, 'widthPercent': 0.8, 'rescaleHeight': True, 'trialN': 59, 'loaded': True, 'loadedTime': 58127.80000001192, 'positionName': 'CENTER', 'positionCoords': [562.5, 227]}]",Rate how much you want to eat this food from 0 (least) to 10 (most).,168166.10000002384,1669829796914,hashbrowns,725.5999999642372,True,7.55,168891.69999998808,725.5999999642372,True,HRV,HRV_0094,2022-11-30 17:36:37
