success,trial_type,trial_index,time_elapsed,internal_node_id,Block,TrialNumber,TrialTime,trialTimeDiff,FPS_avg,FPS_med,FPS_mode,TrialDur,winResizeTime,rt,block,button_pressed,MotCoh,MotDir,ColCoh,Color,ChoiceKey,Choice,Accuracy,RT,nFrames,FPS,PPD,missTrial,missTrialMsg,onsetDelay,fullScreenExitTime,canvCenter,TrialType,Score,BlockTrial,stimulus,button_labels,exp,subjectId,date
True,fullscreen,0,1963,0.0-0.0,0.0,1.0,,,,,,,,,,,,,,,,,,,,,,,,,,,,,,,,HRV,HRV_0094,2022-11-30 18:09:24
,wl-check-fps,1,6967,0.0-1.0,0.0,2.0,"[2506.4, 2519.4, 2535.1, 2552, 2568.7, 2585.2, 2601.9, 2618.4, 2635.3, 2652, 2668.7, 2685, 2701.7, 2718.6, 2735.3, 2751.7, 2768.6, 2785.4, 2801.9, 2818.7, 2835.2, 2851.9, 2868.7, 2885.3, 2902, 2918.8, 2935.3, 2952, 2969, 2985.5, 3002.1, 3019.1, 3035.3, 3052.2, 3071.1, 3086.7, 3103.5, 3119.5, 3137, 3152.7, 3170.3, 3186.2, 3203, 3221.1, 3236, 3253.2, 3270.7, 3286.6, 3302.8, 3319.7, 3336.4, 3353.9, 3370.8, 3387.3, 3403.8, 3422.4, 3435.6, 3455, 3471, 3487.1, 3503.5, 3520.1, 3536.9, 3553.8, 3571.3, 3587.2, 3603.9, 3619.5, 3636, 3654.7, 3668.7, 3685.4, 3702.8, 3720.1, 3737, 3753.8, 3770.1, 3786.4, 3802.9, 3820.6, 3836, 3853.5, 3870.3, 3886.8, 3903.5, 3920.1, 3936.5, 3953.3, 3970.1, 3986.8, 4005.1, 4020.1, 4036.4, 4052.7, 4069.5, 4086.4, 4103.2, 4119.1, 4136.7, 4153.4, 4169.6, 4186.5, 4203.1, 4219.5, 4236.7, 4253, 4269.6, 4286.8, 4302.8, 4319.4, 4336.6, 4353, 4370.3, 4387, 4403.4, 4420.5, 4437.1, 4453.5, 4470.1, 4485.9, 4502.4, 4519.1, 4535.8, 4552.5, 4569.1, 4585.8, 4602.5, 4619, 4635.9, 4653, 4670.4, 4685.7, 4702.4, 4719.1, 4736.2, 4753, 4769.6, 4787.1, 4803.5, 4819.7, 4836.6, 4853.6, 4871.7, 4886.8, 4903.4, 4919.9, 4936.7, 4953.2, 4969.6, 4986.3, 5003.2, 5019.5, 5036.4, 5053, 5069.7, 5086.1, 5102.9, 5119.5, 5136.2, 5152.9, 5169.3, 5186.1, 5202.7, 5219.4, 5236.1, 5252.6, 5269.6, 5286.3, 5302.8, 5319.4, 5336.2, 5352.8, 5369.7, 5386.1, 5402.8, 5419.7, 5436.3, 5452.8, 5469.4, 5486.2, 5502.7, 5519.5, 5536.3, 5553, 5569.5, 5586.6, 5603, 5619.6, 5636.4, 5653, 5669.5, 5686.4, 5702.9, 5719.6, 5736.1, 5752.8, 5769.7, 5786.3, 5803.1, 5819.8, 5836.7, 5853.3, 5869.9, 5886.6, 5903.2, 5919.7, 5936.7, 5953.3, 5969.9, 5986.6, 6003.3, 6020, 6036.8, 6053.3, 6070.1, 6086.3, 6103.1, 6119.7, 6137.1, 6153.3, 6169.8, 6186.7, 6203.3, 6219.9, 6236.5, 6253.5, 6270, 6287.6, 6303.4, 6320.1, 6336.7, 6353.4, 6369.9, 6386.6, 6403.3, 6420.1, 6436.8, 6453.4, 6470, 6486.7, 6503.4, 6520.1, 6536.8, 6553.3, 6570, 6586.7, 6603.5, 6620.1, 6636.8, 6653.9, 6671.2, 6686.8, 6703.3, 6720.8, 6736.7, 6753.3, 6769.9, 6787.2, 6810.4, 6819.9, 6836.7, 6854.2, 6870.6, 6887.6, 6904.3, 6920.4, 6937.3, 6954.3, 6970.7, 6987.6, 7004.4, 7020.8, 7037.3, 7054.3, 7070.5, 7087.5, 7104.2, 7120.6, 7137.1, 7154.6, 7170.9, 7187.2, 7203.8, 7220.4, 7237.4, 7254.4, 7270.6, 7287.7, 7303.9, 7320.8, 7337.2, 7354.1, 7370.5, 7387.5, 7404.3, 7420.9, 7437.7, 7454, 7471, 7487.8]","[1.5, 13, 15.7, 16.9, 16.7, 16.5, 16.7, 16.5, 16.9, 16.7, 16.7, 16.3, 16.7, 16.9, 16.7, 16.4, 16.9, 16.8, 16.5, 16.8, 16.5, 16.7, 16.8, 16.6, 16.7, 16.8, 16.5, 16.7, 17, 16.5, 16.6, 17, 16.2, 16.9, 18.9, 15.6, 16.8, 16, 17.5, 15.7, 17.6, 15.9, 16.8, 18.1, 14.9, 17.2, 17.5, 15.9, 16.2, 16.9, 16.7, 17.5, 16.9, 16.5, 16.5, 18.6, 13.2, 19.4, 16, 16.1, 16.4, 16.6, 16.8, 16.9, 17.5, 15.9, 16.7, 15.6, 16.5, 18.7, 14, 16.7, 17.4, 17.3, 16.9, 16.8, 16.3, 16.3, 16.5, 17.7, 15.4, 17.5, 16.8, 16.5, 16.7, 16.6, 16.4, 16.8, 16.8, 16.7, 18.3, 15, 16.3, 16.3, 16.8, 16.9, 16.8, 15.9, 17.6, 16.7, 16.2, 16.9, 16.6, 16.4, 17.2, 16.3, 16.6, 17.2, 16, 16.6, 17.2, 16.4, 17.3, 16.7, 16.4, 17.1, 16.6, 16.4, 16.6, 15.8, 16.5, 16.7, 16.7, 16.7, 16.6, 16.7, 16.7, 16.5, 16.9, 17.1, 17.4, 15.3, 16.7, 16.7, 17.1, 16.8, 16.6, 17.5, 16.4, 16.2, 16.9, 17, 18.1, 15.1, 16.6, 16.5, 16.8, 16.5, 16.4, 16.7, 16.9, 16.3, 16.9, 16.6, 16.7, 16.4, 16.8, 16.6, 16.7, 16.7, 16.4, 16.8, 16.6, 16.7, 16.7, 16.5, 17, 16.7, 16.5, 16.6, 16.8, 16.6, 16.9, 16.4, 16.7, 16.9, 16.6, 16.5, 16.6, 16.8, 16.5, 16.8, 16.8, 16.7, 16.5, 17.1, 16.4, 16.6, 16.8, 16.6, 16.5, 16.9, 16.5, 16.7, 16.5, 16.7, 16.9, 16.6, 16.8, 16.7, 16.9, 16.6, 16.6, 16.7, 16.6, 16.5, 17, 16.6, 16.6, 16.7, 16.7, 16.7, 16.8, 16.5, 16.8, 16.2, 16.8, 16.6, 17.4, 16.2, 16.5, 16.9, 16.6, 16.6, 16.6, 17, 16.5, 17.6, 15.8, 16.7, 16.6, 16.7, 16.5, 16.7, 16.7, 16.8, 16.7, 16.6, 16.6, 16.7, 16.7, 16.7, 16.7, 16.5, 16.7, 16.7, 16.8, 16.6, 16.7, 17.1, 17.3, 15.6, 16.5, 17.5, 15.9, 16.6, 16.6, 17.3, 23.2, 9.5, 16.8, 17.5, 16.4, 17, 16.7, 16.1, 16.9, 17, 16.4, 16.9, 16.8, 16.4, 16.5, 17, 16.2, 17, 16.7, 16.4, 16.5, 17.5, 16.3, 16.3, 16.6, 16.6, 17, 17, 16.2, 17.1, 16.2, 16.9, 16.4, 16.9, 16.4, 17, 16.8, 16.6, 16.8, 16.3, 17, 16.8]",60.0,60.0,60.0,4999.5,[],,,,,,,,,,,,,,,,,,,,,,,,,HRV,HRV_0094,2022-11-30 18:09:24
,wl-html-keyboard-response,2,16474,0.0-2.0-0.0,0.0,3.0,,,,,,,,7492.399999976158,0.0,0,,,,,,,,,,,,,,,,,,,,,,HRV,HRV_0094,2022-11-30 18:09:24
,wl-rdm,3,23469,0.0-3.0-0.0,0.0,4.0,,,,,,,[],,,,0.0,0.0,87.9,0.0,u,0.0,True,1406.9000000357628,85.0,60.0,40.0,False,,3000.0,[],"[768, 432]",ColorTask_Demo,,,,,HRV,HRV_0094,2022-11-30 18:09:24
,wl-rdm,4,28071,0.0-3.0-1.0,0.0,5.0,,,,,,,[],,,,0.0,0.0,87.9,1.0,i,1.0,True,539.5,32.0,60.0,40.0,False,,2000.0,[],"[768, 432]",ColorTask_Demo,,,,,HRV,HRV_0094,2022-11-30 18:09:24
,wl-html-keyboard-response,5,35999,0.0-3.0-2.0,0.0,6.0,,,,,,,,5917.700000047684,0.0,1,,,,,,,,,,,,,,,,,,,,,,HRV,HRV_0094,2022-11-30 18:09:24
,wl-html-keyboard-response,6,43871,0.0-4.0-0.0,0.0,7.0,,,,,,,,5864.5,0.0,0,,,,,,,,,,,,,,,,,,,,,,HRV,HRV_0094,2022-11-30 18:09:24
,wl-html-keyboard-response,7,52113,0.0-5.0-0.0,0.0,8.0,,,,,,,,6223.099999964237,0.0,0,,,,,,,,,,,,,,,,,,,,,,HRV,HRV_0094,2022-11-30 18:09:24
,wl-rdm,8,54247,0.0-6.0-0.0,0.0,9.0,,,,,,,[],,,,,,56.4,1.0,i,1.0,True,851.0,51.0,60.0,40.0,False,,204.31121890832844,[],"[768, 432]",ColorTask,1.0,1.0,,,HRV,HRV_0094,2022-11-30 18:09:24
,wl-rdm,9,56548,0.0-6.1-0.1,0.0,10.0,,,,,,,[],,,,,,50.0,1.0,u,0.0,False,894.3999999761581,54.0,60.0,40.0,False,,349.1113127435606,[],"[768, 432]",ColorTask,0.0,2.0,,,HRV,HRV_0094,2022-11-30 18:09:24
,wl-rdm,10,58498,0.0-6.2-0.2,0.0,11.0,,,,,,,[],,,,,,53.2,1.0,i,1.0,True,592.0999999642372,36.0,60.0,40.0,False,,295.58099186099844,[],"[768, 432]",ColorTask,1.0,3.0,,,HRV,HRV_0094,2022-11-30 18:09:24
,wl-rdm,11,60432,0.0-6.3-0.3,0.0,12.0,,,,,,,[],,,,,,87.9,0.0,u,0.0,True,605.0,37.0,60.0,40.0,False,,246.17221103827666,[],"[768, 432]",ColorTask,2.0,4.0,,,HRV,HRV_0094,2022-11-30 18:09:24
,wl-rdm,12,62399,0.0-6.4-0.4,0.0,13.0,,,,,,,[],,,,,,87.9,1.0,i,1.0,True,602.5999999642372,36.0,60.0,40.0,False,,291.06863516673087,[],"[768, 432]",ColorTask,3.0,5.0,,,HRV,HRV_0094,2022-11-30 18:09:24
,wl-rdm,13,64635,0.0-6.5-0.5,0.0,14.0,,,,,,,[],,,,,,53.2,0.0,i,1.0,False,798.6999999880791,48.0,60.0,40.0,False,,381.9526586334793,[],"[768, 432]",ColorTask,2.0,6.0,,,HRV,HRV_0094,2022-11-30 18:09:24
,wl-rdm,14,66935,0.0-6.6-0.6,0.0,15.0,,,,,,,[],,,,,,50.0,0.0,u,0.0,True,984.5000000596046,59.0,60.0,40.0,False,,235.97068473884752,[],"[768, 432]",ColorTask,3.0,7.0,,,HRV,HRV_0094,2022-11-30 18:09:24
,wl-rdm,15,68969,0.0-6.7-0.7,0.0,16.0,,,,,,,[],,,,,,73.6,0.0,u,0.0,True,720.8000000715256,44.0,60.0,40.0,False,,233.8701233812,[],"[768, 432]",ColorTask,4.0,8.0,,,HRV,HRV_0094,2022-11-30 18:09:24
,wl-rdm,16,71054,0.0-6.8-0.8,0.0,17.0,,,,,,,[],,,,,,50.0,0.0,i,1.0,False,627.0,38.0,60.0,40.0,False,,397.46195187533283,[],"[768, 432]",ColorTask,3.0,9.0,,,HRV,HRV_0094,2022-11-30 18:09:24
,wl-rdm,17,73187,0.0-6.9-0.9,0.0,18.0,,,,,,,[],,,,,,50.0,1.0,u,0.0,False,811.1999999880791,49.0,60.0,40.0,False,,237.17349955550068,[],"[768, 432]",ColorTask,2.0,10.0,,,HRV,HRV_0094,2022-11-30 18:09:24
,wl-rdm,18,75906,0.0-6.10-0.10,0.0,19.0,,,,,,,[],,,,,,62.5,0.0,u,0.0,True,1370.7999999523163,83.0,60.0,40.0,False,,277.55032302570186,[],"[768, 432]",ColorTask,3.0,11.0,,,HRV,HRV_0094,2022-11-30 18:09:24
,wl-rdm,19,78107,0.0-6.11-0.11,0.0,20.0,,,,,,,[],,,,,,50.0,0.0,u,0.0,True,815.1000000238419,49.0,60.0,40.0,False,,333.03737795416725,[],"[768, 432]",ColorTask,4.0,12.0,,,HRV,HRV_0094,2022-11-30 18:09:24
,wl-rdm,20,80309,0.0-6.12-0.12,0.0,21.0,,,,,,,[],,,,,,87.9,0.0,u,0.0,True,836.5,51.0,60.0,40.0,False,,293.0315501679432,[],"[768, 432]",ColorTask,5.0,13.0,,,HRV,HRV_0094,2022-11-30 18:09:24
,wl-rdm,21,82325,0.0-6.13-0.13,0.0,22.0,,,,,,,[],,,,,,73.6,1.0,i,1.0,True,651.3999999761581,39.0,60.0,40.0,False,,286.70305964418395,[],"[768, 432]",ColorTask,6.0,14.0,,,HRV,HRV_0094,2022-11-30 18:09:24
,wl-rdm,22,84425,0.0-6.14-0.14,0.0,23.0,,,,,,,[],,,,,,50.0,0.0,u,0.0,True,767.8000000119209,46.0,60.0,40.0,False,,239.6134698743252,[],"[768, 432]",ColorTask,7.0,15.0,,,HRV,HRV_0094,2022-11-30 18:09:24
,wl-rdm,23,86393,0.0-6.15-0.15,0.0,24.0,,,,,,,[],,,,,,87.9,1.0,i,1.0,True,589.7999999523163,36.0,60.0,40.0,False,,287.630309374969,[],"[768, 432]",ColorTask,8.0,16.0,,,HRV,HRV_0094,2022-11-30 18:09:24
,wl-rdm,24,88461,0.0-6.16-0.16,0.0,25.0,,,,,,,[],,,,,,56.4,1.0,i,1.0,True,604.4000000357628,37.0,60.0,40.0,False,,395.6954903422653,[],"[768, 432]",ColorTask,9.0,17.0,,,HRV,HRV_0094,2022-11-30 18:09:24
,wl-rdm,25,90361,0.0-6.17-0.17,0.0,26.0,,,,,,,[],,,,,,87.9,1.0,i,1.0,True,492.80000001192093,30.0,60.0,40.0,False,,325.62474968722984,[],"[768, 432]",ColorTask,10.0,18.0,,,HRV,HRV_0094,2022-11-30 18:09:24
,wl-rdm,26,92277,0.0-6.18-0.18,0.0,27.0,,,,,,,[],,,,,,73.6,1.0,i,1.0,True,611.5999999642372,36.0,60.0,40.0,False,,218.35445860673826,[],"[768, 432]",ColorTask,11.0,19.0,,,HRV,HRV_0094,2022-11-30 18:09:24
,wl-rdm,27,94112,0.0-6.19-0.19,0.0,28.0,,,,,,,[],,,,,,87.9,0.0,u,0.0,True,532.0999999642372,32.0,60.0,40.0,False,,218.91238499875058,[],"[768, 432]",ColorTask,12.0,20.0,,,HRV,HRV_0094,2022-11-30 18:09:24
,wl-rdm,28,96047,0.0-6.20-0.20,0.0,29.0,,,,,,,[],,,,,,50.0,0.0,i,1.0,False,454.80000001192093,28.0,60.0,40.0,False,,389.56859490241305,[],"[768, 432]",ColorTask,11.0,21.0,,,HRV,HRV_0094,2022-11-30 18:09:24
,wl-rdm,29,97980,0.0-6.21-0.21,0.0,30.0,,,,,,,[],,,,,,62.5,1.0,u,0.0,False,651.1999999880791,39.0,60.0,40.0,False,,207.67539011068365,[],"[768, 432]",ColorTask,10.0,22.0,,,HRV,HRV_0094,2022-11-30 18:09:24
,wl-rdm,30,100031,0.0-6.22-0.22,0.0,31.0,,,,,,,[],,,,,,62.5,1.0,i,1.0,True,725.0000000596046,44.0,60.0,40.0,False,,255.32889656461808,[],"[768, 432]",ColorTask,11.0,23.0,,,HRV,HRV_0094,2022-11-30 18:09:24
,wl-rdm,31,101932,0.0-6.23-0.23,0.0,32.0,,,,,,,[],,,,,,73.6,1.0,i,1.0,True,625.1999999880791,38.0,60.0,40.0,False,,204.6864540084646,[],"[768, 432]",ColorTask,12.0,24.0,,,HRV,HRV_0094,2022-11-30 18:09:24
,wl-rdm,32,103900,0.0-6.24-0.24,0.0,33.0,,,,,,,[],,,,,,50.0,0.0,i,1.0,False,536.5000000596046,33.0,60.0,40.0,False,,335.940523467013,[],"[768, 432]",ColorTask,11.0,25.0,,,HRV,HRV_0094,2022-11-30 18:09:24
,wl-rdm,33,105900,0.0-6.25-0.25,0.0,34.0,,,,,,,[],,,,,,73.6,0.0,u,0.0,True,678.4000000357628,41.0,60.0,40.0,False,,263.32987733770034,[],"[768, 432]",ColorTask,12.0,26.0,,,HRV,HRV_0094,2022-11-30 18:09:24
,wl-rdm,34,107851,0.0-6.26-0.26,0.0,35.0,,,,,,,[],,,,,,87.9,0.0,u,0.0,True,625.5,38.0,60.0,40.0,False,,261.5495520993441,[],"[768, 432]",ColorTask,13.0,27.0,,,HRV,HRV_0094,2022-11-30 18:09:24
,wl-rdm,35,109768,0.0-6.27-0.27,0.0,36.0,,,,,,,[],,,,,,73.6,1.0,i,1.0,True,621.1000000238419,38.0,60.0,40.0,False,,210.90385655765814,[],"[768, 432]",ColorTask,14.0,28.0,,,HRV,HRV_0094,2022-11-30 18:09:24
,wl-rdm,36,112069,0.0-6.28-0.28,0.0,37.0,,,,,,,[],,,,,,56.4,0.0,u,0.0,True,839.5,51.0,60.0,40.0,False,,389.7815996363214,[],"[768, 432]",ColorTask,15.0,29.0,,,HRV,HRV_0094,2022-11-30 18:09:24
,wl-rdm,37,114202,0.0-6.29-0.29,0.0,38.0,,,,,,,[],,,,,,56.4,0.0,i,1.0,False,752.1000000238419,45.0,60.0,40.0,False,,312.1059156807662,[],"[768, 432]",ColorTask,14.0,30.0,,,HRV,HRV_0094,2022-11-30 18:09:24
,wl-rdm,38,116221,0.0-6.30-0.30,0.0,39.0,,,,,,,[],,,,,,53.2,0.0,u,0.0,True,729.3000000119209,44.0,60.0,40.0,False,,214.3071514678227,[],"[768, 432]",ColorTask,15.0,31.0,,,HRV,HRV_0094,2022-11-30 18:09:24
,wl-rdm,39,118187,0.0-6.31-0.31,0.0,40.0,,,,,,,[],,,,,,50.0,1.0,i,1.0,True,593.8999999761581,36.0,60.0,40.0,False,,296.46751465051756,[],"[768, 432]",ColorTask,16.0,32.0,,,HRV,HRV_0094,2022-11-30 18:09:24
,wl-rdm,40,120305,0.0-6.32-0.32,0.0,41.0,,,,,,,[],,,,,,53.2,1.0,i,1.0,True,718.0,43.0,60.0,40.0,False,,331.91362135062343,[],"[768, 432]",ColorTask,17.0,33.0,,,HRV,HRV_0094,2022-11-30 18:09:24
,wl-rdm,41,122273,0.0-6.33-0.33,0.0,42.0,,,,,,,[],,,,,,62.5,1.0,i,1.0,True,657.8000000715256,40.0,60.0,40.0,False,,219.15984704936562,[],"[768, 432]",ColorTask,18.0,34.0,,,HRV,HRV_0094,2022-11-30 18:09:24
,wl-rdm,42,124390,0.0-6.34-0.34,0.0,43.0,,,,,,,[],,,,,,50.0,1.0,i,1.0,True,831.5999999642372,50.0,60.0,40.0,False,,218.17249846250976,[],"[768, 432]",ColorTask,19.0,35.0,,,HRV,HRV_0094,2022-11-30 18:09:24
,wl-rdm,43,126459,0.0-6.35-0.35,0.0,44.0,,,,,,,[],,,,,,53.2,0.0,u,0.0,True,638.8000000119209,39.0,60.0,40.0,False,,360.4265840185059,[],"[768, 432]",ColorTask,20.0,36.0,,,HRV,HRV_0094,2022-11-30 18:09:24
,wl-rdm,44,128375,0.0-6.36-0.36,0.0,45.0,,,,,,,[],,,,,,56.4,1.0,i,1.0,True,578.6999999880791,35.0,60.0,40.0,False,,260.9905509689348,[],"[768, 432]",ColorTask,21.0,37.0,,,HRV,HRV_0094,2022-11-30 18:09:24
,wl-rdm,45,130392,0.0-6.37-0.37,0.0,46.0,,,,,,,[],,,,,,56.4,0.0,i,1.0,False,707.1000000238419,43.0,60.0,40.0,False,,238.88812443595407,[],"[768, 432]",ColorTask,20.0,38.0,,,HRV,HRV_0094,2022-11-30 18:09:24
,wl-rdm,46,132628,0.0-6.38-0.38,0.0,47.0,,,,,,,[],,,,,,53.2,0.0,i,1.0,False,843.6999999880791,51.0,60.0,40.0,False,,310.569983655462,[],"[768, 432]",ColorTask,19.0,39.0,,,HRV,HRV_0094,2022-11-30 18:09:24
,wl-rdm,47,134961,0.0-6.39-0.39,0.0,48.0,,,,,,,[],,,,,,53.2,1.0,i,1.0,True,929.0,56.0,60.0,40.0,False,,342.7465978238977,[],"[768, 432]",ColorTask,20.0,40.0,,,HRV,HRV_0094,2022-11-30 18:09:24
,wl-rdm,48,136896,0.0-6.40-0.40,0.0,49.0,,,,,,,[],,,,,,87.9,0.0,u,0.0,True,589.8999999761581,36.0,60.0,40.0,False,,251.60829541319936,[],"[768, 432]",ColorTask,21.0,41.0,,,HRV,HRV_0094,2022-11-30 18:09:24
,wl-rdm,49,139014,0.0-6.41-0.41,0.0,50.0,,,,,,,[],,,,,,50.0,1.0,i,1.0,True,849.0,51.0,60.0,40.0,False,,205.18865814891433,[],"[768, 432]",ColorTask,22.0,42.0,,,HRV,HRV_0094,2022-11-30 18:09:24
,wl-rdm,50,141015,0.0-6.42-0.42,0.0,51.0,,,,,,,[],,,,,,62.5,1.0,i,1.0,True,673.4000000357628,41.0,60.0,40.0,False,,255.18571923116403,[],"[768, 432]",ColorTask,23.0,43.0,,,HRV,HRV_0094,2022-11-30 18:09:24
,wl-rdm,51,143048,0.0-6.43-0.43,0.0,52.0,,,,,,,[],,,,,,87.9,1.0,i,1.0,True,752.0,45.0,60.0,40.0,False,,215.6704397465127,[],"[768, 432]",ColorTask,24.0,44.0,,,HRV,HRV_0094,2022-11-30 18:09:24
,wl-rdm,52,145249,0.0-6.44-0.44,0.0,53.0,,,,,,,[],,,,,,56.4,1.0,i,1.0,True,776.3999999761581,47.0,60.0,40.0,False,,341.63703723699496,[],"[768, 432]",ColorTask,25.0,45.0,,,HRV,HRV_0094,2022-11-30 18:09:24
,wl-rdm,53,147216,0.0-6.45-0.45,0.0,54.0,,,,,,,[],,,,,,56.4,0.0,u,0.0,True,624.1999999880791,38.0,60.0,40.0,False,,276.0500518397016,[],"[768, 432]",ColorTask,26.0,46.0,,,HRV,HRV_0094,2022-11-30 18:09:24
,wl-rdm,54,149400,0.0-6.46-0.46,0.0,55.0,,,,,,,[],,,,,,56.4,1.0,i,1.0,True,827.2999999523163,50.0,60.0,40.0,False,,297.6379136092704,[],"[768, 432]",ColorTask,27.0,47.0,,,HRV,HRV_0094,2022-11-30 18:09:24
,wl-rdm,55,151351,0.0-6.47-0.47,0.0,56.0,,,,,,,[],,,,,,56.4,0.0,u,0.0,True,579.6999999880791,35.0,60.0,40.0,False,,306.5606495404502,[],"[768, 432]",ColorTask,28.0,48.0,,,HRV,HRV_0094,2022-11-30 18:09:24
,wl-rdm,56,153318,0.0-6.48-0.48,0.0,57.0,,,,,,,[],,,,,,87.9,0.0,u,0.0,True,624.1000000238419,38.0,60.0,40.0,False,,258.19596622588915,[],"[768, 432]",ColorTask,29.0,49.0,,,HRV,HRV_0094,2022-11-30 18:09:24
,wl-rdm,57,155419,0.0-6.49-0.49,0.0,58.0,,,,,,,[],,,,,,56.4,0.0,u,0.0,True,657.1000000238419,40.0,60.0,40.0,False,,377.19196560418544,[],"[768, 432]",ColorTask,30.0,50.0,,,HRV,HRV_0094,2022-11-30 18:09:24
,wl-rdm,58,157654,0.0-6.50-0.50,0.0,59.0,,,,,,,[],,,,,,53.2,0.0,u,0.0,True,766.3999999761581,46.0,60.0,40.0,False,,386.05743646356245,[],"[768, 432]",ColorTask,31.0,51.0,,,HRV,HRV_0094,2022-11-30 18:09:24
,wl-rdm,59,159572,0.0-6.51-0.51,0.0,60.0,,,,,,,[],,,,,,87.9,1.0,i,1.0,True,489.9000000357628,30.0,60.0,40.0,False,,353.15882885920064,[],"[768, 432]",ColorTask,32.0,52.0,,,HRV,HRV_0094,2022-11-30 18:09:24
,wl-rdm,60,161572,0.0-6.52-0.52,0.0,61.0,,,,,,,[],,,,,,62.5,0.0,u,0.0,True,674.6000000238419,41.0,60.0,40.0,False,,252.11439613756065,[],"[768, 432]",ColorTask,33.0,53.0,,,HRV,HRV_0094,2022-11-30 18:09:24
,wl-rdm,61,163656,0.0-6.53-0.53,0.0,62.0,,,,,,,[],,,,,,53.2,0.0,u,0.0,True,685.3999999761581,42.0,60.0,40.0,False,,329.41835149946655,[],"[768, 432]",ColorTask,34.0,54.0,,,HRV,HRV_0094,2022-11-30 18:09:24
,wl-rdm,62,165724,0.0-6.54-0.54,0.0,63.0,,,,,,,[],,,,,,50.0,0.0,u,0.0,True,749.8000000119209,39.0,60.0,40.0,False,,236.63802991799068,[],"[768, 432]",ColorTask,35.0,55.0,,,HRV,HRV_0094,2022-11-30 18:09:24
,wl-rdm,63,167641,0.0-6.55-0.55,0.0,64.0,,,,,,,[],,,,,,87.9,1.0,i,1.0,True,625.3000000119209,38.0,60.0,40.0,False,,212.25242648111606,[],"[768, 432]",ColorTask,36.0,56.0,,,HRV,HRV_0094,2022-11-30 18:09:24
,wl-rdm,64,169642,0.0-6.56-0.56,0.0,65.0,,,,,,,[],,,,,,53.2,1.0,i,1.0,True,569.6000000238419,35.0,60.0,40.0,False,,361.9141771228034,[],"[768, 432]",ColorTask,37.0,57.0,,,HRV,HRV_0094,2022-11-30 18:09:24
,wl-rdm,65,171592,0.0-6.57-0.57,0.0,66.0,,,,,,,[],,,,,,53.2,1.0,i,1.0,True,623.5000000596046,38.0,60.0,40.0,False,,245.97422284043097,[],"[768, 432]",ColorTask,38.0,58.0,,,HRV,HRV_0094,2022-11-30 18:09:24
,wl-rdm,66,173527,0.0-6.58-0.58,0.0,67.0,,,,,,,[],,,,,,53.2,0.0,u,0.0,True,653.1999999880791,39.0,60.0,40.0,False,,211.30426130238848,[],"[768, 432]",ColorTask,39.0,59.0,,,HRV,HRV_0094,2022-11-30 18:09:24
,wl-rdm,67,175644,0.0-6.59-0.59,0.0,68.0,,,,,,,[],,,,,,53.2,1.0,i,1.0,True,683.1999999880791,41.0,60.0,40.0,False,,369.9212388745917,[],"[768, 432]",ColorTask,40.0,60.0,,,HRV,HRV_0094,2022-11-30 18:09:24
,wl-rdm,68,177627,0.0-6.60-0.60,0.0,69.0,,,,,,,[],,,,,,73.6,0.0,u,0.0,True,587.5999999642372,36.0,60.0,40.0,False,,322.00796705587413,[],"[768, 432]",ColorTask,41.0,61.0,,,HRV,HRV_0094,2022-11-30 18:09:24
,wl-rdm,69,182096,0.0-6.61-0.61,0.0,69.0,,,,,,,[],,,,,,62.5,1.0,,,,,179.0,60.0,40.0,True,RT_timeout ,390.8774509526605,[],"[768, 432]",ColorTask,40.0,62.0,,,HRV,HRV_0094,2022-11-30 18:09:24
,wl-rdm,70,184997,0.0-6.62-0.62,0.0,70.0,,,,,,,[],,,,,,73.6,0.0,i,1.0,False,1372.4000000357628,69.0,60.0,40.0,False,,305.1603750982636,[],"[768, 432]",ColorTask,39.0,63.0,,,HRV,HRV_0094,2022-11-30 18:09:24
,wl-rdm,71,186873,0.0-6.63-0.63,0.0,71.0,,,,,,,[],,,,,,53.2,0.0,i,1.0,False,564.4999999403954,31.0,60.0,40.0,False,,259.00284725734736,[],"[768, 432]",ColorTask,38.0,64.0,,,HRV,HRV_0094,2022-11-30 18:09:24
,wl-rdm,72,188798,0.0-6.64-0.64,0.0,72.0,,,,,,,[],,,,,,73.6,1.0,i,1.0,True,492.89999997615814,30.0,60.0,40.0,False,,353.5075495925746,[],"[768, 432]",ColorTask,39.0,65.0,,,HRV,HRV_0094,2022-11-30 18:09:24
,wl-rdm,73,190717,0.0-6.65-0.65,0.0,73.0,,,,,,,[],,,,,,87.9,1.0,i,1.0,True,558.1999999880791,33.0,60.0,40.0,False,,245.29777278819,[],"[768, 432]",ColorTask,40.0,66.0,,,HRV,HRV_0094,2022-11-30 18:09:24
,wl-rdm,74,193166,0.0-6.66-0.66,0.0,74.0,,,,,,,[],,,,,,56.4,1.0,u,0.0,False,1049.800000011921,63.0,60.0,40.0,False,,337.00451043242265,[],"[768, 432]",ColorTask,39.0,67.0,,,HRV,HRV_0094,2022-11-30 18:09:24
,wl-rdm,75,195150,0.0-6.67-0.67,0.0,75.0,,,,,,,[],,,,,,73.6,1.0,i,1.0,True,663.6999999284744,35.0,60.0,40.0,False,,259.67857079120245,[],"[768, 432]",ColorTask,40.0,68.0,,,HRV,HRV_0094,2022-11-30 18:09:24
,wl-rdm,76,197405,0.0-6.68-0.68,0.0,76.0,,,,,,,[],,,,,,50.0,1.0,u,0.0,False,862.6999999880791,43.0,60.0,40.0,False,,324.9460839138419,[],"[768, 432]",ColorTask,39.0,69.0,,,HRV,HRV_0094,2022-11-30 18:09:24
,wl-rdm,77,199335,0.0-6.69-0.69,0.0,77.0,,,,,,,[],,,,,,87.9,0.0,u,0.0,True,622.0,25.0,60.0,40.0,False,,223.104961750936,[],"[768, 432]",ColorTask,40.0,70.0,,,HRV,HRV_0094,2022-11-30 18:09:24
,wl-rdm,78,201550,0.0-6.70-0.70,0.0,78.0,,,,,,,[],,,,,,87.9,0.0,u,0.0,True,792.3000000119209,26.0,60.0,40.0,False,,315.9897903503166,[],"[768, 432]",ColorTask,41.0,71.0,,,HRV,HRV_0094,2022-11-30 18:09:24
,wl-rdm,79,203732,0.0-6.71-0.71,0.0,79.0,,,,,,,[],,,,,,56.4,0.0,i,1.0,False,647.7999999523163,32.0,60.0,40.0,False,,351.1067119732909,[],"[768, 432]",ColorTask,40.0,72.0,,,HRV,HRV_0094,2022-11-30 18:09:24
,wl-rdm,80,205691,0.0-6.72-0.72,0.0,80.0,,,,,,,[],,,,,,73.6,1.0,i,1.0,True,618.6999999880791,34.0,60.0,40.0,False,,271.44395331326695,[],"[768, 432]",ColorTask,41.0,73.0,,,HRV,HRV_0094,2022-11-30 18:09:24
,wl-rdm,81,207795,0.0-6.73-0.73,0.0,81.0,,,,,,,[],,,,,,87.9,0.0,u,0.0,True,654.0999999642372,32.0,60.0,40.0,False,,281.22980648814826,[],"[768, 432]",ColorTask,42.0,74.0,,,HRV,HRV_0094,2022-11-30 18:09:24
,wl-rdm,82,209796,0.0-6.74-0.74,0.0,82.0,,,,,,,[],,,,,,73.6,0.0,u,0.0,True,475.2000000476837,27.0,60.0,40.0,False,,381.538218182548,[],"[768, 432]",ColorTask,43.0,75.0,,,HRV,HRV_0094,2022-11-30 18:09:24
,wl-rdm,83,212187,0.0-6.75-0.75,0.0,83.0,,,,,,,[],,,,,,50.0,1.0,i,1.0,True,972.5,55.0,60.0,40.0,False,,201.802066629494,[],"[768, 432]",ColorTask,44.0,76.0,,,HRV,HRV_0094,2022-11-30 18:09:24
,wl-rdm,84,214204,0.0-6.76-0.76,0.0,84.0,,,,,,,[],,,,,,62.5,0.0,u,0.0,True,747.6000000238419,34.0,60.0,40.0,False,,205.4686738772195,[],"[768, 432]",ColorTask,45.0,77.0,,,HRV,HRV_0094,2022-11-30 18:09:24
,wl-rdm,85,216445,0.0-6.77-0.77,0.0,85.0,,,,,,,[],,,,,,87.9,1.0,i,1.0,True,677.0,25.0,60.0,40.0,False,,320.3418471351314,[],"[768, 432]",ColorTask,46.0,78.0,,,HRV,HRV_0094,2022-11-30 18:09:24
,wl-rdm,86,218397,0.0-6.78-0.78,0.0,86.0,,,,,,,[],,,,,,62.5,0.0,u,0.0,True,577.1000000238419,29.0,60.0,40.0,False,,269.7721483132293,[],"[768, 432]",ColorTask,47.0,79.0,,,HRV,HRV_0094,2022-11-30 18:09:24
,wl-rdm,87,220740,0.0-6.79-0.79,0.0,87.0,,,,,,,[],,,,,,62.5,1.0,i,1.0,True,1047.2999999523163,54.0,60.0,40.0,False,,219.9301971550041,[],"[768, 432]",ColorTask,48.0,80.0,,,HRV,HRV_0094,2022-11-30 18:09:24
,wl-rdm,88,222999,0.0-6.80-0.80,0.0,88.0,,,,,,,[],,,,,,62.5,1.0,i,1.0,True,926.9000000357628,48.0,60.0,40.0,False,,245.62951412792333,[],"[768, 432]",ColorTask,49.0,81.0,,,HRV,HRV_0094,2022-11-30 18:09:24
,wl-rdm,89,224909,0.0-6.81-0.81,0.0,89.0,,,,,,,[],,,,,,73.6,0.0,u,0.0,True,555.1000000238419,31.0,60.0,40.0,False,,237.36270273839008,[],"[768, 432]",ColorTask,50.0,82.0,,,HRV,HRV_0094,2022-11-30 18:09:24
,wl-rdm,90,226882,0.0-6.82-0.82,0.0,90.0,,,,,,,[],,,,,,62.5,1.0,i,1.0,True,628.8000000119209,33.0,60.0,40.0,False,,279.6494073245223,[],"[768, 432]",ColorTask,51.0,83.0,,,HRV,HRV_0094,2022-11-30 18:09:24
,wl-rdm,91,228766,0.0-6.83-0.83,0.0,91.0,,,,,,,[],,,,,,62.5,1.0,i,1.0,True,558.1999999880791,33.0,60.0,40.0,False,,239.32746949479136,[],"[768, 432]",ColorTask,52.0,84.0,,,HRV,HRV_0094,2022-11-30 18:09:24
,wl-rdm,92,230900,0.0-6.84-0.84,0.0,92.0,,,,,,,[],,,,,,73.6,0.0,u,0.0,True,558.5,28.0,60.0,40.0,False,,377.9052793910218,[],"[768, 432]",ColorTask,53.0,85.0,,,HRV,HRV_0094,2022-11-30 18:09:24
,wl-rdm,93,233197,0.0-6.85-0.85,0.0,93.0,,,,,,,[],,,,,,62.5,0.0,i,1.0,False,850.6000000238419,25.0,60.0,40.0,False,,389.2086840212528,[],"[768, 432]",ColorTask,52.0,86.0,,,HRV,HRV_0094,2022-11-30 18:09:24
,wl-rdm,94,235304,0.0-6.86-0.86,0.0,94.0,,,,,,,[],,,,,,56.4,1.0,u,0.0,False,752.6999999880791,37.0,60.0,40.0,False,,219.11762402520012,[],"[768, 432]",ColorTask,51.0,87.0,,,HRV,HRV_0094,2022-11-30 18:09:24
,wl-rdm,95,237595,0.0-6.87-0.87,0.0,95.0,,,,,,,[],,,,,,50.0,1.0,u,0.0,False,1008.9999999403954,53.0,60.0,40.0,False,,206.8662728335174,[],"[768, 432]",ColorTask,50.0,88.0,,,HRV,HRV_0094,2022-11-30 18:09:24
,wl-rdm,96,239504,0.0-6.88-0.88,0.0,96.0,,,,,,,[],,,,,,56.4,0.0,i,1.0,False,536.5,32.0,60.0,40.0,False,,270.66920041102236,[],"[768, 432]",ColorTask,49.0,89.0,,,HRV,HRV_0094,2022-11-30 18:09:24
,wl-rdm,97,241511,0.0-6.89-0.89,0.0,97.0,,,,,,,[],,,,,,56.4,1.0,i,1.0,True,615.5,35.0,60.0,40.0,False,,208.0483154277078,[],"[768, 432]",ColorTask,50.0,90.0,,,HRV,HRV_0094,2022-11-30 18:09:24
,wl-rdm,98,243575,0.0-6.90-0.90,0.0,98.0,,,,,,,[],,,,,,53.2,1.0,i,1.0,True,621.8999999761581,37.0,60.0,40.0,False,,324.82535748178714,[],"[768, 432]",ColorTask,51.0,91.0,,,HRV,HRV_0094,2022-11-30 18:09:24
,wl-rdm,99,245622,0.0-6.91-0.91,0.0,99.0,,,,,,,[],,,,,,73.6,0.0,u,0.0,True,591.7000000476837,31.0,60.0,40.0,False,,384.3462008557078,[],"[768, 432]",ColorTask,52.0,92.0,,,HRV,HRV_0094,2022-11-30 18:09:24
,wl-rdm,100,247874,0.0-6.92-0.92,0.0,100.0,,,,,,,[],,,,,,73.6,1.0,i,1.0,True,878.5999999642372,44.0,60.0,40.0,False,,331.0509078228972,[],"[768, 432]",ColorTask,53.0,93.0,,,HRV,HRV_0094,2022-11-30 18:09:24
,wl-rdm,101,249708,0.0-6.93-0.93,0.0,101.0,,,,,,,[],,,,,,53.2,0.0,u,0.0,True,556.3999999761581,35.0,60.0,40.0,False,,205.12086193310148,[],"[768, 432]",ColorTask,54.0,94.0,,,HRV,HRV_0094,2022-11-30 18:09:24
,wl-rdm,102,251942,0.0-6.94-0.94,0.0,102.0,,,,,,,[],,,,,,62.5,1.0,i,1.0,True,948.0,36.0,60.0,40.0,False,,203.4480465393726,[],"[768, 432]",ColorTask,55.0,95.0,,,HRV,HRV_0094,2022-11-30 18:09:24
,wl-rdm,103,253909,0.0-6.95-0.95,0.0,103.0,,,,,,,[],,,,,,73.6,0.0,u,0.0,True,651.5999999642372,32.0,60.0,40.0,False,,243.54998610782462,[],"[768, 432]",ColorTask,56.0,96.0,,,HRV,HRV_0094,2022-11-30 18:09:24
,wl-rdm,104,256202,0.0-6.96-0.96,0.0,104.0,,,,,,,[],,,,,,62.5,0.0,u,0.0,True,925.6999999880791,44.0,60.0,40.0,False,,285.2716410059859,[],"[768, 432]",ColorTask,57.0,97.0,,,HRV,HRV_0094,2022-11-30 18:09:24
,wl-rdm,105,258294,0.0-6.97-0.97,0.0,105.0,,,,,,,[],,,,,,62.5,0.0,u,0.0,True,802.0999999642372,45.0,60.0,40.0,False,,200.4366819656296,[],"[768, 432]",ColorTask,58.0,98.0,,,HRV,HRV_0094,2022-11-30 18:09:24
,wl-rdm,106,260161,0.0-6.98-0.98,0.0,106.0,,,,,,,[],,,,,,56.4,1.0,i,1.0,True,547.7999999523163,30.0,60.0,40.0,False,,238.23064467600403,[],"[768, 432]",ColorTask,59.0,99.0,,,HRV,HRV_0094,2022-11-30 18:09:24
,wl-rdm,107,262429,0.0-6.99-0.99,0.0,107.0,,,,,,,[],,,,,,53.2,1.0,i,1.0,True,878.5,46.0,60.0,40.0,False,,324.5025139594855,[],"[768, 432]",ColorTask,60.0,100.0,,,HRV,HRV_0094,2022-11-30 18:09:24
,wl-rdm,108,264298,0.0-6.100-0.100,0.0,108.0,,,,,,,[],,,,,,56.4,0.0,u,0.0,True,544.1999999880791,29.0,60.0,40.0,False,,265.66664008708506,[],"[768, 432]",ColorTask,61.0,101.0,,,HRV,HRV_0094,2022-11-30 18:09:24
,wl-rdm,109,266316,0.0-6.101-0.101,0.0,109.0,,,,,,,[],,,,,,62.5,0.0,u,0.0,True,611.1999999284744,36.0,60.0,40.0,False,,341.1219209079003,[],"[768, 432]",ColorTask,62.0,102.0,,,HRV,HRV_0094,2022-11-30 18:09:24
,wl-rdm,110,268399,0.0-6.102-0.102,0.0,110.0,,,,,,,[],,,,,,73.6,1.0,i,1.0,True,646.8999999761581,29.0,60.0,40.0,False,,379.11458964235317,[],"[768, 432]",ColorTask,63.0,103.0,,,HRV,HRV_0094,2022-11-30 18:09:24
,wl-rdm,111,270498,0.0-6.103-0.103,0.0,111.0,,,,,,,[],,,,,,53.2,1.0,i,1.0,True,830.9000000357628,38.0,60.0,40.0,False,,210.72048538638356,[],"[768, 432]",ColorTask,64.0,104.0,,,HRV,HRV_0094,2022-11-30 18:09:24
,wl-rdm,112,272637,0.0-6.104-0.104,0.0,112.0,,,,,,,[],,,,,,50.0,1.0,u,0.0,False,769.8999999761581,32.0,60.0,40.0,False,,284.9757737319944,[],"[768, 432]",ColorTask,63.0,105.0,,,HRV,HRV_0094,2022-11-30 18:09:24
,wl-rdm,113,274683,0.0-6.105-0.105,0.0,113.0,,,,,,,[],,,,,,62.5,0.0,u,0.0,True,718.2000000476837,27.0,60.0,40.0,False,,225.09378607913388,[],"[768, 432]",ColorTask,64.0,106.0,,,HRV,HRV_0094,2022-11-30 18:09:24
,wl-rdm,114,276782,0.0-6.106-0.106,0.0,114.0,,,,,,,[],,,,,,87.9,1.0,i,1.0,True,653.1000000238419,37.0,60.0,40.0,False,,360.2257097575677,[],"[768, 432]",ColorTask,65.0,107.0,,,HRV,HRV_0094,2022-11-30 18:09:24
,wl-rdm,115,279385,0.0-6.107-0.107,0.0,115.0,,,,,,,[],,,,,,50.0,0.0,u,0.0,True,1295.1000000238419,76.0,60.0,40.0,False,,244.45006146916432,[],"[768, 432]",ColorTask,66.0,108.0,,,HRV,HRV_0094,2022-11-30 18:09:24
,wl-rdm,116,281550,0.0-6.108-0.108,0.0,116.0,,,,,,,[],,,,,,50.0,0.0,u,0.0,True,715.1999999284744,40.0,60.0,40.0,False,,388.75836725602244,[],"[768, 432]",ColorTask,67.0,109.0,,,HRV,HRV_0094,2022-11-30 18:09:24
,wl-html-keyboard-response,117,293159,0.0-7.0-0.0,1.0,117.0,,,,,,,,9588.0,1.0,0,,,,,,,,,,,,,,,,,,,,,,HRV,HRV_0094,2022-11-30 18:09:24
,wl-rdm,118,295025,0.0-8.0-0.0,1.0,118.0,,,,,,,[],,,,,,53.2,1.0,i,1.0,True,556.0,33.0,60.0,40.0,False,,243.42612093803757,[],"[768, 432]",ColorTask,68.0,1.0,,,HRV,HRV_0094,2022-11-30 18:09:24
,wl-rdm,119,297075,0.0-8.1-0.1,1.0,119.0,,,,,,,[],,,,,,62.5,1.0,i,1.0,True,771.3000000119209,40.0,60.0,40.0,False,,208.69121696576244,[],"[768, 432]",ColorTask,69.0,2.0,,,HRV,HRV_0094,2022-11-30 18:09:24
,wl-rdm,120,299143,0.0-8.2-0.2,1.0,120.0,,,,,,,[],,,,,,53.2,0.0,i,1.0,False,690.1999999880791,36.0,60.0,40.0,False,,318.80229197860353,[],"[768, 432]",ColorTask,68.0,3.0,,,HRV,HRV_0094,2022-11-30 18:09:24
,wl-rdm,121,301060,0.0-8.3-0.3,1.0,121.0,,,,,,,[],,,,,,50.0,1.0,u,0.0,False,545.8999999761581,31.0,60.0,40.0,False,,302.8389381931963,[],"[768, 432]",ColorTask,67.0,4.0,,,HRV,HRV_0094,2022-11-30 18:09:24
,wl-rdm,122,303011,0.0-8.4-0.4,1.0,122.0,,,,,,,[],,,,,,73.6,0.0,u,0.0,True,574.0,35.0,60.0,40.0,False,,311.39295388674753,[],"[768, 432]",ColorTask,68.0,5.0,,,HRV,HRV_0094,2022-11-30 18:09:24
,wl-rdm,123,304912,0.0-8.5-0.5,1.0,123.0,,,,,,,[],,,,,,50.0,0.0,i,1.0,False,588.6000000238419,35.0,60.0,40.0,False,,246.8417656437781,[],"[768, 432]",ColorTask,67.0,6.0,,,HRV,HRV_0094,2022-11-30 18:09:24
,wl-rdm,124,306864,0.0-8.6-0.6,1.0,124.0,,,,,,,[],,,,,,73.6,1.0,i,1.0,True,602.9999999403954,37.0,60.0,40.0,False,,273.5514745165656,[],"[768, 432]",ColorTask,68.0,7.0,,,HRV,HRV_0094,2022-11-30 18:09:24
,wl-rdm,125,308737,0.0-8.7-0.7,1.0,125.0,,,,,,,[],,,,,,73.6,0.0,u,0.0,True,521.9000000357628,32.0,60.0,40.0,False,,278.9644421386019,[],"[768, 432]",ColorTask,69.0,8.0,,,HRV,HRV_0094,2022-11-30 18:09:24
,wl-rdm,126,310749,0.0-8.8-0.8,1.0,126.0,,,,,,,[],,,,,,73.6,0.0,u,0.0,True,695.4000000357628,30.0,60.0,40.0,False,,236.14587171461352,[],"[768, 432]",ColorTask,70.0,9.0,,,HRV,HRV_0094,2022-11-30 18:09:24
,wl-rdm,127,312768,0.0-8.9-0.9,1.0,127.0,,,,,,,[],,,,,,87.9,0.0,u,0.0,True,619.2999999523163,35.0,60.0,40.0,False,,320.2909078063264,[],"[768, 432]",ColorTask,71.0,10.0,,,HRV,HRV_0094,2022-11-30 18:09:24
,wl-rdm,128,314740,0.0-8.10-0.10,1.0,128.0,,,,,,,[],,,,,,53.2,1.0,i,1.0,True,643.3000000119209,39.0,60.0,40.0,False,,205.95122894256426,[],"[768, 432]",ColorTask,72.0,11.0,,,HRV,HRV_0094,2022-11-30 18:09:24
,wl-rdm,129,316817,0.0-8.11-0.11,1.0,129.0,,,,,,,[],,,,,,62.5,0.0,u,0.0,True,771.8999999761581,46.0,60.0,40.0,False,,212.4772663863701,[],"[768, 432]",ColorTask,73.0,12.0,,,HRV,HRV_0094,2022-11-30 18:09:24
,wl-rdm,130,318802,0.0-8.12-0.12,1.0,130.0,,,,,,,[],,,,,,62.5,1.0,i,1.0,True,677.9000000357628,34.0,60.0,40.0,False,,219.29557737094225,[],"[768, 432]",ColorTask,74.0,13.0,,,HRV,HRV_0094,2022-11-30 18:09:24
,wl-rdm,131,321234,0.0-8.13-0.13,1.0,131.0,,,,,,,[],,,,,,53.2,1.0,u,0.0,False,1079.2999999523163,58.0,60.0,40.0,False,,251.23911220727805,[],"[768, 432]",ColorTask,73.0,14.0,,,HRV,HRV_0094,2022-11-30 18:09:24
,wl-rdm,132,323351,0.0-8.14-0.14,1.0,132.0,,,,,,,[],,,,,,73.6,0.0,u,0.0,True,743.3000000119209,40.0,60.0,40.0,False,,278.41002433875553,[],"[768, 432]",ColorTask,74.0,15.0,,,HRV,HRV_0094,2022-11-30 18:09:24
,wl-rdm,133,325405,0.0-8.15-0.15,1.0,133.0,,,,,,,[],,,,,,50.0,1.0,i,1.0,True,750.1999999880791,43.0,60.0,40.0,False,,232.07507927512833,[],"[768, 432]",ColorTask,75.0,16.0,,,HRV,HRV_0094,2022-11-30 18:09:24
,wl-rdm,134,327669,0.0-8.16-0.16,1.0,134.0,,,,,,,[],,,,,,53.2,0.0,i,1.0,False,979.3999999761581,55.0,60.0,40.0,False,,212.00576089416606,[],"[768, 432]",ColorTask,74.0,17.0,,,HRV,HRV_0094,2022-11-30 18:09:24
,wl-rdm,135,329538,0.0-8.17-0.17,1.0,135.0,,,,,,,[],,,,,,73.6,0.0,u,0.0,True,581.4000000357628,34.0,60.0,40.0,False,,203.87938942152292,[],"[768, 432]",ColorTask,75.0,18.0,,,HRV,HRV_0094,2022-11-30 18:09:24
,wl-rdm,136,331739,0.0-8.18-0.18,1.0,136.0,,,,,,,[],,,,,,53.2,0.0,u,0.0,True,690.8000000119209,31.0,60.0,40.0,False,,397.4812009207578,[],"[768, 432]",ColorTask,76.0,19.0,,,HRV,HRV_0094,2022-11-30 18:09:24
,wl-rdm,137,334089,0.0-8.19-0.19,1.0,137.0,,,,,,,[],,,,,,62.5,0.0,i,1.0,False,994.3999999761581,58.0,60.0,40.0,False,,296.1863759427313,[],"[768, 432]",ColorTask,75.0,20.0,,,HRV,HRV_0094,2022-11-30 18:09:24
,wl-rdm,138,335939,0.0-8.20-0.20,1.0,138.0,,,,,,,[],,,,,,62.5,0.0,u,0.0,True,423.10000002384186,27.0,60.0,40.0,False,,326.30989406136473,[],"[768, 432]",ColorTask,76.0,21.0,,,HRV,HRV_0094,2022-11-30 18:09:24
,wl-rdm,139,337940,0.0-8.21-0.21,1.0,139.0,,,,,,,[],,,,,,87.9,1.0,i,1.0,True,555.0000000596046,31.0,60.0,40.0,False,,353.75121413385364,[],"[768, 432]",ColorTask,77.0,22.0,,,HRV,HRV_0094,2022-11-30 18:09:24
,wl-rdm,140,340065,0.0-8.22-0.22,1.0,140.0,,,,,,,[],,,,,,53.2,1.0,i,1.0,True,760.2999999523163,42.0,60.0,40.0,False,,250.67575016900608,[],"[768, 432]",ColorTask,78.0,23.0,,,HRV,HRV_0094,2022-11-30 18:09:24
,wl-rdm,141,341925,0.0-8.23-0.23,1.0,141.0,,,,,,,[],,,,,,87.9,0.0,u,0.0,True,469.39999997615814,29.0,60.0,40.0,False,,254.83970714058518,[],"[768, 432]",ColorTask,79.0,24.0,,,HRV,HRV_0094,2022-11-30 18:09:24
,wl-rdm,142,343843,0.0-8.24-0.24,1.0,142.0,,,,,,,[],,,,,,73.6,0.0,u,0.0,True,574.6999999880791,35.0,60.0,40.0,False,,207.8797652702313,[],"[768, 432]",ColorTask,80.0,25.0,,,HRV,HRV_0094,2022-11-30 18:09:24
,wl-rdm,143,345893,0.0-8.25-0.25,1.0,143.0,,,,,,,[],,,,,,73.6,0.0,i,1.0,False,632.3000000119209,31.0,60.0,40.0,False,,352.2849725298606,[],"[768, 432]",ColorTask,79.0,26.0,,,HRV,HRV_0094,2022-11-30 18:09:24
,wl-rdm,144,347880,0.0-8.26-0.26,1.0,144.0,,,,,,,[],,,,,,50.0,0.0,i,1.0,False,522.7999999523163,29.0,60.0,40.0,False,,392.51000070408793,[],"[768, 432]",ColorTask,78.0,27.0,,,HRV,HRV_0094,2022-11-30 18:09:24
,wl-rdm,145,349862,0.0-8.27-0.27,1.0,145.0,,,,,,,[],,,,,,87.9,1.0,i,1.0,True,573.6999999880791,31.0,60.0,40.0,False,,331.7132172618757,[],"[768, 432]",ColorTask,79.0,28.0,,,HRV,HRV_0094,2022-11-30 18:09:24
,wl-rdm,146,351648,0.0-8.28-0.28,1.0,146.0,,,,,,,[],,,,,,62.5,0.0,u,0.0,True,473.7000000476837,30.0,60.0,40.0,False,,204.9098063105737,[],"[768, 432]",ColorTask,80.0,29.0,,,HRV,HRV_0094,2022-11-30 18:09:24
,wl-rdm,147,354013,0.0-8.29-0.29,1.0,147.0,,,,,,,[],,,,,,53.2,0.0,u,0.0,True,1075.0999999642372,42.0,60.0,40.0,False,,202.6741864858349,[],"[768, 432]",ColorTask,81.0,30.0,,,HRV,HRV_0094,2022-11-30 18:09:24
,wl-rdm,148,356247,0.0-8.30-0.30,1.0,148.0,,,,,,,[],,,,,,56.4,0.0,u,0.0,True,876.9999999403954,41.0,60.0,40.0,False,,276.5181607922493,[],"[768, 432]",ColorTask,82.0,31.0,,,HRV,HRV_0094,2022-11-30 18:09:24
,wl-rdm,149,358131,0.0-8.31-0.31,1.0,149.0,,,,,,,[],,,,,,87.9,1.0,i,1.0,True,610.8000000119209,32.0,60.0,40.0,False,,212.70884757121289,[],"[768, 432]",ColorTask,83.0,32.0,,,HRV,HRV_0094,2022-11-30 18:09:24
,wl-rdm,150,360149,0.0-8.32-0.32,1.0,150.0,,,,,,,[],,,,,,53.2,0.0,u,0.0,True,628.5,36.0,60.0,40.0,False,,295.903702851564,[],"[768, 432]",ColorTask,84.0,33.0,,,HRV,HRV_0094,2022-11-30 18:09:24
,wl-rdm,151,362149,0.0-8.33-0.33,1.0,151.0,,,,,,,[],,,,,,62.5,1.0,i,1.0,True,619.7999999523163,36.0,60.0,40.0,False,,301.1420692664467,[],"[768, 432]",ColorTask,85.0,34.0,,,HRV,HRV_0094,2022-11-30 18:09:24
,wl-rdm,152,364304,0.0-8.34-0.34,1.0,152.0,,,,,,,[],,,,,,50.0,1.0,i,1.0,True,818.5000000596046,36.0,60.0,40.0,False,,247.74006147557697,[],"[768, 432]",ColorTask,86.0,35.0,,,HRV,HRV_0094,2022-11-30 18:09:24
,wl-rdm,153,366351,0.0-8.35-0.35,1.0,153.0,,,,,,,[],,,,,,50.0,1.0,u,0.0,False,707.1000000238419,29.0,60.0,40.0,False,,201.0319883434747,[],"[768, 432]",ColorTask,85.0,36.0,,,HRV,HRV_0094,2022-11-30 18:09:24
,wl-rdm,154,368438,0.0-8.36-0.36,1.0,154.0,,,,,,,[],,,,,,73.6,1.0,i,1.0,True,799.1000000238419,44.0,60.0,40.0,False,,225.07828267190584,[],"[768, 432]",ColorTask,86.0,37.0,,,HRV,HRV_0094,2022-11-30 18:09:24
,wl-rdm,155,370353,0.0-8.37-0.37,1.0,155.0,,,,,,,[],,,,,,50.0,1.0,u,0.0,False,588.8000000119209,30.0,60.0,40.0,False,,226.39956273569362,[],"[768, 432]",ColorTask,85.0,38.0,,,HRV,HRV_0094,2022-11-30 18:09:24
,wl-rdm,156,372172,0.0-8.38-0.38,1.0,156.0,,,,,,,[],,,,,,56.4,1.0,i,1.0,True,435.39999997615814,24.0,60.0,40.0,False,,315.94522543405964,[],"[768, 432]",ColorTask,86.0,39.0,,,HRV,HRV_0094,2022-11-30 18:09:24
,wl-rdm,157,374385,0.0-8.39-0.39,1.0,157.0,,,,,,,[],,,,,,50.0,0.0,i,1.0,False,571.0000000596046,30.0,60.0,40.0,False,,382.4811786346728,[],"[768, 432]",ColorTask,85.0,40.0,,,HRV,HRV_0094,2022-11-30 18:09:24
,wl-rdm,158,376588,0.0-8.40-0.40,1.0,158.0,,,,,,,[],,,,,,50.0,1.0,u,0.0,False,742.8000000119209,28.0,60.0,40.0,False,,210.66590352191199,[],"[768, 432]",ColorTask,84.0,41.0,,,HRV,HRV_0094,2022-11-30 18:09:24
,wl-rdm,159,378706,0.0-8.41-0.41,1.0,159.0,,,,,,,[],,,,,,62.5,1.0,i,1.0,True,598.8000000715256,33.0,60.0,40.0,False,,291.34234065174365,[],"[768, 432]",ColorTask,85.0,42.0,,,HRV,HRV_0094,2022-11-30 18:09:24
,wl-rdm,160,380573,0.0-8.42-0.42,1.0,160.0,,,,,,,[],,,,,,87.9,0.0,u,0.0,True,548.8999999761581,30.0,60.0,40.0,False,,246.65920848022338,[],"[768, 432]",ColorTask,86.0,43.0,,,HRV,HRV_0094,2022-11-30 18:09:24
,wl-rdm,161,382491,0.0-8.43-0.43,1.0,161.0,,,,,,,[],,,,,,53.2,1.0,u,0.0,False,640.2000000476837,38.0,60.0,40.0,False,,201.31908539831355,[],"[768, 432]",ColorTask,85.0,44.0,,,HRV,HRV_0094,2022-11-30 18:09:24
,wl-rdm,162,384425,0.0-8.44-0.44,1.0,162.0,,,,,,,[],,,,,,62.5,1.0,i,1.0,True,481.99999994039536,25.0,60.0,40.0,False,,379.6510296825777,[],"[768, 432]",ColorTask,86.0,45.0,,,HRV,HRV_0094,2022-11-30 18:09:24
,wl-rdm,163,386426,0.0-8.45-0.45,1.0,163.0,,,,,,,[],,,,,,53.2,1.0,i,1.0,True,503.10000002384186,25.0,60.0,40.0,False,,228.77831077842202,[],"[768, 432]",ColorTask,87.0,46.0,,,HRV,HRV_0094,2022-11-30 18:09:24
,wl-rdm,164,388193,0.0-8.46-0.46,1.0,164.0,,,,,,,[],,,,,,73.6,1.0,i,1.0,True,425.9000000357628,27.0,60.0,40.0,False,,238.45823271963536,[],"[768, 432]",ColorTask,88.0,47.0,,,HRV,HRV_0094,2022-11-30 18:09:24
,wl-rdm,165,390160,0.0-8.47-0.47,1.0,165.0,,,,,,,[],,,,,,56.4,1.0,i,1.0,True,598.9999999403954,24.0,60.0,40.0,False,,263.1063011064082,[],"[768, 432]",ColorTask,89.0,48.0,,,HRV,HRV_0094,2022-11-30 18:09:24
,wl-rdm,166,392080,0.0-8.48-0.48,1.0,166.0,,,,,,,[],,,,,,56.4,0.0,u,0.0,True,565.8999999761581,30.0,60.0,40.0,False,,288.8563251217124,[],"[768, 432]",ColorTask,90.0,49.0,,,HRV,HRV_0094,2022-11-30 18:09:24
,wl-rdm,167,394129,0.0-8.49-0.49,1.0,167.0,,,,,,,[],,,,,,56.4,0.0,i,1.0,False,641.3999999761581,36.0,60.0,40.0,False,,346.3939743836521,[],"[768, 432]",ColorTask,89.0,50.0,,,HRV,HRV_0094,2022-11-30 18:09:24
,wl-rdm,168,396311,0.0-8.50-0.50,1.0,168.0,,,,,,,[],,,,,,50.0,0.0,u,0.0,True,722.9999999403954,36.0,60.0,40.0,False,,355.45945897202677,[],"[768, 432]",ColorTask,90.0,51.0,,,HRV,HRV_0094,2022-11-30 18:09:24
,wl-rdm,169,398163,0.0-8.51-0.51,1.0,169.0,,,,,,,[],,,,,,87.9,0.0,u,0.0,True,579.3000000119209,35.0,60.0,40.0,False,,204.0611449688642,[],"[768, 432]",ColorTask,91.0,52.0,,,HRV,HRV_0094,2022-11-30 18:09:24
,wl-rdm,170,400274,0.0-8.52-0.52,1.0,170.0,,,,,,,[],,,,,,56.4,0.0,u,0.0,True,660.3000000119209,37.0,60.0,40.0,False,,384.1494053567598,[],"[768, 432]",ColorTask,92.0,53.0,,,HRV,HRV_0094,2022-11-30 18:09:24
,wl-rdm,171,402269,0.0-8.53-0.53,1.0,171.0,,,,,,,[],,,,,,50.0,1.0,u,0.0,False,726.6999999880791,38.0,60.0,40.0,False,,211.7052133569372,[],"[768, 432]",ColorTask,91.0,54.0,,,HRV,HRV_0094,2022-11-30 18:09:24
,wl-rdm,172,404432,0.0-8.54-0.54,1.0,172.0,,,,,,,[],,,,,,50.0,0.0,u,0.0,True,836.1999999880791,42.0,60.0,40.0,False,,212.20779442589597,[],"[768, 432]",ColorTask,92.0,55.0,,,HRV,HRV_0094,2022-11-30 18:09:24
,wl-rdm,173,406550,0.0-8.55-0.55,1.0,173.0,,,,,,,[],,,,,,50.0,0.0,i,1.0,False,792.4000000357628,38.0,60.0,40.0,False,,266.56091190172066,[],"[768, 432]",ColorTask,91.0,56.0,,,HRV,HRV_0094,2022-11-30 18:09:24
,wl-rdm,174,408418,0.0-8.56-0.56,1.0,174.0,,,,,,,[],,,,,,62.5,0.0,i,1.0,False,545.4000000357628,33.0,60.0,40.0,False,,256.7387568085807,[],"[768, 432]",ColorTask,90.0,57.0,,,HRV,HRV_0094,2022-11-30 18:09:24
,wl-rdm,175,410451,0.0-8.57-0.57,1.0,175.0,,,,,,,[],,,,,,87.9,0.0,u,0.0,True,654.0,32.0,60.0,40.0,False,,275.4830951722643,[],"[768, 432]",ColorTask,91.0,58.0,,,HRV,HRV_0094,2022-11-30 18:09:24
,wl-rdm,176,412356,0.0-8.58-0.58,1.0,176.0,,,,,,,[],,,,,,50.0,1.0,u,0.0,False,624.1000000238419,38.0,60.0,40.0,False,,206.8210068494935,[],"[768, 432]",ColorTask,90.0,59.0,,,HRV,HRV_0094,2022-11-30 18:09:24
,wl-rdm,177,414503,0.0-8.59-0.59,1.0,177.0,,,,,,,[],,,,,,62.5,1.0,i,1.0,True,763.1999999880791,39.0,60.0,40.0,False,,309.2730696042271,[],"[768, 432]",ColorTask,91.0,60.0,,,HRV,HRV_0094,2022-11-30 18:09:24
,wl-rdm,178,416437,0.0-8.60-0.60,1.0,178.0,,,,,,,[],,,,,,62.5,0.0,u,0.0,True,620.0999999642372,38.0,60.0,40.0,False,,252.45230322445667,[],"[768, 432]",ColorTask,92.0,61.0,,,HRV,HRV_0094,2022-11-30 18:09:24
,wl-rdm,179,418577,0.0-8.61-0.61,1.0,179.0,,,,,,,[],,,,,,50.0,0.0,u,0.0,True,681.5,40.0,60.0,40.0,False,,367.1029094720253,[],"[768, 432]",ColorTask,93.0,62.0,,,HRV,HRV_0094,2022-11-30 18:09:24
,wl-rdm,180,420705,0.0-8.62-0.62,1.0,180.0,,,,,,,[],,,,,,53.2,1.0,u,0.0,False,681.3000000119209,35.0,60.0,40.0,False,,301.3599049065381,[],"[768, 432]",ColorTask,92.0,63.0,,,HRV,HRV_0094,2022-11-30 18:09:24
,wl-rdm,181,422756,0.0-8.63-0.63,1.0,181.0,,,,,,,[],,,,,,62.5,0.0,u,0.0,True,699.6999999880791,28.0,60.0,40.0,False,,271.0249339672027,[],"[768, 432]",ColorTask,93.0,64.0,,,HRV,HRV_0094,2022-11-30 18:09:24
,wl-rdm,182,424673,0.0-8.64-0.64,1.0,182.0,,,,,,,[],,,,,,50.0,0.0,i,1.0,False,569.1000000238419,32.0,60.0,40.0,False,,272.8764117918789,[],"[768, 432]",ColorTask,92.0,65.0,,,HRV,HRV_0094,2022-11-30 18:09:24
,wl-rdm,183,426835,0.0-8.65-0.65,1.0,183.0,,,,,,,[],,,,,,56.4,0.0,u,0.0,True,741.8999999761581,41.0,60.0,40.0,False,,290.8491848717875,[],"[768, 432]",ColorTask,93.0,66.0,,,HRV,HRV_0094,2022-11-30 18:09:24
,wl-rdm,184,428784,0.0-8.66-0.66,1.0,184.0,,,,,,,[],,,,,,87.9,0.0,u,0.0,True,595.0,35.0,60.0,40.0,False,,285.48100588202084,[],"[768, 432]",ColorTask,94.0,67.0,,,HRV,HRV_0094,2022-11-30 18:09:24
,wl-rdm,185,431249,0.0-8.67-0.67,1.0,185.0,,,,,,,[],,,,,,87.9,1.0,i,1.0,True,991.1000000238419,60.0,60.0,40.0,False,,369.3914316869516,[],"[768, 432]",ColorTask,95.0,68.0,,,HRV,HRV_0094,2022-11-30 18:09:24
,wl-rdm,186,433128,0.0-8.68-0.68,1.0,186.0,,,,,,,[],,,,,,56.4,0.0,u,0.0,True,615.4999999403954,34.0,60.0,40.0,False,,205.48066794701748,[],"[768, 432]",ColorTask,96.0,69.0,,,HRV,HRV_0094,2022-11-30 18:09:24
,wl-rdm,187,435127,0.0-8.69-0.69,1.0,187.0,,,,,,,[],,,,,,50.0,0.0,u,0.0,True,596.0,36.0,60.0,40.0,False,,334.9481192679908,[],"[768, 432]",ColorTask,97.0,70.0,,,HRV,HRV_0094,2022-11-30 18:09:24
,wl-rdm,188,437228,0.0-8.70-0.70,1.0,188.0,,,,,,,[],,,,,,73.6,0.0,u,0.0,True,632.6999999880791,33.0,60.0,40.0,False,,362.3242792794509,[],"[768, 432]",ColorTask,98.0,71.0,,,HRV,HRV_0094,2022-11-30 18:09:24
,wl-rdm,189,439079,0.0-8.71-0.71,1.0,189.0,,,,,,,[],,,,,,73.6,1.0,u,0.0,False,432.10000002384186,27.0,60.0,40.0,False,,330.83287354610724,[],"[768, 432]",ColorTask,97.0,72.0,,,HRV,HRV_0094,2022-11-30 18:09:24
,wl-rdm,190,441080,0.0-8.72-0.72,1.0,190.0,,,,,,,[],,,,,,87.9,1.0,i,1.0,True,524.2999999523163,31.0,60.0,40.0,False,,390.44450593651464,[],"[768, 432]",ColorTask,98.0,73.0,,,HRV,HRV_0094,2022-11-30 18:09:24
,wl-rdm,191,442965,0.0-8.73-0.73,1.0,191.0,,,,,,,[],,,,,,73.6,1.0,i,1.0,True,588.8000000119209,35.0,60.0,40.0,False,,233.95189508304645,[],"[768, 432]",ColorTask,99.0,74.0,,,HRV,HRV_0094,2022-11-30 18:09:24
,wl-rdm,192,444882,0.0-8.74-0.74,1.0,192.0,,,,,,,[],,,,,,53.2,0.0,i,1.0,False,604.3000000119209,36.0,60.0,40.0,False,,245.49874691791834,[],"[768, 432]",ColorTask,98.0,75.0,,,HRV,HRV_0094,2022-11-30 18:09:24
,wl-rdm,193,446850,0.0-8.75-0.75,1.0,193.0,,,,,,,[],,,,,,56.4,1.0,i,1.0,True,492.2999999523163,30.0,60.0,40.0,False,,232.28187906007065,[],"[768, 432]",ColorTask,99.0,76.0,,,HRV,HRV_0094,2022-11-30 18:09:24
,wl-rdm,194,448672,0.0-8.76-0.76,1.0,194.0,,,,,,,[],,,,,,73.6,1.0,i,1.0,True,550.4000000357628,27.0,60.0,40.0,False,,205.73465502358263,[],"[768, 432]",ColorTask,100.0,77.0,,,HRV,HRV_0094,2022-11-30 18:09:24
,wl-rdm,195,450721,0.0-8.77-0.77,1.0,195.0,,,,,,,[],,,,,,50.0,1.0,u,0.0,False,663.8000000715256,38.0,60.0,40.0,False,,213.68542212614267,[],"[768, 432]",ColorTask,99.0,78.0,,,HRV,HRV_0094,2022-11-30 18:09:24
,wl-rdm,196,452885,0.0-8.78-0.78,1.0,196.0,,,,,,,[],,,,,,53.2,0.0,u,0.0,True,727.9000000357628,44.0,60.0,40.0,False,,237.3846885397857,[],"[768, 432]",ColorTask,100.0,79.0,,,HRV,HRV_0094,2022-11-30 18:09:24
,wl-rdm,197,455086,0.0-8.79-0.79,1.0,197.0,,,,,,,[],,,,,,53.2,0.0,u,0.0,True,847.0999999642372,39.0,60.0,40.0,False,,268.0544435959446,[],"[768, 432]",ColorTask,101.0,80.0,,,HRV,HRV_0094,2022-11-30 18:09:24
,wl-rdm,198,456970,0.0-8.80-0.80,1.0,198.0,,,,,,,[],,,,,,87.9,1.0,i,1.0,True,589.0,33.0,60.0,40.0,False,,210.69752940217313,[],"[768, 432]",ColorTask,102.0,81.0,,,HRV,HRV_0094,2022-11-30 18:09:24
,wl-rdm,199,458871,0.0-8.81-0.81,1.0,199.0,,,,,,,[],,,,,,62.5,1.0,i,1.0,True,556.7999999523163,35.0,60.0,40.0,False,,245.16291907059644,[],"[768, 432]",ColorTask,103.0,82.0,,,HRV,HRV_0094,2022-11-30 18:09:24
,wl-rdm,200,460924,0.0-8.82-0.82,1.0,200.0,,,,,,,[],,,,,,87.9,0.0,u,0.0,True,622.6999999284744,38.0,60.0,40.0,False,,333.7631245122896,[],"[768, 432]",ColorTask,104.0,83.0,,,HRV,HRV_0094,2022-11-30 18:09:24
,wl-rdm,201,462856,0.0-8.83-0.83,1.0,201.0,,,,,,,[],,,,,,62.5,0.0,i,1.0,False,606.0,37.0,60.0,40.0,False,,210.61204670666982,[],"[768, 432]",ColorTask,103.0,84.0,,,HRV,HRV_0094,2022-11-30 18:09:24
,wl-rdm,202,464857,0.0-8.84-0.84,1.0,202.0,,,,,,,[],,,,,,73.6,1.0,i,1.0,True,696.4999999403954,31.0,60.0,40.0,False,,242.1398378584438,[],"[768, 432]",ColorTask,104.0,85.0,,,HRV,HRV_0094,2022-11-30 18:09:24
,wl-rdm,203,466924,0.0-8.85-0.85,1.0,203.0,,,,,,,[],,,,,,56.4,0.0,u,0.0,True,606.3999999761581,29.0,60.0,40.0,False,,327.70850252558967,[],"[768, 432]",ColorTask,105.0,86.0,,,HRV,HRV_0094,2022-11-30 18:09:24
,wl-rdm,204,469148,0.0-8.86-0.86,1.0,204.0,,,,,,,[],,,,,,62.5,0.0,u,0.0,True,782.6000000238419,26.0,60.0,40.0,False,,349.2975581090738,[],"[768, 432]",ColorTask,106.0,87.0,,,HRV,HRV_0094,2022-11-30 18:09:24
,wl-rdm,205,471242,0.0-8.87-0.87,1.0,205.0,,,,,,,[],,,,,,73.6,1.0,i,1.0,True,624.7000000476837,20.0,60.0,40.0,False,,260.93538601470726,[],"[768, 432]",ColorTask,107.0,88.0,,,HRV,HRV_0094,2022-11-30 18:09:24
,wl-rdm,206,473660,0.0-8.88-0.88,1.0,206.0,,,,,,,[],,,,,,56.4,1.0,i,1.0,True,971.0,47.0,60.0,40.0,False,,252.04905740576126,[],"[768, 432]",ColorTask,108.0,89.0,,,HRV,HRV_0094,2022-11-30 18:09:24
,wl-rdm,207,475594,0.0-8.89-0.89,1.0,207.0,,,,,,,[],,,,,,56.4,0.0,u,0.0,True,627.0,34.0,60.0,40.0,False,,207.97328865763373,[],"[768, 432]",ColorTask,109.0,90.0,,,HRV,HRV_0094,2022-11-30 18:09:24
,wl-rdm,208,477466,0.0-8.90-0.90,1.0,208.0,,,,,,,[],,,,,,56.4,1.0,i,1.0,True,563.0000000596046,29.0,60.0,40.0,False,,239.10545814115773,[],"[768, 432]",ColorTask,110.0,91.0,,,HRV,HRV_0094,2022-11-30 18:09:24
,wl-rdm,209,479656,0.0-8.91-0.91,1.0,209.0,,,,,,,[],,,,,,87.9,1.0,i,1.0,True,468.4000000357628,27.0,60.0,40.0,False,,323.72905438337784,[],"[768, 432]",ColorTask,111.0,92.0,,,HRV,HRV_0094,2022-11-30 18:09:24
,wl-rdm,210,481764,0.0-8.92-0.92,1.0,210.0,,,,,,,[],,,,,,73.6,0.0,u,0.0,True,654.3000000119209,22.0,60.0,40.0,False,,354.9637875782696,[],"[768, 432]",ColorTask,112.0,93.0,,,HRV,HRV_0094,2022-11-30 18:09:24
,wl-rdm,211,483830,0.0-8.93-0.93,1.0,211.0,,,,,,,[],,,,,,62.5,1.0,i,1.0,True,603.5,29.0,60.0,40.0,False,,256.6125314026864,[],"[768, 432]",ColorTask,113.0,94.0,,,HRV,HRV_0094,2022-11-30 18:09:24
,wl-rdm,212,485714,0.0-8.94-0.94,1.0,212.0,,,,,,,[],,,,,,56.4,1.0,i,1.0,True,612.6999999284744,36.0,60.0,40.0,False,,207.2871507486168,[],"[768, 432]",ColorTask,114.0,95.0,,,HRV,HRV_0094,2022-11-30 18:09:24
,wl-rdm,213,487815,0.0-8.95-0.95,1.0,213.0,,,,,,,[],,,,,,73.6,1.0,i,1.0,True,702.1999999880791,39.0,60.0,40.0,False,,326.36478375224533,[],"[768, 432]",ColorTask,115.0,96.0,,,HRV,HRV_0094,2022-11-30 18:09:24
,wl-rdm,214,489749,0.0-8.96-0.96,1.0,214.0,,,,,,,[],,,,,,62.5,1.0,i,1.0,True,508.5999999642372,31.0,60.0,40.0,False,,360.9142202142435,[],"[768, 432]",ColorTask,116.0,97.0,,,HRV,HRV_0094,2022-11-30 18:09:24
,wl-rdm,215,491767,0.0-8.97-0.97,1.0,215.0,,,,,,,[],,,,,,56.4,1.0,i,1.0,True,593.5,36.0,60.0,40.0,False,,349.36880267259113,[],"[768, 432]",ColorTask,117.0,98.0,,,HRV,HRV_0094,2022-11-30 18:09:24
,wl-rdm,216,493601,0.0-8.98-0.98,1.0,216.0,,,,,,,[],,,,,,87.9,1.0,i,1.0,True,433.89999997615814,25.0,60.0,40.0,False,,320.969425925437,[],"[768, 432]",ColorTask,118.0,99.0,,,HRV,HRV_0094,2022-11-30 18:09:24
,wl-rdm,217,495551,0.0-8.99-0.99,1.0,217.0,,,,,,,[],,,,,,53.2,1.0,u,0.0,False,667.6000000238419,38.0,60.0,40.0,False,,206.11081191295665,[],"[768, 432]",ColorTask,117.0,100.0,,,HRV,HRV_0094,2022-11-30 18:09:24
,wl-rdm,218,497436,0.0-8.100-0.100,1.0,218.0,,,,,,,[],,,,,,87.9,1.0,i,1.0,True,511.89999997615814,31.0,60.0,40.0,False,,308.31129813971665,[],"[768, 432]",ColorTask,118.0,101.0,,,HRV,HRV_0094,2022-11-30 18:09:24
,wl-rdm,219,499436,0.0-8.101-0.101,1.0,219.0,,,,,,,[],,,,,,53.2,1.0,u,0.0,False,697.0,42.0,60.0,40.0,False,,244.36192066553178,[],"[768, 432]",ColorTask,117.0,102.0,,,HRV,HRV_0094,2022-11-30 18:09:24
,wl-rdm,220,501336,0.0-8.102-0.102,1.0,220.0,,,,,,,[],,,,,,56.4,1.0,i,1.0,True,579.0,34.0,60.0,40.0,False,,238.64078408457803,[],"[768, 432]",ColorTask,118.0,103.0,,,HRV,HRV_0094,2022-11-30 18:09:24
,wl-rdm,221,503303,0.0-8.103-0.103,1.0,221.0,,,,,,,[],,,,,,56.4,1.0,i,1.0,True,646.1999999880791,38.0,60.0,40.0,False,,246.36878036582064,[],"[768, 432]",ColorTask,119.0,104.0,,,HRV,HRV_0094,2022-11-30 18:09:24
,wl-rdm,222,505287,0.0-8.104-0.104,1.0,222.0,,,,,,,[],,,,,,53.2,0.0,u,0.0,True,611.6000000238419,31.0,60.0,40.0,False,,303.9301432963947,[],"[768, 432]",ColorTask,120.0,105.0,,,HRV,HRV_0094,2022-11-30 18:09:24
,wl-rdm,223,507171,0.0-8.105-0.105,1.0,223.0,,,,,,,[],,,,,,87.9,0.0,u,0.0,True,572.0,34.0,60.0,40.0,False,,223.43505820596323,[],"[768, 432]",ColorTask,121.0,106.0,,,HRV,HRV_0094,2022-11-30 18:09:24
,wl-rdm,224,508989,0.0-8.106-0.106,1.0,224.0,,,,,,,[],,,,,,87.9,0.0,u,0.0,True,505.9000000357628,31.0,60.0,40.0,False,,240.04759121010252,[],"[768, 432]",ColorTask,122.0,107.0,,,HRV,HRV_0094,2022-11-30 18:09:24
,wl-rdm,225,510893,0.0-8.107-0.107,1.0,225.0,,,,,,,[],,,,,,56.4,0.0,u,0.0,True,507.89999997615814,31.0,60.0,40.0,False,,315.02780656287325,[],"[768, 432]",ColorTask,123.0,108.0,,,HRV,HRV_0094,2022-11-30 18:09:24
,wl-html-button-response,226,512920,0.0-9.0-0.0,,,,,,,,,,2022.3999999761581,,0,,,,,,,,,,,,,,,,,,,,<h3>End of this session. Thank you!</h3><br>,['Close window'],HRV,HRV_0094,2022-11-30 18:09:24
