success,trial_type,trial_index,time_elapsed,internal_node_id,missTrial,missTrialMsg,Block,TrialNumber,TrialTime,trialTimeDiff,FPS_avg,FPS_med,FPS_mode,TrialDur,winResizeTime,rt,block,button_pressed,MotCoh,MotDir,ColCoh,Color,ChoiceKey,Choice,Accuracy,RT,nFrames,FPS,PPD,onsetDelay,fullScreenExitTime,canvCenter,TrialType,Score,BlockTrial,stimulus,button_labels,exp,subjectId,date
True,fullscreen,0,7786,0.0-0.0,True,undefinedblurEvent ,0.0,0.0,,,,,,,,,,,,,,,,,,,,,,,,,,,,,,HRV,HRV_0205,2022-11-30 19:03:24
,wl-check-fps,1,12780,0.0-1.0,,,0.0,1.0,"[8091.7, 8097.1, 8114.2, 8131, 8148.5, 8163.9, 8181.4, 8198.1, 8215.7, 8231.4, 8247.7, 8263.6, 8281.1, 8297.3, 8315.2, 8334.4, 8347.6, 8364.3, 8380.8, 8398.3, 8414.8, 8431.1, 8447.7, 8463.4, 8481.3, 8497, 8514.7, 8530.9, 8547.1, 8563.9, 8580.5, 8598.2, 8613.6, 8630.5, 8647.9, 8663.3, 8681, 8697.6, 8715, 8731, 8748.4, 8765.1, 8781.4, 8797.8, 8814.5, 8831, 8847.6, 8865.2, 8880.1, 8897.6, 8915.1, 8931.7, 8947.5, 8964.6, 8981.1, 8997.8, 9013.7, 9030.9, 9048.5, 9064.8, 9081.4, 9097.3, 9114.4, 9131.2, 9147.2, 9164.6, 9181, 9197.7, 9215.2, 9231.9, 9247.7, 9265.2, 9280.7, 9298.2, 9315.4, 9331.6, 9348.5, 9364, 9381.5, 9397.8, 9414.2, 9431.6, 9448.1, 9464.7, 9481.4, 9497.9, 9514.6, 9530.3, 9547.7, 9563.8, 9581.9, 9597.8, 9614.2, 9631.9, 9648.5, 9664.7, 9681.1, 9697.7, 9714.9, 9731.8, 9748.3, 9764.9, 9781.5, 9797.3, 9814.8, 9831, 9847.7, 9864.4, 9881, 9897.6, 9915.2, 9930.7, 9948.2, 9964.8, 9981.4, 9998.2, 10015, 10031.6, 10048.2, 10064.4, 10081, 10097.8, 10114.5, 10131, 10147.7, 10164.4, 10181.9, 10198, 10214.6, 10231.3, 10248, 10263.5, 10280.3, 10296.7, 10323.1, 10331.4, 10347.1, 10364.5, 10381, 10397.6, 10414.3, 10430.1, 10447.4, 10464.4, 10481, 10497.6, 10514.3, 10531.9, 10548.4, 10565, 10602.9, 10603.4, 10615, 10631.7, 10647.9, 10663.9, 10681.2, 10698.4, 10714.5, 10731.7, 10747.9, 10764.2, 10781.2, 10798.3, 10814.5, 10830.6, 10847.9, 10865.2, 10881.5, 10897.7, 10914.7, 10930.9, 10947.5, 10964.3, 10980.7, 10998, 11015.2, 11031.7, 11047.9, 11065, 11080.2, 11097.6, 11115, 11131.3, 11148.4, 11164.5, 11181.6, 11196.7, 11213.7, 11231.1, 11248.1, 11264.4, 11281.7, 11297.7, 11314.2, 11331, 11347.7, 11364.8, 11381.3, 11397.3, 11414.2, 11430.9, 11448.1, 11464.1, 11481, 11497.5, 11514.2, 11531.3, 11547.9, 11564.6, 11581.5, 11597.6, 11614.4, 11631.1, 11647.9, 11664.3, 11681.6, 11698, 11714.4, 11731.1, 11748, 11763.7, 11780.8, 11797.6, 11814.3, 11830.8, 11847.5, 11864.3, 11881.3, 11898.2, 11914.1, 11931.8, 11948.2, 11965.4, 11980.1, 11997.7, 12015, 12031, 12047.6, 12064.4, 12081.1, 12098.1, 12113.6, 12131.2, 12147.8, 12164.6, 12181.1, 12197.6, 12214.3, 12231.2, 12247.4, 12264.4, 12281.7, 12298, 12314.3, 12330, 12347.4, 12364.2, 12380.8, 12397.3, 12413.8, 12431.1, 12448, 12463.6, 12480.9, 12497.5, 12514.5, 12530.9, 12547.6, 12564.5, 12581.4, 12597.6, 12614.8, 12630.3, 12648, 12664.6, 12681.7, 12698.1, 12714.4, 12731.2, 12747.7, 12764, 12781.3, 12797.6, 12814.8, 12830.8, 12847.8, 12864.6, 12881.1, 12897.5, 12914.7, 12930.9, 12947.6, 12964.4, 12980.8, 12997.6, 13013.3, 13031, 13047.6, 13064.4]","[1.7, 5.4, 17.1, 16.8, 17.5, 15.4, 17.5, 16.7, 17.6, 15.7, 16.3, 15.9, 17.5, 16.2, 17.9, 19.2, 13.2, 16.7, 16.5, 17.5, 16.5, 16.3, 16.6, 15.7, 17.9, 15.7, 17.7, 16.2, 16.2, 16.8, 16.6, 17.7, 15.4, 16.9, 17.4, 15.4, 17.7, 16.6, 17.4, 16, 17.4, 16.7, 16.3, 16.4, 16.7, 16.5, 16.6, 17.6, 14.9, 17.5, 17.5, 16.6, 15.8, 17.1, 16.5, 16.7, 15.9, 17.2, 17.6, 16.3, 16.6, 15.9, 17.1, 16.8, 16, 17.4, 16.4, 16.7, 17.5, 16.7, 15.8, 17.5, 15.5, 17.5, 17.2, 16.2, 16.9, 15.5, 17.5, 16.3, 16.4, 17.4, 16.5, 16.6, 16.7, 16.5, 16.7, 15.7, 17.4, 16.1, 18.1, 15.9, 16.4, 17.7, 16.6, 16.2, 16.4, 16.6, 17.2, 16.9, 16.5, 16.6, 16.6, 15.8, 17.5, 16.2, 16.7, 16.7, 16.6, 16.6, 17.6, 15.5, 17.5, 16.6, 16.6, 16.8, 16.8, 16.6, 16.6, 16.2, 16.6, 16.8, 16.7, 16.5, 16.7, 16.7, 17.5, 16.1, 16.6, 16.7, 16.7, 15.5, 16.8, 16.4, 26.4, 8.3, 15.7, 17.4, 16.5, 16.6, 16.7, 15.8, 17.3, 17, 16.6, 16.6, 16.7, 17.6, 16.5, 16.6, 37.9, 0.5, 11.6, 16.7, 16.2, 16, 17.3, 17.2, 16.1, 17.2, 16.2, 16.3, 17, 17.1, 16.2, 16.1, 17.3, 17.3, 16.3, 16.2, 17, 16.2, 16.6, 16.8, 16.4, 17.3, 17.2, 16.5, 16.2, 17.1, 15.2, 17.4, 17.4, 16.3, 17.1, 16.1, 17.1, 15.1, 17, 17.4, 17, 16.3, 17.3, 16, 16.5, 16.8, 16.7, 17.1, 16.5, 16, 16.9, 16.7, 17.2, 16, 16.9, 16.5, 16.7, 17.1, 16.6, 16.7, 16.9, 16.1, 16.8, 16.7, 16.8, 16.4, 17.3, 16.4, 16.4, 16.7, 16.9, 15.7, 17.1, 16.8, 16.7, 16.5, 16.7, 16.8, 17, 16.9, 15.9, 17.7, 16.4, 17.2, 14.7, 17.6, 17.3, 16, 16.6, 16.8, 16.7, 17, 15.5, 17.6, 16.6, 16.8, 16.5, 16.5, 16.7, 16.9, 16.2, 17, 17.3, 16.3, 16.3, 15.7, 17.4, 16.8, 16.6, 16.5, 16.5, 17.3, 16.9, 15.6, 17.3, 16.6, 17, 16.4, 16.7, 16.9, 16.9, 16.2, 17.2, 15.5, 17.7, 16.6, 17.1, 16.4, 16.3, 16.8, 16.5, 16.3, 17.3, 16.3, 17.2, 16, 17, 16.8, 16.5, 16.4, 17.2, 16.2, 16.7, 16.8, 16.4, 16.8, 15.7, 17.7, 16.6, 16.8]",60.0,37.0,60.0,4991.4,[],,,,,,,,,,,,,,,,,,,,,,,HRV,HRV_0205,2022-11-30 19:03:24
,wl-html-keyboard-response,2,26368,0.0-2.0-0.0,,,0.0,2.0,,,,,,,,11579.79999923706,0.0,0,,,,,,,,,,,,,,,,,,,,HRV,HRV_0205,2022-11-30 19:03:24
,wl-rdm,3,32913,0.0-3.0-0.0,False,,0.0,3.0,,,,,,,[],,,,0.0,0.0,87.9,0.0,u,0.0,True,994.6000003814697,60.0,60.0,40.0,3000.0,[],"[720, 450]",ColorTask_Demo,,,,,HRV,HRV_0205,2022-11-30 19:03:24
,wl-rdm,4,37813,0.0-3.0-1.0,False,,0.0,4.0,,,,,,,[],,,,0.0,0.0,87.9,1.0,i,1.0,True,830.6999988555908,50.0,60.0,40.0,2000.0,[],"[720, 450]",ColorTask_Demo,,,,,HRV,HRV_0205,2022-11-30 19:03:24
,wl-html-keyboard-response,5,42482,0.0-3.0-2.0,,,0.0,5.0,,,,,,,,2665.0,0.0,1,,,,,,,,,,,,,,,,,,,,HRV,HRV_0205,2022-11-30 19:03:24
,wl-html-keyboard-response,6,49620,0.0-4.0-0.0,,,0.0,6.0,,,,,,,,5136.0,0.0,0,,,,,,,,,,,,,,,,,,,,HRV,HRV_0205,2022-11-30 19:03:24
,wl-html-keyboard-response,7,60469,0.0-5.0-0.0,,,0.0,7.0,,,,,,,,8842.69999885559,0.0,0,,,,,,,,,,,,,,,,,,,,HRV,HRV_0205,2022-11-30 19:03:24
,wl-rdm,8,62580,0.0-6.0-0.0,False,,0.0,8.0,,,,,,,[],,,,,,53.2,0.0,u,0.0,True,740.1000003814697,45.0,60.0,40.0,308.4615954461073,[],"[720, 450]",ColorTask,1.0,1.0,,,HRV,HRV_0205,2022-11-30 19:03:24
,wl-rdm,9,64613,0.0-6.1-0.1,False,,0.0,9.0,,,,,,,[],,,,,,87.9,0.0,u,0.0,True,664.0999984741211,40.0,60.0,40.0,302.12592577807095,[],"[720, 450]",ColorTask,2.0,2.0,,,HRV,HRV_0205,2022-11-30 19:03:24
,wl-rdm,10,67096,0.0-6.2-0.2,False,,0.0,10.0,,,,,,,[],,,,,,56.4,1.0,u,0.0,False,1024.5,62.0,60.0,40.0,381.13194556471626,[],"[720, 450]",ColorTask,1.0,3.0,,,HRV,HRV_0205,2022-11-30 19:03:24
,wl-rdm,11,69130,0.0-6.3-0.3,False,,0.0,11.0,,,,,,,[],,,,,,62.5,1.0,i,1.0,True,566.2999992370605,35.0,60.0,40.0,369.3132229942199,[],"[720, 450]",ColorTask,2.0,4.0,,,HRV,HRV_0205,2022-11-30 19:03:24
,wl-rdm,12,71030,0.0-6.4-0.4,False,,0.0,12.0,,,,,,,[],,,,,,87.9,1.0,i,1.0,True,631.2000007629395,38.0,60.0,40.0,212.72229411290084,[],"[720, 450]",ColorTask,3.0,5.0,,,HRV,HRV_0205,2022-11-30 19:03:24
,wl-rdm,13,72957,0.0-6.5-0.5,False,,0.0,13.0,,,,,,,[],,,,,,87.9,1.0,i,1.0,True,571.3000011444092,35.0,60.0,40.0,282.6240207611813,[],"[720, 450]",ColorTask,4.0,6.0,,,HRV,HRV_0205,2022-11-30 19:03:24
,wl-rdm,14,75357,0.0-6.6-0.6,False,,0.0,14.0,,,,,,,[],,,,,,53.2,0.0,i,1.0,False,974.3999996185303,59.0,60.0,40.0,359.1521471249532,[],"[720, 450]",ColorTask,3.0,7.0,,,HRV,HRV_0205,2022-11-30 19:03:24
,wl-rdm,15,77258,0.0-6.7-0.7,False,,0.0,15.0,,,,,,,[],,,,,,62.5,0.0,u,0.0,True,602.8000011444092,37.0,60.0,40.0,215.68215200512205,[],"[720, 450]",ColorTask,4.0,8.0,,,HRV,HRV_0205,2022-11-30 19:03:24
,wl-rdm,16,79175,0.0-6.8-0.8,False,,0.0,16.0,,,,,,,[],,,,,,53.2,1.0,i,1.0,True,571.1000003814697,35.0,60.0,40.0,252.11264441699842,[],"[720, 450]",ColorTask,5.0,9.0,,,HRV,HRV_0205,2022-11-30 19:03:24
,wl-rdm,17,81391,0.0-6.9-0.9,False,,0.0,17.0,,,,,,,[],,,,,,50.0,0.0,u,0.0,True,787.2000007629395,48.0,60.0,40.0,355.1993408686229,[],"[720, 450]",ColorTask,6.0,10.0,,,HRV,HRV_0205,2022-11-30 19:03:24
,wl-rdm,18,83707,0.0-6.10-0.10,False,,0.0,18.0,,,,,,,[],,,,,,56.4,0.0,i,1.0,False,864.7999992370605,52.0,60.0,40.0,393.1788261264951,[],"[720, 450]",ColorTask,5.0,11.0,,,HRV,HRV_0205,2022-11-30 19:03:24
,wl-rdm,19,85708,0.0-6.11-0.11,False,,0.0,19.0,,,,,,,[],,,,,,62.5,1.0,i,1.0,True,677.2999992370605,41.0,60.0,40.0,258.8367037200405,[],"[720, 450]",ColorTask,6.0,12.0,,,HRV,HRV_0205,2022-11-30 19:03:24
,wl-rdm,20,87673,0.0-6.12-0.12,False,,0.0,20.0,,,,,,,[],,,,,,87.9,0.0,u,0.0,True,570.0999984741211,35.0,60.0,40.0,325.0771779465159,[],"[720, 450]",ColorTask,7.0,13.0,,,HRV,HRV_0205,2022-11-30 19:03:24
,wl-rdm,21,89857,0.0-6.13-0.13,False,,0.0,21.0,,,,,,,[],,,,,,50.0,1.0,u,0.0,False,905.6000003814697,55.0,60.0,40.0,210.94872592243192,[],"[720, 450]",ColorTask,6.0,14.0,,,HRV,HRV_0205,2022-11-30 19:03:24
,wl-rdm,22,92191,0.0-6.14-0.14,False,,0.0,22.0,,,,,,,[],,,,,,73.6,1.0,i,1.0,True,935.4000015258789,57.0,60.0,40.0,315.28485902401144,[],"[720, 450]",ColorTask,7.0,15.0,,,HRV,HRV_0205,2022-11-30 19:03:24
,wl-rdm,23,94240,0.0-6.15-0.15,False,,0.0,23.0,,,,,,,[],,,,,,87.9,1.0,i,1.0,True,669.8999996185303,41.0,60.0,40.0,290.0985757630745,[],"[720, 450]",ColorTask,8.0,16.0,,,HRV,HRV_0205,2022-11-30 19:03:24
,wl-rdm,24,96207,0.0-6.16-0.16,False,,0.0,24.0,,,,,,,[],,,,,,73.6,0.0,u,0.0,True,657.7000007629395,40.0,60.0,40.0,218.14370753430856,[],"[720, 450]",ColorTask,9.0,17.0,,,HRV,HRV_0205,2022-11-30 19:03:24
,wl-rdm,25,98325,0.0-6.17-0.17,False,,0.0,25.0,,,,,,,[],,,,,,62.5,1.0,i,1.0,True,806.6000003814697,49.0,60.0,40.0,224.5787638195966,[],"[720, 450]",ColorTask,10.0,18.0,,,HRV,HRV_0205,2022-11-30 19:03:24
,wl-rdm,26,100458,0.0-6.18-0.18,False,,0.0,26.0,,,,,,,[],,,,,,62.5,1.0,i,1.0,True,774.5999984741211,47.0,60.0,40.0,274.0996587147131,[],"[720, 450]",ColorTask,11.0,19.0,,,HRV,HRV_0205,2022-11-30 19:03:24
,wl-rdm,27,102640,0.0-6.19-0.19,False,,0.0,27.0,,,,,,,[],,,,,,62.5,0.0,u,0.0,True,869.8999996185303,53.0,60.0,40.0,232.1867633587123,[],"[720, 450]",ColorTask,12.0,20.0,,,HRV,HRV_0205,2022-11-30 19:03:24
,wl-rdm,28,104708,0.0-6.20-0.20,False,,0.0,28.0,,,,,,,[],,,,,,73.6,1.0,i,1.0,True,739.3999996185303,45.0,60.0,40.0,253.2194663438531,[],"[720, 450]",ColorTask,13.0,21.0,,,HRV,HRV_0205,2022-11-30 19:03:24
,wl-rdm,29,106807,0.0-6.21-0.21,False,,0.0,29.0,,,,,,,[],,,,,,73.6,1.0,i,1.0,True,671.2000007629395,41.0,60.0,40.0,364.54955378586953,[],"[720, 450]",ColorTask,14.0,22.0,,,HRV,HRV_0205,2022-11-30 19:03:24
,wl-rdm,30,108990,0.0-6.22-0.22,False,,0.0,30.0,,,,,,,[],,,,,,73.6,1.0,i,1.0,True,791.7999992370605,48.0,60.0,40.0,300.75315116634783,[],"[720, 450]",ColorTask,15.0,23.0,,,HRV,HRV_0205,2022-11-30 19:03:24
,wl-rdm,31,110906,0.0-6.23-0.23,False,,0.0,31.0,,,,,,,[],,,,,,73.6,1.0,i,1.0,True,608.4000015258789,37.0,60.0,40.0,234.58265076810954,[],"[720, 450]",ColorTask,16.0,24.0,,,HRV,HRV_0205,2022-11-30 19:03:24
,wl-rdm,32,113108,0.0-6.24-0.24,False,,0.0,32.0,,,,,,,[],,,,,,62.5,1.0,i,1.0,True,750.5,46.0,60.0,40.0,361.10009397256215,[],"[720, 450]",ColorTask,17.0,25.0,,,HRV,HRV_0205,2022-11-30 19:03:24
,wl-rdm,33,115375,0.0-6.25-0.25,False,,0.0,33.0,,,,,,,[],,,,,,53.2,1.0,u,0.0,False,919.8000011444092,56.0,60.0,40.0,254.8273144726774,[],"[720, 450]",ColorTask,16.0,26.0,,,HRV,HRV_0205,2022-11-30 19:03:24
,wl-rdm,34,117391,0.0-6.26-0.26,False,,0.0,34.0,,,,,,,[],,,,,,56.4,1.0,i,1.0,True,600.7000007629395,37.0,60.0,40.0,336.9315103545727,[],"[720, 450]",ColorTask,17.0,27.0,,,HRV,HRV_0205,2022-11-30 19:03:24
,wl-rdm,35,119740,0.0-6.27-0.27,False,,0.0,35.0,,,,,,,[],,,,,,53.2,0.0,u,0.0,True,1030.7999992370605,62.0,60.0,40.0,258.71264270595765,[],"[720, 450]",ColorTask,18.0,28.0,,,HRV,HRV_0205,2022-11-30 19:03:24
,wl-rdm,36,122108,0.0-6.28-0.28,False,,0.0,36.0,,,,,,,[],,,,,,56.4,0.0,i,1.0,False,978.7999992370605,59.0,60.0,40.0,309.76742549824945,[],"[720, 450]",ColorTask,17.0,29.0,,,HRV,HRV_0205,2022-11-30 19:03:24
,wl-rdm,37,124124,0.0-6.29-0.29,False,,0.0,37.0,,,,,,,[],,,,,,56.4,1.0,i,1.0,True,728.8999996185303,44.0,60.0,40.0,213.89846936825984,[],"[720, 450]",ColorTask,18.0,30.0,,,HRV,HRV_0205,2022-11-30 19:03:24
,wl-rdm,38,126308,0.0-6.30-0.30,False,,0.0,38.0,,,,,,,[],,,,,,50.0,1.0,i,1.0,True,730.0,44.0,60.0,40.0,390.2156003909723,[],"[720, 450]",ColorTask,19.0,31.0,,,HRV,HRV_0205,2022-11-30 19:03:24
,wl-rdm,39,128507,0.0-6.31-0.31,False,,0.0,39.0,,,,,,,[],,,,,,50.0,0.0,i,1.0,False,900.6000003814697,55.0,60.0,40.0,203.97526065637953,[],"[720, 450]",ColorTask,18.0,32.0,,,HRV,HRV_0205,2022-11-30 19:03:24
,wl-rdm,40,130703,0.0-6.32-0.32,False,,0.0,40.0,,,,,,,[],,,,,,56.4,1.0,i,1.0,True,786.1000003814697,48.0,60.0,40.0,316.4732814171955,[],"[720, 450]",ColorTask,19.0,33.0,,,HRV,HRV_0205,2022-11-30 19:03:24
,wl-rdm,41,132742,0.0-6.33-0.33,False,,0.0,41.0,,,,,,,[],,,,,,53.2,1.0,u,0.0,False,722.3999996185303,44.0,60.0,40.0,253.63885255851181,[],"[720, 450]",ColorTask,18.0,34.0,,,HRV,HRV_0205,2022-11-30 19:03:24
,wl-rdm,42,134941,0.0-6.34-0.34,False,,0.0,42.0,,,,,,,[],,,,,,62.5,0.0,u,0.0,True,838.0,51.0,60.0,40.0,297.79480735959197,[],"[720, 450]",ColorTask,19.0,35.0,,,HRV,HRV_0205,2022-11-30 19:03:24
,wl-rdm,43,137106,0.0-6.35-0.35,False,,0.0,43.0,,,,,,,[],,,,,,53.2,1.0,i,1.0,True,778.0,47.0,60.0,40.0,300.08320257200364,[],"[720, 450]",ColorTask,20.0,36.0,,,HRV,HRV_0205,2022-11-30 19:03:24
,wl-rdm,44,139225,0.0-6.36-0.36,False,,0.0,44.0,,,,,,,[],,,,,,62.5,0.0,u,0.0,True,832.0999984741211,50.0,60.0,40.0,220.3713927069919,[],"[720, 450]",ColorTask,21.0,37.0,,,HRV,HRV_0205,2022-11-30 19:03:24
,wl-rdm,45,141173,0.0-6.37-0.37,False,,0.0,45.0,,,,,,,[],,,,,,87.9,0.0,u,0.0,True,658.2999973297119,40.0,60.0,40.0,220.9922911155962,[],"[720, 450]",ColorTask,22.0,38.0,,,HRV,HRV_0205,2022-11-30 19:03:24
,wl-rdm,46,143273,0.0-6.38-0.38,False,,0.0,46.0,,,,,,,[],,,,,,87.9,1.0,i,1.0,True,715.3000011444092,43.0,60.0,40.0,325.79077290881276,[],"[720, 450]",ColorTask,23.0,39.0,,,HRV,HRV_0205,2022-11-30 19:03:24
,wl-rdm,47,145541,0.0-6.39-0.39,False,,0.0,47.0,,,,,,,[],,,,,,53.2,0.0,i,1.0,False,907.0,55.0,60.0,40.0,270.1300756075037,[],"[720, 450]",ColorTask,22.0,40.0,,,HRV,HRV_0205,2022-11-30 19:03:24
,wl-rdm,48,147906,0.0-6.40-0.40,False,,0.0,48.0,,,,,,,[],,,,,,56.4,1.0,i,1.0,True,1065.6000003814697,64.0,60.0,40.0,222.7738583127948,[],"[720, 450]",ColorTask,23.0,41.0,,,HRV,HRV_0205,2022-11-30 19:03:24
,wl-rdm,49,150108,0.0-6.41-0.41,False,,0.0,49.0,,,,,,,[],,,,,,53.2,0.0,u,0.0,True,825.5999984741211,50.0,60.0,40.0,289.2532405913981,[],"[720, 450]",ColorTask,24.0,42.0,,,HRV,HRV_0205,2022-11-30 19:03:24
,wl-rdm,50,152341,0.0-6.42-0.42,False,,0.0,50.0,,,,,,,[],,,,,,87.9,0.0,u,0.0,True,771.6999988555908,47.0,60.0,40.0,399.6321064642119,[],"[720, 450]",ColorTask,25.0,43.0,,,HRV,HRV_0205,2022-11-30 19:03:24
,wl-rdm,51,154558,0.0-6.43-0.43,False,,0.0,51.0,,,,,,,[],,,,,,73.6,0.0,u,0.0,True,736.1000003814697,45.0,60.0,40.0,384.426058155125,[],"[720, 450]",ColorTask,26.0,44.0,,,HRV,HRV_0205,2022-11-30 19:03:24
,wl-rdm,52,156692,0.0-6.44-0.44,False,,0.0,52.0,,,,,,,[],,,,,,73.6,0.0,u,0.0,True,778.5,47.0,60.0,40.0,299.77293558707186,[],"[720, 450]",ColorTask,27.0,45.0,,,HRV,HRV_0205,2022-11-30 19:03:24
,wl-rdm,53,159075,0.0-6.45-0.45,False,,0.0,53.0,,,,,,,[],,,,,,56.4,0.0,i,1.0,False,1028.1000003814697,62.0,60.0,40.0,293.69701185158635,[],"[720, 450]",ColorTask,26.0,46.0,,,HRV,HRV_0205,2022-11-30 19:03:24
,wl-rdm,54,161258,0.0-6.46-0.46,False,,0.0,54.0,,,,,,,[],,,,,,56.4,1.0,i,1.0,True,842.1999988555908,51.0,60.0,40.0,266.3885224362725,[],"[720, 450]",ColorTask,27.0,47.0,,,HRV,HRV_0205,2022-11-30 19:03:24
,wl-rdm,55,163625,0.0-6.47-0.47,False,,0.0,55.0,,,,,,,[],,,,,,62.5,0.0,u,0.0,True,928.8999996185303,56.0,60.0,40.0,351.44564004056986,[],"[720, 450]",ColorTask,28.0,48.0,,,HRV,HRV_0205,2022-11-30 19:03:24
,wl-rdm,56,166023,0.0-6.48-0.48,False,,0.0,56.0,,,,,,,[],,,,,,56.4,0.0,i,1.0,False,1102.8000011444092,67.0,60.0,40.0,212.78072128671386,[],"[720, 450]",ColorTask,27.0,49.0,,,HRV,HRV_0205,2022-11-30 19:03:24
,wl-rdm,57,168606,0.0-6.49-0.49,False,,0.0,57.0,,,,,,,[],,,,,,53.2,1.0,i,1.0,True,1160.0,70.0,60.0,40.0,362.66491189970714,[],"[720, 450]",ColorTask,28.0,50.0,,,HRV,HRV_0205,2022-11-30 19:03:24
,wl-rdm,58,170890,0.0-6.50-0.50,False,,0.0,58.0,,,,,,,[],,,,,,73.6,0.0,u,0.0,True,936.3999996185303,57.0,60.0,40.0,252.0291447140625,[],"[720, 450]",ColorTask,29.0,51.0,,,HRV,HRV_0205,2022-11-30 19:03:24
,wl-rdm,59,172975,0.0-6.51-0.51,False,,0.0,59.0,,,,,,,[],,,,,,87.9,0.0,u,0.0,True,778.5000019073486,47.0,60.0,40.0,241.59867886832862,[],"[720, 450]",ColorTask,30.0,52.0,,,HRV,HRV_0205,2022-11-30 19:03:24
,wl-rdm,60,175191,0.0-6.52-0.52,False,,0.0,60.0,,,,,,,[],,,,,,87.9,1.0,i,1.0,True,754.4000015258789,46.0,60.0,40.0,380.3871326169192,[],"[720, 450]",ColorTask,31.0,53.0,,,HRV,HRV_0205,2022-11-30 19:03:24
,wl-rdm,61,177806,0.0-6.53-0.53,False,,0.0,61.0,,,,,,,[],,,,,,50.0,0.0,u,0.0,True,1169.5,70.0,60.0,40.0,366.7427422255855,[],"[720, 450]",ColorTask,32.0,54.0,,,HRV,HRV_0205,2022-11-30 19:03:24
,wl-rdm,62,180574,0.0-6.54-0.54,False,,0.0,62.0,,,,,,,[],,,,,,50.0,0.0,u,0.0,True,1399.0,84.0,60.0,40.0,304.40209203184816,[],"[720, 450]",ColorTask,33.0,55.0,,,HRV,HRV_0205,2022-11-30 19:03:24
,wl-rdm,63,182791,0.0-6.55-0.55,False,,0.0,63.0,,,,,,,[],,,,,,73.6,0.0,u,0.0,True,909.1000003814697,55.0,60.0,40.0,220.0611359441151,[],"[720, 450]",ColorTask,34.0,56.0,,,HRV,HRV_0205,2022-11-30 19:03:24
,wl-rdm,64,185256,0.0-6.56-0.56,False,,0.0,64.0,,,,,,,[],,,,,,56.4,0.0,u,0.0,True,1116.799997329712,67.0,60.0,40.0,272.25551179994375,[],"[720, 450]",ColorTask,35.0,57.0,,,HRV,HRV_0205,2022-11-30 19:03:24
,wl-rdm,65,187456,0.0-6.57-0.57,False,,0.0,65.0,,,,,,,[],,,,,,73.6,0.0,u,0.0,True,887.3999996185303,54.0,60.0,40.0,217.334323438162,[],"[720, 450]",ColorTask,36.0,58.0,,,HRV,HRV_0205,2022-11-30 19:03:24
,wl-rdm,66,189924,0.0-6.58-0.58,False,,0.0,66.0,,,,,,,[],,,,,,62.5,1.0,i,1.0,True,1037.2000007629395,63.0,60.0,40.0,352.3074980756176,[],"[720, 450]",ColorTask,37.0,59.0,,,HRV,HRV_0205,2022-11-30 19:03:24
,wl-rdm,67,192308,0.0-6.59-0.59,False,,0.0,67.0,,,,,,,[],,,,,,62.5,1.0,i,1.0,True,1104.6000003814697,67.0,60.0,40.0,202.06426194321097,[],"[720, 450]",ColorTask,38.0,60.0,,,HRV,HRV_0205,2022-11-30 19:03:24
,wl-rdm,68,194508,0.0-6.60-0.60,False,,0.0,68.0,,,,,,,[],,,,,,87.9,1.0,i,1.0,True,787.5,48.0,60.0,40.0,331.0602779294959,[],"[720, 450]",ColorTask,39.0,61.0,,,HRV,HRV_0205,2022-11-30 19:03:24
,wl-rdm,69,196673,0.0-6.61-0.61,False,,0.0,69.0,,,,,,,[],,,,,,53.2,0.0,i,1.0,False,877.8000011444092,53.0,60.0,40.0,227.32206342520223,[],"[720, 450]",ColorTask,38.0,62.0,,,HRV,HRV_0205,2022-11-30 19:03:24
,wl-rdm,70,198906,0.0-6.62-0.62,False,,0.0,70.0,,,,,,,[],,,,,,62.5,1.0,i,1.0,True,948.9999980926514,57.0,60.0,40.0,206.54536119665622,[],"[720, 450]",ColorTask,39.0,63.0,,,HRV,HRV_0205,2022-11-30 19:03:24
,wl-rdm,71,201357,0.0-6.63-0.63,False,,0.0,71.0,,,,,,,[],,,,,,53.2,1.0,u,0.0,False,1054.3999996185303,64.0,60.0,40.0,332.597366162238,[],"[720, 450]",ColorTask,38.0,64.0,,,HRV,HRV_0205,2022-11-30 19:03:24
,wl-rdm,72,203641,0.0-6.64-0.64,False,,0.0,72.0,,,,,,,[],,,,,,53.2,1.0,i,1.0,True,820.0,50.0,60.0,40.0,382.0583157435435,[],"[720, 450]",ColorTask,39.0,65.0,,,HRV,HRV_0205,2022-11-30 19:03:24
,wl-rdm,73,205807,0.0-6.65-0.65,False,,0.0,73.0,,,,,,,[],,,,,,50.0,1.0,u,0.0,False,854.1000003814697,52.0,60.0,40.0,237.61806999805736,[],"[720, 450]",ColorTask,38.0,66.0,,,HRV,HRV_0205,2022-11-30 19:03:24
,wl-rdm,74,207773,0.0-6.66-0.66,False,,0.0,74.0,,,,,,,[],,,,,,50.0,1.0,i,1.0,True,689.9000015258789,42.0,60.0,40.0,206.61063842417872,[],"[720, 450]",ColorTask,39.0,67.0,,,HRV,HRV_0205,2022-11-30 19:03:24
,wl-rdm,75,210056,0.0-6.67-0.67,False,,0.0,75.0,,,,,,,[],,,,,,56.4,0.0,u,0.0,True,987.6000003814697,60.0,60.0,40.0,207.44838058972417,[],"[720, 450]",ColorTask,40.0,68.0,,,HRV,HRV_0205,2022-11-30 19:03:24
,wl-rdm,76,212141,0.0-6.68-0.68,False,,0.0,76.0,,,,,,,[],,,,,,73.6,0.0,u,0.0,True,679.5,41.0,60.0,40.0,348.903416394077,[],"[720, 450]",ColorTask,41.0,69.0,,,HRV,HRV_0205,2022-11-30 19:03:24
,wl-rdm,77,214490,0.0-6.69-0.69,False,,0.0,77.0,,,,,,,[],,,,,,62.5,0.0,u,0.0,True,1000.2999992370605,60.0,60.0,40.0,267.49765596616993,[],"[720, 450]",ColorTask,42.0,70.0,,,HRV,HRV_0205,2022-11-30 19:03:24
,wl-rdm,78,216841,0.0-6.70-0.70,False,,0.0,78.0,,,,,,,[],,,,,,87.9,1.0,i,1.0,True,1043.1000003814697,63.0,60.0,40.0,218.09129288171948,[],"[720, 450]",ColorTask,43.0,71.0,,,HRV,HRV_0205,2022-11-30 19:03:24
,wl-rdm,79,219007,0.0-6.71-0.71,False,,0.0,79.0,,,,,,,[],,,,,,73.6,1.0,i,1.0,True,883.8999996185303,53.0,60.0,40.0,229.19645542677688,[],"[720, 450]",ColorTask,44.0,72.0,,,HRV,HRV_0205,2022-11-30 19:03:24
,wl-rdm,80,221506,0.0-6.72-0.72,False,,0.0,80.0,,,,,,,[],,,,,,50.0,0.0,u,0.0,True,1029.1000003814697,62.0,60.0,40.0,395.7730835356557,[],"[720, 450]",ColorTask,45.0,73.0,,,HRV,HRV_0205,2022-11-30 19:03:24
,wl-rdm,81,223641,0.0-6.73-0.73,False,,0.0,81.0,,,,,,,[],,,,,,62.5,0.0,u,0.0,True,793.7000007629395,47.0,60.0,40.0,275.7894669042038,[],"[720, 450]",ColorTask,46.0,74.0,,,HRV,HRV_0205,2022-11-30 19:03:24
,wl-rdm,82,226373,0.0-6.74-0.74,False,,0.0,82.0,,,,,,,[],,,,,,53.2,0.0,u,0.0,True,1274.6000003814697,77.0,60.0,40.0,394.6620708024724,[],"[720, 450]",ColorTask,47.0,75.0,,,HRV,HRV_0205,2022-11-30 19:03:24
,wl-rdm,83,228839,0.0-6.75-0.75,False,,0.0,83.0,,,,,,,[],,,,,,56.4,0.0,u,0.0,True,1154.2999992370605,70.0,60.0,40.0,222.99644103395954,[],"[720, 450]",ColorTask,48.0,76.0,,,HRV,HRV_0205,2022-11-30 19:03:24
,wl-rdm,84,230723,0.0-6.76-0.76,False,,0.0,84.0,,,,,,,[],,,,,,87.9,0.0,u,0.0,True,554.0000019073486,34.0,60.0,40.0,253.50211475395554,[],"[720, 450]",ColorTask,49.0,77.0,,,HRV,HRV_0205,2022-11-30 19:03:24
,wl-rdm,85,232907,0.0-6.77-0.77,False,,0.0,85.0,,,,,,,[],,,,,,62.5,0.0,u,0.0,True,802.6000003814697,49.0,60.0,40.0,293.63055233639034,[],"[720, 450]",ColorTask,50.0,78.0,,,HRV,HRV_0205,2022-11-30 19:03:24
,wl-rdm,86,234974,0.0-6.78-0.78,False,,0.0,86.0,,,,,,,[],,,,,,87.9,0.0,u,0.0,True,761.3000011444092,46.0,60.0,40.0,222.9365643448825,[],"[720, 450]",ColorTask,51.0,79.0,,,HRV,HRV_0205,2022-11-30 19:03:24
,wl-rdm,87,237123,0.0-6.79-0.79,False,,0.0,87.0,,,,,,,[],,,,,,53.2,0.0,u,0.0,True,782.1999988555908,47.0,60.0,40.0,295.4065423306409,[],"[720, 450]",ColorTask,52.0,80.0,,,HRV,HRV_0205,2022-11-30 19:03:24
,wl-rdm,88,239323,0.0-6.80-0.80,False,,0.0,88.0,,,,,,,[],,,,,,56.4,1.0,u,0.0,False,910.1000003814697,55.0,60.0,40.0,227.49674296878823,[],"[720, 450]",ColorTask,51.0,81.0,,,HRV,HRV_0205,2022-11-30 19:03:24
,wl-rdm,89,241575,0.0-6.81-0.81,False,,0.0,89.0,,,,,,,[],,,,,,53.2,0.0,u,0.0,True,886.5,54.0,60.0,40.0,276.9754871896936,[],"[720, 450]",ColorTask,52.0,82.0,,,HRV,HRV_0205,2022-11-30 19:03:24
,wl-rdm,90,243506,0.0-6.82-0.82,False,,0.0,90.0,,,,,,,[],,,,,,73.6,1.0,i,1.0,True,558.1000003814697,34.0,60.0,40.0,306.36540466016777,[],"[720, 450]",ColorTask,53.0,83.0,,,HRV,HRV_0205,2022-11-30 19:03:24
,wl-rdm,91,245573,0.0-6.83-0.83,False,,0.0,91.0,,,,,,,[],,,,,,87.9,0.0,u,0.0,True,658.1999988555908,40.0,60.0,40.0,322.74332016719217,[],"[720, 450]",ColorTask,54.0,84.0,,,HRV,HRV_0205,2022-11-30 19:03:24
,wl-rdm,92,247673,0.0-6.84-0.84,False,,0.0,92.0,,,,,,,[],,,,,,73.6,0.0,u,0.0,True,689.6000003814697,42.0,60.0,40.0,321.6011792736348,[],"[720, 450]",ColorTask,55.0,85.0,,,HRV,HRV_0205,2022-11-30 19:03:24
,wl-rdm,93,250039,0.0-6.85-0.85,False,,0.0,93.0,,,,,,,[],,,,,,50.0,1.0,u,0.0,False,932.9999980926514,56.0,60.0,40.0,360.2583840951277,[],"[720, 450]",ColorTask,54.0,86.0,,,HRV,HRV_0205,2022-11-30 19:03:24
,wl-rdm,94,252341,0.0-6.86-0.86,False,,0.0,94.0,,,,,,,[],,,,,,73.6,1.0,i,1.0,True,1017.5,61.0,60.0,40.0,224.6780368471564,[],"[720, 450]",ColorTask,55.0,87.0,,,HRV,HRV_0205,2022-11-30 19:03:24
,wl-rdm,95,254956,0.0-6.87-0.87,False,,0.0,95.0,,,,,,,[],,,,,,50.0,0.0,u,0.0,True,1294.8000011444092,78.0,60.0,40.0,243.73266556770437,[],"[720, 450]",ColorTask,56.0,88.0,,,HRV,HRV_0205,2022-11-30 19:03:24
,wl-rdm,96,257074,0.0-6.88-0.88,False,,0.0,96.0,,,,,,,[],,,,,,56.4,0.0,u,0.0,True,736.3000011444092,45.0,60.0,40.0,309.2988161667856,[],"[720, 450]",ColorTask,57.0,89.0,,,HRV,HRV_0205,2022-11-30 19:03:24
,wl-rdm,97,258991,0.0-6.89-0.89,False,,0.0,97.0,,,,,,,[],,,,,,87.9,0.0,u,0.0,True,637.1000003814697,39.0,60.0,40.0,208.45648663235608,[],"[720, 450]",ColorTask,58.0,90.0,,,HRV,HRV_0205,2022-11-30 19:03:24
,wl-rdm,98,261007,0.0-6.90-0.90,False,,0.0,98.0,,,,,,,[],,,,,,56.4,0.0,u,0.0,True,684.6000003814697,42.0,60.0,40.0,261.1761742018207,[],"[720, 450]",ColorTask,59.0,91.0,,,HRV,HRV_0205,2022-11-30 19:03:24
,wl-rdm,99,263041,0.0-6.91-0.91,False,,0.0,99.0,,,,,,,[],,,,,,50.0,1.0,u,0.0,False,723.8999996185303,44.0,60.0,40.0,235.1636304068286,[],"[720, 450]",ColorTask,58.0,92.0,,,HRV,HRV_0205,2022-11-30 19:03:24
,wl-rdm,100,265040,0.0-6.92-0.92,False,,0.0,100.0,,,,,,,[],,,,,,50.0,0.0,u,0.0,True,668.7000007629395,41.0,60.0,40.0,245.39961492256026,[],"[720, 450]",ColorTask,59.0,93.0,,,HRV,HRV_0205,2022-11-30 19:03:24
,wl-rdm,101,267323,0.0-6.93-0.93,False,,0.0,101.0,,,,,,,[],,,,,,50.0,1.0,u,0.0,False,1006.2000007629395,61.0,60.0,40.0,207.17106196641808,[],"[720, 450]",ColorTask,58.0,94.0,,,HRV,HRV_0205,2022-11-30 19:03:24
,wl-rdm,102,269689,0.0-6.94-0.94,False,,0.0,102.0,,,,,,,[],,,,,,53.2,1.0,i,1.0,True,943.6000003814697,57.0,60.0,40.0,358.2577489125516,[],"[720, 450]",ColorTask,59.0,95.0,,,HRV,HRV_0205,2022-11-30 19:03:24
,wl-rdm,103,271658,0.0-6.95-0.95,False,,0.0,103.0,,,,,,,[],,,,,,87.9,1.0,i,1.0,True,631.2999992370605,38.0,60.0,40.0,280.42961572991464,[],"[720, 450]",ColorTask,60.0,96.0,,,HRV,HRV_0205,2022-11-30 19:03:24
,wl-rdm,104,273573,0.0-6.96-0.96,False,,0.0,104.0,,,,,,,[],,,,,,73.6,1.0,i,1.0,True,630.6000003814697,38.0,60.0,40.0,208.68902448891035,[],"[720, 450]",ColorTask,61.0,97.0,,,HRV,HRV_0205,2022-11-30 19:03:24
,wl-rdm,105,275523,0.0-6.97-0.97,False,,0.0,105.0,,,,,,,[],,,,,,62.5,1.0,i,1.0,True,613.4000015258789,37.0,60.0,40.0,255.20643225133423,[],"[720, 450]",ColorTask,62.0,98.0,,,HRV,HRV_0205,2022-11-30 19:03:24
,wl-rdm,106,277857,0.0-6.98-0.98,False,,0.0,106.0,,,,,,,[],,,,,,53.2,1.0,i,1.0,True,938.5999984741211,57.0,60.0,40.0,302.2799203649845,[],"[720, 450]",ColorTask,63.0,99.0,,,HRV,HRV_0205,2022-11-30 19:03:24
,wl-rdm,107,280506,0.0-6.99-0.99,False,,0.0,107.0,,,,,,,[],,,,,,56.4,1.0,u,0.0,False,1304.1000003814697,79.0,60.0,40.0,281.6265663257032,[],"[720, 450]",ColorTask,62.0,100.0,,,HRV,HRV_0205,2022-11-30 19:03:24
,wl-rdm,108,282739,0.0-6.100-0.100,False,,0.0,108.0,,,,,,,[],,,,,,73.6,0.0,u,0.0,True,937.6000003814697,57.0,60.0,40.0,219.26863215710696,[],"[720, 450]",ColorTask,63.0,101.0,,,HRV,HRV_0205,2022-11-30 19:03:24
,wl-rdm,109,285322,0.0-6.101-0.101,False,,0.0,109.0,,,,,,,[],,,,,,50.0,0.0,u,0.0,True,1184.099998474121,72.0,60.0,40.0,317.21799593807555,[],"[720, 450]",ColorTask,64.0,102.0,,,HRV,HRV_0205,2022-11-30 19:03:24
,wl-rdm,110,287841,0.0-6.102-0.102,False,,0.0,110.0,,,,,,,[],,,,,,50.0,1.0,i,1.0,True,1187.5,72.0,60.0,40.0,247.03652145877072,[],"[720, 450]",ColorTask,65.0,103.0,,,HRV,HRV_0205,2022-11-30 19:03:24
,wl-rdm,111,289805,0.0-6.103-0.103,False,,0.0,111.0,,,,,,,[],,,,,,87.9,1.0,i,1.0,True,679.2000007629395,41.0,60.0,40.0,221.9435753853158,[],"[720, 450]",ColorTask,66.0,104.0,,,HRV,HRV_0205,2022-11-30 19:03:24
,wl-rdm,112,291923,0.0-6.104-0.104,False,,0.0,112.0,,,,,,,[],,,,,,62.5,0.0,u,0.0,True,755.2999992370605,46.0,60.0,40.0,277.30931849521085,[],"[720, 450]",ColorTask,67.0,105.0,,,HRV,HRV_0205,2022-11-30 19:03:24
,wl-rdm,113,294273,0.0-6.105-0.105,False,,0.0,113.0,,,,,,,[],,,,,,50.0,1.0,u,0.0,False,935.1000003814697,57.0,60.0,40.0,332.4558851837171,[],"[720, 450]",ColorTask,66.0,106.0,,,HRV,HRV_0205,2022-11-30 19:03:24
,wl-rdm,114,296673,0.0-6.106-0.106,False,,0.0,114.0,,,,,,,[],,,,,,50.0,0.0,i,1.0,False,953.8999996185303,58.0,60.0,40.0,375.22273813469974,[],"[720, 450]",ColorTask,65.0,107.0,,,HRV,HRV_0205,2022-11-30 19:03:24
,wl-rdm,115,299239,0.0-6.107-0.107,False,,0.0,115.0,,,,,,,[],,,,,,56.4,1.0,i,1.0,True,1198.8999996185303,72.0,60.0,40.0,294.5165791025945,[],"[720, 450]",ColorTask,66.0,108.0,,,HRV,HRV_0205,2022-11-30 19:03:24
,wl-html-keyboard-response,116,352434,0.0-7.0-0.0,True,undefinedblurEvent ,1.0,115.0,,,,,,,,51187.60000038147,1.0,0,,,,,,,,,,,,,,,,,,,,HRV,HRV_0205,2022-11-30 19:03:24
,wl-rdm,117,354535,0.0-8.0-0.0,False,,1.0,116.0,,,,,,,[],,,,,,73.6,0.0,u,0.0,True,788.3999996185303,48.0,60.0,40.0,247.48431491029214,[],"[720, 450]",ColorTask,67.0,1.0,,,HRV,HRV_0205,2022-11-30 19:03:24
,wl-rdm,118,356935,0.0-8.1-0.1,False,,1.0,117.0,,,,,,,[],,,,,,53.2,0.0,u,0.0,True,1114.4999980926514,67.0,60.0,40.0,230.31636422578796,[],"[720, 450]",ColorTask,68.0,2.0,,,HRV,HRV_0205,2022-11-30 19:03:24
,wl-rdm,119,359069,0.0-8.2-0.2,False,,1.0,118.0,,,,,,,[],,,,,,56.4,1.0,i,1.0,True,836.7999992370605,51.0,60.0,40.0,223.63337260583438,[],"[720, 450]",ColorTask,69.0,3.0,,,HRV,HRV_0205,2022-11-30 19:03:24
,wl-rdm,120,361318,0.0-8.3-0.3,False,,1.0,119.0,,,,,,,[],,,,,,53.2,1.0,u,0.0,False,961.8000011444092,58.0,60.0,40.0,202.81552139543993,[],"[720, 450]",ColorTask,68.0,4.0,,,HRV,HRV_0205,2022-11-30 19:03:24
,wl-rdm,121,363384,0.0-8.4-0.4,False,,1.0,120.0,,,,,,,[],,,,,,87.9,0.0,u,0.0,True,641.4000015258789,39.0,60.0,40.0,346.70895901785343,[],"[720, 450]",ColorTask,69.0,5.0,,,HRV,HRV_0205,2022-11-30 19:03:24
,wl-rdm,122,365619,0.0-8.5-0.5,False,,1.0,121.0,,,,,,,[],,,,,,50.0,1.0,u,0.0,False,936.7999992370605,57.0,60.0,40.0,206.7722248296431,[],"[720, 450]",ColorTask,68.0,6.0,,,HRV,HRV_0205,2022-11-30 19:03:24
,wl-rdm,123,367908,0.0-8.6-0.6,False,,1.0,122.0,,,,,,,[],,,,,,50.0,1.0,u,0.0,False,832.2999992370605,50.0,60.0,40.0,370.6221271196399,[],"[720, 450]",ColorTask,67.0,7.0,,,HRV,HRV_0205,2022-11-30 19:03:24
,wl-rdm,124,369956,0.0-8.7-0.7,False,,1.0,123.0,,,,,,,[],,,,,,53.2,0.0,u,0.0,True,658.3000011444092,40.0,60.0,40.0,301.844069543835,[],"[720, 450]",ColorTask,68.0,8.0,,,HRV,HRV_0205,2022-11-30 19:03:24
,wl-rdm,125,371924,0.0-8.8-0.8,False,,1.0,124.0,,,,,,,[],,,,,,87.9,0.0,u,0.0,True,594.0,36.0,60.0,40.0,311.0957277649907,[],"[720, 450]",ColorTask,69.0,9.0,,,HRV,HRV_0205,2022-11-30 19:03:24
,wl-rdm,126,373974,0.0-8.9-0.9,False,,1.0,125.0,,,,,,,[],,,,,,73.6,0.0,u,0.0,True,640.1999988555908,39.0,60.0,40.0,349.0752602688963,[],"[720, 450]",ColorTask,70.0,10.0,,,HRV,HRV_0205,2022-11-30 19:03:24
,wl-rdm,127,376274,0.0-8.10-0.10,False,,1.0,126.0,,,,,,,[],,,,,,56.4,0.0,u,0.0,True,912.2000007629395,55.0,60.0,40.0,330.95723614609926,[],"[720, 450]",ColorTask,71.0,11.0,,,HRV,HRV_0205,2022-11-30 19:03:24
,wl-rdm,128,378724,0.0-8.11-0.11,False,,1.0,127.0,,,,,,,[],,,,,,56.4,1.0,i,1.0,True,1156.0,70.0,60.0,40.0,212.32764545283158,[],"[720, 450]",ColorTask,72.0,12.0,,,HRV,HRV_0205,2022-11-30 19:03:24
,wl-rdm,129,380841,0.0-8.12-0.12,False,,1.0,128.0,,,,,,,[],,,,,,87.9,0.0,u,0.0,True,696.2000007629395,42.0,60.0,40.0,337.96977021933264,[],"[720, 450]",ColorTask,73.0,13.0,,,HRV,HRV_0205,2022-11-30 19:03:24
,wl-rdm,130,383107,0.0-8.13-0.13,False,,1.0,129.0,,,,,,,[],,,,,,53.2,0.0,u,0.0,True,964.0,58.0,60.0,40.0,234.11986436457124,[],"[720, 450]",ColorTask,74.0,14.0,,,HRV,HRV_0205,2022-11-30 19:03:24
,wl-rdm,131,385473,0.0-8.14-0.14,False,,1.0,130.0,,,,,,,[],,,,,,56.4,0.0,u,0.0,True,1010.2000007629395,61.0,60.0,40.0,293.0734455025339,[],"[720, 450]",ColorTask,75.0,15.0,,,HRV,HRV_0205,2022-11-30 19:03:24
,wl-rdm,132,387506,0.0-8.15-0.15,False,,1.0,131.0,,,,,,,[],,,,,,50.0,1.0,i,1.0,True,756.8999996185303,46.0,60.0,40.0,204.88940952025877,[],"[720, 450]",ColorTask,76.0,16.0,,,HRV,HRV_0205,2022-11-30 19:03:24
,wl-rdm,133,389524,0.0-8.16-0.16,False,,1.0,132.0,,,,,,,[],,,,,,73.6,1.0,i,1.0,True,698.7999992370605,42.0,60.0,40.0,234.24760890607138,[],"[720, 450]",ColorTask,77.0,17.0,,,HRV,HRV_0205,2022-11-30 19:03:24
,wl-rdm,134,391540,0.0-8.17-0.17,False,,1.0,133.0,,,,,,,[],,,,,,73.6,0.0,u,0.0,True,637.0999984741211,39.0,60.0,40.0,297.0342110938568,[],"[720, 450]",ColorTask,78.0,18.0,,,HRV,HRV_0205,2022-11-30 19:03:24
,wl-rdm,135,393573,0.0-8.18-0.18,False,,1.0,134.0,,,,,,,[],,,,,,50.0,0.0,u,0.0,True,589.1999988555908,36.0,60.0,40.0,382.0205416147695,[],"[720, 450]",ColorTask,79.0,19.0,,,HRV,HRV_0205,2022-11-30 19:03:24
,wl-rdm,136,396141,0.0-8.19-0.19,False,,1.0,135.0,,,,,,,[],,,,,,56.4,0.0,u,0.0,True,1104.7000007629395,67.0,60.0,40.0,371.4025643675736,[],"[720, 450]",ColorTask,80.0,20.0,,,HRV,HRV_0205,2022-11-30 19:03:24
,wl-rdm,137,398508,0.0-8.20-0.20,False,,1.0,136.0,,,,,,,[],,,,,,53.2,0.0,i,1.0,False,999.0999984741211,60.0,60.0,40.0,328.803999705915,[],"[720, 450]",ColorTask,79.0,21.0,,,HRV,HRV_0205,2022-11-30 19:03:24
,wl-rdm,138,400857,0.0-8.21-0.21,False,,1.0,137.0,,,,,,,[],,,,,,62.5,0.0,u,0.0,True,1033.5,63.0,60.0,40.0,230.68734753964685,[],"[720, 450]",ColorTask,80.0,22.0,,,HRV,HRV_0205,2022-11-30 19:03:24
,wl-rdm,139,403306,0.0-8.22-0.22,False,,1.0,138.0,,,,,,,[],,,,,,56.4,0.0,i,1.0,False,1139.6999988555908,69.0,60.0,40.0,222.56363649285888,[],"[720, 450]",ColorTask,79.0,23.0,,,HRV,HRV_0205,2022-11-30 19:03:24
,wl-rdm,140,405456,0.0-8.23-0.23,False,,1.0,139.0,,,,,,,[],,,,,,56.4,1.0,i,1.0,True,864.5,52.0,60.0,40.0,208.53384477308848,[],"[720, 450]",ColorTask,80.0,24.0,,,HRV,HRV_0205,2022-11-30 19:03:24
,wl-rdm,141,407523,0.0-8.24-0.24,False,,1.0,140.0,,,,,,,[],,,,,,87.9,1.0,i,1.0,True,658.7999992370605,40.0,60.0,40.0,349.9997936370406,[],"[720, 450]",ColorTask,81.0,25.0,,,HRV,HRV_0205,2022-11-30 19:03:24
,wl-rdm,142,410308,0.0-8.25-0.25,False,,1.0,141.0,,,,,,,[],,,,,,53.2,0.0,u,0.0,True,1371.6999988555908,83.0,60.0,40.0,326.7230018315414,[],"[720, 450]",ColorTask,82.0,26.0,,,HRV,HRV_0205,2022-11-30 19:03:24
,wl-rdm,143,412591,0.0-8.26-0.26,False,,1.0,142.0,,,,,,,[],,,,,,50.0,0.0,u,0.0,True,928.2000007629395,56.0,60.0,40.0,298.40013933003775,[],"[720, 450]",ColorTask,83.0,27.0,,,HRV,HRV_0205,2022-11-30 19:03:24
,wl-rdm,144,414740,0.0-8.27-0.27,False,,1.0,143.0,,,,,,,[],,,,,,56.4,1.0,i,1.0,True,840.6999988555908,51.0,60.0,40.0,222.75029961823722,[],"[720, 450]",ColorTask,84.0,28.0,,,HRV,HRV_0205,2022-11-30 19:03:24
,wl-rdm,145,416874,0.0-8.28-0.28,False,,1.0,144.0,,,,,,,[],,,,,,73.6,1.0,i,1.0,True,709.3999996185303,43.0,60.0,40.0,345.5686963235167,[],"[720, 450]",ColorTask,85.0,29.0,,,HRV,HRV_0205,2022-11-30 19:03:24
,wl-rdm,146,419123,0.0-8.29-0.29,False,,1.0,145.0,,,,,,,[],,,,,,53.2,0.0,u,0.0,True,874.2000007629395,53.0,60.0,40.0,283.92747652573826,[],"[720, 450]",ColorTask,86.0,30.0,,,HRV,HRV_0205,2022-11-30 19:03:24
,wl-rdm,147,421391,0.0-8.30-0.30,False,,1.0,146.0,,,,,,,[],,,,,,62.5,1.0,i,1.0,True,899.2999992370605,54.0,60.0,40.0,313.54150658348715,[],"[720, 450]",ColorTask,87.0,31.0,,,HRV,HRV_0205,2022-11-30 19:03:24
,wl-rdm,148,423406,0.0-8.31-0.31,False,,1.0,147.0,,,,,,,[],,,,,,87.9,0.0,u,0.0,True,645.1000003814697,39.0,60.0,40.0,303.9649819145442,[],"[720, 450]",ColorTask,88.0,32.0,,,HRV,HRV_0205,2022-11-30 19:03:24
,wl-rdm,149,425391,0.0-8.32-0.32,False,,1.0,148.0,,,,,,,[],,,,,,73.6,0.0,u,0.0,True,696.5,42.0,60.0,40.0,229.9842539503538,[],"[720, 450]",ColorTask,89.0,33.0,,,HRV,HRV_0205,2022-11-30 19:03:24
,wl-rdm,150,427474,0.0-8.33-0.33,False,,1.0,149.0,,,,,,,[],,,,,,62.5,0.0,u,0.0,True,794.8999996185303,48.0,60.0,40.0,212.73830850739995,[],"[720, 450]",ColorTask,90.0,34.0,,,HRV,HRV_0205,2022-11-30 19:03:24
,wl-rdm,151,429441,0.0-8.34-0.34,False,,1.0,150.0,,,,,,,[],,,,,,62.5,1.0,i,1.0,True,698.6000003814697,42.0,60.0,40.0,211.12219685929182,[],"[720, 450]",ColorTask,91.0,35.0,,,HRV,HRV_0205,2022-11-30 19:03:24
,wl-rdm,152,431589,0.0-8.35-0.35,False,,1.0,151.0,,,,,,,[],,,,,,56.4,1.0,i,1.0,True,813.3000011444092,49.0,60.0,40.0,284.2989541873469,[],"[720, 450]",ColorTask,92.0,36.0,,,HRV,HRV_0205,2022-11-30 19:03:24
,wl-rdm,153,433924,0.0-8.36-0.36,False,,1.0,152.0,,,,,,,[],,,,,,53.2,0.0,i,1.0,False,1023.6000003814697,62.0,60.0,40.0,245.8966526191051,[],"[720, 450]",ColorTask,91.0,37.0,,,HRV,HRV_0205,2022-11-30 19:03:24
,wl-rdm,154,436174,0.0-8.37-0.37,False,,1.0,153.0,,,,,,,[],,,,,,50.0,0.0,i,1.0,False,856.7999992370605,52.0,60.0,40.0,325.3847846896462,[],"[720, 450]",ColorTask,90.0,38.0,,,HRV,HRV_0205,2022-11-30 19:03:24
,wl-rdm,155,438524,0.0-8.38-0.38,False,,1.0,154.0,,,,,,,[],,,,,,62.5,0.0,u,0.0,True,1024.2999992370605,62.0,60.0,40.0,237.81891490577883,[],"[720, 450]",ColorTask,91.0,39.0,,,HRV,HRV_0205,2022-11-30 19:03:24
,wl-rdm,156,440473,0.0-8.39-0.39,False,,1.0,155.0,,,,,,,[],,,,,,87.9,1.0,i,1.0,True,580.0999984741211,35.0,60.0,40.0,314.6580840610932,[],"[720, 450]",ColorTask,92.0,40.0,,,HRV,HRV_0205,2022-11-30 19:03:24
,wl-rdm,157,442708,0.0-8.40-0.40,False,,1.0,156.0,,,,,,,[],,,,,,62.5,1.0,i,1.0,True,887.0,54.0,60.0,40.0,253.86973290490857,[],"[720, 450]",ColorTask,93.0,41.0,,,HRV,HRV_0205,2022-11-30 19:03:24
,wl-rdm,158,444707,0.0-8.41-0.41,False,,1.0,157.0,,,,,,,[],,,,,,53.2,0.0,u,0.0,True,711.1000003814697,43.0,60.0,40.0,212.03188390173213,[],"[720, 450]",ColorTask,94.0,42.0,,,HRV,HRV_0205,2022-11-30 19:03:24
,wl-rdm,159,447107,0.0-8.42-0.42,False,,1.0,158.0,,,,,,,[],,,,,,50.0,0.0,u,0.0,True,1063.2999992370605,64.0,60.0,40.0,266.8897504808856,[],"[720, 450]",ColorTask,95.0,43.0,,,HRV,HRV_0205,2022-11-30 19:03:24
,wl-rdm,160,449124,0.0-8.43-0.43,False,,1.0,159.0,,,,,,,[],,,,,,62.5,0.0,u,0.0,True,725.8000011444092,44.0,60.0,40.0,227.48129265118573,[],"[720, 450]",ColorTask,96.0,44.0,,,HRV,HRV_0205,2022-11-30 19:03:24
,wl-rdm,161,451273,0.0-8.44-0.44,False,,1.0,160.0,,,,,,,[],,,,,,50.0,1.0,u,0.0,False,811.0,49.0,60.0,40.0,278.69806184749115,[],"[720, 450]",ColorTask,95.0,45.0,,,HRV,HRV_0205,2022-11-30 19:03:24
,wl-rdm,162,453274,0.0-8.45-0.45,False,,1.0,161.0,,,,,,,[],,,,,,73.6,0.0,u,0.0,True,664.9000015258789,40.0,60.0,40.0,277.00560799000647,[],"[720, 450]",ColorTask,96.0,46.0,,,HRV,HRV_0205,2022-11-30 19:03:24
,wl-rdm,163,455441,0.0-8.46-0.46,False,,1.0,162.0,,,,,,,[],,,,,,73.6,0.0,u,0.0,True,702.1000003814697,43.0,60.0,40.0,396.52884474999325,[],"[720, 450]",ColorTask,97.0,47.0,,,HRV,HRV_0205,2022-11-30 19:03:24
,wl-rdm,164,457873,0.0-8.47-0.47,False,,1.0,163.0,,,,,,,[],,,,,,53.2,1.0,u,0.0,False,1142.2999992370605,68.0,60.0,40.0,206.07485575100222,[],"[720, 450]",ColorTask,96.0,48.0,,,HRV,HRV_0205,2022-11-30 19:03:24
,wl-rdm,165,459774,0.0-8.48-0.48,False,,1.0,164.0,,,,,,,[],,,,,,87.9,0.0,u,0.0,True,521.2000007629395,32.0,60.0,40.0,303.6764908626313,[],"[720, 450]",ColorTask,97.0,49.0,,,HRV,HRV_0205,2022-11-30 19:03:24
,wl-rdm,166,461989,0.0-8.49-0.49,False,,1.0,165.0,,,,,,,[],,,,,,53.2,1.0,u,0.0,False,866.6000003814697,52.0,60.0,40.0,269.35402870600603,[],"[720, 450]",ColorTask,96.0,50.0,,,HRV,HRV_0205,2022-11-30 19:03:24
,wl-rdm,167,464057,0.0-8.50-0.50,False,,1.0,166.0,,,,,,,[],,,,,,87.9,1.0,i,1.0,True,763.6000003814697,46.0,60.0,40.0,243.3602595900976,[],"[720, 450]",ColorTask,97.0,51.0,,,HRV,HRV_0205,2022-11-30 19:03:24
,wl-rdm,168,466274,0.0-8.51-0.51,False,,1.0,167.0,,,,,,,[],,,,,,73.6,1.0,i,1.0,True,787.5,48.0,60.0,40.0,354.893281727455,[],"[720, 450]",ColorTask,98.0,52.0,,,HRV,HRV_0205,2022-11-30 19:03:24
,wl-rdm,169,468424,0.0-8.52-0.52,False,,1.0,168.0,,,,,,,[],,,,,,73.6,1.0,i,1.0,True,809.9000015258789,49.0,60.0,40.0,260.1301271966448,[],"[720, 450]",ColorTask,99.0,53.0,,,HRV,HRV_0205,2022-11-30 19:03:24
,wl-rdm,170,470824,0.0-8.53-0.53,False,,1.0,169.0,,,,,,,[],,,,,,53.2,1.0,u,0.0,False,1030.0,62.0,60.0,40.0,283.66984963239463,[],"[720, 450]",ColorTask,98.0,54.0,,,HRV,HRV_0205,2022-11-30 19:03:24
,wl-rdm,171,472939,0.0-8.54-0.54,False,,1.0,170.0,,,,,,,[],,,,,,62.5,0.0,u,0.0,True,813.5,49.0,60.0,40.0,224.78494816245336,[],"[720, 450]",ColorTask,99.0,55.0,,,HRV,HRV_0205,2022-11-30 19:03:24
,wl-rdm,172,475189,0.0-8.55-0.55,False,,1.0,171.0,,,,,,,[],,,,,,73.6,0.0,u,0.0,True,873.1999988555908,53.0,60.0,40.0,291.41509379371894,[],"[720, 450]",ColorTask,100.0,56.0,,,HRV,HRV_0205,2022-11-30 19:03:24
,wl-rdm,173,477424,0.0-8.56-0.56,False,,1.0,172.0,,,,,,,[],,,,,,56.4,0.0,u,0.0,True,854.3000011444092,52.0,60.0,40.0,300.4261303831819,[],"[720, 450]",ColorTask,101.0,57.0,,,HRV,HRV_0205,2022-11-30 19:03:24
,wl-rdm,174,479657,0.0-8.57-0.57,False,,1.0,173.0,,,,,,,[],,,,,,73.6,1.0,i,1.0,True,924.9000015258789,56.0,60.0,40.0,245.97599847721415,[],"[720, 450]",ColorTask,102.0,58.0,,,HRV,HRV_0205,2022-11-30 19:03:24
,wl-rdm,175,481873,0.0-8.58-0.58,False,,1.0,174.0,,,,,,,[],,,,,,87.9,0.0,u,0.0,True,862.1000003814697,52.0,60.0,40.0,281.2334227661971,[],"[720, 450]",ColorTask,103.0,59.0,,,HRV,HRV_0205,2022-11-30 19:03:24
,wl-rdm,176,483874,0.0-8.59-0.59,False,,1.0,175.0,,,,,,,[],,,,,,87.9,0.0,u,0.0,True,648.3999996185303,39.0,60.0,40.0,268.7823287570036,[],"[720, 450]",ColorTask,104.0,60.0,,,HRV,HRV_0205,2022-11-30 19:03:24
,wl-rdm,177,486223,0.0-8.60-0.60,False,,1.0,176.0,,,,,,,[],,,,,,53.2,1.0,i,1.0,True,975.5,59.0,60.0,40.0,311.2716840903772,[],"[720, 450]",ColorTask,105.0,61.0,,,HRV,HRV_0205,2022-11-30 19:03:24
,wl-rdm,178,488474,0.0-8.61-0.61,False,,1.0,177.0,,,,,,,[],,,,,,73.6,1.0,i,1.0,True,923.7000007629395,56.0,60.0,40.0,234.52345268980167,[],"[720, 450]",ColorTask,106.0,62.0,,,HRV,HRV_0205,2022-11-30 19:03:24
,wl-rdm,179,491506,0.0-8.62-0.62,False,,1.0,178.0,,,,,,,[],,,,,,53.2,1.0,u,0.0,False,1639.099998474121,99.0,60.0,40.0,322.3319318273377,[],"[720, 450]",ColorTask,105.0,63.0,,,HRV,HRV_0205,2022-11-30 19:03:24
,wl-rdm,180,493889,0.0-8.63-0.63,False,,1.0,179.0,,,,,,,[],,,,,,56.4,1.0,u,0.0,False,987.9000015258789,60.0,60.0,40.0,336.5058241256678,[],"[720, 450]",ColorTask,104.0,64.0,,,HRV,HRV_0205,2022-11-30 19:03:24
,wl-rdm,181,496241,0.0-8.64-0.64,False,,1.0,180.0,,,,,,,[],,,,,,50.0,1.0,u,0.0,False,1019.5999984741211,62.0,60.0,40.0,264.64678636459905,[],"[720, 450]",ColorTask,103.0,65.0,,,HRV,HRV_0205,2022-11-30 19:03:24
,wl-rdm,182,498257,0.0-8.65-0.65,False,,1.0,181.0,,,,,,,[],,,,,,73.6,1.0,i,1.0,True,676.0,41.0,60.0,40.0,274.1076092143706,[],"[720, 450]",ColorTask,104.0,66.0,,,HRV,HRV_0205,2022-11-30 19:03:24
,wl-rdm,183,500406,0.0-8.66-0.66,False,,1.0,182.0,,,,,,,[],,,,,,73.6,1.0,i,1.0,True,719.6000003814697,44.0,60.0,40.0,337.2615906823694,[],"[720, 450]",ColorTask,105.0,67.0,,,HRV,HRV_0205,2022-11-30 19:03:24
,wl-rdm,184,502506,0.0-8.67-0.67,False,,1.0,183.0,,,,,,,[],,,,,,87.9,1.0,i,1.0,True,642.2999992370605,39.0,60.0,40.0,388.4921105438457,[],"[720, 450]",ColorTask,106.0,68.0,,,HRV,HRV_0205,2022-11-30 19:03:24
,wl-rdm,185,504639,0.0-8.68-0.68,False,,1.0,184.0,,,,,,,[],,,,,,56.4,0.0,u,0.0,True,812.8999996185303,49.0,60.0,40.0,237.29622489354625,[],"[720, 450]",ColorTask,107.0,69.0,,,HRV,HRV_0205,2022-11-30 19:03:24
,wl-rdm,186,507148,0.0-8.69-0.69,False,,1.0,185.0,,,,,,,[],,,,,,50.0,0.0,u,0.0,True,1189.0,72.0,60.0,40.0,227.88805354390337,[],"[720, 450]",ColorTask,108.0,70.0,,,HRV,HRV_0205,2022-11-30 19:03:24
,wl-rdm,187,509191,0.0-8.70-0.70,False,,1.0,186.0,,,,,,,[],,,,,,62.5,1.0,i,1.0,True,779.3999996185303,47.0,60.0,40.0,209.43128090103656,[],"[720, 450]",ColorTask,109.0,71.0,,,HRV,HRV_0205,2022-11-30 19:03:24
,wl-rdm,188,511324,0.0-8.71-0.71,False,,1.0,187.0,,,,,,,[],,,,,,87.9,0.0,u,0.0,True,683.8000011444092,42.0,60.0,40.0,367.9314629881652,[],"[720, 450]",ColorTask,110.0,72.0,,,HRV,HRV_0205,2022-11-30 19:03:24
,wl-rdm,189,513406,0.0-8.72-0.72,False,,1.0,188.0,,,,,,,[],,,,,,50.0,1.0,u,0.0,False,773.2999992370605,47.0,60.0,40.0,217.51167448915018,[],"[720, 450]",ColorTask,109.0,73.0,,,HRV,HRV_0205,2022-11-30 19:03:24
,wl-rdm,190,515639,0.0-8.73-0.73,False,,1.0,189.0,,,,,,,[],,,,,,62.5,1.0,i,1.0,True,797.6000003814697,48.0,60.0,40.0,378.3488938514299,[],"[720, 450]",ColorTask,110.0,74.0,,,HRV,HRV_0205,2022-11-30 19:03:24
,wl-rdm,191,517874,0.0-8.74-0.74,False,,1.0,190.0,,,,,,,[],,,,,,62.5,1.0,u,0.0,False,764.6999969482422,46.0,60.0,40.0,390.6709318981526,[],"[720, 450]",ColorTask,109.0,75.0,,,HRV,HRV_0205,2022-11-30 19:03:24
,wl-rdm,192,520057,0.0-8.75-0.75,False,,1.0,191.0,,,,,,,[],,,,,,62.5,1.0,u,0.0,False,847.3999996185303,51.0,60.0,40.0,269.216311520566,[],"[720, 450]",ColorTask,108.0,76.0,,,HRV,HRV_0205,2022-11-30 19:03:24
,wl-rdm,193,522398,0.0-8.76-0.76,False,,1.0,192.0,,,,,,,[],,,,,,50.0,1.0,u,0.0,False,1006.2999992370605,61.0,60.0,40.0,259.84612484325845,[],"[720, 450]",ColorTask,107.0,77.0,,,HRV,HRV_0205,2022-11-30 19:03:24
,wl-rdm,194,524690,0.0-8.77-0.77,False,,1.0,193.0,,,,,,,[],,,,,,50.0,1.0,i,1.0,True,1001.8999996185303,61.0,60.0,40.0,217.45052745052456,[],"[720, 450]",ColorTask,108.0,78.0,,,HRV,HRV_0205,2022-11-30 19:03:24
,wl-rdm,195,527356,0.0-8.78-0.78,False,,1.0,194.0,,,,,,,[],,,,,,50.0,0.0,u,0.0,True,1282.8999996185303,77.0,60.0,40.0,313.4214040241529,[],"[720, 450]",ColorTask,109.0,79.0,,,HRV,HRV_0205,2022-11-30 19:03:24
,wl-rdm,196,529290,0.0-8.79-0.79,False,,1.0,195.0,,,,,,,[],,,,,,87.9,1.0,i,1.0,True,629.8999996185303,38.0,60.0,40.0,243.61700486006825,[],"[720, 450]",ColorTask,110.0,80.0,,,HRV,HRV_0205,2022-11-30 19:03:24
,wl-rdm,197,531340,0.0-8.80-0.80,False,,1.0,196.0,,,,,,,[],,,,,,56.4,1.0,i,1.0,True,696.2999992370605,42.0,60.0,40.0,279.1446418533035,[],"[720, 450]",ColorTask,111.0,81.0,,,HRV,HRV_0205,2022-11-30 19:03:24
,wl-rdm,198,533489,0.0-8.81-0.81,False,,1.0,197.0,,,,,,,[],,,,,,62.5,0.0,i,1.0,False,869.5,53.0,60.0,40.0,209.2045506202173,[],"[720, 450]",ColorTask,110.0,82.0,,,HRV,HRV_0205,2022-11-30 19:03:24
,wl-rdm,199,535607,0.0-8.82-0.82,False,,1.0,198.0,,,,,,,[],,,,,,87.9,1.0,i,1.0,True,666.3999996185303,40.0,60.0,40.0,383.487528576973,[],"[720, 450]",ColorTask,111.0,83.0,,,HRV,HRV_0205,2022-11-30 19:03:24
,wl-rdm,200,537889,0.0-8.83-0.83,False,,1.0,199.0,,,,,,,[],,,,,,62.5,1.0,i,1.0,True,871.5,53.0,60.0,40.0,333.71034207273874,[],"[720, 450]",ColorTask,112.0,84.0,,,HRV,HRV_0205,2022-11-30 19:03:24
,wl-rdm,201,540007,0.0-8.84-0.84,False,,1.0,200.0,,,,,,,[],,,,,,56.4,0.0,u,0.0,True,740.7999992370605,45.0,60.0,40.0,307.228718993601,[],"[720, 450]",ColorTask,113.0,85.0,,,HRV,HRV_0205,2022-11-30 19:03:24
,wl-rdm,202,541991,0.0-8.85-0.85,False,,1.0,201.0,,,,,,,[],,,,,,87.9,1.0,i,1.0,True,647.1000003814697,39.0,60.0,40.0,272.67538880146617,[],"[720, 450]",ColorTask,114.0,86.0,,,HRV,HRV_0205,2022-11-30 19:03:24
,wl-rdm,203,544155,0.0-8.86-0.86,False,,1.0,202.0,,,,,,,[],,,,,,53.2,0.0,u,0.0,True,855.4000015258789,52.0,60.0,40.0,243.01101314116454,[],"[720, 450]",ColorTask,115.0,87.0,,,HRV,HRV_0205,2022-11-30 19:03:24
,wl-rdm,204,546422,0.0-8.87-0.87,False,,1.0,203.0,,,,,,,[],,,,,,62.5,1.0,i,1.0,True,943.3000011444092,57.0,60.0,40.0,252.04031012235268,[],"[720, 450]",ColorTask,116.0,88.0,,,HRV,HRV_0205,2022-11-30 19:03:24
,wl-rdm,205,548674,0.0-8.88-0.88,False,,1.0,204.0,,,,,,,[],,,,,,56.4,0.0,u,0.0,True,890.0,54.0,60.0,40.0,287.01755526915264,[],"[720, 450]",ColorTask,117.0,89.0,,,HRV,HRV_0205,2022-11-30 19:03:24
,wl-rdm,206,551073,0.0-8.89-0.89,False,,1.0,205.0,,,,,,,[],,,,,,50.0,1.0,u,0.0,False,1027.2000007629395,62.0,60.0,40.0,303.9914615016455,[],"[720, 450]",ColorTask,116.0,90.0,,,HRV,HRV_0205,2022-11-30 19:03:24
,wl-rdm,207,553172,0.0-8.90-0.90,False,,1.0,206.0,,,,,,,[],,,,,,50.0,0.0,i,1.0,False,788.7999992370605,48.0,60.0,40.0,219.60410476352112,[],"[720, 450]",ColorTask,115.0,91.0,,,HRV,HRV_0205,2022-11-30 19:03:24
,wl-rdm,208,555223,0.0-8.91-0.91,False,,1.0,207.0,,,,,,,[],,,,,,50.0,0.0,i,1.0,False,707.5,43.0,60.0,40.0,275.9581596180833,[],"[720, 450]",ColorTask,114.0,92.0,,,HRV,HRV_0205,2022-11-30 19:03:24
,wl-rdm,209,557240,0.0-8.92-0.92,False,,1.0,208.0,,,,,,,[],,,,,,73.6,0.0,u,0.0,True,671.2999992370605,41.0,60.0,40.0,270.0675351030715,[],"[720, 450]",ColorTask,115.0,93.0,,,HRV,HRV_0205,2022-11-30 19:03:24
,wl-rdm,210,559456,0.0-8.93-0.93,False,,1.0,209.0,,,,,,,[],,,,,,73.6,0.0,u,0.0,True,812.7000007629395,49.0,60.0,40.0,348.5053237168357,[],"[720, 450]",ColorTask,116.0,94.0,,,HRV,HRV_0205,2022-11-30 19:03:24
,wl-rdm,211,561705,0.0-8.94-0.94,False,,1.0,210.0,,,,,,,[],,,,,,62.5,0.0,u,0.0,True,959.1000003814697,58.0,60.0,40.0,218.6503271925389,[],"[720, 450]",ColorTask,117.0,95.0,,,HRV,HRV_0205,2022-11-30 19:03:24
,wl-rdm,212,564039,0.0-8.95-0.95,False,,1.0,211.0,,,,,,,[],,,,,,50.0,0.0,u,0.0,True,882.7999992370605,53.0,60.0,40.0,392.1723614398727,[],"[720, 450]",ColorTask,118.0,96.0,,,HRV,HRV_0205,2022-11-30 19:03:24
,wl-rdm,213,566422,0.0-8.96-0.96,False,,1.0,212.0,,,,,,,[],,,,,,53.2,1.0,u,0.0,False,1011.3999996185303,61.0,60.0,40.0,303.64719239526545,[],"[720, 450]",ColorTask,117.0,97.0,,,HRV,HRV_0205,2022-11-30 19:03:24
,wl-rdm,214,568574,0.0-8.97-0.97,False,,1.0,213.0,,,,,,,[],,,,,,56.4,1.0,i,1.0,True,864.6999988555908,52.0,60.0,40.0,212.7994204538406,[],"[720, 450]",ColorTask,118.0,98.0,,,HRV,HRV_0205,2022-11-30 19:03:24
,wl-rdm,215,570657,0.0-8.98-0.98,False,,1.0,214.0,,,,,,,[],,,,,,87.9,1.0,i,1.0,True,755.0,46.0,60.0,40.0,237.11752967060053,[],"[720, 450]",ColorTask,119.0,99.0,,,HRV,HRV_0205,2022-11-30 19:03:24
,wl-rdm,216,572924,0.0-8.99-0.99,False,,1.0,215.0,,,,,,,[],,,,,,53.2,1.0,i,1.0,True,955.3999996185303,58.0,60.0,40.0,220.61152282873067,[],"[720, 450]",ColorTask,120.0,100.0,,,HRV,HRV_0205,2022-11-30 19:03:24
,wl-rdm,217,575522,0.0-8.100-0.100,False,,1.0,216.0,,,,,,,[],,,,,,53.2,1.0,i,1.0,True,1273.3999996185303,77.0,60.0,40.0,246.1403819366541,[],"[720, 450]",ColorTask,121.0,101.0,,,HRV,HRV_0205,2022-11-30 19:03:24
,wl-rdm,218,578063,0.0-8.101-0.101,False,,1.0,217.0,,,,,,,[],,,,,,62.5,0.0,u,0.0,True,1230.2000007629395,74.0,60.0,40.0,244.82645660734596,[],"[720, 450]",ColorTask,122.0,102.0,,,HRV,HRV_0205,2022-11-30 19:03:24
,wl-rdm,219,580472,0.0-8.102-0.102,False,,1.0,218.0,,,,,,,[],,,,,,62.5,0.0,u,0.0,True,1085.3000011444092,66.0,60.0,40.0,235.4072430766493,[],"[720, 450]",ColorTask,123.0,103.0,,,HRV,HRV_0205,2022-11-30 19:03:24
,wl-rdm,220,582814,0.0-8.103-0.103,False,,1.0,219.0,,,,,,,[],,,,,,73.6,1.0,i,1.0,True,1001.1999969482422,60.0,60.0,40.0,278.1116638500691,[],"[720, 450]",ColorTask,124.0,104.0,,,HRV,HRV_0205,2022-11-30 19:03:24
,wl-rdm,221,585056,0.0-8.104-0.104,False,,1.0,220.0,,,,,,,[],,,,,,87.9,0.0,u,0.0,True,805.6000003814697,49.0,60.0,40.0,352.14019543119537,[],"[720, 450]",ColorTask,125.0,105.0,,,HRV,HRV_0205,2022-11-30 19:03:24
,wl-rdm,222,587355,0.0-8.105-0.105,False,,1.0,221.0,,,,,,,[],,,,,,56.4,1.0,i,1.0,True,999.6000003814697,60.0,60.0,40.0,231.48801443337967,[],"[720, 450]",ColorTask,126.0,106.0,,,HRV,HRV_0205,2022-11-30 19:03:24
,wl-rdm,223,589574,0.0-8.106-0.106,False,,1.0,222.0,,,,,,,[],,,,,,56.4,0.0,u,0.0,True,944.8999996185303,57.0,60.0,40.0,201.3008753715845,[],"[720, 450]",ColorTask,127.0,107.0,,,HRV,HRV_0205,2022-11-30 19:03:24
,wl-rdm,224,591890,0.0-8.107-0.107,False,,1.0,223.0,,,,,,,[],,,,,,87.9,1.0,i,1.0,True,922.3999996185303,56.0,60.0,40.0,300.2772547151477,[],"[720, 450]",ColorTask,128.0,108.0,,,HRV,HRV_0205,2022-11-30 19:03:24
,wl-html-button-response,225,594803,0.0-9.0-0.0,,,,,,,,,,,,2909.0,,0,,,,,,,,,,,,,,,,,,<h3>End of this session. Thank you!</h3><br>,['Close window'],HRV,HRV_0205,2022-11-30 19:03:24
