trialN,stimuli,trialStartTime,trialStartTime_UNIX,stimulus1,stimulus2,stimulus1Bid,stimulus2Bid,delta,selected,rt,rt_UNIX,rt_perfnow,receivedResponse,rsp,trialEndTime,trialDuration,trialEndTime_UNIX,trialDuration_UNIX,exp,subjectId,date
0,"[{'imgObject': {}, 'id': 'fried eggs', 'src': '/static/foodstim60/fried eggs.jpg', 'key': 'u', 'origWidth': 410, 'origHeight': 410, 'width': 410, 'height': 410, 'widthPercent': 0.45, 'rescaleHeight': False, 'trialN': 0, 'loaded': True, 'loadedTime': 9772.900001525879, 'positionName': 'LEFT', 'positionCoords': [281.2, 245], 'bid': 5.04}, {'imgObject': {}, 'id': 'bagel and cc', 'src': '/static/foodstim60/bagel and cc.jpg', 'key': 'i', 'origWidth': 410, 'origHeight': 410, 'width': 410, 'height': 410, 'widthPercent': 0.45, 'rescaleHeight': False, 'trialN': 0, 'loaded': True, 'loadedTime': 9757.20000076294, 'positionName': 'RIGHT', 'positionCoords': [748.8, 245], 'bid': 6.36}]",10236.10000038147,1669834154166,fried eggs,bagel and cc,5.04,6.36,1.3200000000000003,bagel and cc,1138.6000003814697,1141,1141.7000007629395,True,i,11883.30000114441,1647.2000007629395,1669834155813,1647,HRV,HRV_0205,2022-11-30 18:53:25
1,"[{'imgObject': {}, 'id': 'tacos', 'src': '/static/foodstim60/tacos.jpg', 'key': 'u', 'origWidth': 411, 'origHeight': 411, 'width': 411, 'height': 411, 'widthPercent': 0.45, 'rescaleHeight': False, 'trialN': 1, 'loaded': True, 'loadedTime': 9805.5, 'positionName': 'LEFT', 'positionCoords': [280.2, 244.5], 'bid': 6.54}, {'imgObject': {}, 'id': 'pear', 'src': '/static/foodstim60/pear.jpg', 'key': 'i', 'origWidth': 411, 'origHeight': 410, 'width': 411, 'height': 410, 'widthPercent': 0.45, 'rescaleHeight': False, 'trialN': 1, 'loaded': True, 'loadedTime': 9831.10000038147, 'positionName': 'RIGHT', 'positionCoords': [748.8, 245], 'bid': 5.18}]",11883.60000038147,1669834155813,tacos,pear,6.54,5.18,-1.3600000000000003,tacos,696.8999996185303,700,699.5,True,u,13085.30000114441,1201.7000007629395,1669834157015,1202,HRV,HRV_0205,2022-11-30 18:53:25
2,"[{'imgObject': {}, 'id': 'cherry tomato', 'src': '/static/foodstim60/cherry tomato.jpg', 'key': 'u', 'origWidth': 410, 'origHeight': 410, 'width': 410, 'height': 410, 'widthPercent': 0.45, 'rescaleHeight': False, 'trialN': 2, 'loaded': True, 'loadedTime': 9806.70000076294, 'positionName': 'LEFT', 'positionCoords': [281.2, 245], 'bid': 1.77}, {'imgObject': {}, 'id': 'granola w milk', 'src': '/static/foodstim60/granola w milk.jpg', 'key': 'i', 'origWidth': 410, 'origHeight': 410, 'width': 410, 'height': 410, 'widthPercent': 0.45, 'rescaleHeight': False, 'trialN': 2, 'loaded': True, 'loadedTime': 9849.60000038147, 'positionName': 'RIGHT', 'positionCoords': [748.8, 245], 'bid': 1.94}]",13085.5,1669834157015,cherry tomato,granola w milk,1.77,1.94,0.16999999999999993,cherry tomato,1094.1000003814697,1097,1097.0,True,u,14687.70000076294,1602.2000007629395,1669834158617,1602,HRV,HRV_0205,2022-11-30 18:53:25
3,"[{'imgObject': {}, 'id': 'bagel and cc', 'src': '/static/foodstim60/bagel and cc.jpg', 'key': 'u', 'origWidth': 410, 'origHeight': 410, 'width': 410, 'height': 410, 'widthPercent': 0.45, 'rescaleHeight': False, 'trialN': 3, 'loaded': True, 'loadedTime': 9757.60000038147, 'positionName': 'LEFT', 'positionCoords': [281.2, 245], 'bid': 6.36}, {'imgObject': {}, 'id': 'baked potato', 'src': '/static/foodstim60/baked potato.jpg', 'key': 'i', 'origWidth': 409, 'origHeight': 410, 'width': 409, 'height': 410, 'widthPercent': 0.45, 'rescaleHeight': False, 'trialN': 3, 'loaded': True, 'loadedTime': 9858.80000114441, 'positionName': 'RIGHT', 'positionCoords': [748.8, 245], 'bid': 3.06}]",14688.0,1669834158618,bagel and cc,baked potato,6.36,3.06,-3.3000000000000003,bagel and cc,837.3000011444092,840,840.0,True,u,16032.900001525879,1344.900001525879,1669834159963,1345,HRV,HRV_0205,2022-11-30 18:53:25
4,"[{'imgObject': {}, 'id': 'salad w chicken', 'src': '/static/foodstim60/salad w chicken.jpg', 'key': 'u', 'origWidth': 411, 'origHeight': 411, 'width': 411, 'height': 411, 'widthPercent': 0.45, 'rescaleHeight': False, 'trialN': 4, 'loaded': True, 'loadedTime': 9859.900001525879, 'positionName': 'LEFT', 'positionCoords': [280.2, 244.5], 'bid': 5.19}, {'imgObject': {}, 'id': 'rigatoni and sauce', 'src': '/static/foodstim60/rigatoni and sauce.jpg', 'key': 'i', 'origWidth': 410, 'origHeight': 411, 'width': 410, 'height': 411, 'widthPercent': 0.45, 'rescaleHeight': False, 'trialN': 4, 'loaded': True, 'loadedTime': 9889.70000076294, 'positionName': 'RIGHT', 'positionCoords': [748.8, 244.5], 'bid': 7.04}]",16033.20000076294,1669834159963,salad w chicken,rigatoni and sauce,5.19,7.04,1.8499999999999996,rigatoni and sauce,663.2999992370605,666,666.0,True,i,17203.40000152588,1170.2000007629395,1669834161133,1170,HRV,HRV_0205,2022-11-30 18:53:25
5,"[{'imgObject': {}, 'id': 'raisin bran w milk', 'src': '/static/foodstim60/raisin bran w milk.jpg', 'key': 'u', 'origWidth': 411, 'origHeight': 411, 'width': 411, 'height': 411, 'widthPercent': 0.45, 'rescaleHeight': False, 'trialN': 5, 'loaded': True, 'loadedTime': 9889.900001525879, 'positionName': 'LEFT', 'positionCoords': [280.2, 244.5], 'bid': 2.73}, {'imgObject': {}, 'id': 'luckycharms', 'src': '/static/foodstim60/luckycharms.jpg', 'key': 'i', 'origWidth': 410, 'origHeight': 409, 'width': 410, 'height': 409, 'widthPercent': 0.45, 'rescaleHeight': False, 'trialN': 5, 'loaded': True, 'loadedTime': 9910, 'positionName': 'RIGHT', 'positionCoords': [748.8, 245.5], 'bid': 3.02}]",17203.60000038147,1669834161133,raisin bran w milk,luckycharms,2.73,3.02,0.29000000000000004,luckycharms,1139.7000007629395,1144,1143.6000003814697,True,i,18848.0,1644.3999996185303,1669834162778,1645,HRV,HRV_0205,2022-11-30 18:53:25
6,"[{'imgObject': {}, 'id': 'avocado', 'src': '/static/foodstim60/avocado.jpg', 'key': 'u', 'origWidth': 409, 'origHeight': 409, 'width': 409, 'height': 409, 'widthPercent': 0.45, 'rescaleHeight': False, 'trialN': 6, 'loaded': True, 'loadedTime': 9919, 'positionName': 'LEFT', 'positionCoords': [282.2, 245.5], 'bid': 1.76}, {'imgObject': {}, 'id': 'cherry tomato', 'src': '/static/foodstim60/cherry tomato.jpg', 'key': 'i', 'origWidth': 410, 'origHeight': 410, 'width': 410, 'height': 410, 'widthPercent': 0.45, 'rescaleHeight': False, 'trialN': 6, 'loaded': True, 'loadedTime': 9820, 'positionName': 'RIGHT', 'positionCoords': [748.8, 245], 'bid': 1.77}]",18848.20000076294,1669834162778,avocado,cherry tomato,1.76,1.77,0.010000000000000009,cherry tomato,1885.2000007629395,1888,1888.0,True,i,21236.5,2388.2999992370605,1669834165166,2388,HRV,HRV_0205,2022-11-30 18:53:25
7,"[{'imgObject': {}, 'id': 'banana', 'src': '/static/foodstim60/banana.jpg', 'key': 'u', 'origWidth': 410, 'origHeight': 410, 'width': 410, 'height': 410, 'widthPercent': 0.45, 'rescaleHeight': False, 'trialN': 7, 'loaded': True, 'loadedTime': 9938.60000038147, 'positionName': 'LEFT', 'positionCoords': [281.2, 245], 'bid': 6.04}, {'imgObject': {}, 'id': 'luckycharms', 'src': '/static/foodstim60/luckycharms.jpg', 'key': 'i', 'origWidth': 410, 'origHeight': 409, 'width': 410, 'height': 409, 'widthPercent': 0.45, 'rescaleHeight': False, 'trialN': 7, 'loaded': True, 'loadedTime': 9910.20000076294, 'positionName': 'RIGHT', 'positionCoords': [748.8, 245.5], 'bid': 3.02}]",21236.60000038147,1669834165166,banana,luckycharms,6.04,3.02,-3.02,banana,709.6000003814697,712,712.1000003814697,True,u,22453.90000152588,1217.3000011444092,1669834166384,1218,HRV,HRV_0205,2022-11-30 18:53:25
8,"[{'imgObject': {}, 'id': 'rigatoni and sauce', 'src': '/static/foodstim60/rigatoni and sauce.jpg', 'key': 'u', 'origWidth': 410, 'origHeight': 411, 'width': 410, 'height': 411, 'widthPercent': 0.45, 'rescaleHeight': False, 'trialN': 8, 'loaded': True, 'loadedTime': 9889.5, 'positionName': 'LEFT', 'positionCoords': [281.2, 244.5], 'bid': 7.04}, {'imgObject': {}, 'id': 'cantaloupe', 'src': '/static/foodstim60/cantaloupe.jpg', 'key': 'i', 'origWidth': 409, 'origHeight': 409, 'width': 409, 'height': 409, 'widthPercent': 0.45, 'rescaleHeight': False, 'trialN': 8, 'loaded': True, 'loadedTime': 9919.900001525879, 'positionName': 'RIGHT', 'positionCoords': [748.8, 245.5], 'bid': 3.79}]",22454.10000038147,1669834166384,rigatoni and sauce,cantaloupe,7.04,3.79,-3.25,rigatoni and sauce,655.1000003814697,657,657.8000011444092,True,u,23615.0,1160.8999996185303,1669834167545,1161,HRV,HRV_0205,2022-11-30 18:53:25
9,"[{'imgObject': {}, 'id': 'lox', 'src': '/static/foodstim60/lox.jpg', 'key': 'u', 'origWidth': 410, 'origHeight': 411, 'width': 410, 'height': 411, 'widthPercent': 0.45, 'rescaleHeight': False, 'trialN': 9, 'loaded': True, 'loadedTime': 9939.80000114441, 'positionName': 'LEFT', 'positionCoords': [281.2, 244.5], 'bid': 2.76}, {'imgObject': {}, 'id': 'grilled chicken strips', 'src': '/static/foodstim60/grilled chicken strips.jpg', 'key': 'i', 'origWidth': 410, 'origHeight': 411, 'width': 410, 'height': 411, 'widthPercent': 0.45, 'rescaleHeight': False, 'trialN': 9, 'loaded': True, 'loadedTime': 9949.900001525879, 'positionName': 'RIGHT', 'positionCoords': [748.8, 244.5], 'bid': 5.5}]",23615.20000076294,1669834167545,lox,grilled chicken strips,2.76,5.5,2.74,grilled chicken strips,734.0,737,736.7000007629395,True,i,24856.20000076294,1241.0,1669834168786,1241,HRV,HRV_0205,2022-11-30 18:53:25
10,"[{'imgObject': {}, 'id': 'fruitsalad', 'src': '/static/foodstim60/fruitsalad.jpg', 'key': 'u', 'origWidth': 410, 'origHeight': 410, 'width': 410, 'height': 410, 'widthPercent': 0.45, 'rescaleHeight': False, 'trialN': 10, 'loaded': True, 'loadedTime': 9951.5, 'positionName': 'LEFT', 'positionCoords': [281.2, 245], 'bid': 3.61}, {'imgObject': {}, 'id': 'edamame', 'src': '/static/foodstim60/edamame.jpg', 'key': 'i', 'origWidth': 409, 'origHeight': 410, 'width': 409, 'height': 410, 'widthPercent': 0.45, 'rescaleHeight': False, 'trialN': 10, 'loaded': True, 'loadedTime': 9972.70000076294, 'positionName': 'RIGHT', 'positionCoords': [748.8, 245], 'bid': 2.08}]",24856.40000152588,1669834168786,fruitsalad,edamame,3.61,2.08,-1.5299999999999998,fruitsalad,776.6999988555908,779,779.2999992370605,True,u,26139.40000152588,1283.0,1669834170069,1283,HRV,HRV_0205,2022-11-30 18:53:25
11,"[{'imgObject': {}, 'id': 'omelette', 'src': '/static/foodstim60/omelette.jpg', 'key': 'u', 'origWidth': 410, 'origHeight': 409, 'width': 410, 'height': 409, 'widthPercent': 0.45, 'rescaleHeight': False, 'trialN': 11, 'loaded': True, 'loadedTime': 9972.80000114441, 'positionName': 'LEFT', 'positionCoords': [281.2, 245.5], 'bid': 4.29}, {'imgObject': {}, 'id': 'cherries', 'src': '/static/foodstim60/cherries.jpg', 'key': 'i', 'origWidth': 410, 'origHeight': 411, 'width': 410, 'height': 411, 'widthPercent': 0.45, 'rescaleHeight': False, 'trialN': 11, 'loaded': True, 'loadedTime': 9985.10000038147, 'positionName': 'RIGHT', 'positionCoords': [748.8, 244.5], 'bid': 4.25}]",26139.60000038147,1669834170069,omelette,cherries,4.29,4.25,-0.040000000000000036,omelette,742.3000011444092,745,744.7000007629395,True,u,27386.30000114441,1246.7000007629395,1669834171316,1247,HRV,HRV_0205,2022-11-30 18:53:25
12,"[{'imgObject': {}, 'id': 'veggieswithdip', 'src': '/static/foodstim60/veggieswithdip.jpg', 'key': 'u', 'origWidth': 409, 'origHeight': 409, 'width': 409, 'height': 409, 'widthPercent': 0.45, 'rescaleHeight': False, 'trialN': 12, 'loaded': True, 'loadedTime': 9985.60000038147, 'positionName': 'LEFT', 'positionCoords': [282.2, 245.5], 'bid': 2.79}, {'imgObject': {}, 'id': 'turkey sandwich', 'src': '/static/foodstim60/turkey sandwich.jpg', 'key': 'i', 'origWidth': 409, 'origHeight': 409, 'width': 409, 'height': 409, 'widthPercent': 0.45, 'rescaleHeight': False, 'trialN': 12, 'loaded': True, 'loadedTime': 10010.400001525879, 'positionName': 'RIGHT', 'positionCoords': [748.8, 245.5], 'bid': 5.73}]",27386.5,1669834171316,veggieswithdip,turkey sandwich,2.79,5.73,2.9400000000000004,turkey sandwich,668.6000003814697,671,671.0,True,i,28559.5,1173.0,1669834172489,1173,HRV,HRV_0205,2022-11-30 18:53:25
13,"[{'imgObject': {}, 'id': 'shreddedwheatwithmilk', 'src': '/static/foodstim60/shreddedwheatwithmilk.jpg', 'key': 'u', 'origWidth': 410, 'origHeight': 410, 'width': 410, 'height': 410, 'widthPercent': 0.45, 'rescaleHeight': False, 'trialN': 13, 'loaded': True, 'loadedTime': 10011.70000076294, 'positionName': 'LEFT', 'positionCoords': [281.2, 245], 'bid': 3}, {'imgObject': {}, 'id': 'edamame', 'src': '/static/foodstim60/edamame.jpg', 'key': 'i', 'origWidth': 409, 'origHeight': 410, 'width': 409, 'height': 410, 'widthPercent': 0.45, 'rescaleHeight': False, 'trialN': 13, 'loaded': True, 'loadedTime': 9961.900001525879, 'positionName': 'RIGHT', 'positionCoords': [748.8, 245], 'bid': 2.08}]",28559.80000114441,1669834172489,shreddedwheatwithmilk,edamame,3.0,2.08,-0.9199999999999999,edamame,966.2999992370605,971,970.6000003814697,True,i,30032.30000114441,1472.5,1669834173962,1473,HRV,HRV_0205,2022-11-30 18:53:25
14,"[{'imgObject': {}, 'id': 'omelette', 'src': '/static/foodstim60/omelette.jpg', 'key': 'u', 'origWidth': 410, 'origHeight': 409, 'width': 410, 'height': 409, 'widthPercent': 0.45, 'rescaleHeight': False, 'trialN': 14, 'loaded': True, 'loadedTime': 9973.70000076294, 'positionName': 'LEFT', 'positionCoords': [281.2, 245.5], 'bid': 4.29}, {'imgObject': {}, 'id': 'luckycharms', 'src': '/static/foodstim60/luckycharms.jpg', 'key': 'i', 'origWidth': 410, 'origHeight': 409, 'width': 410, 'height': 409, 'widthPercent': 0.45, 'rescaleHeight': False, 'trialN': 14, 'loaded': True, 'loadedTime': 9909, 'positionName': 'RIGHT', 'positionCoords': [748.8, 245.5], 'bid': 3.02}]",30032.5,1669834173962,omelette,luckycharms,4.29,3.02,-1.27,omelette,602.3000011444092,605,604.8000011444092,True,u,31139.80000114441,1107.3000011444092,1669834175069,1107,HRV,HRV_0205,2022-11-30 18:53:25
15,"[{'imgObject': {}, 'id': 'roastedpotatoes', 'src': '/static/foodstim60/roastedpotatoes.jpg', 'key': 'u', 'origWidth': 409, 'origHeight': 410, 'width': 409, 'height': 410, 'widthPercent': 0.45, 'rescaleHeight': False, 'trialN': 15, 'loaded': True, 'loadedTime': 10023.900001525879, 'positionName': 'LEFT', 'positionCoords': [282.2, 245], 'bid': 3.95}, {'imgObject': {}, 'id': 'Grapes', 'src': '/static/foodstim60/Grapes.jpg', 'key': 'i', 'origWidth': 411, 'origHeight': 411, 'width': 411, 'height': 411, 'widthPercent': 0.45, 'rescaleHeight': False, 'trialN': 15, 'loaded': True, 'loadedTime': 10036.30000114441, 'positionName': 'RIGHT', 'positionCoords': [748.8, 244.5], 'bid': 4.5600000000000005}]",31140.0,1669834175070,roastedpotatoes,Grapes,3.95,4.5600000000000005,0.6100000000000003,roastedpotatoes,688.9000015258789,691,691.4000015258789,True,u,32331.90000152588,1191.900001525879,1669834176262,1192,HRV,HRV_0205,2022-11-30 18:53:25
16,"[{'imgObject': {}, 'id': 'Grapes', 'src': '/static/foodstim60/Grapes.jpg', 'key': 'u', 'origWidth': 411, 'origHeight': 411, 'width': 411, 'height': 411, 'widthPercent': 0.45, 'rescaleHeight': False, 'trialN': 16, 'loaded': True, 'loadedTime': 10035.30000114441, 'positionName': 'LEFT', 'positionCoords': [280.2, 244.5], 'bid': 4.5600000000000005}, {'imgObject': {}, 'id': 'baked potato', 'src': '/static/foodstim60/baked potato.jpg', 'key': 'i', 'origWidth': 409, 'origHeight': 410, 'width': 409, 'height': 410, 'widthPercent': 0.45, 'rescaleHeight': False, 'trialN': 16, 'loaded': True, 'loadedTime': 9859.70000076294, 'positionName': 'RIGHT', 'positionCoords': [748.8, 245], 'bid': 3.06}]",32332.10000038147,1669834176262,Grapes,baked potato,4.5600000000000005,3.06,-1.5000000000000004,Grapes,807.8000011444092,810,810.3999996185303,True,u,33644.30000114441,1312.2000007629395,1669834177574,1312,HRV,HRV_0205,2022-11-30 18:53:25
17,"[{'imgObject': {}, 'id': 'cheerios', 'src': '/static/foodstim60/cheerios.jpg', 'key': 'u', 'origWidth': 409, 'origHeight': 410, 'width': 409, 'height': 410, 'widthPercent': 0.45, 'rescaleHeight': False, 'trialN': 17, 'loaded': True, 'loadedTime': 10047.400001525879, 'positionName': 'LEFT', 'positionCoords': [282.2, 245], 'bid': 3.13}, {'imgObject': {}, 'id': 'baked potato', 'src': '/static/foodstim60/baked potato.jpg', 'key': 'i', 'origWidth': 409, 'origHeight': 410, 'width': 409, 'height': 410, 'widthPercent': 0.45, 'rescaleHeight': False, 'trialN': 17, 'loaded': True, 'loadedTime': 9859.900001525879, 'positionName': 'RIGHT', 'positionCoords': [748.8, 245], 'bid': 3.06}]",33644.5,1669834177574,cheerios,baked potato,3.13,3.06,-0.06999999999999984,baked potato,1000.1000003814697,1003,1002.8000011444092,True,i,35152.60000038147,1508.1000003814697,1669834179082,1508,HRV,HRV_0205,2022-11-30 18:53:25
18,"[{'imgObject': {}, 'id': 'corn cob', 'src': '/static/foodstim60/corn cob.jpg', 'key': 'u', 'origWidth': 411, 'origHeight': 411, 'width': 411, 'height': 411, 'widthPercent': 0.45, 'rescaleHeight': False, 'trialN': 18, 'loaded': True, 'loadedTime': 10061.10000038147, 'positionName': 'LEFT', 'positionCoords': [280.2, 244.5], 'bid': 4.23}, {'imgObject': {}, 'id': 'sweetpotato', 'src': '/static/foodstim60/sweetpotato.jpg', 'key': 'i', 'origWidth': 410, 'origHeight': 410, 'width': 410, 'height': 410, 'widthPercent': 0.45, 'rescaleHeight': False, 'trialN': 18, 'loaded': True, 'loadedTime': 10073.10000038147, 'positionName': 'RIGHT', 'positionCoords': [748.8, 245], 'bid': 7.34}]",35152.80000114441,1669834179082,corn cob,sweetpotato,4.23,7.34,3.1099999999999994,sweetpotato,635.0,638,637.6000003814697,True,i,36293.10000038147,1140.2999992370605,1669834180223,1141,HRV,HRV_0205,2022-11-30 18:53:25
19,"[{'imgObject': {}, 'id': 'strawberries', 'src': '/static/foodstim60/strawberries.jpg', 'key': 'u', 'origWidth': 410, 'origHeight': 410, 'width': 410, 'height': 410, 'widthPercent': 0.45, 'rescaleHeight': False, 'trialN': 19, 'loaded': True, 'loadedTime': 10086, 'positionName': 'LEFT', 'positionCoords': [281.2, 245], 'bid': 4.59}, {'imgObject': {}, 'id': 'Grapes', 'src': '/static/foodstim60/Grapes.jpg', 'key': 'i', 'origWidth': 411, 'origHeight': 411, 'width': 411, 'height': 411, 'widthPercent': 0.45, 'rescaleHeight': False, 'trialN': 19, 'loaded': True, 'loadedTime': 10036.5, 'positionName': 'RIGHT', 'positionCoords': [748.8, 244.5], 'bid': 4.5600000000000005}]",36293.30000114441,1669834180223,strawberries,Grapes,4.59,4.5600000000000005,-0.02999999999999936,Grapes,1171.5,1175,1174.6999988555908,True,i,37973.20000076294,1679.8999996185303,1669834181903,1680,HRV,HRV_0205,2022-11-30 18:53:25
20,"[{'imgObject': {}, 'id': 'chicken nuggets2', 'src': '/static/foodstim60/chicken nuggets2.jpg', 'key': 'u', 'origWidth': 410, 'origHeight': 409, 'width': 410, 'height': 409, 'widthPercent': 0.45, 'rescaleHeight': False, 'trialN': 20, 'loaded': True, 'loadedTime': 10088.400001525879, 'positionName': 'LEFT', 'positionCoords': [281.2, 245.5], 'bid': 5.3100000000000005}, {'imgObject': {}, 'id': 'tacos', 'src': '/static/foodstim60/tacos.jpg', 'key': 'i', 'origWidth': 411, 'origHeight': 411, 'width': 411, 'height': 411, 'widthPercent': 0.45, 'rescaleHeight': False, 'trialN': 20, 'loaded': True, 'loadedTime': 9792.400001525879, 'positionName': 'RIGHT', 'positionCoords': [748.8, 244.5], 'bid': 6.54}]",37973.40000152588,1669834181903,chicken nuggets2,tacos,5.3100000000000005,6.54,1.2299999999999995,tacos,710.3999996185303,714,713.5999984741211,True,i,39192.30000114441,1218.8999996185303,1669834183122,1219,HRV,HRV_0205,2022-11-30 18:53:25
21,"[{'imgObject': {}, 'id': 'salad w chicken', 'src': '/static/foodstim60/salad w chicken.jpg', 'key': 'u', 'origWidth': 411, 'origHeight': 411, 'width': 411, 'height': 411, 'widthPercent': 0.45, 'rescaleHeight': False, 'trialN': 21, 'loaded': True, 'loadedTime': 9872, 'positionName': 'LEFT', 'positionCoords': [280.2, 244.5], 'bid': 5.19}, {'imgObject': {}, 'id': 'hashbrowns', 'src': '/static/foodstim60/hashbrowns.jpg', 'key': 'i', 'origWidth': 411, 'origHeight': 410, 'width': 411, 'height': 410, 'widthPercent': 0.45, 'rescaleHeight': False, 'trialN': 21, 'loaded': True, 'loadedTime': 10088.80000114441, 'positionName': 'RIGHT', 'positionCoords': [748.8, 245], 'bid': 2.18}]",39192.5,1669834183122,salad w chicken,hashbrowns,5.19,2.18,-3.0100000000000002,salad w chicken,815.0,819,818.7000007629395,True,u,40515.60000038147,1323.1000003814697,1669834184445,1323,HRV,HRV_0205,2022-11-30 18:53:25
22,"[{'imgObject': {}, 'id': 'eggsalad', 'src': '/static/foodstim60/eggsalad.jpg', 'key': 'u', 'origWidth': 410, 'origHeight': 409, 'width': 410, 'height': 409, 'widthPercent': 0.45, 'rescaleHeight': False, 'trialN': 22, 'loaded': True, 'loadedTime': 10103.10000038147, 'positionName': 'LEFT', 'positionCoords': [281.2, 245.5], 'bid': 3.0500000000000003}, {'imgObject': {}, 'id': 'mango', 'src': '/static/foodstim60/mango.jpg', 'key': 'i', 'origWidth': 411, 'origHeight': 411, 'width': 411, 'height': 411, 'widthPercent': 0.45, 'rescaleHeight': False, 'trialN': 22, 'loaded': True, 'loadedTime': 10116.20000076294, 'positionName': 'RIGHT', 'positionCoords': [748.8, 244.5], 'bid': 1.9}]",40515.80000114441,1669834184445,eggsalad,mango,3.0500000000000003,1.9,-1.1500000000000004,eggsalad,1022.7999992370605,1026,1025.5,True,u,42045.20000076294,1529.3999996185303,1669834185975,1530,HRV,HRV_0205,2022-11-30 18:53:25
23,"[{'imgObject': {}, 'id': 'eggs', 'src': '/static/foodstim60/eggs.jpg', 'key': 'u', 'origWidth': 409, 'origHeight': 409, 'width': 409, 'height': 409, 'widthPercent': 0.45, 'rescaleHeight': False, 'trialN': 23, 'loaded': True, 'loadedTime': 10116.5, 'positionName': 'LEFT', 'positionCoords': [282.2, 245.5], 'bid': 4.84}, {'imgObject': {}, 'id': 'cherry tomato', 'src': '/static/foodstim60/cherry tomato.jpg', 'key': 'i', 'origWidth': 410, 'origHeight': 410, 'width': 410, 'height': 410, 'widthPercent': 0.45, 'rescaleHeight': False, 'trialN': 23, 'loaded': True, 'loadedTime': 9819.30000114441, 'positionName': 'RIGHT', 'positionCoords': [748.8, 245], 'bid': 1.77}]",42045.5,1669834185975,eggs,cherry tomato,4.84,1.77,-3.07,eggs,595.1000003814697,598,597.8000011444092,True,u,43146.20000076294,1100.7000007629395,1669834187076,1101,HRV,HRV_0205,2022-11-30 18:53:25
24,"[{'imgObject': {}, 'id': 'steak', 'src': '/static/foodstim60/steak.jpg', 'key': 'u', 'origWidth': 410, 'origHeight': 410, 'width': 410, 'height': 410, 'widthPercent': 0.45, 'rescaleHeight': False, 'trialN': 24, 'loaded': True, 'loadedTime': 10119, 'positionName': 'LEFT', 'positionCoords': [281.2, 245], 'bid': 6.04}, {'imgObject': {}, 'id': 'bagel plain', 'src': '/static/foodstim60/bagel plain.jpg', 'key': 'i', 'origWidth': 410, 'origHeight': 410, 'width': 410, 'height': 410, 'widthPercent': 0.45, 'rescaleHeight': False, 'trialN': 24, 'loaded': True, 'loadedTime': 10142.60000038147, 'positionName': 'RIGHT', 'positionCoords': [748.8, 245], 'bid': 6.2}]",43146.40000152588,1669834187076,steak,bagel plain,6.04,6.2,0.16000000000000014,steak,690.1999988555908,693,692.7999992370605,True,u,44344.5,1198.099998474121,1669834188274,1198,HRV,HRV_0205,2022-11-30 18:53:25
25,"[{'imgObject': {}, 'id': 'cheerios', 'src': '/static/foodstim60/cheerios.jpg', 'key': 'u', 'origWidth': 409, 'origHeight': 410, 'width': 409, 'height': 410, 'widthPercent': 0.45, 'rescaleHeight': False, 'trialN': 25, 'loaded': True, 'loadedTime': 10048.30000114441, 'positionName': 'LEFT', 'positionCoords': [282.2, 245], 'bid': 3.13}, {'imgObject': {}, 'id': 'eggsalad', 'src': '/static/foodstim60/eggsalad.jpg', 'key': 'i', 'origWidth': 410, 'origHeight': 409, 'width': 410, 'height': 409, 'widthPercent': 0.45, 'rescaleHeight': False, 'trialN': 25, 'loaded': True, 'loadedTime': 10102.20000076294, 'positionName': 'RIGHT', 'positionCoords': [748.8, 245.5], 'bid': 3.0500000000000003}]",44344.60000038147,1669834188274,cheerios,eggsalad,3.13,3.0500000000000003,-0.07999999999999963,eggsalad,884.8000011444092,888,887.5,True,i,45737.0,1392.3999996185303,1669834189667,1393,HRV,HRV_0205,2022-11-30 18:53:25
26,"[{'imgObject': {}, 'id': 'mango', 'src': '/static/foodstim60/mango.jpg', 'key': 'u', 'origWidth': 411, 'origHeight': 411, 'width': 411, 'height': 411, 'widthPercent': 0.45, 'rescaleHeight': False, 'trialN': 26, 'loaded': True, 'loadedTime': 10114.400001525879, 'positionName': 'LEFT', 'positionCoords': [280.2, 244.5], 'bid': 1.9}, {'imgObject': {}, 'id': 'veggieswithdip', 'src': '/static/foodstim60/veggieswithdip.jpg', 'key': 'i', 'origWidth': 409, 'origHeight': 409, 'width': 409, 'height': 409, 'widthPercent': 0.45, 'rescaleHeight': False, 'trialN': 26, 'loaded': True, 'loadedTime': 9996.900001525879, 'positionName': 'RIGHT', 'positionCoords': [748.8, 245.5], 'bid': 2.79}]",45737.10000038147,1669834189667,mango,veggieswithdip,1.9,2.79,0.8900000000000001,veggieswithdip,966.3999996185303,969,969.3000011444092,True,i,47211.70000076294,1474.6000003814697,1669834191141,1474,HRV,HRV_0205,2022-11-30 18:53:25
27,"[{'imgObject': {}, 'id': 'eggs', 'src': '/static/foodstim60/eggs.jpg', 'key': 'u', 'origWidth': 409, 'origHeight': 409, 'width': 409, 'height': 409, 'widthPercent': 0.45, 'rescaleHeight': False, 'trialN': 27, 'loaded': True, 'loadedTime': 10117.70000076294, 'positionName': 'LEFT', 'positionCoords': [282.2, 245.5], 'bid': 4.84}, {'imgObject': {}, 'id': 'apple slices', 'src': '/static/foodstim60/apple slices.jpg', 'key': 'i', 'origWidth': 409, 'origHeight': 410, 'width': 409, 'height': 410, 'widthPercent': 0.45, 'rescaleHeight': False, 'trialN': 27, 'loaded': True, 'loadedTime': 10145, 'positionName': 'RIGHT', 'positionCoords': [748.8, 245], 'bid': 4.83}]",47212.0,1669834191142,eggs,apple slices,4.84,4.83,-0.009999999999999787,eggs,682.4000015258789,685,684.9000015258789,True,u,48402.20000076294,1190.2000007629395,1669834192332,1190,HRV,HRV_0205,2022-11-30 18:53:25
28,"[{'imgObject': {}, 'id': 'kiwi', 'src': '/static/foodstim60/kiwi.jpg', 'key': 'u', 'origWidth': 410, 'origHeight': 410, 'width': 410, 'height': 410, 'widthPercent': 0.45, 'rescaleHeight': False, 'trialN': 28, 'loaded': True, 'loadedTime': 10143.70000076294, 'positionName': 'LEFT', 'positionCoords': [281.2, 245], 'bid': 2.44}, {'imgObject': {}, 'id': 'turkeysandwich', 'src': '/static/foodstim60/turkeysandwich.jpg', 'key': 'i', 'origWidth': 409, 'origHeight': 409, 'width': 409, 'height': 409, 'widthPercent': 0.45, 'rescaleHeight': False, 'trialN': 28, 'loaded': True, 'loadedTime': 10154.70000076294, 'positionName': 'RIGHT', 'positionCoords': [748.8, 245.5], 'bid': 5.23}]",48402.40000152588,1669834192332,kiwi,turkeysandwich,2.44,5.23,2.7900000000000005,turkeysandwich,843.0,846,845.5999984741211,True,i,49753.30000114441,1350.8999996185303,1669834193683,1351,HRV,HRV_0205,2022-11-30 18:53:25
29,"[{'imgObject': {}, 'id': 'veggieswithdip', 'src': '/static/foodstim60/veggieswithdip.jpg', 'key': 'u', 'origWidth': 409, 'origHeight': 409, 'width': 409, 'height': 409, 'widthPercent': 0.45, 'rescaleHeight': False, 'trialN': 29, 'loaded': True, 'loadedTime': 9997.70000076294, 'positionName': 'LEFT', 'positionCoords': [282.2, 245.5], 'bid': 2.79}, {'imgObject': {}, 'id': 'baked potato', 'src': '/static/foodstim60/baked potato.jpg', 'key': 'i', 'origWidth': 409, 'origHeight': 410, 'width': 409, 'height': 410, 'widthPercent': 0.45, 'rescaleHeight': False, 'trialN': 29, 'loaded': True, 'loadedTime': 9859.70000076294, 'positionName': 'RIGHT', 'positionCoords': [748.8, 245], 'bid': 3.06}]",49753.40000152588,1669834193683,veggieswithdip,baked potato,2.79,3.06,0.27,baked potato,653.0,657,656.5999984741211,True,i,50910.30000114441,1156.8999996185303,1669834194840,1157,HRV,HRV_0205,2022-11-30 18:53:25
30,"[{'imgObject': {}, 'id': 'olives', 'src': '/static/foodstim60/olives.jpg', 'key': 'u', 'origWidth': 410, 'origHeight': 410, 'width': 410, 'height': 410, 'widthPercent': 0.45, 'rescaleHeight': False, 'trialN': 30, 'loaded': True, 'loadedTime': 10156.10000038147, 'positionName': 'LEFT', 'positionCoords': [281.2, 245], 'bid': 1.06}, {'imgObject': {}, 'id': 'Tribe humus pita', 'src': '/static/foodstim60/Tribe humus pita.jpg', 'key': 'i', 'origWidth': 411, 'origHeight': 411, 'width': 411, 'height': 411, 'widthPercent': 0.45, 'rescaleHeight': False, 'trialN': 30, 'loaded': True, 'loadedTime': 10167.10000038147, 'positionName': 'RIGHT', 'positionCoords': [748.8, 244.5], 'bid': 2.93}]",50910.5,1669834194840,olives,Tribe humus pita,1.06,2.93,1.87,Tribe humus pita,934.5,937,936.9000015258789,True,i,52350.5,1440.0,1669834196280,1440,HRV,HRV_0205,2022-11-30 18:53:25
31,"[{'imgObject': {}, 'id': 'apple slices', 'src': '/static/foodstim60/apple slices.jpg', 'key': 'u', 'origWidth': 409, 'origHeight': 410, 'width': 409, 'height': 410, 'widthPercent': 0.45, 'rescaleHeight': False, 'trialN': 31, 'loaded': True, 'loadedTime': 10144.30000114441, 'positionName': 'LEFT', 'positionCoords': [282.2, 245], 'bid': 4.83}, {'imgObject': {}, 'id': 'Grapes', 'src': '/static/foodstim60/Grapes.jpg', 'key': 'i', 'origWidth': 411, 'origHeight': 411, 'width': 411, 'height': 411, 'widthPercent': 0.45, 'rescaleHeight': False, 'trialN': 31, 'loaded': True, 'loadedTime': 10036.5, 'positionName': 'RIGHT', 'positionCoords': [748.8, 244.5], 'bid': 4.5600000000000005}]",52350.70000076294,1669834196280,apple slices,Grapes,4.83,4.5600000000000005,-0.2699999999999996,Grapes,667.6000003814697,671,670.1000003814697,True,i,53521.90000152588,1171.2000007629395,1669834197452,1172,HRV,HRV_0205,2022-11-30 18:53:25
32,"[{'imgObject': {}, 'id': 'cantaloupe', 'src': '/static/foodstim60/cantaloupe.jpg', 'key': 'u', 'origWidth': 409, 'origHeight': 409, 'width': 409, 'height': 409, 'widthPercent': 0.45, 'rescaleHeight': False, 'trialN': 32, 'loaded': True, 'loadedTime': 9919.20000076294, 'positionName': 'LEFT', 'positionCoords': [282.2, 245.5], 'bid': 3.79}, {'imgObject': {}, 'id': 'hashbrowns', 'src': '/static/foodstim60/hashbrowns.jpg', 'key': 'i', 'origWidth': 411, 'origHeight': 410, 'width': 411, 'height': 410, 'widthPercent': 0.45, 'rescaleHeight': False, 'trialN': 32, 'loaded': True, 'loadedTime': 10089.80000114441, 'positionName': 'RIGHT', 'positionCoords': [748.8, 245], 'bid': 2.18}]",53522.10000038147,1669834197452,cantaloupe,hashbrowns,3.79,2.18,-1.6099999999999999,cantaloupe,1355.1000003814697,1358,1358.0,True,u,55384.10000038147,1862.0,1669834199314,1862,HRV,HRV_0205,2022-11-30 18:53:25
33,"[{'imgObject': {}, 'id': 'seaweed', 'src': '/static/foodstim60/seaweed.jpg', 'key': 'u', 'origWidth': 410, 'origHeight': 410, 'width': 410, 'height': 410, 'widthPercent': 0.45, 'rescaleHeight': False, 'trialN': 33, 'loaded': True, 'loadedTime': 10165.900001525879, 'positionName': 'LEFT', 'positionCoords': [281.2, 245], 'bid': 0.65}, {'imgObject': {}, 'id': 'hashbrowns', 'src': '/static/foodstim60/hashbrowns.jpg', 'key': 'i', 'origWidth': 411, 'origHeight': 410, 'width': 411, 'height': 410, 'widthPercent': 0.45, 'rescaleHeight': False, 'trialN': 33, 'loaded': True, 'loadedTime': 10101.70000076294, 'positionName': 'RIGHT', 'positionCoords': [748.8, 245], 'bid': 2.18}]",55384.20000076294,1669834199314,seaweed,hashbrowns,0.65,2.18,1.5300000000000002,hashbrowns,614.1000003814697,617,616.6000003814697,True,i,56503.70000076294,1119.5,1669834200433,1119,HRV,HRV_0205,2022-11-30 18:53:25
34,"[{'imgObject': {}, 'id': 'granola w milk', 'src': '/static/foodstim60/granola w milk.jpg', 'key': 'u', 'origWidth': 410, 'origHeight': 410, 'width': 410, 'height': 410, 'widthPercent': 0.45, 'rescaleHeight': False, 'trialN': 34, 'loaded': True, 'loadedTime': 9849.60000038147, 'positionName': 'LEFT', 'positionCoords': [281.2, 245], 'bid': 1.94}, {'imgObject': {}, 'id': 'mango', 'src': '/static/foodstim60/mango.jpg', 'key': 'i', 'origWidth': 411, 'origHeight': 411, 'width': 411, 'height': 411, 'widthPercent': 0.45, 'rescaleHeight': False, 'trialN': 34, 'loaded': True, 'loadedTime': 10116, 'positionName': 'RIGHT', 'positionCoords': [748.8, 244.5], 'bid': 1.9}]",56503.80000114441,1669834200434,granola w milk,mango,1.94,1.9,-0.040000000000000036,granola w milk,916.3999996185303,919,919.7999992370605,True,u,57926.20000076294,1422.3999996185303,1669834201856,1422,HRV,HRV_0205,2022-11-30 18:53:25
35,"[{'imgObject': {}, 'id': 'bagel and cc', 'src': '/static/foodstim60/bagel and cc.jpg', 'key': 'u', 'origWidth': 410, 'origHeight': 410, 'width': 410, 'height': 410, 'widthPercent': 0.45, 'rescaleHeight': False, 'trialN': 35, 'loaded': True, 'loadedTime': 9757.5, 'positionName': 'LEFT', 'positionCoords': [281.2, 245], 'bid': 6.36}, {'imgObject': {}, 'id': 'burger', 'src': '/static/foodstim60/burger.jpg', 'key': 'i', 'origWidth': 409, 'origHeight': 409, 'width': 409, 'height': 409, 'widthPercent': 0.45, 'rescaleHeight': False, 'trialN': 35, 'loaded': True, 'loadedTime': 10179.30000114441, 'positionName': 'RIGHT', 'positionCoords': [748.8, 245.5], 'bid': 5.25}]",57926.30000114441,1669834201856,bagel and cc,burger,6.36,5.25,-1.1100000000000003,burger,574.6000003814697,578,577.6000003814697,True,i,59005.10000038147,1078.7999992370605,1669834202935,1079,HRV,HRV_0205,2022-11-30 18:53:25
36,"[{'imgObject': {}, 'id': 'turkeysandwich', 'src': '/static/foodstim60/turkeysandwich.jpg', 'key': 'u', 'origWidth': 409, 'origHeight': 409, 'width': 409, 'height': 409, 'widthPercent': 0.45, 'rescaleHeight': False, 'trialN': 36, 'loaded': True, 'loadedTime': 10146.30000114441, 'positionName': 'LEFT', 'positionCoords': [282.2, 245.5], 'bid': 5.23}, {'imgObject': {}, 'id': 'salmon', 'src': '/static/foodstim60/salmon.jpg', 'key': 'i', 'origWidth': 410, 'origHeight': 409, 'width': 410, 'height': 409, 'widthPercent': 0.45, 'rescaleHeight': False, 'trialN': 36, 'loaded': True, 'loadedTime': 10177.60000038147, 'positionName': 'RIGHT', 'positionCoords': [748.8, 245.5], 'bid': 5.3}]",59005.40000152588,1669834202935,turkeysandwich,salmon,5.23,5.3,0.0699999999999994,turkeysandwich,869.5999984741211,873,872.5,True,u,60378.60000038147,1373.1999988555908,1669834204308,1373,HRV,HRV_0205,2022-11-30 18:53:25
37,"[{'imgObject': {}, 'id': 'veggieswithdip', 'src': '/static/foodstim60/veggieswithdip.jpg', 'key': 'u', 'origWidth': 409, 'origHeight': 409, 'width': 409, 'height': 409, 'widthPercent': 0.45, 'rescaleHeight': False, 'trialN': 37, 'loaded': True, 'loadedTime': 9997.30000114441, 'positionName': 'LEFT', 'positionCoords': [282.2, 245.5], 'bid': 2.79}, {'imgObject': {}, 'id': 'froot loops w milk', 'src': '/static/foodstim60/froot loops w milk.jpg', 'key': 'i', 'origWidth': 410, 'origHeight': 410, 'width': 410, 'height': 410, 'widthPercent': 0.45, 'rescaleHeight': False, 'trialN': 37, 'loaded': True, 'loadedTime': 10180.400001525879, 'positionName': 'RIGHT', 'positionCoords': [748.8, 245], 'bid': 2.97}]",60378.80000114441,1669834204309,veggieswithdip,froot loops w milk,2.79,2.97,0.18000000000000016,veggieswithdip,716.2999992370605,720,720.0,True,u,61604.10000038147,1225.2999992370605,1669834205534,1225,HRV,HRV_0205,2022-11-30 18:53:25
38,"[{'imgObject': {}, 'id': 'corn cob', 'src': '/static/foodstim60/corn cob.jpg', 'key': 'u', 'origWidth': 411, 'origHeight': 411, 'width': 411, 'height': 411, 'widthPercent': 0.45, 'rescaleHeight': False, 'trialN': 38, 'loaded': True, 'loadedTime': 10061.400001525879, 'positionName': 'LEFT', 'positionCoords': [280.2, 244.5], 'bid': 4.23}, {'imgObject': {}, 'id': 'cantaloupe', 'src': '/static/foodstim60/cantaloupe.jpg', 'key': 'i', 'origWidth': 409, 'origHeight': 409, 'width': 409, 'height': 409, 'widthPercent': 0.45, 'rescaleHeight': False, 'trialN': 38, 'loaded': True, 'loadedTime': 9928.30000114441, 'positionName': 'RIGHT', 'positionCoords': [748.8, 245.5], 'bid': 3.79}]",61604.30000114441,1669834205534,corn cob,cantaloupe,4.23,3.79,-0.4400000000000004,corn cob,650.6000003814697,653,653.1000003814697,True,u,62762.70000076294,1158.3999996185303,1669834206692,1158,HRV,HRV_0205,2022-11-30 18:53:25
39,"[{'imgObject': {}, 'id': 'cocktailshrimp', 'src': '/static/foodstim60/cocktailshrimp.jpg', 'key': 'u', 'origWidth': 410, 'origHeight': 410, 'width': 410, 'height': 410, 'widthPercent': 0.45, 'rescaleHeight': False, 'trialN': 39, 'loaded': True, 'loadedTime': 10191.30000114441, 'positionName': 'LEFT', 'positionCoords': [281.2, 245], 'bid': 4.94}, {'imgObject': {}, 'id': 'bagel plain', 'src': '/static/foodstim60/bagel plain.jpg', 'key': 'i', 'origWidth': 410, 'origHeight': 410, 'width': 410, 'height': 410, 'widthPercent': 0.45, 'rescaleHeight': False, 'trialN': 39, 'loaded': True, 'loadedTime': 10131.70000076294, 'positionName': 'RIGHT', 'positionCoords': [748.8, 245], 'bid': 6.2}]",62762.80000114441,1669834206693,cocktailshrimp,bagel plain,4.94,6.2,1.2599999999999998,bagel plain,1121.2999992370605,1124,1124.5,True,i,64390.60000038147,1627.7999992370605,1669834208320,1627,HRV,HRV_0205,2022-11-30 18:53:25
40,"[{'imgObject': {}, 'id': 'edamame', 'src': '/static/foodstim60/edamame.jpg', 'key': 'u', 'origWidth': 409, 'origHeight': 410, 'width': 409, 'height': 410, 'widthPercent': 0.45, 'rescaleHeight': False, 'trialN': 40, 'loaded': True, 'loadedTime': 9972.30000114441, 'positionName': 'LEFT', 'positionCoords': [282.2, 245], 'bid': 2.08}, {'imgObject': {}, 'id': 'kiwi', 'src': '/static/foodstim60/kiwi.jpg', 'key': 'i', 'origWidth': 410, 'origHeight': 410, 'width': 410, 'height': 410, 'widthPercent': 0.45, 'rescaleHeight': False, 'trialN': 40, 'loaded': True, 'loadedTime': 10144.10000038147, 'positionName': 'RIGHT', 'positionCoords': [748.8, 245], 'bid': 2.44}]",64390.80000114441,1669834208321,edamame,kiwi,2.08,2.44,0.3599999999999999,kiwi,1392.1000003814697,1394,1394.6999988555908,True,i,66287.0,1896.1999988555908,1669834210217,1896,HRV,HRV_0205,2022-11-30 18:53:25
41,"[{'imgObject': {}, 'id': 'salmon', 'src': '/static/foodstim60/salmon.jpg', 'key': 'u', 'origWidth': 410, 'origHeight': 409, 'width': 410, 'height': 409, 'widthPercent': 0.45, 'rescaleHeight': False, 'trialN': 41, 'loaded': True, 'loadedTime': 10168.400001525879, 'positionName': 'LEFT', 'positionCoords': [281.2, 245.5], 'bid': 5.3}, {'imgObject': {}, 'id': 'blackbeanswithrice', 'src': '/static/foodstim60/blackbeanswithrice.jpg', 'key': 'i', 'origWidth': 410, 'origHeight': 410, 'width': 410, 'height': 410, 'widthPercent': 0.45, 'rescaleHeight': False, 'trialN': 41, 'loaded': True, 'loadedTime': 10213.70000076294, 'positionName': 'RIGHT', 'positionCoords': [748.8, 245], 'bid': 2.68}]",66287.10000038147,1669834210217,salmon,blackbeanswithrice,5.3,2.68,-2.6199999999999997,salmon,1281.7000007629395,1284,1284.3000011444092,True,u,68076.70000076294,1789.6000003814697,1669834212007,1790,HRV,HRV_0205,2022-11-30 18:53:25
42,"[{'imgObject': {}, 'id': 'rigatoni', 'src': '/static/foodstim60/rigatoni.jpg', 'key': 'u', 'origWidth': 411, 'origHeight': 411, 'width': 411, 'height': 411, 'widthPercent': 0.45, 'rescaleHeight': False, 'trialN': 42, 'loaded': True, 'loadedTime': 10215.10000038147, 'positionName': 'LEFT', 'positionCoords': [280.2, 244.5], 'bid': 6.0200000000000005}, {'imgObject': {}, 'id': 'steak', 'src': '/static/foodstim60/steak.jpg', 'key': 'i', 'origWidth': 410, 'origHeight': 410, 'width': 410, 'height': 410, 'widthPercent': 0.45, 'rescaleHeight': False, 'trialN': 42, 'loaded': True, 'loadedTime': 10130.10000038147, 'positionName': 'RIGHT', 'positionCoords': [748.8, 245], 'bid': 6.04}]",68076.90000152588,1669834212007,rigatoni,steak,6.0200000000000005,6.04,0.019999999999999574,rigatoni,1011.8999996185303,1014,1014.7999992370605,True,u,69596.40000152588,1519.5,1669834213526,1519,HRV,HRV_0205,2022-11-30 18:53:25
43,"[{'imgObject': {}, 'id': 'seaweed', 'src': '/static/foodstim60/seaweed.jpg', 'key': 'u', 'origWidth': 410, 'origHeight': 410, 'width': 410, 'height': 410, 'widthPercent': 0.45, 'rescaleHeight': False, 'trialN': 43, 'loaded': True, 'loadedTime': 10166, 'positionName': 'LEFT', 'positionCoords': [281.2, 245], 'bid': 0.65}, {'imgObject': {}, 'id': 'hotdog w must', 'src': '/static/foodstim60/hotdog w must.jpg', 'key': 'i', 'origWidth': 409, 'origHeight': 409, 'width': 409, 'height': 409, 'widthPercent': 0.45, 'rescaleHeight': False, 'trialN': 43, 'loaded': True, 'loadedTime': 10192.20000076294, 'positionName': 'RIGHT', 'positionCoords': [748.8, 245.5], 'bid': 0.79}]",69596.60000038147,1669834213526,seaweed,hotdog w must,0.65,0.79,0.14,hotdog w must,883.2000007629395,887,886.3999996185303,True,i,70987.60000038147,1391.0,1669834214917,1391,HRV,HRV_0205,2022-11-30 18:53:25
44,"[{'imgObject': {}, 'id': 'fried eggs', 'src': '/static/foodstim60/fried eggs.jpg', 'key': 'u', 'origWidth': 410, 'origHeight': 410, 'width': 410, 'height': 410, 'widthPercent': 0.45, 'rescaleHeight': False, 'trialN': 44, 'loaded': True, 'loadedTime': 9773.80000114441, 'positionName': 'LEFT', 'positionCoords': [281.2, 245], 'bid': 5.04}, {'imgObject': {}, 'id': 'granola w milk', 'src': '/static/foodstim60/granola w milk.jpg', 'key': 'i', 'origWidth': 410, 'origHeight': 410, 'width': 410, 'height': 410, 'widthPercent': 0.45, 'rescaleHeight': False, 'trialN': 44, 'loaded': True, 'loadedTime': 9849.5, 'positionName': 'RIGHT', 'positionCoords': [748.8, 245], 'bid': 1.94}]",70987.80000114441,1669834214918,fried eggs,granola w milk,5.04,1.94,-3.1,fried eggs,713.8999996185303,717,717.2999992370605,True,u,72210.30000114441,1222.5,1669834216140,1222,HRV,HRV_0205,2022-11-30 18:53:25
45,"[{'imgObject': {}, 'id': 'sushi w_condiments', 'src': '/static/foodstim60/sushi w_condiments.jpg', 'key': 'u', 'origWidth': 410, 'origHeight': 410, 'width': 410, 'height': 410, 'widthPercent': 0.45, 'rescaleHeight': False, 'trialN': 45, 'loaded': True, 'loadedTime': 10202.400001525879, 'positionName': 'LEFT', 'positionCoords': [281.2, 245], 'bid': 7.41}, {'imgObject': {}, 'id': 'rigatoni', 'src': '/static/foodstim60/rigatoni.jpg', 'key': 'i', 'origWidth': 411, 'origHeight': 411, 'width': 411, 'height': 411, 'widthPercent': 0.45, 'rescaleHeight': False, 'trialN': 45, 'loaded': True, 'loadedTime': 10214.80000114441, 'positionName': 'RIGHT', 'positionCoords': [748.8, 244.5], 'bid': 6.0200000000000005}]",72210.5,1669834216140,sushi w_condiments,rigatoni,7.41,6.0200000000000005,-1.3899999999999997,sushi w_condiments,798.1000003814697,801,800.7000007629395,True,u,73512.90000152588,1302.400001525879,1669834217443,1303,HRV,HRV_0205,2022-11-30 18:53:25
46,"[{'imgObject': {}, 'id': 'burrito', 'src': '/static/foodstim60/burrito.jpg', 'key': 'u', 'origWidth': 410, 'origHeight': 410, 'width': 410, 'height': 410, 'widthPercent': 0.45, 'rescaleHeight': False, 'trialN': 46, 'loaded': True, 'loadedTime': 10216.20000076294, 'positionName': 'LEFT', 'positionCoords': [281.2, 245], 'bid': 7.12}, {'imgObject': {}, 'id': 'sushi w_condiments', 'src': '/static/foodstim60/sushi w_condiments.jpg', 'key': 'i', 'origWidth': 410, 'origHeight': 410, 'width': 410, 'height': 410, 'widthPercent': 0.45, 'rescaleHeight': False, 'trialN': 46, 'loaded': True, 'loadedTime': 10201.80000114441, 'positionName': 'RIGHT', 'positionCoords': [748.8, 245], 'bid': 7.41}]",73513.0,1669834217443,burrito,sushi w_condiments,7.12,7.41,0.29000000000000004,burrito,605.4000015258789,608,608.1000003814697,True,u,74626.30000114441,1113.3000011444092,1669834218556,1113,HRV,HRV_0205,2022-11-30 18:53:25
47,"[{'imgObject': {}, 'id': 'omelette', 'src': '/static/foodstim60/omelette.jpg', 'key': 'u', 'origWidth': 410, 'origHeight': 409, 'width': 410, 'height': 409, 'widthPercent': 0.45, 'rescaleHeight': False, 'trialN': 47, 'loaded': True, 'loadedTime': 9973.70000076294, 'positionName': 'LEFT', 'positionCoords': [281.2, 245.5], 'bid': 4.29}, {'imgObject': {}, 'id': 'seaweed', 'src': '/static/foodstim60/seaweed.jpg', 'key': 'i', 'origWidth': 410, 'origHeight': 410, 'width': 410, 'height': 410, 'widthPercent': 0.45, 'rescaleHeight': False, 'trialN': 47, 'loaded': True, 'loadedTime': 10165.80000114441, 'positionName': 'RIGHT', 'positionCoords': [748.8, 245], 'bid': 0.65}]",74626.5,1669834218556,omelette,seaweed,4.29,0.65,-3.64,omelette,662.8000011444092,670,669.3000011444092,True,u,75797.90000152588,1171.400001525879,1669834219728,1172,HRV,HRV_0205,2022-11-30 18:53:25
48,"[{'imgObject': {}, 'id': 'mashed potato', 'src': '/static/foodstim60/mashed potato.jpg', 'key': 'u', 'origWidth': 409, 'origHeight': 409, 'width': 409, 'height': 409, 'widthPercent': 0.45, 'rescaleHeight': False, 'trialN': 48, 'loaded': True, 'loadedTime': 10217.5, 'positionName': 'LEFT', 'positionCoords': [282.2, 245.5], 'bid': 2.66}, {'imgObject': {}, 'id': 'froot loops w milk', 'src': '/static/foodstim60/froot loops w milk.jpg', 'key': 'i', 'origWidth': 410, 'origHeight': 410, 'width': 410, 'height': 410, 'widthPercent': 0.45, 'rescaleHeight': False, 'trialN': 48, 'loaded': True, 'loadedTime': 10179.60000038147, 'positionName': 'RIGHT', 'positionCoords': [748.8, 245], 'bid': 2.97}]",75798.0,1669834219728,mashed potato,froot loops w milk,2.66,2.97,0.31000000000000005,mashed potato,834.6000003814697,837,837.1000003814697,True,u,77136.10000038147,1338.1000003814697,1669834221066,1338,HRV,HRV_0205,2022-11-30 18:53:25
49,"[{'imgObject': {}, 'id': 'shreddedwheatwithmilk', 'src': '/static/foodstim60/shreddedwheatwithmilk.jpg', 'key': 'u', 'origWidth': 410, 'origHeight': 410, 'width': 410, 'height': 410, 'widthPercent': 0.45, 'rescaleHeight': False, 'trialN': 49, 'loaded': True, 'loadedTime': 10010.400001525879, 'positionName': 'LEFT', 'positionCoords': [281.2, 245], 'bid': 3}, {'imgObject': {}, 'id': 'avocado', 'src': '/static/foodstim60/avocado.jpg', 'key': 'i', 'origWidth': 409, 'origHeight': 409, 'width': 409, 'height': 409, 'widthPercent': 0.45, 'rescaleHeight': False, 'trialN': 49, 'loaded': True, 'loadedTime': 9910.30000114441, 'positionName': 'RIGHT', 'positionCoords': [748.8, 245.5], 'bid': 1.76}]",77136.30000114441,1669834221066,shreddedwheatwithmilk,avocado,3.0,1.76,-1.24,shreddedwheatwithmilk,707.2999992370605,711,710.6999988555908,True,u,78350.10000038147,1213.7999992370605,1669834222280,1214,HRV,HRV_0205,2022-11-30 18:53:25
50,"[{'imgObject': {}, 'id': 'hotdog w must', 'src': '/static/foodstim60/hotdog w must.jpg', 'key': 'u', 'origWidth': 409, 'origHeight': 409, 'width': 409, 'height': 409, 'widthPercent': 0.45, 'rescaleHeight': False, 'trialN': 50, 'loaded': True, 'loadedTime': 10192.20000076294, 'positionName': 'LEFT', 'positionCoords': [282.2, 245.5], 'bid': 0.79}, {'imgObject': {}, 'id': 'popsicles', 'src': '/static/foodstim60/popsicles.jpg', 'key': 'i', 'origWidth': 410, 'origHeight': 410, 'width': 410, 'height': 410, 'widthPercent': 0.45, 'rescaleHeight': False, 'trialN': 50, 'loaded': True, 'loadedTime': 10221.20000076294, 'positionName': 'RIGHT', 'positionCoords': [748.8, 245], 'bid': 1.66}]",78350.30000114441,1669834222280,hotdog w must,popsicles,0.79,1.66,0.8699999999999999,hotdog w must,574.1999988555908,577,576.7999992370605,True,u,79429.40000152588,1079.1000003814697,1669834223359,1079,HRV,HRV_0205,2022-11-30 18:53:25
51,"[{'imgObject': {}, 'id': 'cheerios', 'src': '/static/foodstim60/cheerios.jpg', 'key': 'u', 'origWidth': 409, 'origHeight': 410, 'width': 409, 'height': 410, 'widthPercent': 0.45, 'rescaleHeight': False, 'trialN': 51, 'loaded': True, 'loadedTime': 10058.900001525879, 'positionName': 'LEFT', 'positionCoords': [282.2, 245], 'bid': 3.13}, {'imgObject': {}, 'id': 'strawberries', 'src': '/static/foodstim60/strawberries.jpg', 'key': 'i', 'origWidth': 410, 'origHeight': 410, 'width': 410, 'height': 410, 'widthPercent': 0.45, 'rescaleHeight': False, 'trialN': 51, 'loaded': True, 'loadedTime': 10087, 'positionName': 'RIGHT', 'positionCoords': [748.8, 245], 'bid': 4.59}]",79429.60000038147,1669834223360,cheerios,strawberries,3.13,4.59,1.46,cheerios,662.8000011444092,665,665.3000011444092,True,u,80599.80000114441,1170.2000007629395,1669834224530,1170,HRV,HRV_0205,2022-11-30 18:53:25
52,"[{'imgObject': {}, 'id': 'Tribe humus pita', 'src': '/static/foodstim60/Tribe humus pita.jpg', 'key': 'u', 'origWidth': 411, 'origHeight': 411, 'width': 411, 'height': 411, 'widthPercent': 0.45, 'rescaleHeight': False, 'trialN': 52, 'loaded': True, 'loadedTime': 10167.30000114441, 'positionName': 'LEFT', 'positionCoords': [280.2, 244.5], 'bid': 2.93}, {'imgObject': {}, 'id': 'orange slices', 'src': '/static/foodstim60/orange slices.jpg', 'key': 'i', 'origWidth': 409, 'origHeight': 410, 'width': 409, 'height': 410, 'widthPercent': 0.45, 'rescaleHeight': False, 'trialN': 52, 'loaded': True, 'loadedTime': 10217.60000038147, 'positionName': 'RIGHT', 'positionCoords': [748.8, 245], 'bid': 6.01}]",80600.0,1669834224530,Tribe humus pita,orange slices,2.93,6.01,3.0799999999999996,orange slices,1059.400001525879,1063,1063.1000003814697,True,i,82167.20000076294,1567.2000007629395,1669834226097,1567,HRV,HRV_0205,2022-11-30 18:53:25
53,"[{'imgObject': {}, 'id': 'seaweed', 'src': '/static/foodstim60/seaweed.jpg', 'key': 'u', 'origWidth': 410, 'origHeight': 410, 'width': 410, 'height': 410, 'widthPercent': 0.45, 'rescaleHeight': False, 'trialN': 53, 'loaded': True, 'loadedTime': 10165.70000076294, 'positionName': 'LEFT', 'positionCoords': [281.2, 245], 'bid': 0.65}, {'imgObject': {}, 'id': 'mango', 'src': '/static/foodstim60/mango.jpg', 'key': 'i', 'origWidth': 411, 'origHeight': 411, 'width': 411, 'height': 411, 'widthPercent': 0.45, 'rescaleHeight': False, 'trialN': 53, 'loaded': True, 'loadedTime': 10116.30000114441, 'positionName': 'RIGHT', 'positionCoords': [748.8, 244.5], 'bid': 1.9}]",82167.40000152588,1669834226097,seaweed,mango,0.65,1.9,1.25,mango,1119.0,1123,1122.6999988555908,True,i,83795.40000152588,1628.0,1669834227725,1628,HRV,HRV_0205,2022-11-30 18:53:25
54,"[{'imgObject': {}, 'id': 'rigatoni', 'src': '/static/foodstim60/rigatoni.jpg', 'key': 'u', 'origWidth': 411, 'origHeight': 411, 'width': 411, 'height': 411, 'widthPercent': 0.45, 'rescaleHeight': False, 'trialN': 54, 'loaded': True, 'loadedTime': 10214.900001525879, 'positionName': 'LEFT', 'positionCoords': [280.2, 244.5], 'bid': 6.0200000000000005}, {'imgObject': {}, 'id': 'strawberries', 'src': '/static/foodstim60/strawberries.jpg', 'key': 'i', 'origWidth': 410, 'origHeight': 410, 'width': 410, 'height': 410, 'widthPercent': 0.45, 'rescaleHeight': False, 'trialN': 54, 'loaded': True, 'loadedTime': 10087, 'positionName': 'RIGHT', 'positionCoords': [748.8, 245], 'bid': 4.59}]",83795.60000038147,1669834227726,rigatoni,strawberries,6.0200000000000005,4.59,-1.4300000000000006,rigatoni,728.8000011444092,731,731.8000011444092,True,u,85030.0,1234.3999996185303,1669834228960,1234,HRV,HRV_0205,2022-11-30 18:53:25
55,"[{'imgObject': {}, 'id': 'cherries', 'src': '/static/foodstim60/cherries.jpg', 'key': 'u', 'origWidth': 410, 'origHeight': 411, 'width': 410, 'height': 411, 'widthPercent': 0.45, 'rescaleHeight': False, 'trialN': 55, 'loaded': True, 'loadedTime': 9974.20000076294, 'positionName': 'LEFT', 'positionCoords': [281.2, 244.5], 'bid': 4.25}, {'imgObject': {}, 'id': 'ice cream sundae 002', 'src': '/static/foodstim60/ice cream sundae 002.jpg', 'key': 'i', 'origWidth': 409, 'origHeight': 409, 'width': 409, 'height': 409, 'widthPercent': 0.45, 'rescaleHeight': False, 'trialN': 55, 'loaded': True, 'loadedTime': 10220.10000038147, 'positionName': 'RIGHT', 'positionCoords': [748.8, 245.5], 'bid': 4.29}]",85030.20000076294,1669834228960,cherries,ice cream sundae 002,4.25,4.29,0.040000000000000036,ice cream sundae 002,779.0,782,781.7999992370605,True,i,86316.90000152588,1286.7000007629395,1669834230247,1287,HRV,HRV_0205,2022-11-30 18:53:25
56,"[{'imgObject': {}, 'id': 'hashbrowns', 'src': '/static/foodstim60/hashbrowns.jpg', 'key': 'u', 'origWidth': 411, 'origHeight': 410, 'width': 411, 'height': 410, 'widthPercent': 0.45, 'rescaleHeight': False, 'trialN': 56, 'loaded': True, 'loadedTime': 10101.5, 'positionName': 'LEFT', 'positionCoords': [280.2, 245], 'bid': 2.18}, {'imgObject': {}, 'id': 'yogurt no spoon', 'src': '/static/foodstim60/yogurt no spoon.jpg', 'key': 'i', 'origWidth': 411, 'origHeight': 410, 'width': 411, 'height': 410, 'widthPercent': 0.45, 'rescaleHeight': False, 'trialN': 56, 'loaded': True, 'loadedTime': 10221.30000114441, 'positionName': 'RIGHT', 'positionCoords': [748.8, 245], 'bid': 2}]",86317.10000038147,1669834230247,hashbrowns,yogurt no spoon,2.18,2.0,-0.18000000000000016,yogurt no spoon,1258.1000003814697,1261,1260.8000011444092,True,i,88080.30000114441,1763.2000007629395,1669834232010,1763,HRV,HRV_0205,2022-11-30 18:53:25
57,"[{'imgObject': {}, 'id': 'blueberries', 'src': '/static/foodstim60/blueberries.jpg', 'key': 'u', 'origWidth': 411, 'origHeight': 411, 'width': 411, 'height': 411, 'widthPercent': 0.45, 'rescaleHeight': False, 'trialN': 57, 'loaded': True, 'loadedTime': 10223.400001525879, 'positionName': 'LEFT', 'positionCoords': [280.2, 244.5], 'bid': 5.05}, {'imgObject': {}, 'id': 'cocktailshrimp', 'src': '/static/foodstim60/cocktailshrimp.jpg', 'key': 'i', 'origWidth': 410, 'origHeight': 410, 'width': 410, 'height': 410, 'widthPercent': 0.45, 'rescaleHeight': False, 'trialN': 57, 'loaded': True, 'loadedTime': 10191.400001525879, 'positionName': 'RIGHT', 'positionCoords': [748.8, 245], 'bid': 4.94}]",88080.5,1669834232010,blueberries,cocktailshrimp,5.05,4.94,-0.10999999999999943,cocktailshrimp,918.5,921,920.8000011444092,True,i,89506.5,1426.0,1669834233437,1427,HRV,HRV_0205,2022-11-30 18:53:25
58,"[{'imgObject': {}, 'id': 'orange slices', 'src': '/static/foodstim60/orange slices.jpg', 'key': 'u', 'origWidth': 409, 'origHeight': 410, 'width': 409, 'height': 410, 'widthPercent': 0.45, 'rescaleHeight': False, 'trialN': 58, 'loaded': True, 'loadedTime': 10218.60000038147, 'positionName': 'LEFT', 'positionCoords': [282.2, 245], 'bid': 6.01}, {'imgObject': {}, 'id': 'turkeysandwich', 'src': '/static/foodstim60/turkeysandwich.jpg', 'key': 'i', 'origWidth': 409, 'origHeight': 409, 'width': 409, 'height': 409, 'widthPercent': 0.45, 'rescaleHeight': False, 'trialN': 58, 'loaded': True, 'loadedTime': 10145.400001525879, 'positionName': 'RIGHT', 'positionCoords': [748.8, 245.5], 'bid': 5.23}]",89506.70000076294,1669834233437,orange slices,turkeysandwich,6.01,5.23,-0.7799999999999994,turkeysandwich,636.5,639,639.2999992370605,True,i,90651.0,1144.2999992370605,1669834234581,1144,HRV,HRV_0205,2022-11-30 18:53:25
59,"[{'imgObject': {}, 'id': 'kiwi', 'src': '/static/foodstim60/kiwi.jpg', 'key': 'u', 'origWidth': 410, 'origHeight': 410, 'width': 410, 'height': 410, 'widthPercent': 0.45, 'rescaleHeight': False, 'trialN': 59, 'loaded': True, 'loadedTime': 10143.900001525879, 'positionName': 'LEFT', 'positionCoords': [281.2, 245], 'bid': 2.44}, {'imgObject': {}, 'id': 'hotdog w must', 'src': '/static/foodstim60/hotdog w must.jpg', 'key': 'i', 'origWidth': 409, 'origHeight': 409, 'width': 409, 'height': 409, 'widthPercent': 0.45, 'rescaleHeight': False, 'trialN': 59, 'loaded': True, 'loadedTime': 10201, 'positionName': 'RIGHT', 'positionCoords': [748.8, 245.5], 'bid': 0.79}]",90651.20000076294,1669834234581,kiwi,hotdog w must,2.44,0.79,-1.65,hotdog w must,620.0,623,622.6000003814697,True,i,91774.10000038147,1122.8999996185303,1669834235704,1123,HRV,HRV_0205,2022-11-30 18:53:25
60,"[{'imgObject': {}, 'id': 'corn cob', 'src': '/static/foodstim60/corn cob.jpg', 'key': 'u', 'origWidth': 411, 'origHeight': 411, 'width': 411, 'height': 411, 'widthPercent': 0.45, 'rescaleHeight': False, 'trialN': 60, 'loaded': True, 'loadedTime': 10060.900001525879, 'positionName': 'LEFT', 'positionCoords': [280.2, 244.5], 'bid': 4.23}, {'imgObject': {}, 'id': 'strawberries', 'src': '/static/foodstim60/strawberries.jpg', 'key': 'i', 'origWidth': 410, 'origHeight': 410, 'width': 410, 'height': 410, 'widthPercent': 0.45, 'rescaleHeight': False, 'trialN': 60, 'loaded': True, 'loadedTime': 10086.20000076294, 'positionName': 'RIGHT', 'positionCoords': [748.8, 245], 'bid': 4.59}]",91774.30000114441,1669834235704,corn cob,strawberries,4.23,4.59,0.35999999999999943,strawberries,1017.7999992370605,1021,1020.2999992370605,True,i,93296.0,1521.6999988555908,1669834237226,1522,HRV,HRV_0205,2022-11-30 18:53:25
61,"[{'imgObject': {}, 'id': 'hotdog w must', 'src': '/static/foodstim60/hotdog w must.jpg', 'key': 'u', 'origWidth': 409, 'origHeight': 409, 'width': 409, 'height': 409, 'widthPercent': 0.45, 'rescaleHeight': False, 'trialN': 61, 'loaded': True, 'loadedTime': 10201.20000076294, 'positionName': 'LEFT', 'positionCoords': [282.2, 245.5], 'bid': 0.79}, {'imgObject': {}, 'id': 'granola w milk', 'src': '/static/foodstim60/granola w milk.jpg', 'key': 'i', 'origWidth': 410, 'origHeight': 410, 'width': 410, 'height': 410, 'widthPercent': 0.45, 'rescaleHeight': False, 'trialN': 61, 'loaded': True, 'loadedTime': 9848.400001525879, 'positionName': 'RIGHT', 'positionCoords': [748.8, 245], 'bid': 1.94}]",93296.30000114441,1669834237226,hotdog w must,granola w milk,0.79,1.94,1.15,hotdog w must,734.5,738,738.1000003814697,True,u,94534.70000076294,1238.3999996185303,1669834238465,1239,HRV,HRV_0205,2022-11-30 18:53:25
62,"[{'imgObject': {}, 'id': 'orange slices', 'src': '/static/foodstim60/orange slices.jpg', 'key': 'u', 'origWidth': 409, 'origHeight': 410, 'width': 409, 'height': 410, 'widthPercent': 0.45, 'rescaleHeight': False, 'trialN': 62, 'loaded': True, 'loadedTime': 10218.80000114441, 'positionName': 'LEFT', 'positionCoords': [282.2, 245], 'bid': 6.01}, {'imgObject': {}, 'id': 'Grapes', 'src': '/static/foodstim60/Grapes.jpg', 'key': 'i', 'origWidth': 411, 'origHeight': 411, 'width': 411, 'height': 411, 'widthPercent': 0.45, 'rescaleHeight': False, 'trialN': 62, 'loaded': True, 'loadedTime': 10036.400001525879, 'positionName': 'RIGHT', 'positionCoords': [748.8, 244.5], 'bid': 4.5600000000000005}]",94534.90000152588,1669834238465,orange slices,Grapes,6.01,4.5600000000000005,-1.4499999999999993,orange slices,624.0999984741211,627,626.6999988555908,True,u,95664.20000076294,1129.2999992370605,1669834239594,1129,HRV,HRV_0205,2022-11-30 18:53:25
63,"[{'imgObject': {}, 'id': 'yogurt no spoon', 'src': '/static/foodstim60/yogurt no spoon.jpg', 'key': 'u', 'origWidth': 411, 'origHeight': 410, 'width': 411, 'height': 410, 'widthPercent': 0.45, 'rescaleHeight': False, 'trialN': 63, 'loaded': True, 'loadedTime': 10222.20000076294, 'positionName': 'LEFT', 'positionCoords': [280.2, 245], 'bid': 2}, {'imgObject': {}, 'id': 'froot loops w milk', 'src': '/static/foodstim60/froot loops w milk.jpg', 'key': 'i', 'origWidth': 410, 'origHeight': 410, 'width': 410, 'height': 410, 'widthPercent': 0.45, 'rescaleHeight': False, 'trialN': 63, 'loaded': True, 'loadedTime': 10180.60000038147, 'positionName': 'RIGHT', 'positionCoords': [748.8, 245], 'bid': 2.97}]",95664.40000152588,1669834239594,yogurt no spoon,froot loops w milk,2.0,2.97,0.9700000000000002,yogurt no spoon,863.5999984741211,867,866.1999988555908,True,u,97032.40000152588,1368.0,1669834240963,1369,HRV,HRV_0205,2022-11-30 18:53:25
64,"[{'imgObject': {}, 'id': 'mashed potato', 'src': '/static/foodstim60/mashed potato.jpg', 'key': 'u', 'origWidth': 409, 'origHeight': 409, 'width': 409, 'height': 409, 'widthPercent': 0.45, 'rescaleHeight': False, 'trialN': 64, 'loaded': True, 'loadedTime': 10217.10000038147, 'positionName': 'LEFT', 'positionCoords': [282.2, 245.5], 'bid': 2.66}, {'imgObject': {}, 'id': 'corn cob', 'src': '/static/foodstim60/corn cob.jpg', 'key': 'i', 'origWidth': 411, 'origHeight': 411, 'width': 411, 'height': 411, 'widthPercent': 0.45, 'rescaleHeight': False, 'trialN': 64, 'loaded': True, 'loadedTime': 10061.400001525879, 'positionName': 'RIGHT', 'positionCoords': [748.8, 244.5], 'bid': 4.23}]",97032.60000038147,1669834240963,mashed potato,corn cob,2.66,4.23,1.5700000000000003,corn cob,1012.2000007629395,1015,1015.0,True,i,98552.40000152588,1519.8000011444092,1669834242482,1519,HRV,HRV_0205,2022-11-30 18:53:25
65,"[{'imgObject': {}, 'id': 'salmon', 'src': '/static/foodstim60/salmon.jpg', 'key': 'u', 'origWidth': 410, 'origHeight': 409, 'width': 410, 'height': 409, 'widthPercent': 0.45, 'rescaleHeight': False, 'trialN': 65, 'loaded': True, 'loadedTime': 10177.20000076294, 'positionName': 'LEFT', 'positionCoords': [281.2, 245.5], 'bid': 5.3}, {'imgObject': {}, 'id': 'burger', 'src': '/static/foodstim60/burger.jpg', 'key': 'i', 'origWidth': 409, 'origHeight': 409, 'width': 409, 'height': 409, 'widthPercent': 0.45, 'rescaleHeight': False, 'trialN': 65, 'loaded': True, 'loadedTime': 10179.400001525879, 'positionName': 'RIGHT', 'positionCoords': [748.8, 245.5], 'bid': 5.25}]",98552.5,1669834242483,salmon,burger,5.3,5.25,-0.04999999999999982,salmon,584.3000011444092,587,586.9000015258789,True,u,99644.70000076294,1092.2000007629395,1669834243575,1092,HRV,HRV_0205,2022-11-30 18:53:25
66,"[{'imgObject': {}, 'id': 'bagel plain', 'src': '/static/foodstim60/bagel plain.jpg', 'key': 'u', 'origWidth': 410, 'origHeight': 410, 'width': 410, 'height': 410, 'widthPercent': 0.45, 'rescaleHeight': False, 'trialN': 66, 'loaded': True, 'loadedTime': 10130.80000114441, 'positionName': 'LEFT', 'positionCoords': [281.2, 245], 'bid': 6.2}, {'imgObject': {}, 'id': 'eggsalad', 'src': '/static/foodstim60/eggsalad.jpg', 'key': 'i', 'origWidth': 410, 'origHeight': 409, 'width': 410, 'height': 409, 'widthPercent': 0.45, 'rescaleHeight': False, 'trialN': 66, 'loaded': True, 'loadedTime': 10103.400001525879, 'positionName': 'RIGHT', 'positionCoords': [748.8, 245.5], 'bid': 3.0500000000000003}]",99644.90000152588,1669834243575,bagel plain,eggsalad,6.2,3.0500000000000003,-3.15,bagel plain,627.8999996185303,630,630.5,True,u,100780.60000038147,1135.6999988555908,1669834244711,1136,HRV,HRV_0205,2022-11-30 18:53:25
67,"[{'imgObject': {}, 'id': 'roastedpotatoes', 'src': '/static/foodstim60/roastedpotatoes.jpg', 'key': 'u', 'origWidth': 409, 'origHeight': 410, 'width': 409, 'height': 410, 'widthPercent': 0.45, 'rescaleHeight': False, 'trialN': 67, 'loaded': True, 'loadedTime': 10033.80000114441, 'positionName': 'LEFT', 'positionCoords': [282.2, 245], 'bid': 3.95}, {'imgObject': {}, 'id': 'cocktailshrimp', 'src': '/static/foodstim60/cocktailshrimp.jpg', 'key': 'i', 'origWidth': 410, 'origHeight': 410, 'width': 410, 'height': 410, 'widthPercent': 0.45, 'rescaleHeight': False, 'trialN': 67, 'loaded': True, 'loadedTime': 10191.10000038147, 'positionName': 'RIGHT', 'positionCoords': [748.8, 245], 'bid': 4.94}]",100780.80000114441,1669834244711,roastedpotatoes,cocktailshrimp,3.95,4.94,0.9900000000000002,roastedpotatoes,626.1000003814697,629,629.1999988555908,True,u,101915.30000114441,1134.5,1669834245845,1134,HRV,HRV_0205,2022-11-30 18:53:25
68,"[{'imgObject': {}, 'id': 'turkey sandwich', 'src': '/static/foodstim60/turkey sandwich.jpg', 'key': 'u', 'origWidth': 409, 'origHeight': 409, 'width': 409, 'height': 409, 'widthPercent': 0.45, 'rescaleHeight': False, 'trialN': 68, 'loaded': True, 'loadedTime': 10010.30000114441, 'positionName': 'LEFT', 'positionCoords': [282.2, 245.5], 'bid': 5.73}, {'imgObject': {}, 'id': 'raspberries', 'src': '/static/foodstim60/raspberries.jpg', 'key': 'i', 'origWidth': 411, 'origHeight': 411, 'width': 411, 'height': 411, 'widthPercent': 0.45, 'rescaleHeight': False, 'trialN': 68, 'loaded': True, 'loadedTime': 10224.400001525879, 'positionName': 'RIGHT', 'positionCoords': [748.8, 244.5], 'bid': 4.33}]",101915.60000038147,1669834245846,turkey sandwich,raspberries,5.73,4.33,-1.4000000000000004,turkey sandwich,578.1000003814697,580,580.7000007629395,True,u,102996.5,1080.8999996185303,1669834246927,1081,HRV,HRV_0205,2022-11-30 18:53:25
69,"[{'imgObject': {}, 'id': 'lox', 'src': '/static/foodstim60/lox.jpg', 'key': 'u', 'origWidth': 410, 'origHeight': 411, 'width': 410, 'height': 411, 'widthPercent': 0.45, 'rescaleHeight': False, 'trialN': 69, 'loaded': True, 'loadedTime': 9938.900001525879, 'positionName': 'LEFT', 'positionCoords': [281.2, 244.5], 'bid': 2.76}, {'imgObject': {}, 'id': 'raisin bran w milk', 'src': '/static/foodstim60/raisin bran w milk.jpg', 'key': 'i', 'origWidth': 411, 'origHeight': 411, 'width': 411, 'height': 411, 'widthPercent': 0.45, 'rescaleHeight': False, 'trialN': 69, 'loaded': True, 'loadedTime': 9900, 'positionName': 'RIGHT', 'positionCoords': [748.8, 244.5], 'bid': 2.73}]",102996.70000076294,1669834246927,lox,raisin bran w milk,2.76,2.73,-0.029999999999999805,raisin bran w milk,890.1000003814697,893,892.7999992370605,True,i,104392.20000076294,1395.5,1669834248322,1395,HRV,HRV_0205,2022-11-30 18:53:25
70,"[{'imgObject': {}, 'id': 'turkeysandwich', 'src': '/static/foodstim60/turkeysandwich.jpg', 'key': 'u', 'origWidth': 409, 'origHeight': 409, 'width': 409, 'height': 409, 'widthPercent': 0.45, 'rescaleHeight': False, 'trialN': 70, 'loaded': True, 'loadedTime': 10146.20000076294, 'positionName': 'LEFT', 'positionCoords': [282.2, 245.5], 'bid': 5.23}, {'imgObject': {}, 'id': 'bagel plain', 'src': '/static/foodstim60/bagel plain.jpg', 'key': 'i', 'origWidth': 410, 'origHeight': 410, 'width': 410, 'height': 410, 'widthPercent': 0.45, 'rescaleHeight': False, 'trialN': 70, 'loaded': True, 'loadedTime': 10131.900001525879, 'positionName': 'RIGHT', 'positionCoords': [748.8, 245], 'bid': 6.2}]",104392.40000152588,1669834248323,turkeysandwich,bagel plain,5.23,6.2,0.9699999999999998,bagel plain,878.3999996185303,882,882.2999992370605,True,i,105778.5,1386.099998474121,1669834249709,1386,HRV,HRV_0205,2022-11-30 18:53:25
71,"[{'imgObject': {}, 'id': 'eggs', 'src': '/static/foodstim60/eggs.jpg', 'key': 'u', 'origWidth': 409, 'origHeight': 409, 'width': 409, 'height': 409, 'widthPercent': 0.45, 'rescaleHeight': False, 'trialN': 71, 'loaded': True, 'loadedTime': 10117.80000114441, 'positionName': 'LEFT', 'positionCoords': [282.2, 245.5], 'bid': 4.84}, {'imgObject': {}, 'id': 'banana', 'src': '/static/foodstim60/banana.jpg', 'key': 'i', 'origWidth': 410, 'origHeight': 410, 'width': 410, 'height': 410, 'widthPercent': 0.45, 'rescaleHeight': False, 'trialN': 71, 'loaded': True, 'loadedTime': 9929, 'positionName': 'RIGHT', 'positionCoords': [748.8, 245], 'bid': 6.04}]",105778.70000076294,1669834249709,eggs,banana,4.84,6.04,1.2000000000000002,eggs,808.0,811,810.7999992370605,True,u,107091.10000038147,1312.3999996185303,1669834251021,1312,HRV,HRV_0205,2022-11-30 18:53:25
72,"[{'imgObject': {}, 'id': 'cantaloupe', 'src': '/static/foodstim60/cantaloupe.jpg', 'key': 'u', 'origWidth': 409, 'origHeight': 409, 'width': 409, 'height': 409, 'widthPercent': 0.45, 'rescaleHeight': False, 'trialN': 72, 'loaded': True, 'loadedTime': 9920.10000038147, 'positionName': 'LEFT', 'positionCoords': [282.2, 245.5], 'bid': 3.79}, {'imgObject': {}, 'id': 'fruitsalad', 'src': '/static/foodstim60/fruitsalad.jpg', 'key': 'i', 'origWidth': 410, 'origHeight': 410, 'width': 410, 'height': 410, 'widthPercent': 0.45, 'rescaleHeight': False, 'trialN': 72, 'loaded': True, 'loadedTime': 9950.60000038147, 'positionName': 'RIGHT', 'positionCoords': [748.8, 245], 'bid': 3.61}]",107091.20000076294,1669834251021,cantaloupe,fruitsalad,3.79,3.61,-0.18000000000000016,cantaloupe,730.5,734,733.2999992370605,True,u,108329.70000076294,1238.5,1669834252260,1239,HRV,HRV_0205,2022-11-30 18:53:25
73,"[{'imgObject': {}, 'id': 'mac & cheese', 'src': '/static/foodstim60/mac & cheese.jpg', 'key': 'u', 'origWidth': 410, 'origHeight': 410, 'width': 410, 'height': 410, 'widthPercent': 0.45, 'rescaleHeight': False, 'trialN': 73, 'loaded': True, 'loadedTime': 10234.60000038147, 'positionName': 'LEFT', 'positionCoords': [281.2, 245], 'bid': 7.91}, {'imgObject': {}, 'id': 'chicken nuggets2', 'src': '/static/foodstim60/chicken nuggets2.jpg', 'key': 'i', 'origWidth': 410, 'origHeight': 409, 'width': 410, 'height': 409, 'widthPercent': 0.45, 'rescaleHeight': False, 'trialN': 73, 'loaded': True, 'loadedTime': 10088.5, 'positionName': 'RIGHT', 'positionCoords': [748.8, 245.5], 'bid': 5.3100000000000005}]",108329.90000152588,1669834252260,mac & cheese,chicken nuggets2,7.91,5.3100000000000005,-2.5999999999999996,mac & cheese,791.5999984741211,795,794.3999996185303,True,u,109629.60000038147,1299.6999988555908,1669834253560,1300,HRV,HRV_0205,2022-11-30 18:53:25
74,"[{'imgObject': {}, 'id': 'avocado', 'src': '/static/foodstim60/avocado.jpg', 'key': 'u', 'origWidth': 409, 'origHeight': 409, 'width': 409, 'height': 409, 'widthPercent': 0.45, 'rescaleHeight': False, 'trialN': 74, 'loaded': True, 'loadedTime': 9918.80000114441, 'positionName': 'LEFT', 'positionCoords': [282.2, 245.5], 'bid': 1.76}, {'imgObject': {}, 'id': 'raisin bran w milk', 'src': '/static/foodstim60/raisin bran w milk.jpg', 'key': 'i', 'origWidth': 411, 'origHeight': 411, 'width': 411, 'height': 411, 'widthPercent': 0.45, 'rescaleHeight': False, 'trialN': 74, 'loaded': True, 'loadedTime': 9899.70000076294, 'positionName': 'RIGHT', 'positionCoords': [748.8, 244.5], 'bid': 2.73}]",109629.80000114441,1669834253560,avocado,raisin bran w milk,1.76,2.73,0.97,raisin bran w milk,1171.6999988555908,1174,1174.3999996185303,True,i,111305.70000076294,1675.8999996185303,1669834255236,1676,HRV,HRV_0205,2022-11-30 18:53:25
75,"[{'imgObject': {}, 'id': 'burrito', 'src': '/static/foodstim60/burrito.jpg', 'key': 'u', 'origWidth': 410, 'origHeight': 410, 'width': 410, 'height': 410, 'widthPercent': 0.45, 'rescaleHeight': False, 'trialN': 75, 'loaded': True, 'loadedTime': 10216.20000076294, 'positionName': 'LEFT', 'positionCoords': [281.2, 245], 'bid': 7.12}, {'imgObject': {}, 'id': 'sweetpotato', 'src': '/static/foodstim60/sweetpotato.jpg', 'key': 'i', 'origWidth': 410, 'origHeight': 410, 'width': 410, 'height': 410, 'widthPercent': 0.45, 'rescaleHeight': False, 'trialN': 75, 'loaded': True, 'loadedTime': 10061.5, 'positionName': 'RIGHT', 'positionCoords': [748.8, 245], 'bid': 7.34}]",111305.90000152588,1669834255236,burrito,sweetpotato,7.12,7.34,0.21999999999999975,sweetpotato,653.5999984741211,656,656.0,True,i,112466.5,1160.599998474121,1669834256397,1161,HRV,HRV_0205,2022-11-30 18:53:25
76,"[{'imgObject': {}, 'id': 'rigatoni and sauce', 'src': '/static/foodstim60/rigatoni and sauce.jpg', 'key': 'u', 'origWidth': 410, 'origHeight': 411, 'width': 410, 'height': 411, 'widthPercent': 0.45, 'rescaleHeight': False, 'trialN': 76, 'loaded': True, 'loadedTime': 9888.20000076294, 'positionName': 'LEFT', 'positionCoords': [281.2, 244.5], 'bid': 7.04}, {'imgObject': {}, 'id': 'steak', 'src': '/static/foodstim60/steak.jpg', 'key': 'i', 'origWidth': 410, 'origHeight': 410, 'width': 410, 'height': 410, 'widthPercent': 0.45, 'rescaleHeight': False, 'trialN': 76, 'loaded': True, 'loadedTime': 10130.5, 'positionName': 'RIGHT', 'positionCoords': [748.8, 245], 'bid': 6.04}]",112466.70000076294,1669834256397,rigatoni and sauce,steak,7.04,6.04,-1.0,rigatoni and sauce,881.7000007629395,884,884.5,True,u,113855.20000076294,1388.5,1669834257785,1388,HRV,HRV_0205,2022-11-30 18:53:25
77,"[{'imgObject': {}, 'id': 'fruitsalad', 'src': '/static/foodstim60/fruitsalad.jpg', 'key': 'u', 'origWidth': 410, 'origHeight': 410, 'width': 410, 'height': 410, 'widthPercent': 0.45, 'rescaleHeight': False, 'trialN': 77, 'loaded': True, 'loadedTime': 9960.5, 'positionName': 'LEFT', 'positionCoords': [281.2, 245], 'bid': 3.61}, {'imgObject': {}, 'id': 'omelette', 'src': '/static/foodstim60/omelette.jpg', 'key': 'i', 'origWidth': 410, 'origHeight': 409, 'width': 410, 'height': 409, 'widthPercent': 0.45, 'rescaleHeight': False, 'trialN': 77, 'loaded': True, 'loadedTime': 9973.900001525879, 'positionName': 'RIGHT', 'positionCoords': [748.8, 245.5], 'bid': 4.29}]",113855.30000114441,1669834257786,fruitsalad,omelette,3.61,4.29,0.6800000000000002,fruitsalad,1009.1999988555908,1012,1012.1000003814697,True,u,115371.5,1516.1999988555908,1669834259302,1516,HRV,HRV_0205,2022-11-30 18:53:25
78,"[{'imgObject': {}, 'id': 'olives', 'src': '/static/foodstim60/olives.jpg', 'key': 'u', 'origWidth': 410, 'origHeight': 410, 'width': 410, 'height': 410, 'widthPercent': 0.45, 'rescaleHeight': False, 'trialN': 78, 'loaded': True, 'loadedTime': 10154.900001525879, 'positionName': 'LEFT', 'positionCoords': [281.2, 245], 'bid': 1.06}, {'imgObject': {}, 'id': 'yogurt no spoon', 'src': '/static/foodstim60/yogurt no spoon.jpg', 'key': 'i', 'origWidth': 411, 'origHeight': 410, 'width': 411, 'height': 410, 'widthPercent': 0.45, 'rescaleHeight': False, 'trialN': 78, 'loaded': True, 'loadedTime': 10222.400001525879, 'positionName': 'RIGHT', 'positionCoords': [748.8, 245], 'bid': 2}]",115371.70000076294,1669834259302,olives,yogurt no spoon,1.06,2.0,0.94,yogurt no spoon,909.6000003814697,913,913.2999992370605,True,i,116789.20000076294,1417.5,1669834260719,1417,HRV,HRV_0205,2022-11-30 18:53:25
79,"[{'imgObject': {}, 'id': 'olives', 'src': '/static/foodstim60/olives.jpg', 'key': 'u', 'origWidth': 410, 'origHeight': 410, 'width': 410, 'height': 410, 'widthPercent': 0.45, 'rescaleHeight': False, 'trialN': 79, 'loaded': True, 'loadedTime': 10155.900001525879, 'positionName': 'LEFT', 'positionCoords': [281.2, 245], 'bid': 1.06}, {'imgObject': {}, 'id': 'Grapes', 'src': '/static/foodstim60/Grapes.jpg', 'key': 'i', 'origWidth': 411, 'origHeight': 411, 'width': 411, 'height': 411, 'widthPercent': 0.45, 'rescaleHeight': False, 'trialN': 79, 'loaded': True, 'loadedTime': 10046.900001525879, 'positionName': 'RIGHT', 'positionCoords': [748.8, 244.5], 'bid': 4.5600000000000005}]",116789.30000114441,1669834260720,olives,Grapes,1.06,4.5600000000000005,3.5000000000000004,Grapes,687.1000003814697,689,689.6000003814697,True,i,117982.90000152588,1193.6000003814697,1669834261913,1193,HRV,HRV_0205,2022-11-30 18:53:25
80,"[{'imgObject': {}, 'id': 'omelette', 'src': '/static/foodstim60/omelette.jpg', 'key': 'u', 'origWidth': 410, 'origHeight': 409, 'width': 410, 'height': 409, 'widthPercent': 0.45, 'rescaleHeight': False, 'trialN': 80, 'loaded': True, 'loadedTime': 9973.60000038147, 'positionName': 'LEFT', 'positionCoords': [281.2, 245.5], 'bid': 4.29}, {'imgObject': {}, 'id': 'grilled chicken strips', 'src': '/static/foodstim60/grilled chicken strips.jpg', 'key': 'i', 'origWidth': 410, 'origHeight': 411, 'width': 410, 'height': 411, 'widthPercent': 0.45, 'rescaleHeight': False, 'trialN': 80, 'loaded': True, 'loadedTime': 9950, 'positionName': 'RIGHT', 'positionCoords': [748.8, 244.5], 'bid': 5.5}]",117983.0,1669834261913,omelette,grilled chicken strips,4.29,5.5,1.21,grilled chicken strips,735.3000011444092,738,737.8000011444092,True,i,119224.30000114441,1241.3000011444092,1669834263155,1242,HRV,HRV_0205,2022-11-30 18:53:25
81,"[{'imgObject': {}, 'id': 'blackbeanswithrice', 'src': '/static/foodstim60/blackbeanswithrice.jpg', 'key': 'u', 'origWidth': 410, 'origHeight': 410, 'width': 410, 'height': 410, 'widthPercent': 0.45, 'rescaleHeight': False, 'trialN': 81, 'loaded': True, 'loadedTime': 10204.30000114441, 'positionName': 'LEFT', 'positionCoords': [281.2, 245], 'bid': 2.68}, {'imgObject': {}, 'id': 'popsicles', 'src': '/static/foodstim60/popsicles.jpg', 'key': 'i', 'origWidth': 410, 'origHeight': 410, 'width': 410, 'height': 410, 'widthPercent': 0.45, 'rescaleHeight': False, 'trialN': 81, 'loaded': True, 'loadedTime': 10220.900001525879, 'positionName': 'RIGHT', 'positionCoords': [748.8, 245], 'bid': 1.66}]",119224.5,1669834263155,blackbeanswithrice,popsicles,2.68,1.66,-1.0200000000000002,blackbeanswithrice,1005.6000003814697,1008,1008.2000007629395,True,u,120736.70000076294,1512.2000007629395,1669834264667,1512,HRV,HRV_0205,2022-11-30 18:53:25
82,"[{'imgObject': {}, 'id': 'pear', 'src': '/static/foodstim60/pear.jpg', 'key': 'u', 'origWidth': 411, 'origHeight': 410, 'width': 411, 'height': 410, 'widthPercent': 0.45, 'rescaleHeight': False, 'trialN': 82, 'loaded': True, 'loadedTime': 9831, 'positionName': 'LEFT', 'positionCoords': [280.2, 245], 'bid': 5.18}, {'imgObject': {}, 'id': 'grilled chicken strips', 'src': '/static/foodstim60/grilled chicken strips.jpg', 'key': 'i', 'origWidth': 410, 'origHeight': 411, 'width': 410, 'height': 411, 'widthPercent': 0.45, 'rescaleHeight': False, 'trialN': 82, 'loaded': True, 'loadedTime': 9950.400001525879, 'positionName': 'RIGHT', 'positionCoords': [748.8, 244.5], 'bid': 5.5}]",120736.80000114441,1669834264667,pear,grilled chicken strips,5.18,5.5,0.3200000000000003,grilled chicken strips,1054.2999992370605,1057,1056.8999996185303,True,i,122298.90000152588,1562.1000003814697,1669834266229,1562,HRV,HRV_0205,2022-11-30 18:53:25
83,"[{'imgObject': {}, 'id': 'rigatoni and sauce', 'src': '/static/foodstim60/rigatoni and sauce.jpg', 'key': 'u', 'origWidth': 410, 'origHeight': 411, 'width': 410, 'height': 411, 'widthPercent': 0.45, 'rescaleHeight': False, 'trialN': 83, 'loaded': True, 'loadedTime': 9889.60000038147, 'positionName': 'LEFT', 'positionCoords': [281.2, 244.5], 'bid': 7.04}, {'imgObject': {}, 'id': 'grilled chicken strips', 'src': '/static/foodstim60/grilled chicken strips.jpg', 'key': 'i', 'origWidth': 410, 'origHeight': 411, 'width': 410, 'height': 411, 'widthPercent': 0.45, 'rescaleHeight': False, 'trialN': 83, 'loaded': True, 'loadedTime': 9950.10000038147, 'positionName': 'RIGHT', 'positionCoords': [748.8, 244.5], 'bid': 5.5}]",122299.10000038147,1669834266229,rigatoni and sauce,grilled chicken strips,7.04,5.5,-1.54,rigatoni and sauce,654.1000003814697,657,656.6000003814697,True,u,123455.90000152588,1156.8000011444092,1669834267386,1157,HRV,HRV_0205,2022-11-30 18:53:25
84,"[{'imgObject': {}, 'id': 'blackbeanswithrice', 'src': '/static/foodstim60/blackbeanswithrice.jpg', 'key': 'u', 'origWidth': 410, 'origHeight': 410, 'width': 410, 'height': 410, 'widthPercent': 0.45, 'rescaleHeight': False, 'trialN': 84, 'loaded': True, 'loadedTime': 10213.900001525879, 'positionName': 'LEFT', 'positionCoords': [281.2, 245], 'bid': 2.68}, {'imgObject': {}, 'id': 'lox', 'src': '/static/foodstim60/lox.jpg', 'key': 'i', 'origWidth': 410, 'origHeight': 411, 'width': 410, 'height': 411, 'widthPercent': 0.45, 'rescaleHeight': False, 'trialN': 84, 'loaded': True, 'loadedTime': 9940.30000114441, 'positionName': 'RIGHT', 'positionCoords': [748.8, 244.5], 'bid': 2.76}]",123456.0,1669834267386,blackbeanswithrice,lox,2.68,2.76,0.07999999999999963,blackbeanswithrice,1077.2000007629395,1080,1079.7000007629395,True,u,125040.90000152588,1584.900001525879,1669834268971,1585,HRV,HRV_0205,2022-11-30 18:53:25
85,"[{'imgObject': {}, 'id': 'orange slices', 'src': '/static/foodstim60/orange slices.jpg', 'key': 'u', 'origWidth': 409, 'origHeight': 410, 'width': 409, 'height': 410, 'widthPercent': 0.45, 'rescaleHeight': False, 'trialN': 85, 'loaded': True, 'loadedTime': 10218.70000076294, 'positionName': 'LEFT', 'positionCoords': [282.2, 245], 'bid': 6.01}, {'imgObject': {}, 'id': 'turkey sandwich', 'src': '/static/foodstim60/turkey sandwich.jpg', 'key': 'i', 'origWidth': 409, 'origHeight': 409, 'width': 409, 'height': 409, 'widthPercent': 0.45, 'rescaleHeight': False, 'trialN': 85, 'loaded': True, 'loadedTime': 10009.5, 'positionName': 'RIGHT', 'positionCoords': [748.8, 245.5], 'bid': 5.73}]",125041.10000038147,1669834268972,orange slices,turkey sandwich,6.01,5.73,-0.27999999999999936,turkey sandwich,826.1000003814697,828,828.6000003814697,True,i,126370.70000076294,1329.6000003814697,1669834270301,1329,HRV,HRV_0205,2022-11-30 18:53:25
86,"[{'imgObject': {}, 'id': 'Tribe humus pita', 'src': '/static/foodstim60/Tribe humus pita.jpg', 'key': 'u', 'origWidth': 411, 'origHeight': 411, 'width': 411, 'height': 411, 'widthPercent': 0.45, 'rescaleHeight': False, 'trialN': 86, 'loaded': True, 'loadedTime': 10167.400001525879, 'positionName': 'LEFT', 'positionCoords': [280.2, 244.5], 'bid': 2.93}, {'imgObject': {}, 'id': 'veggieswithdip', 'src': '/static/foodstim60/veggieswithdip.jpg', 'key': 'i', 'origWidth': 409, 'origHeight': 409, 'width': 409, 'height': 409, 'widthPercent': 0.45, 'rescaleHeight': False, 'trialN': 86, 'loaded': True, 'loadedTime': 9997.5, 'positionName': 'RIGHT', 'positionCoords': [748.8, 245.5], 'bid': 2.79}]",126370.90000152588,1669834270301,Tribe humus pita,veggieswithdip,2.93,2.79,-0.14000000000000012,Tribe humus pita,634.0,638,637.6999988555908,True,u,127508.70000076294,1137.7999992370605,1669834271439,1138,HRV,HRV_0205,2022-11-30 18:53:25
87,"[{'imgObject': {}, 'id': 'blueberries', 'src': '/static/foodstim60/blueberries.jpg', 'key': 'u', 'origWidth': 411, 'origHeight': 411, 'width': 411, 'height': 411, 'widthPercent': 0.45, 'rescaleHeight': False, 'trialN': 87, 'loaded': True, 'loadedTime': 10223.5, 'positionName': 'LEFT', 'positionCoords': [280.2, 244.5], 'bid': 5.05}, {'imgObject': {}, 'id': 'chickenfingers', 'src': '/static/foodstim60/chickenfingers.jpg', 'key': 'i', 'origWidth': 410, 'origHeight': 410, 'width': 410, 'height': 410, 'widthPercent': 0.45, 'rescaleHeight': False, 'trialN': 87, 'loaded': True, 'loadedTime': 10225.900001525879, 'positionName': 'RIGHT', 'positionCoords': [748.8, 245], 'bid': 6.38}]",127508.90000152588,1669834271439,blueberries,chickenfingers,5.05,6.38,1.33,chickenfingers,832.1999988555908,835,835.0,True,i,128848.40000152588,1339.5,1669834272779,1340,HRV,HRV_0205,2022-11-30 18:53:25
88,"[{'imgObject': {}, 'id': 'seaweed', 'src': '/static/foodstim60/seaweed.jpg', 'key': 'u', 'origWidth': 410, 'origHeight': 410, 'width': 410, 'height': 410, 'widthPercent': 0.45, 'rescaleHeight': False, 'trialN': 88, 'loaded': True, 'loadedTime': 10164.60000038147, 'positionName': 'LEFT', 'positionCoords': [281.2, 245], 'bid': 0.65}, {'imgObject': {}, 'id': 'olives', 'src': '/static/foodstim60/olives.jpg', 'key': 'i', 'origWidth': 410, 'origHeight': 410, 'width': 410, 'height': 410, 'widthPercent': 0.45, 'rescaleHeight': False, 'trialN': 88, 'loaded': True, 'loadedTime': 10156, 'positionName': 'RIGHT', 'positionCoords': [748.8, 245], 'bid': 1.06}]",128848.60000038147,1669834272779,seaweed,olives,0.65,1.06,0.41000000000000003,olives,754.5,757,757.0,True,i,130105.90000152588,1257.3000011444092,1669834274036,1257,HRV,HRV_0205,2022-11-30 18:53:25
89,"[{'imgObject': {}, 'id': 'mac & cheese', 'src': '/static/foodstim60/mac & cheese.jpg', 'key': 'u', 'origWidth': 410, 'origHeight': 410, 'width': 410, 'height': 410, 'widthPercent': 0.45, 'rescaleHeight': False, 'trialN': 89, 'loaded': True, 'loadedTime': 10235.60000038147, 'positionName': 'LEFT', 'positionCoords': [281.2, 245], 'bid': 7.91}, {'imgObject': {}, 'id': 'chickenfingers', 'src': '/static/foodstim60/chickenfingers.jpg', 'key': 'i', 'origWidth': 410, 'origHeight': 410, 'width': 410, 'height': 410, 'widthPercent': 0.45, 'rescaleHeight': False, 'trialN': 89, 'loaded': True, 'loadedTime': 10226, 'positionName': 'RIGHT', 'positionCoords': [748.8, 245], 'bid': 6.38}]",130106.20000076294,1669834274037,mac & cheese,chickenfingers,7.91,6.38,-1.5300000000000002,mac & cheese,600.7000007629395,603,603.2000007629395,True,u,131214.70000076294,1108.5,1669834275145,1108,HRV,HRV_0205,2022-11-30 18:53:25
90,"[{'imgObject': {}, 'id': 'burrito', 'src': '/static/foodstim60/burrito.jpg', 'key': 'u', 'origWidth': 410, 'origHeight': 410, 'width': 410, 'height': 410, 'widthPercent': 0.45, 'rescaleHeight': False, 'trialN': 90, 'loaded': True, 'loadedTime': 10215.900001525879, 'positionName': 'LEFT', 'positionCoords': [281.2, 245], 'bid': 7.12}, {'imgObject': {}, 'id': 'turkeysandwich', 'src': '/static/foodstim60/turkeysandwich.jpg', 'key': 'i', 'origWidth': 409, 'origHeight': 409, 'width': 409, 'height': 409, 'widthPercent': 0.45, 'rescaleHeight': False, 'trialN': 90, 'loaded': True, 'loadedTime': 10146.5, 'positionName': 'RIGHT', 'positionCoords': [748.8, 245.5], 'bid': 5.23}]",138148.70000076294,1669834282079,burrito,turkeysandwich,7.12,5.23,-1.8899999999999997,burrito,2388.0,2391,2390.7999992370605,True,u,141040.70000076294,2892.0,1669834284971,2892,HRV,HRV_0205,2022-11-30 18:53:25
91,"[{'imgObject': {}, 'id': 'Tribe humus pita', 'src': '/static/foodstim60/Tribe humus pita.jpg', 'key': 'u', 'origWidth': 411, 'origHeight': 411, 'width': 411, 'height': 411, 'widthPercent': 0.45, 'rescaleHeight': False, 'trialN': 91, 'loaded': True, 'loadedTime': 10167.20000076294, 'positionName': 'LEFT', 'positionCoords': [280.2, 244.5], 'bid': 2.93}, {'imgObject': {}, 'id': 'granola w milk', 'src': '/static/foodstim60/granola w milk.jpg', 'key': 'i', 'origWidth': 410, 'origHeight': 410, 'width': 410, 'height': 410, 'widthPercent': 0.45, 'rescaleHeight': False, 'trialN': 91, 'loaded': True, 'loadedTime': 9849.30000114441, 'positionName': 'RIGHT', 'positionCoords': [748.8, 245], 'bid': 1.94}]",141040.8000011444,1669834284971,Tribe humus pita,granola w milk,2.93,1.94,-0.9900000000000002,Tribe humus pita,777.8999996185303,781,780.6999988555908,True,u,142326.0,1285.1999988555908,1669834286256,1285,HRV,HRV_0205,2022-11-30 18:53:25
92,"[{'imgObject': {}, 'id': 'mac & cheese', 'src': '/static/foodstim60/mac & cheese.jpg', 'key': 'u', 'origWidth': 410, 'origHeight': 410, 'width': 410, 'height': 410, 'widthPercent': 0.45, 'rescaleHeight': False, 'trialN': 92, 'loaded': True, 'loadedTime': 10235.60000038147, 'positionName': 'LEFT', 'positionCoords': [281.2, 245], 'bid': 7.91}, {'imgObject': {}, 'id': 'ice cream sundae 002', 'src': '/static/foodstim60/ice cream sundae 002.jpg', 'key': 'i', 'origWidth': 409, 'origHeight': 409, 'width': 409, 'height': 409, 'widthPercent': 0.45, 'rescaleHeight': False, 'trialN': 92, 'loaded': True, 'loadedTime': 10220.20000076294, 'positionName': 'RIGHT', 'positionCoords': [748.8, 245.5], 'bid': 4.29}]",142326.10000038147,1669834286257,mac & cheese,ice cream sundae 002,7.91,4.29,-3.62,mac & cheese,539.5,542,542.1000003814697,True,u,143371.60000038147,1045.5,1669834287302,1045,HRV,HRV_0205,2022-11-30 18:53:25
93,"[{'imgObject': {}, 'id': 'eggs', 'src': '/static/foodstim60/eggs.jpg', 'key': 'u', 'origWidth': 409, 'origHeight': 409, 'width': 409, 'height': 409, 'widthPercent': 0.45, 'rescaleHeight': False, 'trialN': 93, 'loaded': True, 'loadedTime': 10117.5, 'positionName': 'LEFT', 'positionCoords': [282.2, 245.5], 'bid': 4.84}, {'imgObject': {}, 'id': 'cantaloupe', 'src': '/static/foodstim60/cantaloupe.jpg', 'key': 'i', 'origWidth': 409, 'origHeight': 409, 'width': 409, 'height': 409, 'widthPercent': 0.45, 'rescaleHeight': False, 'trialN': 93, 'loaded': True, 'loadedTime': 9920, 'positionName': 'RIGHT', 'positionCoords': [748.8, 245.5], 'bid': 3.79}]",143371.8000011444,1669834287302,eggs,cantaloupe,4.84,3.79,-1.0499999999999998,eggs,607.7999992370605,611,610.5,True,u,144484.8000011444,1113.0,1669834288415,1113,HRV,HRV_0205,2022-11-30 18:53:25
94,"[{'imgObject': {}, 'id': 'salad w chicken', 'src': '/static/foodstim60/salad w chicken.jpg', 'key': 'u', 'origWidth': 411, 'origHeight': 411, 'width': 411, 'height': 411, 'widthPercent': 0.45, 'rescaleHeight': False, 'trialN': 94, 'loaded': True, 'loadedTime': 9871.70000076294, 'positionName': 'LEFT', 'positionCoords': [280.2, 244.5], 'bid': 5.19}, {'imgObject': {}, 'id': 'burger', 'src': '/static/foodstim60/burger.jpg', 'key': 'i', 'origWidth': 409, 'origHeight': 409, 'width': 409, 'height': 409, 'widthPercent': 0.45, 'rescaleHeight': False, 'trialN': 94, 'loaded': True, 'loadedTime': 10179.30000114441, 'positionName': 'RIGHT', 'positionCoords': [748.8, 245.5], 'bid': 5.25}]",144484.90000152588,1669834288415,salad w chicken,burger,5.19,5.25,0.05999999999999961,burger,999.5,1003,1002.5,True,i,145992.20000076294,1507.2999992370605,1669834289923,1508,HRV,HRV_0205,2022-11-30 18:53:25
95,"[{'imgObject': {}, 'id': 'pear', 'src': '/static/foodstim60/pear.jpg', 'key': 'u', 'origWidth': 411, 'origHeight': 410, 'width': 411, 'height': 410, 'widthPercent': 0.45, 'rescaleHeight': False, 'trialN': 95, 'loaded': True, 'loadedTime': 9841.5, 'positionName': 'LEFT', 'positionCoords': [280.2, 245], 'bid': 5.18}, {'imgObject': {}, 'id': 'fried eggs', 'src': '/static/foodstim60/fried eggs.jpg', 'key': 'i', 'origWidth': 410, 'origHeight': 410, 'width': 410, 'height': 410, 'widthPercent': 0.45, 'rescaleHeight': False, 'trialN': 95, 'loaded': True, 'loadedTime': 9789.80000114441, 'positionName': 'RIGHT', 'positionCoords': [748.8, 245], 'bid': 5.04}]",145992.40000152588,1669834289923,pear,fried eggs,5.18,5.04,-0.13999999999999968,fried eggs,738.0999984741211,741,740.7999992370605,True,i,147234.20000076294,1241.7999992370605,1669834291165,1242,HRV,HRV_0205,2022-11-30 18:53:25
96,"[{'imgObject': {}, 'id': 'olives', 'src': '/static/foodstim60/olives.jpg', 'key': 'u', 'origWidth': 410, 'origHeight': 410, 'width': 410, 'height': 410, 'widthPercent': 0.45, 'rescaleHeight': False, 'trialN': 96, 'loaded': True, 'loadedTime': 10156.20000076294, 'positionName': 'LEFT', 'positionCoords': [281.2, 245], 'bid': 1.06}, {'imgObject': {}, 'id': 'mashed potato', 'src': '/static/foodstim60/mashed potato.jpg', 'key': 'i', 'origWidth': 409, 'origHeight': 409, 'width': 409, 'height': 409, 'widthPercent': 0.45, 'rescaleHeight': False, 'trialN': 96, 'loaded': True, 'loadedTime': 10217.5, 'positionName': 'RIGHT', 'positionCoords': [748.8, 245.5], 'bid': 2.66}]",147234.3000011444,1669834291165,olives,mashed potato,1.06,2.66,1.6,mashed potato,653.2999992370605,657,656.8999996185303,True,i,148394.0,1159.6999988555908,1669834292324,1159,HRV,HRV_0205,2022-11-30 18:53:25
97,"[{'imgObject': {}, 'id': 'cherry tomato', 'src': '/static/foodstim60/cherry tomato.jpg', 'key': 'u', 'origWidth': 410, 'origHeight': 410, 'width': 410, 'height': 410, 'widthPercent': 0.45, 'rescaleHeight': False, 'trialN': 97, 'loaded': True, 'loadedTime': 9806.80000114441, 'positionName': 'LEFT', 'positionCoords': [281.2, 245], 'bid': 1.77}, {'imgObject': {}, 'id': 'luckycharms', 'src': '/static/foodstim60/luckycharms.jpg', 'key': 'i', 'origWidth': 410, 'origHeight': 409, 'width': 410, 'height': 409, 'widthPercent': 0.45, 'rescaleHeight': False, 'trialN': 97, 'loaded': True, 'loadedTime': 9910, 'positionName': 'RIGHT', 'positionCoords': [748.8, 245.5], 'bid': 3.02}]",148394.10000038147,1669834292325,cherry tomato,luckycharms,1.77,3.02,1.25,cherry tomato,1145.3000011444092,1148,1147.8999996185303,True,u,150045.0,1650.8999996185303,1669834293976,1651,HRV,HRV_0205,2022-11-30 18:53:25
98,"[{'imgObject': {}, 'id': 'froot loops w milk', 'src': '/static/foodstim60/froot loops w milk.jpg', 'key': 'u', 'origWidth': 410, 'origHeight': 410, 'width': 410, 'height': 410, 'widthPercent': 0.45, 'rescaleHeight': False, 'trialN': 98, 'loaded': True, 'loadedTime': 10190.30000114441, 'positionName': 'LEFT', 'positionCoords': [281.2, 245], 'bid': 2.97}, {'imgObject': {}, 'id': 'shreddedwheatwithmilk', 'src': '/static/foodstim60/shreddedwheatwithmilk.jpg', 'key': 'i', 'origWidth': 410, 'origHeight': 410, 'width': 410, 'height': 410, 'widthPercent': 0.45, 'rescaleHeight': False, 'trialN': 98, 'loaded': True, 'loadedTime': 10011.5, 'positionName': 'RIGHT', 'positionCoords': [748.8, 245], 'bid': 3}]",150045.20000076294,1669834293976,froot loops w milk,shreddedwheatwithmilk,2.97,3.0,0.029999999999999805,froot loops w milk,597.1000003814697,600,599.7000007629395,True,u,151149.3000011444,1104.1000003814697,1669834295080,1104,HRV,HRV_0205,2022-11-30 18:53:25
99,"[{'imgObject': {}, 'id': 'cocktailshrimp', 'src': '/static/foodstim60/cocktailshrimp.jpg', 'key': 'u', 'origWidth': 410, 'origHeight': 410, 'width': 410, 'height': 410, 'widthPercent': 0.45, 'rescaleHeight': False, 'trialN': 99, 'loaded': True, 'loadedTime': 10191.20000076294, 'positionName': 'LEFT', 'positionCoords': [281.2, 245], 'bid': 4.94}, {'imgObject': {}, 'id': 'mango', 'src': '/static/foodstim60/mango.jpg', 'key': 'i', 'origWidth': 411, 'origHeight': 411, 'width': 411, 'height': 411, 'widthPercent': 0.45, 'rescaleHeight': False, 'trialN': 99, 'loaded': True, 'loadedTime': 10115.900001525879, 'positionName': 'RIGHT', 'positionCoords': [748.8, 244.5], 'bid': 1.9}]",151149.60000038147,1669834295080,cocktailshrimp,mango,4.94,1.9,-3.0400000000000005,cocktailshrimp,690.8000011444092,693,693.3000011444092,True,u,152347.60000038147,1198.0,1669834296278,1198,HRV,HRV_0205,2022-11-30 18:53:25
100,"[{'imgObject': {}, 'id': 'Tribe humus pita', 'src': '/static/foodstim60/Tribe humus pita.jpg', 'key': 'u', 'origWidth': 411, 'origHeight': 411, 'width': 411, 'height': 411, 'widthPercent': 0.45, 'rescaleHeight': False, 'trialN': 100, 'loaded': True, 'loadedTime': 10167.30000114441, 'positionName': 'LEFT', 'positionCoords': [280.2, 244.5], 'bid': 2.93}, {'imgObject': {}, 'id': 'shreddedwheatwithmilk', 'src': '/static/foodstim60/shreddedwheatwithmilk.jpg', 'key': 'i', 'origWidth': 410, 'origHeight': 410, 'width': 410, 'height': 410, 'widthPercent': 0.45, 'rescaleHeight': False, 'trialN': 100, 'loaded': True, 'loadedTime': 10011.80000114441, 'positionName': 'RIGHT', 'positionCoords': [748.8, 245], 'bid': 3}]",152347.8000011444,1669834296278,Tribe humus pita,shreddedwheatwithmilk,2.93,3.0,0.06999999999999984,Tribe humus pita,615.3999996185303,618,617.8999996185303,True,u,153468.3000011444,1120.5,1669834297399,1121,HRV,HRV_0205,2022-11-30 18:53:25
101,"[{'imgObject': {}, 'id': 'mashed potato', 'src': '/static/foodstim60/mashed potato.jpg', 'key': 'u', 'origWidth': 409, 'origHeight': 409, 'width': 409, 'height': 409, 'widthPercent': 0.45, 'rescaleHeight': False, 'trialN': 101, 'loaded': True, 'loadedTime': 10217.20000076294, 'positionName': 'LEFT', 'positionCoords': [282.2, 245.5], 'bid': 2.66}, {'imgObject': {}, 'id': 'blackbeanswithrice', 'src': '/static/foodstim60/blackbeanswithrice.jpg', 'key': 'i', 'origWidth': 410, 'origHeight': 410, 'width': 410, 'height': 410, 'widthPercent': 0.45, 'rescaleHeight': False, 'trialN': 101, 'loaded': True, 'loadedTime': 10203.30000114441, 'positionName': 'RIGHT', 'positionCoords': [748.8, 245], 'bid': 2.68}]",153468.5,1669834297399,mashed potato,blackbeanswithrice,2.66,2.68,0.020000000000000018,mashed potato,780.7000007629395,783,783.2000007629395,True,u,154751.90000152588,1283.400001525879,1669834298682,1283,HRV,HRV_0205,2022-11-30 18:53:25
102,"[{'imgObject': {}, 'id': 'strawberries', 'src': '/static/foodstim60/strawberries.jpg', 'key': 'u', 'origWidth': 410, 'origHeight': 410, 'width': 410, 'height': 410, 'widthPercent': 0.45, 'rescaleHeight': False, 'trialN': 102, 'loaded': True, 'loadedTime': 10074, 'positionName': 'LEFT', 'positionCoords': [281.2, 245], 'bid': 4.59}, {'imgObject': {}, 'id': 'popsicles', 'src': '/static/foodstim60/popsicles.jpg', 'key': 'i', 'origWidth': 410, 'origHeight': 410, 'width': 410, 'height': 410, 'widthPercent': 0.45, 'rescaleHeight': False, 'trialN': 102, 'loaded': True, 'loadedTime': 10221.10000038147, 'positionName': 'RIGHT', 'positionCoords': [748.8, 245], 'bid': 1.66}]",154752.0,1669834298683,strawberries,popsicles,4.59,1.66,-2.9299999999999997,strawberries,732.2000007629395,735,735.1000003814697,True,u,155992.20000076294,1240.2000007629395,1669834299923,1240,HRV,HRV_0205,2022-11-30 18:53:25
103,"[{'imgObject': {}, 'id': 'bagel and cc', 'src': '/static/foodstim60/bagel and cc.jpg', 'key': 'u', 'origWidth': 410, 'origHeight': 410, 'width': 410, 'height': 410, 'widthPercent': 0.45, 'rescaleHeight': False, 'trialN': 103, 'loaded': True, 'loadedTime': 9772.400001525879, 'positionName': 'LEFT', 'positionCoords': [281.2, 245], 'bid': 6.36}, {'imgObject': {}, 'id': 'tacos', 'src': '/static/foodstim60/tacos.jpg', 'key': 'i', 'origWidth': 411, 'origHeight': 411, 'width': 411, 'height': 411, 'widthPercent': 0.45, 'rescaleHeight': False, 'trialN': 103, 'loaded': True, 'loadedTime': 9791, 'positionName': 'RIGHT', 'positionCoords': [748.8, 244.5], 'bid': 6.54}]",155992.3000011444,1669834299923,bagel and cc,tacos,6.36,6.54,0.17999999999999972,bagel and cc,668.7999992370605,671,671.1999988555908,True,u,157163.70000076294,1171.3999996185303,1669834301094,1171,HRV,HRV_0205,2022-11-30 18:53:25
104,"[{'imgObject': {}, 'id': 'burger', 'src': '/static/foodstim60/burger.jpg', 'key': 'u', 'origWidth': 409, 'origHeight': 409, 'width': 409, 'height': 409, 'widthPercent': 0.45, 'rescaleHeight': False, 'trialN': 104, 'loaded': True, 'loadedTime': 10178.10000038147, 'positionName': 'LEFT', 'positionCoords': [282.2, 245.5], 'bid': 5.25}, {'imgObject': {}, 'id': 'cocktailshrimp', 'src': '/static/foodstim60/cocktailshrimp.jpg', 'key': 'i', 'origWidth': 410, 'origHeight': 410, 'width': 410, 'height': 410, 'widthPercent': 0.45, 'rescaleHeight': False, 'trialN': 104, 'loaded': True, 'loadedTime': 10190.400001525879, 'positionName': 'RIGHT', 'positionCoords': [748.8, 245], 'bid': 4.94}]",157163.90000152588,1669834301095,burger,cocktailshrimp,5.25,4.94,-0.3099999999999996,burger,624.2999992370605,626,626.8999996185303,True,u,158291.90000152588,1128.0,1669834302222,1127,HRV,HRV_0205,2022-11-30 18:53:25
105,"[{'imgObject': {}, 'id': 'omelette', 'src': '/static/foodstim60/omelette.jpg', 'key': 'u', 'origWidth': 410, 'origHeight': 409, 'width': 410, 'height': 409, 'widthPercent': 0.45, 'rescaleHeight': False, 'trialN': 105, 'loaded': True, 'loadedTime': 9974, 'positionName': 'LEFT', 'positionCoords': [281.2, 245.5], 'bid': 4.29}, {'imgObject': {}, 'id': 'raspberries', 'src': '/static/foodstim60/raspberries.jpg', 'key': 'i', 'origWidth': 411, 'origHeight': 411, 'width': 411, 'height': 411, 'widthPercent': 0.45, 'rescaleHeight': False, 'trialN': 105, 'loaded': True, 'loadedTime': 10223.70000076294, 'positionName': 'RIGHT', 'positionCoords': [748.8, 244.5], 'bid': 4.33}]",158292.0,1669834302223,omelette,raspberries,4.29,4.33,0.040000000000000036,omelette,605.5,609,609.2000007629395,True,u,159402.0,1110.0,1669834303333,1110,HRV,HRV_0205,2022-11-30 18:53:25
106,"[{'imgObject': {}, 'id': 'apple slices', 'src': '/static/foodstim60/apple slices.jpg', 'key': 'u', 'origWidth': 409, 'origHeight': 410, 'width': 409, 'height': 410, 'widthPercent': 0.45, 'rescaleHeight': False, 'trialN': 106, 'loaded': True, 'loadedTime': 10145.400001525879, 'positionName': 'LEFT', 'positionCoords': [282.2, 245], 'bid': 4.83}, {'imgObject': {}, 'id': 'fruitsalad', 'src': '/static/foodstim60/fruitsalad.jpg', 'key': 'i', 'origWidth': 410, 'origHeight': 410, 'width': 410, 'height': 410, 'widthPercent': 0.45, 'rescaleHeight': False, 'trialN': 106, 'loaded': True, 'loadedTime': 9951.30000114441, 'positionName': 'RIGHT', 'positionCoords': [748.8, 245], 'bid': 3.61}]",159402.20000076294,1669834303333,apple slices,fruitsalad,4.83,3.61,-1.2200000000000002,apple slices,831.6000003814697,833,833.2000007629395,True,u,160736.90000152588,1334.7000007629395,1669834304668,1335,HRV,HRV_0205,2022-11-30 18:53:25
107,"[{'imgObject': {}, 'id': 'salad w chicken', 'src': '/static/foodstim60/salad w chicken.jpg', 'key': 'u', 'origWidth': 411, 'origHeight': 411, 'width': 411, 'height': 411, 'widthPercent': 0.45, 'rescaleHeight': False, 'trialN': 107, 'loaded': True, 'loadedTime': 9871.900001525879, 'positionName': 'LEFT', 'positionCoords': [280.2, 244.5], 'bid': 5.19}, {'imgObject': {}, 'id': 'turkey sandwich', 'src': '/static/foodstim60/turkey sandwich.jpg', 'key': 'i', 'origWidth': 409, 'origHeight': 409, 'width': 409, 'height': 409, 'widthPercent': 0.45, 'rescaleHeight': False, 'trialN': 107, 'loaded': True, 'loadedTime': 9997.70000076294, 'positionName': 'RIGHT', 'positionCoords': [748.8, 245.5], 'bid': 5.73}]",160737.10000038147,1669834304668,salad w chicken,turkey sandwich,5.19,5.73,0.54,turkey sandwich,843.8000011444092,846,846.6000003814697,True,i,162084.70000076294,1347.6000003814697,1669834306015,1347,HRV,HRV_0205,2022-11-30 18:53:25
108,"[{'imgObject': {}, 'id': 'corn cob', 'src': '/static/foodstim60/corn cob.jpg', 'key': 'u', 'origWidth': 411, 'origHeight': 411, 'width': 411, 'height': 411, 'widthPercent': 0.45, 'rescaleHeight': False, 'trialN': 108, 'loaded': True, 'loadedTime': 10059.30000114441, 'positionName': 'LEFT', 'positionCoords': [280.2, 244.5], 'bid': 4.23}, {'imgObject': {}, 'id': 'fried eggs', 'src': '/static/foodstim60/fried eggs.jpg', 'key': 'i', 'origWidth': 410, 'origHeight': 410, 'width': 410, 'height': 410, 'widthPercent': 0.45, 'rescaleHeight': False, 'trialN': 108, 'loaded': True, 'loadedTime': 9774.20000076294, 'positionName': 'RIGHT', 'positionCoords': [748.8, 245], 'bid': 5.04}]",162084.8000011444,1669834306016,corn cob,fried eggs,4.23,5.04,0.8099999999999996,fried eggs,683.0,685,685.6999988555908,True,i,163270.90000152588,1186.1000003814697,1669834307202,1186,HRV,HRV_0205,2022-11-30 18:53:25
