success,trial_type,trial_index,time_elapsed,internal_node_id,Block,TrialNumber,TrialTime,trialTimeDiff,FPS_avg,FPS_med,FPS_mode,TrialDur,winResizeTime,rt,block,button_pressed,MotCoh,MotDir,ColCoh,Color,ChoiceKey,Choice,Accuracy,RT,nFrames,FPS,PPD,missTrial,missTrialMsg,onsetDelay,fullScreenExitTime,canvCenter,TrialType,Score,BlockTrial,stimulus,button_labels,exp,subjectId,date
True,fullscreen,0,2040,0.0-0.0,0.0,1.0,,,,,,,,,,,,,,,,,,,,,,,,,,,,,,,,HRV,HRV_0017,2022-11-30 18:06:18
,wl-check-fps,1,7028,0.0-1.0,0.0,2.0,"[2945.8, 2946.8, 2959.8, 2976.6, 2993.4, 3009.3, 3025.6, 3043, 3060.1, 3076.8, 3092.5, 3109.2, 3125.8, 3141.9, 3159.9, 3176.8, 3193.3, 3210.2, 3226.8, 3243.1, 3260, 3276.4, 3293.5, 3309.6, 3325.9, 3343.7, 3358.7, 3376.6, 3392.9, 3409.6, 3426.2, 3443.1, 3460, 3476.4, 3493.2, 3509.4, 3527.1, 3542.5, 3559.6, 3576.2, 3593.7, 3609.4, 3626.4, 3642.9, 3659.7, 3676.2, 3694, 3709.9, 3726.3, 3743.4, 3760.5, 3776.3, 3793.1, 3810, 3826.5, 3843.1, 3860, 3876.5, 3893.6, 3910.5, 3926.8, 3943.4, 3960.1, 3976.3, 3993.1, 4010, 4026.4, 4043.3, 4060, 4076.6, 4092.9, 4110.6, 4126.3, 4143.7, 4159.7, 4176.1, 4193.9, 4210, 4226.8, 4243.2, 4260.3, 4276.6, 4293, 4309.5, 4325.9, 4342.7, 4358.9, 4375.5, 4393.3, 4409.2, 4425.8, 4443.6, 4459.8, 4476.9, 4492.4, 4509.5, 4526.5, 4543.6, 4559.7, 4576.2, 4593, 4610.3, 4626.5, 4643.1, 4660.2, 4676.4, 4693.9, 4709.6, 4726.3, 4743.8, 4760, 4776.1, 4793.3, 4809.7, 4827.1, 4843.7, 4859.7, 4876.6, 4893.5, 4909.5, 4926.6, 4942.9, 4959.6, 4977.1, 4992.9, 5009.9, 5025.8, 5042.7, 5059.6, 5076.6, 5092.4, 5110, 5127.1, 5142.8, 5159.6, 5176.5, 5192.9, 5209.6, 5227.1, 5243.1, 5260.1, 5276.3, 5293.3, 5309.6, 5326.5, 5343.4, 5360, 5376.3, 5393.6, 5409.7, 5427, 5443.4, 5459.6, 5476.7, 5493.3, 5509.9, 5526.5, 5543.1, 5560.6, 5577, 5593.4, 5609.8, 5626.7, 5643.7, 5660, 5676.2, 5692.9, 5710.4, 5726.4, 5743.3, 5760, 5776.2, 5793, 5809.4, 5826.5, 5843.8, 5859.7, 5876.3, 5892.6, 5909.2, 5926.1, 5943.5, 5959.5, 5976.5, 5992.3, 6009.6, 6025.8, 6042.8, 6060, 6075.9, 6092, 6110, 6126.1, 6143.2, 6159.6, 6176.6, 6193, 6210, 6225.9, 6242.9, 6259.9, 6276.3, 6292.5, 6309.6, 6326.9, 6343.3, 6359.2, 6376.5, 6393.4, 6410, 6426.7, 6443, 6458.8, 6475.7, 6493.5, 6510.4, 6526.4, 6543.5, 6560.1, 6576.5, 6593.6, 6610.4, 6626, 6642.5, 6659.8, 6676.7, 6692.6, 6709.4, 6726.2, 6742.8, 6759.4, 6776.3, 6793.5, 6809.7, 6826.7, 6842.8, 6859.6, 6876.7, 6892.1, 6909.7, 6926.6, 6943.5, 6960, 6976.2, 6993.1, 7010.4, 7026.3, 7043.3, 7059.1, 7075.8, 7093, 7109.3, 7126.6, 7142.9, 7159.2, 7176.4, 7193.2, 7210.1, 7226.2, 7242.7, 7259.7, 7276.6, 7292.8, 7309.9, 7326.2, 7342.8, 7359.8, 7376.3, 7393.5, 7410.3, 7426.5, 7442.9, 7459.6, 7475.6, 7493.1, 7509.3, 7527.1, 7543.1, 7559.3, 7576.3, 7593.4, 7609.8, 7626.6, 7642.8, 7660.4, 7676.2, 7693.1, 7709.8, 7727, 7743, 7759.8, 7777, 7792.9, 7809.1, 7826.1, 7843, 7859.3, 7875.9, 7892.4, 7910.3]","[4.8, 1, 13, 16.8, 16.8, 15.9, 16.3, 17.4, 17.1, 16.7, 15.7, 16.7, 16.6, 16.1, 18, 16.9, 16.5, 16.9, 16.6, 16.3, 16.9, 16.4, 17.1, 16.1, 16.3, 17.8, 15, 17.9, 16.3, 16.7, 16.6, 16.9, 16.9, 16.4, 16.8, 16.2, 17.7, 15.4, 17.1, 16.6, 17.5, 15.7, 17, 16.5, 16.8, 16.5, 17.8, 15.9, 16.4, 17.1, 17.1, 15.8, 16.8, 16.9, 16.5, 16.6, 16.9, 16.5, 17.1, 16.9, 16.3, 16.6, 16.7, 16.2, 16.8, 16.9, 16.4, 16.9, 16.7, 16.6, 16.3, 17.7, 15.7, 17.4, 16, 16.4, 17.8, 16.1, 16.8, 16.4, 17.1, 16.3, 16.4, 16.5, 16.4, 16.8, 16.2, 16.6, 17.8, 15.9, 16.6, 17.8, 16.2, 17.1, 15.5, 17.1, 17, 17.1, 16.1, 16.5, 16.8, 17.3, 16.2, 16.6, 17.1, 16.2, 17.5, 15.7, 16.7, 17.5, 16.2, 16.1, 17.2, 16.4, 17.4, 16.6, 16, 16.9, 16.9, 16, 17.1, 16.3, 16.7, 17.5, 15.8, 17, 15.9, 16.9, 16.9, 17, 15.8, 17.6, 17.1, 15.7, 16.8, 16.9, 16.4, 16.7, 17.5, 16, 17, 16.2, 17, 16.3, 16.9, 16.9, 16.6, 16.3, 17.3, 16.1, 17.3, 16.4, 16.2, 17.1, 16.6, 16.6, 16.6, 16.6, 17.5, 16.4, 16.4, 16.4, 16.9, 17, 16.3, 16.2, 16.7, 17.5, 16, 16.9, 16.7, 16.2, 16.8, 16.4, 17.1, 17.3, 15.9, 16.6, 16.3, 16.6, 16.9, 17.4, 16, 17, 15.8, 17.3, 16.2, 17, 17.2, 15.9, 16.1, 18, 16.1, 17.1, 16.4, 17, 16.4, 17, 15.9, 17, 17, 16.4, 16.2, 17.1, 17.3, 16.4, 15.9, 17.3, 16.9, 16.6, 16.7, 16.3, 15.8, 16.9, 17.8, 16.9, 16, 17.1, 16.6, 16.4, 17.1, 16.8, 15.6, 16.5, 17.3, 16.9, 15.9, 16.8, 16.8, 16.6, 16.6, 16.9, 17.2, 16.2, 17, 16.1, 16.8, 17.1, 15.4, 17.6, 16.9, 16.9, 16.5, 16.2, 16.9, 17.3, 15.9, 17, 15.8, 16.7, 17.2, 16.3, 17.3, 16.3, 16.3, 17.2, 16.8, 16.9, 16.1, 16.5, 17, 16.9, 16.2, 17.1, 16.3, 16.6, 17, 16.5, 17.2, 16.8, 16.2, 16.4, 16.7, 16, 17.5, 16.2, 17.8, 16, 16.2, 17, 17.1, 16.4, 16.8, 16.2, 17.6, 15.8, 16.9, 16.7, 17.2, 16, 16.8, 17.2, 15.9, 16.2, 17, 16.9, 16.3, 16.6, 16.5, 17.9]",60.0,60.0,59.0,4985.2,[],,,,,,,,,,,,,,,,,,,,,,,,,HRV,HRV_0017,2022-11-30 18:06:18
,wl-html-keyboard-response,2,15986,0.0-2.0-0.0,0.0,3.0,,,,,,,,6949.400000035763,0.0,0,,,,,,,,,,,,,,,,,,,,,,HRV,HRV_0017,2022-11-30 18:06:18
,wl-rdm,3,22277,0.0-3.0-0.0,0.0,4.0,,,,,,,[],,,,0.0,0.0,87.9,0.0,u,0.0,True,2468.599999964237,42.0,59.0,40.0,False,,3000.0,[],"[720, 450]",ColorTask_Demo,,,,,HRV,HRV_0017,2022-11-30 18:06:18
,wl-rdm,4,26826,0.0-3.0-1.0,0.0,5.0,,,,,,,[],,,,0.0,0.0,87.9,1.0,i,1.0,True,1454.199999988079,29.0,59.0,40.0,False,,2000.0,[],"[720, 450]",ColorTask_Demo,,,,,HRV,HRV_0017,2022-11-30 18:06:18
,wl-html-keyboard-response,5,30126,0.0-3.0-2.0,0.0,6.0,,,,,,,,1294.300000011921,0.0,1,,,,,,,,,,,,,,,,,,,,,,HRV,HRV_0017,2022-11-30 18:06:18
,wl-html-keyboard-response,6,37517,0.0-4.0-0.0,0.0,7.0,,,,,,,,5381.599999964237,0.0,0,,,,,,,,,,,,,,,,,,,,,,HRV,HRV_0017,2022-11-30 18:06:18
,wl-html-keyboard-response,7,50150,0.0-5.0-0.0,0.0,8.0,,,,,,,,10626.199999988079,0.0,0,,,,,,,,,,,,,,,,,,,,,,HRV,HRV_0017,2022-11-30 18:06:18
,wl-rdm,8,52944,0.0-6.0-0.0,0.0,9.0,,,,,,,[],,,,,,73.6,1.0,i,1.0,True,1461.8999999761581,88.0,59.0,40.0,False,,253.60516685782775,[],"[720, 450]",ColorTask,1.0,1.0,,,HRV,HRV_0017,2022-11-30 18:06:18
,wl-rdm,9,55511,0.0-6.1-0.1,0.0,10.0,,,,,,,[],,,,,,62.5,0.0,u,0.0,True,1146.5,69.0,59.0,40.0,False,,356.1944432898299,[],"[720, 450]",ColorTask,2.0,2.0,,,HRV,HRV_0017,2022-11-30 18:06:18
,wl-rdm,10,58013,0.0-6.2-0.2,0.0,11.0,,,,,,,[],,,,,,62.5,0.0,u,0.0,True,1212.7000000476837,73.0,59.0,40.0,False,,224.49148554628286,[],"[720, 450]",ColorTask,3.0,3.0,,,HRV,HRV_0017,2022-11-30 18:06:18
,wl-rdm,11,60394,0.0-6.3-0.3,0.0,12.0,,,,,,,[],,,,,,62.5,0.0,u,0.0,True,1065.5999999642372,64.0,59.0,40.0,False,,265.8852266882911,[],"[720, 450]",ColorTask,4.0,4.0,,,HRV,HRV_0017,2022-11-30 18:06:18
,wl-rdm,12,62910,0.0-6.4-0.4,0.0,13.0,,,,,,,[],,,,,,50.0,1.0,i,1.0,True,1110.3999999761581,67.0,59.0,40.0,False,,344.27295969219006,[],"[720, 450]",ColorTask,5.0,5.0,,,HRV,HRV_0017,2022-11-30 18:06:18
,wl-rdm,13,65161,0.0-6.5-0.5,0.0,14.0,,,,,,,[],,,,,,73.6,0.0,u,0.0,True,857.9999999403954,52.0,59.0,40.0,False,,332.6609516802265,[],"[720, 450]",ColorTask,6.0,6.0,,,HRV,HRV_0017,2022-11-30 18:06:18
,wl-rdm,14,67345,0.0-6.6-0.6,0.0,15.0,,,,,,,[],,,,,,73.6,0.0,u,0.0,True,833.6999999880791,51.0,59.0,40.0,False,,260.61587552909685,[],"[720, 450]",ColorTask,7.0,7.0,,,HRV,HRV_0017,2022-11-30 18:06:18
,wl-rdm,15,69577,0.0-6.7-0.7,0.0,16.0,,,,,,,[],,,,,,62.5,0.0,u,0.0,True,807.8999999761581,49.0,59.0,40.0,False,,360.4235810926591,[],"[720, 450]",ColorTask,8.0,8.0,,,HRV,HRV_0017,2022-11-30 18:06:18
,wl-rdm,16,71694,0.0-6.8-0.8,0.0,17.0,,,,,,,[],,,,,,62.5,0.0,u,0.0,True,827.8000000715256,50.0,59.0,40.0,False,,200.78427805220224,[],"[720, 450]",ColorTask,9.0,9.0,,,HRV,HRV_0017,2022-11-30 18:06:18
,wl-rdm,17,73910,0.0-6.9-0.9,0.0,18.0,,,,,,,[],,,,,,50.0,1.0,i,1.0,True,740.7999999523163,45.0,59.0,40.0,False,,396.8399334485159,[],"[720, 450]",ColorTask,10.0,10.0,,,HRV,HRV_0017,2022-11-30 18:06:18
,wl-rdm,18,76061,0.0-6.10-0.10,0.0,19.0,,,,,,,[],,,,,,62.5,1.0,i,1.0,True,815.2000000476837,49.0,59.0,40.0,False,,254.6374837807366,[],"[720, 450]",ColorTask,11.0,11.0,,,HRV,HRV_0017,2022-11-30 18:06:18
,wl-rdm,19,78410,0.0-6.11-0.11,0.0,20.0,,,,,,,[],,,,,,56.4,1.0,i,1.0,True,923.1999999284744,56.0,59.0,40.0,False,,336.80329406405053,[],"[720, 450]",ColorTask,12.0,12.0,,,HRV,HRV_0017,2022-11-30 18:06:18
,wl-rdm,20,80344,0.0-6.12-0.12,0.0,21.0,,,,,,,[],,,,,,87.9,0.0,u,0.0,True,643.0999999642372,39.0,59.0,40.0,False,,229.08675913388802,[],"[720, 450]",ColorTask,13.0,13.0,,,HRV,HRV_0017,2022-11-30 18:06:18
,wl-rdm,21,82644,0.0-6.13-0.13,0.0,22.0,,,,,,,[],,,,,,50.0,0.0,i,1.0,False,867.8000000119209,53.0,59.0,40.0,False,,336.90921817550327,[],"[720, 450]",ColorTask,12.0,14.0,,,HRV,HRV_0017,2022-11-30 18:06:18
,wl-rdm,22,85412,0.0-6.14-0.14,0.0,23.0,,,,,,,[],,,,,,53.2,1.0,i,1.0,True,1391.1000000834465,84.0,59.0,40.0,False,,316.03429141648525,[],"[720, 450]",ColorTask,13.0,15.0,,,HRV,HRV_0017,2022-11-30 18:06:18
,wl-rdm,23,88011,0.0-6.15-0.15,0.0,24.0,,,,,,,[],,,,,,62.5,1.0,i,1.0,True,1224.699999988079,74.0,59.0,40.0,False,,292.70041989755237,[],"[720, 450]",ColorTask,14.0,16.0,,,HRV,HRV_0017,2022-11-30 18:06:18
,wl-rdm,24,90161,0.0-6.16-0.16,0.0,25.0,,,,,,,[],,,,,,87.9,0.0,u,0.0,True,790.4000000357628,48.0,59.0,40.0,False,,287.72225325113254,[],"[720, 450]",ColorTask,15.0,17.0,,,HRV,HRV_0017,2022-11-30 18:06:18
,wl-rdm,25,92844,0.0-6.17-0.17,0.0,26.0,,,,,,,[],,,,,,56.4,0.0,u,0.0,True,1255.699999988079,76.0,59.0,40.0,False,,355.5462628958819,[],"[720, 450]",ColorTask,16.0,18.0,,,HRV,HRV_0017,2022-11-30 18:06:18
,wl-rdm,26,95277,0.0-6.18-0.18,0.0,27.0,,,,,,,[],,,,,,53.2,0.0,i,1.0,False,1074.2999999523163,65.0,59.0,40.0,False,,275.2535051897622,[],"[720, 450]",ColorTask,15.0,19.0,,,HRV,HRV_0017,2022-11-30 18:06:18
,wl-rdm,27,97311,0.0-6.19-0.19,0.0,28.0,,,,,,,[],,,,,,87.9,0.0,u,0.0,True,611.5999999642372,37.0,59.0,40.0,False,,365.2196834131803,[],"[720, 450]",ColorTask,16.0,20.0,,,HRV,HRV_0017,2022-11-30 18:06:18
,wl-rdm,28,99294,0.0-6.20-0.20,0.0,29.0,,,,,,,[],,,,,,87.9,0.0,u,0.0,True,638.9000000357628,39.0,59.0,40.0,False,,255.20400265559812,[],"[720, 450]",ColorTask,17.0,21.0,,,HRV,HRV_0017,2022-11-30 18:06:18
,wl-rdm,29,101794,0.0-6.21-0.21,0.0,30.0,,,,,,,[],,,,,,53.2,1.0,u,0.0,False,1071.5999999642372,65.0,59.0,40.0,False,,354.9870969349927,[],"[720, 450]",ColorTask,16.0,22.0,,,HRV,HRV_0017,2022-11-30 18:06:18
,wl-rdm,30,104129,0.0-6.22-0.22,0.0,31.0,,,,,,,[],,,,,,62.5,1.0,i,1.0,True,917.5,55.0,59.0,40.0,False,,353.5221664048562,[],"[720, 450]",ColorTask,17.0,23.0,,,HRV,HRV_0017,2022-11-30 18:06:18
,wl-rdm,31,106294,0.0-6.23-0.23,0.0,32.0,,,,,,,[],,,,,,56.4,1.0,i,1.0,True,840.3000000119209,51.0,59.0,40.0,False,,256.26006218457576,[],"[720, 450]",ColorTask,18.0,24.0,,,HRV,HRV_0017,2022-11-30 18:06:18
,wl-rdm,32,108128,0.0-6.24-0.24,0.0,33.0,,,,,,,[],,,,,,87.9,1.0,i,1.0,True,539.9000000357628,33.0,59.0,40.0,False,,217.01946918827798,[],"[720, 450]",ColorTask,19.0,25.0,,,HRV,HRV_0017,2022-11-30 18:06:18
,wl-rdm,33,110991,0.0-6.25-0.25,0.0,34.0,,,,,,,[],,,,,,50.0,1.0,i,1.0,True,1405.2999999523163,85.0,59.0,40.0,False,,393.04248588367903,[],"[720, 450]",ColorTask,20.0,26.0,,,HRV,HRV_0017,2022-11-30 18:06:18
,wl-rdm,34,113536,0.0-6.26-0.26,0.0,35.0,,,,,,,[],,,,,,56.4,1.0,i,1.0,True,1256.0999999642372,76.0,59.0,40.0,False,,203.1760508649541,[],"[720, 450]",ColorTask,21.0,27.0,,,HRV,HRV_0017,2022-11-30 18:06:18
,wl-rdm,35,115866,0.0-6.27-0.27,0.0,36.0,,,,,,,[],,,,,,56.4,1.0,i,1.0,True,943.5,57.0,59.0,40.0,False,,320.45318637624314,[],"[720, 450]",ColorTask,22.0,28.0,,,HRV,HRV_0017,2022-11-30 18:06:18
,wl-rdm,36,117897,0.0-6.28-0.28,0.0,37.0,,,,,,,[],,,,,,50.0,0.0,i,1.0,False,750.6999999880791,45.0,59.0,40.0,False,,211.6636733560663,[],"[720, 450]",ColorTask,21.0,29.0,,,HRV,HRV_0017,2022-11-30 18:06:18
,wl-rdm,37,120278,0.0-6.29-0.29,0.0,38.0,,,,,,,[],,,,,,53.2,1.0,i,1.0,True,1017.1000000238419,61.0,59.0,40.0,False,,296.3701126665987,[],"[720, 450]",ColorTask,22.0,30.0,,,HRV,HRV_0017,2022-11-30 18:06:18
,wl-rdm,38,122426,0.0-6.30-0.30,0.0,39.0,,,,,,,[],,,,,,56.4,0.0,i,1.0,False,755.3999999761581,46.0,59.0,40.0,False,,324.8194817348973,[],"[720, 450]",ColorTask,21.0,31.0,,,HRV,HRV_0017,2022-11-30 18:06:18
,wl-rdm,39,124625,0.0-6.31-0.31,0.0,40.0,,,,,,,[],,,,,,73.6,1.0,i,1.0,True,920.4000000357628,56.0,59.0,40.0,False,,205.93782381117234,[],"[720, 450]",ColorTask,22.0,32.0,,,HRV,HRV_0017,2022-11-30 18:06:18
,wl-rdm,40,127256,0.0-6.32-0.32,0.0,41.0,,,,,,,[],,,,,,56.4,0.0,u,0.0,True,1295.4999999403954,78.0,59.0,40.0,False,,280.6387595960656,[],"[720, 450]",ColorTask,23.0,33.0,,,HRV,HRV_0017,2022-11-30 18:06:18
,wl-rdm,41,129371,0.0-6.33-0.33,0.0,42.0,,,,,,,[],,,,,,53.2,0.0,u,0.0,True,839.5999999642372,51.0,59.0,40.0,False,,203.79495449653646,[],"[720, 450]",ColorTask,24.0,34.0,,,HRV,HRV_0017,2022-11-30 18:06:18
,wl-rdm,42,131803,0.0-6.34-0.34,0.0,43.0,,,,,,,[],,,,,,62.5,0.0,u,0.0,True,1138.9000000357628,69.0,59.0,40.0,False,,218.6174568133941,[],"[720, 450]",ColorTask,25.0,35.0,,,HRV,HRV_0017,2022-11-30 18:06:18
,wl-rdm,43,133902,0.0-6.35-0.35,0.0,44.0,,,,,,,[],,,,,,56.4,0.0,i,1.0,False,824.9000000357628,50.0,59.0,40.0,False,,215.52568643232738,[],"[720, 450]",ColorTask,24.0,36.0,,,HRV,HRV_0017,2022-11-30 18:06:18
,wl-rdm,44,136435,0.0-6.36-0.36,0.0,45.0,,,,,,,[],,,,,,73.6,1.0,i,1.0,True,1079.800000011921,65.0,59.0,40.0,False,,370.06740883908674,[],"[720, 450]",ColorTask,25.0,37.0,,,HRV,HRV_0017,2022-11-30 18:06:18
,wl-rdm,45,138517,0.0-6.37-0.37,0.0,46.0,,,,,,,[],,,,,,87.9,0.0,u,0.0,True,629.1000000238419,38.0,59.0,40.0,False,,374.2903711046693,[],"[720, 450]",ColorTask,26.0,38.0,,,HRV,HRV_0017,2022-11-30 18:06:18
,wl-rdm,46,141033,0.0-6.38-0.38,0.0,47.0,,,,,,,[],,,,,,56.4,0.0,u,0.0,True,1172.0,71.0,59.0,40.0,False,,283.970110473266,[],"[720, 450]",ColorTask,27.0,39.0,,,HRV,HRV_0017,2022-11-30 18:06:18
,wl-rdm,47,143184,0.0-6.39-0.39,0.0,48.0,,,,,,,[],,,,,,50.0,1.0,u,0.0,False,721.0,44.0,59.0,40.0,False,,352.76498047936127,[],"[720, 450]",ColorTask,26.0,40.0,,,HRV,HRV_0017,2022-11-30 18:06:18
,wl-rdm,48,145700,0.0-6.40-0.40,0.0,49.0,,,,,,,[],,,,,,50.0,1.0,i,1.0,True,1206.4000000357628,73.0,59.0,40.0,False,,227.51699622253588,[],"[720, 450]",ColorTask,27.0,41.0,,,HRV,HRV_0017,2022-11-30 18:06:18
,wl-rdm,49,147683,0.0-6.41-0.41,0.0,50.0,,,,,,,[],,,,,,53.2,1.0,i,1.0,True,625.3000000119209,38.0,59.0,40.0,False,,277.6295996897551,[],"[720, 450]",ColorTask,28.0,42.0,,,HRV,HRV_0017,2022-11-30 18:06:18
,wl-rdm,50,150382,0.0-6.42-0.42,0.0,51.0,,,,,,,[],,,,,,62.5,1.0,i,1.0,True,1340.199999988079,81.0,59.0,40.0,False,,287.10843557094915,[],"[720, 450]",ColorTask,29.0,43.0,,,HRV,HRV_0017,2022-11-30 18:06:18
,wl-rdm,51,153015,0.0-6.43-0.43,0.0,52.0,,,,,,,[],,,,,,50.0,1.0,i,1.0,True,1188.5000000596046,72.0,59.0,40.0,False,,357.9378614466515,[],"[720, 450]",ColorTask,30.0,44.0,,,HRV,HRV_0017,2022-11-30 18:06:18
,wl-rdm,52,155099,0.0-6.44-0.44,0.0,53.0,,,,,,,[],,,,,,53.2,0.0,i,1.0,False,723.0999999642372,44.0,59.0,40.0,False,,296.07636406610544,[],"[720, 450]",ColorTask,29.0,45.0,,,HRV,HRV_0017,2022-11-30 18:06:18
,wl-rdm,53,157348,0.0-6.45-0.45,0.0,54.0,,,,,,,[],,,,,,73.6,0.0,i,1.0,False,857.8999999761581,52.0,59.0,40.0,False,,313.3893420893593,[],"[720, 450]",ColorTask,28.0,46.0,,,HRV,HRV_0017,2022-11-30 18:06:18
,wl-rdm,54,159464,0.0-6.46-0.46,0.0,55.0,,,,,,,[],,,,,,87.9,1.0,i,1.0,True,786.8000000119209,48.0,59.0,40.0,False,,246.6877259326637,[],"[720, 450]",ColorTask,29.0,47.0,,,HRV,HRV_0017,2022-11-30 18:06:18
,wl-rdm,55,161498,0.0-6.47-0.47,0.0,56.0,,,,,,,[],,,,,,62.5,1.0,i,1.0,True,734.1999999880791,45.0,59.0,40.0,False,,227.05425511842475,[],"[720, 450]",ColorTask,30.0,48.0,,,HRV,HRV_0017,2022-11-30 18:06:18
,wl-rdm,56,164449,0.0-6.48-0.48,0.0,57.0,,,,,,,[],,,,,,53.2,0.0,u,0.0,True,1572.800000011921,95.0,59.0,40.0,False,,291.75706745387436,[],"[720, 450]",ColorTask,31.0,49.0,,,HRV,HRV_0017,2022-11-30 18:06:18
,wl-rdm,57,166614,0.0-6.49-0.49,0.0,58.0,,,,,,,[],,,,,,87.9,1.0,i,1.0,True,760.4000000357628,46.0,59.0,40.0,False,,326.1389223993541,[],"[720, 450]",ColorTask,32.0,50.0,,,HRV,HRV_0017,2022-11-30 18:06:18
,wl-rdm,58,168665,0.0-6.50-0.50,0.0,59.0,,,,,,,[],,,,,,53.2,1.0,i,1.0,True,750.5999999642372,45.0,59.0,40.0,False,,225.6488404647842,[],"[720, 450]",ColorTask,33.0,51.0,,,HRV,HRV_0017,2022-11-30 18:06:18
,wl-rdm,59,170698,0.0-6.51-0.51,0.0,60.0,,,,,,,[],,,,,,87.9,0.0,u,0.0,True,688.3000000119209,42.0,59.0,40.0,False,,263.9746734924926,[],"[720, 450]",ColorTask,34.0,52.0,,,HRV,HRV_0017,2022-11-30 18:06:18
,wl-rdm,60,172797,0.0-6.52-0.52,0.0,61.0,,,,,,,[],,,,,,87.9,1.0,i,1.0,True,645.8000000715256,39.0,59.0,40.0,False,,387.46201778101187,[],"[720, 450]",ColorTask,35.0,53.0,,,HRV,HRV_0017,2022-11-30 18:06:18
,wl-rdm,61,175047,0.0-6.53-0.53,0.0,62.0,,,,,,,[],,,,,,53.2,0.0,i,1.0,False,794.9000000357628,48.0,59.0,40.0,False,,379.5523057183814,[],"[720, 450]",ColorTask,34.0,54.0,,,HRV,HRV_0017,2022-11-30 18:06:18
,wl-rdm,62,177247,0.0-6.54-0.54,0.0,63.0,,,,,,,[],,,,,,87.9,1.0,i,1.0,True,756.0,46.0,59.0,40.0,False,,380.1006671023378,[],"[720, 450]",ColorTask,35.0,55.0,,,HRV,HRV_0017,2022-11-30 18:06:18
,wl-rdm,63,179897,0.0-6.55-0.55,0.0,64.0,,,,,,,[],,,,,,50.0,1.0,u,0.0,False,1346.699999988079,81.0,59.0,40.0,False,,223.44483742612937,[],"[720, 450]",ColorTask,34.0,56.0,,,HRV,HRV_0017,2022-11-30 18:06:18
,wl-rdm,64,181963,0.0-6.56-0.56,0.0,65.0,,,,,,,[],,,,,,62.5,1.0,i,1.0,True,691.0999999642372,42.0,59.0,40.0,False,,305.6458749929814,[],"[720, 450]",ColorTask,35.0,57.0,,,HRV,HRV_0017,2022-11-30 18:06:18
,wl-rdm,65,185781,0.0-6.57-0.57,0.0,66.0,,,,,,,[],,,,,,56.4,0.0,u,0.0,True,2523.0,152.0,59.0,40.0,False,,229.97092551035348,[],"[720, 450]",ColorTask,36.0,58.0,,,HRV,HRV_0017,2022-11-30 18:06:18
,wl-rdm,66,187864,0.0-6.58-0.58,0.0,67.0,,,,,,,[],,,,,,56.4,0.0,u,0.0,True,719.6999999880791,44.0,59.0,40.0,False,,280.65948786915146,[],"[720, 450]",ColorTask,37.0,59.0,,,HRV,HRV_0017,2022-11-30 18:06:18
,wl-rdm,67,189897,0.0-6.59-0.59,0.0,68.0,,,,,,,[],,,,,,73.6,0.0,u,0.0,True,581.0,35.0,59.0,40.0,False,,388.72212309524286,[],"[720, 450]",ColorTask,38.0,60.0,,,HRV,HRV_0017,2022-11-30 18:06:18
,wl-rdm,68,192964,0.0-6.60-0.60,0.0,69.0,,,,,,,[],,,,,,56.4,1.0,u,0.0,False,1690.1000000238419,102.0,59.0,40.0,False,,299.7377304712939,[],"[720, 450]",ColorTask,37.0,61.0,,,HRV,HRV_0017,2022-11-30 18:06:18
,wl-rdm,69,195681,0.0-6.61-0.61,0.0,70.0,,,,,,,[],,,,,,62.5,1.0,i,1.0,True,1390.0,84.0,59.0,40.0,False,,245.09227651555972,[],"[720, 450]",ColorTask,38.0,62.0,,,HRV,HRV_0017,2022-11-30 18:06:18
,wl-rdm,70,198296,0.0-6.62-0.62,0.0,71.0,,,,,,,[],,,,,,50.0,1.0,u,0.0,False,1250.0,75.0,59.0,40.0,False,,290.1247137650514,[],"[720, 450]",ColorTask,37.0,63.0,,,HRV,HRV_0017,2022-11-30 18:06:18
,wl-rdm,71,200964,0.0-6.63-0.63,0.0,72.0,,,,,,,[],,,,,,53.2,0.0,u,0.0,True,1271.0999999642372,77.0,59.0,40.0,False,,330.3542469882311,[],"[720, 450]",ColorTask,38.0,64.0,,,HRV,HRV_0017,2022-11-30 18:06:18
,wl-rdm,72,202979,0.0-6.64-0.64,0.0,73.0,,,,,,,[],,,,,,87.9,0.0,u,0.0,True,673.3000000119209,41.0,59.0,40.0,False,,278.31369612867206,[],"[720, 450]",ColorTask,39.0,65.0,,,HRV,HRV_0017,2022-11-30 18:06:18
,wl-rdm,73,205581,0.0-6.65-0.65,0.0,74.0,,,,,,,[],,,,,,53.2,1.0,i,1.0,True,1297.8000000715256,78.0,59.0,40.0,False,,230.62759784322694,[],"[720, 450]",ColorTask,40.0,66.0,,,HRV,HRV_0017,2022-11-30 18:06:18
,wl-rdm,74,207597,0.0-6.66-0.66,0.0,75.0,,,,,,,[],,,,,,87.9,1.0,i,1.0,True,541.1999999880791,33.0,59.0,40.0,False,,393.1712252755184,[],"[720, 450]",ColorTask,41.0,67.0,,,HRV,HRV_0017,2022-11-30 18:06:18
,wl-rdm,75,209781,0.0-6.67-0.67,0.0,76.0,,,,,,,[],,,,,,73.6,0.0,u,0.0,True,707.3000000119209,43.0,59.0,40.0,False,,386.3868732814624,[],"[720, 450]",ColorTask,42.0,68.0,,,HRV,HRV_0017,2022-11-30 18:06:18
,wl-rdm,76,211997,0.0-6.68-0.68,0.0,77.0,,,,,,,[],,,,,,50.0,0.0,u,0.0,True,855.5000000596046,52.0,59.0,40.0,False,,286.623717579548,[],"[720, 450]",ColorTask,43.0,69.0,,,HRV,HRV_0017,2022-11-30 18:06:18
,wl-rdm,77,214114,0.0-6.69-0.69,0.0,78.0,,,,,,,[],,,,,,73.6,0.0,i,1.0,False,688.9000000357628,42.0,59.0,40.0,False,,338.01465611196915,[],"[720, 450]",ColorTask,42.0,70.0,,,HRV,HRV_0017,2022-11-30 18:06:18
,wl-rdm,78,216130,0.0-6.70-0.70,0.0,79.0,,,,,,,[],,,,,,87.9,1.0,u,0.0,False,680.6999999880791,41.0,59.0,40.0,False,,267.19677948372555,[],"[720, 450]",ColorTask,41.0,71.0,,,HRV,HRV_0017,2022-11-30 18:06:18
,wl-rdm,79,218630,0.0-6.71-0.71,0.0,80.0,,,,,,,[],,,,,,53.2,0.0,i,1.0,False,1156.8999999761581,70.0,59.0,40.0,False,,251.68488932066472,[],"[720, 450]",ColorTask,40.0,72.0,,,HRV,HRV_0017,2022-11-30 18:06:18
,wl-rdm,80,221247,0.0-6.72-0.72,0.0,81.0,,,,,,,[],,,,,,56.4,1.0,u,0.0,False,1207.5000000596046,73.0,59.0,40.0,False,,330.29858402040793,[],"[720, 450]",ColorTask,39.0,73.0,,,HRV,HRV_0017,2022-11-30 18:06:18
,wl-rdm,81,223147,0.0-6.73-0.73,0.0,82.0,,,,,,,[],,,,,,87.9,1.0,i,1.0,True,590.5,36.0,59.0,40.0,False,,234.61723586145905,[],"[720, 450]",ColorTask,40.0,74.0,,,HRV,HRV_0017,2022-11-30 18:06:18
,wl-rdm,82,225748,0.0-6.74-0.74,0.0,83.0,,,,,,,[],,,,,,73.6,0.0,u,0.0,True,1240.6000000238419,75.0,59.0,40.0,False,,278.7739306300273,[],"[720, 450]",ColorTask,41.0,75.0,,,HRV,HRV_0017,2022-11-30 18:06:18
,wl-rdm,83,229198,0.0-6.75-0.75,0.0,84.0,,,,,,,[],,,,,,56.4,1.0,i,1.0,True,2073.699999988079,125.0,59.0,40.0,False,,289.1974981219138,[],"[720, 450]",ColorTask,42.0,76.0,,,HRV,HRV_0017,2022-11-30 18:06:18
,wl-rdm,84,232814,0.0-6.76-0.76,0.0,85.0,,,,,,,[],,,,,,50.0,1.0,u,0.0,False,2258.0,136.0,59.0,40.0,False,,292.32525148538184,[],"[720, 450]",ColorTask,41.0,77.0,,,HRV,HRV_0017,2022-11-30 18:06:18
,wl-rdm,85,234915,0.0-6.77-0.77,0.0,86.0,,,,,,,[],,,,,,73.6,1.0,i,1.0,True,705.6000000238419,43.0,59.0,40.0,False,,314.0530261380517,[],"[720, 450]",ColorTask,42.0,78.0,,,HRV,HRV_0017,2022-11-30 18:06:18
,wl-rdm,86,237064,0.0-6.78-0.78,0.0,87.0,,,,,,,[],,,,,,73.6,1.0,i,1.0,True,771.7000000476837,47.0,59.0,40.0,False,,301.70820138216,[],"[720, 450]",ColorTask,43.0,79.0,,,HRV,HRV_0017,2022-11-30 18:06:18
,wl-rdm,87,239330,0.0-6.79-0.79,0.0,88.0,,,,,,,[],,,,,,73.6,1.0,i,1.0,True,818.5,50.0,59.0,40.0,False,,385.8579466327343,[],"[720, 450]",ColorTask,44.0,80.0,,,HRV,HRV_0017,2022-11-30 18:06:18
,wl-rdm,88,241646,0.0-6.80-0.80,0.0,89.0,,,,,,,[],,,,,,50.0,0.0,i,1.0,False,910.1000000238419,55.0,59.0,40.0,False,,323.7067453657584,[],"[720, 450]",ColorTask,43.0,81.0,,,HRV,HRV_0017,2022-11-30 18:06:18
,wl-rdm,89,244365,0.0-6.81-0.81,0.0,90.0,,,,,,,[],,,,,,62.5,1.0,i,1.0,True,1374.7999999523163,83.0,59.0,40.0,False,,260.0814382000373,[],"[720, 450]",ColorTask,44.0,82.0,,,HRV,HRV_0017,2022-11-30 18:06:18
,wl-rdm,90,246964,0.0-6.82-0.82,0.0,91.0,,,,,,,[],,,,,,62.5,0.0,u,0.0,True,1138.8999999761581,69.0,59.0,40.0,False,,371.00145283797406,[],"[720, 450]",ColorTask,45.0,83.0,,,HRV,HRV_0017,2022-11-30 18:06:18
,wl-rdm,91,248882,0.0-6.83-0.83,0.0,92.0,,,,,,,[],,,,,,87.9,0.0,u,0.0,True,622.5,38.0,59.0,40.0,False,,232.93490090865438,[],"[720, 450]",ColorTask,46.0,84.0,,,HRV,HRV_0017,2022-11-30 18:06:18
,wl-rdm,92,251047,0.0-6.84-0.84,0.0,93.0,,,,,,,[],,,,,,53.2,0.0,i,1.0,False,757.0,46.0,59.0,40.0,False,,346.0984508257171,[],"[720, 450]",ColorTask,45.0,85.0,,,HRV,HRV_0017,2022-11-30 18:06:18
,wl-rdm,93,253514,0.0-6.85-0.85,0.0,94.0,,,,,,,[],,,,,,50.0,0.0,i,1.0,False,1070.5,65.0,59.0,40.0,False,,314.05044611361245,[],"[720, 450]",ColorTask,44.0,86.0,,,HRV,HRV_0017,2022-11-30 18:06:18
,wl-rdm,94,256347,0.0-6.86-0.86,0.0,95.0,,,,,,,[],,,,,,53.2,1.0,u,0.0,False,1496.1000000238419,90.0,59.0,40.0,False,,277.41642765487217,[],"[720, 450]",ColorTask,43.0,87.0,,,HRV,HRV_0017,2022-11-30 18:06:18
,wl-rdm,95,259314,0.0-6.87-0.87,0.0,96.0,,,,,,,[],,,,,,53.2,0.0,u,0.0,True,1583.199999988079,95.0,59.0,40.0,False,,310.5575996759602,[],"[720, 450]",ColorTask,44.0,88.0,,,HRV,HRV_0017,2022-11-30 18:06:18
,wl-rdm,96,262014,0.0-6.88-0.88,0.0,97.0,,,,,,,[],,,,,,53.2,1.0,i,1.0,True,1239.0,75.0,59.0,40.0,False,,370.3711035128142,[],"[720, 450]",ColorTask,45.0,89.0,,,HRV,HRV_0017,2022-11-30 18:06:18
,wl-rdm,97,264132,0.0-6.89-0.89,0.0,98.0,,,,,,,[],,,,,,73.6,0.0,u,0.0,True,795.9000000357628,48.0,59.0,40.0,False,,236.81429897213863,[],"[720, 450]",ColorTask,46.0,90.0,,,HRV,HRV_0017,2022-11-30 18:06:18
,wl-rdm,98,266431,0.0-6.90-0.90,0.0,99.0,,,,,,,[],,,,,,62.5,1.0,u,0.0,False,857.0999999642372,52.0,59.0,40.0,False,,354.22978821794914,[],"[720, 450]",ColorTask,45.0,91.0,,,HRV,HRV_0017,2022-11-30 18:06:18
,wl-rdm,99,268531,0.0-6.91-0.91,0.0,100.0,,,,,,,[],,,,,,87.9,1.0,i,1.0,True,730.4000000357628,44.0,59.0,40.0,False,,310.36100781333346,[],"[720, 450]",ColorTask,46.0,92.0,,,HRV,HRV_0017,2022-11-30 18:06:18
,wl-rdm,100,270914,0.0-6.92-0.92,0.0,101.0,,,,,,,[],,,,,,56.4,1.0,u,0.0,False,1089.2000000476837,66.0,59.0,40.0,False,,224.05090562724587,[],"[720, 450]",ColorTask,45.0,93.0,,,HRV,HRV_0017,2022-11-30 18:06:18
,wl-rdm,101,273363,0.0-6.93-0.93,0.0,102.0,,,,,,,[],,,,,,53.2,1.0,u,0.0,False,1073.199999988079,65.0,59.0,40.0,False,,316.5295873252604,[],"[720, 450]",ColorTask,44.0,94.0,,,HRV,HRV_0017,2022-11-30 18:06:18
,wl-rdm,102,275814,0.0-6.94-0.94,0.0,103.0,,,,,,,[],,,,,,56.4,0.0,i,1.0,False,1145.6000000238419,69.0,59.0,40.0,False,,237.26022617068173,[],"[720, 450]",ColorTask,43.0,95.0,,,HRV,HRV_0017,2022-11-30 18:06:18
,wl-rdm,103,278981,0.0-6.95-0.95,0.0,104.0,,,,,,,[],,,,,,62.5,0.0,u,0.0,True,1779.4999999403954,107.0,59.0,40.0,False,,324.4696984475065,[],"[720, 450]",ColorTask,44.0,96.0,,,HRV,HRV_0017,2022-11-30 18:06:18
,wl-rdm,104,281930,0.0-6.96-0.96,0.0,105.0,,,,,,,[],,,,,,73.6,1.0,i,1.0,True,1478.7000000476837,89.0,59.0,40.0,False,,398.3856792594463,[],"[720, 450]",ColorTask,45.0,97.0,,,HRV,HRV_0017,2022-11-30 18:06:18
,wl-rdm,105,284182,0.0-6.97-0.97,0.0,106.0,,,,,,,[],,,,,,73.6,0.0,u,0.0,True,849.0999999642372,51.0,59.0,40.0,False,,320.4459669650269,[],"[720, 450]",ColorTask,46.0,98.0,,,HRV,HRV_0017,2022-11-30 18:06:18
,wl-rdm,106,287065,0.0-6.98-0.98,0.0,107.0,,,,,,,[],,,,,,50.0,0.0,u,0.0,True,1588.699999988079,96.0,59.0,40.0,False,,201.35966282256612,[],"[720, 450]",ColorTask,47.0,99.0,,,HRV,HRV_0017,2022-11-30 18:06:18
,wl-rdm,107,289281,0.0-6.99-0.99,0.0,108.0,,,,,,,[],,,,,,73.6,1.0,i,1.0,True,763.0999999642372,46.0,59.0,40.0,False,,369.706553266465,[],"[720, 450]",ColorTask,48.0,100.0,,,HRV,HRV_0017,2022-11-30 18:06:18
,wl-rdm,108,291714,0.0-6.100-0.100,0.0,109.0,,,,,,,[],,,,,,73.6,1.0,i,1.0,True,1106.2000000476837,67.0,59.0,40.0,False,,265.3066529767323,[],"[720, 450]",ColorTask,49.0,101.0,,,HRV,HRV_0017,2022-11-30 18:06:18
,wl-rdm,109,293931,0.0-6.101-0.101,0.0,110.0,,,,,,,[],,,,,,50.0,0.0,u,0.0,True,862.4000000357628,52.0,59.0,40.0,False,,296.2597601562252,[],"[720, 450]",ColorTask,50.0,102.0,,,HRV,HRV_0017,2022-11-30 18:06:18
,wl-rdm,110,296664,0.0-6.102-0.102,0.0,111.0,,,,,,,[],,,,,,56.4,0.0,u,0.0,True,1439.0,87.0,59.0,40.0,False,,228.52149580311004,[],"[720, 450]",ColorTask,51.0,103.0,,,HRV,HRV_0017,2022-11-30 18:06:18
,wl-rdm,111,299765,0.0-6.103-0.103,0.0,112.0,,,,,,,[],,,,,,56.4,1.0,u,0.0,False,1780.699999988079,107.0,59.0,40.0,False,,244.42496229989857,[],"[720, 450]",ColorTask,50.0,104.0,,,HRV,HRV_0017,2022-11-30 18:06:18
,wl-rdm,112,302114,0.0-6.104-0.104,0.0,113.0,,,,,,,[],,,,,,62.5,0.0,i,1.0,False,1028.300000011921,62.0,59.0,40.0,False,,251.87861031363957,[],"[720, 450]",ColorTask,49.0,105.0,,,HRV,HRV_0017,2022-11-30 18:06:18
,wl-rdm,113,304582,0.0-6.105-0.105,0.0,114.0,,,,,,,[],,,,,,50.0,0.0,u,0.0,True,1131.699999988079,68.0,59.0,40.0,False,,265.45375306550267,[],"[720, 450]",ColorTask,50.0,106.0,,,HRV,HRV_0017,2022-11-30 18:06:18
,wl-rdm,114,306782,0.0-6.106-0.106,0.0,115.0,,,,,,,[],,,,,,87.9,0.0,u,0.0,True,920.1999999880791,56.0,59.0,40.0,False,,204.97061236477543,[],"[720, 450]",ColorTask,51.0,107.0,,,HRV,HRV_0017,2022-11-30 18:06:18
,wl-rdm,115,309131,0.0-6.107-0.107,0.0,116.0,,,,,,,[],,,,,,50.0,0.0,i,1.0,False,963.5999999642372,58.0,59.0,40.0,False,,328.114187482495,[],"[720, 450]",ColorTask,50.0,108.0,,,HRV,HRV_0017,2022-11-30 18:06:18
,wl-html-keyboard-response,116,317660,0.0-7.0-0.0,1.0,117.0,,,,,,,,6514.299999952316,1.0,0,,,,,,,,,,,,,,,,,,,,,,HRV,HRV_0017,2022-11-30 18:06:18
,wl-rdm,117,320165,0.0-8.0-0.0,1.0,118.0,,,,,,,[],,,,,,56.4,1.0,u,0.0,False,1078.8999999761581,65.0,59.0,40.0,False,,358.3896557105003,[],"[720, 450]",ColorTask,49.0,1.0,,,HRV,HRV_0017,2022-11-30 18:06:18
,wl-rdm,118,323015,0.0-8.1-0.1,1.0,119.0,,,,,,,[],,,,,,53.2,0.0,u,0.0,True,1511.699999988079,91.0,59.0,40.0,False,,254.70776175617132,[],"[720, 450]",ColorTask,50.0,2.0,,,HRV,HRV_0017,2022-11-30 18:06:18
,wl-rdm,119,325048,0.0-8.2-0.2,1.0,120.0,,,,,,,[],,,,,,56.4,1.0,i,1.0,True,754.7999999523163,46.0,59.0,40.0,False,,212.24255999448297,[],"[720, 450]",ColorTask,51.0,3.0,,,HRV,HRV_0017,2022-11-30 18:06:18
,wl-rdm,120,327414,0.0-8.3-0.3,1.0,121.0,,,,,,,[],,,,,,62.5,1.0,i,1.0,True,1095.300000011921,66.0,59.0,40.0,False,,213.66929957621076,[],"[720, 450]",ColorTask,52.0,4.0,,,HRV,HRV_0017,2022-11-30 18:06:18
,wl-rdm,121,330531,0.0-8.4-0.4,1.0,122.0,,,,,,,[],,,,,,73.6,1.0,i,1.0,True,1772.4000000357628,107.0,59.0,40.0,False,,269.8654806269385,[],"[720, 450]",ColorTask,53.0,5.0,,,HRV,HRV_0017,2022-11-30 18:06:18
,wl-rdm,122,332848,0.0-8.5-0.5,1.0,123.0,,,,,,,[],,,,,,56.4,0.0,u,0.0,True,978.3999999761581,59.0,59.0,40.0,False,,275.2169238457925,[],"[720, 450]",ColorTask,54.0,6.0,,,HRV,HRV_0017,2022-11-30 18:06:18
,wl-rdm,123,335249,0.0-8.6-0.6,1.0,124.0,,,,,,,[],,,,,,87.9,1.0,i,1.0,True,947.1999999880791,57.0,59.0,40.0,False,,386.6292172731015,[],"[720, 450]",ColorTask,55.0,7.0,,,HRV,HRV_0017,2022-11-30 18:06:18
,wl-rdm,124,338566,0.0-8.7-0.7,1.0,125.0,,,,,,,[],,,,,,50.0,0.0,u,0.0,True,1887.300000011921,114.0,59.0,40.0,False,,343.97747147345774,[],"[720, 450]",ColorTask,56.0,8.0,,,HRV,HRV_0017,2022-11-30 18:06:18
,wl-rdm,125,340648,0.0-8.8-0.8,1.0,126.0,,,,,,,[],,,,,,50.0,1.0,i,1.0,True,815.5000000596046,49.0,59.0,40.0,False,,201.618342229661,[],"[720, 450]",ColorTask,57.0,9.0,,,HRV,HRV_0017,2022-11-30 18:06:18
,wl-rdm,126,342815,0.0-8.9-0.9,1.0,127.0,,,,,,,[],,,,,,53.2,0.0,i,1.0,False,844.9000000357628,51.0,59.0,40.0,False,,247.74340865433862,[],"[720, 450]",ColorTask,56.0,10.0,,,HRV,HRV_0017,2022-11-30 18:06:18
,wl-rdm,127,345065,0.0-8.10-0.10,1.0,128.0,,,,,,,[],,,,,,62.5,1.0,i,1.0,True,939.0,57.0,59.0,40.0,False,,233.23501606316034,[],"[720, 450]",ColorTask,57.0,11.0,,,HRV,HRV_0017,2022-11-30 18:06:18
,wl-rdm,128,347748,0.0-8.11-0.11,1.0,129.0,,,,,,,[],,,,,,56.4,1.0,u,0.0,False,1371.300000011921,83.0,59.0,40.0,False,,234.31881653128733,[],"[720, 450]",ColorTask,56.0,12.0,,,HRV,HRV_0017,2022-11-30 18:06:18
,wl-rdm,129,350231,0.0-8.12-0.12,1.0,130.0,,,,,,,[],,,,,,73.6,1.0,i,1.0,True,1005.8000000715256,61.0,59.0,40.0,False,,396.48265997574174,[],"[720, 450]",ColorTask,57.0,13.0,,,HRV,HRV_0017,2022-11-30 18:06:18
,wl-rdm,130,352382,0.0-8.13-0.13,1.0,131.0,,,,,,,[],,,,,,73.6,0.0,u,0.0,True,723.6000000238419,44.0,59.0,40.0,False,,340.22929398617316,[],"[720, 450]",ColorTask,58.0,14.0,,,HRV,HRV_0017,2022-11-30 18:06:18
,wl-rdm,131,354865,0.0-8.14-0.14,1.0,132.0,,,,,,,[],,,,,,53.2,0.0,u,0.0,True,1073.6000000238419,65.0,59.0,40.0,False,,347.4952865635836,[],"[720, 450]",ColorTask,59.0,15.0,,,HRV,HRV_0017,2022-11-30 18:06:18
,wl-rdm,132,357116,0.0-8.15-0.15,1.0,133.0,,,,,,,[],,,,,,87.9,1.0,u,0.0,False,946.1999999880791,57.0,59.0,40.0,False,,236.7805396687764,[],"[720, 450]",ColorTask,58.0,16.0,,,HRV,HRV_0017,2022-11-30 18:06:18
,wl-rdm,133,359149,0.0-8.16-0.16,1.0,134.0,,,,,,,[],,,,,,53.2,1.0,i,1.0,True,614.3000000715256,37.0,59.0,40.0,False,,353.204002550312,[],"[720, 450]",ColorTask,59.0,17.0,,,HRV,HRV_0017,2022-11-30 18:06:18
,wl-rdm,134,361398,0.0-8.17-0.17,1.0,135.0,,,,,,,[],,,,,,73.6,1.0,i,1.0,True,843.1999999880791,51.0,59.0,40.0,False,,325.21912798205057,[],"[720, 450]",ColorTask,60.0,18.0,,,HRV,HRV_0017,2022-11-30 18:06:18
,wl-rdm,135,363815,0.0-8.18-0.18,1.0,136.0,,,,,,,[],,,,,,50.0,1.0,u,0.0,False,1056.1999999284744,64.0,59.0,40.0,False,,288.6051170600713,[],"[720, 450]",ColorTask,59.0,19.0,,,HRV,HRV_0017,2022-11-30 18:06:18
,wl-rdm,136,366298,0.0-8.19-0.19,1.0,137.0,,,,,,,[],,,,,,56.4,1.0,i,1.0,True,1023.5,62.0,59.0,40.0,False,,386.86820915274114,[],"[720, 450]",ColorTask,60.0,20.0,,,HRV,HRV_0017,2022-11-30 18:06:18
,wl-rdm,137,368648,0.0-8.20-0.20,1.0,138.0,,,,,,,[],,,,,,56.4,1.0,i,1.0,True,1005.4000000357628,61.0,59.0,40.0,False,,261.7516991061624,[],"[720, 450]",ColorTask,61.0,21.0,,,HRV,HRV_0017,2022-11-30 18:06:18
,wl-rdm,138,370931,0.0-8.21-0.21,1.0,139.0,,,,,,,[],,,,,,62.5,1.0,i,1.0,True,957.3999999761581,58.0,59.0,40.0,False,,251.28307923017147,[],"[720, 450]",ColorTask,62.0,22.0,,,HRV,HRV_0017,2022-11-30 18:06:18
,wl-rdm,139,373383,0.0-8.22-0.22,1.0,140.0,,,,,,,[],,,,,,53.2,0.0,u,0.0,True,1146.9000000357628,69.0,59.0,40.0,False,,248.67299585257422,[],"[720, 450]",ColorTask,63.0,23.0,,,HRV,HRV_0017,2022-11-30 18:06:18
,wl-rdm,140,376183,0.0-8.23-0.23,1.0,141.0,,,,,,,[],,,,,,53.2,1.0,i,1.0,True,1492.8999999761581,90.0,59.0,40.0,False,,240.14856127902706,[],"[720, 450]",ColorTask,64.0,24.0,,,HRV,HRV_0017,2022-11-30 18:06:18
,wl-rdm,141,378616,0.0-8.24-0.24,1.0,142.0,,,,,,,[],,,,,,73.6,1.0,i,1.0,True,1089.5999999642372,66.0,59.0,40.0,False,,266.5737354169795,[],"[720, 450]",ColorTask,65.0,25.0,,,HRV,HRV_0017,2022-11-30 18:06:18
,wl-rdm,142,381148,0.0-8.25-0.25,1.0,143.0,,,,,,,[],,,,,,50.0,1.0,i,1.0,True,1206.6000000238419,73.0,59.0,40.0,False,,253.22540389192758,[],"[720, 450]",ColorTask,66.0,26.0,,,HRV,HRV_0017,2022-11-30 18:06:18
,wl-rdm,143,383648,0.0-8.26-0.26,1.0,144.0,,,,,,,[],,,,,,53.2,1.0,i,1.0,True,1155.199999988079,70.0,59.0,40.0,False,,281.27830486684206,[],"[720, 450]",ColorTask,67.0,27.0,,,HRV,HRV_0017,2022-11-30 18:06:18
,wl-rdm,144,385765,0.0-8.27-0.27,1.0,145.0,,,,,,,[],,,,,,73.6,0.0,u,0.0,True,808.0,49.0,59.0,40.0,False,,233.61898998856134,[],"[720, 450]",ColorTask,68.0,28.0,,,HRV,HRV_0017,2022-11-30 18:06:18
,wl-rdm,145,388698,0.0-8.28-0.28,1.0,146.0,,,,,,,[],,,,,,53.2,1.0,u,0.0,False,1539.7000000476837,93.0,59.0,40.0,False,,324.7374338988536,[],"[720, 450]",ColorTask,67.0,29.0,,,HRV,HRV_0017,2022-11-30 18:06:18
,wl-rdm,146,390799,0.0-8.29-0.29,1.0,147.0,,,,,,,[],,,,,,73.6,0.0,i,1.0,False,821.3000000119209,50.0,59.0,40.0,False,,214.30507270180576,[],"[720, 450]",ColorTask,66.0,30.0,,,HRV,HRV_0017,2022-11-30 18:06:18
,wl-rdm,147,392799,0.0-8.30-0.30,1.0,148.0,,,,,,,[],,,,,,87.9,1.0,i,1.0,True,688.6000000238419,42.0,59.0,40.0,False,,243.62659211498084,[],"[720, 450]",ColorTask,67.0,31.0,,,HRV,HRV_0017,2022-11-30 18:06:18
,wl-rdm,148,395432,0.0-8.31-0.31,1.0,149.0,,,,,,,[],,,,,,50.0,0.0,i,1.0,False,1270.300000011921,77.0,59.0,40.0,False,,288.99884292479624,[],"[720, 450]",ColorTask,66.0,32.0,,,HRV,HRV_0017,2022-11-30 18:06:18
,wl-rdm,149,397865,0.0-8.32-0.32,1.0,150.0,,,,,,,[],,,,,,53.2,1.0,u,0.0,False,1116.7000000476837,67.0,59.0,40.0,False,,247.71850068768583,[],"[720, 450]",ColorTask,65.0,33.0,,,HRV,HRV_0017,2022-11-30 18:06:18
,wl-rdm,150,400116,0.0-8.33-0.33,1.0,151.0,,,,,,,[],,,,,,73.6,1.0,i,1.0,True,955.8999999761581,58.0,59.0,40.0,False,,228.4222312599852,[],"[720, 450]",ColorTask,66.0,34.0,,,HRV,HRV_0017,2022-11-30 18:06:18
,wl-rdm,151,402749,0.0-8.34-0.34,1.0,152.0,,,,,,,[],,,,,,56.4,1.0,u,0.0,False,1172.699999988079,71.0,59.0,40.0,False,,392.3737354794624,[],"[720, 450]",ColorTask,65.0,35.0,,,HRV,HRV_0017,2022-11-30 18:06:18
,wl-rdm,152,405349,0.0-8.35-0.35,1.0,153.0,,,,,,,[],,,,,,62.5,0.0,u,0.0,True,1149.1000000238419,69.0,59.0,40.0,False,,386.16469217811044,[],"[720, 450]",ColorTask,66.0,36.0,,,HRV,HRV_0017,2022-11-30 18:06:18
,wl-rdm,153,407549,0.0-8.36-0.36,1.0,154.0,,,,,,,[],,,,,,53.2,0.0,u,0.0,True,823.2000000476837,50.0,59.0,40.0,False,,311.4419637654409,[],"[720, 450]",ColorTask,67.0,37.0,,,HRV,HRV_0017,2022-11-30 18:06:18
,wl-rdm,154,410016,0.0-8.37-0.37,1.0,155.0,,,,,,,[],,,,,,50.0,1.0,u,0.0,False,1195.800000011921,72.0,59.0,40.0,False,,211.90404897367458,[],"[720, 450]",ColorTask,66.0,38.0,,,HRV,HRV_0017,2022-11-30 18:06:18
,wl-rdm,155,413214,0.0-8.38-0.38,1.0,156.0,,,,,,,[],,,,,,56.4,0.0,u,0.0,True,1776.6000000238419,107.0,59.0,40.0,False,,336.96594630274586,[],"[720, 450]",ColorTask,67.0,39.0,,,HRV,HRV_0017,2022-11-30 18:06:18
,wl-rdm,156,415583,0.0-8.39-0.39,1.0,157.0,,,,,,,[],,,,,,56.4,1.0,u,0.0,False,1004.5999999642372,61.0,59.0,40.0,False,,292.3256416325933,[],"[720, 450]",ColorTask,66.0,40.0,,,HRV,HRV_0017,2022-11-30 18:06:18
,wl-rdm,157,417783,0.0-8.40-0.40,1.0,158.0,,,,,,,[],,,,,,53.2,0.0,u,0.0,True,911.1000000238419,55.0,59.0,40.0,False,,230.09874215453044,[],"[720, 450]",ColorTask,67.0,41.0,,,HRV,HRV_0017,2022-11-30 18:06:18
,wl-rdm,158,420099,0.0-8.41-0.41,1.0,159.0,,,,,,,[],,,,,,56.4,0.0,u,0.0,True,915.2000000476837,55.0,59.0,40.0,False,,329.7189022133549,[],"[720, 450]",ColorTask,68.0,42.0,,,HRV,HRV_0017,2022-11-30 18:06:18
,wl-rdm,159,422116,0.0-8.42-0.42,1.0,160.0,,,,,,,[],,,,,,87.9,0.0,u,0.0,True,630.8000000119209,38.0,59.0,40.0,False,,314.6589872037015,[],"[720, 450]",ColorTask,69.0,43.0,,,HRV,HRV_0017,2022-11-30 18:06:18
,wl-rdm,160,424299,0.0-8.43-0.43,1.0,161.0,,,,,,,[],,,,,,62.5,1.0,i,1.0,True,889.8000000715256,54.0,59.0,40.0,False,,232.3740387678289,[],"[720, 450]",ColorTask,70.0,44.0,,,HRV,HRV_0017,2022-11-30 18:06:18
,wl-rdm,161,426699,0.0-8.44-0.44,1.0,162.0,,,,,,,[],,,,,,53.2,1.0,u,0.0,False,976.4999999403954,59.0,59.0,40.0,False,,334.94485658173426,[],"[720, 450]",ColorTask,69.0,45.0,,,HRV,HRV_0017,2022-11-30 18:06:18
,wl-rdm,162,429299,0.0-8.45-0.45,1.0,163.0,,,,,,,[],,,,,,50.0,1.0,u,0.0,False,1187.5999999642372,72.0,59.0,40.0,False,,320.5052826171656,[],"[720, 450]",ColorTask,68.0,46.0,,,HRV,HRV_0017,2022-11-30 18:06:18
,wl-rdm,163,431449,0.0-8.46-0.46,1.0,164.0,,,,,,,[],,,,,,73.6,1.0,i,1.0,True,762.2000000476837,46.0,59.0,40.0,False,,332.5322286924662,[],"[720, 450]",ColorTask,69.0,47.0,,,HRV,HRV_0017,2022-11-30 18:06:18
,wl-rdm,164,433983,0.0-8.47-0.47,1.0,165.0,,,,,,,[],,,,,,73.6,1.0,i,1.0,True,1260.1000000238419,76.0,59.0,40.0,False,,208.87047561819082,[],"[720, 450]",ColorTask,70.0,48.0,,,HRV,HRV_0017,2022-11-30 18:06:18
,wl-rdm,165,436749,0.0-8.48-0.48,1.0,166.0,,,,,,,[],,,,,,56.4,0.0,u,0.0,True,1348.8999999761581,81.0,59.0,40.0,False,,346.3139706360502,[],"[720, 450]",ColorTask,71.0,49.0,,,HRV,HRV_0017,2022-11-30 18:06:18
,wl-rdm,166,438866,0.0-8.49-0.49,1.0,167.0,,,,,,,[],,,,,,62.5,1.0,i,1.0,True,814.4000000357628,49.0,59.0,40.0,False,,218.75535800593988,[],"[720, 450]",ColorTask,72.0,50.0,,,HRV,HRV_0017,2022-11-30 18:06:18
,wl-rdm,167,441132,0.0-8.50-0.50,1.0,168.0,,,,,,,[],,,,,,87.9,1.0,i,1.0,True,904.4000000357628,55.0,59.0,40.0,False,,296.91497924309783,[],"[720, 450]",ColorTask,73.0,51.0,,,HRV,HRV_0017,2022-11-30 18:06:18
,wl-rdm,168,443783,0.0-8.51-0.51,1.0,169.0,,,,,,,[],,,,,,62.5,0.0,u,0.0,True,1244.7999999523163,75.0,59.0,40.0,False,,329.01025914543146,[],"[720, 450]",ColorTask,74.0,52.0,,,HRV,HRV_0017,2022-11-30 18:06:18
,wl-rdm,169,446249,0.0-8.52-0.52,1.0,170.0,,,,,,,[],,,,,,50.0,0.0,u,0.0,True,1107.300000011921,67.0,59.0,40.0,False,,297.91130381883903,[],"[720, 450]",ColorTask,75.0,53.0,,,HRV,HRV_0017,2022-11-30 18:06:18
,wl-rdm,170,449033,0.0-8.53-0.53,1.0,171.0,,,,,,,[],,,,,,62.5,1.0,u,0.0,False,1480.699999988079,89.0,59.0,40.0,False,,237.76089023594383,[],"[720, 450]",ColorTask,74.0,54.0,,,HRV,HRV_0017,2022-11-30 18:06:18
,wl-rdm,171,451116,0.0-8.54-0.54,1.0,172.0,,,,,,,[],,,,,,87.9,1.0,i,1.0,True,713.6999999880791,43.0,59.0,40.0,False,,284.310146191241,[],"[720, 450]",ColorTask,75.0,55.0,,,HRV,HRV_0017,2022-11-30 18:06:18
,wl-rdm,172,453215,0.0-8.55-0.55,1.0,173.0,,,,,,,[],,,,,,56.4,0.0,u,0.0,True,807.1000000238419,49.0,59.0,40.0,False,,215.8190394095742,[],"[720, 450]",ColorTask,76.0,56.0,,,HRV,HRV_0017,2022-11-30 18:06:18
,wl-rdm,173,455582,0.0-8.56-0.56,1.0,174.0,,,,,,,[],,,,,,73.6,0.0,u,0.0,True,1015.1000000238419,61.0,59.0,40.0,False,,291.16732459356524,[],"[720, 450]",ColorTask,77.0,57.0,,,HRV,HRV_0017,2022-11-30 18:06:18
,wl-rdm,174,457849,0.0-8.57-0.57,1.0,175.0,,,,,,,[],,,,,,50.0,0.0,i,1.0,False,980.3999999761581,59.0,59.0,40.0,False,,222.93868647385565,[],"[720, 450]",ColorTask,76.0,58.0,,,HRV,HRV_0017,2022-11-30 18:06:18
,wl-rdm,175,460150,0.0-8.58-0.58,1.0,176.0,,,,,,,[],,,,,,73.6,1.0,i,1.0,True,827.0999999642372,51.0,59.0,40.0,False,,376.02172267097836,[],"[720, 450]",ColorTask,77.0,59.0,,,HRV,HRV_0017,2022-11-30 18:06:18
,wl-rdm,176,464183,0.0-8.59-0.59,1.0,177.0,,,,,,,[],,,,,,53.2,1.0,i,1.0,True,2622.900000035763,158.0,59.0,40.0,False,,337.4861818531558,[],"[720, 450]",ColorTask,78.0,60.0,,,HRV,HRV_0017,2022-11-30 18:06:18
,wl-rdm,177,466099,0.0-8.60-0.60,1.0,178.0,,,,,,,[],,,,,,87.9,0.0,u,0.0,True,544.2999999523163,33.0,59.0,40.0,False,,284.8915510476404,[],"[720, 450]",ColorTask,79.0,61.0,,,HRV,HRV_0017,2022-11-30 18:06:18
,wl-rdm,178,468449,0.0-8.61-0.61,1.0,179.0,,,,,,,[],,,,,,62.5,0.0,u,0.0,True,1008.0000000596046,61.0,59.0,40.0,False,,266.45512810418893,[],"[720, 450]",ColorTask,80.0,62.0,,,HRV,HRV_0017,2022-11-30 18:06:18
,wl-rdm,179,470749,0.0-8.62-0.62,1.0,180.0,,,,,,,[],,,,,,73.6,1.0,i,1.0,True,872.8000000119209,53.0,59.0,40.0,False,,366.46717235683474,[],"[720, 450]",ColorTask,81.0,63.0,,,HRV,HRV_0017,2022-11-30 18:06:18
,wl-rdm,180,472849,0.0-8.63-0.63,1.0,181.0,,,,,,,[],,,,,,62.5,1.0,i,1.0,True,700.0999999642372,42.0,59.0,40.0,False,,332.0673913380498,[],"[720, 450]",ColorTask,82.0,64.0,,,HRV,HRV_0017,2022-11-30 18:06:18
,wl-rdm,181,474867,0.0-8.64-0.64,1.0,182.0,,,,,,,[],,,,,,87.9,1.0,i,1.0,True,720.4000000357628,44.0,59.0,40.0,False,,208.89745630301385,[],"[720, 450]",ColorTask,83.0,65.0,,,HRV,HRV_0017,2022-11-30 18:06:18
,wl-rdm,182,477000,0.0-8.65-0.65,1.0,183.0,,,,,,,[],,,,,,73.6,0.0,u,0.0,True,782.0,47.0,59.0,40.0,False,,296.39123444482203,[],"[720, 450]",ColorTask,84.0,66.0,,,HRV,HRV_0017,2022-11-30 18:06:18
,wl-rdm,183,479200,0.0-8.66-0.66,1.0,184.0,,,,,,,[],,,,,,87.9,0.0,u,0.0,True,854.6999999880791,52.0,59.0,40.0,False,,257.183240972882,[],"[720, 450]",ColorTask,85.0,67.0,,,HRV,HRV_0017,2022-11-30 18:06:18
,wl-rdm,184,481350,0.0-8.67-0.67,1.0,185.0,,,,,,,[],,,,,,50.0,1.0,u,0.0,False,681.7000000476837,41.0,59.0,40.0,False,,385.09017972196,[],"[720, 450]",ColorTask,84.0,68.0,,,HRV,HRV_0017,2022-11-30 18:06:18
,wl-rdm,185,483583,0.0-8.68-0.68,1.0,186.0,,,,,,,[],,,,,,62.5,0.0,i,1.0,False,805.6999999880791,49.0,59.0,40.0,False,,340.0622945282338,[],"[720, 450]",ColorTask,83.0,69.0,,,HRV,HRV_0017,2022-11-30 18:06:18
,wl-rdm,186,485932,0.0-8.69-0.69,1.0,187.0,,,,,,,[],,,,,,62.5,0.0,u,0.0,True,1007.3999999761581,61.0,59.0,40.0,False,,281.66520105255904,[],"[720, 450]",ColorTask,84.0,70.0,,,HRV,HRV_0017,2022-11-30 18:06:18
,wl-rdm,187,487799,0.0-8.70-0.70,1.0,188.0,,,,,,,[],,,,,,87.9,0.0,u,0.0,True,512.3000000119209,31.0,59.0,40.0,False,,278.8464290829884,[],"[720, 450]",ColorTask,85.0,71.0,,,HRV,HRV_0017,2022-11-30 18:06:18
,wl-rdm,188,489949,0.0-8.71-0.71,1.0,189.0,,,,,,,[],,,,,,53.2,0.0,u,0.0,True,806.5,49.0,59.0,40.0,False,,255.7690455381469,[],"[720, 450]",ColorTask,86.0,72.0,,,HRV,HRV_0017,2022-11-30 18:06:18
,wl-rdm,189,492016,0.0-8.72-0.72,1.0,190.0,,,,,,,[],,,,,,50.0,0.0,u,0.0,True,757.6000000238419,46.0,59.0,40.0,False,,239.8510975572792,[],"[720, 450]",ColorTask,87.0,73.0,,,HRV,HRV_0017,2022-11-30 18:06:18
,wl-rdm,190,494067,0.0-8.73-0.73,1.0,191.0,,,,,,,[],,,,,,56.4,0.0,u,0.0,True,781.0,47.0,59.0,40.0,False,,204.29529777649208,[],"[720, 450]",ColorTask,88.0,74.0,,,HRV,HRV_0017,2022-11-30 18:06:18
,wl-rdm,191,495850,0.0-8.74-0.74,1.0,192.0,,,,,,,[],,,,,,62.5,0.0,u,0.0,True,507.0,31.0,59.0,40.0,False,,204.6795501933755,[],"[720, 450]",ColorTask,89.0,75.0,,,HRV,HRV_0017,2022-11-30 18:06:18
,wl-rdm,192,497884,0.0-8.75-0.75,1.0,193.0,,,,,,,[],,,,,,56.4,0.0,u,0.0,True,762.6999999880791,46.0,59.0,40.0,False,,207.36123136955956,[],"[720, 450]",ColorTask,90.0,76.0,,,HRV,HRV_0017,2022-11-30 18:06:18
,wl-rdm,193,500217,0.0-8.76-0.76,1.0,194.0,,,,,,,[],,,,,,56.4,1.0,i,1.0,True,1050.8999999761581,63.0,59.0,40.0,False,,210.30751868465836,[],"[720, 450]",ColorTask,91.0,77.0,,,HRV,HRV_0017,2022-11-30 18:06:18
,wl-rdm,194,502500,0.0-8.77-0.77,1.0,195.0,,,,,,,[],,,,,,53.2,1.0,u,0.0,False,894.9000000357628,54.0,59.0,40.0,False,,322.7363354239058,[],"[720, 450]",ColorTask,90.0,78.0,,,HRV,HRV_0017,2022-11-30 18:06:18
,wl-rdm,195,504533,0.0-8.78-0.78,1.0,196.0,,,,,,,[],,,,,,62.5,0.0,u,0.0,True,729.5999999642372,44.0,59.0,40.0,False,,218.73065878161827,[],"[720, 450]",ColorTask,91.0,79.0,,,HRV,HRV_0017,2022-11-30 18:06:18
,wl-rdm,196,506666,0.0-8.79-0.79,1.0,197.0,,,,,,,[],,,,,,87.9,0.0,u,0.0,True,771.7000000476837,47.0,59.0,40.0,False,,278.22637763408613,[],"[720, 450]",ColorTask,92.0,80.0,,,HRV,HRV_0017,2022-11-30 18:06:18
,wl-rdm,197,508883,0.0-8.80-0.80,1.0,198.0,,,,,,,[],,,,,,73.6,0.0,u,0.0,True,807.3000000119209,49.0,59.0,40.0,False,,332.9139067054167,[],"[720, 450]",ColorTask,93.0,81.0,,,HRV,HRV_0017,2022-11-30 18:06:18
,wl-rdm,198,510866,0.0-8.81-0.81,1.0,199.0,,,,,,,[],,,,,,87.9,0.0,u,0.0,True,690.3999999761581,42.0,59.0,40.0,False,,211.65428854887878,[],"[720, 450]",ColorTask,94.0,82.0,,,HRV,HRV_0017,2022-11-30 18:06:18
,wl-rdm,199,512699,0.0-8.82-0.82,1.0,200.0,,,,,,,[],,,,,,53.2,1.0,u,0.0,False,505.0,31.0,59.0,40.0,False,,251.0734788489953,[],"[720, 450]",ColorTask,93.0,83.0,,,HRV,HRV_0017,2022-11-30 18:06:18
,wl-rdm,200,515383,0.0-8.83-0.83,1.0,201.0,,,,,,,[],,,,,,62.5,1.0,i,1.0,True,1223.4000000357628,74.0,59.0,40.0,False,,390.2065085082322,[],"[720, 450]",ColorTask,94.0,84.0,,,HRV,HRV_0017,2022-11-30 18:06:18
,wl-rdm,201,518234,0.0-8.84-0.84,1.0,202.0,,,,,,,[],,,,,,53.2,0.0,i,1.0,False,1459.5,88.0,59.0,40.0,False,,315.5155868508209,[],"[720, 450]",ColorTask,93.0,85.0,,,HRV,HRV_0017,2022-11-30 18:06:18
,wl-rdm,202,520217,0.0-8.85-0.85,1.0,203.0,,,,,,,[],,,,,,87.9,0.0,u,0.0,True,676.5,41.0,59.0,40.0,False,,229.322764816233,[],"[720, 450]",ColorTask,94.0,86.0,,,HRV,HRV_0017,2022-11-30 18:06:18
,wl-rdm,203,522167,0.0-8.86-0.86,1.0,204.0,,,,,,,[],,,,,,87.9,1.0,i,1.0,True,573.0,35.0,59.0,40.0,False,,316.7770105828823,[],"[720, 450]",ColorTask,95.0,87.0,,,HRV,HRV_0017,2022-11-30 18:06:18
,wl-rdm,204,524133,0.0-8.87-0.87,1.0,205.0,,,,,,,[],,,,,,87.9,1.0,i,1.0,True,523.0,32.0,59.0,40.0,False,,355.5386999572901,[],"[720, 450]",ColorTask,96.0,88.0,,,HRV,HRV_0017,2022-11-30 18:06:18
,wl-rdm,205,526250,0.0-8.88-0.88,1.0,206.0,,,,,,,[],,,,,,56.4,0.0,u,0.0,True,690.5,42.0,59.0,40.0,False,,361.45654399155103,[],"[720, 450]",ColorTask,97.0,89.0,,,HRV,HRV_0017,2022-11-30 18:06:18
,wl-rdm,206,528366,0.0-8.89-0.89,1.0,207.0,,,,,,,[],,,,,,62.5,0.0,i,1.0,False,823.5999999642372,50.0,59.0,40.0,False,,216.03356827805894,[],"[720, 450]",ColorTask,96.0,90.0,,,HRV,HRV_0017,2022-11-30 18:06:18
,wl-rdm,207,530466,0.0-8.90-0.90,1.0,208.0,,,,,,,[],,,,,,62.5,1.0,i,1.0,True,680.2999999523163,41.0,59.0,40.0,False,,366.30517104605076,[],"[720, 450]",ColorTask,97.0,91.0,,,HRV,HRV_0017,2022-11-30 18:06:18
,wl-rdm,208,532516,0.0-8.91-0.91,1.0,209.0,,,,,,,[],,,,,,56.4,0.0,u,0.0,True,722.5,44.0,59.0,40.0,False,,265.63662610318937,[],"[720, 450]",ColorTask,98.0,92.0,,,HRV,HRV_0017,2022-11-30 18:06:18
,wl-rdm,209,535034,0.0-8.92-0.92,1.0,210.0,,,,,,,[],,,,,,50.0,1.0,u,0.0,False,1168.3999999761581,70.0,59.0,40.0,False,,276.15071623892516,[],"[720, 450]",ColorTask,97.0,93.0,,,HRV,HRV_0017,2022-11-30 18:06:18
,wl-rdm,210,537134,0.0-8.93-0.93,1.0,211.0,,,,,,,[],,,,,,87.9,1.0,i,1.0,True,707.0,43.0,59.0,40.0,False,,329.70745316828527,[],"[720, 450]",ColorTask,98.0,94.0,,,HRV,HRV_0017,2022-11-30 18:06:18
,wl-rdm,211,539550,0.0-8.94-0.94,1.0,212.0,,,,,,,[],,,,,,50.0,0.0,i,1.0,False,1106.0,67.0,59.0,40.0,False,,243.9544793569814,[],"[720, 450]",ColorTask,97.0,95.0,,,HRV,HRV_0017,2022-11-30 18:06:18
,wl-rdm,212,542033,0.0-8.95-0.95,1.0,213.0,,,,,,,[],,,,,,50.0,0.0,u,0.0,True,1040.199999988079,63.0,59.0,40.0,False,,360.78757765610686,[],"[720, 450]",ColorTask,98.0,96.0,,,HRV,HRV_0017,2022-11-30 18:06:18
,wl-rdm,213,544067,0.0-8.96-0.96,1.0,214.0,,,,,,,[],,,,,,73.6,0.0,u,0.0,True,745.7999999523163,45.0,59.0,40.0,False,,217.73843058769214,[],"[720, 450]",ColorTask,99.0,97.0,,,HRV,HRV_0017,2022-11-30 18:06:18
,wl-rdm,214,547250,0.0-8.97-0.97,1.0,215.0,,,,,,,[],,,,,,50.0,1.0,u,0.0,False,1781.9000000357628,107.0,59.0,40.0,False,,318.56001162804574,[],"[720, 450]",ColorTask,98.0,98.0,,,HRV,HRV_0017,2022-11-30 18:06:18
,wl-rdm,215,549366,0.0-8.98-0.98,1.0,216.0,,,,,,,[],,,,,,56.4,1.0,i,1.0,True,730.8000000119209,44.0,59.0,40.0,False,,325.5302135729366,[],"[720, 450]",ColorTask,99.0,99.0,,,HRV,HRV_0017,2022-11-30 18:06:18
,wl-rdm,216,551483,0.0-8.99-0.99,1.0,217.0,,,,,,,[],,,,,,73.6,0.0,u,0.0,True,834.0999999642372,50.0,59.0,40.0,False,,211.74552934771353,[],"[720, 450]",ColorTask,100.0,100.0,,,HRV,HRV_0017,2022-11-30 18:06:18
,wl-rdm,217,553751,0.0-8.100-0.100,1.0,218.0,,,,,,,[],,,,,,50.0,0.0,u,0.0,True,856.1000000238419,52.0,59.0,40.0,False,,336.9018152637565,[],"[720, 450]",ColorTask,101.0,101.0,,,HRV,HRV_0017,2022-11-30 18:06:18
,wl-rdm,218,555784,0.0-8.101-0.101,1.0,219.0,,,,,,,[],,,,,,73.6,0.0,u,0.0,True,664.1999999880791,40.0,59.0,40.0,False,,304.60032174475253,[],"[720, 450]",ColorTask,102.0,102.0,,,HRV,HRV_0017,2022-11-30 18:06:18
,wl-rdm,219,558067,0.0-8.102-0.102,1.0,220.0,,,,,,,[],,,,,,53.2,0.0,u,0.0,True,802.5999999642372,49.0,59.0,40.0,False,,388.21744948668675,[],"[720, 450]",ColorTask,103.0,103.0,,,HRV,HRV_0017,2022-11-30 18:06:18
,wl-rdm,220,559934,0.0-8.103-0.103,1.0,221.0,,,,,,,[],,,,,,87.9,0.0,u,0.0,True,566.8999999761581,34.0,59.0,40.0,False,,229.42292225999753,[],"[720, 450]",ColorTask,104.0,104.0,,,HRV,HRV_0017,2022-11-30 18:06:18
,wl-rdm,221,562233,0.0-8.104-0.104,1.0,222.0,,,,,,,[],,,,,,50.0,1.0,u,0.0,False,914.1000000238419,55.0,59.0,40.0,False,,316.023875760658,[],"[720, 450]",ColorTask,103.0,105.0,,,HRV,HRV_0017,2022-11-30 18:06:18
,wl-rdm,222,564150,0.0-8.105-0.105,1.0,223.0,,,,,,,[],,,,,,62.5,0.0,u,0.0,True,605.9999999403954,37.0,59.0,40.0,False,,227.14699261716942,[],"[720, 450]",ColorTask,104.0,106.0,,,HRV,HRV_0017,2022-11-30 18:06:18
,wl-rdm,223,566349,0.0-8.106-0.106,1.0,224.0,,,,,,,[],,,,,,50.0,0.0,u,0.0,True,856.1000000238419,52.0,59.0,40.0,False,,266.0971034155755,[],"[720, 450]",ColorTask,105.0,107.0,,,HRV,HRV_0017,2022-11-30 18:06:18
,wl-rdm,224,568284,0.0-8.107-0.107,1.0,225.0,,,,,,,[],,,,,,87.9,0.0,u,0.0,True,524.4999999403954,32.0,59.0,40.0,False,,322.98028573055484,[],"[720, 450]",ColorTask,106.0,108.0,,,HRV,HRV_0017,2022-11-30 18:06:18
,wl-html-button-response,225,569875,0.0-9.0-0.0,,,,,,,,,,1585.1000000238419,,0,,,,,,,,,,,,,,,,,,,,<h3>End of this session. Thank you!</h3><br>,['Close window'],HRV,HRV_0017,2022-11-30 18:06:18
