trialN,stimuli,trialStartTime,trialStartTime_UNIX,stimulus1,stimulus2,stimulus1Bid,stimulus2Bid,delta,selected,rt,rt_UNIX,rt_perfnow,receivedResponse,rsp,trialEndTime,trialDuration,trialEndTime_UNIX,trialDuration_UNIX,exp,subjectId,date
0,"[{'imgObject': {}, 'id': 'mango', 'src': '/static/foodstim60/mango.jpg', 'key': 'u', 'origWidth': 411, 'origHeight': 411, 'width': 411, 'height': 411, 'widthPercent': 0.45, 'rescaleHeight': False, 'trialN': 0, 'loaded': True, 'loadedTime': 2587.600000023842, 'positionName': 'LEFT', 'positionCoords': [280.2, 244.5], 'bid': 9.91}, {'imgObject': {}, 'id': 'luckycharms', 'src': '/static/foodstim60/luckycharms.jpg', 'key': 'i', 'origWidth': 410, 'origHeight': 409, 'width': 410, 'height': 409, 'widthPercent': 0.45, 'rescaleHeight': False, 'trialN': 0, 'loaded': True, 'loadedTime': 2609.100000023842, 'positionName': 'RIGHT', 'positionCoords': [748.8, 245.5], 'bid': 9.36}]",3185.7000000476837,1669830748767,mango,luckycharms,9.91,9.36,-0.5500000000000007,mango,844.3999999761581,848,848.2999999523163,True,u,4543.400000035763,1357.699999988079,1669830750125,1358,HRV,HRV_0017,2022-11-30 17:56:35
1,"[{'imgObject': {}, 'id': 'cheerios', 'src': '/static/foodstim60/cheerios.jpg', 'key': 'u', 'origWidth': 409, 'origHeight': 410, 'width': 409, 'height': 410, 'widthPercent': 0.45, 'rescaleHeight': False, 'trialN': 1, 'loaded': True, 'loadedTime': 2651.900000035763, 'positionName': 'LEFT', 'positionCoords': [282.2, 245], 'bid': 7.54}, {'imgObject': {}, 'id': 'mac & cheese', 'src': '/static/foodstim60/mac & cheese.jpg', 'key': 'i', 'origWidth': 410, 'origHeight': 410, 'width': 410, 'height': 410, 'widthPercent': 0.45, 'rescaleHeight': False, 'trialN': 1, 'loaded': True, 'loadedTime': 2652.7000000476837, 'positionName': 'RIGHT', 'positionCoords': [748.8, 245], 'bid': 7.41}]",4544.0,1669830750125,cheerios,mac & cheese,7.54,7.41,-0.1299999999999999,mac & cheese,970.0,974,974.0,True,i,6022.900000035763,1478.9000000357628,1669830751604,1479,HRV,HRV_0017,2022-11-30 17:56:35
2,"[{'imgObject': {}, 'id': 'corn cob', 'src': '/static/foodstim60/corn cob.jpg', 'key': 'u', 'origWidth': 411, 'origHeight': 411, 'width': 411, 'height': 411, 'widthPercent': 0.45, 'rescaleHeight': False, 'trialN': 2, 'loaded': True, 'loadedTime': 2649.600000023842, 'positionName': 'LEFT', 'positionCoords': [280.2, 244.5], 'bid': 9.88}, {'imgObject': {}, 'id': 'Tribe humus pita', 'src': '/static/foodstim60/Tribe humus pita.jpg', 'key': 'i', 'origWidth': 411, 'origHeight': 411, 'width': 411, 'height': 411, 'widthPercent': 0.45, 'rescaleHeight': False, 'trialN': 2, 'loaded': True, 'loadedTime': 2660.600000023842, 'positionName': 'RIGHT', 'positionCoords': [748.8, 244.5], 'bid': 9.98}]",6023.400000035763,1669830751605,corn cob,Tribe humus pita,9.88,9.98,0.09999999999999964,corn cob,809.0,813,813.8000000119209,True,u,7344.900000035763,1321.5,1669830752926,1321,HRV,HRV_0017,2022-11-30 17:56:35
3,"[{'imgObject': {}, 'id': 'bagel plain', 'src': '/static/foodstim60/bagel plain.jpg', 'key': 'u', 'origWidth': 410, 'origHeight': 410, 'width': 410, 'height': 410, 'widthPercent': 0.45, 'rescaleHeight': False, 'trialN': 3, 'loaded': True, 'loadedTime': 2662.5, 'positionName': 'LEFT', 'positionCoords': [281.2, 245], 'bid': 0.08}, {'imgObject': {}, 'id': 'blackbeanswithrice', 'src': '/static/foodstim60/blackbeanswithrice.jpg', 'key': 'i', 'origWidth': 410, 'origHeight': 410, 'width': 410, 'height': 410, 'widthPercent': 0.45, 'rescaleHeight': False, 'trialN': 3, 'loaded': True, 'loadedTime': 2663.600000023842, 'positionName': 'RIGHT', 'positionCoords': [748.8, 245], 'bid': 7.59}]",7345.300000011921,1669830752926,bagel plain,blackbeanswithrice,0.08,7.59,7.51,blackbeanswithrice,782.6000000238419,787,786.0,True,i,8640.300000011921,1295.0,1669830754222,1296,HRV,HRV_0017,2022-11-30 17:56:35
4,"[{'imgObject': {}, 'id': 'luckycharms', 'src': '/static/foodstim60/luckycharms.jpg', 'key': 'u', 'origWidth': 410, 'origHeight': 409, 'width': 410, 'height': 409, 'widthPercent': 0.45, 'rescaleHeight': False, 'trialN': 4, 'loaded': True, 'loadedTime': 2609.900000035763, 'positionName': 'LEFT', 'positionCoords': [281.2, 245.5], 'bid': 9.36}, {'imgObject': {}, 'id': 'yogurt no spoon', 'src': '/static/foodstim60/yogurt no spoon.jpg', 'key': 'i', 'origWidth': 411, 'origHeight': 410, 'width': 411, 'height': 410, 'widthPercent': 0.45, 'rescaleHeight': False, 'trialN': 4, 'loaded': True, 'loadedTime': 2667.2000000476837, 'positionName': 'RIGHT', 'positionCoords': [748.8, 245], 'bid': 9.51}]",8640.900000035763,1669830754222,luckycharms,yogurt no spoon,9.36,9.51,0.15000000000000036,yogurt no spoon,767.5999999642372,773,772.6999999880791,True,i,9921.100000023842,1280.199999988079,1669830755502,1280,HRV,HRV_0017,2022-11-30 17:56:35
5,"[{'imgObject': {}, 'id': 'tacos', 'src': '/static/foodstim60/tacos.jpg', 'key': 'u', 'origWidth': 411, 'origHeight': 411, 'width': 411, 'height': 411, 'widthPercent': 0.45, 'rescaleHeight': False, 'trialN': 5, 'loaded': True, 'loadedTime': 2690.5, 'positionName': 'LEFT', 'positionCoords': [280.2, 244.5], 'bid': 9.86}, {'imgObject': {}, 'id': 'granola w milk', 'src': '/static/foodstim60/granola w milk.jpg', 'key': 'i', 'origWidth': 410, 'origHeight': 410, 'width': 410, 'height': 410, 'widthPercent': 0.45, 'rescaleHeight': False, 'trialN': 5, 'loaded': True, 'loadedTime': 2709.5, 'positionName': 'RIGHT', 'positionCoords': [748.8, 245], 'bid': 9.69}]",9921.600000023842,1669830755503,tacos,granola w milk,9.86,9.69,-0.16999999999999993,tacos,802.3999999761581,807,807.6999999880791,True,u,11230.700000047684,1309.1000000238419,1669830756812,1309,HRV,HRV_0017,2022-11-30 17:56:35
6,"[{'imgObject': {}, 'id': 'orange slices', 'src': '/static/foodstim60/orange slices.jpg', 'key': 'u', 'origWidth': 409, 'origHeight': 410, 'width': 409, 'height': 410, 'widthPercent': 0.45, 'rescaleHeight': False, 'trialN': 6, 'loaded': True, 'loadedTime': 2729.900000035763, 'positionName': 'LEFT', 'positionCoords': [282.2, 245], 'bid': 5.2}, {'imgObject': {}, 'id': 'pear', 'src': '/static/foodstim60/pear.jpg', 'key': 'i', 'origWidth': 411, 'origHeight': 410, 'width': 411, 'height': 410, 'widthPercent': 0.45, 'rescaleHeight': False, 'trialN': 6, 'loaded': True, 'loadedTime': 2753.800000011921, 'positionName': 'RIGHT', 'positionCoords': [748.8, 245], 'bid': 10}]",11231.200000047684,1669830756812,orange slices,pear,5.2,10.0,4.8,orange slices,796.2999999523163,800,799.8999999761581,True,u,12537.900000035763,1306.699999988079,1669830758119,1307,HRV,HRV_0017,2022-11-30 17:56:35
7,"[{'imgObject': {}, 'id': 'mashed potato', 'src': '/static/foodstim60/mashed potato.jpg', 'key': 'u', 'origWidth': 409, 'origHeight': 409, 'width': 409, 'height': 409, 'widthPercent': 0.45, 'rescaleHeight': False, 'trialN': 7, 'loaded': True, 'loadedTime': 2771.300000011921, 'positionName': 'LEFT', 'positionCoords': [282.2, 245.5], 'bid': 0.08}, {'imgObject': {}, 'id': 'salad w chicken', 'src': '/static/foodstim60/salad w chicken.jpg', 'key': 'i', 'origWidth': 411, 'origHeight': 411, 'width': 411, 'height': 411, 'widthPercent': 0.45, 'rescaleHeight': False, 'trialN': 7, 'loaded': True, 'loadedTime': 2791.7000000476837, 'positionName': 'RIGHT', 'positionCoords': [748.8, 244.5], 'bid': 0.04}]",12538.400000035763,1669830758119,mashed potato,salad w chicken,0.08,0.04,-0.04,mashed potato,1120.5999999642372,1127,1126.300000011921,True,u,14171.0,1632.5999999642372,1669830759752,1633,HRV,HRV_0017,2022-11-30 17:56:35
8,"[{'imgObject': {}, 'id': 'cantaloupe', 'src': '/static/foodstim60/cantaloupe.jpg', 'key': 'u', 'origWidth': 409, 'origHeight': 409, 'width': 409, 'height': 409, 'widthPercent': 0.45, 'rescaleHeight': False, 'trialN': 8, 'loaded': True, 'loadedTime': 2821.100000023842, 'positionName': 'LEFT', 'positionCoords': [282.2, 245.5], 'bid': 9.91}, {'imgObject': {}, 'id': 'grilled chicken strips', 'src': '/static/foodstim60/grilled chicken strips.jpg', 'key': 'i', 'origWidth': 410, 'origHeight': 411, 'width': 410, 'height': 411, 'widthPercent': 0.45, 'rescaleHeight': False, 'trialN': 8, 'loaded': True, 'loadedTime': 2823.100000023842, 'positionName': 'RIGHT', 'positionCoords': [748.8, 244.5], 'bid': 2.09}]",14171.400000035763,1669830759752,cantaloupe,grilled chicken strips,9.91,2.09,-7.82,cantaloupe,712.0999999642372,718,717.3000000119209,True,u,15391.0,1219.5999999642372,1669830760972,1220,HRV,HRV_0017,2022-11-30 17:56:35
9,"[{'imgObject': {}, 'id': 'raisin bran w milk', 'src': '/static/foodstim60/raisin bran w milk.jpg', 'key': 'u', 'origWidth': 411, 'origHeight': 411, 'width': 411, 'height': 411, 'widthPercent': 0.45, 'rescaleHeight': False, 'trialN': 9, 'loaded': True, 'loadedTime': 2841.600000023842, 'positionName': 'LEFT', 'positionCoords': [280.2, 244.5], 'bid': 9.94}, {'imgObject': {}, 'id': 'veggieswithdip', 'src': '/static/foodstim60/veggieswithdip.jpg', 'key': 'i', 'origWidth': 409, 'origHeight': 409, 'width': 409, 'height': 409, 'widthPercent': 0.45, 'rescaleHeight': False, 'trialN': 9, 'loaded': True, 'loadedTime': 2804.900000035763, 'positionName': 'RIGHT', 'positionCoords': [748.8, 245.5], 'bid': 2.09}]",15391.400000035763,1669830760972,raisin bran w milk,veggieswithdip,9.94,2.09,-7.85,raisin bran w milk,759.6999999880791,764,763.8000000119209,True,u,16663.80000001192,1272.3999999761581,1669830762245,1273,HRV,HRV_0017,2022-11-30 17:56:35
10,"[{'imgObject': {}, 'id': 'tacos', 'src': '/static/foodstim60/tacos.jpg', 'key': 'u', 'origWidth': 411, 'origHeight': 411, 'width': 411, 'height': 411, 'widthPercent': 0.45, 'rescaleHeight': False, 'trialN': 10, 'loaded': True, 'loadedTime': 2692.600000023842, 'positionName': 'LEFT', 'positionCoords': [280.2, 244.5], 'bid': 9.86}, {'imgObject': {}, 'id': 'raisin bran w milk', 'src': '/static/foodstim60/raisin bran w milk.jpg', 'key': 'i', 'origWidth': 411, 'origHeight': 411, 'width': 411, 'height': 411, 'widthPercent': 0.45, 'rescaleHeight': False, 'trialN': 10, 'loaded': True, 'loadedTime': 2841.2000000476837, 'positionName': 'RIGHT', 'positionCoords': [748.8, 244.5], 'bid': 9.94}]",16664.200000047684,1669830762245,tacos,raisin bran w milk,9.86,9.94,0.08000000000000007,tacos,816.3999999761581,821,821.0999999642372,True,u,17995.0,1330.7999999523163,1669830763576,1331,HRV,HRV_0017,2022-11-30 17:56:35
11,"[{'imgObject': {}, 'id': 'kiwi', 'src': '/static/foodstim60/kiwi.jpg', 'key': 'u', 'origWidth': 410, 'origHeight': 410, 'width': 410, 'height': 410, 'widthPercent': 0.45, 'rescaleHeight': False, 'trialN': 11, 'loaded': True, 'loadedTime': 2863.800000011921, 'positionName': 'LEFT', 'positionCoords': [281.2, 245], 'bid': 9.91}, {'imgObject': {}, 'id': 'steak', 'src': '/static/foodstim60/steak.jpg', 'key': 'i', 'origWidth': 410, 'origHeight': 410, 'width': 410, 'height': 410, 'widthPercent': 0.45, 'rescaleHeight': False, 'trialN': 11, 'loaded': True, 'loadedTime': 2864.600000023842, 'positionName': 'RIGHT', 'positionCoords': [748.8, 245], 'bid': 2.04}]",17995.400000035763,1669830763576,kiwi,steak,9.91,2.04,-7.87,kiwi,907.8999999761581,913,912.8000000119209,True,u,19419.0,1423.5999999642372,1669830765000,1424,HRV,HRV_0017,2022-11-30 17:56:35
12,"[{'imgObject': {}, 'id': 'eggsalad', 'src': '/static/foodstim60/eggsalad.jpg', 'key': 'u', 'origWidth': 410, 'origHeight': 409, 'width': 410, 'height': 409, 'widthPercent': 0.45, 'rescaleHeight': False, 'trialN': 12, 'loaded': True, 'loadedTime': 2900.7000000476837, 'positionName': 'LEFT', 'positionCoords': [281.2, 245.5], 'bid': 1.37}, {'imgObject': {}, 'id': 'steak', 'src': '/static/foodstim60/steak.jpg', 'key': 'i', 'origWidth': 410, 'origHeight': 410, 'width': 410, 'height': 410, 'widthPercent': 0.45, 'rescaleHeight': False, 'trialN': 12, 'loaded': True, 'loadedTime': 2866, 'positionName': 'RIGHT', 'positionCoords': [748.8, 245], 'bid': 2.04}]",19419.400000035763,1669830765000,eggsalad,steak,1.37,2.04,0.6699999999999999,steak,870.0,875,874.3000000119209,True,i,20802.80000001192,1383.3999999761581,1669830766384,1384,HRV,HRV_0017,2022-11-30 17:56:35
13,"[{'imgObject': {}, 'id': 'bagel and cc', 'src': '/static/foodstim60/bagel and cc.jpg', 'key': 'u', 'origWidth': 410, 'origHeight': 410, 'width': 410, 'height': 410, 'widthPercent': 0.45, 'rescaleHeight': False, 'trialN': 13, 'loaded': True, 'loadedTime': 2928.800000011921, 'positionName': 'LEFT', 'positionCoords': [281.2, 245], 'bid': 2.61}, {'imgObject': {}, 'id': 'veggieswithdip', 'src': '/static/foodstim60/veggieswithdip.jpg', 'key': 'i', 'origWidth': 409, 'origHeight': 409, 'width': 409, 'height': 409, 'widthPercent': 0.45, 'rescaleHeight': False, 'trialN': 13, 'loaded': True, 'loadedTime': 2804.300000011921, 'positionName': 'RIGHT', 'positionCoords': [748.8, 245.5], 'bid': 2.09}]",20803.100000023842,1669830766384,bagel and cc,veggieswithdip,2.61,2.09,-0.52,bagel and cc,977.8999999761581,982,982.3999999761581,True,u,22288.5,1485.3999999761581,1669830767869,1485,HRV,HRV_0017,2022-11-30 17:56:35
14,"[{'imgObject': {}, 'id': 'sushi w_condiments', 'src': '/static/foodstim60/sushi w_condiments.jpg', 'key': 'u', 'origWidth': 410, 'origHeight': 410, 'width': 410, 'height': 410, 'widthPercent': 0.45, 'rescaleHeight': False, 'trialN': 14, 'loaded': True, 'loadedTime': 2903.2000000476837, 'positionName': 'LEFT', 'positionCoords': [281.2, 245], 'bid': 9.98}, {'imgObject': {}, 'id': 'luckycharms', 'src': '/static/foodstim60/luckycharms.jpg', 'key': 'i', 'origWidth': 410, 'origHeight': 409, 'width': 410, 'height': 409, 'widthPercent': 0.45, 'rescaleHeight': False, 'trialN': 14, 'loaded': True, 'loadedTime': 2609.800000011921, 'positionName': 'RIGHT', 'positionCoords': [748.8, 245.5], 'bid': 9.36}]",22288.900000035763,1669830767870,sushi w_condiments,luckycharms,9.98,9.36,-0.620000000000001,sushi w_condiments,1003.0999999642372,1009,1009.3000000119209,True,u,23810.100000023842,1521.199999988079,1669830769391,1521,HRV,HRV_0017,2022-11-30 17:56:35
15,"[{'imgObject': {}, 'id': 'cocktailshrimp', 'src': '/static/foodstim60/cocktailshrimp.jpg', 'key': 'u', 'origWidth': 410, 'origHeight': 410, 'width': 410, 'height': 410, 'widthPercent': 0.45, 'rescaleHeight': False, 'trialN': 15, 'loaded': True, 'loadedTime': 2930.5, 'positionName': 'LEFT', 'positionCoords': [281.2, 245], 'bid': 1.29}, {'imgObject': {}, 'id': 'Grapes', 'src': '/static/foodstim60/Grapes.jpg', 'key': 'i', 'origWidth': 411, 'origHeight': 411, 'width': 411, 'height': 411, 'widthPercent': 0.45, 'rescaleHeight': False, 'trialN': 15, 'loaded': True, 'loadedTime': 2936.300000011921, 'positionName': 'RIGHT', 'positionCoords': [748.8, 244.5], 'bid': 5.33}]",23810.5,1669830769391,cocktailshrimp,Grapes,1.29,5.33,4.04,Grapes,709.2000000476837,714,714.1000000238419,True,i,25035.0,1224.5,1669830770616,1225,HRV,HRV_0017,2022-11-30 17:56:35
16,"[{'imgObject': {}, 'id': 'olives', 'src': '/static/foodstim60/olives.jpg', 'key': 'u', 'origWidth': 410, 'origHeight': 410, 'width': 410, 'height': 410, 'widthPercent': 0.45, 'rescaleHeight': False, 'trialN': 16, 'loaded': True, 'loadedTime': 2944.800000011921, 'positionName': 'LEFT', 'positionCoords': [281.2, 245], 'bid': 0.11}, {'imgObject': {}, 'id': 'hashbrowns', 'src': '/static/foodstim60/hashbrowns.jpg', 'key': 'i', 'origWidth': 411, 'origHeight': 410, 'width': 411, 'height': 410, 'widthPercent': 0.45, 'rescaleHeight': False, 'trialN': 16, 'loaded': True, 'loadedTime': 2967.2000000476837, 'positionName': 'RIGHT', 'positionCoords': [748.8, 245], 'bid': 0.13}]",25035.30000001192,1669830770616,olives,hashbrowns,0.11,0.13,0.020000000000000004,hashbrowns,753.4000000357628,758,758.1999999880791,True,i,26302.400000035763,1267.1000000238419,1669830771883,1267,HRV,HRV_0017,2022-11-30 17:56:35
17,"[{'imgObject': {}, 'id': 'avocado', 'src': '/static/foodstim60/avocado.jpg', 'key': 'u', 'origWidth': 409, 'origHeight': 409, 'width': 409, 'height': 409, 'widthPercent': 0.45, 'rescaleHeight': False, 'trialN': 17, 'loaded': True, 'loadedTime': 2989.100000023842, 'positionName': 'LEFT', 'positionCoords': [282.2, 245.5], 'bid': 9.97}, {'imgObject': {}, 'id': 'blackbeanswithrice', 'src': '/static/foodstim60/blackbeanswithrice.jpg', 'key': 'i', 'origWidth': 410, 'origHeight': 410, 'width': 410, 'height': 410, 'widthPercent': 0.45, 'rescaleHeight': False, 'trialN': 17, 'loaded': True, 'loadedTime': 2663.7000000476837, 'positionName': 'RIGHT', 'positionCoords': [748.8, 245], 'bid': 7.59}]",26302.700000047684,1669830771884,avocado,blackbeanswithrice,9.97,7.59,-2.380000000000001,avocado,994.0,998,998.5,True,u,27811.0,1508.2999999523163,1669830773392,1508,HRV,HRV_0017,2022-11-30 17:56:35
18,"[{'imgObject': {}, 'id': 'shreddedwheatwithmilk', 'src': '/static/foodstim60/shreddedwheatwithmilk.jpg', 'key': 'u', 'origWidth': 410, 'origHeight': 410, 'width': 410, 'height': 410, 'widthPercent': 0.45, 'rescaleHeight': False, 'trialN': 18, 'loaded': True, 'loadedTime': 2969.800000011921, 'positionName': 'LEFT', 'positionCoords': [281.2, 245], 'bid': 10}, {'imgObject': {}, 'id': 'blueberries', 'src': '/static/foodstim60/blueberries.jpg', 'key': 'i', 'origWidth': 411, 'origHeight': 411, 'width': 411, 'height': 411, 'widthPercent': 0.45, 'rescaleHeight': False, 'trialN': 18, 'loaded': True, 'loadedTime': 3009.5, 'positionName': 'RIGHT', 'positionCoords': [748.8, 244.5], 'bid': 10}]",27811.5,1669830773392,shreddedwheatwithmilk,blueberries,10.0,10.0,0.0,blueberries,885.1000000238419,888,888.1000000238419,True,i,29211.100000023842,1399.6000000238419,1669830774792,1400,HRV,HRV_0017,2022-11-30 17:56:35
19,"[{'imgObject': {}, 'id': 'banana', 'src': '/static/foodstim60/banana.jpg', 'key': 'u', 'origWidth': 410, 'origHeight': 410, 'width': 410, 'height': 410, 'widthPercent': 0.45, 'rescaleHeight': False, 'trialN': 19, 'loaded': True, 'loadedTime': 3017, 'positionName': 'LEFT', 'positionCoords': [281.2, 245], 'bid': 4.84}, {'imgObject': {}, 'id': 'ice cream sundae 002', 'src': '/static/foodstim60/ice cream sundae 002.jpg', 'key': 'i', 'origWidth': 409, 'origHeight': 409, 'width': 409, 'height': 409, 'widthPercent': 0.45, 'rescaleHeight': False, 'trialN': 19, 'loaded': True, 'loadedTime': 3019.600000023842, 'positionName': 'RIGHT', 'positionCoords': [748.8, 245.5], 'bid': 5}]",29211.400000035763,1669830774792,banana,ice cream sundae 002,4.84,5.0,0.16000000000000014,ice cream sundae 002,1216.699999988079,1221,1220.699999988079,True,i,30935.100000023842,1723.699999988079,1669830776516,1724,HRV,HRV_0017,2022-11-30 17:56:35
20,"[{'imgObject': {}, 'id': 'burger', 'src': '/static/foodstim60/burger.jpg', 'key': 'u', 'origWidth': 409, 'origHeight': 409, 'width': 409, 'height': 409, 'widthPercent': 0.45, 'rescaleHeight': False, 'trialN': 20, 'loaded': True, 'loadedTime': 3019.800000011921, 'positionName': 'LEFT', 'positionCoords': [282.2, 245.5], 'bid': 1.33}, {'imgObject': {}, 'id': 'seaweed', 'src': '/static/foodstim60/seaweed.jpg', 'key': 'i', 'origWidth': 410, 'origHeight': 410, 'width': 410, 'height': 410, 'widthPercent': 0.45, 'rescaleHeight': False, 'trialN': 20, 'loaded': True, 'loadedTime': 3029.300000011921, 'positionName': 'RIGHT', 'positionCoords': [748.8, 245], 'bid': 6.0200000000000005}]",30935.5,1669830776516,burger,seaweed,1.33,6.0200000000000005,4.69,burger,973.4000000357628,977,976.7000000476837,True,u,32419.0,1483.5,1669830778000,1484,HRV,HRV_0017,2022-11-30 17:56:35
21,"[{'imgObject': {}, 'id': 'hotdog w must', 'src': '/static/foodstim60/hotdog w must.jpg', 'key': 'u', 'origWidth': 409, 'origHeight': 409, 'width': 409, 'height': 409, 'widthPercent': 0.45, 'rescaleHeight': False, 'trialN': 21, 'loaded': True, 'loadedTime': 3031.5, 'positionName': 'LEFT', 'positionCoords': [282.2, 245.5], 'bid': 0}, {'imgObject': {}, 'id': 'bagel plain', 'src': '/static/foodstim60/bagel plain.jpg', 'key': 'i', 'origWidth': 410, 'origHeight': 410, 'width': 410, 'height': 410, 'widthPercent': 0.45, 'rescaleHeight': False, 'trialN': 21, 'loaded': True, 'loadedTime': 2662.300000011921, 'positionName': 'RIGHT', 'positionCoords': [748.8, 245], 'bid': 0.08}]",32419.30000001192,1669830778000,hotdog w must,bagel plain,0.0,0.08,0.08,bagel plain,658.3000000119209,663,663.1999999880791,True,i,33591.0,1171.699999988079,1669830779172,1172,HRV,HRV_0017,2022-11-30 17:56:35
22,"[{'imgObject': {}, 'id': 'sushi w_condiments', 'src': '/static/foodstim60/sushi w_condiments.jpg', 'key': 'u', 'origWidth': 410, 'origHeight': 410, 'width': 410, 'height': 410, 'widthPercent': 0.45, 'rescaleHeight': False, 'trialN': 22, 'loaded': True, 'loadedTime': 2903.300000011921, 'positionName': 'LEFT', 'positionCoords': [281.2, 245], 'bid': 9.98}, {'imgObject': {}, 'id': 'ice cream sundae 002', 'src': '/static/foodstim60/ice cream sundae 002.jpg', 'key': 'i', 'origWidth': 409, 'origHeight': 409, 'width': 409, 'height': 409, 'widthPercent': 0.45, 'rescaleHeight': False, 'trialN': 22, 'loaded': True, 'loadedTime': 3017.5, 'positionName': 'RIGHT', 'positionCoords': [748.8, 245.5], 'bid': 5}]",33591.30000001192,1669830779172,sushi w_condiments,ice cream sundae 002,9.98,5.0,-4.98,ice cream sundae 002,648.0,654,653.9000000357628,True,i,34752.700000047684,1161.4000000357628,1669830780333,1161,HRV,HRV_0017,2022-11-30 17:56:35
23,"[{'imgObject': {}, 'id': 'blueberries', 'src': '/static/foodstim60/blueberries.jpg', 'key': 'u', 'origWidth': 411, 'origHeight': 411, 'width': 411, 'height': 411, 'widthPercent': 0.45, 'rescaleHeight': False, 'trialN': 23, 'loaded': True, 'loadedTime': 3009.300000011921, 'positionName': 'LEFT', 'positionCoords': [280.2, 244.5], 'bid': 10}, {'imgObject': {}, 'id': 'mango', 'src': '/static/foodstim60/mango.jpg', 'key': 'i', 'origWidth': 411, 'origHeight': 411, 'width': 411, 'height': 411, 'widthPercent': 0.45, 'rescaleHeight': False, 'trialN': 23, 'loaded': True, 'loadedTime': 2586.2000000476837, 'positionName': 'RIGHT', 'positionCoords': [748.8, 244.5], 'bid': 9.91}]",34753.200000047684,1669830780334,blueberries,mango,10.0,9.91,-0.08999999999999986,mango,731.1999999880791,736,735.7999999523163,True,i,35994.90000003576,1241.699999988079,1669830781576,1242,HRV,HRV_0017,2022-11-30 17:56:35
24,"[{'imgObject': {}, 'id': 'fruitsalad', 'src': '/static/foodstim60/fruitsalad.jpg', 'key': 'u', 'origWidth': 410, 'origHeight': 410, 'width': 410, 'height': 410, 'widthPercent': 0.45, 'rescaleHeight': False, 'trialN': 24, 'loaded': True, 'loadedTime': 3038.100000023842, 'positionName': 'LEFT', 'positionCoords': [281.2, 245], 'bid': 9.95}, {'imgObject': {}, 'id': 'lox', 'src': '/static/foodstim60/lox.jpg', 'key': 'i', 'origWidth': 410, 'origHeight': 411, 'width': 410, 'height': 411, 'widthPercent': 0.45, 'rescaleHeight': False, 'trialN': 24, 'loaded': True, 'loadedTime': 3040.300000011921, 'positionName': 'RIGHT', 'positionCoords': [748.8, 244.5], 'bid': 7.45}]",35995.30000001192,1669830781576,fruitsalad,lox,9.95,7.45,-2.499999999999999,fruitsalad,833.9000000357628,839,838.6999999880791,True,u,37345.90000003576,1350.6000000238419,1669830782926,1350,HRV,HRV_0017,2022-11-30 17:56:35
25,"[{'imgObject': {}, 'id': 'Tribe humus pita', 'src': '/static/foodstim60/Tribe humus pita.jpg', 'key': 'u', 'origWidth': 411, 'origHeight': 411, 'width': 411, 'height': 411, 'widthPercent': 0.45, 'rescaleHeight': False, 'trialN': 25, 'loaded': True, 'loadedTime': 2659.900000035763, 'positionName': 'LEFT', 'positionCoords': [280.2, 244.5], 'bid': 9.98}, {'imgObject': {}, 'id': 'apple slices', 'src': '/static/foodstim60/apple slices.jpg', 'key': 'i', 'origWidth': 409, 'origHeight': 410, 'width': 409, 'height': 410, 'widthPercent': 0.45, 'rescaleHeight': False, 'trialN': 25, 'loaded': True, 'loadedTime': 3057.2000000476837, 'positionName': 'RIGHT', 'positionCoords': [748.8, 245], 'bid': 10}]",37346.10000002384,1669830782927,Tribe humus pita,apple slices,9.98,10.0,0.019999999999999574,Tribe humus pita,976.3999999761581,980,980.6000000238419,True,u,38834.90000003576,1488.800000011921,1669830784415,1488,HRV,HRV_0017,2022-11-30 17:56:35
26,"[{'imgObject': {}, 'id': 'chicken nuggets2', 'src': '/static/foodstim60/chicken nuggets2.jpg', 'key': 'u', 'origWidth': 410, 'origHeight': 409, 'width': 410, 'height': 409, 'widthPercent': 0.45, 'rescaleHeight': False, 'trialN': 26, 'loaded': True, 'loadedTime': 3077.300000011921, 'positionName': 'LEFT', 'positionCoords': [281.2, 245.5], 'bid': 7.22}, {'imgObject': {}, 'id': 'sweetpotato', 'src': '/static/foodstim60/sweetpotato.jpg', 'key': 'i', 'origWidth': 410, 'origHeight': 410, 'width': 410, 'height': 410, 'widthPercent': 0.45, 'rescaleHeight': False, 'trialN': 26, 'loaded': True, 'loadedTime': 3095.600000023842, 'positionName': 'RIGHT', 'positionCoords': [748.8, 245], 'bid': 6.61}]",38835.200000047684,1669830784416,chicken nuggets2,sweetpotato,7.22,6.61,-0.6099999999999994,sweetpotato,845.5999999642372,850,850.5,True,i,40192.10000002384,1356.8999999761581,1669830785773,1357,HRV,HRV_0017,2022-11-30 17:56:35
27,"[{'imgObject': {}, 'id': 'fried eggs', 'src': '/static/foodstim60/fried eggs.jpg', 'key': 'u', 'origWidth': 410, 'origHeight': 410, 'width': 410, 'height': 410, 'widthPercent': 0.45, 'rescaleHeight': False, 'trialN': 27, 'loaded': True, 'loadedTime': 3097.300000011921, 'positionName': 'LEFT', 'positionCoords': [281.2, 245], 'bid': 9.95}, {'imgObject': {}, 'id': 'cheerios', 'src': '/static/foodstim60/cheerios.jpg', 'key': 'i', 'origWidth': 409, 'origHeight': 410, 'width': 409, 'height': 410, 'widthPercent': 0.45, 'rescaleHeight': False, 'trialN': 27, 'loaded': True, 'loadedTime': 2651.400000035763, 'positionName': 'RIGHT', 'positionCoords': [748.8, 245], 'bid': 7.54}]",40192.30000001192,1669830785773,fried eggs,cheerios,9.95,7.54,-2.4099999999999993,fried eggs,769.8000000119209,774,774.6000000238419,True,u,41472.30000001192,1280.0,1669830787053,1280,HRV,HRV_0017,2022-11-30 17:56:35
28,"[{'imgObject': {}, 'id': 'baked potato', 'src': '/static/foodstim60/baked potato.jpg', 'key': 'u', 'origWidth': 409, 'origHeight': 410, 'width': 409, 'height': 410, 'widthPercent': 0.45, 'rescaleHeight': False, 'trialN': 28, 'loaded': True, 'loadedTime': 3113.7000000476837, 'positionName': 'LEFT', 'positionCoords': [282.2, 245], 'bid': 4.2}, {'imgObject': {}, 'id': 'chicken nuggets2', 'src': '/static/foodstim60/chicken nuggets2.jpg', 'key': 'i', 'origWidth': 410, 'origHeight': 409, 'width': 410, 'height': 409, 'widthPercent': 0.45, 'rescaleHeight': False, 'trialN': 28, 'loaded': True, 'loadedTime': 3077.100000023842, 'positionName': 'RIGHT', 'positionCoords': [748.8, 245.5], 'bid': 7.22}]",41472.60000002384,1669830787053,baked potato,chicken nuggets2,4.2,7.22,3.0199999999999996,baked potato,1048.800000011921,1053,1053.3999999761581,True,u,43031.80000001192,1559.199999988079,1669830788612,1559,HRV,HRV_0017,2022-11-30 17:56:35
29,"[{'imgObject': {}, 'id': 'edamame', 'src': '/static/foodstim60/edamame.jpg', 'key': 'u', 'origWidth': 409, 'origHeight': 410, 'width': 409, 'height': 410, 'widthPercent': 0.45, 'rescaleHeight': False, 'trialN': 29, 'loaded': True, 'loadedTime': 3115.300000011921, 'positionName': 'LEFT', 'positionCoords': [282.2, 245], 'bid': 0}, {'imgObject': {}, 'id': 'eggs', 'src': '/static/foodstim60/eggs.jpg', 'key': 'i', 'origWidth': 409, 'origHeight': 409, 'width': 409, 'height': 409, 'widthPercent': 0.45, 'rescaleHeight': False, 'trialN': 29, 'loaded': True, 'loadedTime': 3116.800000011921, 'positionName': 'RIGHT', 'positionCoords': [748.8, 245.5], 'bid': 0.02}]",43032.200000047684,1669830788613,edamame,eggs,0.0,0.02,0.02,edamame,885.7999999523163,890,890.3999999761581,True,u,44430.30000001192,1398.0999999642372,1669830790011,1398,HRV,HRV_0017,2022-11-30 17:56:35
30,"[{'imgObject': {}, 'id': 'eggs', 'src': '/static/foodstim60/eggs.jpg', 'key': 'u', 'origWidth': 409, 'origHeight': 409, 'width': 409, 'height': 409, 'widthPercent': 0.45, 'rescaleHeight': False, 'trialN': 30, 'loaded': True, 'loadedTime': 3115.600000023842, 'positionName': 'LEFT', 'positionCoords': [282.2, 245.5], 'bid': 0.02}, {'imgObject': {}, 'id': 'turkeysandwich', 'src': '/static/foodstim60/turkeysandwich.jpg', 'key': 'i', 'origWidth': 409, 'origHeight': 409, 'width': 409, 'height': 409, 'widthPercent': 0.45, 'rescaleHeight': False, 'trialN': 30, 'loaded': True, 'loadedTime': 3118.400000035763, 'positionName': 'RIGHT', 'positionCoords': [748.8, 245.5], 'bid': 0}]",44430.60000002384,1669830790011,eggs,turkeysandwich,0.02,0.0,-0.02,turkeysandwich,1022.6000000238419,1030,1030.3999999761581,True,i,45970.90000003576,1540.300000011921,1669830791551,1540,HRV,HRV_0017,2022-11-30 17:56:35
31,"[{'imgObject': {}, 'id': 'sweetpotato', 'src': '/static/foodstim60/sweetpotato.jpg', 'key': 'u', 'origWidth': 410, 'origHeight': 410, 'width': 410, 'height': 410, 'widthPercent': 0.45, 'rescaleHeight': False, 'trialN': 31, 'loaded': True, 'loadedTime': 3078.600000023842, 'positionName': 'LEFT', 'positionCoords': [281.2, 245], 'bid': 6.61}, {'imgObject': {}, 'id': 'popsicles', 'src': '/static/foodstim60/popsicles.jpg', 'key': 'i', 'origWidth': 410, 'origHeight': 410, 'width': 410, 'height': 410, 'widthPercent': 0.45, 'rescaleHeight': False, 'trialN': 31, 'loaded': True, 'loadedTime': 3133.300000011921, 'positionName': 'RIGHT', 'positionCoords': [748.8, 245], 'bid': 5.01}]",45971.30000001192,1669830791552,sweetpotato,popsicles,6.61,5.01,-1.6000000000000005,sweetpotato,805.3000000119209,808,808.6000000238419,True,u,47289.5,1318.199999988079,1669830792870,1318,HRV,HRV_0017,2022-11-30 17:56:35
32,"[{'imgObject': {}, 'id': 'kiwi', 'src': '/static/foodstim60/kiwi.jpg', 'key': 'u', 'origWidth': 410, 'origHeight': 410, 'width': 410, 'height': 410, 'widthPercent': 0.45, 'rescaleHeight': False, 'trialN': 32, 'loaded': True, 'loadedTime': 2862.2000000476837, 'positionName': 'LEFT', 'positionCoords': [281.2, 245], 'bid': 9.91}, {'imgObject': {}, 'id': 'sweetpotato', 'src': '/static/foodstim60/sweetpotato.jpg', 'key': 'i', 'origWidth': 410, 'origHeight': 410, 'width': 410, 'height': 410, 'widthPercent': 0.45, 'rescaleHeight': False, 'trialN': 32, 'loaded': True, 'loadedTime': 3078.5, 'positionName': 'RIGHT', 'positionCoords': [748.8, 245], 'bid': 6.61}]",47289.700000047684,1669830792870,kiwi,sweetpotato,9.91,6.61,-3.3,sweetpotato,548.0,553,553.1999999880791,True,i,48350.80000001192,1061.0999999642372,1669830793931,1061,HRV,HRV_0017,2022-11-30 17:56:35
33,"[{'imgObject': {}, 'id': 'rigatoni', 'src': '/static/foodstim60/rigatoni.jpg', 'key': 'u', 'origWidth': 411, 'origHeight': 411, 'width': 411, 'height': 411, 'widthPercent': 0.45, 'rescaleHeight': False, 'trialN': 33, 'loaded': True, 'loadedTime': 3134, 'positionName': 'LEFT', 'positionCoords': [280.2, 244.5], 'bid': 0.02}, {'imgObject': {}, 'id': 'salad w chicken', 'src': '/static/foodstim60/salad w chicken.jpg', 'key': 'i', 'origWidth': 411, 'origHeight': 411, 'width': 411, 'height': 411, 'widthPercent': 0.45, 'rescaleHeight': False, 'trialN': 33, 'loaded': True, 'loadedTime': 2791.400000035763, 'positionName': 'RIGHT', 'positionCoords': [748.8, 244.5], 'bid': 0.04}]",48351.200000047684,1669830793932,rigatoni,salad w chicken,0.02,0.04,0.02,salad w chicken,1474.3999999761581,1479,1479.0,True,i,50339.0,1987.7999999523163,1669830795919,1987,HRV,HRV_0017,2022-11-30 17:56:35
34,"[{'imgObject': {}, 'id': 'fruitsalad', 'src': '/static/foodstim60/fruitsalad.jpg', 'key': 'u', 'origWidth': 410, 'origHeight': 410, 'width': 410, 'height': 410, 'widthPercent': 0.45, 'rescaleHeight': False, 'trialN': 34, 'loaded': True, 'loadedTime': 3038.400000035763, 'positionName': 'LEFT', 'positionCoords': [281.2, 245], 'bid': 9.95}, {'imgObject': {}, 'id': 'pear', 'src': '/static/foodstim60/pear.jpg', 'key': 'i', 'origWidth': 411, 'origHeight': 410, 'width': 411, 'height': 410, 'widthPercent': 0.45, 'rescaleHeight': False, 'trialN': 34, 'loaded': True, 'loadedTime': 2753.900000035763, 'positionName': 'RIGHT', 'positionCoords': [748.8, 245], 'bid': 10}]",50339.30000001192,1669830795920,fruitsalad,pear,9.95,10.0,0.05000000000000071,fruitsalad,717.1999999880791,722,722.1000000238419,True,u,51568.0,1228.699999988079,1669830797148,1228,HRV,HRV_0017,2022-11-30 17:56:35
35,"[{'imgObject': {}, 'id': 'cantaloupe', 'src': '/static/foodstim60/cantaloupe.jpg', 'key': 'u', 'origWidth': 409, 'origHeight': 409, 'width': 409, 'height': 409, 'widthPercent': 0.45, 'rescaleHeight': False, 'trialN': 35, 'loaded': True, 'loadedTime': 2821.5, 'positionName': 'LEFT', 'positionCoords': [282.2, 245.5], 'bid': 9.91}, {'imgObject': {}, 'id': 'granola w milk', 'src': '/static/foodstim60/granola w milk.jpg', 'key': 'i', 'origWidth': 410, 'origHeight': 410, 'width': 410, 'height': 410, 'widthPercent': 0.45, 'rescaleHeight': False, 'trialN': 35, 'loaded': True, 'loadedTime': 2711.600000023842, 'positionName': 'RIGHT', 'positionCoords': [748.8, 245], 'bid': 9.69}]",51568.200000047684,1669830797149,cantaloupe,granola w milk,9.91,9.69,-0.22000000000000064,cantaloupe,740.2999999523163,745,745.3999999761581,True,u,52818.10000002384,1249.8999999761581,1669830798398,1249,HRV,HRV_0017,2022-11-30 17:56:35
36,"[{'imgObject': {}, 'id': 'bagel plain', 'src': '/static/foodstim60/bagel plain.jpg', 'key': 'u', 'origWidth': 410, 'origHeight': 410, 'width': 410, 'height': 410, 'widthPercent': 0.45, 'rescaleHeight': False, 'trialN': 36, 'loaded': True, 'loadedTime': 2660.600000023842, 'positionName': 'LEFT', 'positionCoords': [281.2, 245], 'bid': 0.08}, {'imgObject': {}, 'id': 'baked potato', 'src': '/static/foodstim60/baked potato.jpg', 'key': 'i', 'origWidth': 409, 'origHeight': 410, 'width': 409, 'height': 410, 'widthPercent': 0.45, 'rescaleHeight': False, 'trialN': 36, 'loaded': True, 'loadedTime': 3113.900000035763, 'positionName': 'RIGHT', 'positionCoords': [748.8, 245], 'bid': 4.2}]",52818.40000003576,1669830798399,bagel plain,baked potato,0.08,4.2,4.12,baked potato,1141.3999999761581,1146,1146.5,True,i,54472.700000047684,1654.300000011921,1669830800053,1654,HRV,HRV_0017,2022-11-30 17:56:35
37,"[{'imgObject': {}, 'id': 'seaweed', 'src': '/static/foodstim60/seaweed.jpg', 'key': 'u', 'origWidth': 410, 'origHeight': 410, 'width': 410, 'height': 410, 'widthPercent': 0.45, 'rescaleHeight': False, 'trialN': 37, 'loaded': True, 'loadedTime': 3029.300000011921, 'positionName': 'LEFT', 'positionCoords': [281.2, 245], 'bid': 6.0200000000000005}, {'imgObject': {}, 'id': 'mac & cheese', 'src': '/static/foodstim60/mac & cheese.jpg', 'key': 'i', 'origWidth': 410, 'origHeight': 410, 'width': 410, 'height': 410, 'widthPercent': 0.45, 'rescaleHeight': False, 'trialN': 37, 'loaded': True, 'loadedTime': 2655.400000035763, 'positionName': 'RIGHT', 'positionCoords': [748.8, 245], 'bid': 7.41}]",54473.0,1669830800053,seaweed,mac & cheese,6.0200000000000005,7.41,1.3899999999999997,mac & cheese,597.7000000476837,603,602.9000000357628,True,i,55586.90000003576,1113.9000000357628,1669830801167,1114,HRV,HRV_0017,2022-11-30 17:56:35
38,"[{'imgObject': {}, 'id': 'cherries', 'src': '/static/foodstim60/cherries.jpg', 'key': 'u', 'origWidth': 410, 'origHeight': 411, 'width': 410, 'height': 411, 'widthPercent': 0.45, 'rescaleHeight': False, 'trialN': 38, 'loaded': True, 'loadedTime': 3137.400000035763, 'positionName': 'LEFT', 'positionCoords': [281.2, 244.5], 'bid': 9.94}, {'imgObject': {}, 'id': 'fried eggs', 'src': '/static/foodstim60/fried eggs.jpg', 'key': 'i', 'origWidth': 410, 'origHeight': 410, 'width': 410, 'height': 410, 'widthPercent': 0.45, 'rescaleHeight': False, 'trialN': 38, 'loaded': True, 'loadedTime': 3097.400000035763, 'positionName': 'RIGHT', 'positionCoords': [748.8, 245], 'bid': 9.95}]",55587.30000001192,1669830801168,cherries,fried eggs,9.94,9.95,0.009999999999999787,fried eggs,584.8000000119209,590,590.4000000357628,True,i,56678.40000003576,1091.1000000238419,1669830802259,1091,HRV,HRV_0017,2022-11-30 17:56:35
39,"[{'imgObject': {}, 'id': 'cherries', 'src': '/static/foodstim60/cherries.jpg', 'key': 'u', 'origWidth': 410, 'origHeight': 411, 'width': 410, 'height': 411, 'widthPercent': 0.45, 'rescaleHeight': False, 'trialN': 39, 'loaded': True, 'loadedTime': 3137.300000011921, 'positionName': 'LEFT', 'positionCoords': [281.2, 244.5], 'bid': 9.94}, {'imgObject': {}, 'id': 'mac & cheese', 'src': '/static/foodstim60/mac & cheese.jpg', 'key': 'i', 'origWidth': 410, 'origHeight': 410, 'width': 410, 'height': 410, 'widthPercent': 0.45, 'rescaleHeight': False, 'trialN': 39, 'loaded': True, 'loadedTime': 2654.2000000476837, 'positionName': 'RIGHT', 'positionCoords': [748.8, 245], 'bid': 7.41}]",56678.90000003576,1669830802259,cherries,mac & cheese,9.94,7.41,-2.5299999999999994,mac & cheese,962.8000000119209,967,966.8000000119209,True,i,58152.5,1473.5999999642372,1669830803733,1474,HRV,HRV_0017,2022-11-30 17:56:35
40,"[{'imgObject': {}, 'id': 'bagel and cc', 'src': '/static/foodstim60/bagel and cc.jpg', 'key': 'u', 'origWidth': 410, 'origHeight': 410, 'width': 410, 'height': 410, 'widthPercent': 0.45, 'rescaleHeight': False, 'trialN': 40, 'loaded': True, 'loadedTime': 2922.7000000476837, 'positionName': 'LEFT', 'positionCoords': [281.2, 245], 'bid': 2.61}, {'imgObject': {}, 'id': 'omelette', 'src': '/static/foodstim60/omelette.jpg', 'key': 'i', 'origWidth': 410, 'origHeight': 409, 'width': 410, 'height': 409, 'widthPercent': 0.45, 'rescaleHeight': False, 'trialN': 40, 'loaded': True, 'loadedTime': 3138.7000000476837, 'positionName': 'RIGHT', 'positionCoords': [748.8, 245.5], 'bid': 2.09}]",58152.90000003576,1669830803733,bagel and cc,omelette,2.61,2.09,-0.52,omelette,873.6999999880791,879,879.0,True,i,59537.80000001192,1384.8999999761581,1669830805118,1385,HRV,HRV_0017,2022-11-30 17:56:35
41,"[{'imgObject': {}, 'id': 'roastedpotatoes', 'src': '/static/foodstim60/roastedpotatoes.jpg', 'key': 'u', 'origWidth': 409, 'origHeight': 410, 'width': 409, 'height': 410, 'widthPercent': 0.45, 'rescaleHeight': False, 'trialN': 41, 'loaded': True, 'loadedTime': 3154.5, 'positionName': 'LEFT', 'positionCoords': [282.2, 245], 'bid': 6.45}, {'imgObject': {}, 'id': 'lox', 'src': '/static/foodstim60/lox.jpg', 'key': 'i', 'origWidth': 410, 'origHeight': 411, 'width': 410, 'height': 411, 'widthPercent': 0.45, 'rescaleHeight': False, 'trialN': 41, 'loaded': True, 'loadedTime': 3040.2000000476837, 'positionName': 'RIGHT', 'positionCoords': [748.8, 244.5], 'bid': 7.45}]",59538.200000047684,1669830805118,roastedpotatoes,lox,6.45,7.45,1.0,lox,702.8999999761581,708,708.0999999642372,True,i,60752.10000002384,1213.8999999761581,1669830806332,1214,HRV,HRV_0017,2022-11-30 17:56:35
42,"[{'imgObject': {}, 'id': 'banana', 'src': '/static/foodstim60/banana.jpg', 'key': 'u', 'origWidth': 410, 'origHeight': 410, 'width': 410, 'height': 410, 'widthPercent': 0.45, 'rescaleHeight': False, 'trialN': 42, 'loaded': True, 'loadedTime': 3016.5, 'positionName': 'LEFT', 'positionCoords': [281.2, 245], 'bid': 4.84}, {'imgObject': {}, 'id': 'grilled chicken strips', 'src': '/static/foodstim60/grilled chicken strips.jpg', 'key': 'i', 'origWidth': 410, 'origHeight': 411, 'width': 410, 'height': 411, 'widthPercent': 0.45, 'rescaleHeight': False, 'trialN': 42, 'loaded': True, 'loadedTime': 2839.5, 'positionName': 'RIGHT', 'positionCoords': [748.8, 244.5], 'bid': 2.09}]",60752.5,1669830806333,banana,grilled chicken strips,4.84,2.09,-2.75,banana,744.5,749,749.7000000476837,True,u,62006.30000001192,1253.800000011921,1669830807586,1253,HRV,HRV_0017,2022-11-30 17:56:35
43,"[{'imgObject': {}, 'id': 'chickenfingers', 'src': '/static/foodstim60/chickenfingers.jpg', 'key': 'u', 'origWidth': 410, 'origHeight': 410, 'width': 410, 'height': 410, 'widthPercent': 0.45, 'rescaleHeight': False, 'trialN': 43, 'loaded': True, 'loadedTime': 3156, 'positionName': 'LEFT', 'positionCoords': [281.2, 245], 'bid': 6.54}, {'imgObject': {}, 'id': 'yogurt no spoon', 'src': '/static/foodstim60/yogurt no spoon.jpg', 'key': 'i', 'origWidth': 411, 'origHeight': 410, 'width': 411, 'height': 410, 'widthPercent': 0.45, 'rescaleHeight': False, 'trialN': 43, 'loaded': True, 'loadedTime': 2668.400000035763, 'positionName': 'RIGHT', 'positionCoords': [748.8, 245], 'bid': 9.51}]",62006.60000002384,1669830807587,chickenfingers,yogurt no spoon,6.54,9.51,2.9699999999999998,yogurt no spoon,828.6000000238419,833,833.3999999761581,True,i,63346.700000047684,1340.1000000238419,1669830808927,1340,HRV,HRV_0017,2022-11-30 17:56:35
44,"[{'imgObject': {}, 'id': 'ice cream sundae 002', 'src': '/static/foodstim60/ice cream sundae 002.jpg', 'key': 'u', 'origWidth': 409, 'origHeight': 409, 'width': 409, 'height': 409, 'widthPercent': 0.45, 'rescaleHeight': False, 'trialN': 44, 'loaded': True, 'loadedTime': 3019, 'positionName': 'LEFT', 'positionCoords': [282.2, 245.5], 'bid': 5}, {'imgObject': {}, 'id': 'baked potato', 'src': '/static/foodstim60/baked potato.jpg', 'key': 'i', 'origWidth': 409, 'origHeight': 410, 'width': 409, 'height': 410, 'widthPercent': 0.45, 'rescaleHeight': False, 'trialN': 44, 'loaded': True, 'loadedTime': 3113.600000023842, 'positionName': 'RIGHT', 'positionCoords': [748.8, 245], 'bid': 4.2}]",63346.90000003576,1669830808927,ice cream sundae 002,baked potato,5.0,4.2,-0.7999999999999998,baked potato,705.8000000119209,711,711.0,True,i,64571.0,1224.0999999642372,1669830810151,1224,HRV,HRV_0017,2022-11-30 17:56:35
45,"[{'imgObject': {}, 'id': 'chickenfingers', 'src': '/static/foodstim60/chickenfingers.jpg', 'key': 'u', 'origWidth': 410, 'origHeight': 410, 'width': 410, 'height': 410, 'widthPercent': 0.45, 'rescaleHeight': False, 'trialN': 45, 'loaded': True, 'loadedTime': 3156.100000023842, 'positionName': 'LEFT', 'positionCoords': [281.2, 245], 'bid': 6.54}, {'imgObject': {}, 'id': 'rigatoni and sauce', 'src': '/static/foodstim60/rigatoni and sauce.jpg', 'key': 'i', 'origWidth': 410, 'origHeight': 411, 'width': 410, 'height': 411, 'widthPercent': 0.45, 'rescaleHeight': False, 'trialN': 45, 'loaded': True, 'loadedTime': 3157.7000000476837, 'positionName': 'RIGHT', 'positionCoords': [748.8, 244.5], 'bid': 1.88}]",64571.30000001192,1669830810151,chickenfingers,rigatoni and sauce,6.54,1.88,-4.66,chickenfingers,759.1999999880791,764,764.0,True,u,65842.5,1271.199999988079,1669830811423,1272,HRV,HRV_0017,2022-11-30 17:56:35
46,"[{'imgObject': {}, 'id': 'blackbeanswithrice', 'src': '/static/foodstim60/blackbeanswithrice.jpg', 'key': 'u', 'origWidth': 410, 'origHeight': 410, 'width': 410, 'height': 410, 'widthPercent': 0.45, 'rescaleHeight': False, 'trialN': 46, 'loaded': True, 'loadedTime': 2663.600000023842, 'positionName': 'LEFT', 'positionCoords': [281.2, 245], 'bid': 7.59}, {'imgObject': {}, 'id': 'burrito', 'src': '/static/foodstim60/burrito.jpg', 'key': 'i', 'origWidth': 410, 'origHeight': 410, 'width': 410, 'height': 410, 'widthPercent': 0.45, 'rescaleHeight': False, 'trialN': 46, 'loaded': True, 'loadedTime': 3160, 'positionName': 'RIGHT', 'positionCoords': [748.8, 245], 'bid': 8.43}]",65842.70000004768,1669830811423,blackbeanswithrice,burrito,7.59,8.43,0.8399999999999999,burrito,917.0,938,938.3999999761581,True,i,67287.5,1444.7999999523163,1669830812867,1444,HRV,HRV_0017,2022-11-30 17:56:35
47,"[{'imgObject': {}, 'id': 'tacos', 'src': '/static/foodstim60/tacos.jpg', 'key': 'u', 'origWidth': 411, 'origHeight': 411, 'width': 411, 'height': 411, 'widthPercent': 0.45, 'rescaleHeight': False, 'trialN': 47, 'loaded': True, 'loadedTime': 2692.900000035763, 'positionName': 'LEFT', 'positionCoords': [280.2, 244.5], 'bid': 9.86}, {'imgObject': {}, 'id': 'strawberries', 'src': '/static/foodstim60/strawberries.jpg', 'key': 'i', 'origWidth': 410, 'origHeight': 410, 'width': 410, 'height': 410, 'widthPercent': 0.45, 'rescaleHeight': False, 'trialN': 47, 'loaded': True, 'loadedTime': 3161.600000023842, 'positionName': 'RIGHT', 'positionCoords': [748.8, 245], 'bid': 9.9}]",67287.80000001192,1669830812868,tacos,strawberries,9.86,9.9,0.040000000000000924,tacos,719.0,724,723.9000000357628,True,u,68522.90000003576,1235.1000000238419,1669830814103,1235,HRV,HRV_0017,2022-11-30 17:56:35
48,"[{'imgObject': {}, 'id': 'seaweed', 'src': '/static/foodstim60/seaweed.jpg', 'key': 'u', 'origWidth': 410, 'origHeight': 410, 'width': 410, 'height': 410, 'widthPercent': 0.45, 'rescaleHeight': False, 'trialN': 48, 'loaded': True, 'loadedTime': 3028.7000000476837, 'positionName': 'LEFT', 'positionCoords': [281.2, 245], 'bid': 6.0200000000000005}, {'imgObject': {}, 'id': 'burrito', 'src': '/static/foodstim60/burrito.jpg', 'key': 'i', 'origWidth': 410, 'origHeight': 410, 'width': 410, 'height': 410, 'widthPercent': 0.45, 'rescaleHeight': False, 'trialN': 48, 'loaded': True, 'loadedTime': 3159.600000023842, 'positionName': 'RIGHT', 'positionCoords': [748.8, 245], 'bid': 8.43}]",68523.30000001192,1669830814103,seaweed,burrito,6.0200000000000005,8.43,2.4099999999999993,burrito,653.6000000238419,658,658.1000000238419,True,i,69689.80000001192,1166.5,1669830815270,1167,HRV,HRV_0017,2022-11-30 17:56:35
49,"[{'imgObject': {}, 'id': 'cheerios', 'src': '/static/foodstim60/cheerios.jpg', 'key': 'u', 'origWidth': 409, 'origHeight': 410, 'width': 409, 'height': 410, 'widthPercent': 0.45, 'rescaleHeight': False, 'trialN': 49, 'loaded': True, 'loadedTime': 2652.5, 'positionName': 'LEFT', 'positionCoords': [282.2, 245], 'bid': 7.54}, {'imgObject': {}, 'id': 'orange slices', 'src': '/static/foodstim60/orange slices.jpg', 'key': 'i', 'origWidth': 409, 'origHeight': 410, 'width': 409, 'height': 410, 'widthPercent': 0.45, 'rescaleHeight': False, 'trialN': 49, 'loaded': True, 'loadedTime': 2728.900000035763, 'positionName': 'RIGHT', 'positionCoords': [748.8, 245], 'bid': 5.2}]",69690.10000002384,1669830815270,cheerios,orange slices,7.54,5.2,-2.34,cheerios,718.1999999880791,722,721.8999999761581,True,u,70923.0,1232.8999999761581,1669830816503,1233,HRV,HRV_0017,2022-11-30 17:56:35
50,"[{'imgObject': {}, 'id': 'eggsalad', 'src': '/static/foodstim60/eggsalad.jpg', 'key': 'u', 'origWidth': 410, 'origHeight': 409, 'width': 410, 'height': 409, 'widthPercent': 0.45, 'rescaleHeight': False, 'trialN': 50, 'loaded': True, 'loadedTime': 2882.300000011921, 'positionName': 'LEFT', 'positionCoords': [281.2, 245.5], 'bid': 1.37}, {'imgObject': {}, 'id': 'eggs', 'src': '/static/foodstim60/eggs.jpg', 'key': 'i', 'origWidth': 409, 'origHeight': 409, 'width': 409, 'height': 409, 'widthPercent': 0.45, 'rescaleHeight': False, 'trialN': 50, 'loaded': True, 'loadedTime': 3116.800000011921, 'positionName': 'RIGHT', 'positionCoords': [748.8, 245.5], 'bid': 0.02}]",70923.30000001192,1669830816503,eggsalad,eggs,1.37,0.02,-1.35,eggs,1063.300000011921,1067,1067.300000011921,True,i,72497.90000003576,1574.6000000238419,1669830818078,1575,HRV,HRV_0017,2022-11-30 17:56:35
51,"[{'imgObject': {}, 'id': 'steak', 'src': '/static/foodstim60/steak.jpg', 'key': 'u', 'origWidth': 410, 'origHeight': 410, 'width': 410, 'height': 410, 'widthPercent': 0.45, 'rescaleHeight': False, 'trialN': 51, 'loaded': True, 'loadedTime': 2866.300000011921, 'positionName': 'LEFT', 'positionCoords': [281.2, 245], 'bid': 2.04}, {'imgObject': {}, 'id': 'baked potato', 'src': '/static/foodstim60/baked potato.jpg', 'key': 'i', 'origWidth': 409, 'origHeight': 410, 'width': 409, 'height': 410, 'widthPercent': 0.45, 'rescaleHeight': False, 'trialN': 51, 'loaded': True, 'loadedTime': 3097.5, 'positionName': 'RIGHT', 'positionCoords': [748.8, 245], 'bid': 4.2}]",72498.30000001192,1669830818078,steak,baked potato,2.04,4.2,2.16,baked potato,864.5,868,867.6999999880791,True,i,73874.20000004768,1375.9000000357628,1669830819454,1376,HRV,HRV_0017,2022-11-30 17:56:35
52,"[{'imgObject': {}, 'id': 'turkeysandwich', 'src': '/static/foodstim60/turkeysandwich.jpg', 'key': 'u', 'origWidth': 409, 'origHeight': 409, 'width': 409, 'height': 409, 'widthPercent': 0.45, 'rescaleHeight': False, 'trialN': 52, 'loaded': True, 'loadedTime': 3118.400000035763, 'positionName': 'LEFT', 'positionCoords': [282.2, 245.5], 'bid': 0}, {'imgObject': {}, 'id': 'burger', 'src': '/static/foodstim60/burger.jpg', 'key': 'i', 'origWidth': 409, 'origHeight': 409, 'width': 409, 'height': 409, 'widthPercent': 0.45, 'rescaleHeight': False, 'trialN': 52, 'loaded': True, 'loadedTime': 3021.7000000476837, 'positionName': 'RIGHT', 'positionCoords': [748.8, 245.5], 'bid': 1.33}]",73874.5,1669830819454,turkeysandwich,burger,0.0,1.33,1.33,burger,1234.0,1240,1239.4000000357628,True,i,75618.90000003576,1744.4000000357628,1669830821199,1745,HRV,HRV_0017,2022-11-30 17:56:35
53,"[{'imgObject': {}, 'id': 'rigatoni', 'src': '/static/foodstim60/rigatoni.jpg', 'key': 'u', 'origWidth': 411, 'origHeight': 411, 'width': 411, 'height': 411, 'widthPercent': 0.45, 'rescaleHeight': False, 'trialN': 53, 'loaded': True, 'loadedTime': 3135.800000011921, 'positionName': 'LEFT', 'positionCoords': [280.2, 244.5], 'bid': 0.02}, {'imgObject': {}, 'id': 'bagel and cc', 'src': '/static/foodstim60/bagel and cc.jpg', 'key': 'i', 'origWidth': 410, 'origHeight': 410, 'width': 410, 'height': 410, 'widthPercent': 0.45, 'rescaleHeight': False, 'trialN': 53, 'loaded': True, 'loadedTime': 2928.7000000476837, 'positionName': 'RIGHT', 'positionCoords': [748.8, 245], 'bid': 2.61}]",75619.40000003576,1669830821199,rigatoni,bagel and cc,0.02,2.61,2.59,bagel and cc,866.1999999880791,871,871.1999999880791,True,i,77002.90000003576,1383.5,1669830822583,1384,HRV,HRV_0017,2022-11-30 17:56:35
54,"[{'imgObject': {}, 'id': 'cheerios', 'src': '/static/foodstim60/cheerios.jpg', 'key': 'u', 'origWidth': 409, 'origHeight': 410, 'width': 409, 'height': 410, 'widthPercent': 0.45, 'rescaleHeight': False, 'trialN': 54, 'loaded': True, 'loadedTime': 2650.300000011921, 'positionName': 'LEFT', 'positionCoords': [282.2, 245], 'bid': 7.54}, {'imgObject': {}, 'id': 'salad w chicken', 'src': '/static/foodstim60/salad w chicken.jpg', 'key': 'i', 'origWidth': 411, 'origHeight': 411, 'width': 411, 'height': 411, 'widthPercent': 0.45, 'rescaleHeight': False, 'trialN': 54, 'loaded': True, 'loadedTime': 2791.300000011921, 'positionName': 'RIGHT', 'positionCoords': [748.8, 244.5], 'bid': 0.04}]",77003.30000001192,1669830822583,cheerios,salad w chicken,7.54,0.04,-7.5,cheerios,996.1000000238419,1002,1002.0,True,u,78515.0,1511.699999988079,1669830824095,1512,HRV,HRV_0017,2022-11-30 17:56:35
55,"[{'imgObject': {}, 'id': 'cantaloupe', 'src': '/static/foodstim60/cantaloupe.jpg', 'key': 'u', 'origWidth': 409, 'origHeight': 409, 'width': 409, 'height': 409, 'widthPercent': 0.45, 'rescaleHeight': False, 'trialN': 55, 'loaded': True, 'loadedTime': 2805.100000023842, 'positionName': 'LEFT', 'positionCoords': [282.2, 245.5], 'bid': 9.91}, {'imgObject': {}, 'id': 'raisin bran w milk', 'src': '/static/foodstim60/raisin bran w milk.jpg', 'key': 'i', 'origWidth': 411, 'origHeight': 411, 'width': 411, 'height': 411, 'widthPercent': 0.45, 'rescaleHeight': False, 'trialN': 55, 'loaded': True, 'loadedTime': 2841.400000035763, 'positionName': 'RIGHT', 'positionCoords': [748.8, 244.5], 'bid': 9.94}]",78515.30000001192,1669830824095,cantaloupe,raisin bran w milk,9.91,9.94,0.02999999999999936,cantaloupe,849.5,854,854.0,True,u,79874.5,1359.199999988079,1669830825454,1359,HRV,HRV_0017,2022-11-30 17:56:35
56,"[{'imgObject': {}, 'id': 'hotdog w must', 'src': '/static/foodstim60/hotdog w must.jpg', 'key': 'u', 'origWidth': 409, 'origHeight': 409, 'width': 409, 'height': 409, 'widthPercent': 0.45, 'rescaleHeight': False, 'trialN': 56, 'loaded': True, 'loadedTime': 3032, 'positionName': 'LEFT', 'positionCoords': [282.2, 245.5], 'bid': 0}, {'imgObject': {}, 'id': 'edamame', 'src': '/static/foodstim60/edamame.jpg', 'key': 'i', 'origWidth': 409, 'origHeight': 410, 'width': 409, 'height': 410, 'widthPercent': 0.45, 'rescaleHeight': False, 'trialN': 56, 'loaded': True, 'loadedTime': 3115.5, 'positionName': 'RIGHT', 'positionCoords': [748.8, 245], 'bid': 0}]",79874.90000003576,1669830825455,hotdog w must,edamame,0.0,0.0,0.0,edamame,663.8999999761581,668,668.6999999880791,True,i,81050.90000003576,1176.0,1669830826631,1176,HRV,HRV_0017,2022-11-30 17:56:35
57,"[{'imgObject': {}, 'id': 'bagel plain', 'src': '/static/foodstim60/bagel plain.jpg', 'key': 'u', 'origWidth': 410, 'origHeight': 410, 'width': 410, 'height': 410, 'widthPercent': 0.45, 'rescaleHeight': False, 'trialN': 57, 'loaded': True, 'loadedTime': 2662.600000023842, 'positionName': 'LEFT', 'positionCoords': [281.2, 245], 'bid': 0.08}, {'imgObject': {}, 'id': 'grilled chicken strips', 'src': '/static/foodstim60/grilled chicken strips.jpg', 'key': 'i', 'origWidth': 410, 'origHeight': 411, 'width': 410, 'height': 411, 'widthPercent': 0.45, 'rescaleHeight': False, 'trialN': 57, 'loaded': True, 'loadedTime': 2823.2000000476837, 'positionName': 'RIGHT', 'positionCoords': [748.8, 244.5], 'bid': 2.09}]",81051.20000004768,1669830826631,bagel plain,grilled chicken strips,0.08,2.09,2.01,bagel plain,822.0,826,826.0,True,u,82386.70000004768,1335.5,1669830827966,1335,HRV,HRV_0017,2022-11-30 17:56:35
58,"[{'imgObject': {}, 'id': 'sushi w_condiments', 'src': '/static/foodstim60/sushi w_condiments.jpg', 'key': 'u', 'origWidth': 410, 'origHeight': 410, 'width': 410, 'height': 410, 'widthPercent': 0.45, 'rescaleHeight': False, 'trialN': 58, 'loaded': True, 'loadedTime': 2903.100000023842, 'positionName': 'LEFT', 'positionCoords': [281.2, 245], 'bid': 9.98}, {'imgObject': {}, 'id': 'Tribe humus pita', 'src': '/static/foodstim60/Tribe humus pita.jpg', 'key': 'i', 'origWidth': 411, 'origHeight': 411, 'width': 411, 'height': 411, 'widthPercent': 0.45, 'rescaleHeight': False, 'trialN': 58, 'loaded': True, 'loadedTime': 2660.100000023842, 'positionName': 'RIGHT', 'positionCoords': [748.8, 244.5], 'bid': 9.98}]",82386.90000003576,1669830827966,sushi w_condiments,Tribe humus pita,9.98,9.98,0.0,sushi w_condiments,643.0999999642372,649,648.0999999642372,True,u,83544.80000001192,1157.8999999761581,1669830829124,1158,HRV,HRV_0017,2022-11-30 17:56:35
59,"[{'imgObject': {}, 'id': 'mac & cheese', 'src': '/static/foodstim60/mac & cheese.jpg', 'key': 'u', 'origWidth': 410, 'origHeight': 410, 'width': 410, 'height': 410, 'widthPercent': 0.45, 'rescaleHeight': False, 'trialN': 59, 'loaded': True, 'loadedTime': 2653.7000000476837, 'positionName': 'LEFT', 'positionCoords': [281.2, 245], 'bid': 7.41}, {'imgObject': {}, 'id': 'eggs', 'src': '/static/foodstim60/eggs.jpg', 'key': 'i', 'origWidth': 409, 'origHeight': 409, 'width': 409, 'height': 409, 'widthPercent': 0.45, 'rescaleHeight': False, 'trialN': 59, 'loaded': True, 'loadedTime': 3116.900000035763, 'positionName': 'RIGHT', 'positionCoords': [748.8, 245.5], 'bid': 0.02}]",83545.20000004768,1669830829125,mac & cheese,eggs,7.41,0.02,-7.390000000000001,mac & cheese,965.5999999642372,970,970.2999999523163,True,u,85023.70000004768,1478.5,1669830830603,1478,HRV,HRV_0017,2022-11-30 17:56:35
60,"[{'imgObject': {}, 'id': 'sushi w_condiments', 'src': '/static/foodstim60/sushi w_condiments.jpg', 'key': 'u', 'origWidth': 410, 'origHeight': 410, 'width': 410, 'height': 410, 'widthPercent': 0.45, 'rescaleHeight': False, 'trialN': 60, 'loaded': True, 'loadedTime': 2903.2000000476837, 'positionName': 'LEFT', 'positionCoords': [281.2, 245], 'bid': 9.98}, {'imgObject': {}, 'id': 'pear', 'src': '/static/foodstim60/pear.jpg', 'key': 'i', 'origWidth': 411, 'origHeight': 410, 'width': 411, 'height': 410, 'widthPercent': 0.45, 'rescaleHeight': False, 'trialN': 60, 'loaded': True, 'loadedTime': 2754.100000023842, 'positionName': 'RIGHT', 'positionCoords': [748.8, 245], 'bid': 10}]",85024.10000002384,1669830830604,sushi w_condiments,pear,9.98,10.0,0.019999999999999574,sushi w_condiments,707.8999999761581,712,712.1000000238419,True,u,86240.40000003576,1216.300000011921,1669830831820,1216,HRV,HRV_0017,2022-11-30 17:56:35
61,"[{'imgObject': {}, 'id': 'Grapes', 'src': '/static/foodstim60/Grapes.jpg', 'key': 'u', 'origWidth': 411, 'origHeight': 411, 'width': 411, 'height': 411, 'widthPercent': 0.45, 'rescaleHeight': False, 'trialN': 61, 'loaded': True, 'loadedTime': 2936.400000035763, 'positionName': 'LEFT', 'positionCoords': [280.2, 244.5], 'bid': 5.33}, {'imgObject': {}, 'id': 'salmon', 'src': '/static/foodstim60/salmon.jpg', 'key': 'i', 'origWidth': 410, 'origHeight': 409, 'width': 410, 'height': 409, 'widthPercent': 0.45, 'rescaleHeight': False, 'trialN': 61, 'loaded': True, 'loadedTime': 3162.900000035763, 'positionName': 'RIGHT', 'positionCoords': [748.8, 245.5], 'bid': 7.38}]",86240.80000001192,1669830831820,Grapes,salmon,5.33,7.38,2.05,Grapes,718.9000000357628,724,723.8000000119209,True,u,87473.80000001192,1233.0,1669830833053,1233,HRV,HRV_0017,2022-11-30 17:56:35
62,"[{'imgObject': {}, 'id': 'edamame', 'src': '/static/foodstim60/edamame.jpg', 'key': 'u', 'origWidth': 409, 'origHeight': 410, 'width': 409, 'height': 410, 'widthPercent': 0.45, 'rescaleHeight': False, 'trialN': 62, 'loaded': True, 'loadedTime': 3114, 'positionName': 'LEFT', 'positionCoords': [282.2, 245], 'bid': 0}, {'imgObject': {}, 'id': 'grilled chicken strips', 'src': '/static/foodstim60/grilled chicken strips.jpg', 'key': 'i', 'origWidth': 410, 'origHeight': 411, 'width': 410, 'height': 411, 'widthPercent': 0.45, 'rescaleHeight': False, 'trialN': 62, 'loaded': True, 'loadedTime': 2822, 'positionName': 'RIGHT', 'positionCoords': [748.8, 244.5], 'bid': 2.09}]",87474.10000002384,1669830833054,edamame,grilled chicken strips,0.0,2.09,2.09,edamame,709.3999999761581,715,715.3999999761581,True,u,88697.60000002384,1223.5,1669830834277,1223,HRV,HRV_0017,2022-11-30 17:56:35
63,"[{'imgObject': {}, 'id': 'salmon', 'src': '/static/foodstim60/salmon.jpg', 'key': 'u', 'origWidth': 410, 'origHeight': 409, 'width': 410, 'height': 409, 'widthPercent': 0.45, 'rescaleHeight': False, 'trialN': 63, 'loaded': True, 'loadedTime': 3162.7000000476837, 'positionName': 'LEFT', 'positionCoords': [281.2, 245.5], 'bid': 7.38}, {'imgObject': {}, 'id': 'banana', 'src': '/static/foodstim60/banana.jpg', 'key': 'i', 'origWidth': 410, 'origHeight': 410, 'width': 410, 'height': 410, 'widthPercent': 0.45, 'rescaleHeight': False, 'trialN': 63, 'loaded': True, 'loadedTime': 3016.800000011921, 'positionName': 'RIGHT', 'positionCoords': [748.8, 245], 'bid': 4.84}]",88697.80000001192,1669830834277,salmon,banana,7.38,4.84,-2.54,salmon,811.6999999880791,817,816.6000000238419,True,u,90023.90000003576,1326.1000000238419,1669830835603,1326,HRV,HRV_0017,2022-11-30 17:56:35
64,"[{'imgObject': {}, 'id': 'apple slices', 'src': '/static/foodstim60/apple slices.jpg', 'key': 'u', 'origWidth': 409, 'origHeight': 410, 'width': 409, 'height': 410, 'widthPercent': 0.45, 'rescaleHeight': False, 'trialN': 64, 'loaded': True, 'loadedTime': 3059.300000011921, 'positionName': 'LEFT', 'positionCoords': [282.2, 245], 'bid': 10}, {'imgObject': {}, 'id': 'froot loops w milk', 'src': '/static/foodstim60/froot loops w milk.jpg', 'key': 'i', 'origWidth': 410, 'origHeight': 410, 'width': 410, 'height': 410, 'widthPercent': 0.45, 'rescaleHeight': False, 'trialN': 64, 'loaded': True, 'loadedTime': 3164.400000035763, 'positionName': 'RIGHT', 'positionCoords': [748.8, 245], 'bid': 10}]",90024.20000004768,1669830835604,apple slices,froot loops w milk,10.0,10.0,0.0,froot loops w milk,991.1999999880791,996,996.3999999761581,True,i,91531.0,1506.7999999523163,1669830837110,1506,HRV,HRV_0017,2022-11-30 17:56:35
65,"[{'imgObject': {}, 'id': 'Grapes', 'src': '/static/foodstim60/Grapes.jpg', 'key': 'u', 'origWidth': 411, 'origHeight': 411, 'width': 411, 'height': 411, 'widthPercent': 0.45, 'rescaleHeight': False, 'trialN': 65, 'loaded': True, 'loadedTime': 2933.100000023842, 'positionName': 'LEFT', 'positionCoords': [280.2, 244.5], 'bid': 5.33}, {'imgObject': {}, 'id': 'seaweed', 'src': '/static/foodstim60/seaweed.jpg', 'key': 'i', 'origWidth': 410, 'origHeight': 410, 'width': 410, 'height': 410, 'widthPercent': 0.45, 'rescaleHeight': False, 'trialN': 65, 'loaded': True, 'loadedTime': 3029.2000000476837, 'positionName': 'RIGHT', 'positionCoords': [748.8, 245], 'bid': 6.0200000000000005}]",91531.30000001192,1669830837111,Grapes,seaweed,5.33,6.0200000000000005,0.6900000000000004,Grapes,707.0,712,712.6999999880791,True,u,92751.0,1219.699999988079,1669830838330,1219,HRV,HRV_0017,2022-11-30 17:56:35
66,"[{'imgObject': {}, 'id': 'cocktailshrimp', 'src': '/static/foodstim60/cocktailshrimp.jpg', 'key': 'u', 'origWidth': 410, 'origHeight': 410, 'width': 410, 'height': 410, 'widthPercent': 0.45, 'rescaleHeight': False, 'trialN': 66, 'loaded': True, 'loadedTime': 2931.900000035763, 'positionName': 'LEFT', 'positionCoords': [281.2, 245], 'bid': 1.29}, {'imgObject': {}, 'id': 'cherry tomato', 'src': '/static/foodstim60/cherry tomato.jpg', 'key': 'i', 'origWidth': 410, 'origHeight': 410, 'width': 410, 'height': 410, 'widthPercent': 0.45, 'rescaleHeight': False, 'trialN': 66, 'loaded': True, 'loadedTime': 3165.7000000476837, 'positionName': 'RIGHT', 'positionCoords': [748.8, 245], 'bid': 0.15}]",92751.30000001192,1669830838331,cocktailshrimp,cherry tomato,1.29,0.15,-1.1400000000000001,cherry tomato,830.1000000238419,835,834.8000000119209,True,i,94096.0,1344.699999988079,1669830839675,1344,HRV,HRV_0017,2022-11-30 17:56:35
67,"[{'imgObject': {}, 'id': 'mango', 'src': '/static/foodstim60/mango.jpg', 'key': 'u', 'origWidth': 411, 'origHeight': 411, 'width': 411, 'height': 411, 'widthPercent': 0.45, 'rescaleHeight': False, 'trialN': 67, 'loaded': True, 'loadedTime': 2587.400000035763, 'positionName': 'LEFT', 'positionCoords': [280.2, 244.5], 'bid': 9.91}, {'imgObject': {}, 'id': 'cantaloupe', 'src': '/static/foodstim60/cantaloupe.jpg', 'key': 'i', 'origWidth': 409, 'origHeight': 409, 'width': 409, 'height': 409, 'widthPercent': 0.45, 'rescaleHeight': False, 'trialN': 67, 'loaded': True, 'loadedTime': 2821.900000035763, 'positionName': 'RIGHT', 'positionCoords': [748.8, 245.5], 'bid': 9.91}]",94096.40000003576,1669830839676,mango,cantaloupe,9.91,9.91,0.0,cantaloupe,539.0,544,544.3000000119209,True,i,95142.60000002384,1046.199999988079,1669830840722,1046,HRV,HRV_0017,2022-11-30 17:56:35
68,"[{'imgObject': {}, 'id': 'corn cob', 'src': '/static/foodstim60/corn cob.jpg', 'key': 'u', 'origWidth': 411, 'origHeight': 411, 'width': 411, 'height': 411, 'widthPercent': 0.45, 'rescaleHeight': False, 'trialN': 68, 'loaded': True, 'loadedTime': 2650, 'positionName': 'LEFT', 'positionCoords': [280.2, 244.5], 'bid': 9.88}, {'imgObject': {}, 'id': 'burger', 'src': '/static/foodstim60/burger.jpg', 'key': 'i', 'origWidth': 409, 'origHeight': 409, 'width': 409, 'height': 409, 'widthPercent': 0.45, 'rescaleHeight': False, 'trialN': 68, 'loaded': True, 'loadedTime': 3021.600000023842, 'positionName': 'RIGHT', 'positionCoords': [748.8, 245.5], 'bid': 1.33}]",95142.90000003576,1669830840722,corn cob,burger,9.88,1.33,-8.55,corn cob,615.0999999642372,619,619.0999999642372,True,u,96270.30000001192,1127.3999999761581,1669830841850,1128,HRV,HRV_0017,2022-11-30 17:56:35
69,"[{'imgObject': {}, 'id': 'popsicles', 'src': '/static/foodstim60/popsicles.jpg', 'key': 'u', 'origWidth': 410, 'origHeight': 410, 'width': 410, 'height': 410, 'widthPercent': 0.45, 'rescaleHeight': False, 'trialN': 69, 'loaded': True, 'loadedTime': 3118.5, 'positionName': 'LEFT', 'positionCoords': [281.2, 245], 'bid': 5.01}, {'imgObject': {}, 'id': 'raspberries', 'src': '/static/foodstim60/raspberries.jpg', 'key': 'i', 'origWidth': 411, 'origHeight': 411, 'width': 411, 'height': 411, 'widthPercent': 0.45, 'rescaleHeight': False, 'trialN': 69, 'loaded': True, 'loadedTime': 3166.900000035763, 'positionName': 'RIGHT', 'positionCoords': [748.8, 244.5], 'bid': 10}]",96270.70000004768,1669830841850,popsicles,raspberries,5.01,10.0,4.99,raspberries,647.8999999761581,653,652.8999999761581,True,i,97432.10000002384,1161.3999999761581,1669830843011,1161,HRV,HRV_0017,2022-11-30 17:56:35
70,"[{'imgObject': {}, 'id': 'chicken nuggets2', 'src': '/static/foodstim60/chicken nuggets2.jpg', 'key': 'u', 'origWidth': 410, 'origHeight': 409, 'width': 410, 'height': 409, 'widthPercent': 0.45, 'rescaleHeight': False, 'trialN': 70, 'loaded': True, 'loadedTime': 3076.800000011921, 'positionName': 'LEFT', 'positionCoords': [281.2, 245.5], 'bid': 7.22}, {'imgObject': {}, 'id': 'edamame', 'src': '/static/foodstim60/edamame.jpg', 'key': 'i', 'origWidth': 409, 'origHeight': 410, 'width': 409, 'height': 410, 'widthPercent': 0.45, 'rescaleHeight': False, 'trialN': 70, 'loaded': True, 'loadedTime': 3115.600000023842, 'positionName': 'RIGHT', 'positionCoords': [748.8, 245], 'bid': 0}]",97432.5,1669830843012,chicken nuggets2,edamame,7.22,0.0,-7.22,chicken nuggets2,861.1000000238419,867,866.9000000357628,True,u,98807.5,1375.0,1669830844387,1375,HRV,HRV_0017,2022-11-30 17:56:35
71,"[{'imgObject': {}, 'id': 'apple slices', 'src': '/static/foodstim60/apple slices.jpg', 'key': 'u', 'origWidth': 409, 'origHeight': 410, 'width': 409, 'height': 410, 'widthPercent': 0.45, 'rescaleHeight': False, 'trialN': 71, 'loaded': True, 'loadedTime': 3059, 'positionName': 'LEFT', 'positionCoords': [282.2, 245], 'bid': 10}, {'imgObject': {}, 'id': 'blueberries', 'src': '/static/foodstim60/blueberries.jpg', 'key': 'i', 'origWidth': 411, 'origHeight': 411, 'width': 411, 'height': 411, 'widthPercent': 0.45, 'rescaleHeight': False, 'trialN': 71, 'loaded': True, 'loadedTime': 3009.2000000476837, 'positionName': 'RIGHT', 'positionCoords': [748.8, 244.5], 'bid': 10}]",98807.90000003576,1669830844387,apple slices,blueberries,10.0,10.0,0.0,apple slices,591.0,595,595.0,True,u,99910.5,1102.5999999642372,1669830845490,1103,HRV,HRV_0017,2022-11-30 17:56:35
72,"[{'imgObject': {}, 'id': 'veggieswithdip', 'src': '/static/foodstim60/veggieswithdip.jpg', 'key': 'u', 'origWidth': 409, 'origHeight': 409, 'width': 409, 'height': 409, 'widthPercent': 0.45, 'rescaleHeight': False, 'trialN': 72, 'loaded': True, 'loadedTime': 2804.600000023842, 'positionName': 'LEFT', 'positionCoords': [282.2, 245.5], 'bid': 2.09}, {'imgObject': {}, 'id': 'grilled chicken strips', 'src': '/static/foodstim60/grilled chicken strips.jpg', 'key': 'i', 'origWidth': 410, 'origHeight': 411, 'width': 410, 'height': 411, 'widthPercent': 0.45, 'rescaleHeight': False, 'trialN': 72, 'loaded': True, 'loadedTime': 2839.800000011921, 'positionName': 'RIGHT', 'positionCoords': [748.8, 244.5], 'bid': 2.09}]",99910.90000003576,1669830845490,veggieswithdip,grilled chicken strips,2.09,2.09,0.0,grilled chicken strips,825.3000000119209,831,830.5999999642372,True,i,101247.60000002384,1336.699999988079,1669830846827,1337,HRV,HRV_0017,2022-11-30 17:56:35
73,"[{'imgObject': {}, 'id': 'pear', 'src': '/static/foodstim60/pear.jpg', 'key': 'u', 'origWidth': 411, 'origHeight': 410, 'width': 411, 'height': 410, 'widthPercent': 0.45, 'rescaleHeight': False, 'trialN': 73, 'loaded': True, 'loadedTime': 2754.100000023842, 'positionName': 'LEFT', 'positionCoords': [280.2, 245], 'bid': 10}, {'imgObject': {}, 'id': 'kiwi', 'src': '/static/foodstim60/kiwi.jpg', 'key': 'i', 'origWidth': 410, 'origHeight': 410, 'width': 410, 'height': 410, 'widthPercent': 0.45, 'rescaleHeight': False, 'trialN': 73, 'loaded': True, 'loadedTime': 2864, 'positionName': 'RIGHT', 'positionCoords': [748.8, 245], 'bid': 9.91}]",101247.90000003576,1669830846827,pear,kiwi,10.0,9.91,-0.08999999999999986,kiwi,1020.8000000119209,1025,1025.0,True,i,102775.60000002384,1527.699999988079,1669830848355,1528,HRV,HRV_0017,2022-11-30 17:56:35
74,"[{'imgObject': {}, 'id': 'salad w chicken', 'src': '/static/foodstim60/salad w chicken.jpg', 'key': 'u', 'origWidth': 411, 'origHeight': 411, 'width': 411, 'height': 411, 'widthPercent': 0.45, 'rescaleHeight': False, 'trialN': 74, 'loaded': True, 'loadedTime': 2789.400000035763, 'positionName': 'LEFT', 'positionCoords': [280.2, 244.5], 'bid': 0.04}, {'imgObject': {}, 'id': 'turkey sandwich', 'src': '/static/foodstim60/turkey sandwich.jpg', 'key': 'i', 'origWidth': 409, 'origHeight': 409, 'width': 409, 'height': 409, 'widthPercent': 0.45, 'rescaleHeight': False, 'trialN': 74, 'loaded': True, 'loadedTime': 3168.5, 'positionName': 'RIGHT', 'positionCoords': [748.8, 245.5], 'bid': 2.63}]",102776.0,1669830848355,salad w chicken,turkey sandwich,0.04,2.63,2.59,salad w chicken,1249.7000000476837,1255,1254.4000000357628,True,u,104537.70000004768,1761.7000000476837,1669830850117,1762,HRV,HRV_0017,2022-11-30 17:56:35
75,"[{'imgObject': {}, 'id': 'luckycharms', 'src': '/static/foodstim60/luckycharms.jpg', 'key': 'u', 'origWidth': 410, 'origHeight': 409, 'width': 410, 'height': 409, 'widthPercent': 0.45, 'rescaleHeight': False, 'trialN': 75, 'loaded': True, 'loadedTime': 2610.100000023842, 'positionName': 'LEFT', 'positionCoords': [281.2, 245.5], 'bid': 9.36}, {'imgObject': {}, 'id': 'olives', 'src': '/static/foodstim60/olives.jpg', 'key': 'i', 'origWidth': 410, 'origHeight': 410, 'width': 410, 'height': 410, 'widthPercent': 0.45, 'rescaleHeight': False, 'trialN': 75, 'loaded': True, 'loadedTime': 2946.600000023842, 'positionName': 'RIGHT', 'positionCoords': [748.8, 245], 'bid': 0.11}]",104538.10000002384,1669830850117,luckycharms,olives,9.36,0.11,-9.25,luckycharms,772.8000000119209,778,777.8999999761581,True,u,105825.60000002384,1287.5,1669830851405,1288,HRV,HRV_0017,2022-11-30 17:56:35
76,"[{'imgObject': {}, 'id': 'hotdog w must', 'src': '/static/foodstim60/hotdog w must.jpg', 'key': 'u', 'origWidth': 409, 'origHeight': 409, 'width': 409, 'height': 409, 'widthPercent': 0.45, 'rescaleHeight': False, 'trialN': 76, 'loaded': True, 'loadedTime': 3029.5, 'positionName': 'LEFT', 'positionCoords': [282.2, 245.5], 'bid': 0}, {'imgObject': {}, 'id': 'cherry tomato', 'src': '/static/foodstim60/cherry tomato.jpg', 'key': 'i', 'origWidth': 410, 'origHeight': 410, 'width': 410, 'height': 410, 'widthPercent': 0.45, 'rescaleHeight': False, 'trialN': 76, 'loaded': True, 'loadedTime': 3165.5, 'positionName': 'RIGHT', 'positionCoords': [748.8, 245], 'bid': 0.15}]",105825.90000003576,1669830851405,hotdog w must,cherry tomato,0.0,0.15,0.15,cherry tomato,645.0,651,650.8999999761581,True,i,106982.40000003576,1156.5,1669830852562,1157,HRV,HRV_0017,2022-11-30 17:56:35
77,"[{'imgObject': {}, 'id': 'hashbrowns', 'src': '/static/foodstim60/hashbrowns.jpg', 'key': 'u', 'origWidth': 411, 'origHeight': 410, 'width': 411, 'height': 410, 'widthPercent': 0.45, 'rescaleHeight': False, 'trialN': 77, 'loaded': True, 'loadedTime': 2967.2000000476837, 'positionName': 'LEFT', 'positionCoords': [280.2, 245], 'bid': 0.13}, {'imgObject': {}, 'id': 'eggs', 'src': '/static/foodstim60/eggs.jpg', 'key': 'i', 'origWidth': 409, 'origHeight': 409, 'width': 409, 'height': 409, 'widthPercent': 0.45, 'rescaleHeight': False, 'trialN': 77, 'loaded': True, 'loadedTime': 3116.900000035763, 'positionName': 'RIGHT', 'positionCoords': [748.8, 245.5], 'bid': 0.02}]",106982.70000004768,1669830852562,hashbrowns,eggs,0.13,0.02,-0.11,eggs,1121.199999988079,1125,1125.0,True,i,108614.10000002384,1631.3999999761581,1669830854193,1631,HRV,HRV_0017,2022-11-30 17:56:35
78,"[{'imgObject': {}, 'id': 'cherry tomato', 'src': '/static/foodstim60/cherry tomato.jpg', 'key': 'u', 'origWidth': 410, 'origHeight': 410, 'width': 410, 'height': 410, 'widthPercent': 0.45, 'rescaleHeight': False, 'trialN': 78, 'loaded': True, 'loadedTime': 3165.600000023842, 'positionName': 'LEFT', 'positionCoords': [281.2, 245], 'bid': 0.15}, {'imgObject': {}, 'id': 'olives', 'src': '/static/foodstim60/olives.jpg', 'key': 'i', 'origWidth': 410, 'origHeight': 410, 'width': 410, 'height': 410, 'widthPercent': 0.45, 'rescaleHeight': False, 'trialN': 78, 'loaded': True, 'loadedTime': 2946.5, 'positionName': 'RIGHT', 'positionCoords': [748.8, 245], 'bid': 0.11}]",108614.5,1669830854194,cherry tomato,olives,0.15,0.11,-0.039999999999999994,cherry tomato,665.2000000476837,671,671.1000000238419,True,u,109791.20000004768,1176.7000000476837,1669830855370,1176,HRV,HRV_0017,2022-11-30 17:56:35
79,"[{'imgObject': {}, 'id': 'cocktailshrimp', 'src': '/static/foodstim60/cocktailshrimp.jpg', 'key': 'u', 'origWidth': 410, 'origHeight': 410, 'width': 410, 'height': 410, 'widthPercent': 0.45, 'rescaleHeight': False, 'trialN': 79, 'loaded': True, 'loadedTime': 2929, 'positionName': 'LEFT', 'positionCoords': [281.2, 245], 'bid': 1.29}, {'imgObject': {}, 'id': 'hashbrowns', 'src': '/static/foodstim60/hashbrowns.jpg', 'key': 'i', 'origWidth': 411, 'origHeight': 410, 'width': 411, 'height': 410, 'widthPercent': 0.45, 'rescaleHeight': False, 'trialN': 79, 'loaded': True, 'loadedTime': 2965.100000023842, 'positionName': 'RIGHT', 'positionCoords': [748.8, 245], 'bid': 0.13}]",109791.60000002384,1669830855371,cocktailshrimp,hashbrowns,1.29,0.13,-1.1600000000000001,cocktailshrimp,1069.6000000238419,1074,1074.800000011921,True,u,111377.60000002384,1586.0,1669830856957,1586,HRV,HRV_0017,2022-11-30 17:56:35
80,"[{'imgObject': {}, 'id': 'Tribe humus pita', 'src': '/static/foodstim60/Tribe humus pita.jpg', 'key': 'u', 'origWidth': 411, 'origHeight': 411, 'width': 411, 'height': 411, 'widthPercent': 0.45, 'rescaleHeight': False, 'trialN': 80, 'loaded': True, 'loadedTime': 2660.5, 'positionName': 'LEFT', 'positionCoords': [280.2, 244.5], 'bid': 9.98}, {'imgObject': {}, 'id': 'banana', 'src': '/static/foodstim60/banana.jpg', 'key': 'i', 'origWidth': 410, 'origHeight': 410, 'width': 410, 'height': 410, 'widthPercent': 0.45, 'rescaleHeight': False, 'trialN': 80, 'loaded': True, 'loadedTime': 3016.600000023842, 'positionName': 'RIGHT', 'positionCoords': [748.8, 245], 'bid': 4.84}]",111377.90000003576,1669830856957,Tribe humus pita,banana,9.98,4.84,-5.140000000000001,Tribe humus pita,735.3000000119209,740,740.0999999642372,True,u,112624.60000002384,1246.699999988079,1669830858204,1247,HRV,HRV_0017,2022-11-30 17:56:35
81,"[{'imgObject': {}, 'id': 'chickenfingers', 'src': '/static/foodstim60/chickenfingers.jpg', 'key': 'u', 'origWidth': 410, 'origHeight': 410, 'width': 410, 'height': 410, 'widthPercent': 0.45, 'rescaleHeight': False, 'trialN': 81, 'loaded': True, 'loadedTime': 3155.900000035763, 'positionName': 'LEFT', 'positionCoords': [281.2, 245], 'bid': 6.54}, {'imgObject': {}, 'id': 'chicken nuggets2', 'src': '/static/foodstim60/chicken nuggets2.jpg', 'key': 'i', 'origWidth': 410, 'origHeight': 409, 'width': 410, 'height': 409, 'widthPercent': 0.45, 'rescaleHeight': False, 'trialN': 81, 'loaded': True, 'loadedTime': 3059.5, 'positionName': 'RIGHT', 'positionCoords': [748.8, 245.5], 'bid': 7.22}]",112625.10000002384,1669830858204,chickenfingers,chicken nuggets2,6.54,7.22,0.6799999999999997,chickenfingers,984.1999999880791,989,989.1999999880791,True,u,114123.0,1497.8999999761581,1669830859702,1498,HRV,HRV_0017,2022-11-30 17:56:35
82,"[{'imgObject': {}, 'id': 'rigatoni and sauce', 'src': '/static/foodstim60/rigatoni and sauce.jpg', 'key': 'u', 'origWidth': 410, 'origHeight': 411, 'width': 410, 'height': 411, 'widthPercent': 0.45, 'rescaleHeight': False, 'trialN': 82, 'loaded': True, 'loadedTime': 3157.900000035763, 'positionName': 'LEFT', 'positionCoords': [281.2, 244.5], 'bid': 1.88}, {'imgObject': {}, 'id': 'rigatoni', 'src': '/static/foodstim60/rigatoni.jpg', 'key': 'i', 'origWidth': 411, 'origHeight': 411, 'width': 411, 'height': 411, 'widthPercent': 0.45, 'rescaleHeight': False, 'trialN': 82, 'loaded': True, 'loadedTime': 3135.5, 'positionName': 'RIGHT', 'positionCoords': [748.8, 244.5], 'bid': 0.02}]",114123.20000004768,1669830859702,rigatoni and sauce,rigatoni,1.88,0.02,-1.8599999999999999,rigatoni and sauce,781.8999999761581,788,787.5999999642372,True,u,115418.90000003576,1295.699999988079,1669830860998,1296,HRV,HRV_0017,2022-11-30 17:56:35
83,"[{'imgObject': {}, 'id': 'fruitsalad', 'src': '/static/foodstim60/fruitsalad.jpg', 'key': 'u', 'origWidth': 410, 'origHeight': 410, 'width': 410, 'height': 410, 'widthPercent': 0.45, 'rescaleHeight': False, 'trialN': 83, 'loaded': True, 'loadedTime': 3032.400000035763, 'positionName': 'LEFT', 'positionCoords': [281.2, 245], 'bid': 9.95}, {'imgObject': {}, 'id': 'cherries', 'src': '/static/foodstim60/cherries.jpg', 'key': 'i', 'origWidth': 410, 'origHeight': 411, 'width': 410, 'height': 411, 'widthPercent': 0.45, 'rescaleHeight': False, 'trialN': 83, 'loaded': True, 'loadedTime': 3135.800000011921, 'positionName': 'RIGHT', 'positionCoords': [748.8, 244.5], 'bid': 9.94}]",115419.30000001192,1669830860998,fruitsalad,cherries,9.95,9.94,-0.009999999999999787,fruitsalad,557.0,562,561.6999999880791,True,u,116491.0,1071.699999988079,1669830862070,1072,HRV,HRV_0017,2022-11-30 17:56:35
84,"[{'imgObject': {}, 'id': 'fried eggs', 'src': '/static/foodstim60/fried eggs.jpg', 'key': 'u', 'origWidth': 410, 'origHeight': 410, 'width': 410, 'height': 410, 'widthPercent': 0.45, 'rescaleHeight': False, 'trialN': 84, 'loaded': True, 'loadedTime': 3096, 'positionName': 'LEFT', 'positionCoords': [281.2, 245], 'bid': 9.95}, {'imgObject': {}, 'id': 'froot loops w milk', 'src': '/static/foodstim60/froot loops w milk.jpg', 'key': 'i', 'origWidth': 410, 'origHeight': 410, 'width': 410, 'height': 410, 'widthPercent': 0.45, 'rescaleHeight': False, 'trialN': 84, 'loaded': True, 'loadedTime': 3164.2000000476837, 'positionName': 'RIGHT', 'positionCoords': [748.8, 245], 'bid': 10}]",116491.30000001192,1669830862070,fried eggs,froot loops w milk,9.95,10.0,0.05000000000000071,fried eggs,610.5,615,614.3000000119209,True,u,117610.60000002384,1119.300000011921,1669830863189,1119,HRV,HRV_0017,2022-11-30 17:56:35
85,"[{'imgObject': {}, 'id': 'fruitsalad', 'src': '/static/foodstim60/fruitsalad.jpg', 'key': 'u', 'origWidth': 410, 'origHeight': 410, 'width': 410, 'height': 410, 'widthPercent': 0.45, 'rescaleHeight': False, 'trialN': 85, 'loaded': True, 'loadedTime': 3038.300000011921, 'positionName': 'LEFT', 'positionCoords': [281.2, 245], 'bid': 9.95}, {'imgObject': {}, 'id': 'avocado', 'src': '/static/foodstim60/avocado.jpg', 'key': 'i', 'origWidth': 409, 'origHeight': 409, 'width': 409, 'height': 409, 'widthPercent': 0.45, 'rescaleHeight': False, 'trialN': 85, 'loaded': True, 'loadedTime': 2988.800000011921, 'positionName': 'RIGHT', 'positionCoords': [748.8, 245.5], 'bid': 9.97}]",117611.0,1669830863190,fruitsalad,avocado,9.95,9.97,0.02000000000000135,avocado,598.0,603,603.0,True,i,118722.90000003576,1111.9000000357628,1669830864302,1112,HRV,HRV_0017,2022-11-30 17:56:35
86,"[{'imgObject': {}, 'id': 'eggsalad', 'src': '/static/foodstim60/eggsalad.jpg', 'key': 'u', 'origWidth': 410, 'origHeight': 409, 'width': 410, 'height': 409, 'widthPercent': 0.45, 'rescaleHeight': False, 'trialN': 86, 'loaded': True, 'loadedTime': 2882.400000035763, 'positionName': 'LEFT', 'positionCoords': [281.2, 245.5], 'bid': 1.37}, {'imgObject': {}, 'id': 'burger', 'src': '/static/foodstim60/burger.jpg', 'key': 'i', 'origWidth': 409, 'origHeight': 409, 'width': 409, 'height': 409, 'widthPercent': 0.45, 'rescaleHeight': False, 'trialN': 86, 'loaded': True, 'loadedTime': 3024.2000000476837, 'positionName': 'RIGHT', 'positionCoords': [748.8, 245.5], 'bid': 1.33}]",118723.20000004768,1669830864302,eggsalad,burger,1.37,1.33,-0.040000000000000036,burger,922.1999999880791,928,928.2999999523163,True,i,120161.10000002384,1437.8999999761581,1669830865740,1438,HRV,HRV_0017,2022-11-30 17:56:35
87,"[{'imgObject': {}, 'id': 'cheerios', 'src': '/static/foodstim60/cheerios.jpg', 'key': 'u', 'origWidth': 409, 'origHeight': 410, 'width': 409, 'height': 410, 'widthPercent': 0.45, 'rescaleHeight': False, 'trialN': 87, 'loaded': True, 'loadedTime': 2652.100000023842, 'positionName': 'LEFT', 'positionCoords': [282.2, 245], 'bid': 7.54}, {'imgObject': {}, 'id': 'chickenfingers', 'src': '/static/foodstim60/chickenfingers.jpg', 'key': 'i', 'origWidth': 410, 'origHeight': 410, 'width': 410, 'height': 410, 'widthPercent': 0.45, 'rescaleHeight': False, 'trialN': 87, 'loaded': True, 'loadedTime': 3156, 'positionName': 'RIGHT', 'positionCoords': [748.8, 245], 'bid': 6.54}]",120161.5,1669830865740,cheerios,chickenfingers,7.54,6.54,-1.0,chickenfingers,719.8000000119209,725,724.4000000357628,True,i,121391.60000002384,1230.1000000238419,1669830866970,1230,HRV,HRV_0017,2022-11-30 17:56:35
88,"[{'imgObject': {}, 'id': 'cantaloupe', 'src': '/static/foodstim60/cantaloupe.jpg', 'key': 'u', 'origWidth': 409, 'origHeight': 409, 'width': 409, 'height': 409, 'widthPercent': 0.45, 'rescaleHeight': False, 'trialN': 88, 'loaded': True, 'loadedTime': 2821.600000023842, 'positionName': 'LEFT', 'positionCoords': [282.2, 245.5], 'bid': 9.91}, {'imgObject': {}, 'id': 'froot loops w milk', 'src': '/static/foodstim60/froot loops w milk.jpg', 'key': 'i', 'origWidth': 410, 'origHeight': 410, 'width': 410, 'height': 410, 'widthPercent': 0.45, 'rescaleHeight': False, 'trialN': 88, 'loaded': True, 'loadedTime': 3162.900000035763, 'positionName': 'RIGHT', 'positionCoords': [748.8, 245], 'bid': 10}]",121391.90000003576,1669830866971,cantaloupe,froot loops w milk,9.91,10.0,0.08999999999999986,cantaloupe,735.8999999761581,740,740.6999999880791,True,u,122641.10000002384,1249.199999988079,1669830868220,1249,HRV,HRV_0017,2022-11-30 17:56:35
89,"[{'imgObject': {}, 'id': 'apple slices', 'src': '/static/foodstim60/apple slices.jpg', 'key': 'u', 'origWidth': 409, 'origHeight': 410, 'width': 409, 'height': 410, 'widthPercent': 0.45, 'rescaleHeight': False, 'trialN': 89, 'loaded': True, 'loadedTime': 3059.100000023842, 'positionName': 'LEFT', 'positionCoords': [282.2, 245], 'bid': 10}, {'imgObject': {}, 'id': 'strawberries', 'src': '/static/foodstim60/strawberries.jpg', 'key': 'i', 'origWidth': 410, 'origHeight': 410, 'width': 410, 'height': 410, 'widthPercent': 0.45, 'rescaleHeight': False, 'trialN': 89, 'loaded': True, 'loadedTime': 3161.400000035763, 'positionName': 'RIGHT', 'positionCoords': [748.8, 245], 'bid': 9.9}]",122641.40000003576,1669830868220,apple slices,strawberries,10.0,9.9,-0.09999999999999964,strawberries,779.6999999880791,784,783.8999999761581,True,i,123926.60000002384,1285.199999988079,1669830869505,1285,HRV,HRV_0017,2022-11-30 17:56:35
90,"[{'imgObject': {}, 'id': 'shreddedwheatwithmilk', 'src': '/static/foodstim60/shreddedwheatwithmilk.jpg', 'key': 'u', 'origWidth': 410, 'origHeight': 410, 'width': 410, 'height': 410, 'widthPercent': 0.45, 'rescaleHeight': False, 'trialN': 90, 'loaded': True, 'loadedTime': 2986.800000011921, 'positionName': 'LEFT', 'positionCoords': [281.2, 245], 'bid': 10}, {'imgObject': {}, 'id': 'froot loops w milk', 'src': '/static/foodstim60/froot loops w milk.jpg', 'key': 'i', 'origWidth': 410, 'origHeight': 410, 'width': 410, 'height': 410, 'widthPercent': 0.45, 'rescaleHeight': False, 'trialN': 90, 'loaded': True, 'loadedTime': 3164.300000011921, 'positionName': 'RIGHT', 'positionCoords': [748.8, 245], 'bid': 10}]",126175.20000004768,1669830871754,shreddedwheatwithmilk,froot loops w milk,10.0,10.0,0.0,shreddedwheatwithmilk,1710.8999999761581,1715,1714.8999999761581,True,u,128399.60000002384,2224.399999976158,1669830873978,2224,HRV,HRV_0017,2022-11-30 17:56:35
91,"[{'imgObject': {}, 'id': 'hotdog w must', 'src': '/static/foodstim60/hotdog w must.jpg', 'key': 'u', 'origWidth': 409, 'origHeight': 409, 'width': 409, 'height': 409, 'widthPercent': 0.45, 'rescaleHeight': False, 'trialN': 91, 'loaded': True, 'loadedTime': 3031.600000023842, 'positionName': 'LEFT', 'positionCoords': [282.2, 245.5], 'bid': 0}, {'imgObject': {}, 'id': 'steak', 'src': '/static/foodstim60/steak.jpg', 'key': 'i', 'origWidth': 410, 'origHeight': 410, 'width': 410, 'height': 410, 'widthPercent': 0.45, 'rescaleHeight': False, 'trialN': 91, 'loaded': True, 'loadedTime': 2866.300000011921, 'positionName': 'RIGHT', 'positionCoords': [748.8, 245], 'bid': 2.04}]",128399.90000003576,1669830873979,hotdog w must,steak,0.0,2.04,2.04,steak,865.0,869,868.8999999761581,True,i,129775.60000002384,1375.699999988079,1669830875354,1375,HRV,HRV_0017,2022-11-30 17:56:35
92,"[{'imgObject': {}, 'id': 'burrito', 'src': '/static/foodstim60/burrito.jpg', 'key': 'u', 'origWidth': 410, 'origHeight': 410, 'width': 410, 'height': 410, 'widthPercent': 0.45, 'rescaleHeight': False, 'trialN': 92, 'loaded': True, 'loadedTime': 3159.900000035763, 'positionName': 'LEFT', 'positionCoords': [281.2, 245], 'bid': 8.43}, {'imgObject': {}, 'id': 'mashed potato', 'src': '/static/foodstim60/mashed potato.jpg', 'key': 'i', 'origWidth': 409, 'origHeight': 409, 'width': 409, 'height': 409, 'widthPercent': 0.45, 'rescaleHeight': False, 'trialN': 92, 'loaded': True, 'loadedTime': 2771.400000035763, 'positionName': 'RIGHT', 'positionCoords': [748.8, 245.5], 'bid': 0.08}]",129776.0,1669830875355,burrito,mashed potato,8.43,0.08,-8.35,burrito,785.2000000476837,788,788.6000000238419,True,u,131073.10000002384,1297.1000000238419,1669830876652,1297,HRV,HRV_0017,2022-11-30 17:56:35
93,"[{'imgObject': {}, 'id': 'ice cream sundae 002', 'src': '/static/foodstim60/ice cream sundae 002.jpg', 'key': 'u', 'origWidth': 409, 'origHeight': 409, 'width': 409, 'height': 409, 'widthPercent': 0.45, 'rescaleHeight': False, 'trialN': 93, 'loaded': True, 'loadedTime': 3019.7000000476837, 'positionName': 'LEFT', 'positionCoords': [282.2, 245.5], 'bid': 5}, {'imgObject': {}, 'id': 'olives', 'src': '/static/foodstim60/olives.jpg', 'key': 'i', 'origWidth': 410, 'origHeight': 410, 'width': 410, 'height': 410, 'widthPercent': 0.45, 'rescaleHeight': False, 'trialN': 93, 'loaded': True, 'loadedTime': 2946.900000035763, 'positionName': 'RIGHT', 'positionCoords': [748.8, 245], 'bid': 0.11}]",131073.40000003576,1669830876652,ice cream sundae 002,olives,5.0,0.11,-4.89,ice cream sundae 002,767.3999999761581,772,772.3999999761581,True,u,132355.0,1281.5999999642372,1669830877934,1282,HRV,HRV_0017,2022-11-30 17:56:35
94,"[{'imgObject': {}, 'id': 'salmon', 'src': '/static/foodstim60/salmon.jpg', 'key': 'u', 'origWidth': 410, 'origHeight': 409, 'width': 410, 'height': 409, 'widthPercent': 0.45, 'rescaleHeight': False, 'trialN': 94, 'loaded': True, 'loadedTime': 3162.800000011921, 'positionName': 'LEFT', 'positionCoords': [281.2, 245.5], 'bid': 7.38}, {'imgObject': {}, 'id': 'mac & cheese', 'src': '/static/foodstim60/mac & cheese.jpg', 'key': 'i', 'origWidth': 410, 'origHeight': 410, 'width': 410, 'height': 410, 'widthPercent': 0.45, 'rescaleHeight': False, 'trialN': 94, 'loaded': True, 'loadedTime': 2656.300000011921, 'positionName': 'RIGHT', 'positionCoords': [748.8, 245], 'bid': 7.41}]",132355.40000003576,1669830877934,salmon,mac & cheese,7.38,7.41,0.03000000000000025,salmon,649.0999999642372,654,653.5999999642372,True,u,133514.90000003576,1159.5,1669830879094,1160,HRV,HRV_0017,2022-11-30 17:56:35
95,"[{'imgObject': {}, 'id': 'burger', 'src': '/static/foodstim60/burger.jpg', 'key': 'u', 'origWidth': 409, 'origHeight': 409, 'width': 409, 'height': 409, 'widthPercent': 0.45, 'rescaleHeight': False, 'trialN': 95, 'loaded': True, 'loadedTime': 3023.7000000476837, 'positionName': 'LEFT', 'positionCoords': [282.2, 245.5], 'bid': 1.33}, {'imgObject': {}, 'id': 'rigatoni and sauce', 'src': '/static/foodstim60/rigatoni and sauce.jpg', 'key': 'i', 'origWidth': 410, 'origHeight': 411, 'width': 410, 'height': 411, 'widthPercent': 0.45, 'rescaleHeight': False, 'trialN': 95, 'loaded': True, 'loadedTime': 3157.800000011921, 'positionName': 'RIGHT', 'positionCoords': [748.8, 244.5], 'bid': 1.88}]",133515.30000001192,1669830879094,burger,rigatoni and sauce,1.33,1.88,0.5499999999999998,burger,585.1999999880791,590,590.1999999880791,True,u,134610.30000001192,1095.0,1669830880189,1095,HRV,HRV_0017,2022-11-30 17:56:35
96,"[{'imgObject': {}, 'id': 'granola w milk', 'src': '/static/foodstim60/granola w milk.jpg', 'key': 'u', 'origWidth': 410, 'origHeight': 410, 'width': 410, 'height': 410, 'widthPercent': 0.45, 'rescaleHeight': False, 'trialN': 96, 'loaded': True, 'loadedTime': 2711.400000035763, 'positionName': 'LEFT', 'positionCoords': [281.2, 245], 'bid': 9.69}, {'imgObject': {}, 'id': 'corn cob', 'src': '/static/foodstim60/corn cob.jpg', 'key': 'i', 'origWidth': 411, 'origHeight': 411, 'width': 411, 'height': 411, 'widthPercent': 0.45, 'rescaleHeight': False, 'trialN': 96, 'loaded': True, 'loadedTime': 2648.100000023842, 'positionName': 'RIGHT', 'positionCoords': [748.8, 244.5], 'bid': 9.88}]",134610.70000004768,1669830880189,granola w milk,corn cob,9.69,9.88,0.19000000000000128,granola w milk,712.3999999761581,718,717.7999999523163,True,u,135833.70000004768,1223.0,1669830881412,1223,HRV,HRV_0017,2022-11-30 17:56:35
97,"[{'imgObject': {}, 'id': 'roastedpotatoes', 'src': '/static/foodstim60/roastedpotatoes.jpg', 'key': 'u', 'origWidth': 409, 'origHeight': 410, 'width': 409, 'height': 410, 'widthPercent': 0.45, 'rescaleHeight': False, 'trialN': 97, 'loaded': True, 'loadedTime': 3138.900000035763, 'positionName': 'LEFT', 'positionCoords': [282.2, 245], 'bid': 6.45}, {'imgObject': {}, 'id': 'apple slices', 'src': '/static/foodstim60/apple slices.jpg', 'key': 'i', 'origWidth': 409, 'origHeight': 410, 'width': 409, 'height': 410, 'widthPercent': 0.45, 'rescaleHeight': False, 'trialN': 97, 'loaded': True, 'loadedTime': 3059.400000035763, 'positionName': 'RIGHT', 'positionCoords': [748.8, 245], 'bid': 10}]",135834.0,1669830881413,roastedpotatoes,apple slices,6.45,10.0,3.55,apple slices,634.4000000357628,639,639.3000000119209,True,i,136975.5,1141.5,1669830882554,1141,HRV,HRV_0017,2022-11-30 17:56:35
98,"[{'imgObject': {}, 'id': 'turkey sandwich', 'src': '/static/foodstim60/turkey sandwich.jpg', 'key': 'u', 'origWidth': 409, 'origHeight': 409, 'width': 409, 'height': 409, 'widthPercent': 0.45, 'rescaleHeight': False, 'trialN': 98, 'loaded': True, 'loadedTime': 3168.7000000476837, 'positionName': 'LEFT', 'positionCoords': [282.2, 245.5], 'bid': 2.63}, {'imgObject': {}, 'id': 'sweetpotato', 'src': '/static/foodstim60/sweetpotato.jpg', 'key': 'i', 'origWidth': 410, 'origHeight': 410, 'width': 410, 'height': 410, 'widthPercent': 0.45, 'rescaleHeight': False, 'trialN': 98, 'loaded': True, 'loadedTime': 3095.800000011921, 'positionName': 'RIGHT', 'positionCoords': [748.8, 245], 'bid': 6.61}]",136975.80000001192,1669830882554,turkey sandwich,sweetpotato,2.63,6.61,3.9800000000000004,sweetpotato,598.3000000119209,604,603.6999999880791,True,i,138086.90000003576,1111.1000000238419,1669830883665,1111,HRV,HRV_0017,2022-11-30 17:56:35
99,"[{'imgObject': {}, 'id': 'fried eggs', 'src': '/static/foodstim60/fried eggs.jpg', 'key': 'u', 'origWidth': 410, 'origHeight': 410, 'width': 410, 'height': 410, 'widthPercent': 0.45, 'rescaleHeight': False, 'trialN': 99, 'loaded': True, 'loadedTime': 3097.300000011921, 'positionName': 'LEFT', 'positionCoords': [281.2, 245], 'bid': 9.95}, {'imgObject': {}, 'id': 'granola w milk', 'src': '/static/foodstim60/granola w milk.jpg', 'key': 'i', 'origWidth': 410, 'origHeight': 410, 'width': 410, 'height': 410, 'widthPercent': 0.45, 'rescaleHeight': False, 'trialN': 99, 'loaded': True, 'loadedTime': 2711.5, 'positionName': 'RIGHT', 'positionCoords': [748.8, 245], 'bid': 9.69}]",138087.20000004768,1669830883666,fried eggs,granola w milk,9.95,9.69,-0.2599999999999998,fried eggs,652.7999999523163,658,658.5,True,u,139248.10000002384,1160.8999999761581,1669830884827,1161,HRV,HRV_0017,2022-11-30 17:56:35
100,"[{'imgObject': {}, 'id': 'turkey sandwich', 'src': '/static/foodstim60/turkey sandwich.jpg', 'key': 'u', 'origWidth': 409, 'origHeight': 409, 'width': 409, 'height': 409, 'widthPercent': 0.45, 'rescaleHeight': False, 'trialN': 100, 'loaded': True, 'loadedTime': 3168.800000011921, 'positionName': 'LEFT', 'positionCoords': [282.2, 245.5], 'bid': 2.63}, {'imgObject': {}, 'id': 'fried eggs', 'src': '/static/foodstim60/fried eggs.jpg', 'key': 'i', 'origWidth': 410, 'origHeight': 410, 'width': 410, 'height': 410, 'widthPercent': 0.45, 'rescaleHeight': False, 'trialN': 100, 'loaded': True, 'loadedTime': 3097.2000000476837, 'positionName': 'RIGHT', 'positionCoords': [748.8, 245], 'bid': 9.95}]",139248.40000003576,1669830884827,turkey sandwich,fried eggs,2.63,9.95,7.319999999999999,fried eggs,543.3000000119209,548,547.8999999761581,True,i,140302.90000003576,1054.5,1669830885881,1054,HRV,HRV_0017,2022-11-30 17:56:35
101,"[{'imgObject': {}, 'id': 'burrito', 'src': '/static/foodstim60/burrito.jpg', 'key': 'u', 'origWidth': 410, 'origHeight': 410, 'width': 410, 'height': 410, 'widthPercent': 0.45, 'rescaleHeight': False, 'trialN': 101, 'loaded': True, 'loadedTime': 3159.800000011921, 'positionName': 'LEFT', 'positionCoords': [281.2, 245], 'bid': 8.43}, {'imgObject': {}, 'id': 'yogurt no spoon', 'src': '/static/foodstim60/yogurt no spoon.jpg', 'key': 'i', 'origWidth': 411, 'origHeight': 410, 'width': 411, 'height': 410, 'widthPercent': 0.45, 'rescaleHeight': False, 'trialN': 101, 'loaded': True, 'loadedTime': 2668.400000035763, 'positionName': 'RIGHT', 'positionCoords': [748.8, 245], 'bid': 9.51}]",140303.30000001192,1669830885882,burrito,yogurt no spoon,8.43,9.51,1.08,burrito,606.1999999880791,612,612.3000000119209,True,u,141425.70000004768,1122.4000000357628,1669830887004,1122,HRV,HRV_0017,2022-11-30 17:56:35
102,"[{'imgObject': {}, 'id': 'steak', 'src': '/static/foodstim60/steak.jpg', 'key': 'u', 'origWidth': 410, 'origHeight': 410, 'width': 410, 'height': 410, 'widthPercent': 0.45, 'rescaleHeight': False, 'trialN': 102, 'loaded': True, 'loadedTime': 2880.600000023842, 'positionName': 'LEFT', 'positionCoords': [281.2, 245], 'bid': 2.04}, {'imgObject': {}, 'id': 'rigatoni and sauce', 'src': '/static/foodstim60/rigatoni and sauce.jpg', 'key': 'i', 'origWidth': 410, 'origHeight': 411, 'width': 410, 'height': 411, 'widthPercent': 0.45, 'rescaleHeight': False, 'trialN': 102, 'loaded': True, 'loadedTime': 3156.300000011921, 'positionName': 'RIGHT', 'positionCoords': [748.8, 244.5], 'bid': 1.88}]",141426.0,1669830887004,steak,rigatoni and sauce,2.04,1.88,-0.16000000000000014,rigatoni and sauce,613.4000000357628,618,617.5,True,i,142552.60000002384,1126.6000000238419,1669830888131,1127,HRV,HRV_0017,2022-11-30 17:56:35
103,"[{'imgObject': {}, 'id': 'cherries', 'src': '/static/foodstim60/cherries.jpg', 'key': 'u', 'origWidth': 410, 'origHeight': 411, 'width': 410, 'height': 411, 'widthPercent': 0.45, 'rescaleHeight': False, 'trialN': 103, 'loaded': True, 'loadedTime': 3137, 'positionName': 'LEFT', 'positionCoords': [281.2, 244.5], 'bid': 9.94}, {'imgObject': {}, 'id': 'omelette', 'src': '/static/foodstim60/omelette.jpg', 'key': 'i', 'origWidth': 410, 'origHeight': 409, 'width': 410, 'height': 409, 'widthPercent': 0.45, 'rescaleHeight': False, 'trialN': 103, 'loaded': True, 'loadedTime': 3138.800000011921, 'positionName': 'RIGHT', 'positionCoords': [748.8, 245.5], 'bid': 2.09}]",142553.0,1669830888131,cherries,omelette,9.94,2.09,-7.85,cherries,953.9000000357628,960,959.3000000119209,True,u,144015.0,1462.0,1669830889593,1462,HRV,HRV_0017,2022-11-30 17:56:35
104,"[{'imgObject': {}, 'id': 'mashed potato', 'src': '/static/foodstim60/mashed potato.jpg', 'key': 'u', 'origWidth': 409, 'origHeight': 409, 'width': 409, 'height': 409, 'widthPercent': 0.45, 'rescaleHeight': False, 'trialN': 104, 'loaded': True, 'loadedTime': 2771, 'positionName': 'LEFT', 'positionCoords': [282.2, 245.5], 'bid': 0.08}, {'imgObject': {}, 'id': 'edamame', 'src': '/static/foodstim60/edamame.jpg', 'key': 'i', 'origWidth': 409, 'origHeight': 410, 'width': 409, 'height': 410, 'widthPercent': 0.45, 'rescaleHeight': False, 'trialN': 104, 'loaded': True, 'loadedTime': 3115.400000035763, 'positionName': 'RIGHT', 'positionCoords': [748.8, 245], 'bid': 0}]",144015.40000003576,1669830889594,mashed potato,edamame,0.08,0.0,-0.08,mashed potato,659.3000000119209,664,664.0999999642372,True,u,145183.0,1167.5999999642372,1669830890761,1167,HRV,HRV_0017,2022-11-30 17:56:35
105,"[{'imgObject': {}, 'id': 'raspberries', 'src': '/static/foodstim60/raspberries.jpg', 'key': 'u', 'origWidth': 411, 'origHeight': 411, 'width': 411, 'height': 411, 'widthPercent': 0.45, 'rescaleHeight': False, 'trialN': 105, 'loaded': True, 'loadedTime': 3166.900000035763, 'positionName': 'LEFT', 'positionCoords': [280.2, 244.5], 'bid': 10}, {'imgObject': {}, 'id': 'Tribe humus pita', 'src': '/static/foodstim60/Tribe humus pita.jpg', 'key': 'i', 'origWidth': 411, 'origHeight': 411, 'width': 411, 'height': 411, 'widthPercent': 0.45, 'rescaleHeight': False, 'trialN': 105, 'loaded': True, 'loadedTime': 2660.2000000476837, 'positionName': 'RIGHT', 'positionCoords': [748.8, 244.5], 'bid': 9.98}]",145183.30000001192,1669830890762,raspberries,Tribe humus pita,10.0,9.98,-0.019999999999999574,raspberries,790.3000000119209,795,795.5,True,u,146491.0,1307.699999988079,1669830892069,1307,HRV,HRV_0017,2022-11-30 17:56:35
106,"[{'imgObject': {}, 'id': 'omelette', 'src': '/static/foodstim60/omelette.jpg', 'key': 'u', 'origWidth': 410, 'origHeight': 409, 'width': 410, 'height': 409, 'widthPercent': 0.45, 'rescaleHeight': False, 'trialN': 106, 'loaded': True, 'loadedTime': 3138.5, 'positionName': 'LEFT', 'positionCoords': [281.2, 245.5], 'bid': 2.09}, {'imgObject': {}, 'id': 'burger', 'src': '/static/foodstim60/burger.jpg', 'key': 'i', 'origWidth': 409, 'origHeight': 409, 'width': 409, 'height': 409, 'widthPercent': 0.45, 'rescaleHeight': False, 'trialN': 106, 'loaded': True, 'loadedTime': 3022.7000000476837, 'positionName': 'RIGHT', 'positionCoords': [748.8, 245.5], 'bid': 1.33}]",146491.40000003576,1669830892070,omelette,burger,2.09,1.33,-0.7599999999999998,omelette,664.6999999880791,670,670.3999999761581,True,u,147666.90000003576,1175.5,1669830893245,1175,HRV,HRV_0017,2022-11-30 17:56:35
107,"[{'imgObject': {}, 'id': 'sweetpotato', 'src': '/static/foodstim60/sweetpotato.jpg', 'key': 'u', 'origWidth': 410, 'origHeight': 410, 'width': 410, 'height': 410, 'widthPercent': 0.45, 'rescaleHeight': False, 'trialN': 107, 'loaded': True, 'loadedTime': 3077.400000035763, 'positionName': 'LEFT', 'positionCoords': [281.2, 245], 'bid': 6.61}, {'imgObject': {}, 'id': 'roastedpotatoes', 'src': '/static/foodstim60/roastedpotatoes.jpg', 'key': 'i', 'origWidth': 409, 'origHeight': 410, 'width': 409, 'height': 410, 'widthPercent': 0.45, 'rescaleHeight': False, 'trialN': 107, 'loaded': True, 'loadedTime': 3154.100000023842, 'positionName': 'RIGHT', 'positionCoords': [748.8, 245], 'bid': 6.45}]",147667.20000004768,1669830893246,sweetpotato,roastedpotatoes,6.61,6.45,-0.16000000000000014,sweetpotato,607.5999999642372,612,612.3999999761581,True,u,148784.60000002384,1117.3999999761581,1669830894363,1117,HRV,HRV_0017,2022-11-30 17:56:35
108,"[{'imgObject': {}, 'id': 'chicken nuggets2', 'src': '/static/foodstim60/chicken nuggets2.jpg', 'key': 'u', 'origWidth': 410, 'origHeight': 409, 'width': 410, 'height': 409, 'widthPercent': 0.45, 'rescaleHeight': False, 'trialN': 108, 'loaded': True, 'loadedTime': 3077.400000035763, 'positionName': 'LEFT', 'positionCoords': [281.2, 245.5], 'bid': 7.22}, {'imgObject': {}, 'id': 'cantaloupe', 'src': '/static/foodstim60/cantaloupe.jpg', 'key': 'i', 'origWidth': 409, 'origHeight': 409, 'width': 409, 'height': 409, 'widthPercent': 0.45, 'rescaleHeight': False, 'trialN': 108, 'loaded': True, 'loadedTime': 2821.7000000476837, 'positionName': 'RIGHT', 'positionCoords': [748.8, 245.5], 'bid': 9.91}]",148785.0,1669830894363,chicken nuggets2,cantaloupe,7.22,9.91,2.6900000000000004,cantaloupe,758.6000000238419,764,763.7000000476837,True,i,150054.10000002384,1269.1000000238419,1669830895632,1269,HRV,HRV_0017,2022-11-30 17:56:35
109,"[{'imgObject': {}, 'id': 'chickenfingers', 'src': '/static/foodstim60/chickenfingers.jpg', 'key': 'u', 'origWidth': 410, 'origHeight': 410, 'width': 410, 'height': 410, 'widthPercent': 0.45, 'rescaleHeight': False, 'trialN': 109, 'loaded': True, 'loadedTime': 3156, 'positionName': 'LEFT', 'positionCoords': [281.2, 245], 'bid': 6.54}, {'imgObject': {}, 'id': 'roastedpotatoes', 'src': '/static/foodstim60/roastedpotatoes.jpg', 'key': 'i', 'origWidth': 409, 'origHeight': 410, 'width': 409, 'height': 410, 'widthPercent': 0.45, 'rescaleHeight': False, 'trialN': 109, 'loaded': True, 'loadedTime': 3140.2000000476837, 'positionName': 'RIGHT', 'positionCoords': [748.8, 245], 'bid': 6.45}]",150054.5,1669830895633,chickenfingers,roastedpotatoes,6.54,6.45,-0.08999999999999986,roastedpotatoes,652.9000000357628,658,658.4000000357628,True,i,151219.0,1164.5,1669830896797,1164,HRV,HRV_0017,2022-11-30 17:56:35
