trialN,stimuli,trialStartTime,trialStartTime_UNIX,stimulus1,stimulus2,stimulus1Bid,stimulus2Bid,delta,selected,rt,rt_UNIX,rt_perfnow,receivedResponse,rsp,trialEndTime,trialDuration,trialEndTime_UNIX,trialDuration_UNIX,exp,subjectId,date
0,"[{'imgObject': {}, 'id': 'grilled chicken strips', 'src': '/static/foodstim60/grilled chicken strips.jpg', 'key': 'u', 'origWidth': 410, 'origHeight': 411, 'width': 410, 'height': 411, 'widthPercent': 0.45, 'rescaleHeight': False, 'trialN': 0, 'loaded': True, 'loadedTime': 4666.5, 'positionName': 'LEFT', 'positionCoords': [245.68, 178.5], 'bid': 6.17}, {'imgObject': {}, 'id': 'cherry tomato', 'src': '/static/foodstim60/cherry tomato.jpg', 'key': 'i', 'origWidth': 410, 'origHeight': 410, 'width': 410, 'height': 410, 'widthPercent': 0.45, 'rescaleHeight': False, 'trialN': 0, 'loaded': True, 'loadedTime': 4746.300000011921, 'positionName': 'RIGHT', 'positionCoords': [710.32, 179], 'bid': 6.47}]",6183.600000023842,1669848525137,grilled chicken strips,cherry tomato,6.17,6.47,0.2999999999999998,grilled chicken strips,1588.2999999821186,1590,1590.7999999821186,True,u,8289.300000011921,2105.699999988079,1669848527242,2105,HRV,HRV_0314,2022-11-30 22:53:30
1,"[{'imgObject': {}, 'id': 'apple slices', 'src': '/static/foodstim60/apple slices.jpg', 'key': 'u', 'origWidth': 409, 'origHeight': 410, 'width': 409, 'height': 410, 'widthPercent': 0.45, 'rescaleHeight': False, 'trialN': 1, 'loaded': True, 'loadedTime': 4840.9000000059605, 'positionName': 'LEFT', 'positionCoords': [246.68, 179], 'bid': 4.91}, {'imgObject': {}, 'id': 'turkeysandwich', 'src': '/static/foodstim60/turkeysandwich.jpg', 'key': 'i', 'origWidth': 409, 'origHeight': 409, 'width': 409, 'height': 409, 'widthPercent': 0.45, 'rescaleHeight': False, 'trialN': 1, 'loaded': True, 'loadedTime': 4879.300000011921, 'positionName': 'RIGHT', 'positionCoords': [710.32, 179.5], 'bid': 4.98}]",8289.90000000596,1669848527243,apple slices,turkeysandwich,4.91,4.98,0.07000000000000028,apple slices,1149.5,1150,1149.9000000059605,True,u,9954.100000023842,1664.2000000178814,1669848528907,1664,HRV,HRV_0314,2022-11-30 22:53:30
2,"[{'imgObject': {}, 'id': 'banana', 'src': '/static/foodstim60/banana.jpg', 'key': 'u', 'origWidth': 410, 'origHeight': 410, 'width': 410, 'height': 410, 'widthPercent': 0.45, 'rescaleHeight': False, 'trialN': 2, 'loaded': True, 'loadedTime': 4988.300000011921, 'positionName': 'LEFT', 'positionCoords': [245.68, 179], 'bid': 6.65}, {'imgObject': {}, 'id': 'rigatoni and sauce', 'src': '/static/foodstim60/rigatoni and sauce.jpg', 'key': 'i', 'origWidth': 410, 'origHeight': 411, 'width': 410, 'height': 411, 'widthPercent': 0.45, 'rescaleHeight': False, 'trialN': 2, 'loaded': True, 'loadedTime': 5094, 'positionName': 'RIGHT', 'positionCoords': [710.32, 178.5], 'bid': 8.61}]",9954.600000023842,1669848528908,banana,rigatoni and sauce,6.65,8.61,1.959999999999999,rigatoni and sauce,765.0,765,765.6999999880791,True,i,11236.90000000596,1282.2999999821186,1669848530190,1282,HRV,HRV_0314,2022-11-30 22:53:30
3,"[{'imgObject': {}, 'id': 'kiwi', 'src': '/static/foodstim60/kiwi.jpg', 'key': 'u', 'origWidth': 410, 'origHeight': 410, 'width': 410, 'height': 410, 'widthPercent': 0.45, 'rescaleHeight': False, 'trialN': 3, 'loaded': True, 'loadedTime': 5113.800000011921, 'positionName': 'LEFT', 'positionCoords': [245.68, 179], 'bid': 3.38}, {'imgObject': {}, 'id': 'hashbrowns', 'src': '/static/foodstim60/hashbrowns.jpg', 'key': 'i', 'origWidth': 411, 'origHeight': 410, 'width': 411, 'height': 410, 'widthPercent': 0.45, 'rescaleHeight': False, 'trialN': 3, 'loaded': True, 'loadedTime': 5212.800000011921, 'positionName': 'RIGHT', 'positionCoords': [710.32, 179], 'bid': 0.85}]",11237.300000011921,1669848530190,kiwi,hashbrowns,3.38,0.85,-2.53,kiwi,1578.9000000059605,1580,1579.5999999940395,True,u,13318.300000011921,2081.0,1669848532271,2081,HRV,HRV_0314,2022-11-30 22:53:30
4,"[{'imgObject': {}, 'id': 'veggieswithdip', 'src': '/static/foodstim60/veggieswithdip.jpg', 'key': 'u', 'origWidth': 409, 'origHeight': 409, 'width': 409, 'height': 409, 'widthPercent': 0.45, 'rescaleHeight': False, 'trialN': 4, 'loaded': True, 'loadedTime': 5213.5, 'positionName': 'LEFT', 'positionCoords': [246.68, 179.5], 'bid': 7.73}, {'imgObject': {}, 'id': 'Tribe humus pita', 'src': '/static/foodstim60/Tribe humus pita.jpg', 'key': 'i', 'origWidth': 411, 'origHeight': 411, 'width': 411, 'height': 411, 'widthPercent': 0.45, 'rescaleHeight': False, 'trialN': 4, 'loaded': True, 'loadedTime': 5223.700000017881, 'positionName': 'RIGHT', 'positionCoords': [710.32, 178.5], 'bid': 7.51}]",13318.90000000596,1669848532272,veggieswithdip,Tribe humus pita,7.73,7.51,-0.22000000000000064,Tribe humus pita,1369.800000011921,1370,1370.4000000059605,True,i,15197.90000000596,1879.0,1669848534151,1879,HRV,HRV_0314,2022-11-30 22:53:30
5,"[{'imgObject': {}, 'id': 'blackbeanswithrice', 'src': '/static/foodstim60/blackbeanswithrice.jpg', 'key': 'u', 'origWidth': 410, 'origHeight': 410, 'width': 410, 'height': 410, 'widthPercent': 0.45, 'rescaleHeight': False, 'trialN': 5, 'loaded': True, 'loadedTime': 5429.100000023842, 'positionName': 'LEFT', 'positionCoords': [245.68, 179], 'bid': 6.8500000000000005}, {'imgObject': {}, 'id': 'salad w chicken', 'src': '/static/foodstim60/salad w chicken.jpg', 'key': 'i', 'origWidth': 411, 'origHeight': 411, 'width': 411, 'height': 411, 'widthPercent': 0.45, 'rescaleHeight': False, 'trialN': 5, 'loaded': True, 'loadedTime': 5477, 'positionName': 'RIGHT', 'positionCoords': [710.32, 178.5], 'bid': 8.700000000000001}]",15198.5,1669848534152,blackbeanswithrice,salad w chicken,6.8500000000000005,8.700000000000001,1.8500000000000005,salad w chicken,858.2000000178814,858,858.7000000178814,True,i,16565.30000001192,1366.800000011921,1669848535518,1366,HRV,HRV_0314,2022-11-30 22:53:30
6,"[{'imgObject': {}, 'id': 'cherries', 'src': '/static/foodstim60/cherries.jpg', 'key': 'u', 'origWidth': 410, 'origHeight': 411, 'width': 410, 'height': 411, 'widthPercent': 0.45, 'rescaleHeight': False, 'trialN': 6, 'loaded': True, 'loadedTime': 5574.300000011921, 'positionName': 'LEFT', 'positionCoords': [245.68, 178.5], 'bid': 5.68}, {'imgObject': {}, 'id': 'pear', 'src': '/static/foodstim60/pear.jpg', 'key': 'i', 'origWidth': 411, 'origHeight': 410, 'width': 411, 'height': 410, 'widthPercent': 0.45, 'rescaleHeight': False, 'trialN': 6, 'loaded': True, 'loadedTime': 5627.600000023842, 'positionName': 'RIGHT', 'positionCoords': [710.32, 179], 'bid': 5.24}]",16565.600000023842,1669848535519,cherries,pear,5.68,5.24,-0.4399999999999995,cherries,968.5999999940395,969,969.1999999880791,True,u,18047.80000001192,1482.199999988079,1669848537001,1482,HRV,HRV_0314,2022-11-30 22:53:30
7,"[{'imgObject': {}, 'id': 'mango', 'src': '/static/foodstim60/mango.jpg', 'key': 'u', 'origWidth': 411, 'origHeight': 411, 'width': 411, 'height': 411, 'widthPercent': 0.45, 'rescaleHeight': False, 'trialN': 7, 'loaded': True, 'loadedTime': 5684, 'positionName': 'LEFT', 'positionCoords': [244.68, 178.5], 'bid': 2.99}, {'imgObject': {}, 'id': 'lox', 'src': '/static/foodstim60/lox.jpg', 'key': 'i', 'origWidth': 410, 'origHeight': 411, 'width': 410, 'height': 411, 'widthPercent': 0.45, 'rescaleHeight': False, 'trialN': 7, 'loaded': True, 'loadedTime': 5693.700000017881, 'positionName': 'RIGHT', 'positionCoords': [710.32, 178.5], 'bid': 0.3}]",18048.5,1669848537001,mango,lox,2.99,0.3,-2.6900000000000004,mango,940.6000000238419,942,941.1000000238419,True,u,19497.0,1448.5,1669848538450,1449,HRV,HRV_0314,2022-11-30 22:53:30
8,"[{'imgObject': {}, 'id': 'cherry tomato', 'src': '/static/foodstim60/cherry tomato.jpg', 'key': 'u', 'origWidth': 410, 'origHeight': 410, 'width': 410, 'height': 410, 'widthPercent': 0.45, 'rescaleHeight': False, 'trialN': 8, 'loaded': True, 'loadedTime': 4783.100000023842, 'positionName': 'LEFT', 'positionCoords': [245.68, 179], 'bid': 6.47}, {'imgObject': {}, 'id': 'eggsalad', 'src': '/static/foodstim60/eggsalad.jpg', 'key': 'i', 'origWidth': 410, 'origHeight': 409, 'width': 410, 'height': 409, 'widthPercent': 0.45, 'rescaleHeight': False, 'trialN': 8, 'loaded': True, 'loadedTime': 5697.5, 'positionName': 'RIGHT', 'positionCoords': [710.32, 179.5], 'bid': 3.25}]",19497.600000023842,1669848538451,cherry tomato,eggsalad,6.47,3.25,-3.2199999999999998,cherry tomato,1400.199999988079,1400,1400.7999999821186,True,u,21411.20000001788,1913.5999999940395,1669848540364,1913,HRV,HRV_0314,2022-11-30 22:53:30
9,"[{'imgObject': {}, 'id': 'luckycharms', 'src': '/static/foodstim60/luckycharms.jpg', 'key': 'u', 'origWidth': 410, 'origHeight': 409, 'width': 410, 'height': 409, 'widthPercent': 0.45, 'rescaleHeight': False, 'trialN': 9, 'loaded': True, 'loadedTime': 5724.600000023842, 'positionName': 'LEFT', 'positionCoords': [245.68, 179.5], 'bid': 3.98}, {'imgObject': {}, 'id': 'blackbeanswithrice', 'src': '/static/foodstim60/blackbeanswithrice.jpg', 'key': 'i', 'origWidth': 410, 'origHeight': 410, 'width': 410, 'height': 410, 'widthPercent': 0.45, 'rescaleHeight': False, 'trialN': 9, 'loaded': True, 'loadedTime': 5473.300000011921, 'positionName': 'RIGHT', 'positionCoords': [710.32, 179], 'bid': 6.8500000000000005}]",21411.600000023842,1669848540365,luckycharms,blackbeanswithrice,3.98,6.8500000000000005,2.8700000000000006,blackbeanswithrice,754.2999999821186,755,755.0,True,i,22676.0,1264.3999999761581,1669848541629,1264,HRV,HRV_0314,2022-11-30 22:53:30
10,"[{'imgObject': {}, 'id': 'burrito', 'src': '/static/foodstim60/burrito.jpg', 'key': 'u', 'origWidth': 410, 'origHeight': 410, 'width': 410, 'height': 410, 'widthPercent': 0.45, 'rescaleHeight': False, 'trialN': 10, 'loaded': True, 'loadedTime': 5736.300000011921, 'positionName': 'LEFT', 'positionCoords': [245.68, 179], 'bid': 7.25}, {'imgObject': {}, 'id': 'turkey sandwich', 'src': '/static/foodstim60/turkey sandwich.jpg', 'key': 'i', 'origWidth': 409, 'origHeight': 409, 'width': 409, 'height': 409, 'widthPercent': 0.45, 'rescaleHeight': False, 'trialN': 10, 'loaded': True, 'loadedTime': 5737.200000017881, 'positionName': 'RIGHT', 'positionCoords': [710.32, 179.5], 'bid': 4.61}]",22676.40000000596,1669848541629,burrito,turkey sandwich,7.25,4.61,-2.6399999999999997,burrito,917.3000000119209,919,918.0,True,u,24108.90000000596,1432.5,1669848543062,1433,HRV,HRV_0314,2022-11-30 22:53:30
11,"[{'imgObject': {}, 'id': 'raspberries', 'src': '/static/foodstim60/raspberries.jpg', 'key': 'u', 'origWidth': 411, 'origHeight': 411, 'width': 411, 'height': 411, 'widthPercent': 0.45, 'rescaleHeight': False, 'trialN': 11, 'loaded': True, 'loadedTime': 5796.600000023842, 'positionName': 'LEFT', 'positionCoords': [244.68, 178.5], 'bid': 4.12}, {'imgObject': {}, 'id': 'froot loops w milk', 'src': '/static/foodstim60/froot loops w milk.jpg', 'key': 'i', 'origWidth': 410, 'origHeight': 410, 'width': 410, 'height': 410, 'widthPercent': 0.45, 'rescaleHeight': False, 'trialN': 11, 'loaded': True, 'loadedTime': 5830.100000023842, 'positionName': 'RIGHT', 'positionCoords': [710.32, 179], 'bid': 4.5600000000000005}]",24109.30000001192,1669848543062,raspberries,froot loops w milk,4.12,4.5600000000000005,0.4400000000000004,raspberries,1305.699999988079,1307,1307.0,True,u,25928.40000000596,1819.0999999940395,1669848544882,1820,HRV,HRV_0314,2022-11-30 22:53:30
12,"[{'imgObject': {}, 'id': 'edamame', 'src': '/static/foodstim60/edamame.jpg', 'key': 'u', 'origWidth': 409, 'origHeight': 410, 'width': 409, 'height': 410, 'widthPercent': 0.45, 'rescaleHeight': False, 'trialN': 12, 'loaded': True, 'loadedTime': 5864.5, 'positionName': 'LEFT', 'positionCoords': [246.68, 179], 'bid': 3.93}, {'imgObject': {}, 'id': 'raspberries', 'src': '/static/foodstim60/raspberries.jpg', 'key': 'i', 'origWidth': 411, 'origHeight': 411, 'width': 411, 'height': 411, 'widthPercent': 0.45, 'rescaleHeight': False, 'trialN': 12, 'loaded': True, 'loadedTime': 5800.4000000059605, 'positionName': 'RIGHT', 'positionCoords': [710.32, 178.5], 'bid': 4.12}]",25929.100000023842,1669848544882,edamame,raspberries,3.93,4.12,0.18999999999999995,edamame,1059.3999999761581,1060,1060.0,True,u,27506.5,1577.3999999761581,1669848546460,1578,HRV,HRV_0314,2022-11-30 22:53:30
13,"[{'imgObject': {}, 'id': 'roastedpotatoes', 'src': '/static/foodstim60/roastedpotatoes.jpg', 'key': 'u', 'origWidth': 409, 'origHeight': 410, 'width': 409, 'height': 410, 'widthPercent': 0.45, 'rescaleHeight': False, 'trialN': 13, 'loaded': True, 'loadedTime': 5871.800000011921, 'positionName': 'LEFT', 'positionCoords': [246.68, 179], 'bid': 6.15}, {'imgObject': {}, 'id': 'popsicles', 'src': '/static/foodstim60/popsicles.jpg', 'key': 'i', 'origWidth': 410, 'origHeight': 410, 'width': 410, 'height': 410, 'widthPercent': 0.45, 'rescaleHeight': False, 'trialN': 13, 'loaded': True, 'loadedTime': 6045.800000011921, 'positionName': 'RIGHT', 'positionCoords': [710.32, 179], 'bid': 2.02}]",27507.100000023842,1669848546460,roastedpotatoes,popsicles,6.15,2.02,-4.130000000000001,roastedpotatoes,833.5999999940395,834,834.1999999880791,True,u,28854.30000001192,1347.199999988079,1669848547807,1347,HRV,HRV_0314,2022-11-30 22:53:30
14,"[{'imgObject': {}, 'id': 'corn cob', 'src': '/static/foodstim60/corn cob.jpg', 'key': 'u', 'origWidth': 411, 'origHeight': 411, 'width': 411, 'height': 411, 'widthPercent': 0.45, 'rescaleHeight': False, 'trialN': 14, 'loaded': True, 'loadedTime': 5914.9000000059605, 'positionName': 'LEFT', 'positionCoords': [244.68, 178.5], 'bid': 7.92}, {'imgObject': {}, 'id': 'avocado', 'src': '/static/foodstim60/avocado.jpg', 'key': 'i', 'origWidth': 409, 'origHeight': 409, 'width': 409, 'height': 409, 'widthPercent': 0.45, 'rescaleHeight': False, 'trialN': 14, 'loaded': True, 'loadedTime': 4794.100000023842, 'positionName': 'RIGHT', 'positionCoords': [710.32, 179.5], 'bid': 7.91}]",28854.90000000596,1669848547808,corn cob,avocado,7.92,7.91,-0.009999999999999787,corn cob,1955.7000000178814,1956,1956.5,True,u,31320.0,2465.0999999940395,1669848550273,2465,HRV,HRV_0314,2022-11-30 22:53:30
15,"[{'imgObject': {}, 'id': 'tacos', 'src': '/static/foodstim60/tacos.jpg', 'key': 'u', 'origWidth': 411, 'origHeight': 411, 'width': 411, 'height': 411, 'widthPercent': 0.45, 'rescaleHeight': False, 'trialN': 15, 'loaded': True, 'loadedTime': 4929.100000023842, 'positionName': 'LEFT', 'positionCoords': [244.68, 178.5], 'bid': 7.51}, {'imgObject': {}, 'id': 'eggs', 'src': '/static/foodstim60/eggs.jpg', 'key': 'i', 'origWidth': 409, 'origHeight': 409, 'width': 409, 'height': 409, 'widthPercent': 0.45, 'rescaleHeight': False, 'trialN': 15, 'loaded': True, 'loadedTime': 5029.9000000059605, 'positionName': 'RIGHT', 'positionCoords': [710.32, 179.5], 'bid': 7.57}]",31320.30000001192,1669848550273,tacos,eggs,7.51,7.57,0.0600000000000005,eggs,1111.0,1112,1111.5999999940395,True,i,32949.10000002384,1628.800000011921,1669848551902,1629,HRV,HRV_0314,2022-11-30 22:53:30
16,"[{'imgObject': {}, 'id': 'roastedpotatoes', 'src': '/static/foodstim60/roastedpotatoes.jpg', 'key': 'u', 'origWidth': 409, 'origHeight': 410, 'width': 409, 'height': 410, 'widthPercent': 0.45, 'rescaleHeight': False, 'trialN': 16, 'loaded': True, 'loadedTime': 5865, 'positionName': 'LEFT', 'positionCoords': [246.68, 179], 'bid': 6.15}, {'imgObject': {}, 'id': 'eggs', 'src': '/static/foodstim60/eggs.jpg', 'key': 'i', 'origWidth': 409, 'origHeight': 409, 'width': 409, 'height': 409, 'widthPercent': 0.45, 'rescaleHeight': False, 'trialN': 16, 'loaded': True, 'loadedTime': 4994.200000017881, 'positionName': 'RIGHT', 'positionCoords': [710.32, 179.5], 'bid': 7.57}]",32949.80000001192,1669848551903,roastedpotatoes,eggs,6.15,7.57,1.42,eggs,1939.5999999940395,1941,1940.800000011921,True,i,35399.10000002384,2449.300000011921,1669848554352,2449,HRV,HRV_0314,2022-11-30 22:53:30
17,"[{'imgObject': {}, 'id': 'popsicles', 'src': '/static/foodstim60/popsicles.jpg', 'key': 'u', 'origWidth': 410, 'origHeight': 410, 'width': 410, 'height': 410, 'widthPercent': 0.45, 'rescaleHeight': False, 'trialN': 17, 'loaded': True, 'loadedTime': 6046.200000017881, 'positionName': 'LEFT', 'positionCoords': [245.68, 179], 'bid': 2.02}, {'imgObject': {}, 'id': 'raisin bran w milk', 'src': '/static/foodstim60/raisin bran w milk.jpg', 'key': 'i', 'origWidth': 411, 'origHeight': 411, 'width': 411, 'height': 411, 'widthPercent': 0.45, 'rescaleHeight': False, 'trialN': 17, 'loaded': True, 'loadedTime': 5079.800000011921, 'positionName': 'RIGHT', 'positionCoords': [710.32, 178.5], 'bid': 3.79}]",35399.40000000596,1669848554353,popsicles,raisin bran w milk,2.02,3.79,1.77,raisin bran w milk,1317.4000000059605,1318,1318.4000000059605,True,i,37229.40000000596,1830.0,1669848556182,1829,HRV,HRV_0314,2022-11-30 22:53:30
18,"[{'imgObject': {}, 'id': 'strawberries', 'src': '/static/foodstim60/strawberries.jpg', 'key': 'u', 'origWidth': 410, 'origHeight': 410, 'width': 410, 'height': 410, 'widthPercent': 0.45, 'rescaleHeight': False, 'trialN': 18, 'loaded': True, 'loadedTime': 5109.700000017881, 'positionName': 'LEFT', 'positionCoords': [245.68, 179], 'bid': 5.68}, {'imgObject': {}, 'id': 'cantaloupe', 'src': '/static/foodstim60/cantaloupe.jpg', 'key': 'i', 'origWidth': 409, 'origHeight': 409, 'width': 409, 'height': 409, 'widthPercent': 0.45, 'rescaleHeight': False, 'trialN': 18, 'loaded': True, 'loadedTime': 5138.200000017881, 'positionName': 'RIGHT', 'positionCoords': [710.32, 179.5], 'bid': 4.98}]",37229.90000000596,1669848556183,strawberries,cantaloupe,5.68,4.98,-0.6999999999999993,strawberries,1130.9000000059605,1132,1132.2000000178814,True,u,38877.60000002384,1647.7000000178814,1669848557831,1648,HRV,HRV_0314,2022-11-30 22:53:30
19,"[{'imgObject': {}, 'id': 'bagel plain', 'src': '/static/foodstim60/bagel plain.jpg', 'key': 'u', 'origWidth': 410, 'origHeight': 410, 'width': 410, 'height': 410, 'widthPercent': 0.45, 'rescaleHeight': False, 'trialN': 19, 'loaded': True, 'loadedTime': 5273.300000011921, 'positionName': 'LEFT', 'positionCoords': [245.68, 179], 'bid': 6.53}, {'imgObject': {}, 'id': 'banana', 'src': '/static/foodstim60/banana.jpg', 'key': 'i', 'origWidth': 410, 'origHeight': 410, 'width': 410, 'height': 410, 'widthPercent': 0.45, 'rescaleHeight': False, 'trialN': 19, 'loaded': True, 'loadedTime': 4938.600000023842, 'positionName': 'RIGHT', 'positionCoords': [710.32, 179], 'bid': 6.65}]",38878.10000002384,1669848557831,bagel plain,banana,6.53,6.65,0.1200000000000001,bagel plain,1403.8999999761581,1405,1404.5999999940395,True,u,40792.20000001788,1914.0999999940395,1669848559745,1914,HRV,HRV_0314,2022-11-30 22:53:30
20,"[{'imgObject': {}, 'id': 'cherry tomato', 'src': '/static/foodstim60/cherry tomato.jpg', 'key': 'u', 'origWidth': 410, 'origHeight': 410, 'width': 410, 'height': 410, 'widthPercent': 0.45, 'rescaleHeight': False, 'trialN': 20, 'loaded': True, 'loadedTime': 4750.9000000059605, 'positionName': 'LEFT', 'positionCoords': [245.68, 179], 'bid': 6.47}, {'imgObject': {}, 'id': 'chickenfingers', 'src': '/static/foodstim60/chickenfingers.jpg', 'key': 'i', 'origWidth': 410, 'origHeight': 410, 'width': 410, 'height': 410, 'widthPercent': 0.45, 'rescaleHeight': False, 'trialN': 20, 'loaded': True, 'loadedTime': 5318.5, 'positionName': 'RIGHT', 'positionCoords': [710.32, 179], 'bid': 6.93}]",40792.60000002384,1669848559746,cherry tomato,chickenfingers,6.47,6.93,0.45999999999999996,chickenfingers,980.8999999761581,981,981.5,True,i,42291.0,1498.3999999761581,1669848561244,1498,HRV,HRV_0314,2022-11-30 22:53:30
21,"[{'imgObject': {}, 'id': 'eggs', 'src': '/static/foodstim60/eggs.jpg', 'key': 'u', 'origWidth': 409, 'origHeight': 409, 'width': 409, 'height': 409, 'widthPercent': 0.45, 'rescaleHeight': False, 'trialN': 21, 'loaded': True, 'loadedTime': 4991.200000017881, 'positionName': 'LEFT', 'positionCoords': [246.68, 179.5], 'bid': 7.57}, {'imgObject': {}, 'id': 'baked potato', 'src': '/static/foodstim60/baked potato.jpg', 'key': 'i', 'origWidth': 409, 'origHeight': 410, 'width': 409, 'height': 410, 'widthPercent': 0.45, 'rescaleHeight': False, 'trialN': 21, 'loaded': True, 'loadedTime': 5371.100000023842, 'positionName': 'RIGHT', 'positionCoords': [710.32, 179], 'bid': 8.41}]",42291.80000001192,1669848561245,eggs,baked potato,7.57,8.41,0.8399999999999999,baked potato,1133.699999988079,1134,1134.199999988079,True,i,43940.20000001788,1648.4000000059605,1669848562893,1648,HRV,HRV_0314,2022-11-30 22:53:30
22,"[{'imgObject': {}, 'id': 'eggsalad', 'src': '/static/foodstim60/eggsalad.jpg', 'key': 'u', 'origWidth': 410, 'origHeight': 409, 'width': 410, 'height': 409, 'widthPercent': 0.45, 'rescaleHeight': False, 'trialN': 22, 'loaded': True, 'loadedTime': 5698.300000011921, 'positionName': 'LEFT', 'positionCoords': [245.68, 179.5], 'bid': 3.25}, {'imgObject': {}, 'id': 'apple slices', 'src': '/static/foodstim60/apple slices.jpg', 'key': 'i', 'origWidth': 409, 'origHeight': 410, 'width': 409, 'height': 410, 'widthPercent': 0.45, 'rescaleHeight': False, 'trialN': 22, 'loaded': True, 'loadedTime': 4843.100000023842, 'positionName': 'RIGHT', 'positionCoords': [710.32, 179], 'bid': 4.91}]",43940.70000001788,1669848562894,eggsalad,apple slices,3.25,4.91,1.6600000000000001,apple slices,1274.5999999940395,1275,1275.5,True,i,45724.60000002384,1783.9000000059605,1669848564678,1784,HRV,HRV_0314,2022-11-30 22:53:30
23,"[{'imgObject': {}, 'id': 'sushi w_condiments', 'src': '/static/foodstim60/sushi w_condiments.jpg', 'key': 'u', 'origWidth': 410, 'origHeight': 410, 'width': 410, 'height': 410, 'widthPercent': 0.45, 'rescaleHeight': False, 'trialN': 23, 'loaded': True, 'loadedTime': 5371.700000017881, 'positionName': 'LEFT', 'positionCoords': [245.68, 179], 'bid': 5.76}, {'imgObject': {}, 'id': 'fruitsalad', 'src': '/static/foodstim60/fruitsalad.jpg', 'key': 'i', 'origWidth': 410, 'origHeight': 410, 'width': 410, 'height': 410, 'widthPercent': 0.45, 'rescaleHeight': False, 'trialN': 23, 'loaded': True, 'loadedTime': 5422.700000017881, 'positionName': 'RIGHT', 'positionCoords': [710.32, 179], 'bid': 5.32}]",45724.90000000596,1669848564678,sushi w_condiments,fruitsalad,5.76,5.32,-0.4399999999999995,sushi w_condiments,928.2000000178814,929,928.9000000059605,True,u,47171.5,1446.5999999940395,1669848566125,1447,HRV,HRV_0314,2022-11-30 22:53:30
24,"[{'imgObject': {}, 'id': 'mashed potato', 'src': '/static/foodstim60/mashed potato.jpg', 'key': 'u', 'origWidth': 409, 'origHeight': 409, 'width': 409, 'height': 409, 'widthPercent': 0.45, 'rescaleHeight': False, 'trialN': 24, 'loaded': True, 'loadedTime': 5517, 'positionName': 'LEFT', 'positionCoords': [246.68, 179.5], 'bid': 2.08}, {'imgObject': {}, 'id': 'grilled chicken strips', 'src': '/static/foodstim60/grilled chicken strips.jpg', 'key': 'i', 'origWidth': 410, 'origHeight': 411, 'width': 410, 'height': 411, 'widthPercent': 0.45, 'rescaleHeight': False, 'trialN': 24, 'loaded': True, 'loadedTime': 4667.200000017881, 'positionName': 'RIGHT', 'positionCoords': [710.32, 178.5], 'bid': 6.17}]",47172.20000001788,1669848566125,mashed potato,grilled chicken strips,2.08,6.17,4.09,grilled chicken strips,990.4000000059605,991,991.0,True,i,48671.30000001192,1499.0999999940395,1669848567624,1499,HRV,HRV_0314,2022-11-30 22:53:30
25,"[{'imgObject': {}, 'id': 'veggieswithdip', 'src': '/static/foodstim60/veggieswithdip.jpg', 'key': 'u', 'origWidth': 409, 'origHeight': 409, 'width': 409, 'height': 409, 'widthPercent': 0.45, 'rescaleHeight': False, 'trialN': 25, 'loaded': True, 'loadedTime': 5221.5, 'positionName': 'LEFT', 'positionCoords': [246.68, 179.5], 'bid': 7.73}, {'imgObject': {}, 'id': 'eggs', 'src': '/static/foodstim60/eggs.jpg', 'key': 'i', 'origWidth': 409, 'origHeight': 409, 'width': 409, 'height': 409, 'widthPercent': 0.45, 'rescaleHeight': False, 'trialN': 25, 'loaded': True, 'loadedTime': 5030.4000000059605, 'positionName': 'RIGHT', 'positionCoords': [710.32, 179.5], 'bid': 7.57}]",48671.80000001192,1669848567625,veggieswithdip,eggs,7.73,7.57,-0.16000000000000014,eggs,1603.0999999940395,1603,1603.5,True,i,50783.30000001192,2111.5,1669848569736,2111,HRV,HRV_0314,2022-11-30 22:53:30
26,"[{'imgObject': {}, 'id': 'veggieswithdip', 'src': '/static/foodstim60/veggieswithdip.jpg', 'key': 'u', 'origWidth': 409, 'origHeight': 409, 'width': 409, 'height': 409, 'widthPercent': 0.45, 'rescaleHeight': False, 'trialN': 26, 'loaded': True, 'loadedTime': 5221.9000000059605, 'positionName': 'LEFT', 'positionCoords': [246.68, 179.5], 'bid': 7.73}, {'imgObject': {}, 'id': 'rigatoni and sauce', 'src': '/static/foodstim60/rigatoni and sauce.jpg', 'key': 'i', 'origWidth': 410, 'origHeight': 411, 'width': 410, 'height': 411, 'widthPercent': 0.45, 'rescaleHeight': False, 'trialN': 26, 'loaded': True, 'loadedTime': 5094.5, 'positionName': 'RIGHT', 'positionCoords': [710.32, 178.5], 'bid': 8.61}]",50783.70000001788,1669848569737,veggieswithdip,rigatoni and sauce,7.73,8.61,0.879999999999999,rigatoni and sauce,674.9000000059605,676,675.7999999821186,True,i,51982.30000001192,1198.5999999940395,1669848570935,1198,HRV,HRV_0314,2022-11-30 22:53:30
27,"[{'imgObject': {}, 'id': 'hotdog w must', 'src': '/static/foodstim60/hotdog w must.jpg', 'key': 'u', 'origWidth': 409, 'origHeight': 409, 'width': 409, 'height': 409, 'widthPercent': 0.45, 'rescaleHeight': False, 'trialN': 27, 'loaded': True, 'loadedTime': 5521.9000000059605, 'positionName': 'LEFT', 'positionCoords': [246.68, 179.5], 'bid': 1.42}, {'imgObject': {}, 'id': 'raspberries', 'src': '/static/foodstim60/raspberries.jpg', 'key': 'i', 'origWidth': 411, 'origHeight': 411, 'width': 411, 'height': 411, 'widthPercent': 0.45, 'rescaleHeight': False, 'trialN': 27, 'loaded': True, 'loadedTime': 5800.9000000059605, 'positionName': 'RIGHT', 'positionCoords': [710.32, 178.5], 'bid': 4.12}]",51982.5,1669848570936,hotdog w must,raspberries,1.42,4.12,2.7,raspberries,997.0,998,998.5,True,i,53497.30000001192,1514.800000011921,1669848572451,1515,HRV,HRV_0314,2022-11-30 22:53:30
28,"[{'imgObject': {}, 'id': 'tacos', 'src': '/static/foodstim60/tacos.jpg', 'key': 'u', 'origWidth': 411, 'origHeight': 411, 'width': 411, 'height': 411, 'widthPercent': 0.45, 'rescaleHeight': False, 'trialN': 28, 'loaded': True, 'loadedTime': 4930.4000000059605, 'positionName': 'LEFT', 'positionCoords': [244.68, 178.5], 'bid': 7.51}, {'imgObject': {}, 'id': 'Tribe humus pita', 'src': '/static/foodstim60/Tribe humus pita.jpg', 'key': 'i', 'origWidth': 411, 'origHeight': 411, 'width': 411, 'height': 411, 'widthPercent': 0.45, 'rescaleHeight': False, 'trialN': 28, 'loaded': True, 'loadedTime': 5229.600000023842, 'positionName': 'RIGHT', 'positionCoords': [710.32, 178.5], 'bid': 7.51}]",53497.60000002384,1669848572451,tacos,Tribe humus pita,7.51,7.51,0.0,Tribe humus pita,874.0,874,874.3999999761581,True,i,54880.90000000596,1383.2999999821186,1669848573834,1383,HRV,HRV_0314,2022-11-30 22:53:30
29,"[{'imgObject': {}, 'id': 'baked potato', 'src': '/static/foodstim60/baked potato.jpg', 'key': 'u', 'origWidth': 409, 'origHeight': 410, 'width': 409, 'height': 410, 'widthPercent': 0.45, 'rescaleHeight': False, 'trialN': 29, 'loaded': True, 'loadedTime': 5329, 'positionName': 'LEFT', 'positionCoords': [246.68, 179], 'bid': 8.41}, {'imgObject': {}, 'id': 'rigatoni and sauce', 'src': '/static/foodstim60/rigatoni and sauce.jpg', 'key': 'i', 'origWidth': 410, 'origHeight': 411, 'width': 410, 'height': 411, 'widthPercent': 0.45, 'rescaleHeight': False, 'trialN': 29, 'loaded': True, 'loadedTime': 5093.100000023842, 'positionName': 'RIGHT', 'positionCoords': [710.32, 178.5], 'bid': 8.61}]",54881.10000002384,1669848573834,baked potato,rigatoni and sauce,8.41,8.61,0.1999999999999993,rigatoni and sauce,914.3999999761581,915,914.7999999821186,True,i,56312.20000001788,1431.0999999940395,1669848575265,1431,HRV,HRV_0314,2022-11-30 22:53:30
30,"[{'imgObject': {}, 'id': 'mac & cheese', 'src': '/static/foodstim60/mac & cheese.jpg', 'key': 'u', 'origWidth': 410, 'origHeight': 410, 'width': 410, 'height': 410, 'widthPercent': 0.45, 'rescaleHeight': False, 'trialN': 30, 'loaded': True, 'loadedTime': 5624.300000011921, 'positionName': 'LEFT', 'positionCoords': [245.68, 179], 'bid': 8.2}, {'imgObject': {}, 'id': 'blueberries', 'src': '/static/foodstim60/blueberries.jpg', 'key': 'i', 'origWidth': 411, 'origHeight': 411, 'width': 411, 'height': 411, 'widthPercent': 0.45, 'rescaleHeight': False, 'trialN': 30, 'loaded': True, 'loadedTime': 5796.200000017881, 'positionName': 'RIGHT', 'positionCoords': [710.32, 178.5], 'bid': 5.14}]",56312.5,1669848575266,mac & cheese,blueberries,8.2,5.14,-3.0599999999999996,mac & cheese,766.8000000119209,768,768.2000000178814,True,u,57592.60000002384,1280.1000000238419,1669848576546,1280,HRV,HRV_0314,2022-11-30 22:53:30
31,"[{'imgObject': {}, 'id': 'sweetpotato', 'src': '/static/foodstim60/sweetpotato.jpg', 'key': 'u', 'origWidth': 410, 'origHeight': 410, 'width': 410, 'height': 410, 'widthPercent': 0.45, 'rescaleHeight': False, 'trialN': 31, 'loaded': True, 'loadedTime': 5839, 'positionName': 'LEFT', 'positionCoords': [245.68, 179], 'bid': 0.53}, {'imgObject': {}, 'id': 'granola w milk', 'src': '/static/foodstim60/granola w milk.jpg', 'key': 'i', 'origWidth': 410, 'origHeight': 410, 'width': 410, 'height': 410, 'widthPercent': 0.45, 'rescaleHeight': False, 'trialN': 31, 'loaded': True, 'loadedTime': 5857.9000000059605, 'positionName': 'RIGHT', 'positionCoords': [710.32, 179], 'bid': 4.64}]",57592.80000001192,1669848576546,sweetpotato,granola w milk,0.53,4.64,4.109999999999999,granola w milk,860.0,861,860.9000000059605,True,i,58961.20000001788,1368.4000000059605,1669848577914,1368,HRV,HRV_0314,2022-11-30 22:53:30
32,"[{'imgObject': {}, 'id': 'raisin bran w milk', 'src': '/static/foodstim60/raisin bran w milk.jpg', 'key': 'u', 'origWidth': 411, 'origHeight': 411, 'width': 411, 'height': 411, 'widthPercent': 0.45, 'rescaleHeight': False, 'trialN': 32, 'loaded': True, 'loadedTime': 5035.9000000059605, 'positionName': 'LEFT', 'positionCoords': [244.68, 178.5], 'bid': 3.79}, {'imgObject': {}, 'id': 'lox', 'src': '/static/foodstim60/lox.jpg', 'key': 'i', 'origWidth': 410, 'origHeight': 411, 'width': 410, 'height': 411, 'widthPercent': 0.45, 'rescaleHeight': False, 'trialN': 32, 'loaded': True, 'loadedTime': 5691.100000023842, 'positionName': 'RIGHT', 'positionCoords': [710.32, 178.5], 'bid': 0.3}]",58961.60000002384,1669848577915,raisin bran w milk,lox,3.79,0.3,-3.49,raisin bran w milk,967.5,968,968.5999999940395,True,u,60441.20000001788,1479.5999999940395,1669848579394,1479,HRV,HRV_0314,2022-11-30 22:53:30
33,"[{'imgObject': {}, 'id': 'blueberries', 'src': '/static/foodstim60/blueberries.jpg', 'key': 'u', 'origWidth': 411, 'origHeight': 411, 'width': 411, 'height': 411, 'widthPercent': 0.45, 'rescaleHeight': False, 'trialN': 33, 'loaded': True, 'loadedTime': 5795.5, 'positionName': 'LEFT', 'positionCoords': [244.68, 178.5], 'bid': 5.14}, {'imgObject': {}, 'id': 'strawberries', 'src': '/static/foodstim60/strawberries.jpg', 'key': 'i', 'origWidth': 410, 'origHeight': 410, 'width': 410, 'height': 410, 'widthPercent': 0.45, 'rescaleHeight': False, 'trialN': 33, 'loaded': True, 'loadedTime': 5111, 'positionName': 'RIGHT', 'positionCoords': [710.32, 179], 'bid': 5.68}]",60441.70000001788,1669848579395,blueberries,strawberries,5.14,5.68,0.54,strawberries,1049.5999999940395,1051,1050.7999999821186,True,i,62005.5,1563.7999999821186,1669848580959,1564,HRV,HRV_0314,2022-11-30 22:53:30
34,"[{'imgObject': {}, 'id': 'strawberries', 'src': '/static/foodstim60/strawberries.jpg', 'key': 'u', 'origWidth': 410, 'origHeight': 410, 'width': 410, 'height': 410, 'widthPercent': 0.45, 'rescaleHeight': False, 'trialN': 34, 'loaded': True, 'loadedTime': 5096, 'positionName': 'LEFT', 'positionCoords': [245.68, 179], 'bid': 5.68}, {'imgObject': {}, 'id': 'yogurt no spoon', 'src': '/static/foodstim60/yogurt no spoon.jpg', 'key': 'i', 'origWidth': 411, 'origHeight': 410, 'width': 411, 'height': 410, 'widthPercent': 0.45, 'rescaleHeight': False, 'trialN': 34, 'loaded': True, 'loadedTime': 5922.9000000059605, 'positionName': 'RIGHT', 'positionCoords': [710.32, 179], 'bid': 6.99}]",62006.10000002384,1669848580959,strawberries,yogurt no spoon,5.68,6.99,1.3100000000000005,yogurt no spoon,769.3999999761581,770,770.0,True,i,63289.60000002384,1283.5,1669848582243,1284,HRV,HRV_0314,2022-11-30 22:53:30
35,"[{'imgObject': {}, 'id': 'omelette', 'src': '/static/foodstim60/omelette.jpg', 'key': 'u', 'origWidth': 410, 'origHeight': 409, 'width': 410, 'height': 409, 'widthPercent': 0.45, 'rescaleHeight': False, 'trialN': 35, 'loaded': True, 'loadedTime': 5967.9000000059605, 'positionName': 'LEFT', 'positionCoords': [245.68, 179.5], 'bid': 5.3}, {'imgObject': {}, 'id': 'baked potato', 'src': '/static/foodstim60/baked potato.jpg', 'key': 'i', 'origWidth': 409, 'origHeight': 410, 'width': 409, 'height': 410, 'widthPercent': 0.45, 'rescaleHeight': False, 'trialN': 35, 'loaded': True, 'loadedTime': 5368, 'positionName': 'RIGHT', 'positionCoords': [710.32, 179], 'bid': 8.41}]",63290.10000002384,1669848582243,omelette,baked potato,5.3,8.41,3.1100000000000003,baked potato,1109.0,1110,1109.699999988079,True,i,64904.70000001788,1614.5999999940395,1669848583858,1615,HRV,HRV_0314,2022-11-30 22:53:30
36,"[{'imgObject': {}, 'id': 'hotdog w must', 'src': '/static/foodstim60/hotdog w must.jpg', 'key': 'u', 'origWidth': 409, 'origHeight': 409, 'width': 409, 'height': 409, 'widthPercent': 0.45, 'rescaleHeight': False, 'trialN': 36, 'loaded': True, 'loadedTime': 5520.5, 'positionName': 'LEFT', 'positionCoords': [246.68, 179.5], 'bid': 1.42}, {'imgObject': {}, 'id': 'turkeysandwich', 'src': '/static/foodstim60/turkeysandwich.jpg', 'key': 'i', 'origWidth': 409, 'origHeight': 409, 'width': 409, 'height': 409, 'widthPercent': 0.45, 'rescaleHeight': False, 'trialN': 36, 'loaded': True, 'loadedTime': 4883.800000011921, 'positionName': 'RIGHT', 'positionCoords': [710.32, 179.5], 'bid': 4.98}]",64905.0,1669848583858,hotdog w must,turkeysandwich,1.42,4.98,3.5600000000000005,turkeysandwich,839.2000000178814,842,841.5,True,i,66254.70000001788,1349.7000000178814,1669848585208,1350,HRV,HRV_0314,2022-11-30 22:53:30
37,"[{'imgObject': {}, 'id': 'tacos', 'src': '/static/foodstim60/tacos.jpg', 'key': 'u', 'origWidth': 411, 'origHeight': 411, 'width': 411, 'height': 411, 'widthPercent': 0.45, 'rescaleHeight': False, 'trialN': 37, 'loaded': True, 'loadedTime': 4886.9000000059605, 'positionName': 'LEFT', 'positionCoords': [244.68, 178.5], 'bid': 7.51}, {'imgObject': {}, 'id': 'mac & cheese', 'src': '/static/foodstim60/mac & cheese.jpg', 'key': 'i', 'origWidth': 410, 'origHeight': 410, 'width': 410, 'height': 410, 'widthPercent': 0.45, 'rescaleHeight': False, 'trialN': 37, 'loaded': True, 'loadedTime': 5625.100000023842, 'positionName': 'RIGHT', 'positionCoords': [710.32, 179], 'bid': 8.2}]",66255.20000001788,1669848585208,tacos,mac & cheese,7.51,8.2,0.6899999999999995,mac & cheese,722.1999999880791,723,723.0,True,i,67487.80000001192,1232.5999999940395,1669848586441,1233,HRV,HRV_0314,2022-11-30 22:53:30
38,"[{'imgObject': {}, 'id': 'kiwi', 'src': '/static/foodstim60/kiwi.jpg', 'key': 'u', 'origWidth': 410, 'origHeight': 410, 'width': 410, 'height': 410, 'widthPercent': 0.45, 'rescaleHeight': False, 'trialN': 38, 'loaded': True, 'loadedTime': 5123.4000000059605, 'positionName': 'LEFT', 'positionCoords': [245.68, 179], 'bid': 3.38}, {'imgObject': {}, 'id': 'raisin bran w milk', 'src': '/static/foodstim60/raisin bran w milk.jpg', 'key': 'i', 'origWidth': 411, 'origHeight': 411, 'width': 411, 'height': 411, 'widthPercent': 0.45, 'rescaleHeight': False, 'trialN': 38, 'loaded': True, 'loadedTime': 5034.5, 'positionName': 'RIGHT', 'positionCoords': [710.32, 178.5], 'bid': 3.79}]",67488.10000002384,1669848586441,kiwi,raisin bran w milk,3.38,3.79,0.41000000000000014,raisin bran w milk,1456.0999999940395,1457,1457.0999999940395,True,i,69449.80000001192,1961.699999988079,1669848588403,1962,HRV,HRV_0314,2022-11-30 22:53:30
39,"[{'imgObject': {}, 'id': 'steak', 'src': '/static/foodstim60/steak.jpg', 'key': 'u', 'origWidth': 410, 'origHeight': 410, 'width': 410, 'height': 410, 'widthPercent': 0.45, 'rescaleHeight': False, 'trialN': 39, 'loaded': True, 'loadedTime': 6010.5, 'positionName': 'LEFT', 'positionCoords': [245.68, 179], 'bid': 9.93}, {'imgObject': {}, 'id': 'burger', 'src': '/static/foodstim60/burger.jpg', 'key': 'i', 'origWidth': 409, 'origHeight': 409, 'width': 409, 'height': 409, 'widthPercent': 0.45, 'rescaleHeight': False, 'trialN': 39, 'loaded': True, 'loadedTime': 6001.600000023842, 'positionName': 'RIGHT', 'positionCoords': [710.32, 179.5], 'bid': 5.58}]",69450.30000001192,1669848588404,steak,burger,9.93,5.58,-4.35,steak,702.5,704,704.1999999880791,True,u,70669.90000000596,1219.5999999940395,1669848589623,1219,HRV,HRV_0314,2022-11-30 22:53:30
40,"[{'imgObject': {}, 'id': 'hotdog w must', 'src': '/static/foodstim60/hotdog w must.jpg', 'key': 'u', 'origWidth': 409, 'origHeight': 409, 'width': 409, 'height': 409, 'widthPercent': 0.45, 'rescaleHeight': False, 'trialN': 40, 'loaded': True, 'loadedTime': 5521.4000000059605, 'positionName': 'LEFT', 'positionCoords': [246.68, 179.5], 'bid': 1.42}, {'imgObject': {}, 'id': 'popsicles', 'src': '/static/foodstim60/popsicles.jpg', 'key': 'i', 'origWidth': 410, 'origHeight': 410, 'width': 410, 'height': 410, 'widthPercent': 0.45, 'rescaleHeight': False, 'trialN': 40, 'loaded': True, 'loadedTime': 6045.200000017881, 'positionName': 'RIGHT', 'positionCoords': [710.32, 179], 'bid': 2.02}]",70670.20000001788,1669848589624,hotdog w must,popsicles,1.42,2.02,0.6000000000000001,popsicles,1497.7999999821186,1498,1498.5,True,i,72679.20000001788,2009.0,1669848591632,2008,HRV,HRV_0314,2022-11-30 22:53:30
41,"[{'imgObject': {}, 'id': 'baked potato', 'src': '/static/foodstim60/baked potato.jpg', 'key': 'u', 'origWidth': 409, 'origHeight': 410, 'width': 409, 'height': 410, 'widthPercent': 0.45, 'rescaleHeight': False, 'trialN': 41, 'loaded': True, 'loadedTime': 5335.700000017881, 'positionName': 'LEFT', 'positionCoords': [246.68, 179], 'bid': 8.41}, {'imgObject': {}, 'id': 'salad w chicken', 'src': '/static/foodstim60/salad w chicken.jpg', 'key': 'i', 'origWidth': 411, 'origHeight': 411, 'width': 411, 'height': 411, 'widthPercent': 0.45, 'rescaleHeight': False, 'trialN': 41, 'loaded': True, 'loadedTime': 5477.4000000059605, 'positionName': 'RIGHT', 'positionCoords': [710.32, 178.5], 'bid': 8.700000000000001}]",72679.5,1669848591633,baked potato,salad w chicken,8.41,8.700000000000001,0.2900000000000009,salad w chicken,836.6000000238419,837,837.0,True,i,74028.40000000596,1348.9000000059605,1669848592982,1349,HRV,HRV_0314,2022-11-30 22:53:30
42,"[{'imgObject': {}, 'id': 'turkey sandwich', 'src': '/static/foodstim60/turkey sandwich.jpg', 'key': 'u', 'origWidth': 409, 'origHeight': 409, 'width': 409, 'height': 409, 'widthPercent': 0.45, 'rescaleHeight': False, 'trialN': 42, 'loaded': True, 'loadedTime': 5740.700000017881, 'positionName': 'LEFT', 'positionCoords': [246.68, 179.5], 'bid': 4.61}, {'imgObject': {}, 'id': 'shreddedwheatwithmilk', 'src': '/static/foodstim60/shreddedwheatwithmilk.jpg', 'key': 'i', 'origWidth': 410, 'origHeight': 410, 'width': 410, 'height': 410, 'widthPercent': 0.45, 'rescaleHeight': False, 'trialN': 42, 'loaded': True, 'loadedTime': 6026.200000017881, 'positionName': 'RIGHT', 'positionCoords': [710.32, 179], 'bid': 5.07}]",74028.70000001788,1669848592982,turkey sandwich,shreddedwheatwithmilk,4.61,5.07,0.45999999999999996,shreddedwheatwithmilk,1104.0,1105,1104.5999999940395,True,i,75643.0,1614.2999999821186,1669848594596,1614,HRV,HRV_0314,2022-11-30 22:53:30
43,"[{'imgObject': {}, 'id': 'orange slices', 'src': '/static/foodstim60/orange slices.jpg', 'key': 'u', 'origWidth': 409, 'origHeight': 410, 'width': 409, 'height': 410, 'widthPercent': 0.45, 'rescaleHeight': False, 'trialN': 43, 'loaded': True, 'loadedTime': 6017.9000000059605, 'positionName': 'LEFT', 'positionCoords': [246.68, 179], 'bid': 3.65}, {'imgObject': {}, 'id': 'raisin bran w milk', 'src': '/static/foodstim60/raisin bran w milk.jpg', 'key': 'i', 'origWidth': 411, 'origHeight': 411, 'width': 411, 'height': 411, 'widthPercent': 0.45, 'rescaleHeight': False, 'trialN': 43, 'loaded': True, 'loadedTime': 5037, 'positionName': 'RIGHT', 'positionCoords': [710.32, 178.5], 'bid': 3.79}]",75643.70000001788,1669848594597,orange slices,raisin bran w milk,3.65,3.79,0.14000000000000012,orange slices,1182.699999988079,1183,1183.2999999821186,True,u,77341.80000001192,1698.0999999940395,1669848596295,1698,HRV,HRV_0314,2022-11-30 22:53:30
44,"[{'imgObject': {}, 'id': 'yogurt no spoon', 'src': '/static/foodstim60/yogurt no spoon.jpg', 'key': 'u', 'origWidth': 411, 'origHeight': 410, 'width': 411, 'height': 410, 'widthPercent': 0.45, 'rescaleHeight': False, 'trialN': 44, 'loaded': True, 'loadedTime': 5922, 'positionName': 'LEFT', 'positionCoords': [244.68, 179], 'bid': 6.99}, {'imgObject': {}, 'id': 'froot loops w milk', 'src': '/static/foodstim60/froot loops w milk.jpg', 'key': 'i', 'origWidth': 410, 'origHeight': 410, 'width': 410, 'height': 410, 'widthPercent': 0.45, 'rescaleHeight': False, 'trialN': 44, 'loaded': True, 'loadedTime': 5826, 'positionName': 'RIGHT', 'positionCoords': [710.32, 179], 'bid': 4.5600000000000005}]",77342.20000001788,1669848596295,yogurt no spoon,froot loops w milk,6.99,4.5600000000000005,-2.4299999999999997,yogurt no spoon,824.9000000059605,826,825.6999999880791,True,u,78675.70000001788,1333.5,1669848597629,1334,HRV,HRV_0314,2022-11-30 22:53:30
45,"[{'imgObject': {}, 'id': 'apple slices', 'src': '/static/foodstim60/apple slices.jpg', 'key': 'u', 'origWidth': 409, 'origHeight': 410, 'width': 409, 'height': 410, 'widthPercent': 0.45, 'rescaleHeight': False, 'trialN': 45, 'loaded': True, 'loadedTime': 4846.100000023842, 'positionName': 'LEFT', 'positionCoords': [246.68, 179], 'bid': 4.91}, {'imgObject': {}, 'id': 'edamame', 'src': '/static/foodstim60/edamame.jpg', 'key': 'i', 'origWidth': 409, 'origHeight': 410, 'width': 409, 'height': 410, 'widthPercent': 0.45, 'rescaleHeight': False, 'trialN': 45, 'loaded': True, 'loadedTime': 5863, 'positionName': 'RIGHT', 'positionCoords': [710.32, 179], 'bid': 3.93}]",78676.0,1669848597629,apple slices,edamame,4.91,3.93,-0.98,edamame,839.0,840,839.5,True,i,80037.5,1361.5,1669848598991,1362,HRV,HRV_0314,2022-11-30 22:53:30
46,"[{'imgObject': {}, 'id': 'Tribe humus pita', 'src': '/static/foodstim60/Tribe humus pita.jpg', 'key': 'u', 'origWidth': 411, 'origHeight': 411, 'width': 411, 'height': 411, 'widthPercent': 0.45, 'rescaleHeight': False, 'trialN': 46, 'loaded': True, 'loadedTime': 5230.300000011921, 'positionName': 'LEFT', 'positionCoords': [244.68, 178.5], 'bid': 7.51}, {'imgObject': {}, 'id': 'bagel and cc', 'src': '/static/foodstim60/bagel and cc.jpg', 'key': 'i', 'origWidth': 410, 'origHeight': 410, 'width': 410, 'height': 410, 'widthPercent': 0.45, 'rescaleHeight': False, 'trialN': 46, 'loaded': True, 'loadedTime': 6052.4000000059605, 'positionName': 'RIGHT', 'positionCoords': [710.32, 179], 'bid': 8.3}]",80037.90000000596,1669848598991,Tribe humus pita,bagel and cc,7.51,8.3,0.7900000000000009,Tribe humus pita,957.7000000178814,959,958.4000000059605,True,u,81503.70000001788,1465.800000011921,1669848600457,1466,HRV,HRV_0314,2022-11-30 22:53:30
47,"[{'imgObject': {}, 'id': 'raspberries', 'src': '/static/foodstim60/raspberries.jpg', 'key': 'u', 'origWidth': 411, 'origHeight': 411, 'width': 411, 'height': 411, 'widthPercent': 0.45, 'rescaleHeight': False, 'trialN': 47, 'loaded': True, 'loadedTime': 5802.300000011921, 'positionName': 'LEFT', 'positionCoords': [244.68, 178.5], 'bid': 4.12}, {'imgObject': {}, 'id': 'chickenfingers', 'src': '/static/foodstim60/chickenfingers.jpg', 'key': 'i', 'origWidth': 410, 'origHeight': 410, 'width': 410, 'height': 410, 'widthPercent': 0.45, 'rescaleHeight': False, 'trialN': 47, 'loaded': True, 'loadedTime': 5318.800000011921, 'positionName': 'RIGHT', 'positionCoords': [710.32, 179], 'bid': 6.93}]",81504.10000002384,1669848600457,raspberries,chickenfingers,4.12,6.93,2.8099999999999996,chickenfingers,876.7999999821186,878,877.5,True,i,82890.20000001788,1386.0999999940395,1669848601843,1386,HRV,HRV_0314,2022-11-30 22:53:30
48,"[{'imgObject': {}, 'id': 'corn cob', 'src': '/static/foodstim60/corn cob.jpg', 'key': 'u', 'origWidth': 411, 'origHeight': 411, 'width': 411, 'height': 411, 'widthPercent': 0.45, 'rescaleHeight': False, 'trialN': 48, 'loaded': True, 'loadedTime': 5911.300000011921, 'positionName': 'LEFT', 'positionCoords': [244.68, 178.5], 'bid': 7.92}, {'imgObject': {}, 'id': 'blackbeanswithrice', 'src': '/static/foodstim60/blackbeanswithrice.jpg', 'key': 'i', 'origWidth': 410, 'origHeight': 410, 'width': 410, 'height': 410, 'widthPercent': 0.45, 'rescaleHeight': False, 'trialN': 48, 'loaded': True, 'loadedTime': 5472.600000023842, 'positionName': 'RIGHT', 'positionCoords': [710.32, 179], 'bid': 6.8500000000000005}]",82890.5,1669848601844,corn cob,blackbeanswithrice,7.92,6.8500000000000005,-1.0699999999999994,corn cob,1448.6000000238419,1449,1449.300000011921,True,u,84852.80000001192,1962.300000011921,1669848603806,1962,HRV,HRV_0314,2022-11-30 22:53:30
49,"[{'imgObject': {}, 'id': 'sweetpotato', 'src': '/static/foodstim60/sweetpotato.jpg', 'key': 'u', 'origWidth': 410, 'origHeight': 410, 'width': 410, 'height': 410, 'widthPercent': 0.45, 'rescaleHeight': False, 'trialN': 49, 'loaded': True, 'loadedTime': 5845.300000011921, 'positionName': 'LEFT', 'positionCoords': [245.68, 179], 'bid': 0.53}, {'imgObject': {}, 'id': 'hashbrowns', 'src': '/static/foodstim60/hashbrowns.jpg', 'key': 'i', 'origWidth': 411, 'origHeight': 410, 'width': 411, 'height': 410, 'widthPercent': 0.45, 'rescaleHeight': False, 'trialN': 49, 'loaded': True, 'loadedTime': 5157, 'positionName': 'RIGHT', 'positionCoords': [710.32, 179], 'bid': 0.85}]",84853.30000001192,1669848603807,sweetpotato,hashbrowns,0.53,0.85,0.31999999999999995,sweetpotato,1308.5,1309,1309.0,True,u,86668.70000001788,1815.4000000059605,1669848605622,1815,HRV,HRV_0314,2022-11-30 22:53:30
50,"[{'imgObject': {}, 'id': 'corn cob', 'src': '/static/foodstim60/corn cob.jpg', 'key': 'u', 'origWidth': 411, 'origHeight': 411, 'width': 411, 'height': 411, 'widthPercent': 0.45, 'rescaleHeight': False, 'trialN': 50, 'loaded': True, 'loadedTime': 5914.200000017881, 'positionName': 'LEFT', 'positionCoords': [244.68, 178.5], 'bid': 7.92}, {'imgObject': {}, 'id': 'ice cream sundae 002', 'src': '/static/foodstim60/ice cream sundae 002.jpg', 'key': 'i', 'origWidth': 409, 'origHeight': 409, 'width': 409, 'height': 409, 'widthPercent': 0.45, 'rescaleHeight': False, 'trialN': 50, 'loaded': True, 'loadedTime': 6053.200000017881, 'positionName': 'RIGHT', 'positionCoords': [710.32, 179.5], 'bid': 5.08}]",86669.0,1669848605622,corn cob,ice cream sundae 002,7.92,5.08,-2.84,corn cob,1198.4000000059605,1200,1199.4000000059605,True,u,88382.30000001192,1713.300000011921,1669848607336,1714,HRV,HRV_0314,2022-11-30 22:53:30
51,"[{'imgObject': {}, 'id': 'ice cream sundae 002', 'src': '/static/foodstim60/ice cream sundae 002.jpg', 'key': 'u', 'origWidth': 409, 'origHeight': 409, 'width': 409, 'height': 409, 'widthPercent': 0.45, 'rescaleHeight': False, 'trialN': 51, 'loaded': True, 'loadedTime': 6057.100000023842, 'positionName': 'LEFT', 'positionCoords': [246.68, 179.5], 'bid': 5.08}, {'imgObject': {}, 'id': 'granola w milk', 'src': '/static/foodstim60/granola w milk.jpg', 'key': 'i', 'origWidth': 410, 'origHeight': 410, 'width': 410, 'height': 410, 'widthPercent': 0.45, 'rescaleHeight': False, 'trialN': 51, 'loaded': True, 'loadedTime': 5847, 'positionName': 'RIGHT', 'positionCoords': [710.32, 179], 'bid': 4.64}]",88382.60000002384,1669848607336,ice cream sundae 002,granola w milk,5.08,4.64,-0.4400000000000004,granola w milk,1049.7999999821186,1050,1050.3999999761581,True,i,89947.20000001788,1564.5999999940395,1669848608901,1565,HRV,HRV_0314,2022-11-30 22:53:30
52,"[{'imgObject': {}, 'id': 'chicken nuggets2', 'src': '/static/foodstim60/chicken nuggets2.jpg', 'key': 'u', 'origWidth': 410, 'origHeight': 409, 'width': 410, 'height': 409, 'widthPercent': 0.45, 'rescaleHeight': False, 'trialN': 52, 'loaded': True, 'loadedTime': 6081.100000023842, 'positionName': 'LEFT', 'positionCoords': [245.68, 179.5], 'bid': 6.21}, {'imgObject': {}, 'id': 'cocktailshrimp', 'src': '/static/foodstim60/cocktailshrimp.jpg', 'key': 'i', 'origWidth': 410, 'origHeight': 410, 'width': 410, 'height': 410, 'widthPercent': 0.45, 'rescaleHeight': False, 'trialN': 52, 'loaded': True, 'loadedTime': 6113.9000000059605, 'positionName': 'RIGHT', 'positionCoords': [710.32, 179], 'bid': 6.5200000000000005}]",89947.90000000596,1669848608901,chicken nuggets2,cocktailshrimp,6.21,6.5200000000000005,0.3100000000000005,chicken nuggets2,1236.9000000059605,1238,1237.7000000178814,True,u,91694.90000000596,1747.0,1669848610648,1747,HRV,HRV_0314,2022-11-30 22:53:30
53,"[{'imgObject': {}, 'id': 'olives', 'src': '/static/foodstim60/olives.jpg', 'key': 'u', 'origWidth': 410, 'origHeight': 410, 'width': 410, 'height': 410, 'widthPercent': 0.45, 'rescaleHeight': False, 'trialN': 53, 'loaded': True, 'loadedTime': 6118.200000017881, 'positionName': 'LEFT', 'positionCoords': [245.68, 179], 'bid': 5.01}, {'imgObject': {}, 'id': 'ice cream sundae 002', 'src': '/static/foodstim60/ice cream sundae 002.jpg', 'key': 'i', 'origWidth': 409, 'origHeight': 409, 'width': 409, 'height': 409, 'widthPercent': 0.45, 'rescaleHeight': False, 'trialN': 53, 'loaded': True, 'loadedTime': 6057.9000000059605, 'positionName': 'RIGHT', 'positionCoords': [710.32, 179.5], 'bid': 5.08}]",91695.30000001192,1669848610649,olives,ice cream sundae 002,5.01,5.08,0.07000000000000028,olives,1075.0999999940395,1076,1075.9000000059605,True,u,93294.90000000596,1599.5999999940395,1669848612248,1599,HRV,HRV_0314,2022-11-30 22:53:30
54,"[{'imgObject': {}, 'id': 'turkeysandwich', 'src': '/static/foodstim60/turkeysandwich.jpg', 'key': 'u', 'origWidth': 409, 'origHeight': 409, 'width': 409, 'height': 409, 'widthPercent': 0.45, 'rescaleHeight': False, 'trialN': 54, 'loaded': True, 'loadedTime': 4886.5, 'positionName': 'LEFT', 'positionCoords': [246.68, 179.5], 'bid': 4.98}, {'imgObject': {}, 'id': 'kiwi', 'src': '/static/foodstim60/kiwi.jpg', 'key': 'i', 'origWidth': 410, 'origHeight': 410, 'width': 410, 'height': 410, 'widthPercent': 0.45, 'rescaleHeight': False, 'trialN': 54, 'loaded': True, 'loadedTime': 5121.4000000059605, 'positionName': 'RIGHT', 'positionCoords': [710.32, 179], 'bid': 3.38}]",93295.60000002384,1669848612249,turkeysandwich,kiwi,4.98,3.38,-1.6000000000000005,turkeysandwich,940.5,941,940.8999999761581,True,u,94743.60000002384,1448.0,1669848613697,1448,HRV,HRV_0314,2022-11-30 22:53:30
55,"[{'imgObject': {}, 'id': 'avocado', 'src': '/static/foodstim60/avocado.jpg', 'key': 'u', 'origWidth': 409, 'origHeight': 409, 'width': 409, 'height': 409, 'widthPercent': 0.45, 'rescaleHeight': False, 'trialN': 55, 'loaded': True, 'loadedTime': 4795, 'positionName': 'LEFT', 'positionCoords': [246.68, 179.5], 'bid': 7.91}, {'imgObject': {}, 'id': 'chicken nuggets2', 'src': '/static/foodstim60/chicken nuggets2.jpg', 'key': 'i', 'origWidth': 410, 'origHeight': 409, 'width': 410, 'height': 409, 'widthPercent': 0.45, 'rescaleHeight': False, 'trialN': 55, 'loaded': True, 'loadedTime': 6080.4000000059605, 'positionName': 'RIGHT', 'positionCoords': [710.32, 179.5], 'bid': 6.21}]",94743.90000000596,1669848613697,avocado,chicken nuggets2,7.91,6.21,-1.7000000000000002,chicken nuggets2,1087.300000011921,1088,1087.9000000059605,True,i,96340.5,1596.5999999940395,1669848615294,1597,HRV,HRV_0314,2022-11-30 22:53:30
56,"[{'imgObject': {}, 'id': 'rigatoni', 'src': '/static/foodstim60/rigatoni.jpg', 'key': 'u', 'origWidth': 411, 'origHeight': 411, 'width': 411, 'height': 411, 'widthPercent': 0.45, 'rescaleHeight': False, 'trialN': 56, 'loaded': True, 'loadedTime': 6121.800000011921, 'positionName': 'LEFT', 'positionCoords': [244.68, 178.5], 'bid': 6.59}, {'imgObject': {}, 'id': 'raisin bran w milk', 'src': '/static/foodstim60/raisin bran w milk.jpg', 'key': 'i', 'origWidth': 411, 'origHeight': 411, 'width': 411, 'height': 411, 'widthPercent': 0.45, 'rescaleHeight': False, 'trialN': 56, 'loaded': True, 'loadedTime': 5036.5, 'positionName': 'RIGHT', 'positionCoords': [710.32, 178.5], 'bid': 3.79}]",96341.0,1669848615294,rigatoni,raisin bran w milk,6.59,3.79,-2.8,rigatoni,651.3000000119209,652,652.1000000238419,True,u,97507.30000001192,1166.300000011921,1669848616461,1167,HRV,HRV_0314,2022-11-30 22:53:30
57,"[{'imgObject': {}, 'id': 'steak', 'src': '/static/foodstim60/steak.jpg', 'key': 'u', 'origWidth': 410, 'origHeight': 410, 'width': 410, 'height': 410, 'widthPercent': 0.45, 'rescaleHeight': False, 'trialN': 57, 'loaded': True, 'loadedTime': 6011.600000023842, 'positionName': 'LEFT', 'positionCoords': [245.68, 179], 'bid': 9.93}, {'imgObject': {}, 'id': 'Tribe humus pita', 'src': '/static/foodstim60/Tribe humus pita.jpg', 'key': 'i', 'origWidth': 411, 'origHeight': 411, 'width': 411, 'height': 411, 'widthPercent': 0.45, 'rescaleHeight': False, 'trialN': 57, 'loaded': True, 'loadedTime': 5231.4000000059605, 'positionName': 'RIGHT', 'positionCoords': [710.32, 178.5], 'bid': 7.51}]",97507.70000001788,1669848616461,steak,Tribe humus pita,9.93,7.51,-2.42,steak,720.2999999821186,721,720.6999999880791,True,u,98742.20000001788,1234.5,1669848617696,1235,HRV,HRV_0314,2022-11-30 22:53:30
58,"[{'imgObject': {}, 'id': 'chicken nuggets2', 'src': '/static/foodstim60/chicken nuggets2.jpg', 'key': 'u', 'origWidth': 410, 'origHeight': 409, 'width': 410, 'height': 409, 'widthPercent': 0.45, 'rescaleHeight': False, 'trialN': 58, 'loaded': True, 'loadedTime': 6071.700000017881, 'positionName': 'LEFT', 'positionCoords': [245.68, 179.5], 'bid': 6.21}, {'imgObject': {}, 'id': 'fruitsalad', 'src': '/static/foodstim60/fruitsalad.jpg', 'key': 'i', 'origWidth': 410, 'origHeight': 410, 'width': 410, 'height': 410, 'widthPercent': 0.45, 'rescaleHeight': False, 'trialN': 58, 'loaded': True, 'loadedTime': 5421.600000023842, 'positionName': 'RIGHT', 'positionCoords': [710.32, 179], 'bid': 5.32}]",98743.0,1669848617696,chicken nuggets2,fruitsalad,6.21,5.32,-0.8899999999999997,chicken nuggets2,1312.0,1313,1312.4000000059605,True,u,100572.0,1829.0,1669848619525,1829,HRV,HRV_0314,2022-11-30 22:53:30
59,"[{'imgObject': {}, 'id': 'rigatoni', 'src': '/static/foodstim60/rigatoni.jpg', 'key': 'u', 'origWidth': 411, 'origHeight': 411, 'width': 411, 'height': 411, 'widthPercent': 0.45, 'rescaleHeight': False, 'trialN': 59, 'loaded': True, 'loadedTime': 6122.300000011921, 'positionName': 'LEFT', 'positionCoords': [244.68, 178.5], 'bid': 6.59}, {'imgObject': {}, 'id': 'baked potato', 'src': '/static/foodstim60/baked potato.jpg', 'key': 'i', 'origWidth': 409, 'origHeight': 410, 'width': 409, 'height': 410, 'widthPercent': 0.45, 'rescaleHeight': False, 'trialN': 59, 'loaded': True, 'loadedTime': 5336.9000000059605, 'positionName': 'RIGHT', 'positionCoords': [710.32, 179], 'bid': 8.41}]",100572.80000001192,1669848619526,rigatoni,baked potato,6.59,8.41,1.8200000000000003,rigatoni,1466.300000011921,1467,1467.0999999940395,True,u,102551.20000001788,1978.4000000059605,1669848621504,1978,HRV,HRV_0314,2022-11-30 22:53:30
60,"[{'imgObject': {}, 'id': 'rigatoni', 'src': '/static/foodstim60/rigatoni.jpg', 'key': 'u', 'origWidth': 411, 'origHeight': 411, 'width': 411, 'height': 411, 'widthPercent': 0.45, 'rescaleHeight': False, 'trialN': 60, 'loaded': True, 'loadedTime': 6121.300000011921, 'positionName': 'LEFT', 'positionCoords': [244.68, 178.5], 'bid': 6.59}, {'imgObject': {}, 'id': 'veggieswithdip', 'src': '/static/foodstim60/veggieswithdip.jpg', 'key': 'i', 'origWidth': 409, 'origHeight': 409, 'width': 409, 'height': 409, 'widthPercent': 0.45, 'rescaleHeight': False, 'trialN': 60, 'loaded': True, 'loadedTime': 5222.5, 'positionName': 'RIGHT', 'positionCoords': [710.32, 179.5], 'bid': 7.73}]",102551.5,1669848621505,rigatoni,veggieswithdip,6.59,7.73,1.1400000000000006,veggieswithdip,746.8000000119209,747,747.3000000119209,True,i,103817.80000001192,1266.300000011921,1669848622771,1266,HRV,HRV_0314,2022-11-30 22:53:30
61,"[{'imgObject': {}, 'id': 'omelette', 'src': '/static/foodstim60/omelette.jpg', 'key': 'u', 'origWidth': 410, 'origHeight': 409, 'width': 410, 'height': 409, 'widthPercent': 0.45, 'rescaleHeight': False, 'trialN': 61, 'loaded': True, 'loadedTime': 5962.5, 'positionName': 'LEFT', 'positionCoords': [245.68, 179.5], 'bid': 5.3}, {'imgObject': {}, 'id': 'raisin bran w milk', 'src': '/static/foodstim60/raisin bran w milk.jpg', 'key': 'i', 'origWidth': 411, 'origHeight': 411, 'width': 411, 'height': 411, 'widthPercent': 0.45, 'rescaleHeight': False, 'trialN': 61, 'loaded': True, 'loadedTime': 5031, 'positionName': 'RIGHT', 'positionCoords': [710.32, 178.5], 'bid': 3.79}]",103818.30000001192,1669848622772,omelette,raisin bran w milk,5.3,3.79,-1.5099999999999998,omelette,1377.199999988079,1377,1377.800000011921,True,u,105716.0,1897.699999988079,1669848624669,1897,HRV,HRV_0314,2022-11-30 22:53:30
62,"[{'imgObject': {}, 'id': 'banana', 'src': '/static/foodstim60/banana.jpg', 'key': 'u', 'origWidth': 410, 'origHeight': 410, 'width': 410, 'height': 410, 'widthPercent': 0.45, 'rescaleHeight': False, 'trialN': 62, 'loaded': True, 'loadedTime': 4932.300000011921, 'positionName': 'LEFT', 'positionCoords': [245.68, 179], 'bid': 6.65}, {'imgObject': {}, 'id': 'blackbeanswithrice', 'src': '/static/foodstim60/blackbeanswithrice.jpg', 'key': 'i', 'origWidth': 410, 'origHeight': 410, 'width': 410, 'height': 410, 'widthPercent': 0.45, 'rescaleHeight': False, 'trialN': 62, 'loaded': True, 'loadedTime': 5423.300000011921, 'positionName': 'RIGHT', 'positionCoords': [710.32, 179], 'bid': 6.8500000000000005}]",105716.70000001788,1669848624670,banana,blackbeanswithrice,6.65,6.8500000000000005,0.20000000000000018,blackbeanswithrice,791.7999999821186,792,792.2999999821186,True,i,107016.90000000596,1300.199999988079,1669848625970,1300,HRV,HRV_0314,2022-11-30 22:53:30
63,"[{'imgObject': {}, 'id': 'seaweed', 'src': '/static/foodstim60/seaweed.jpg', 'key': 'u', 'origWidth': 410, 'origHeight': 410, 'width': 410, 'height': 410, 'widthPercent': 0.45, 'rescaleHeight': False, 'trialN': 63, 'loaded': True, 'loadedTime': 6128.700000017881, 'positionName': 'LEFT', 'positionCoords': [245.68, 179], 'bid': 0.13}, {'imgObject': {}, 'id': 'sweetpotato', 'src': '/static/foodstim60/sweetpotato.jpg', 'key': 'i', 'origWidth': 410, 'origHeight': 410, 'width': 410, 'height': 410, 'widthPercent': 0.45, 'rescaleHeight': False, 'trialN': 63, 'loaded': True, 'loadedTime': 5837.9000000059605, 'positionName': 'RIGHT', 'positionCoords': [710.32, 179], 'bid': 0.53}]",107017.30000001192,1669848625971,seaweed,sweetpotato,0.13,0.53,0.4,sweetpotato,944.8000000119209,945,945.4000000059605,True,i,108464.60000002384,1447.300000011921,1669848627418,1447,HRV,HRV_0314,2022-11-30 22:53:30
64,"[{'imgObject': {}, 'id': 'Grapes', 'src': '/static/foodstim60/Grapes.jpg', 'key': 'u', 'origWidth': 411, 'origHeight': 411, 'width': 411, 'height': 411, 'widthPercent': 0.45, 'rescaleHeight': False, 'trialN': 64, 'loaded': True, 'loadedTime': 6132.700000017881, 'positionName': 'LEFT', 'positionCoords': [244.68, 178.5], 'bid': 5.7}, {'imgObject': {}, 'id': 'shreddedwheatwithmilk', 'src': '/static/foodstim60/shreddedwheatwithmilk.jpg', 'key': 'i', 'origWidth': 410, 'origHeight': 410, 'width': 410, 'height': 410, 'widthPercent': 0.45, 'rescaleHeight': False, 'trialN': 64, 'loaded': True, 'loadedTime': 6031.600000023842, 'positionName': 'RIGHT', 'positionCoords': [710.32, 179], 'bid': 5.07}]",108465.0,1669848627418,Grapes,shreddedwheatwithmilk,5.7,5.07,-0.6299999999999999,shreddedwheatwithmilk,2787.9000000059605,2789,2788.4000000059605,True,i,111762.0,3297.0,1669848630715,3297,HRV,HRV_0314,2022-11-30 22:53:30
65,"[{'imgObject': {}, 'id': 'mac & cheese', 'src': '/static/foodstim60/mac & cheese.jpg', 'key': 'u', 'origWidth': 410, 'origHeight': 410, 'width': 410, 'height': 410, 'widthPercent': 0.45, 'rescaleHeight': False, 'trialN': 65, 'loaded': True, 'loadedTime': 5623.800000011921, 'positionName': 'LEFT', 'positionCoords': [245.68, 179], 'bid': 8.2}, {'imgObject': {}, 'id': 'cocktailshrimp', 'src': '/static/foodstim60/cocktailshrimp.jpg', 'key': 'i', 'origWidth': 410, 'origHeight': 410, 'width': 410, 'height': 410, 'widthPercent': 0.45, 'rescaleHeight': False, 'trialN': 65, 'loaded': True, 'loadedTime': 6114.200000017881, 'positionName': 'RIGHT', 'positionCoords': [710.32, 179], 'bid': 6.5200000000000005}]",111762.5,1669848630716,mac & cheese,cocktailshrimp,8.2,6.5200000000000005,-1.6799999999999988,mac & cheese,742.0,742,742.7000000178814,True,u,113009.80000001192,1247.300000011921,1669848631963,1247,HRV,HRV_0314,2022-11-30 22:53:30
66,"[{'imgObject': {}, 'id': 'cantaloupe', 'src': '/static/foodstim60/cantaloupe.jpg', 'key': 'u', 'origWidth': 409, 'origHeight': 409, 'width': 409, 'height': 409, 'widthPercent': 0.45, 'rescaleHeight': False, 'trialN': 66, 'loaded': True, 'loadedTime': 5127.800000011921, 'positionName': 'LEFT', 'positionCoords': [246.68, 179.5], 'bid': 4.98}, {'imgObject': {}, 'id': 'eggs', 'src': '/static/foodstim60/eggs.jpg', 'key': 'i', 'origWidth': 409, 'origHeight': 409, 'width': 409, 'height': 409, 'widthPercent': 0.45, 'rescaleHeight': False, 'trialN': 66, 'loaded': True, 'loadedTime': 4993.4000000059605, 'positionName': 'RIGHT', 'positionCoords': [710.32, 179.5], 'bid': 7.57}]",113010.0,1669848631963,cantaloupe,eggs,4.98,7.57,2.59,eggs,816.4000000059605,817,817.4000000059605,True,i,114340.80000001192,1330.800000011921,1669848633294,1331,HRV,HRV_0314,2022-11-30 22:53:30
67,"[{'imgObject': {}, 'id': 'luckycharms', 'src': '/static/foodstim60/luckycharms.jpg', 'key': 'u', 'origWidth': 410, 'origHeight': 409, 'width': 410, 'height': 409, 'widthPercent': 0.45, 'rescaleHeight': False, 'trialN': 67, 'loaded': True, 'loadedTime': 5722.600000023842, 'positionName': 'LEFT', 'positionCoords': [245.68, 179.5], 'bid': 3.98}, {'imgObject': {}, 'id': 'edamame', 'src': '/static/foodstim60/edamame.jpg', 'key': 'i', 'origWidth': 409, 'origHeight': 410, 'width': 409, 'height': 410, 'widthPercent': 0.45, 'rescaleHeight': False, 'trialN': 67, 'loaded': True, 'loadedTime': 5863.600000023842, 'positionName': 'RIGHT', 'positionCoords': [710.32, 179], 'bid': 3.93}]",114341.20000001788,1669848633294,luckycharms,edamame,3.98,3.93,-0.04999999999999982,edamame,1781.4000000059605,1782,1782.199999988079,True,i,116639.10000002384,2297.9000000059605,1669848635592,2298,HRV,HRV_0314,2022-11-30 22:53:30
68,"[{'imgObject': {}, 'id': 'rigatoni', 'src': '/static/foodstim60/rigatoni.jpg', 'key': 'u', 'origWidth': 411, 'origHeight': 411, 'width': 411, 'height': 411, 'widthPercent': 0.45, 'rescaleHeight': False, 'trialN': 68, 'loaded': True, 'loadedTime': 6121.600000023842, 'positionName': 'LEFT', 'positionCoords': [244.68, 178.5], 'bid': 6.59}, {'imgObject': {}, 'id': 'blackbeanswithrice', 'src': '/static/foodstim60/blackbeanswithrice.jpg', 'key': 'i', 'origWidth': 410, 'origHeight': 410, 'width': 410, 'height': 410, 'widthPercent': 0.45, 'rescaleHeight': False, 'trialN': 68, 'loaded': True, 'loadedTime': 5428.100000023842, 'positionName': 'RIGHT', 'positionCoords': [710.32, 179], 'bid': 6.8500000000000005}]",116639.5,1669848635593,rigatoni,blackbeanswithrice,6.59,6.8500000000000005,0.2600000000000007,blackbeanswithrice,941.8000000119209,942,942.9000000059605,True,i,118089.80000001192,1450.300000011921,1669848637043,1450,HRV,HRV_0314,2022-11-30 22:53:30
69,"[{'imgObject': {}, 'id': 'sushi w_condiments', 'src': '/static/foodstim60/sushi w_condiments.jpg', 'key': 'u', 'origWidth': 410, 'origHeight': 410, 'width': 410, 'height': 410, 'widthPercent': 0.45, 'rescaleHeight': False, 'trialN': 69, 'loaded': True, 'loadedTime': 5380.4000000059605, 'positionName': 'LEFT', 'positionCoords': [245.68, 179], 'bid': 5.76}, {'imgObject': {}, 'id': 'ice cream sundae 002', 'src': '/static/foodstim60/ice cream sundae 002.jpg', 'key': 'i', 'origWidth': 409, 'origHeight': 409, 'width': 409, 'height': 409, 'widthPercent': 0.45, 'rescaleHeight': False, 'trialN': 69, 'loaded': True, 'loadedTime': 6057.700000017881, 'positionName': 'RIGHT', 'positionCoords': [710.32, 179.5], 'bid': 5.08}]",118090.30000001192,1669848637043,sushi w_condiments,ice cream sundae 002,5.76,5.08,-0.6799999999999997,sushi w_condiments,717.4000000059605,718,717.9000000059605,True,u,119319.70000001788,1229.4000000059605,1669848638273,1230,HRV,HRV_0314,2022-11-30 22:53:30
70,"[{'imgObject': {}, 'id': 'turkey sandwich', 'src': '/static/foodstim60/turkey sandwich.jpg', 'key': 'u', 'origWidth': 409, 'origHeight': 409, 'width': 409, 'height': 409, 'widthPercent': 0.45, 'rescaleHeight': False, 'trialN': 70, 'loaded': True, 'loadedTime': 5742.600000023842, 'positionName': 'LEFT', 'positionCoords': [246.68, 179.5], 'bid': 4.61}, {'imgObject': {}, 'id': 'mashed potato', 'src': '/static/foodstim60/mashed potato.jpg', 'key': 'i', 'origWidth': 409, 'origHeight': 409, 'width': 409, 'height': 409, 'widthPercent': 0.45, 'rescaleHeight': False, 'trialN': 70, 'loaded': True, 'loadedTime': 5518.200000017881, 'positionName': 'RIGHT', 'positionCoords': [710.32, 179.5], 'bid': 2.08}]",119320.10000002384,1669848638273,turkey sandwich,mashed potato,4.61,2.08,-2.5300000000000002,turkey sandwich,1334.5,1335,1335.199999988079,True,u,121167.80000001192,1847.699999988079,1669848640121,1848,HRV,HRV_0314,2022-11-30 22:53:30
71,"[{'imgObject': {}, 'id': 'strawberries', 'src': '/static/foodstim60/strawberries.jpg', 'key': 'u', 'origWidth': 410, 'origHeight': 410, 'width': 410, 'height': 410, 'widthPercent': 0.45, 'rescaleHeight': False, 'trialN': 71, 'loaded': True, 'loadedTime': 5105.300000011921, 'positionName': 'LEFT', 'positionCoords': [245.68, 179], 'bid': 5.68}, {'imgObject': {}, 'id': 'seaweed', 'src': '/static/foodstim60/seaweed.jpg', 'key': 'i', 'origWidth': 410, 'origHeight': 410, 'width': 410, 'height': 410, 'widthPercent': 0.45, 'rescaleHeight': False, 'trialN': 71, 'loaded': True, 'loadedTime': 6128.100000023842, 'positionName': 'RIGHT', 'positionCoords': [710.32, 179], 'bid': 0.13}]",121168.20000001788,1669848640121,strawberries,seaweed,5.68,0.13,-5.55,strawberries,793.9000000059605,795,794.4000000059605,True,u,122484.20000001788,1316.0,1669848641437,1316,HRV,HRV_0314,2022-11-30 22:53:30
72,"[{'imgObject': {}, 'id': 'yogurt no spoon', 'src': '/static/foodstim60/yogurt no spoon.jpg', 'key': 'u', 'origWidth': 411, 'origHeight': 410, 'width': 411, 'height': 410, 'widthPercent': 0.45, 'rescaleHeight': False, 'trialN': 72, 'loaded': True, 'loadedTime': 5919.600000023842, 'positionName': 'LEFT', 'positionCoords': [244.68, 179], 'bid': 6.99}, {'imgObject': {}, 'id': 'bagel and cc', 'src': '/static/foodstim60/bagel and cc.jpg', 'key': 'i', 'origWidth': 410, 'origHeight': 410, 'width': 410, 'height': 410, 'widthPercent': 0.45, 'rescaleHeight': False, 'trialN': 72, 'loaded': True, 'loadedTime': 6051.5, 'positionName': 'RIGHT', 'positionCoords': [710.32, 179], 'bid': 8.3}]",122484.70000001788,1669848641438,yogurt no spoon,bagel and cc,6.99,8.3,1.3100000000000005,yogurt no spoon,858.0,858,858.5,True,u,123851.80000001192,1367.0999999940395,1669848642805,1367,HRV,HRV_0314,2022-11-30 22:53:30
73,"[{'imgObject': {}, 'id': 'salmon', 'src': '/static/foodstim60/salmon.jpg', 'key': 'u', 'origWidth': 410, 'origHeight': 409, 'width': 410, 'height': 409, 'widthPercent': 0.45, 'rescaleHeight': False, 'trialN': 73, 'loaded': True, 'loadedTime': 6138.9000000059605, 'positionName': 'LEFT', 'positionCoords': [245.68, 179.5], 'bid': 6.140000000000001}, {'imgObject': {}, 'id': 'roastedpotatoes', 'src': '/static/foodstim60/roastedpotatoes.jpg', 'key': 'i', 'origWidth': 409, 'origHeight': 410, 'width': 409, 'height': 410, 'widthPercent': 0.45, 'rescaleHeight': False, 'trialN': 73, 'loaded': True, 'loadedTime': 5870.300000011921, 'positionName': 'RIGHT', 'positionCoords': [710.32, 179], 'bid': 6.15}]",123852.10000002384,1669848642805,salmon,roastedpotatoes,6.140000000000001,6.15,0.009999999999999787,roastedpotatoes,1019.1999999880791,1020,1019.8999999761581,True,i,125396.40000000596,1544.2999999821186,1669848644349,1544,HRV,HRV_0314,2022-11-30 22:53:30
74,"[{'imgObject': {}, 'id': 'burger', 'src': '/static/foodstim60/burger.jpg', 'key': 'u', 'origWidth': 409, 'origHeight': 409, 'width': 409, 'height': 409, 'widthPercent': 0.45, 'rescaleHeight': False, 'trialN': 74, 'loaded': True, 'loadedTime': 6002.600000023842, 'positionName': 'LEFT', 'positionCoords': [246.68, 179.5], 'bid': 5.58}, {'imgObject': {}, 'id': 'cocktailshrimp', 'src': '/static/foodstim60/cocktailshrimp.jpg', 'key': 'i', 'origWidth': 410, 'origHeight': 410, 'width': 410, 'height': 410, 'widthPercent': 0.45, 'rescaleHeight': False, 'trialN': 74, 'loaded': True, 'loadedTime': 6114.9000000059605, 'positionName': 'RIGHT', 'positionCoords': [710.32, 179], 'bid': 6.5200000000000005}]",125404.70000001788,1669848644358,burger,cocktailshrimp,5.58,6.5200000000000005,0.9400000000000004,cocktailshrimp,1195.4000000059605,1196,1195.9000000059605,True,i,127104.0,1699.2999999821186,1669848646057,1699,HRV,HRV_0314,2022-11-30 22:53:30
75,"[{'imgObject': {}, 'id': 'salmon', 'src': '/static/foodstim60/salmon.jpg', 'key': 'u', 'origWidth': 410, 'origHeight': 409, 'width': 410, 'height': 409, 'widthPercent': 0.45, 'rescaleHeight': False, 'trialN': 75, 'loaded': True, 'loadedTime': 6134.4000000059605, 'positionName': 'LEFT', 'positionCoords': [245.68, 179.5], 'bid': 6.140000000000001}, {'imgObject': {}, 'id': 'Grapes', 'src': '/static/foodstim60/Grapes.jpg', 'key': 'i', 'origWidth': 411, 'origHeight': 411, 'width': 411, 'height': 411, 'widthPercent': 0.45, 'rescaleHeight': False, 'trialN': 75, 'loaded': True, 'loadedTime': 6132.9000000059605, 'positionName': 'RIGHT', 'positionCoords': [710.32, 178.5], 'bid': 5.7}]",127104.40000000596,1669848646057,salmon,Grapes,6.140000000000001,5.7,-0.4400000000000004,Grapes,1268.800000011921,1270,1269.300000011921,True,i,128879.70000001788,1775.300000011921,1669848647833,1776,HRV,HRV_0314,2022-11-30 22:53:30
76,"[{'imgObject': {}, 'id': 'avocado', 'src': '/static/foodstim60/avocado.jpg', 'key': 'u', 'origWidth': 409, 'origHeight': 409, 'width': 409, 'height': 409, 'widthPercent': 0.45, 'rescaleHeight': False, 'trialN': 76, 'loaded': True, 'loadedTime': 4811.700000017881, 'positionName': 'LEFT', 'positionCoords': [246.68, 179.5], 'bid': 7.91}, {'imgObject': {}, 'id': 'shreddedwheatwithmilk', 'src': '/static/foodstim60/shreddedwheatwithmilk.jpg', 'key': 'i', 'origWidth': 410, 'origHeight': 410, 'width': 410, 'height': 410, 'widthPercent': 0.45, 'rescaleHeight': False, 'trialN': 76, 'loaded': True, 'loadedTime': 6028, 'positionName': 'RIGHT', 'positionCoords': [710.32, 179], 'bid': 5.07}]",128880.10000002384,1669848647833,avocado,shreddedwheatwithmilk,7.91,5.07,-2.84,avocado,802.0999999940395,803,802.6999999880791,True,u,130192.80000001192,1312.699999988079,1669848649146,1313,HRV,HRV_0314,2022-11-30 22:53:30
77,"[{'imgObject': {}, 'id': 'burrito', 'src': '/static/foodstim60/burrito.jpg', 'key': 'u', 'origWidth': 410, 'origHeight': 410, 'width': 410, 'height': 410, 'widthPercent': 0.45, 'rescaleHeight': False, 'trialN': 77, 'loaded': True, 'loadedTime': 5737, 'positionName': 'LEFT', 'positionCoords': [245.68, 179], 'bid': 7.25}, {'imgObject': {}, 'id': 'baked potato', 'src': '/static/foodstim60/baked potato.jpg', 'key': 'i', 'origWidth': 409, 'origHeight': 410, 'width': 409, 'height': 410, 'widthPercent': 0.45, 'rescaleHeight': False, 'trialN': 77, 'loaded': True, 'loadedTime': 5337.700000017881, 'positionName': 'RIGHT', 'positionCoords': [710.32, 179], 'bid': 8.41}]",130193.30000001192,1669848649146,burrito,baked potato,7.25,8.41,1.1600000000000001,baked potato,1182.300000011921,1183,1182.9000000059605,True,i,131891.60000002384,1698.300000011921,1669848650845,1699,HRV,HRV_0314,2022-11-30 22:53:30
78,"[{'imgObject': {}, 'id': 'sushi w_condiments', 'src': '/static/foodstim60/sushi w_condiments.jpg', 'key': 'u', 'origWidth': 410, 'origHeight': 410, 'width': 410, 'height': 410, 'widthPercent': 0.45, 'rescaleHeight': False, 'trialN': 78, 'loaded': True, 'loadedTime': 5378.5, 'positionName': 'LEFT', 'positionCoords': [245.68, 179], 'bid': 5.76}, {'imgObject': {}, 'id': 'hashbrowns', 'src': '/static/foodstim60/hashbrowns.jpg', 'key': 'i', 'origWidth': 411, 'origHeight': 410, 'width': 411, 'height': 410, 'widthPercent': 0.45, 'rescaleHeight': False, 'trialN': 78, 'loaded': True, 'loadedTime': 5155.9000000059605, 'positionName': 'RIGHT', 'positionCoords': [710.32, 179], 'bid': 0.85}]",131891.90000000596,1669848650845,sushi w_condiments,hashbrowns,5.76,0.85,-4.91,sushi w_condiments,1016.8000000119209,1017,1017.4000000059605,True,u,133424.80000001192,1532.9000000059605,1669848652378,1533,HRV,HRV_0314,2022-11-30 22:53:30
79,"[{'imgObject': {}, 'id': 'roastedpotatoes', 'src': '/static/foodstim60/roastedpotatoes.jpg', 'key': 'u', 'origWidth': 409, 'origHeight': 410, 'width': 409, 'height': 410, 'widthPercent': 0.45, 'rescaleHeight': False, 'trialN': 79, 'loaded': True, 'loadedTime': 5910.600000023842, 'positionName': 'LEFT', 'positionCoords': [246.68, 179], 'bid': 6.15}, {'imgObject': {}, 'id': 'sushi w_condiments', 'src': '/static/foodstim60/sushi w_condiments.jpg', 'key': 'i', 'origWidth': 410, 'origHeight': 410, 'width': 410, 'height': 410, 'widthPercent': 0.45, 'rescaleHeight': False, 'trialN': 79, 'loaded': True, 'loadedTime': 5378.700000017881, 'positionName': 'RIGHT', 'positionCoords': [710.32, 179], 'bid': 5.76}]",133426.10000002384,1669848652379,roastedpotatoes,sushi w_condiments,6.15,5.76,-0.39000000000000057,sushi w_condiments,2268.7999999821186,2269,2269.2999999821186,True,i,136203.40000000596,2777.2999999821186,1669848655156,2777,HRV,HRV_0314,2022-11-30 22:53:30
80,"[{'imgObject': {}, 'id': 'pear', 'src': '/static/foodstim60/pear.jpg', 'key': 'u', 'origWidth': 411, 'origHeight': 410, 'width': 411, 'height': 410, 'widthPercent': 0.45, 'rescaleHeight': False, 'trialN': 80, 'loaded': True, 'loadedTime': 5625.300000011921, 'positionName': 'LEFT', 'positionCoords': [244.68, 179], 'bid': 5.24}, {'imgObject': {}, 'id': 'roastedpotatoes', 'src': '/static/foodstim60/roastedpotatoes.jpg', 'key': 'i', 'origWidth': 409, 'origHeight': 410, 'width': 409, 'height': 410, 'widthPercent': 0.45, 'rescaleHeight': False, 'trialN': 80, 'loaded': True, 'loadedTime': 5910.100000023842, 'positionName': 'RIGHT', 'positionCoords': [710.32, 179], 'bid': 6.15}]",136203.90000000596,1669848655157,pear,roastedpotatoes,5.24,6.15,0.9100000000000001,roastedpotatoes,1853.0999999940395,1854,1854.300000011921,True,i,138567.10000002384,2363.2000000178814,1669848657520,2363,HRV,HRV_0314,2022-11-30 22:53:30
81,"[{'imgObject': {}, 'id': 'bagel and cc', 'src': '/static/foodstim60/bagel and cc.jpg', 'key': 'u', 'origWidth': 410, 'origHeight': 410, 'width': 410, 'height': 410, 'widthPercent': 0.45, 'rescaleHeight': False, 'trialN': 81, 'loaded': True, 'loadedTime': 6052.700000017881, 'positionName': 'LEFT', 'positionCoords': [245.68, 179], 'bid': 8.3}, {'imgObject': {}, 'id': 'mac & cheese', 'src': '/static/foodstim60/mac & cheese.jpg', 'key': 'i', 'origWidth': 410, 'origHeight': 410, 'width': 410, 'height': 410, 'widthPercent': 0.45, 'rescaleHeight': False, 'trialN': 81, 'loaded': True, 'loadedTime': 5624.5, 'positionName': 'RIGHT', 'positionCoords': [710.32, 179], 'bid': 8.2}]",138567.40000000596,1669848657520,bagel and cc,mac & cheese,8.3,8.2,-0.10000000000000142,mac & cheese,729.0,730,729.7000000178814,True,i,139802.20000001788,1234.800000011921,1669848658755,1235,HRV,HRV_0314,2022-11-30 22:53:30
82,"[{'imgObject': {}, 'id': 'Grapes', 'src': '/static/foodstim60/Grapes.jpg', 'key': 'u', 'origWidth': 411, 'origHeight': 411, 'width': 411, 'height': 411, 'widthPercent': 0.45, 'rescaleHeight': False, 'trialN': 82, 'loaded': True, 'loadedTime': 6133.300000011921, 'positionName': 'LEFT', 'positionCoords': [244.68, 178.5], 'bid': 5.7}, {'imgObject': {}, 'id': 'omelette', 'src': '/static/foodstim60/omelette.jpg', 'key': 'i', 'origWidth': 410, 'origHeight': 409, 'width': 410, 'height': 409, 'widthPercent': 0.45, 'rescaleHeight': False, 'trialN': 82, 'loaded': True, 'loadedTime': 5966.600000023842, 'positionName': 'RIGHT', 'positionCoords': [710.32, 179.5], 'bid': 5.3}]",139802.5,1669848658756,Grapes,omelette,5.7,5.3,-0.40000000000000036,Grapes,945.2000000178814,945,945.9000000059605,True,u,141266.10000002384,1463.6000000238419,1669848660219,1463,HRV,HRV_0314,2022-11-30 22:53:30
83,"[{'imgObject': {}, 'id': 'grilled chicken strips', 'src': '/static/foodstim60/grilled chicken strips.jpg', 'key': 'u', 'origWidth': 410, 'origHeight': 411, 'width': 410, 'height': 411, 'widthPercent': 0.45, 'rescaleHeight': False, 'trialN': 83, 'loaded': True, 'loadedTime': 4667.5, 'positionName': 'LEFT', 'positionCoords': [245.68, 178.5], 'bid': 6.17}, {'imgObject': {}, 'id': 'chicken nuggets2', 'src': '/static/foodstim60/chicken nuggets2.jpg', 'key': 'i', 'origWidth': 410, 'origHeight': 409, 'width': 410, 'height': 409, 'widthPercent': 0.45, 'rescaleHeight': False, 'trialN': 83, 'loaded': True, 'loadedTime': 6074.100000023842, 'positionName': 'RIGHT', 'positionCoords': [710.32, 179.5], 'bid': 6.21}]",141266.40000000596,1669848660219,grilled chicken strips,chicken nuggets2,6.17,6.21,0.040000000000000036,chicken nuggets2,783.9000000059605,785,784.7000000178814,True,i,142564.80000001192,1298.4000000059605,1669848661518,1299,HRV,HRV_0314,2022-11-30 22:53:30
84,"[{'imgObject': {}, 'id': 'cheerios', 'src': '/static/foodstim60/cheerios.jpg', 'key': 'u', 'origWidth': 409, 'origHeight': 410, 'width': 409, 'height': 410, 'widthPercent': 0.45, 'rescaleHeight': False, 'trialN': 84, 'loaded': True, 'loadedTime': 6145.200000017881, 'positionName': 'LEFT', 'positionCoords': [246.68, 179], 'bid': 5.48}, {'imgObject': {}, 'id': 'salmon', 'src': '/static/foodstim60/salmon.jpg', 'key': 'i', 'origWidth': 410, 'origHeight': 409, 'width': 410, 'height': 409, 'widthPercent': 0.45, 'rescaleHeight': False, 'trialN': 84, 'loaded': True, 'loadedTime': 6136.9000000059605, 'positionName': 'RIGHT', 'positionCoords': [710.32, 179.5], 'bid': 6.140000000000001}]",142565.30000001192,1669848661518,cheerios,salmon,5.48,6.140000000000001,0.6600000000000001,salmon,874.6999999880791,876,875.5,True,i,143948.0,1382.699999988079,1669848662901,1383,HRV,HRV_0314,2022-11-30 22:53:30
85,"[{'imgObject': {}, 'id': 'cocktailshrimp', 'src': '/static/foodstim60/cocktailshrimp.jpg', 'key': 'u', 'origWidth': 410, 'origHeight': 410, 'width': 410, 'height': 410, 'widthPercent': 0.45, 'rescaleHeight': False, 'trialN': 85, 'loaded': True, 'loadedTime': 6108.300000011921, 'positionName': 'LEFT', 'positionCoords': [245.68, 179], 'bid': 6.5200000000000005}, {'imgObject': {}, 'id': 'kiwi', 'src': '/static/foodstim60/kiwi.jpg', 'key': 'i', 'origWidth': 410, 'origHeight': 410, 'width': 410, 'height': 410, 'widthPercent': 0.45, 'rescaleHeight': False, 'trialN': 85, 'loaded': True, 'loadedTime': 5118.300000011921, 'positionName': 'RIGHT', 'positionCoords': [710.32, 179], 'bid': 3.38}]",143948.60000002384,1669848662902,cocktailshrimp,kiwi,6.5200000000000005,3.38,-3.1400000000000006,cocktailshrimp,736.0999999940395,736,736.5999999940395,True,u,145196.20000001788,1247.5999999940395,1669848664149,1247,HRV,HRV_0314,2022-11-30 22:53:30
86,"[{'imgObject': {}, 'id': 'mango', 'src': '/static/foodstim60/mango.jpg', 'key': 'u', 'origWidth': 411, 'origHeight': 411, 'width': 411, 'height': 411, 'widthPercent': 0.45, 'rescaleHeight': False, 'trialN': 86, 'loaded': True, 'loadedTime': 5681.600000023842, 'positionName': 'LEFT', 'positionCoords': [244.68, 178.5], 'bid': 2.99}, {'imgObject': {}, 'id': 'chicken nuggets2', 'src': '/static/foodstim60/chicken nuggets2.jpg', 'key': 'i', 'origWidth': 410, 'origHeight': 409, 'width': 410, 'height': 409, 'widthPercent': 0.45, 'rescaleHeight': False, 'trialN': 86, 'loaded': True, 'loadedTime': 6080.700000017881, 'positionName': 'RIGHT', 'positionCoords': [710.32, 179.5], 'bid': 6.21}]",145196.70000001788,1669848664150,mango,chicken nuggets2,2.99,6.21,3.2199999999999998,chicken nuggets2,652.0,653,652.7999999821186,True,i,146361.20000001788,1164.5,1669848665314,1164,HRV,HRV_0314,2022-11-30 22:53:30
87,"[{'imgObject': {}, 'id': 'fried eggs', 'src': '/static/foodstim60/fried eggs.jpg', 'key': 'u', 'origWidth': 410, 'origHeight': 410, 'width': 410, 'height': 410, 'widthPercent': 0.45, 'rescaleHeight': False, 'trialN': 87, 'loaded': True, 'loadedTime': 6145.800000011921, 'positionName': 'LEFT', 'positionCoords': [245.68, 179], 'bid': 7.26}, {'imgObject': {}, 'id': 'Grapes', 'src': '/static/foodstim60/Grapes.jpg', 'key': 'i', 'origWidth': 411, 'origHeight': 411, 'width': 411, 'height': 411, 'widthPercent': 0.45, 'rescaleHeight': False, 'trialN': 87, 'loaded': True, 'loadedTime': 6132.100000023842, 'positionName': 'RIGHT', 'positionCoords': [710.32, 178.5], 'bid': 5.7}]",146362.0,1669848665315,fried eggs,Grapes,7.26,5.7,-1.5599999999999996,fried eggs,697.2000000178814,698,697.6000000238419,True,u,147578.5,1216.5,1669848666532,1217,HRV,HRV_0314,2022-11-30 22:53:30
88,"[{'imgObject': {}, 'id': 'Tribe humus pita', 'src': '/static/foodstim60/Tribe humus pita.jpg', 'key': 'u', 'origWidth': 411, 'origHeight': 411, 'width': 411, 'height': 411, 'widthPercent': 0.45, 'rescaleHeight': False, 'trialN': 88, 'loaded': True, 'loadedTime': 5232.300000011921, 'positionName': 'LEFT', 'positionCoords': [244.68, 178.5], 'bid': 7.51}, {'imgObject': {}, 'id': 'salmon', 'src': '/static/foodstim60/salmon.jpg', 'key': 'i', 'origWidth': 410, 'origHeight': 409, 'width': 410, 'height': 409, 'widthPercent': 0.45, 'rescaleHeight': False, 'trialN': 88, 'loaded': True, 'loadedTime': 6139.800000011921, 'positionName': 'RIGHT', 'positionCoords': [710.32, 179.5], 'bid': 6.140000000000001}]",147579.10000002384,1669848666532,Tribe humus pita,salmon,7.51,6.140000000000001,-1.3699999999999992,Tribe humus pita,790.0999999940395,791,790.5999999940395,True,u,148876.5,1297.3999999761581,1669848667829,1297,HRV,HRV_0314,2022-11-30 22:53:30
89,"[{'imgObject': {}, 'id': 'salad w chicken', 'src': '/static/foodstim60/salad w chicken.jpg', 'key': 'u', 'origWidth': 411, 'origHeight': 411, 'width': 411, 'height': 411, 'widthPercent': 0.45, 'rescaleHeight': False, 'trialN': 89, 'loaded': True, 'loadedTime': 5476.800000011921, 'positionName': 'LEFT', 'positionCoords': [244.68, 178.5], 'bid': 8.700000000000001}, {'imgObject': {}, 'id': 'tacos', 'src': '/static/foodstim60/tacos.jpg', 'key': 'i', 'origWidth': 411, 'origHeight': 411, 'width': 411, 'height': 411, 'widthPercent': 0.45, 'rescaleHeight': False, 'trialN': 89, 'loaded': True, 'loadedTime': 4929.9000000059605, 'positionName': 'RIGHT', 'positionCoords': [710.32, 178.5], 'bid': 7.51}]",148876.80000001192,1669848667830,salad w chicken,tacos,8.700000000000001,7.51,-1.1900000000000013,salad w chicken,882.9000000059605,884,884.3000000119209,True,u,150273.40000000596,1396.5999999940395,1669848669226,1396,HRV,HRV_0314,2022-11-30 22:53:30
90,"[{'imgObject': {}, 'id': 'seaweed', 'src': '/static/foodstim60/seaweed.jpg', 'key': 'u', 'origWidth': 410, 'origHeight': 410, 'width': 410, 'height': 410, 'widthPercent': 0.45, 'rescaleHeight': False, 'trialN': 90, 'loaded': True, 'loadedTime': 6129.200000017881, 'positionName': 'LEFT', 'positionCoords': [245.68, 179], 'bid': 0.13}, {'imgObject': {}, 'id': 'orange slices', 'src': '/static/foodstim60/orange slices.jpg', 'key': 'i', 'origWidth': 409, 'origHeight': 410, 'width': 409, 'height': 410, 'widthPercent': 0.45, 'rescaleHeight': False, 'trialN': 90, 'loaded': True, 'loadedTime': 6018.100000023842, 'positionName': 'RIGHT', 'positionCoords': [710.32, 179], 'bid': 3.65}]",154088.70000001788,1669848673042,seaweed,orange slices,0.13,3.65,3.52,orange slices,833.5,834,834.2999999821186,True,i,155436.80000001192,1348.0999999940395,1669848674390,1348,HRV,HRV_0314,2022-11-30 22:53:30
91,"[{'imgObject': {}, 'id': 'rigatoni', 'src': '/static/foodstim60/rigatoni.jpg', 'key': 'u', 'origWidth': 411, 'origHeight': 411, 'width': 411, 'height': 411, 'widthPercent': 0.45, 'rescaleHeight': False, 'trialN': 91, 'loaded': True, 'loadedTime': 6118.700000017881, 'positionName': 'LEFT', 'positionCoords': [244.68, 178.5], 'bid': 6.59}, {'imgObject': {}, 'id': 'fried eggs', 'src': '/static/foodstim60/fried eggs.jpg', 'key': 'i', 'origWidth': 410, 'origHeight': 410, 'width': 410, 'height': 410, 'widthPercent': 0.45, 'rescaleHeight': False, 'trialN': 91, 'loaded': True, 'loadedTime': 6152.300000011921, 'positionName': 'RIGHT', 'positionCoords': [710.32, 179], 'bid': 7.26}]",155437.20000001788,1669848674390,rigatoni,fried eggs,6.59,7.26,0.6699999999999999,fried eggs,709.1999999880791,710,709.6999999880791,True,i,156668.40000000596,1231.199999988079,1669848675621,1231,HRV,HRV_0314,2022-11-30 22:53:30
92,"[{'imgObject': {}, 'id': 'turkey sandwich', 'src': '/static/foodstim60/turkey sandwich.jpg', 'key': 'u', 'origWidth': 409, 'origHeight': 409, 'width': 409, 'height': 409, 'widthPercent': 0.45, 'rescaleHeight': False, 'trialN': 92, 'loaded': True, 'loadedTime': 5742.4000000059605, 'positionName': 'LEFT', 'positionCoords': [246.68, 179.5], 'bid': 4.61}, {'imgObject': {}, 'id': 'apple slices', 'src': '/static/foodstim60/apple slices.jpg', 'key': 'i', 'origWidth': 409, 'origHeight': 410, 'width': 409, 'height': 410, 'widthPercent': 0.45, 'rescaleHeight': False, 'trialN': 92, 'loaded': True, 'loadedTime': 4845.4000000059605, 'positionName': 'RIGHT', 'positionCoords': [710.32, 179], 'bid': 4.91}]",156668.90000000596,1669848675622,turkey sandwich,apple slices,4.61,4.91,0.2999999999999998,apple slices,974.4000000059605,975,975.0,True,i,158151.80000001192,1482.9000000059605,1669848677105,1483,HRV,HRV_0314,2022-11-30 22:53:30
93,"[{'imgObject': {}, 'id': 'chicken nuggets2', 'src': '/static/foodstim60/chicken nuggets2.jpg', 'key': 'u', 'origWidth': 410, 'origHeight': 409, 'width': 410, 'height': 409, 'widthPercent': 0.45, 'rescaleHeight': False, 'trialN': 93, 'loaded': True, 'loadedTime': 6081.5, 'positionName': 'LEFT', 'positionCoords': [245.68, 179.5], 'bid': 6.21}, {'imgObject': {}, 'id': 'blackbeanswithrice', 'src': '/static/foodstim60/blackbeanswithrice.jpg', 'key': 'i', 'origWidth': 410, 'origHeight': 410, 'width': 410, 'height': 410, 'widthPercent': 0.45, 'rescaleHeight': False, 'trialN': 93, 'loaded': True, 'loadedTime': 5428.800000011921, 'positionName': 'RIGHT', 'positionCoords': [710.32, 179], 'bid': 6.8500000000000005}]",158152.30000001192,1669848677105,chicken nuggets2,blackbeanswithrice,6.21,6.8500000000000005,0.6400000000000006,chicken nuggets2,763.0999999940395,764,763.8000000119209,True,u,159433.10000002384,1280.800000011921,1669848678386,1281,HRV,HRV_0314,2022-11-30 22:53:30
94,"[{'imgObject': {}, 'id': 'raspberries', 'src': '/static/foodstim60/raspberries.jpg', 'key': 'u', 'origWidth': 411, 'origHeight': 411, 'width': 411, 'height': 411, 'widthPercent': 0.45, 'rescaleHeight': False, 'trialN': 94, 'loaded': True, 'loadedTime': 5802.700000017881, 'positionName': 'LEFT', 'positionCoords': [244.68, 178.5], 'bid': 4.12}, {'imgObject': {}, 'id': 'cantaloupe', 'src': '/static/foodstim60/cantaloupe.jpg', 'key': 'i', 'origWidth': 409, 'origHeight': 409, 'width': 409, 'height': 409, 'widthPercent': 0.45, 'rescaleHeight': False, 'trialN': 94, 'loaded': True, 'loadedTime': 5145.300000011921, 'positionName': 'RIGHT', 'positionCoords': [710.32, 179.5], 'bid': 4.98}]",159433.5,1669848678387,raspberries,cantaloupe,4.12,4.98,0.8600000000000003,cantaloupe,1181.2000000178814,1181,1182.0,True,i,161132.40000000596,1698.9000000059605,1669848680085,1698,HRV,HRV_0314,2022-11-30 22:53:30
95,"[{'imgObject': {}, 'id': 'mashed potato', 'src': '/static/foodstim60/mashed potato.jpg', 'key': 'u', 'origWidth': 409, 'origHeight': 409, 'width': 409, 'height': 409, 'widthPercent': 0.45, 'rescaleHeight': False, 'trialN': 95, 'loaded': True, 'loadedTime': 5478.600000023842, 'positionName': 'LEFT', 'positionCoords': [246.68, 179.5], 'bid': 2.08}, {'imgObject': {}, 'id': 'olives', 'src': '/static/foodstim60/olives.jpg', 'key': 'i', 'origWidth': 410, 'origHeight': 410, 'width': 410, 'height': 410, 'widthPercent': 0.45, 'rescaleHeight': False, 'trialN': 95, 'loaded': True, 'loadedTime': 6115.300000011921, 'positionName': 'RIGHT', 'positionCoords': [710.32, 179], 'bid': 5.01}]",161132.90000000596,1669848680086,mashed potato,olives,2.08,5.01,2.9299999999999997,olives,932.0999999940395,933,932.8000000119209,True,i,162579.80000001192,1446.9000000059605,1669848681533,1447,HRV,HRV_0314,2022-11-30 22:53:30
96,"[{'imgObject': {}, 'id': 'cheerios', 'src': '/static/foodstim60/cheerios.jpg', 'key': 'u', 'origWidth': 409, 'origHeight': 410, 'width': 409, 'height': 410, 'widthPercent': 0.45, 'rescaleHeight': False, 'trialN': 96, 'loaded': True, 'loadedTime': 6140.4000000059605, 'positionName': 'LEFT', 'positionCoords': [246.68, 179], 'bid': 5.48}, {'imgObject': {}, 'id': 'burger', 'src': '/static/foodstim60/burger.jpg', 'key': 'i', 'origWidth': 409, 'origHeight': 409, 'width': 409, 'height': 409, 'widthPercent': 0.45, 'rescaleHeight': False, 'trialN': 96, 'loaded': True, 'loadedTime': 6002.300000011921, 'positionName': 'RIGHT', 'positionCoords': [710.32, 179.5], 'bid': 5.58}]",162580.0,1669848681533,cheerios,burger,5.48,5.58,0.09999999999999964,burger,946.1000000238419,947,946.6000000238419,True,i,164046.0,1466.0,1669848682999,1466,HRV,HRV_0314,2022-11-30 22:53:30
97,"[{'imgObject': {}, 'id': 'bagel plain', 'src': '/static/foodstim60/bagel plain.jpg', 'key': 'u', 'origWidth': 410, 'origHeight': 410, 'width': 410, 'height': 410, 'widthPercent': 0.45, 'rescaleHeight': False, 'trialN': 97, 'loaded': True, 'loadedTime': 5278.800000011921, 'positionName': 'LEFT', 'positionCoords': [245.68, 179], 'bid': 6.53}, {'imgObject': {}, 'id': 'rigatoni', 'src': '/static/foodstim60/rigatoni.jpg', 'key': 'i', 'origWidth': 411, 'origHeight': 411, 'width': 411, 'height': 411, 'widthPercent': 0.45, 'rescaleHeight': False, 'trialN': 97, 'loaded': True, 'loadedTime': 6122.9000000059605, 'positionName': 'RIGHT', 'positionCoords': [710.32, 178.5], 'bid': 6.59}]",164046.60000002384,1669848683000,bagel plain,rigatoni,6.53,6.59,0.05999999999999961,rigatoni,878.3999999761581,878,878.7999999821186,True,i,165443.20000001788,1396.5999999940395,1669848684396,1396,HRV,HRV_0314,2022-11-30 22:53:30
98,"[{'imgObject': {}, 'id': 'shreddedwheatwithmilk', 'src': '/static/foodstim60/shreddedwheatwithmilk.jpg', 'key': 'u', 'origWidth': 410, 'origHeight': 410, 'width': 410, 'height': 410, 'widthPercent': 0.45, 'rescaleHeight': False, 'trialN': 98, 'loaded': True, 'loadedTime': 6028.5, 'positionName': 'LEFT', 'positionCoords': [245.68, 179], 'bid': 5.07}, {'imgObject': {}, 'id': 'cantaloupe', 'src': '/static/foodstim60/cantaloupe.jpg', 'key': 'i', 'origWidth': 409, 'origHeight': 409, 'width': 409, 'height': 409, 'widthPercent': 0.45, 'rescaleHeight': False, 'trialN': 98, 'loaded': True, 'loadedTime': 5128.100000023842, 'positionName': 'RIGHT', 'positionCoords': [710.32, 179.5], 'bid': 4.98}]",165443.5,1669848684397,shreddedwheatwithmilk,cantaloupe,5.07,4.98,-0.08999999999999986,cantaloupe,1373.800000011921,1374,1374.5,True,i,167325.60000002384,1882.1000000238419,1669848686279,1882,HRV,HRV_0314,2022-11-30 22:53:30
99,"[{'imgObject': {}, 'id': 'salad w chicken', 'src': '/static/foodstim60/salad w chicken.jpg', 'key': 'u', 'origWidth': 411, 'origHeight': 411, 'width': 411, 'height': 411, 'widthPercent': 0.45, 'rescaleHeight': False, 'trialN': 99, 'loaded': True, 'loadedTime': 5476, 'positionName': 'LEFT', 'positionCoords': [244.68, 178.5], 'bid': 8.700000000000001}, {'imgObject': {}, 'id': 'steak', 'src': '/static/foodstim60/steak.jpg', 'key': 'i', 'origWidth': 410, 'origHeight': 410, 'width': 410, 'height': 410, 'widthPercent': 0.45, 'rescaleHeight': False, 'trialN': 99, 'loaded': True, 'loadedTime': 6011.100000023842, 'positionName': 'RIGHT', 'positionCoords': [710.32, 179], 'bid': 9.93}]",167326.20000001788,1669848686279,salad w chicken,steak,8.700000000000001,9.93,1.2299999999999986,steak,958.2999999821186,959,959.0,True,i,168795.0,1468.7999999821186,1669848687748,1469,HRV,HRV_0314,2022-11-30 22:53:30
100,"[{'imgObject': {}, 'id': 'seaweed', 'src': '/static/foodstim60/seaweed.jpg', 'key': 'u', 'origWidth': 410, 'origHeight': 410, 'width': 410, 'height': 410, 'widthPercent': 0.45, 'rescaleHeight': False, 'trialN': 100, 'loaded': True, 'loadedTime': 6123.300000011921, 'positionName': 'LEFT', 'positionCoords': [245.68, 179], 'bid': 0.13}, {'imgObject': {}, 'id': 'lox', 'src': '/static/foodstim60/lox.jpg', 'key': 'i', 'origWidth': 410, 'origHeight': 411, 'width': 410, 'height': 411, 'widthPercent': 0.45, 'rescaleHeight': False, 'trialN': 100, 'loaded': True, 'loadedTime': 5688.700000017881, 'positionName': 'RIGHT', 'positionCoords': [710.32, 178.5], 'bid': 0.3}]",168795.30000001192,1669848687748,seaweed,lox,0.13,0.3,0.16999999999999998,lox,734.9000000059605,736,735.6999999880791,True,i,170056.80000001192,1261.5,1669848689010,1262,HRV,HRV_0314,2022-11-30 22:53:30
101,"[{'imgObject': {}, 'id': 'Grapes', 'src': '/static/foodstim60/Grapes.jpg', 'key': 'u', 'origWidth': 411, 'origHeight': 411, 'width': 411, 'height': 411, 'widthPercent': 0.45, 'rescaleHeight': False, 'trialN': 101, 'loaded': True, 'loadedTime': 6130.100000023842, 'positionName': 'LEFT', 'positionCoords': [244.68, 178.5], 'bid': 5.7}, {'imgObject': {}, 'id': 'sweetpotato', 'src': '/static/foodstim60/sweetpotato.jpg', 'key': 'i', 'origWidth': 410, 'origHeight': 410, 'width': 410, 'height': 410, 'widthPercent': 0.45, 'rescaleHeight': False, 'trialN': 101, 'loaded': True, 'loadedTime': 5830.600000023842, 'positionName': 'RIGHT', 'positionCoords': [710.32, 179], 'bid': 0.53}]",170057.40000000596,1669848689010,Grapes,sweetpotato,5.7,0.53,-5.17,Grapes,1077.300000011921,1078,1078.0,True,u,171639.90000000596,1582.5,1669848690593,1583,HRV,HRV_0314,2022-11-30 22:53:30
102,"[{'imgObject': {}, 'id': 'seaweed', 'src': '/static/foodstim60/seaweed.jpg', 'key': 'u', 'origWidth': 410, 'origHeight': 410, 'width': 410, 'height': 410, 'widthPercent': 0.45, 'rescaleHeight': False, 'trialN': 102, 'loaded': True, 'loadedTime': 6128.4000000059605, 'positionName': 'LEFT', 'positionCoords': [245.68, 179], 'bid': 0.13}, {'imgObject': {}, 'id': 'mashed potato', 'src': '/static/foodstim60/mashed potato.jpg', 'key': 'i', 'origWidth': 409, 'origHeight': 409, 'width': 409, 'height': 409, 'widthPercent': 0.45, 'rescaleHeight': False, 'trialN': 102, 'loaded': True, 'loadedTime': 5517.5, 'positionName': 'RIGHT', 'positionCoords': [710.32, 179.5], 'bid': 2.08}]",171640.10000002384,1669848690593,seaweed,mashed potato,0.13,2.08,1.9500000000000002,mashed potato,1097.0,1098,1097.7999999821186,True,i,173249.80000001192,1609.699999988079,1669848692203,1610,HRV,HRV_0314,2022-11-30 22:53:30
103,"[{'imgObject': {}, 'id': 'chickenfingers', 'src': '/static/foodstim60/chickenfingers.jpg', 'key': 'u', 'origWidth': 410, 'origHeight': 410, 'width': 410, 'height': 410, 'widthPercent': 0.45, 'rescaleHeight': False, 'trialN': 103, 'loaded': True, 'loadedTime': 5284.300000011921, 'positionName': 'LEFT', 'positionCoords': [245.68, 179], 'bid': 6.93}, {'imgObject': {}, 'id': 'yogurt no spoon', 'src': '/static/foodstim60/yogurt no spoon.jpg', 'key': 'i', 'origWidth': 411, 'origHeight': 410, 'width': 411, 'height': 410, 'widthPercent': 0.45, 'rescaleHeight': False, 'trialN': 103, 'loaded': True, 'loadedTime': 5922.4000000059605, 'positionName': 'RIGHT', 'positionCoords': [710.32, 179], 'bid': 6.99}]",173250.20000001788,1669848692203,chickenfingers,yogurt no spoon,6.93,6.99,0.0600000000000005,chickenfingers,779.0999999940395,771,779.5,True,u,174538.0,1287.7999999821186,1669848693482,1279,HRV,HRV_0314,2022-11-30 22:53:30
104,"[{'imgObject': {}, 'id': 'corn cob', 'src': '/static/foodstim60/corn cob.jpg', 'key': 'u', 'origWidth': 411, 'origHeight': 411, 'width': 411, 'height': 411, 'widthPercent': 0.45, 'rescaleHeight': False, 'trialN': 104, 'loaded': True, 'loadedTime': 5913.4000000059605, 'positionName': 'LEFT', 'positionCoords': [244.68, 178.5], 'bid': 7.92}, {'imgObject': {}, 'id': 'steak', 'src': '/static/foodstim60/steak.jpg', 'key': 'i', 'origWidth': 410, 'origHeight': 410, 'width': 410, 'height': 410, 'widthPercent': 0.45, 'rescaleHeight': False, 'trialN': 104, 'loaded': True, 'loadedTime': 6007.5, 'positionName': 'RIGHT', 'positionCoords': [710.32, 179], 'bid': 9.93}]",174538.5,1669848693483,corn cob,steak,7.92,9.93,2.01,steak,797.7000000178814,798,798.1000000238419,True,i,175870.0,1331.5,1669848694814,1331,HRV,HRV_0314,2022-11-30 22:53:30
105,"[{'imgObject': {}, 'id': 'pear', 'src': '/static/foodstim60/pear.jpg', 'key': 'u', 'origWidth': 411, 'origHeight': 410, 'width': 411, 'height': 410, 'widthPercent': 0.45, 'rescaleHeight': False, 'trialN': 105, 'loaded': True, 'loadedTime': 5673.100000023842, 'positionName': 'LEFT', 'positionCoords': [244.68, 179], 'bid': 5.24}, {'imgObject': {}, 'id': 'bagel and cc', 'src': '/static/foodstim60/bagel and cc.jpg', 'key': 'i', 'origWidth': 410, 'origHeight': 410, 'width': 410, 'height': 410, 'widthPercent': 0.45, 'rescaleHeight': False, 'trialN': 105, 'loaded': True, 'loadedTime': 6052.100000023842, 'positionName': 'RIGHT', 'positionCoords': [710.32, 179], 'bid': 8.3}]",175870.30000001192,1669848694815,pear,bagel and cc,5.24,8.3,3.0600000000000005,bagel and cc,746.5999999940395,747,747.0,True,i,177133.0,1262.699999988079,1669848696077,1262,HRV,HRV_0314,2022-11-30 22:53:30
106,"[{'imgObject': {}, 'id': 'salad w chicken', 'src': '/static/foodstim60/salad w chicken.jpg', 'key': 'u', 'origWidth': 411, 'origHeight': 411, 'width': 411, 'height': 411, 'widthPercent': 0.45, 'rescaleHeight': False, 'trialN': 106, 'loaded': True, 'loadedTime': 5477.700000017881, 'positionName': 'LEFT', 'positionCoords': [244.68, 178.5], 'bid': 8.700000000000001}, {'imgObject': {}, 'id': 'cheerios', 'src': '/static/foodstim60/cheerios.jpg', 'key': 'i', 'origWidth': 409, 'origHeight': 410, 'width': 409, 'height': 410, 'widthPercent': 0.45, 'rescaleHeight': False, 'trialN': 106, 'loaded': True, 'loadedTime': 6144.5, 'positionName': 'RIGHT', 'positionCoords': [710.32, 179], 'bid': 5.48}]",177133.20000001788,1669848696078,salad w chicken,cheerios,8.700000000000001,5.48,-3.2200000000000006,salad w chicken,636.2999999821186,637,637.0,True,u,178282.60000002384,1149.4000000059605,1669848697227,1149,HRV,HRV_0314,2022-11-30 22:53:30
107,"[{'imgObject': {}, 'id': 'cocktailshrimp', 'src': '/static/foodstim60/cocktailshrimp.jpg', 'key': 'u', 'origWidth': 410, 'origHeight': 410, 'width': 410, 'height': 410, 'widthPercent': 0.45, 'rescaleHeight': False, 'trialN': 107, 'loaded': True, 'loadedTime': 6112.5, 'positionName': 'LEFT', 'positionCoords': [245.68, 179], 'bid': 6.5200000000000005}, {'imgObject': {}, 'id': 'cherry tomato', 'src': '/static/foodstim60/cherry tomato.jpg', 'key': 'i', 'origWidth': 410, 'origHeight': 410, 'width': 410, 'height': 410, 'widthPercent': 0.45, 'rescaleHeight': False, 'trialN': 107, 'loaded': True, 'loadedTime': 4749.800000011921, 'positionName': 'RIGHT', 'positionCoords': [710.32, 179], 'bid': 6.47}]",178283.10000002384,1669848697227,cocktailshrimp,cherry tomato,6.5200000000000005,6.47,-0.05000000000000071,cocktailshrimp,1220.5,1222,1221.7999999821186,True,u,180014.5,1731.3999999761581,1669848698959,1732,HRV,HRV_0314,2022-11-30 22:53:30
