success,trial_type,trial_index,time_elapsed,internal_node_id,Block,TrialNumber,TrialTime,trialTimeDiff,FPS_avg,FPS_med,FPS_mode,TrialDur,winResizeTime,rt,block,button_pressed,MotCoh,MotDir,ColCoh,Color,ChoiceKey,Choice,Accuracy,RT,nFrames,FPS,PPD,missTrial,missTrialMsg,onsetDelay,fullScreenExitTime,canvCenter,TrialType,Score,BlockTrial,stimulus,button_labels,exp,subjectId,date
True,fullscreen,0,3063,0.0-0.0,0.0,1.0,,,,,,,,,,,,,,,,,,,,,,,,,,,,,,,,HRV,HRV_0314,2022-11-30 23:16:31
,wl-check-fps,1,8252,0.0-1.0,0.0,2.0,"[4817.6, 4818.9, 4828, 4869.6, 4876.7, 4894.7, 4912.1, 4928, 4945.1, 4962.5, 4978.4, 5002, 5011.7, 5028.6, 5043.9, 5062.6, 5077.5, 5093.6, 5111, 5126.7, 5143.6, 5162.5, 5176.8, 5194.8, 5212.2, 5229.2, 5244.4, 5263, 5282.2, 5293.6, 5311.6, 5327.4, 5343.9, 5360.2, 5391.8, 5394.6, 5447, 5451.2, 5461.4, 5477.6, 5493.9, 5512.1, 5527.9, 5543.3, 5563.5, 5576.8, 5593.1, 5609.9, 5626.5, 5643, 5659.8, 5676.4, 5692.9, 5709.8, 5726.3, 5743, 5761.6, 5786, 5792.8, 5809.5, 5827.2, 5844.2, 5862.1, 5876.3, 5893, 5911.9, 5926.4, 5945, 5960.9, 5977, 5994.4, 6010.6, 6027.8, 6042.9, 6064.3, 6077.4, 6093.6, 6112.4, 6127, 6142.9, 6163.7, 6176, 6192.4, 6211.5, 6226, 6242.3, 6261.5, 6275.7, 6292.2, 6312.2, 6325.7, 6342.3, 6359.2, 6375.8, 6392.7, 6409, 6428.4, 6442.2, 6459, 6475.7, 6492.2, 6508.8, 6525.6, 6542.1, 6559, 6575.8, 6592, 6608.7, 6625.4, 6641.8, 6658.6, 6675.4, 6691.9, 6708.6, 6725.5, 6742, 6758.5, 6776, 6791.9, 6808.4, 6825.1, 6842.5, 6859.1, 6875, 6891.7, 6908.4, 6925, 6945.1, 6958.3, 6974.9, 6991.9, 7009.8, 7025, 7041.8, 7058.3, 7074.9, 7091.6, 7108.4, 7124.9, 7141.7, 7158.2, 7174.8, 7191.6, 7208.1, 7225.6, 7241.4, 7258, 7274.7, 7291.3, 7308.4, 7324.8, 7341.5, 7358.6, 7374.7, 7391.4, 7408, 7424.6, 7441.2, 7458.5, 7474.5, 7491.2, 7507.9, 7524.5, 7542.4, 7559, 7574.7, 7591.1, 7607.9, 7627.6, 7644.1, 7657.7, 7674.4, 7691.7, 7707.6, 7724.4, 7741.9, 7757.6, 7774.5, 7795.3, 7808.3, 7824.2, 7841, 7857.5, 8046.8, 8057.6, 8074.2, 8091.2, 8108.6, 8124.8, 8142.2, 8157.9, 8175.9, 8193.3, 8207.8, 8224.2, 8242.2, 8257.4, 8274, 8291.1, 8307.3, 8324, 8342.2, 8358.8, 8374, 8391.8, 8407.7, 8427.5, 8443.8, 8462.1, 8476.9, 8494, 8514.6, 8528.7, 8548.4, 8559.5, 8575.3, 8594.3, 8608.6, 8625.1, 8642.1, 8658.7, 8675.9, 8692.8, 8708.4, 8725.6, 8747.8, 8759.7, 8779.1, 8792.9, 8812.3, 8827.7, 8846, 8858.5, 8877.3, 8892.3, 8909.9, 8924.5, 8941.8, 8956.9, 8974.3, 8992.3, 9012.9, 9031.1, 9042.8, 9061.3, 9075.6, 9093.4, 9107.6, 9127.4, 9143.2, 9156.4, 9173.1, 9190.5, 9206.5, 9223, 9241.1, 9259.4, 9273.8, 9291.2, 9306.5, 9323.2, 9339.6, 9356.4, 9372.8, 9390.3, 9406.1, 9422.8, 9439.8, 9456.4, 9472.8, 9489.7, 9507.3, 9523.4, 9540.4, 9556.2, 9572.7, 9590.3, 9606.2, 9622.5, 9641.2, 9657.8, 9674.4, 9692.1, 9706.3, 9723.6, 9739.9, 9757.2, 9775.2, 9793.5, 9806.1, 9822.6, 9839.5, 9856.1, 9873.5, 9891.7, 9908.7, 9924.5, 9942.2, 9960.2, 9973.1]","[5.8, 1.3, 9.1, 41.6, 7.1, 18, 17.4, 15.9, 17.1, 17.4, 15.9, 23.6, 9.7, 16.9, 15.3, 18.7, 14.9, 16.1, 17.4, 15.7, 16.9, 18.9, 14.3, 18, 17.4, 17, 15.2, 18.6, 19.2, 11.4, 18, 15.8, 16.5, 16.3, 31.6, 2.8, 52.4, 4.2, 10.2, 16.2, 16.3, 18.2, 15.8, 15.4, 20.2, 13.3, 16.3, 16.8, 16.6, 16.5, 16.8, 16.6, 16.5, 16.9, 16.5, 16.7, 18.6, 24.4, 6.8, 16.7, 17.7, 17, 17.9, 14.2, 16.7, 18.9, 14.5, 18.6, 15.9, 16.1, 17.4, 16.2, 17.2, 15.1, 21.4, 13.1, 16.2, 18.8, 14.6, 15.9, 20.8, 12.3, 16.4, 19.1, 14.5, 16.3, 19.2, 14.2, 16.5, 20, 13.5, 16.6, 16.9, 16.6, 16.9, 16.3, 19.4, 13.8, 16.8, 16.7, 16.5, 16.6, 16.8, 16.5, 16.9, 16.8, 16.2, 16.7, 16.7, 16.4, 16.8, 16.8, 16.5, 16.7, 16.9, 16.5, 16.5, 17.5, 15.9, 16.5, 16.7, 17.4, 16.6, 15.9, 16.7, 16.7, 16.6, 20.1, 13.2, 16.6, 17, 17.9, 15.2, 16.8, 16.5, 16.6, 16.7, 16.8, 16.5, 16.8, 16.5, 16.6, 16.8, 16.5, 17.5, 15.8, 16.6, 16.7, 16.6, 17.1, 16.4, 16.7, 17.1, 16.1, 16.7, 16.6, 16.6, 16.6, 17.3, 16, 16.7, 16.7, 16.6, 17.9, 16.6, 15.7, 16.4, 16.8, 19.7, 16.5, 13.6, 16.7, 17.3, 15.9, 16.8, 17.5, 15.7, 16.9, 20.8, 13, 15.9, 16.8, 16.5, 189.3, 10.8, 16.6, 17, 17.4, 16.2, 17.4, 15.7, 18, 17.4, 14.5, 16.4, 18, 15.2, 16.6, 17.1, 16.2, 16.7, 18.2, 16.6, 15.2, 17.8, 15.9, 19.8, 16.3, 18.3, 14.8, 17.1, 20.6, 14.1, 19.7, 11.1, 15.8, 19, 14.3, 16.5, 17, 16.6, 17.2, 16.9, 15.6, 17.2, 22.2, 11.9, 19.4, 13.8, 19.4, 15.4, 18.3, 12.5, 18.8, 15, 17.6, 14.6, 17.3, 15.1, 17.4, 18, 20.6, 18.2, 11.7, 18.5, 14.3, 17.8, 14.2, 19.8, 15.8, 13.2, 16.7, 17.4, 16, 16.5, 18.1, 18.3, 14.4, 17.4, 15.3, 16.7, 16.4, 16.8, 16.4, 17.5, 15.8, 16.7, 17, 16.6, 16.4, 16.9, 17.6, 16.1, 17, 15.8, 16.5, 17.6, 15.9, 16.3, 18.7, 16.6, 16.6, 17.7, 14.2, 17.3, 16.3, 17.3, 18, 18.3, 12.6, 16.5, 16.9, 16.6, 17.4, 18.2, 17, 15.8, 17.7, 18, 12.9]",58.0,60.0,60.0,5182.1,[],,,,,,,,,,,,,,,,,,,,,,,,,HRV,HRV_0314,2022-11-30 23:16:31
,wl-html-keyboard-response,2,30543,0.0-2.0-0.0,0.0,3.0,,,,,,,,20279.09999999404,0.0,0,,,,,,,,,,,,,,,,,,,,,,HRV,HRV_0314,2022-11-30 23:16:31
,wl-rdm,3,37036,0.0-3.0-0.0,0.0,4.0,,,,,,,[],,,,0.0,0.0,87.9,0.0,u,0.0,True,895.0000000298023,53.0,60.0,40.0,False,,3000.0,[],"[683, 384]",ColorTask_Demo,,,,,HRV,HRV_0314,2022-11-30 23:16:31
,wl-rdm,4,41983,0.0-3.0-1.0,0.0,5.0,,,,,,,[],,,,0.0,0.0,87.9,1.0,i,1.0,True,857.5,52.0,60.0,40.0,False,,2000.0,[],"[683, 384]",ColorTask_Demo,,,,,HRV,HRV_0314,2022-11-30 23:16:31
,wl-html-keyboard-response,5,47349,0.0-3.0-2.0,0.0,6.0,,,,,,,,3358.7000000178814,0.0,1,,,,,,,,,,,,,,,,,,,,,,HRV,HRV_0314,2022-11-30 23:16:31
,wl-html-keyboard-response,6,56928,0.0-4.0-0.0,0.0,7.0,,,,,,,,7571.4000000059605,0.0,0,,,,,,,,,,,,,,,,,,,,,,HRV,HRV_0314,2022-11-30 23:16:31
,wl-html-keyboard-response,7,66095,0.0-5.0-0.0,0.0,8.0,,,,,,,,7160.899999976158,0.0,0,,,,,,,,,,,,,,,,,,,,,,HRV,HRV_0314,2022-11-30 23:16:31
,wl-rdm,8,68223,0.0-6.0-0.0,0.0,9.0,,,,,,,[],,,,,,62.5,0.0,u,0.0,True,841.6999999880791,51.0,60.0,40.0,False,,210.4358364063517,[],"[683, 384]",ColorTask,1.0,1.0,,,HRV,HRV_0314,2022-11-30 23:16:31
,wl-rdm,9,70554,0.0-6.1-0.1,0.0,10.0,,,,,,,[],,,,,,53.2,1.0,i,1.0,True,886.9000000357628,54.0,60.0,40.0,False,,376.54408495782155,[],"[683, 384]",ColorTask,2.0,2.0,,,HRV,HRV_0314,2022-11-30 23:16:31
,wl-rdm,10,73320,0.0-6.2-0.2,0.0,11.0,,,,,,,[],,,,,,56.4,1.0,u,0.0,False,1326.0999999642372,80.0,60.0,40.0,False,,354.8628035087428,[],"[683, 384]",ColorTask,1.0,3.0,,,HRV,HRV_0314,2022-11-30 23:16:31
,wl-rdm,11,75719,0.0-6.3-0.3,0.0,12.0,,,,,,,[],,,,,,56.4,1.0,i,1.0,True,993.1999999880791,60.0,60.0,40.0,False,,300.1003797579272,[],"[683, 384]",ColorTask,2.0,4.0,,,HRV,HRV_0314,2022-11-30 23:16:31
,wl-rdm,12,78114,0.0-6.4-0.4,0.0,13.0,,,,,,,[],,,,,,73.6,0.0,u,0.0,True,1037.199999988079,63.0,60.0,40.0,False,,278.5790589001558,[],"[683, 384]",ColorTask,3.0,5.0,,,HRV,HRV_0314,2022-11-30 23:16:31
,wl-rdm,13,80232,0.0-6.5-0.5,0.0,14.0,,,,,,,[],,,,,,62.5,1.0,i,1.0,True,738.0000000298023,45.0,60.0,40.0,False,,326.62563571240696,[],"[683, 384]",ColorTask,4.0,6.0,,,HRV,HRV_0314,2022-11-30 23:16:31
,wl-rdm,14,82293,0.0-6.6-0.6,0.0,15.0,,,,,,,[],,,,,,50.0,1.0,u,0.0,False,753.7000000178814,46.0,60.0,40.0,False,,212.31826023343433,[],"[683, 384]",ColorTask,3.0,7.0,,,HRV,HRV_0314,2022-11-30 23:16:31
,wl-rdm,15,84926,0.0-6.7-0.7,0.0,16.0,,,,,,,[],,,,,,50.0,0.0,i,1.0,False,1231.5999999940395,73.0,60.0,40.0,False,,319.075248681992,[],"[683, 384]",ColorTask,2.0,8.0,,,HRV,HRV_0314,2022-11-30 23:16:31
,wl-rdm,16,87821,0.0-6.8-0.8,0.0,17.0,,,,,,,[],,,,,,62.5,1.0,i,1.0,True,1578.4000000357628,95.0,60.0,40.0,False,,246.80175714033695,[],"[683, 384]",ColorTask,3.0,9.0,,,HRV,HRV_0314,2022-11-30 23:16:31
,wl-rdm,17,90136,0.0-6.9-0.9,0.0,18.0,,,,,,,[],,,,,,56.4,1.0,i,1.0,True,914.1999999880791,55.0,60.0,40.0,False,,342.9917555754896,[],"[683, 384]",ColorTask,4.0,10.0,,,HRV,HRV_0314,2022-11-30 23:16:31
,wl-rdm,18,92184,0.0-6.10-0.10,0.0,19.0,,,,,,,[],,,,,,87.9,1.0,i,1.0,True,707.6999999880791,44.0,60.0,40.0,False,,256.7751456481748,[],"[683, 384]",ColorTask,5.0,11.0,,,HRV,HRV_0314,2022-11-30 23:16:31
,wl-rdm,19,94249,0.0-6.11-0.11,0.0,20.0,,,,,,,[],,,,,,73.6,0.0,u,0.0,True,787.9000000059605,46.0,60.0,40.0,False,,202.68637529714695,[],"[683, 384]",ColorTask,6.0,12.0,,,HRV,HRV_0314,2022-11-30 23:16:31
,wl-rdm,20,96531,0.0-6.12-0.12,0.0,21.0,,,,,,,[],,,,,,73.6,0.0,u,0.0,True,789.0999999940395,48.0,60.0,40.0,False,,397.34737449515444,[],"[683, 384]",ColorTask,7.0,13.0,,,HRV,HRV_0314,2022-11-30 23:16:31
,wl-rdm,21,98512,0.0-6.13-0.13,0.0,22.0,,,,,,,[],,,,,,62.5,0.0,u,0.0,True,687.4000000059605,42.0,60.0,40.0,False,,205.879301600858,[],"[683, 384]",ColorTask,8.0,14.0,,,HRV,HRV_0314,2022-11-30 23:16:31
,wl-rdm,22,100660,0.0-6.14-0.14,0.0,23.0,,,,,,,[],,,,,,53.2,0.0,u,0.0,True,771.5999999940395,47.0,60.0,40.0,False,,291.13346758002035,[],"[683, 384]",ColorTask,9.0,15.0,,,HRV,HRV_0314,2022-11-30 23:16:31
,wl-rdm,23,103141,0.0-6.15-0.15,0.0,24.0,,,,,,,[],,,,,,56.4,0.0,u,0.0,True,1109.4000000357628,67.0,60.0,40.0,False,,290.9287399259178,[],"[683, 384]",ColorTask,10.0,16.0,,,HRV,HRV_0314,2022-11-30 23:16:31
,wl-rdm,24,105040,0.0-6.16-0.16,0.0,25.0,,,,,,,[],,,,,,73.6,0.0,u,0.0,True,625.1000000238419,38.0,60.0,40.0,False,,212.43800959506146,[],"[683, 384]",ColorTask,11.0,17.0,,,HRV,HRV_0314,2022-11-30 23:16:31
,wl-rdm,25,106887,0.0-6.17-0.17,0.0,26.0,,,,,,,[],,,,,,50.0,0.0,u,0.0,True,541.1999999880791,33.0,60.0,40.0,False,,227.76889072107178,[],"[683, 384]",ColorTask,12.0,18.0,,,HRV,HRV_0314,2022-11-30 23:16:31
,wl-rdm,26,108821,0.0-6.18-0.18,0.0,27.0,,,,,,,[],,,,,,62.5,1.0,u,0.0,False,636.0999999940395,38.0,60.0,40.0,False,,219.67213320415453,[],"[683, 384]",ColorTask,11.0,19.0,,,HRV,HRV_0314,2022-11-30 23:16:31
,wl-rdm,27,110967,0.0-6.19-0.19,0.0,28.0,,,,,,,[],,,,,,50.0,1.0,u,0.0,False,877.2999999821186,53.0,60.0,40.0,False,,208.7529309023946,[],"[683, 384]",ColorTask,10.0,20.0,,,HRV,HRV_0314,2022-11-30 23:16:31
,wl-rdm,28,112965,0.0-6.20-0.20,0.0,29.0,,,,,,,[],,,,,,53.2,1.0,i,1.0,True,642.1999999880791,39.0,60.0,40.0,False,,267.65290370854024,[],"[683, 384]",ColorTask,11.0,21.0,,,HRV,HRV_0314,2022-11-30 23:16:31
,wl-rdm,29,114979,0.0-6.21-0.21,0.0,30.0,,,,,,,[],,,,,,73.6,1.0,i,1.0,True,579.5000000298023,35.0,60.0,40.0,False,,365.0841899379233,[],"[683, 384]",ColorTask,12.0,22.0,,,HRV,HRV_0314,2022-11-30 23:16:31
,wl-rdm,30,116895,0.0-6.22-0.22,0.0,31.0,,,,,,,[],,,,,,62.5,1.0,i,1.0,True,615.0,37.0,60.0,40.0,False,,228.9159764780981,[],"[683, 384]",ColorTask,13.0,23.0,,,HRV,HRV_0314,2022-11-30 23:16:31
,wl-rdm,31,118909,0.0-6.23-0.23,0.0,32.0,,,,,,,[],,,,,,50.0,0.0,i,1.0,False,623.8000000119209,38.0,60.0,40.0,False,,304.02407465242186,[],"[683, 384]",ColorTask,12.0,24.0,,,HRV,HRV_0314,2022-11-30 23:16:31
,wl-rdm,32,121641,0.0-6.24-0.24,0.0,33.0,,,,,,,[],,,,,,62.5,1.0,i,1.0,True,1435.199999988079,87.0,60.0,40.0,False,,225.36820502937786,[],"[683, 384]",ColorTask,13.0,25.0,,,HRV,HRV_0314,2022-11-30 23:16:31
,wl-rdm,33,123871,0.0-6.25-0.25,0.0,34.0,,,,,,,[],,,,,,73.6,0.0,u,0.0,True,821.5,50.0,60.0,40.0,False,,327.9524278350989,[],"[683, 384]",ColorTask,14.0,26.0,,,HRV,HRV_0314,2022-11-30 23:16:31
,wl-rdm,34,125803,0.0-6.26-0.26,0.0,35.0,,,,,,,[],,,,,,56.4,0.0,u,0.0,True,573.1999999880791,35.0,60.0,40.0,False,,279.4262389951642,[],"[683, 384]",ColorTask,15.0,27.0,,,HRV,HRV_0314,2022-11-30 23:16:31
,wl-rdm,35,128184,0.0-6.27-0.27,0.0,36.0,,,,,,,[],,,,,,73.6,1.0,i,1.0,True,1023.8000000119209,61.0,60.0,40.0,False,,271.66545606788895,[],"[683, 384]",ColorTask,16.0,28.0,,,HRV,HRV_0314,2022-11-30 23:16:31
,wl-rdm,36,130216,0.0-6.28-0.28,0.0,37.0,,,,,,,[],,,,,,73.6,1.0,i,1.0,True,574.0,35.0,60.0,40.0,False,,366.96713686777514,[],"[683, 384]",ColorTask,17.0,29.0,,,HRV,HRV_0314,2022-11-30 23:16:31
,wl-rdm,37,132763,0.0-6.29-0.29,0.0,38.0,,,,,,,[],,,,,,50.0,0.0,i,1.0,False,1181.5999999940395,68.0,60.0,40.0,False,,294.6214371743103,[],"[683, 384]",ColorTask,16.0,30.0,,,HRV,HRV_0314,2022-11-30 23:16:31
,wl-rdm,38,134947,0.0-6.30-0.30,0.0,39.0,,,,,,,[],,,,,,53.2,0.0,u,0.0,True,829.4000000059605,50.0,60.0,40.0,False,,279.22920832480565,[],"[683, 384]",ColorTask,17.0,31.0,,,HRV,HRV_0314,2022-11-30 23:16:31
,wl-rdm,39,136893,0.0-6.31-0.31,0.0,40.0,,,,,,,[],,,,,,56.4,0.0,u,0.0,True,548.5000000298023,33.0,60.0,40.0,False,,249.12744566642658,[],"[683, 384]",ColorTask,18.0,32.0,,,HRV,HRV_0314,2022-11-30 23:16:31
,wl-rdm,40,138840,0.0-6.32-0.32,0.0,41.0,,,,,,,[],,,,,,87.9,0.0,u,0.0,True,514.8000000417233,31.0,60.0,40.0,False,,354.7707571196941,[],"[683, 384]",ColorTask,19.0,33.0,,,HRV,HRV_0314,2022-11-30 23:16:31
,wl-rdm,41,140755,0.0-6.33-0.33,0.0,42.0,,,,,,,[],,,,,,56.4,0.0,u,0.0,True,569.6999999880791,35.0,60.0,40.0,False,,249.32315262988465,[],"[683, 384]",ColorTask,20.0,34.0,,,HRV,HRV_0314,2022-11-30 23:16:31
,wl-rdm,42,142772,0.0-6.34-0.34,0.0,43.0,,,,,,,[],,,,,,87.9,1.0,i,1.0,True,588.7999999821186,35.0,60.0,40.0,False,,338.98474818367185,[],"[683, 384]",ColorTask,21.0,35.0,,,HRV,HRV_0314,2022-11-30 23:16:31
,wl-rdm,43,145037,0.0-6.35-0.35,0.0,44.0,,,,,,,[],,,,,,73.6,0.0,u,0.0,True,835.7999999821186,50.0,60.0,40.0,False,,361.74453589500024,[],"[683, 384]",ColorTask,22.0,36.0,,,HRV,HRV_0314,2022-11-30 23:16:31
,wl-rdm,44,147316,0.0-6.36-0.36,0.0,45.0,,,,,,,[],,,,,,50.0,0.0,i,1.0,False,877.0,53.0,60.0,40.0,False,,321.5138605268114,[],"[683, 384]",ColorTask,21.0,37.0,,,HRV,HRV_0314,2022-11-30 23:16:31
,wl-rdm,45,149330,0.0-6.37-0.37,0.0,46.0,,,,,,,[],,,,,,73.6,1.0,i,1.0,True,705.5999999940395,43.0,60.0,40.0,False,,232.5899596602327,[],"[683, 384]",ColorTask,22.0,38.0,,,HRV,HRV_0314,2022-11-30 23:16:31
,wl-rdm,46,151995,0.0-6.38-0.38,0.0,47.0,,,,,,,[],,,,,,50.0,1.0,u,0.0,False,1368.6000000238419,83.0,60.0,40.0,False,,207.26679753601516,[],"[683, 384]",ColorTask,21.0,39.0,,,HRV,HRV_0314,2022-11-30 23:16:31
,wl-rdm,47,154259,0.0-6.39-0.39,0.0,48.0,,,,,,,[],,,,,,87.9,0.0,u,0.0,True,909.5000000298023,55.0,60.0,40.0,False,,269.9710397292705,[],"[683, 384]",ColorTask,22.0,40.0,,,HRV,HRV_0314,2022-11-30 23:16:31
,wl-rdm,48,156424,0.0-6.40-0.40,0.0,49.0,,,,,,,[],,,,,,50.0,0.0,i,1.0,False,766.4000000059605,46.0,60.0,40.0,False,,325.21199170479485,[],"[683, 384]",ColorTask,21.0,41.0,,,HRV,HRV_0314,2022-11-30 23:16:31
,wl-rdm,49,159171,0.0-6.41-0.41,0.0,50.0,,,,,,,[],,,,,,53.2,1.0,u,0.0,False,1323.9000000059605,80.0,60.0,40.0,False,,349.13945688898843,[],"[683, 384]",ColorTask,20.0,42.0,,,HRV,HRV_0314,2022-11-30 23:16:31
,wl-rdm,50,161393,0.0-6.42-0.42,0.0,51.0,,,,,,,[],,,,,,73.6,1.0,i,1.0,True,875.2999999821186,53.0,60.0,40.0,False,,259.23590745951765,[],"[683, 384]",ColorTask,21.0,43.0,,,HRV,HRV_0314,2022-11-30 23:16:31
,wl-rdm,51,163384,0.0-6.43-0.43,0.0,52.0,,,,,,,[],,,,,,87.9,0.0,u,0.0,True,657.9000000059605,39.0,60.0,40.0,False,,215.56600746606375,[],"[683, 384]",ColorTask,22.0,44.0,,,HRV,HRV_0314,2022-11-30 23:16:31
,wl-rdm,52,165382,0.0-6.44-0.44,0.0,53.0,,,,,,,[],,,,,,53.2,0.0,u,0.0,True,697.8000000119209,42.0,60.0,40.0,False,,219.61486719941743,[],"[683, 384]",ColorTask,23.0,45.0,,,HRV,HRV_0314,2022-11-30 23:16:31
,wl-rdm,53,167397,0.0-6.45-0.45,0.0,54.0,,,,,,,[],,,,,,62.5,0.0,u,0.0,True,631.5999999940395,38.0,60.0,40.0,False,,300.85948231189,[],"[683, 384]",ColorTask,24.0,46.0,,,HRV,HRV_0314,2022-11-30 23:16:31
,wl-rdm,54,169530,0.0-6.46-0.46,0.0,55.0,,,,,,,[],,,,,,53.2,0.0,i,1.0,False,822.2999999821186,50.0,60.0,40.0,False,,223.7474858778453,[],"[683, 384]",ColorTask,23.0,47.0,,,HRV,HRV_0314,2022-11-30 23:16:31
,wl-rdm,55,171694,0.0-6.47-0.47,0.0,56.0,,,,,,,[],,,,,,53.2,1.0,u,0.0,False,810.2999999821186,49.0,60.0,40.0,False,,291.66893090471444,[],"[683, 384]",ColorTask,22.0,48.0,,,HRV,HRV_0314,2022-11-30 23:16:31
,wl-rdm,56,173958,0.0-6.48-0.48,0.0,57.0,,,,,,,[],,,,,,62.5,0.0,i,1.0,False,871.8999999761581,51.0,60.0,40.0,False,,314.76577847741703,[],"[683, 384]",ColorTask,21.0,49.0,,,HRV,HRV_0314,2022-11-30 23:16:31
,wl-rdm,57,176076,0.0-6.49-0.49,0.0,58.0,,,,,,,[],,,,,,87.9,1.0,i,1.0,True,709.7000000178814,43.0,60.0,40.0,False,,297.18354174060335,[],"[683, 384]",ColorTask,22.0,50.0,,,HRV,HRV_0314,2022-11-30 23:16:31
,wl-rdm,58,178553,0.0-6.50-0.50,0.0,59.0,,,,,,,[],,,,,,53.2,1.0,u,0.0,False,1132.2999999821186,67.0,60.0,40.0,False,,279.38514068803545,[],"[683, 384]",ColorTask,21.0,51.0,,,HRV,HRV_0314,2022-11-30 23:16:31
,wl-rdm,59,181001,0.0-6.51-0.51,0.0,60.0,,,,,,,[],,,,,,56.4,1.0,u,0.0,False,1115.3999999761581,67.0,60.0,40.0,False,,261.6791427620996,[],"[683, 384]",ColorTask,20.0,52.0,,,HRV,HRV_0314,2022-11-30 23:16:31
,wl-rdm,60,183166,0.0-6.52-0.52,0.0,61.0,,,,,,,[],,,,,,56.4,0.0,u,0.0,True,815.6999999880791,49.0,60.0,40.0,False,,253.45101837244272,[],"[683, 384]",ColorTask,21.0,53.0,,,HRV,HRV_0314,2022-11-30 23:16:31
,wl-rdm,61,185530,0.0-6.53-0.53,0.0,62.0,,,,,,,[],,,,,,53.2,0.0,i,1.0,False,892.7000000178814,54.0,60.0,40.0,False,,398.11340502289795,[],"[683, 384]",ColorTask,20.0,54.0,,,HRV,HRV_0314,2022-11-30 23:16:31
,wl-rdm,62,187894,0.0-6.54-0.54,0.0,63.0,,,,,,,[],,,,,,50.0,1.0,u,0.0,False,925.7000000178814,56.0,60.0,40.0,False,,355.51273999886655,[],"[683, 384]",ColorTask,19.0,55.0,,,HRV,HRV_0314,2022-11-30 23:16:31
,wl-rdm,63,190192,0.0-6.55-0.55,0.0,64.0,,,,,,,[],,,,,,50.0,1.0,i,1.0,True,943.0,57.0,60.0,40.0,False,,267.517731064185,[],"[683, 384]",ColorTask,20.0,56.0,,,HRV,HRV_0314,2022-11-30 23:16:31
,wl-rdm,64,192457,0.0-6.56-0.56,0.0,65.0,,,,,,,[],,,,,,50.0,0.0,i,1.0,False,872.0,51.0,60.0,40.0,False,,306.0995676136089,[],"[683, 384]",ColorTask,19.0,57.0,,,HRV,HRV_0314,2022-11-30 23:16:31
,wl-rdm,65,194938,0.0-6.57-0.57,0.0,66.0,,,,,,,[],,,,,,62.5,0.0,i,1.0,False,1003.9999999701977,61.0,60.0,40.0,False,,383.3799861569039,[],"[683, 384]",ColorTask,18.0,58.0,,,HRV,HRV_0314,2022-11-30 23:16:31
,wl-rdm,66,197021,0.0-6.58-0.58,0.0,67.0,,,,,,,[],,,,,,53.2,0.0,u,0.0,True,709.5000000298023,43.0,60.0,40.0,False,,304.86645423663606,[],"[683, 384]",ColorTask,19.0,59.0,,,HRV,HRV_0314,2022-11-30 23:16:31
,wl-rdm,67,199534,0.0-6.59-0.59,0.0,68.0,,,,,,,[],,,,,,53.2,1.0,i,1.0,True,1223.0999999940395,73.0,60.0,40.0,False,,204.92057629182227,[],"[683, 384]",ColorTask,20.0,60.0,,,HRV,HRV_0314,2022-11-30 23:16:31
,wl-rdm,68,201484,0.0-6.60-0.60,0.0,69.0,,,,,,,[],,,,,,87.9,1.0,i,1.0,True,672.0999999940395,40.0,60.0,40.0,False,,208.5810946532922,[],"[683, 384]",ColorTask,21.0,61.0,,,HRV,HRV_0314,2022-11-30 23:16:31
,wl-rdm,69,203583,0.0-6.61-0.61,0.0,70.0,,,,,,,[],,,,,,87.9,0.0,u,0.0,True,724.8999999761581,44.0,60.0,40.0,False,,289.90484717518206,[],"[683, 384]",ColorTask,22.0,62.0,,,HRV,HRV_0314,2022-11-30 23:16:31
,wl-rdm,70,205712,0.0-6.62-0.62,0.0,71.0,,,,,,,[],,,,,,87.9,0.0,u,0.0,True,774.4999999701977,47.0,60.0,40.0,False,,277.8412237821454,[],"[683, 384]",ColorTask,23.0,63.0,,,HRV,HRV_0314,2022-11-30 23:16:31
,wl-rdm,71,207826,0.0-6.63-0.63,0.0,72.0,,,,,,,[],,,,,,56.4,0.0,i,1.0,False,808.0,49.0,60.0,40.0,False,,218.65676084790337,[],"[683, 384]",ColorTask,22.0,64.0,,,HRV,HRV_0314,2022-11-30 23:16:31
,wl-rdm,72,210241,0.0-6.64-0.64,0.0,73.0,,,,,,,[],,,,,,56.4,0.0,i,1.0,False,1052.199999988079,64.0,60.0,40.0,False,,276.96710040869584,[],"[683, 384]",ColorTask,21.0,65.0,,,HRV,HRV_0314,2022-11-30 23:16:31
,wl-rdm,73,212240,0.0-6.65-0.65,0.0,74.0,,,,,,,[],,,,,,53.2,0.0,i,1.0,False,655.4000000059605,40.0,60.0,40.0,False,,266.02750746647376,[],"[683, 384]",ColorTask,20.0,66.0,,,HRV,HRV_0314,2022-11-30 23:16:31
,wl-rdm,74,214254,0.0-6.66-0.66,0.0,75.0,,,,,,,[],,,,,,73.6,0.0,u,0.0,True,680.6000000238419,41.0,60.0,40.0,False,,256.07064294359395,[],"[683, 384]",ColorTask,21.0,67.0,,,HRV,HRV_0314,2022-11-30 23:16:31
,wl-rdm,75,216419,0.0-6.67-0.67,0.0,76.0,,,,,,,[],,,,,,53.2,1.0,i,1.0,True,770.9999999701977,47.0,60.0,40.0,False,,283.4275129717859,[],"[683, 384]",ColorTask,22.0,68.0,,,HRV,HRV_0314,2022-11-30 23:16:31
,wl-rdm,76,218433,0.0-6.68-0.68,0.0,77.0,,,,,,,[],,,,,,87.9,0.0,u,0.0,True,745.7999999821186,45.0,60.0,40.0,False,,200.70041655894966,[],"[683, 384]",ColorTask,23.0,69.0,,,HRV,HRV_0314,2022-11-30 23:16:31
,wl-rdm,77,220752,0.0-6.69-0.69,0.0,78.0,,,,,,,[],,,,,,53.2,0.0,i,1.0,False,889.7000000178814,54.0,60.0,40.0,False,,339.31382064430744,[],"[683, 384]",ColorTask,22.0,70.0,,,HRV,HRV_0314,2022-11-30 23:16:31
,wl-rdm,78,222879,0.0-6.70-0.70,0.0,79.0,,,,,,,[],,,,,,73.6,1.0,i,1.0,True,834.0999999940395,50.0,60.0,40.0,False,,228.65408398225486,[],"[683, 384]",ColorTask,23.0,71.0,,,HRV,HRV_0314,2022-11-30 23:16:31
,wl-rdm,79,225013,0.0-6.71-0.71,0.0,80.0,,,,,,,[],,,,,,50.0,1.0,u,0.0,False,716.7999999821186,43.0,60.0,40.0,False,,347.5583487283824,[],"[683, 384]",ColorTask,22.0,72.0,,,HRV,HRV_0314,2022-11-30 23:16:31
,wl-rdm,80,227192,0.0-6.72-0.72,0.0,81.0,,,,,,,[],,,,,,73.6,0.0,u,0.0,True,718.0,43.0,60.0,40.0,False,,386.563299304295,[],"[683, 384]",ColorTask,23.0,73.0,,,HRV,HRV_0314,2022-11-30 23:16:31
,wl-rdm,81,229279,0.0-6.73-0.73,0.0,82.0,,,,,,,[],,,,,,87.9,1.0,i,1.0,True,764.4000000357628,46.0,60.0,40.0,False,,260.71711281572357,[],"[683, 384]",ColorTask,24.0,74.0,,,HRV,HRV_0314,2022-11-30 23:16:31
,wl-rdm,82,231726,0.0-6.74-0.74,0.0,83.0,,,,,,,[],,,,,,50.0,1.0,u,0.0,False,1010.5,61.0,60.0,40.0,False,,343.0168985411965,[],"[683, 384]",ColorTask,23.0,75.0,,,HRV,HRV_0314,2022-11-30 23:16:31
,wl-rdm,83,233788,0.0-6.75-0.75,0.0,84.0,,,,,,,[],,,,,,53.2,1.0,u,0.0,False,750.9000000059605,45.0,60.0,40.0,False,,217.46685392128504,[],"[683, 384]",ColorTask,22.0,76.0,,,HRV,HRV_0314,2022-11-30 23:16:31
,wl-rdm,84,236000,0.0-6.76-0.76,0.0,85.0,,,,,,,[],,,,,,56.4,1.0,i,1.0,True,855.4000000357628,52.0,60.0,40.0,False,,273.2758228548533,[],"[683, 384]",ColorTask,23.0,77.0,,,HRV,HRV_0314,2022-11-30 23:16:31
,wl-rdm,85,237998,0.0-6.77-0.77,0.0,86.0,,,,,,,[],,,,,,87.9,1.0,i,1.0,True,603.6999999880791,37.0,60.0,40.0,False,,317.23885429295166,[],"[683, 384]",ColorTask,24.0,78.0,,,HRV,HRV_0314,2022-11-30 23:16:31
,wl-rdm,86,240280,0.0-6.78-0.78,0.0,87.0,,,,,,,[],,,,,,50.0,1.0,u,0.0,False,866.5999999940395,52.0,60.0,40.0,False,,349.06653929465006,[],"[683, 384]",ColorTask,23.0,79.0,,,HRV,HRV_0314,2022-11-30 23:16:31
,wl-rdm,87,242394,0.0-6.79-0.79,0.0,88.0,,,,,,,[],,,,,,53.2,1.0,i,1.0,True,688.0,42.0,60.0,40.0,False,,348.69090889484653,[],"[683, 384]",ColorTask,24.0,80.0,,,HRV,HRV_0314,2022-11-30 23:16:31
,wl-rdm,88,244643,0.0-6.80-0.80,0.0,89.0,,,,,,,[],,,,,,62.5,0.0,i,1.0,False,837.1999999880791,51.0,60.0,40.0,False,,313.0649189879684,[],"[683, 384]",ColorTask,23.0,81.0,,,HRV,HRV_0314,2022-11-30 23:16:31
,wl-rdm,89,247206,0.0-6.81-0.81,0.0,90.0,,,,,,,[],,,,,,62.5,1.0,i,1.0,True,1262.7999999821186,76.0,60.0,40.0,False,,229.01739491945156,[],"[683, 384]",ColorTask,24.0,82.0,,,HRV,HRV_0314,2022-11-30 23:16:31
,wl-rdm,90,249172,0.0-6.82-0.82,0.0,91.0,,,,,,,[],,,,,,56.4,0.0,u,0.0,True,665.3000000119209,40.0,60.0,40.0,False,,231.9528720210212,[],"[683, 384]",ColorTask,25.0,83.0,,,HRV,HRV_0314,2022-11-30 23:16:31
,wl-rdm,91,251374,0.0-6.83-0.83,0.0,92.0,,,,,,,[],,,,,,62.5,0.0,u,0.0,True,887.8000000119209,54.0,60.0,40.0,False,,232.3138235939091,[],"[683, 384]",ColorTask,26.0,84.0,,,HRV,HRV_0314,2022-11-30 23:16:31
,wl-rdm,92,253417,0.0-6.84-0.84,0.0,93.0,,,,,,,[],,,,,,73.6,1.0,i,1.0,True,719.5999999940395,44.0,60.0,40.0,False,,239.46707946562776,[],"[683, 384]",ColorTask,27.0,85.0,,,HRV,HRV_0314,2022-11-30 23:16:31
,wl-rdm,93,255666,0.0-6.85-0.85,0.0,94.0,,,,,,,[],,,,,,56.4,1.0,i,1.0,True,805.4000000059605,47.0,60.0,40.0,False,,375.0212411035549,[],"[683, 384]",ColorTask,28.0,86.0,,,HRV,HRV_0314,2022-11-30 23:16:31
,wl-rdm,94,258282,0.0-6.86-0.86,0.0,95.0,,,,,,,[],,,,,,56.4,1.0,u,0.0,False,1274.9999999701977,77.0,60.0,40.0,False,,217.27833611684414,[],"[683, 384]",ColorTask,27.0,87.0,,,HRV,HRV_0314,2022-11-30 23:16:31
,wl-rdm,95,260427,0.0-6.87-0.87,0.0,96.0,,,,,,,[],,,,,,56.4,0.0,u,0.0,True,808.1999999880791,46.0,60.0,40.0,False,,281.28551893073495,[],"[683, 384]",ColorTask,28.0,88.0,,,HRV,HRV_0314,2022-11-30 23:16:31
,wl-rdm,96,262728,0.0-6.88-0.88,0.0,97.0,,,,,,,[],,,,,,50.0,1.0,i,1.0,True,1023.9000000357628,62.0,60.0,40.0,False,,211.67654032357765,[],"[683, 384]",ColorTask,29.0,89.0,,,HRV,HRV_0314,2022-11-30 23:16:31
,wl-rdm,97,264956,0.0-6.89-0.89,0.0,98.0,,,,,,,[],,,,,,87.9,1.0,u,0.0,False,894.4999999701977,54.0,60.0,40.0,False,,247.4103949802209,[],"[683, 384]",ColorTask,28.0,90.0,,,HRV,HRV_0314,2022-11-30 23:16:31
,wl-rdm,98,267339,0.0-6.90-0.90,0.0,99.0,,,,,,,[],,,,,,62.5,1.0,i,1.0,True,1103.2000000178814,67.0,60.0,40.0,False,,214.76184088586697,[],"[683, 384]",ColorTask,29.0,91.0,,,HRV,HRV_0314,2022-11-30 23:16:31
,wl-rdm,99,269486,0.0-6.91-0.91,0.0,100.0,,,,,,,[],,,,,,50.0,0.0,i,1.0,False,844.0,51.0,60.0,40.0,False,,236.91182681649133,[],"[683, 384]",ColorTask,28.0,92.0,,,HRV,HRV_0314,2022-11-30 23:16:31
,wl-rdm,100,272418,0.0-6.92-0.92,0.0,101.0,,,,,,,[],,,,,,62.5,0.0,u,0.0,True,1462.3999999761581,88.0,60.0,40.0,False,,351.42960410640626,[],"[683, 384]",ColorTask,29.0,93.0,,,HRV,HRV_0314,2022-11-30 23:16:31
,wl-rdm,101,274549,0.0-6.93-0.93,0.0,102.0,,,,,,,[],,,,,,87.9,1.0,i,1.0,True,834.3999999761581,51.0,60.0,40.0,False,,201.31665391593705,[],"[683, 384]",ColorTask,30.0,94.0,,,HRV,HRV_0314,2022-11-30 23:16:31
,wl-rdm,102,276862,0.0-6.94-0.94,0.0,103.0,,,,,,,[],,,,,,87.9,0.0,u,0.0,True,852.5999999940395,53.0,60.0,40.0,False,,371.30927917382047,[],"[683, 384]",ColorTask,31.0,95.0,,,HRV,HRV_0314,2022-11-30 23:16:31
,wl-rdm,103,278993,0.0-6.95-0.95,0.0,104.0,,,,,,,[],,,,,,87.9,1.0,i,1.0,True,785.9000000059605,48.0,60.0,40.0,False,,252.0134693047776,[],"[683, 384]",ColorTask,32.0,96.0,,,HRV,HRV_0314,2022-11-30 23:16:31
,wl-rdm,104,281092,0.0-6.96-0.96,0.0,105.0,,,,,,,[],,,,,,87.9,0.0,u,0.0,True,703.9000000059605,43.0,60.0,40.0,False,,301.9125908607033,[],"[683, 384]",ColorTask,33.0,97.0,,,HRV,HRV_0314,2022-11-30 23:16:31
,wl-rdm,105,283273,0.0-6.97-0.97,0.0,106.0,,,,,,,[],,,,,,62.5,1.0,i,1.0,True,806.0,49.0,60.0,40.0,False,,284.82645484697105,[],"[683, 384]",ColorTask,34.0,98.0,,,HRV,HRV_0314,2022-11-30 23:16:31
,wl-rdm,106,285487,0.0-6.98-0.98,0.0,107.0,,,,,,,[],,,,,,50.0,0.0,i,1.0,False,869.8000000119209,53.0,60.0,40.0,False,,261.25747893942116,[],"[683, 384]",ColorTask,33.0,99.0,,,HRV,HRV_0314,2022-11-30 23:16:31
,wl-rdm,107,287802,0.0-6.99-0.99,0.0,108.0,,,,,,,[],,,,,,62.5,1.0,i,1.0,True,1002.0999999940395,61.0,60.0,40.0,False,,223.25346359157484,[],"[683, 384]",ColorTask,34.0,100.0,,,HRV,HRV_0314,2022-11-30 23:16:31
,wl-rdm,108,289893,0.0-6.100-0.100,0.0,109.0,,,,,,,[],,,,,,73.6,0.0,u,0.0,True,672.3000000119209,41.0,60.0,40.0,False,,333.0266455388763,[],"[683, 384]",ColorTask,35.0,101.0,,,HRV,HRV_0314,2022-11-30 23:16:31
,wl-rdm,109,291915,0.0-6.101-0.101,0.0,110.0,,,,,,,[],,,,,,73.6,1.0,i,1.0,True,655.5,40.0,60.0,40.0,False,,292.48905509826375,[],"[683, 384]",ColorTask,36.0,102.0,,,HRV,HRV_0314,2022-11-30 23:16:31
,wl-rdm,110,294412,0.0-6.102-0.102,0.0,111.0,,,,,,,[],,,,,,62.5,0.0,u,0.0,True,1096.5999999940395,66.0,60.0,40.0,False,,317.2604668512048,[],"[683, 384]",ColorTask,37.0,103.0,,,HRV,HRV_0314,2022-11-30 23:16:31
,wl-rdm,111,296461,0.0-6.103-0.103,0.0,112.0,,,,,,,[],,,,,,56.4,1.0,i,1.0,True,738.0999999940395,45.0,60.0,40.0,False,,221.12083770704098,[],"[683, 384]",ColorTask,38.0,104.0,,,HRV,HRV_0314,2022-11-30 23:16:31
,wl-rdm,112,298610,0.0-6.104-0.104,0.0,113.0,,,,,,,[],,,,,,56.4,1.0,i,1.0,True,760.4000000059605,47.0,60.0,40.0,False,,220.77743967896268,[],"[683, 384]",ColorTask,39.0,105.0,,,HRV,HRV_0314,2022-11-30 23:16:31
,wl-rdm,113,300723,0.0-6.105-0.105,0.0,114.0,,,,,,,[],,,,,,73.6,1.0,i,1.0,True,739.3000000417233,44.0,60.0,40.0,False,,304.61013347465365,[],"[683, 384]",ColorTask,40.0,106.0,,,HRV,HRV_0314,2022-11-30 23:16:31
,wl-rdm,114,302688,0.0-6.106-0.106,0.0,115.0,,,,,,,[],,,,,,87.9,0.0,u,0.0,True,678.0999999940395,41.0,60.0,40.0,False,,201.59430267065963,[],"[683, 384]",ColorTask,41.0,107.0,,,HRV,HRV_0314,2022-11-30 23:16:31
,wl-rdm,115,304987,0.0-6.107-0.107,0.0,116.0,,,,,,,[],,,,,,53.2,0.0,i,1.0,False,929.0999999940395,57.0,60.0,40.0,False,,269.9840414101917,[],"[683, 384]",ColorTask,40.0,108.0,,,HRV,HRV_0314,2022-11-30 23:16:31
,wl-html-keyboard-response,116,360727,0.0-7.0-0.0,1.0,117.0,,,,,,,,53728.89999997616,1.0,0,,,,,,,,,,,,,,,,,,,,,,HRV,HRV_0314,2022-11-30 23:16:31
,wl-rdm,117,362766,0.0-8.0-0.0,1.0,118.0,,,,,,,[],,,,,,62.5,1.0,i,1.0,True,739.7999999821186,44.0,60.0,40.0,False,,237.90003857425316,[],"[683, 384]",ColorTask,41.0,1.0,,,HRV,HRV_0314,2022-11-30 23:16:31
,wl-rdm,118,364813,0.0-8.1-0.1,1.0,119.0,,,,,,,[],,,,,,73.6,1.0,i,1.0,True,684.2999999821186,41.0,60.0,40.0,False,,295.05387864572265,[],"[683, 384]",ColorTask,42.0,2.0,,,HRV,HRV_0314,2022-11-30 23:16:31
,wl-rdm,119,366948,0.0-8.2-0.2,1.0,120.0,,,,,,,[],,,,,,73.6,1.0,i,1.0,True,688.5999999940395,42.0,60.0,40.0,False,,357.67913784402566,[],"[683, 384]",ColorTask,43.0,3.0,,,HRV,HRV_0314,2022-11-30 23:16:31
,wl-rdm,120,368926,0.0-8.3-0.3,1.0,121.0,,,,,,,[],,,,,,87.9,1.0,i,1.0,True,705.6999999880791,39.0,60.0,40.0,False,,216.16562120296192,[],"[683, 384]",ColorTask,44.0,4.0,,,HRV,HRV_0314,2022-11-30 23:16:31
,wl-rdm,121,370958,0.0-8.4-0.4,1.0,122.0,,,,,,,[],,,,,,50.0,1.0,u,0.0,False,725.8000000119209,44.0,60.0,40.0,False,,213.70495143603063,[],"[683, 384]",ColorTask,43.0,5.0,,,HRV,HRV_0314,2022-11-30 23:16:31
,wl-rdm,122,373340,0.0-8.5-0.5,1.0,123.0,,,,,,,[],,,,,,62.5,1.0,i,1.0,True,971.0,59.0,60.0,40.0,False,,331.5594986324294,[],"[683, 384]",ColorTask,44.0,6.0,,,HRV,HRV_0314,2022-11-30 23:16:31
,wl-rdm,123,375336,0.0-8.6-0.6,1.0,124.0,,,,,,,[],,,,,,56.4,1.0,i,1.0,True,593.5,36.0,60.0,40.0,False,,292.16970012440504,[],"[683, 384]",ColorTask,45.0,7.0,,,HRV,HRV_0314,2022-11-30 23:16:31
,wl-rdm,124,377218,0.0-8.7-0.7,1.0,125.0,,,,,,,[],,,,,,73.6,1.0,i,1.0,True,557.3999999761581,34.0,60.0,40.0,False,,266.0161096243397,[],"[683, 384]",ColorTask,46.0,8.0,,,HRV,HRV_0314,2022-11-30 23:16:31
,wl-rdm,125,379220,0.0-8.8-0.8,1.0,126.0,,,,,,,[],,,,,,50.0,0.0,i,1.0,False,554.0999999940395,34.0,60.0,40.0,False,,357.6475488121643,[],"[683, 384]",ColorTask,45.0,9.0,,,HRV,HRV_0314,2022-11-30 23:16:31
,wl-rdm,126,381249,0.0-8.9-0.9,1.0,127.0,,,,,,,[],,,,,,73.6,1.0,i,1.0,True,725.6999999880791,44.0,60.0,40.0,False,,216.6543968764389,[],"[683, 384]",ColorTask,46.0,10.0,,,HRV,HRV_0314,2022-11-30 23:16:31
,wl-rdm,127,383180,0.0-8.10-0.10,1.0,128.0,,,,,,,[],,,,,,56.4,1.0,i,1.0,True,606.4000000059605,37.0,60.0,40.0,False,,244.6855979476794,[],"[683, 384]",ColorTask,47.0,11.0,,,HRV,HRV_0314,2022-11-30 23:16:31
,wl-rdm,128,385794,0.0-8.11-0.11,1.0,129.0,,,,,,,[],,,,,,62.5,0.0,u,0.0,True,1226.699999988079,74.0,60.0,40.0,False,,304.3523144655079,[],"[683, 384]",ColorTask,48.0,12.0,,,HRV,HRV_0314,2022-11-30 23:16:31
,wl-rdm,129,387912,0.0-8.12-0.12,1.0,130.0,,,,,,,[],,,,,,53.2,1.0,i,1.0,True,691.0999999940395,42.0,60.0,40.0,False,,342.8570910651774,[],"[683, 384]",ColorTask,49.0,13.0,,,HRV,HRV_0314,2022-11-30 23:16:31
,wl-rdm,130,389924,0.0-8.13-0.13,1.0,131.0,,,,,,,[],,,,,,73.6,0.0,u,0.0,True,688.4000000357628,42.0,60.0,40.0,False,,247.58782633455039,[],"[683, 384]",ColorTask,50.0,14.0,,,HRV,HRV_0314,2022-11-30 23:16:31
,wl-rdm,131,392255,0.0-8.14-0.14,1.0,132.0,,,,,,,[],,,,,,50.0,1.0,u,0.0,False,973.3000000119209,59.0,60.0,40.0,False,,271.5565376014697,[],"[683, 384]",ColorTask,49.0,15.0,,,HRV,HRV_0314,2022-11-30 23:16:31
,wl-rdm,132,394370,0.0-8.15-0.15,1.0,133.0,,,,,,,[],,,,,,62.5,0.0,u,0.0,True,627.7000000178814,38.0,60.0,40.0,False,,398.3631595704844,[],"[683, 384]",ColorTask,50.0,16.0,,,HRV,HRV_0314,2022-11-30 23:16:31
,wl-rdm,133,396768,0.0-8.16-0.16,1.0,134.0,,,,,,,[],,,,,,56.4,0.0,u,0.0,True,1020.6999999880791,62.0,60.0,40.0,False,,284.0954330805217,[],"[683, 384]",ColorTask,51.0,17.0,,,HRV,HRV_0314,2022-11-30 23:16:31
,wl-rdm,134,398966,0.0-8.17-0.17,1.0,135.0,,,,,,,[],,,,,,87.9,1.0,i,1.0,True,740.2999999821186,45.0,60.0,40.0,False,,375.59303526207077,[],"[683, 384]",ColorTask,52.0,18.0,,,HRV,HRV_0314,2022-11-30 23:16:31
,wl-rdm,135,400947,0.0-8.18-0.18,1.0,136.0,,,,,,,[],,,,,,73.6,1.0,i,1.0,True,546.2999999821186,33.0,60.0,40.0,False,,356.6266182541889,[],"[683, 384]",ColorTask,53.0,19.0,,,HRV,HRV_0314,2022-11-30 23:16:31
,wl-rdm,136,403062,0.0-8.19-0.19,1.0,137.0,,,,,,,[],,,,,,73.6,1.0,i,1.0,True,808.9000000059605,48.0,60.0,40.0,False,,215.0855807266949,[],"[683, 384]",ColorTask,54.0,20.0,,,HRV,HRV_0314,2022-11-30 23:16:31
,wl-rdm,137,405160,0.0-8.20-0.20,1.0,138.0,,,,,,,[],,,,,,53.2,0.0,u,0.0,True,733.3999999761581,44.0,60.0,40.0,False,,296.04780307382964,[],"[683, 384]",ColorTask,55.0,21.0,,,HRV,HRV_0314,2022-11-30 23:16:31
,wl-rdm,138,407807,0.0-8.21-0.21,1.0,139.0,,,,,,,[],,,,,,53.2,1.0,i,1.0,True,1202.9000000059605,70.0,60.0,40.0,False,,382.24572886593074,[],"[683, 384]",ColorTask,56.0,22.0,,,HRV,HRV_0314,2022-11-30 23:16:31
,wl-rdm,139,409739,0.0-8.22-0.22,1.0,140.0,,,,,,,[],,,,,,62.5,1.0,i,1.0,True,595.4000000059605,36.0,60.0,40.0,False,,266.10420917991155,[],"[683, 384]",ColorTask,57.0,23.0,,,HRV,HRV_0314,2022-11-30 23:16:31
,wl-rdm,140,411820,0.0-8.23-0.23,1.0,141.0,,,,,,,[],,,,,,53.2,1.0,i,1.0,True,722.4000000059605,44.0,60.0,40.0,False,,278.779661955748,[],"[683, 384]",ColorTask,58.0,24.0,,,HRV,HRV_0314,2022-11-30 23:16:31
,wl-rdm,141,413806,0.0-8.24-0.24,1.0,142.0,,,,,,,[],,,,,,73.6,0.0,u,0.0,True,663.6999999880791,40.0,60.0,40.0,False,,249.81125279317772,[],"[683, 384]",ColorTask,59.0,25.0,,,HRV,HRV_0314,2022-11-30 23:16:31
,wl-rdm,142,415833,0.0-8.25-0.25,1.0,143.0,,,,,,,[],,,,,,87.9,0.0,u,0.0,True,691.2000000178814,42.0,60.0,40.0,False,,244.62971114059783,[],"[683, 384]",ColorTask,60.0,26.0,,,HRV,HRV_0314,2022-11-30 23:16:31
,wl-rdm,143,418049,0.0-8.26-0.26,1.0,144.0,,,,,,,[],,,,,,53.2,1.0,u,0.0,False,888.1000000238419,54.0,60.0,40.0,False,,234.17872033987857,[],"[683, 384]",ColorTask,59.0,27.0,,,HRV,HRV_0314,2022-11-30 23:16:31
,wl-rdm,144,420063,0.0-8.27-0.27,1.0,145.0,,,,,,,[],,,,,,73.6,0.0,u,0.0,True,652.5,40.0,60.0,40.0,False,,280.33784583895533,[],"[683, 384]",ColorTask,60.0,28.0,,,HRV,HRV_0314,2022-11-30 23:16:31
,wl-rdm,145,422045,0.0-8.28-0.28,1.0,146.0,,,,,,,[],,,,,,87.9,1.0,i,1.0,True,579.5999999940395,35.0,60.0,40.0,False,,315.339204070458,[],"[683, 384]",ColorTask,61.0,29.0,,,HRV,HRV_0314,2022-11-30 23:16:31
,wl-rdm,146,424259,0.0-8.29-0.29,1.0,147.0,,,,,,,[],,,,,,56.4,1.0,i,1.0,True,822.0,50.0,60.0,40.0,False,,319.2338804005122,[],"[683, 384]",ColorTask,62.0,30.0,,,HRV,HRV_0314,2022-11-30 23:16:31
,wl-rdm,147,426274,0.0-8.30-0.30,1.0,148.0,,,,,,,[],,,,,,62.5,1.0,i,1.0,True,679.5,41.0,60.0,40.0,False,,262.8593437612768,[],"[683, 384]",ColorTask,63.0,31.0,,,HRV,HRV_0314,2022-11-30 23:16:31
,wl-rdm,148,428238,0.0-8.31-0.31,1.0,149.0,,,,,,,[],,,,,,56.4,0.0,i,1.0,False,577.6999999880791,35.0,60.0,40.0,False,,314.4383433761092,[],"[683, 384]",ColorTask,62.0,32.0,,,HRV,HRV_0314,2022-11-30 23:16:31
,wl-rdm,149,430253,0.0-8.32-0.32,1.0,150.0,,,,,,,[],,,,,,53.2,0.0,u,0.0,True,723.6999999880791,44.0,60.0,40.0,False,,206.4411075801995,[],"[683, 384]",ColorTask,63.0,33.0,,,HRV,HRV_0314,2022-11-30 23:16:31
,wl-rdm,150,432304,0.0-8.33-0.33,1.0,151.0,,,,,,,[],,,,,,62.5,0.0,u,0.0,True,641.0999999940395,39.0,60.0,40.0,False,,317.3161717172379,[],"[683, 384]",ColorTask,64.0,34.0,,,HRV,HRV_0314,2022-11-30 23:16:31
,wl-rdm,151,434305,0.0-8.34-0.34,1.0,152.0,,,,,,,[],,,,,,56.4,0.0,u,0.0,True,571.5,35.0,60.0,40.0,False,,363.232822351951,[],"[683, 384]",ColorTask,65.0,35.0,,,HRV,HRV_0314,2022-11-30 23:16:31
,wl-rdm,152,436831,0.0-8.35-0.35,1.0,153.0,,,,,,,[],,,,,,50.0,0.0,u,0.0,True,1115.9000000059605,67.0,60.0,40.0,False,,344.3707726133332,[],"[683, 384]",ColorTask,66.0,36.0,,,HRV,HRV_0314,2022-11-30 23:16:31
,wl-rdm,153,438828,0.0-8.36-0.36,1.0,154.0,,,,,,,[],,,,,,53.2,0.0,u,0.0,True,681.2000000178814,41.0,60.0,40.0,False,,249.332847845119,[],"[683, 384]",ColorTask,67.0,37.0,,,HRV,HRV_0314,2022-11-30 23:16:31
,wl-rdm,154,441060,0.0-8.37-0.37,1.0,155.0,,,,,,,[],,,,,,53.2,1.0,u,0.0,False,858.6999999880791,52.0,60.0,40.0,False,,293.4169909119481,[],"[683, 384]",ColorTask,66.0,38.0,,,HRV,HRV_0314,2022-11-30 23:16:31
,wl-rdm,155,443175,0.0-8.38-0.38,1.0,156.0,,,,,,,[],,,,,,73.6,0.0,u,0.0,True,639.2999999821186,39.0,60.0,40.0,False,,336.28492232156907,[],"[683, 384]",ColorTask,67.0,39.0,,,HRV,HRV_0314,2022-11-30 23:16:31
,wl-rdm,156,445506,0.0-8.39-0.39,1.0,157.0,,,,,,,[],,,,,,56.4,0.0,u,0.0,True,988.3000000119209,60.0,60.0,40.0,False,,264.9136586631565,[],"[683, 384]",ColorTask,68.0,40.0,,,HRV,HRV_0314,2022-11-30 23:16:31
,wl-rdm,157,447787,0.0-8.40-0.40,1.0,158.0,,,,,,,[],,,,,,62.5,0.0,u,0.0,True,854.9999999701977,51.0,60.0,40.0,False,,365.0270532561659,[],"[683, 384]",ColorTask,69.0,41.0,,,HRV,HRV_0314,2022-11-30 23:16:31
,wl-rdm,158,449985,0.0-8.41-0.41,1.0,159.0,,,,,,,[],,,,,,53.2,1.0,u,0.0,False,902.6000000238419,55.0,60.0,40.0,False,,221.2743679708412,[],"[683, 384]",ColorTask,68.0,42.0,,,HRV,HRV_0314,2022-11-30 23:16:31
,wl-rdm,159,452134,0.0-8.42-0.42,1.0,160.0,,,,,,,[],,,,,,50.0,1.0,i,1.0,True,726.3999999761581,44.0,60.0,40.0,False,,358.7560875884823,[],"[683, 384]",ColorTask,69.0,43.0,,,HRV,HRV_0314,2022-11-30 23:16:31
,wl-rdm,160,454047,0.0-8.43-0.43,1.0,161.0,,,,,,,[],,,,,,50.0,0.0,i,1.0,False,641.8000000417233,39.0,60.0,40.0,False,,212.581124790119,[],"[683, 384]",ColorTask,68.0,44.0,,,HRV,HRV_0314,2022-11-30 23:16:31
,wl-rdm,161,456048,0.0-8.44-0.44,1.0,162.0,,,,,,,[],,,,,,50.0,1.0,u,0.0,False,614.3000000119209,37.0,60.0,40.0,False,,304.5211788538003,[],"[683, 384]",ColorTask,67.0,45.0,,,HRV,HRV_0314,2022-11-30 23:16:31
,wl-rdm,162,458596,0.0-8.45-0.45,1.0,163.0,,,,,,,[],,,,,,50.0,0.0,i,1.0,False,1259.2999999821186,76.0,60.0,40.0,False,,201.4837839495102,[],"[683, 384]",ColorTask,66.0,46.0,,,HRV,HRV_0314,2022-11-30 23:16:31
,wl-rdm,163,460691,0.0-8.46-0.46,1.0,164.0,,,,,,,[],,,,,,73.6,0.0,u,0.0,True,679.3999999761581,39.0,60.0,40.0,False,,365.2482541928081,[],"[683, 384]",ColorTask,67.0,47.0,,,HRV,HRV_0314,2022-11-30 23:16:31
,wl-rdm,164,463022,0.0-8.47-0.47,1.0,165.0,,,,,,,[],,,,,,53.2,0.0,i,1.0,False,933.2999999821186,56.0,60.0,40.0,False,,317.32675630962,[],"[683, 384]",ColorTask,66.0,48.0,,,HRV,HRV_0314,2022-11-30 23:16:31
,wl-rdm,165,465104,0.0-8.48-0.48,1.0,166.0,,,,,,,[],,,,,,53.2,0.0,u,0.0,True,761.3000000119209,46.0,60.0,40.0,False,,256.08997113697563,[],"[683, 384]",ColorTask,67.0,49.0,,,HRV,HRV_0314,2022-11-30 23:16:31
,wl-rdm,166,467485,0.0-8.49-0.49,1.0,167.0,,,,,,,[],,,,,,50.0,0.0,u,0.0,True,952.0,58.0,60.0,40.0,False,,339.7780107005597,[],"[683, 384]",ColorTask,68.0,50.0,,,HRV,HRV_0314,2022-11-30 23:16:31
,wl-rdm,167,470016,0.0-8.50-0.50,1.0,168.0,,,,,,,[],,,,,,56.4,1.0,i,1.0,True,1103.5000000298023,67.0,60.0,40.0,False,,361.0462773488049,[],"[683, 384]",ColorTask,69.0,51.0,,,HRV,HRV_0314,2022-11-30 23:16:31
,wl-rdm,168,472081,0.0-8.51-0.51,1.0,169.0,,,,,,,[],,,,,,87.9,0.0,u,0.0,True,722.7000000178814,44.0,60.0,40.0,False,,254.1688598453307,[],"[683, 384]",ColorTask,70.0,52.0,,,HRV,HRV_0314,2022-11-30 23:16:31
,wl-rdm,169,474012,0.0-8.52-0.52,1.0,170.0,,,,,,,[],,,,,,87.9,1.0,i,1.0,True,611.5999999940395,37.0,60.0,40.0,False,,239.97052466771981,[],"[683, 384]",ColorTask,71.0,53.0,,,HRV,HRV_0314,2022-11-30 23:16:31
,wl-rdm,170,476077,0.0-8.53-0.53,1.0,171.0,,,,,,,[],,,,,,87.9,1.0,i,1.0,True,584.0999999940395,36.0,60.0,40.0,False,,387.0437931521848,[],"[683, 384]",ColorTask,72.0,54.0,,,HRV,HRV_0314,2022-11-30 23:16:31
,wl-rdm,171,478046,0.0-8.54-0.54,1.0,172.0,,,,,,,[],,,,,,87.9,1.0,i,1.0,True,562.9000000357628,34.0,60.0,40.0,False,,319.64882989041746,[],"[683, 384]",ColorTask,73.0,55.0,,,HRV,HRV_0314,2022-11-30 23:16:31
,wl-rdm,172,480058,0.0-8.55-0.55,1.0,173.0,,,,,,,[],,,,,,87.9,0.0,u,0.0,True,725.1999999880791,44.0,60.0,40.0,False,,231.34777476443318,[],"[683, 384]",ColorTask,74.0,56.0,,,HRV,HRV_0314,2022-11-30 23:16:31
,wl-rdm,173,482421,0.0-8.56-0.56,1.0,174.0,,,,,,,[],,,,,,62.5,1.0,u,0.0,False,1018.9999999701977,62.0,60.0,40.0,False,,267.76521148001507,[],"[683, 384]",ColorTask,73.0,57.0,,,HRV,HRV_0314,2022-11-30 23:16:31
,wl-rdm,174,484706,0.0-8.57-0.57,1.0,175.0,,,,,,,[],,,,,,62.5,1.0,i,1.0,True,970.2000000476837,59.0,60.0,40.0,False,,222.2514818414778,[],"[683, 384]",ColorTask,74.0,58.0,,,HRV,HRV_0314,2022-11-30 23:16:31
,wl-rdm,175,486884,0.0-8.58-0.58,1.0,176.0,,,,,,,[],,,,,,62.5,0.0,u,0.0,True,804.9000000059605,49.0,60.0,40.0,False,,289.5120585094087,[],"[683, 384]",ColorTask,75.0,59.0,,,HRV,HRV_0314,2022-11-30 23:16:31
,wl-rdm,176,488965,0.0-8.59-0.59,1.0,177.0,,,,,,,[],,,,,,62.5,0.0,u,0.0,True,719.5999999940395,44.0,60.0,40.0,False,,299.95002982295796,[],"[683, 384]",ColorTask,76.0,60.0,,,HRV,HRV_0314,2022-11-30 23:16:31
,wl-rdm,177,491130,0.0-8.60-0.60,1.0,178.0,,,,,,,[],,,,,,56.4,0.0,u,0.0,True,867.0,52.0,60.0,40.0,False,,243.5506450424274,[],"[683, 384]",ColorTask,77.0,61.0,,,HRV,HRV_0314,2022-11-30 23:16:31
,wl-rdm,178,493145,0.0-8.61-0.61,1.0,179.0,,,,,,,[],,,,,,53.2,1.0,u,0.0,False,718.4999999701977,44.0,60.0,40.0,False,,233.00197685386624,[],"[683, 384]",ColorTask,76.0,62.0,,,HRV,HRV_0314,2022-11-30 23:16:31
,wl-rdm,179,495063,0.0-8.62-0.62,1.0,180.0,,,,,,,[],,,,,,73.6,1.0,i,1.0,True,508.59999999403954,30.0,60.0,40.0,False,,320.68806265803994,[],"[683, 384]",ColorTask,77.0,63.0,,,HRV,HRV_0314,2022-11-30 23:16:31
,wl-rdm,180,497309,0.0-8.63-0.63,1.0,181.0,,,,,,,[],,,,,,87.9,0.0,u,0.0,True,888.0,54.0,60.0,40.0,False,,271.83620761837585,[],"[683, 384]",ColorTask,78.0,64.0,,,HRV,HRV_0314,2022-11-30 23:16:31
,wl-rdm,181,499459,0.0-8.64-0.64,1.0,182.0,,,,,,,[],,,,,,62.5,1.0,i,1.0,True,876.0999999940395,53.0,60.0,40.0,False,,202.08637479321823,[],"[683, 384]",ColorTask,79.0,65.0,,,HRV,HRV_0314,2022-11-30 23:16:31
,wl-rdm,182,501770,0.0-8.65-0.65,1.0,183.0,,,,,,,[],,,,,,62.5,1.0,u,0.0,False,1035.300000011921,63.0,60.0,40.0,False,,205.54870955948124,[],"[683, 384]",ColorTask,78.0,66.0,,,HRV,HRV_0314,2022-11-30 23:16:31
,wl-rdm,183,503957,0.0-8.66-0.66,1.0,184.0,,,,,,,[],,,,,,50.0,0.0,i,1.0,False,841.1999999880791,51.0,60.0,40.0,False,,255.41377048976085,[],"[683, 384]",ColorTask,77.0,67.0,,,HRV,HRV_0314,2022-11-30 23:16:31
,wl-rdm,184,506050,0.0-8.67-0.67,1.0,185.0,,,,,,,[],,,,,,56.4,1.0,u,0.0,False,776.3999999761581,47.0,60.0,40.0,False,,239.57597755187695,[],"[683, 384]",ColorTask,76.0,68.0,,,HRV,HRV_0314,2022-11-30 23:16:31
,wl-rdm,185,508181,0.0-8.68-0.68,1.0,186.0,,,,,,,[],,,,,,50.0,1.0,u,0.0,False,666.8999999761581,40.0,60.0,40.0,False,,387.20352812787377,[],"[683, 384]",ColorTask,75.0,69.0,,,HRV,HRV_0314,2022-11-30 23:16:31
,wl-rdm,186,510263,0.0-8.69-0.69,1.0,187.0,,,,,,,[],,,,,,87.9,1.0,i,1.0,True,631.8000000417233,38.0,60.0,40.0,False,,381.3546280510726,[],"[683, 384]",ColorTask,76.0,70.0,,,HRV,HRV_0314,2022-11-30 23:16:31
,wl-rdm,187,512429,0.0-8.70-0.70,1.0,188.0,,,,,,,[],,,,,,50.0,0.0,u,0.0,True,868.8000000119209,52.0,60.0,40.0,False,,215.56457278654747,[],"[683, 384]",ColorTask,77.0,71.0,,,HRV,HRV_0314,2022-11-30 23:16:31
,wl-rdm,188,514658,0.0-8.71-0.71,1.0,189.0,,,,,,,[],,,,,,73.6,1.0,i,1.0,True,852.7999999821186,52.0,60.0,40.0,False,,286.91435450592,[],"[683, 384]",ColorTask,78.0,72.0,,,HRV,HRV_0314,2022-11-30 23:16:31
,wl-rdm,189,516673,0.0-8.72-0.72,1.0,190.0,,,,,,,[],,,,,,73.6,0.0,u,0.0,True,610.2000000178814,37.0,60.0,40.0,False,,328.3460404887883,[],"[683, 384]",ColorTask,79.0,73.0,,,HRV,HRV_0314,2022-11-30 23:16:31
,wl-rdm,190,518806,0.0-8.73-0.73,1.0,191.0,,,,,,,[],,,,,,56.4,0.0,i,1.0,False,825.5999999940395,50.0,60.0,40.0,False,,222.64132186908583,[],"[683, 384]",ColorTask,78.0,74.0,,,HRV,HRV_0314,2022-11-30 23:16:31
,wl-rdm,191,520986,0.0-8.74-0.74,1.0,192.0,,,,,,,[],,,,,,56.4,0.0,u,0.0,True,710.0999999940395,43.0,60.0,40.0,False,,394.372613255372,[],"[683, 384]",ColorTask,79.0,75.0,,,HRV,HRV_0314,2022-11-30 23:16:31
,wl-rdm,192,523533,0.0-8.75-0.75,1.0,193.0,,,,,,,[],,,,,,56.4,0.0,u,0.0,True,1159.4000000357628,70.0,60.0,40.0,False,,318.818735932923,[],"[683, 384]",ColorTask,80.0,76.0,,,HRV,HRV_0314,2022-11-30 23:16:31
,wl-rdm,193,525981,0.0-8.76-0.76,1.0,194.0,,,,,,,[],,,,,,50.0,1.0,i,1.0,True,1125.800000011921,68.0,60.0,40.0,False,,262.56212784903147,[],"[683, 384]",ColorTask,81.0,77.0,,,HRV,HRV_0314,2022-11-30 23:16:31
,wl-rdm,194,528213,0.0-8.77-0.77,1.0,195.0,,,,,,,[],,,,,,87.9,0.0,u,0.0,True,821.6000000238419,50.0,60.0,40.0,False,,324.8534508686881,[],"[683, 384]",ColorTask,82.0,78.0,,,HRV,HRV_0314,2022-11-30 23:16:31
,wl-rdm,195,530779,0.0-8.78-0.78,1.0,196.0,,,,,,,[],,,,,,62.5,1.0,i,1.0,True,1086.5999999940395,65.0,60.0,40.0,False,,398.6418615662791,[],"[683, 384]",ColorTask,83.0,79.0,,,HRV,HRV_0314,2022-11-30 23:16:31
,wl-rdm,196,532991,0.0-8.79-0.79,1.0,197.0,,,,,,,[],,,,,,87.9,1.0,i,1.0,True,830.8000000119209,50.0,60.0,40.0,False,,266.7231624485293,[],"[683, 384]",ColorTask,84.0,80.0,,,HRV,HRV_0314,2022-11-30 23:16:31
,wl-rdm,197,535589,0.0-8.80-0.80,1.0,198.0,,,,,,,[],,,,,,56.4,1.0,u,0.0,False,1119.4000000059605,68.0,60.0,40.0,False,,393.56307039177426,[],"[683, 384]",ColorTask,83.0,81.0,,,HRV,HRV_0314,2022-11-30 23:16:31
,wl-rdm,198,537591,0.0-8.81-0.81,1.0,199.0,,,,,,,[],,,,,,62.5,0.0,u,0.0,True,710.5999999940395,43.0,60.0,40.0,False,,220.1723328544536,[],"[683, 384]",ColorTask,84.0,82.0,,,HRV,HRV_0314,2022-11-30 23:16:31
,wl-rdm,199,539636,0.0-8.82-0.82,1.0,200.0,,,,,,,[],,,,,,73.6,0.0,u,0.0,True,633.7999999821186,38.0,60.0,40.0,False,,345.50905985772255,[],"[683, 384]",ColorTask,85.0,83.0,,,HRV,HRV_0314,2022-11-30 23:16:31
,wl-rdm,200,541600,0.0-8.83-0.83,1.0,201.0,,,,,,,[],,,,,,87.9,0.0,u,0.0,True,586.3000000119209,35.0,60.0,40.0,False,,288.8250813653659,[],"[683, 384]",ColorTask,86.0,84.0,,,HRV,HRV_0314,2022-11-30 23:16:31
,wl-rdm,201,543848,0.0-8.84-0.84,1.0,202.0,,,,,,,[],,,,,,73.6,1.0,i,1.0,True,782.7000000178814,47.0,60.0,40.0,False,,389.7217877420928,[],"[683, 384]",ColorTask,87.0,85.0,,,HRV,HRV_0314,2022-11-30 23:16:31
,wl-rdm,202,546096,0.0-8.85-0.85,1.0,203.0,,,,,,,[],,,,,,73.6,0.0,u,0.0,True,806.5,49.0,60.0,40.0,False,,380.56259168308736,[],"[683, 384]",ColorTask,88.0,86.0,,,HRV,HRV_0314,2022-11-30 23:16:31
,wl-rdm,203,548310,0.0-8.86-0.86,1.0,204.0,,,,,,,[],,,,,,53.2,0.0,i,1.0,False,891.9000000357628,54.0,60.0,40.0,False,,240.28271151511348,[],"[683, 384]",ColorTask,87.0,87.0,,,HRV,HRV_0314,2022-11-30 23:16:31
,wl-rdm,204,550342,0.0-8.87-0.87,1.0,205.0,,,,,,,[],,,,,,87.9,0.0,u,0.0,True,611.3000000119209,37.0,60.0,40.0,False,,342.4180138716849,[],"[683, 384]",ColorTask,88.0,88.0,,,HRV,HRV_0314,2022-11-30 23:16:31
,wl-rdm,205,552573,0.0-8.88-0.88,1.0,206.0,,,,,,,[],,,,,,62.5,0.0,u,0.0,True,885.8999999761581,53.0,60.0,40.0,False,,281.1803442633354,[],"[683, 384]",ColorTask,89.0,89.0,,,HRV,HRV_0314,2022-11-30 23:16:31
,wl-rdm,206,554705,0.0-8.89-0.89,1.0,207.0,,,,,,,[],,,,,,53.2,0.0,i,1.0,False,788.4000000059605,48.0,60.0,40.0,False,,228.39012582573656,[],"[683, 384]",ColorTask,88.0,90.0,,,HRV,HRV_0314,2022-11-30 23:16:31
,wl-rdm,207,557638,0.0-8.90-0.90,1.0,208.0,,,,,,,[],,,,,,53.2,0.0,i,1.0,False,1586.5999999940395,72.0,60.0,40.0,False,,277.00815498170573,[],"[683, 384]",ColorTask,87.0,91.0,,,HRV,HRV_0314,2022-11-30 23:16:31
,wl-rdm,208,559800,0.0-8.91-0.91,1.0,209.0,,,,,,,[],,,,,,87.9,0.0,u,0.0,True,852.5999999940395,52.0,60.0,40.0,False,,225.958174912189,[],"[683, 384]",ColorTask,88.0,92.0,,,HRV,HRV_0314,2022-11-30 23:16:31
,wl-rdm,209,562248,0.0-8.92-0.92,1.0,210.0,,,,,,,[],,,,,,53.2,0.0,u,0.0,True,1075.800000011921,63.0,60.0,40.0,False,,285.6117233199332,[],"[683, 384]",ColorTask,89.0,93.0,,,HRV,HRV_0314,2022-11-30 23:16:31
,wl-rdm,210,564362,0.0-8.93-0.93,1.0,211.0,,,,,,,[],,,,,,56.4,1.0,i,1.0,True,652.0,39.0,60.0,40.0,False,,392.3748105242035,[],"[683, 384]",ColorTask,90.0,94.0,,,HRV,HRV_0314,2022-11-30 23:16:31
,wl-rdm,211,566643,0.0-8.94-0.94,1.0,212.0,,,,,,,[],,,,,,50.0,1.0,u,0.0,False,974.6999999880791,59.0,60.0,40.0,False,,233.8176786818508,[],"[683, 384]",ColorTask,89.0,95.0,,,HRV,HRV_0314,2022-11-30 23:16:31
,wl-rdm,212,568812,0.0-8.95-0.95,1.0,213.0,,,,,,,[],,,,,,87.9,0.0,u,0.0,True,711.6000000238419,43.0,60.0,40.0,False,,375.37815173579696,[],"[683, 384]",ColorTask,90.0,96.0,,,HRV,HRV_0314,2022-11-30 23:16:31
,wl-rdm,213,571227,0.0-8.96-0.96,1.0,214.0,,,,,,,[],,,,,,50.0,1.0,i,1.0,True,955.1000000238419,58.0,60.0,40.0,False,,379.5532661017014,[],"[683, 384]",ColorTask,91.0,97.0,,,HRV,HRV_0314,2022-11-30 23:16:31
,wl-rdm,214,573370,0.0-8.97-0.97,1.0,215.0,,,,,,,[],,,,,,50.0,0.0,u,0.0,True,753.0,46.0,60.0,40.0,False,,313.66294002628973,[],"[683, 384]",ColorTask,92.0,98.0,,,HRV,HRV_0314,2022-11-30 23:16:31
,wl-rdm,215,575469,0.0-8.98-0.98,1.0,216.0,,,,,,,[],,,,,,73.6,0.0,u,0.0,True,746.4000000059605,45.0,60.0,40.0,False,,266.33783145069606,[],"[683, 384]",ColorTask,93.0,99.0,,,HRV,HRV_0314,2022-11-30 23:16:31
,wl-rdm,216,577700,0.0-8.99-0.99,1.0,217.0,,,,,,,[],,,,,,56.4,1.0,i,1.0,True,765.1999999880791,46.0,60.0,40.0,False,,388.07482703256477,[],"[683, 384]",ColorTask,94.0,100.0,,,HRV,HRV_0314,2022-11-30 23:16:31
,wl-rdm,217,580282,0.0-8.100-0.100,1.0,218.0,,,,,,,[],,,,,,56.4,1.0,u,0.0,False,1178.699999988079,70.0,60.0,40.0,False,,327.9946272227996,[],"[683, 384]",ColorTask,93.0,101.0,,,HRV,HRV_0314,2022-11-30 23:16:31
,wl-rdm,218,582528,0.0-8.101-0.101,1.0,219.0,,,,,,,[],,,,,,53.2,1.0,u,0.0,False,830.1999999880791,50.0,60.0,40.0,False,,343.46888720027255,[],"[683, 384]",ColorTask,92.0,102.0,,,HRV,HRV_0314,2022-11-30 23:16:31
,wl-rdm,219,584943,0.0-8.102-0.102,1.0,220.0,,,,,,,[],,,,,,56.4,0.0,i,1.0,False,1119.300000011921,67.0,60.0,40.0,False,,222.56590222219097,[],"[683, 384]",ColorTask,91.0,103.0,,,HRV,HRV_0314,2022-11-30 23:16:31
,wl-rdm,220,587126,0.0-8.103-0.103,1.0,221.0,,,,,,,[],,,,,,62.5,0.0,u,0.0,True,740.5999999940395,45.0,60.0,40.0,False,,359.4599910284425,[],"[683, 384]",ColorTask,92.0,104.0,,,HRV,HRV_0314,2022-11-30 23:16:31
,wl-rdm,221,589391,0.0-8.104-0.104,1.0,222.0,,,,,,,[],,,,,,50.0,0.0,u,0.0,True,912.0,55.0,60.0,40.0,False,,275.7710799483025,[],"[683, 384]",ColorTask,93.0,105.0,,,HRV,HRV_0314,2022-11-30 23:16:31
,wl-rdm,222,591621,0.0-8.105-0.105,1.0,223.0,,,,,,,[],,,,,,50.0,1.0,u,0.0,False,946.8999999761581,57.0,60.0,40.0,False,,214.42186842018745,[],"[683, 384]",ColorTask,92.0,106.0,,,HRV,HRV_0314,2022-11-30 23:16:31
,wl-rdm,223,593601,0.0-8.106-0.106,1.0,224.0,,,,,,,[],,,,,,53.2,1.0,i,1.0,True,692.0,42.0,60.0,40.0,False,,210.1428824030562,[],"[683, 384]",ColorTask,93.0,107.0,,,HRV,HRV_0314,2022-11-30 23:16:31
,wl-rdm,224,595550,0.0-8.107-0.107,1.0,225.0,,,,,,,[],,,,,,87.9,1.0,i,1.0,True,627.4000000059605,38.0,60.0,40.0,False,,238.10505490780375,[],"[683, 384]",ColorTask,94.0,108.0,,,HRV,HRV_0314,2022-11-30 23:16:31
,wl-html-button-response,225,597734,0.0-9.0-0.0,,,,,,,,,,2176.9000000059605,,0,,,,,,,,,,,,,,,,,,,,<h3>End of this session. Thank you!</h3><br>,['Close window'],HRV,HRV_0314,2022-11-30 23:16:31
