success,trial_type,trial_index,time_elapsed,internal_node_id,Block,TrialNumber,TrialTime,trialTimeDiff,FPS_avg,FPS_med,FPS_mode,TrialDur,winResizeTime,rt,block,button_pressed,MotCoh,MotDir,ColCoh,Color,ChoiceKey,Choice,Accuracy,RT,nFrames,FPS,PPD,missTrial,missTrialMsg,onsetDelay,fullScreenExitTime,canvCenter,TrialType,Score,BlockTrial,stimulus,button_labels,exp,subjectId,date
True,fullscreen,0,3450,0.0-0.0,0.0,1.0,,,,,,,,,,,,,,,,,,,,,,,,,,,,,,,,HRV,HRV_0074,2022-11-30 17:58:37
,wl-check-fps,1,7449,0.0-1.0,0.0,2.0,"[4317.9, 4325.7, 4339.1, 4352.4, 4365.8, 4379.1, 4392.5, 4405.8, 4419.1, 4432.6, 4446.1, 4459.2, 4472.6, 4485.9, 4499.4, 4512.6, 4525.9, 4539.3, 4552.6, 4566, 4579.2, 4592.7, 4606, 4619.3, 4632.7, 4645.9, 4659.3, 4672.7, 4685.9, 4699.3, 4712.7, 4726, 4739.3, 4752.6, 4766, 4779.3, 4792.6, 4805.9, 4819.2, 4832.7, 4845.9, 4859.3, 4872.7, 4886.1, 4899.3, 4912.7, 4926.1, 4939.3, 4952.7, 4966, 4979.3, 4992.6, 5006, 5019.3, 5032.6, 5046, 5060, 5072.7, 5086, 5099.3, 5112.7, 5126, 5139.4, 5152.7, 5166, 5179.4, 5192.7, 5206, 5219.3, 5232.7, 5246.1, 5259.5, 5272.8, 5286.1, 5299.4, 5312.8, 5326.1, 5339.5, 5352.8, 5366.1, 5379.5, 5392.8, 5406.1, 5419.5, 5432.8, 5446.1, 5459.4, 5472.8, 5486.2, 5499.5, 5512.8, 5526.1, 5539.5, 5552.9, 5566.1, 5579.5, 5592.9, 5606.2, 5619.5, 5632.9, 5646.2, 5659.6, 5672.8, 5686.2, 5699.5, 5712.8, 5726.3, 5739.6, 5752.9, 5766.2, 5779.6, 5792.9, 5806.3, 5819.6, 5833, 5846.3, 5859.6, 5873, 5886.3, 5899.7, 5913, 5926.3, 5939.6, 5953, 5966.3, 5979.6, 5993, 6006.3, 6019.6, 6033, 6046.4, 6059.6, 6073, 6086.4, 6099.7, 6113.1, 6126.4, 6139.7, 6153.1, 6166.4, 6179.8, 6193, 6206.4, 6219.8, 6233.1, 6246.4, 6259.8, 6273.1, 6286.4, 6299.8, 6313.1, 6326.5, 6339.8, 6353.2, 6366.4, 6379.8, 6393.2, 6406.6, 6419.8, 6433.2, 6446.5, 6459.8, 6473.1, 6486.5, 6499.8, 6513.2, 6526.6, 6539.8, 6553.2, 6566.6, 6579.9, 6593.2, 6606.6, 6619.9, 6633.2, 6646.6, 6659.9, 6673.2, 6686.6, 6700, 6713.2, 6726.6, 6739.9, 6753.3, 6766.7, 6779.9, 6793.3, 6806.7, 6820, 6833.3, 6846.6, 6859.9, 6873.4, 6886.6, 6900, 6913.4, 6926.7, 6940, 6953.4, 6966.7, 6980, 6993.4, 7006.7, 7020, 7033.4, 7046.7, 7060.1, 7073.4, 7086.7, 7100, 7113.4, 7126.7, 7140.1, 7153.4, 7166.7, 7180.1, 7193.4, 7206.8, 7220.1, 7233.4, 7246.8, 7260.1, 7273.6, 7287, 7300.3, 7313.6, 7326.9, 7340.3, 7353.6, 7366.9, 7380.3, 7393.6, 7406.9, 7420.3, 7433.6, 7447, 7460.2, 7473.6, 7486.9, 7500.3, 7513.5, 7526.9, 7540.2, 7553.5, 7566.9, 7580.3, 7593.6, 7607, 7620.3, 7633.6, 7647, 7660.2, 7673.6, 7686.9, 7700.3, 7713.7, 7726.9, 7740.4, 7753.7, 7767, 7780.3, 7793.7, 7806.9, 7820.3, 7833.6, 7847.1, 7860.3, 7873.8, 7887, 7900.4, 7913.7, 7927, 7940.4, 7953.8, 7967.1, 7980.5, 7993.9, 8007.1, 8020.5, 8033.8, 8047.2, 8060.5, 8073.8, 8087.2, 8100.6, 8113.8, 8127.1, 8140.5, 8153.8, 8167.2, 8180.5, 8193.8, 8207.2, 8220.5, 8233.9, 8247.2, 8260.5, 8273.8, 8287.3, 8300.5]","[1, 7.8, 13.4, 13.3, 13.4, 13.3, 13.4, 13.3, 13.3, 13.5, 13.5, 13.1, 13.4, 13.3, 13.5, 13.2, 13.3, 13.4, 13.3, 13.4, 13.2, 13.5, 13.3, 13.3, 13.4, 13.2, 13.4, 13.4, 13.2, 13.4, 13.4, 13.3, 13.3, 13.3, 13.4, 13.3, 13.3, 13.3, 13.3, 13.5, 13.2, 13.4, 13.4, 13.4, 13.2, 13.4, 13.4, 13.2, 13.4, 13.3, 13.3, 13.3, 13.4, 13.3, 13.3, 13.4, 14, 12.7, 13.3, 13.3, 13.4, 13.3, 13.4, 13.3, 13.3, 13.4, 13.3, 13.3, 13.3, 13.4, 13.4, 13.4, 13.3, 13.3, 13.3, 13.4, 13.3, 13.4, 13.3, 13.3, 13.4, 13.3, 13.3, 13.4, 13.3, 13.3, 13.3, 13.4, 13.4, 13.3, 13.3, 13.3, 13.4, 13.4, 13.2, 13.4, 13.4, 13.3, 13.3, 13.4, 13.3, 13.4, 13.2, 13.4, 13.3, 13.3, 13.5, 13.3, 13.3, 13.3, 13.4, 13.3, 13.4, 13.3, 13.4, 13.3, 13.3, 13.4, 13.3, 13.4, 13.3, 13.3, 13.3, 13.4, 13.3, 13.3, 13.4, 13.3, 13.3, 13.4, 13.4, 13.2, 13.4, 13.4, 13.3, 13.4, 13.3, 13.3, 13.4, 13.3, 13.4, 13.2, 13.4, 13.4, 13.3, 13.3, 13.4, 13.3, 13.3, 13.4, 13.3, 13.4, 13.3, 13.4, 13.2, 13.4, 13.4, 13.4, 13.2, 13.4, 13.3, 13.3, 13.3, 13.4, 13.3, 13.4, 13.4, 13.2, 13.4, 13.4, 13.3, 13.3, 13.4, 13.3, 13.3, 13.4, 13.3, 13.3, 13.4, 13.4, 13.2, 13.4, 13.3, 13.4, 13.4, 13.2, 13.4, 13.4, 13.3, 13.3, 13.3, 13.3, 13.5, 13.2, 13.4, 13.4, 13.3, 13.3, 13.4, 13.3, 13.3, 13.4, 13.3, 13.3, 13.4, 13.3, 13.4, 13.3, 13.3, 13.3, 13.4, 13.3, 13.4, 13.3, 13.3, 13.4, 13.3, 13.4, 13.3, 13.3, 13.4, 13.3, 13.5, 13.4, 13.3, 13.3, 13.3, 13.4, 13.3, 13.3, 13.4, 13.3, 13.3, 13.4, 13.3, 13.4, 13.2, 13.4, 13.3, 13.4, 13.2, 13.4, 13.3, 13.3, 13.4, 13.4, 13.3, 13.4, 13.3, 13.3, 13.4, 13.2, 13.4, 13.3, 13.4, 13.4, 13.2, 13.5, 13.3, 13.3, 13.3, 13.4, 13.2, 13.4, 13.3, 13.5, 13.2, 13.5, 13.2, 13.4, 13.3, 13.3, 13.4, 13.4, 13.3, 13.4, 13.4, 13.2, 13.4, 13.3, 13.4, 13.3, 13.3, 13.4, 13.4, 13.2, 13.3, 13.4, 13.3, 13.4, 13.3, 13.3, 13.4, 13.3, 13.4, 13.3, 13.3, 13.3, 13.5, 13.2]",75.0,75.0,75.0,3997.0,[],,,,,,,,,,,,,,,,,,,,,,,,,HRV,HRV_0074,2022-11-30 17:58:37
,wl-html-keyboard-response,2,23869,0.0-2.0-0.0,0.0,3.0,,,,,,,,14401.399999976158,0.0,0,,,,,,,,,,,,,,,,,,,,,,HRV,HRV_0074,2022-11-30 17:58:37
,wl-rdm,3,30910,0.0-3.0-0.0,0.0,4.0,,,,,,,[],,,,0.0,0.0,87.9,0.0,u,0.0,True,1484.4000000953674,112.0,75.0,40.0,False,,3000.0,[],"[960, 540]",ColorTask_Demo,,,,,HRV,HRV_0074,2022-11-30 17:58:37
,wl-rdm,4,35685,0.0-3.0-1.0,0.0,5.0,,,,,,,[],,,,0.0,0.0,87.9,1.0,i,1.0,True,730.3999999761581,55.0,75.0,40.0,False,,2000.0,[],"[960, 540]",ColorTask_Demo,,,,,HRV,HRV_0074,2022-11-30 17:58:37
,wl-html-keyboard-response,5,45998,0.0-3.0-2.0,0.0,6.0,,,,,,,,8306.200000047684,0.0,1,,,,,,,,,,,,,,,,,,,,,,HRV,HRV_0074,2022-11-30 17:58:37
,wl-html-keyboard-response,6,56245,0.0-4.0-0.0,0.0,7.0,,,,,,,,8227.600000023842,0.0,0,,,,,,,,,,,,,,,,,,,,,,HRV,HRV_0074,2022-11-30 17:58:37
,wl-html-keyboard-response,7,67105,0.0-5.0-0.0,0.0,8.0,,,,,,,,8856.399999976158,0.0,0,,,,,,,,,,,,,,,,,,,,,,HRV,HRV_0074,2022-11-30 17:58:37
,wl-rdm,8,69484,0.0-6.0-0.0,0.0,9.0,,,,,,,[],,,,,,53.2,0.0,u,0.0,True,1020.4000000953674,77.0,75.0,40.0,False,,295.1782306643613,[],"[960, 540]",ColorTask,1.0,1.0,,,HRV,HRV_0074,2022-11-30 17:58:37
,wl-rdm,9,71712,0.0-6.1-0.1,0.0,10.0,,,,,,,[],,,,,,53.2,0.0,u,0.0,True,957.2000000476837,72.0,75.0,40.0,False,,214.54628670048808,[],"[960, 540]",ColorTask,2.0,2.0,,,HRV,HRV_0074,2022-11-30 17:58:37
,wl-rdm,10,73686,0.0-6.2-0.2,0.0,11.0,,,,,,,[],,,,,,62.5,1.0,i,1.0,True,686.3000000715256,52.0,75.0,40.0,False,,235.3849750750667,[],"[960, 540]",ColorTask,3.0,3.0,,,HRV,HRV_0074,2022-11-30 17:58:37
,wl-rdm,11,76020,0.0-6.3-0.3,0.0,12.0,,,,,,,[],,,,,,53.2,1.0,i,1.0,True,1047.2999999523163,79.0,75.0,40.0,False,,227.27357674279153,[],"[960, 540]",ColorTask,4.0,4.0,,,HRV,HRV_0074,2022-11-30 17:58:37
,wl-rdm,12,78034,0.0-6.4-0.4,0.0,13.0,,,,,,,[],,,,,,56.4,0.0,u,0.0,True,754.6999999284744,57.0,75.0,40.0,False,,205.3046118923462,[],"[960, 540]",ColorTask,5.0,5.0,,,HRV,HRV_0074,2022-11-30 17:58:37
,wl-rdm,13,80035,0.0-6.5-0.5,0.0,14.0,,,,,,,[],,,,,,87.9,1.0,i,1.0,True,714.0,54.0,75.0,40.0,False,,233.4997163687786,[],"[960, 540]",ColorTask,6.0,6.0,,,HRV,HRV_0074,2022-11-30 17:58:37
,wl-rdm,14,82182,0.0-6.6-0.6,0.0,15.0,,,,,,,[],,,,,,62.5,1.0,i,1.0,True,871.5,66.0,75.0,40.0,False,,215.39920173940956,[],"[960, 540]",ColorTask,7.0,7.0,,,HRV,HRV_0074,2022-11-30 17:58:37
,wl-rdm,15,84543,0.0-6.7-0.7,0.0,16.0,,,,,,,[],,,,,,50.0,1.0,i,1.0,True,977.5,74.0,75.0,40.0,False,,320.71031374693587,[],"[960, 540]",ColorTask,8.0,8.0,,,HRV,HRV_0074,2022-11-30 17:58:37
,wl-rdm,16,86984,0.0-6.8-0.8,0.0,17.0,,,,,,,[],,,,,,62.5,0.0,u,0.0,True,1186.7999999523163,89.0,75.0,40.0,False,,204.74655035042372,[],"[960, 540]",ColorTask,9.0,9.0,,,HRV,HRV_0074,2022-11-30 17:58:37
,wl-rdm,17,89091,0.0-6.9-0.9,0.0,18.0,,,,,,,[],,,,,,56.4,0.0,u,0.0,True,827.6000000238419,63.0,75.0,40.0,False,,214.83969667397264,[],"[960, 540]",ColorTask,10.0,10.0,,,HRV,HRV_0074,2022-11-30 17:58:37
,wl-rdm,18,91372,0.0-6.10-0.10,0.0,19.0,,,,,,,[],,,,,,73.6,0.0,u,0.0,True,836.6000000238419,63.0,75.0,40.0,False,,392.3883012821784,[],"[960, 540]",ColorTask,11.0,11.0,,,HRV,HRV_0074,2022-11-30 17:58:37
,wl-rdm,19,93546,0.0-6.11-0.11,0.0,20.0,,,,,,,[],,,,,,62.5,1.0,i,1.0,True,805.7000000476837,61.0,75.0,40.0,False,,314.15507892905634,[],"[960, 540]",ColorTask,12.0,12.0,,,HRV,HRV_0074,2022-11-30 17:58:37
,wl-rdm,20,95894,0.0-6.12-0.12,0.0,21.0,,,,,,,[],,,,,,53.2,1.0,i,1.0,True,1074.8999999761581,81.0,75.0,40.0,False,,214.0100763217145,[],"[960, 540]",ColorTask,13.0,13.0,,,HRV,HRV_0074,2022-11-30 17:58:37
,wl-rdm,21,98148,0.0-6.13-0.13,0.0,22.0,,,,,,,[],,,,,,62.5,0.0,u,0.0,True,844.2999999523163,64.0,75.0,40.0,False,,349.7139231848878,[],"[960, 540]",ColorTask,14.0,14.0,,,HRV,HRV_0074,2022-11-30 17:58:37
,wl-rdm,22,100175,0.0-6.14-0.14,0.0,23.0,,,,,,,[],,,,,,87.9,0.0,u,0.0,True,669.3000000715256,51.0,75.0,40.0,False,,301.24981460763934,[],"[960, 540]",ColorTask,15.0,15.0,,,HRV,HRV_0074,2022-11-30 17:58:37
,wl-rdm,23,102190,0.0-6.15-0.15,0.0,24.0,,,,,,,[],,,,,,87.9,1.0,i,1.0,True,648.3999999761581,49.0,75.0,40.0,False,,308.64930546760763,[],"[960, 540]",ColorTask,16.0,16.0,,,HRV,HRV_0074,2022-11-30 17:58:37
,wl-rdm,24,104310,0.0-6.16-0.16,0.0,25.0,,,,,,,[],,,,,,73.6,0.0,u,0.0,True,847.6000000238419,64.0,75.0,40.0,False,,224.39278305335077,[],"[960, 540]",ColorTask,17.0,17.0,,,HRV,HRV_0074,2022-11-30 17:58:37
,wl-rdm,25,106484,0.0-6.17-0.17,0.0,26.0,,,,,,,[],,,,,,62.5,0.0,u,0.0,True,813.7000000476837,61.0,75.0,40.0,False,,317.46716398314084,[],"[960, 540]",ColorTask,18.0,18.0,,,HRV,HRV_0074,2022-11-30 17:58:37
,wl-rdm,26,108832,0.0-6.18-0.18,0.0,27.0,,,,,,,[],,,,,,50.0,1.0,u,0.0,False,1046.2000000476837,79.0,75.0,40.0,False,,246.86949094781323,[],"[960, 540]",ColorTask,17.0,19.0,,,HRV,HRV_0074,2022-11-30 17:58:37
,wl-rdm,27,111126,0.0-6.19-0.19,0.0,28.0,,,,,,,[],,,,,,53.2,1.0,i,1.0,True,1002.0,76.0,75.0,40.0,False,,229.7631145929286,[],"[960, 540]",ColorTask,18.0,20.0,,,HRV,HRV_0074,2022-11-30 17:58:37
,wl-rdm,28,113300,0.0-6.20-0.20,0.0,29.0,,,,,,,[],,,,,,50.0,0.0,i,1.0,False,896.3000000715256,68.0,75.0,40.0,False,,220.97591518923804,[],"[960, 540]",ColorTask,17.0,21.0,,,HRV,HRV_0074,2022-11-30 17:58:37
,wl-rdm,29,115688,0.0-6.21-0.21,0.0,30.0,,,,,,,[],,,,,,50.0,0.0,u,0.0,True,1045.5,79.0,75.0,40.0,False,,285.42558727855715,[],"[960, 540]",ColorTask,18.0,22.0,,,HRV,HRV_0074,2022-11-30 17:58:37
,wl-rdm,30,118075,0.0-6.22-0.22,0.0,31.0,,,,,,,[],,,,,,62.5,1.0,i,1.0,True,962.7000000476837,73.0,75.0,40.0,False,,373.01153790488286,[],"[960, 540]",ColorTask,19.0,23.0,,,HRV,HRV_0074,2022-11-30 17:58:37
,wl-rdm,31,120263,0.0-6.23-0.23,0.0,32.0,,,,,,,[],,,,,,62.5,1.0,i,1.0,True,863.7000000476837,65.0,75.0,40.0,False,,278.9862773350682,[],"[960, 540]",ColorTask,20.0,24.0,,,HRV,HRV_0074,2022-11-30 17:58:37
,wl-rdm,32,122450,0.0-6.24-0.24,0.0,33.0,,,,,,,[],,,,,,50.0,1.0,i,1.0,True,826.1000000238419,62.0,75.0,40.0,False,,316.2792646467711,[],"[960, 540]",ColorTask,21.0,25.0,,,HRV,HRV_0074,2022-11-30 17:58:37
,wl-rdm,33,124611,0.0-6.25-0.25,0.0,34.0,,,,,,,[],,,,,,73.6,1.0,i,1.0,True,740.3000000715256,56.0,75.0,40.0,False,,366.02916142003,[],"[960, 540]",ColorTask,22.0,26.0,,,HRV,HRV_0074,2022-11-30 17:58:37
,wl-rdm,34,126692,0.0-6.26-0.26,0.0,35.0,,,,,,,[],,,,,,87.9,0.0,u,0.0,True,739.6000000238419,56.0,75.0,40.0,False,,290.0042446073464,[],"[960, 540]",ColorTask,23.0,27.0,,,HRV,HRV_0074,2022-11-30 17:58:37
,wl-rdm,35,128733,0.0-6.27-0.27,0.0,36.0,,,,,,,[],,,,,,53.2,1.0,i,1.0,True,752.1000000238419,57.0,75.0,40.0,False,,233.10377095651265,[],"[960, 540]",ColorTask,24.0,28.0,,,HRV,HRV_0074,2022-11-30 17:58:37
,wl-rdm,36,131040,0.0-6.28-0.28,0.0,37.0,,,,,,,[],,,,,,56.4,1.0,i,1.0,True,857.6000000238419,65.0,75.0,40.0,False,,389.106112998761,[],"[960, 540]",ColorTask,25.0,29.0,,,HRV,HRV_0074,2022-11-30 17:58:37
,wl-rdm,37,133067,0.0-6.29-0.29,0.0,38.0,,,,,,,[],,,,,,56.4,1.0,i,1.0,True,718.1000000238419,54.0,75.0,40.0,False,,256.22340631991943,[],"[960, 540]",ColorTask,26.0,30.0,,,HRV,HRV_0074,2022-11-30 17:58:37
,wl-rdm,38,135722,0.0-6.30-0.30,0.0,39.0,,,,,,,[],,,,,,50.0,0.0,i,1.0,False,1234.0,93.0,75.0,40.0,False,,371.5907534784486,[],"[960, 540]",ColorTask,25.0,31.0,,,HRV,HRV_0074,2022-11-30 17:58:37
,wl-rdm,39,137936,0.0-6.31-0.31,0.0,40.0,,,,,,,[],,,,,,53.2,0.0,u,0.0,True,794.7000000476837,60.0,75.0,40.0,False,,369.27595077668957,[],"[960, 540]",ColorTask,26.0,32.0,,,HRV,HRV_0074,2022-11-30 17:58:37
,wl-rdm,40,140057,0.0-6.32-0.32,0.0,41.0,,,,,,,[],,,,,,62.5,0.0,u,0.0,True,812.4000000953674,61.0,75.0,40.0,False,,265.6628850117705,[],"[960, 540]",ColorTask,27.0,33.0,,,HRV,HRV_0074,2022-11-30 17:58:37
,wl-rdm,41,142191,0.0-6.33-0.33,0.0,42.0,,,,,,,[],,,,,,62.5,0.0,u,0.0,True,835.0999999046326,63.0,75.0,40.0,False,,246.1587165622397,[],"[960, 540]",ColorTask,28.0,34.0,,,HRV,HRV_0074,2022-11-30 17:58:37
,wl-rdm,42,144405,0.0-6.34-0.34,0.0,43.0,,,,,,,[],,,,,,50.0,1.0,u,0.0,False,942.3999999761581,71.0,75.0,40.0,False,,219.42511884288368,[],"[960, 540]",ColorTask,27.0,35.0,,,HRV,HRV_0074,2022-11-30 17:58:37
,wl-rdm,43,146433,0.0-6.35-0.35,0.0,44.0,,,,,,,[],,,,,,87.9,0.0,u,0.0,True,686.6000000238419,52.0,75.0,40.0,False,,286.01138570989605,[],"[960, 540]",ColorTask,28.0,36.0,,,HRV,HRV_0074,2022-11-30 17:58:37
,wl-rdm,44,148793,0.0-6.36-0.36,0.0,45.0,,,,,,,[],,,,,,53.2,1.0,u,0.0,False,1067.7999999523163,81.0,75.0,40.0,False,,229.71208656824723,[],"[960, 540]",ColorTask,27.0,37.0,,,HRV,HRV_0074,2022-11-30 17:58:37
,wl-rdm,45,151061,0.0-6.37-0.37,0.0,46.0,,,,,,,[],,,,,,50.0,0.0,i,1.0,False,963.3000000715256,73.0,75.0,40.0,False,,244.6694428081807,[],"[960, 540]",ColorTask,26.0,38.0,,,HRV,HRV_0074,2022-11-30 17:58:37
,wl-rdm,46,153102,0.0-6.38-0.38,0.0,47.0,,,,,,,[],,,,,,87.9,0.0,u,0.0,True,660.9000000953674,50.0,75.0,40.0,False,,322.54910265042355,[],"[960, 540]",ColorTask,27.0,39.0,,,HRV,HRV_0074,2022-11-30 17:58:37
,wl-rdm,47,155169,0.0-6.39-0.39,0.0,48.0,,,,,,,[],,,,,,73.6,1.0,i,1.0,True,658.2000000476837,50.0,75.0,40.0,False,,358.969635607472,[],"[960, 540]",ColorTask,28.0,40.0,,,HRV,HRV_0074,2022-11-30 17:58:37
,wl-rdm,48,157316,0.0-6.40-0.40,0.0,49.0,,,,,,,[],,,,,,53.2,1.0,i,1.0,True,887.8000000715256,67.0,75.0,40.0,False,,203.33396085181616,[],"[960, 540]",ColorTask,29.0,41.0,,,HRV,HRV_0074,2022-11-30 17:58:37
,wl-rdm,49,159384,0.0-6.41-0.41,0.0,50.0,,,,,,,[],,,,,,53.2,0.0,u,0.0,True,751.7000000476837,57.0,75.0,40.0,False,,266.37440988522326,[],"[960, 540]",ColorTask,30.0,42.0,,,HRV,HRV_0074,2022-11-30 17:58:37
,wl-rdm,50,161705,0.0-6.42-0.42,0.0,51.0,,,,,,,[],,,,,,53.2,1.0,i,1.0,True,934.4000000953674,71.0,75.0,40.0,False,,327.49258583258114,[],"[960, 540]",ColorTask,31.0,43.0,,,HRV,HRV_0074,2022-11-30 17:58:37
,wl-rdm,51,164012,0.0-6.43-0.43,0.0,52.0,,,,,,,[],,,,,,50.0,1.0,u,0.0,False,973.0,73.0,75.0,40.0,False,,289.1309439453889,[],"[960, 540]",ColorTask,30.0,44.0,,,HRV,HRV_0074,2022-11-30 17:58:37
,wl-rdm,52,166053,0.0-6.44-0.44,0.0,53.0,,,,,,,[],,,,,,87.9,0.0,u,0.0,True,612.0999999046326,46.0,75.0,40.0,False,,386.63385594424045,[],"[960, 540]",ColorTask,31.0,45.0,,,HRV,HRV_0074,2022-11-30 17:58:37
,wl-rdm,53,168187,0.0-6.45-0.45,0.0,54.0,,,,,,,[],,,,,,87.9,0.0,u,0.0,True,696.3000000715256,53.0,75.0,40.0,False,,372.46308244553165,[],"[960, 540]",ColorTask,32.0,46.0,,,HRV,HRV_0074,2022-11-30 17:58:37
,wl-rdm,54,170455,0.0-6.46-0.46,0.0,55.0,,,,,,,[],,,,,,62.5,1.0,i,1.0,True,1005.5,76.0,75.0,40.0,False,,202.0434675744241,[],"[960, 540]",ColorTask,33.0,47.0,,,HRV,HRV_0074,2022-11-30 17:58:37
,wl-rdm,55,172615,0.0-6.47-0.47,0.0,56.0,,,,,,,[],,,,,,62.5,1.0,i,1.0,True,876.2999999523163,66.0,75.0,40.0,False,,235.2480655467386,[],"[960, 540]",ColorTask,34.0,48.0,,,HRV,HRV_0074,2022-11-30 17:58:37
,wl-rdm,56,174856,0.0-6.48-0.48,0.0,57.0,,,,,,,[],,,,,,56.4,1.0,i,1.0,True,969.1999998092651,73.0,75.0,40.0,False,,217.04785393554624,[],"[960, 540]",ColorTask,35.0,49.0,,,HRV,HRV_0074,2022-11-30 17:58:37
,wl-rdm,57,177097,0.0-6.49-0.49,0.0,58.0,,,,,,,[],,,,,,56.4,1.0,i,1.0,True,963.2999999523163,73.0,75.0,40.0,False,,226.55634245857289,[],"[960, 540]",ColorTask,36.0,50.0,,,HRV,HRV_0074,2022-11-30 17:58:37
,wl-rdm,58,179298,0.0-6.50-0.50,0.0,59.0,,,,,,,[],,,,,,56.4,1.0,i,1.0,True,868.8999999761581,66.0,75.0,40.0,False,,279.0144070526595,[],"[960, 540]",ColorTask,37.0,51.0,,,HRV,HRV_0074,2022-11-30 17:58:37
,wl-rdm,59,181232,0.0-6.51-0.51,0.0,60.0,,,,,,,[],,,,,,87.9,0.0,u,0.0,True,679.7000000476837,51.0,75.0,40.0,False,,202.6821426814689,[],"[960, 540]",ColorTask,38.0,52.0,,,HRV,HRV_0074,2022-11-30 17:58:37
,wl-rdm,60,183366,0.0-6.52-0.52,0.0,61.0,,,,,,,[],,,,,,50.0,1.0,u,0.0,False,862.3999999761581,65.0,75.0,40.0,False,,217.86450896941858,[],"[960, 540]",ColorTask,37.0,53.0,,,HRV,HRV_0074,2022-11-30 17:58:37
,wl-rdm,61,185340,0.0-6.53-0.53,0.0,62.0,,,,,,,[],,,,,,73.6,0.0,u,0.0,True,676.8999999761581,51.0,75.0,40.0,False,,247.56133873081683,[],"[960, 540]",ColorTask,38.0,54.0,,,HRV,HRV_0074,2022-11-30 17:58:37
,wl-rdm,62,187754,0.0-6.54-0.54,0.0,63.0,,,,,,,[],,,,,,56.4,0.0,u,0.0,True,997.3999999761581,75.0,75.0,40.0,False,,370.1343422291976,[],"[960, 540]",ColorTask,39.0,55.0,,,HRV,HRV_0074,2022-11-30 17:58:37
,wl-rdm,63,189835,0.0-6.55-0.55,0.0,64.0,,,,,,,[],,,,,,73.6,0.0,u,0.0,True,797.6000000238419,60.0,75.0,40.0,False,,238.25253550532466,[],"[960, 540]",ColorTask,40.0,56.0,,,HRV,HRV_0074,2022-11-30 17:58:37
,wl-rdm,64,192076,0.0-6.56-0.56,0.0,65.0,,,,,,,[],,,,,,62.5,1.0,i,1.0,True,797.1000000238419,60.0,75.0,40.0,False,,391.963890291647,[],"[960, 540]",ColorTask,41.0,57.0,,,HRV,HRV_0074,2022-11-30 17:58:37
,wl-rdm,65,194263,0.0-6.57-0.57,0.0,66.0,,,,,,,[],,,,,,87.9,1.0,i,1.0,True,759.3999999761581,57.0,75.0,40.0,False,,375.37410690520767,[],"[960, 540]",ColorTask,42.0,58.0,,,HRV,HRV_0074,2022-11-30 17:58:37
,wl-rdm,66,196424,0.0-6.58-0.58,0.0,67.0,,,,,,,[],,,,,,73.6,1.0,i,1.0,True,900.4000000953674,68.0,75.0,40.0,False,,213.29403844669204,[],"[960, 540]",ColorTask,43.0,59.0,,,HRV,HRV_0074,2022-11-30 17:58:37
,wl-rdm,67,198518,0.0-6.59-0.59,0.0,68.0,,,,,,,[],,,,,,73.6,0.0,u,0.0,True,762.9999998807907,58.0,75.0,40.0,False,,273.29522151301234,[],"[960, 540]",ColorTask,44.0,60.0,,,HRV,HRV_0074,2022-11-30 17:58:37
,wl-rdm,68,200879,0.0-6.60-0.60,0.0,69.0,,,,,,,[],,,,,,50.0,1.0,u,0.0,False,932.0,70.0,75.0,40.0,False,,383.57182244584226,[],"[960, 540]",ColorTask,43.0,61.0,,,HRV,HRV_0074,2022-11-30 17:58:37
,wl-rdm,69,203319,0.0-6.61-0.61,0.0,70.0,,,,,,,[],,,,,,56.4,1.0,u,0.0,False,1117.8999999761581,84.0,75.0,40.0,False,,269.6646392495831,[],"[960, 540]",ColorTask,42.0,62.0,,,HRV,HRV_0074,2022-11-30 17:58:37
,wl-rdm,70,205827,0.0-6.62-0.62,0.0,71.0,,,,,,,[],,,,,,53.2,0.0,u,0.0,True,1253.6000000238419,94.0,75.0,40.0,False,,201.57319928953868,[],"[960, 540]",ColorTask,43.0,63.0,,,HRV,HRV_0074,2022-11-30 17:58:37
,wl-rdm,71,208388,0.0-6.63-0.63,0.0,72.0,,,,,,,[],,,,,,50.0,0.0,i,1.0,False,1189.6000000238419,90.0,75.0,40.0,False,,306.7811805730453,[],"[960, 540]",ColorTask,42.0,64.0,,,HRV,HRV_0074,2022-11-30 17:58:37
,wl-rdm,72,210522,0.0-6.64-0.64,0.0,73.0,,,,,,,[],,,,,,56.4,1.0,i,1.0,True,827.0,62.0,75.0,40.0,False,,260.8309268304331,[],"[960, 540]",ColorTask,43.0,65.0,,,HRV,HRV_0074,2022-11-30 17:58:37
,wl-rdm,73,212750,0.0-6.65-0.65,0.0,74.0,,,,,,,[],,,,,,87.9,1.0,i,1.0,True,784.1000000238419,59.0,75.0,40.0,False,,388.66829876757583,[],"[960, 540]",ColorTask,44.0,66.0,,,HRV,HRV_0074,2022-11-30 17:58:37
,wl-rdm,74,215150,0.0-6.66-0.66,0.0,75.0,,,,,,,[],,,,,,56.4,0.0,u,0.0,True,1143.6000000238419,86.0,75.0,40.0,False,,208.22815971837505,[],"[960, 540]",ColorTask,45.0,67.0,,,HRV,HRV_0074,2022-11-30 17:58:37
,wl-rdm,75,217351,0.0-6.67-0.67,0.0,76.0,,,,,,,[],,,,,,73.6,0.0,u,0.0,True,871.0,66.0,75.0,40.0,False,,268.24079714303593,[],"[960, 540]",ColorTask,46.0,68.0,,,HRV,HRV_0074,2022-11-30 17:58:37
,wl-rdm,76,219472,0.0-6.68-0.68,0.0,77.0,,,,,,,[],,,,,,56.4,1.0,i,1.0,True,790.2999999523163,60.0,75.0,40.0,False,,274.88069546891296,[],"[960, 540]",ColorTask,47.0,69.0,,,HRV,HRV_0074,2022-11-30 17:58:37
,wl-rdm,77,221726,0.0-6.69-0.69,0.0,78.0,,,,,,,[],,,,,,62.5,0.0,u,0.0,True,947.8999999761581,72.0,75.0,40.0,False,,250.29859850228002,[],"[960, 540]",ColorTask,48.0,70.0,,,HRV,HRV_0074,2022-11-30 17:58:37
,wl-rdm,78,223874,0.0-6.70-0.70,0.0,79.0,,,,,,,[],,,,,,62.5,0.0,u,0.0,True,816.3000000715256,62.0,75.0,40.0,False,,276.4847311008616,[],"[960, 540]",ColorTask,49.0,71.0,,,HRV,HRV_0074,2022-11-30 17:58:37
,wl-rdm,79,226288,0.0-6.71-0.71,0.0,80.0,,,,,,,[],,,,,,53.2,1.0,u,0.0,False,1155.3999999761581,87.0,75.0,40.0,False,,202.22789167756198,[],"[960, 540]",ColorTask,48.0,72.0,,,HRV,HRV_0074,2022-11-30 17:58:37
,wl-rdm,80,228262,0.0-6.72-0.72,0.0,81.0,,,,,,,[],,,,,,73.6,1.0,i,1.0,True,712.0000001192093,54.0,75.0,40.0,False,,204.85731526343596,[],"[960, 540]",ColorTask,49.0,73.0,,,HRV,HRV_0074,2022-11-30 17:58:37
,wl-rdm,81,230316,0.0-6.73-0.73,0.0,82.0,,,,,,,[],,,,,,62.5,0.0,u,0.0,True,717.3000000715256,54.0,75.0,40.0,False,,284.8590079235937,[],"[960, 540]",ColorTask,50.0,74.0,,,HRV,HRV_0074,2022-11-30 17:58:37
,wl-rdm,82,232343,0.0-6.74-0.74,0.0,83.0,,,,,,,[],,,,,,73.6,1.0,i,1.0,True,706.5999999046326,53.0,75.0,40.0,False,,267.66964845894637,[],"[960, 540]",ColorTask,51.0,75.0,,,HRV,HRV_0074,2022-11-30 17:58:37
,wl-rdm,83,234371,0.0-6.75-0.75,0.0,84.0,,,,,,,[],,,,,,73.6,1.0,i,1.0,True,645.8000000715256,49.0,75.0,40.0,False,,325.1113137529194,[],"[960, 540]",ColorTask,52.0,76.0,,,HRV,HRV_0074,2022-11-30 17:58:37
,wl-rdm,84,236838,0.0-6.76-0.76,0.0,85.0,,,,,,,[],,,,,,53.2,0.0,i,1.0,False,1168.2000000476837,88.0,75.0,40.0,False,,243.38531825750962,[],"[960, 540]",ColorTask,51.0,77.0,,,HRV,HRV_0074,2022-11-30 17:58:37
,wl-rdm,85,238772,0.0-6.77-0.77,0.0,86.0,,,,,,,[],,,,,,73.6,0.0,u,0.0,True,644.1000000238419,49.0,75.0,40.0,False,,233.08129406599343,[],"[960, 540]",ColorTask,52.0,78.0,,,HRV,HRV_0074,2022-11-30 17:58:37
,wl-rdm,86,240907,0.0-6.78-0.78,0.0,87.0,,,,,,,[],,,,,,50.0,0.0,u,0.0,True,783.5000001192093,59.0,75.0,40.0,False,,296.4259609781825,[],"[960, 540]",ColorTask,53.0,79.0,,,HRV,HRV_0074,2022-11-30 17:58:37
,wl-rdm,87,243081,0.0-6.79-0.79,0.0,88.0,,,,,,,[],,,,,,73.6,1.0,i,1.0,True,739.2000000476837,56.0,75.0,40.0,False,,385.86531691730045,[],"[960, 540]",ColorTask,54.0,80.0,,,HRV,HRV_0074,2022-11-30 17:58:37
,wl-rdm,88,245161,0.0-6.80-0.80,0.0,89.0,,,,,,,[],,,,,,87.9,1.0,i,1.0,True,645.2000000476837,49.0,75.0,40.0,False,,380.4762269651628,[],"[960, 540]",ColorTask,55.0,81.0,,,HRV,HRV_0074,2022-11-30 17:58:37
,wl-rdm,89,247122,0.0-6.81-0.81,0.0,90.0,,,,,,,[],,,,,,87.9,0.0,u,0.0,True,591.0,45.0,75.0,40.0,False,,310.5542271397295,[],"[960, 540]",ColorTask,56.0,82.0,,,HRV,HRV_0074,2022-11-30 17:58:37
,wl-rdm,90,249363,0.0-6.82-0.82,0.0,91.0,,,,,,,[],,,,,,56.4,0.0,u,0.0,True,790.4000000953674,60.0,75.0,40.0,False,,395.6672470602009,[],"[960, 540]",ColorTask,57.0,83.0,,,HRV,HRV_0074,2022-11-30 17:58:37
,wl-rdm,91,251590,0.0-6.83-0.83,0.0,92.0,,,,,,,[],,,,,,50.0,1.0,u,0.0,False,922.2999999523163,70.0,75.0,40.0,False,,242.20350150995404,[],"[960, 540]",ColorTask,56.0,84.0,,,HRV,HRV_0074,2022-11-30 17:58:37
,wl-rdm,92,253738,0.0-6.84-0.84,0.0,93.0,,,,,,,[],,,,,,53.2,0.0,i,1.0,False,889.7000000476837,67.0,75.0,40.0,False,,206.1635305861821,[],"[960, 540]",ColorTask,55.0,85.0,,,HRV,HRV_0074,2022-11-30 17:58:37
,wl-rdm,93,255699,0.0-6.85-0.85,0.0,94.0,,,,,,,[],,,,,,87.9,1.0,i,1.0,True,697.2000000476837,53.0,75.0,40.0,False,,205.90430486621236,[],"[960, 540]",ColorTask,56.0,86.0,,,HRV,HRV_0074,2022-11-30 17:58:37
,wl-rdm,94,257873,0.0-6.86-0.86,0.0,95.0,,,,,,,[],,,,,,50.0,1.0,i,1.0,True,743.0,56.0,75.0,40.0,False,,380.9912855571921,[],"[960, 540]",ColorTask,57.0,87.0,,,HRV,HRV_0074,2022-11-30 17:58:37
,wl-rdm,95,260047,0.0-6.87-0.87,0.0,96.0,,,,,,,[],,,,,,73.6,1.0,i,1.0,True,761.1000000238419,58.0,75.0,40.0,False,,350.24042488637076,[],"[960, 540]",ColorTask,58.0,88.0,,,HRV,HRV_0074,2022-11-30 17:58:37
,wl-rdm,96,262169,0.0-6.88-0.88,0.0,97.0,,,,,,,[],,,,,,62.5,1.0,i,1.0,True,823.3000000715256,62.0,75.0,40.0,False,,253.10998718493994,[],"[960, 540]",ColorTask,59.0,89.0,,,HRV,HRV_0074,2022-11-30 17:58:37
,wl-rdm,97,264223,0.0-6.89-0.89,0.0,98.0,,,,,,,[],,,,,,73.6,1.0,i,1.0,True,787.8999998569489,60.0,75.0,40.0,False,,208.1623669820781,[],"[960, 540]",ColorTask,60.0,90.0,,,HRV,HRV_0074,2022-11-30 17:58:37
,wl-rdm,98,266423,0.0-6.90-0.90,0.0,99.0,,,,,,,[],,,,,,62.5,0.0,i,1.0,False,863.2999999523163,65.0,75.0,40.0,False,,286.20942647376575,[],"[960, 540]",ColorTask,59.0,91.0,,,HRV,HRV_0074,2022-11-30 17:58:37
,wl-rdm,99,268811,0.0-6.91-0.91,0.0,100.0,,,,,,,[],,,,,,53.2,1.0,i,1.0,True,1106.0,83.0,75.0,40.0,False,,230.7541798968333,[],"[960, 540]",ColorTask,60.0,92.0,,,HRV,HRV_0074,2022-11-30 17:58:37
,wl-rdm,100,271145,0.0-6.92-0.92,0.0,101.0,,,,,,,[],,,,,,50.0,0.0,i,1.0,False,901.6000000238419,68.0,75.0,40.0,False,,383.4237954756328,[],"[960, 540]",ColorTask,59.0,93.0,,,HRV,HRV_0074,2022-11-30 17:58:37
,wl-rdm,101,273266,0.0-6.93-0.93,0.0,102.0,,,,,,,[],,,,,,53.2,0.0,u,0.0,True,860.9000000953674,65.0,75.0,40.0,False,,202.8730177832053,[],"[960, 540]",ColorTask,60.0,94.0,,,HRV,HRV_0074,2022-11-30 17:58:37
,wl-rdm,102,275240,0.0-6.94-0.94,0.0,103.0,,,,,,,[],,,,,,56.4,0.0,u,0.0,True,586.7000000476837,44.0,75.0,40.0,False,,335.21205257833236,[],"[960, 540]",ColorTask,61.0,95.0,,,HRV,HRV_0074,2022-11-30 17:58:37
,wl-rdm,103,277494,0.0-6.95-0.95,0.0,104.0,,,,,,,[],,,,,,53.2,0.0,u,0.0,True,964.3000000715256,73.0,75.0,40.0,False,,239.91891406252708,[],"[960, 540]",ColorTask,62.0,96.0,,,HRV,HRV_0074,2022-11-30 17:58:37
,wl-rdm,104,279642,0.0-6.96-0.96,0.0,105.0,,,,,,,[],,,,,,87.9,1.0,i,1.0,True,701.1000000238419,53.0,75.0,40.0,False,,396.0551627871522,[],"[960, 540]",ColorTask,63.0,97.0,,,HRV,HRV_0074,2022-11-30 17:58:37
,wl-rdm,105,281749,0.0-6.97-0.97,0.0,106.0,,,,,,,[],,,,,,56.4,0.0,i,1.0,False,827.7000000476837,63.0,75.0,40.0,False,,217.62255388371858,[],"[960, 540]",ColorTask,62.0,98.0,,,HRV,HRV_0074,2022-11-30 17:58:37
,wl-rdm,106,283977,0.0-6.98-0.98,0.0,107.0,,,,,,,[],,,,,,56.4,0.0,u,0.0,True,968.2000000476837,73.0,75.0,40.0,False,,202.96464613756393,[],"[960, 540]",ColorTask,63.0,99.0,,,HRV,HRV_0074,2022-11-30 17:58:37
,wl-rdm,107,285844,0.0-6.99-0.99,0.0,108.0,,,,,,,[],,,,,,87.9,0.0,u,0.0,True,600.8999999761581,46.0,75.0,40.0,False,,205.42459200638652,[],"[960, 540]",ColorTask,64.0,100.0,,,HRV,HRV_0074,2022-11-30 17:58:37
,wl-rdm,108,287938,0.0-6.100-0.100,0.0,109.0,,,,,,,[],,,,,,73.6,0.0,u,0.0,True,704.7000000476837,53.0,75.0,40.0,False,,335.65072685260213,[],"[960, 540]",ColorTask,65.0,101.0,,,HRV,HRV_0074,2022-11-30 17:58:37
,wl-rdm,109,290379,0.0-6.101-0.101,0.0,110.0,,,,,,,[],,,,,,50.0,0.0,i,1.0,False,1147.8000000715256,87.0,75.0,40.0,False,,240.08163541763193,[],"[960, 540]",ColorTask,64.0,102.0,,,HRV,HRV_0074,2022-11-30 17:58:37
,wl-rdm,110,292673,0.0-6.102-0.102,0.0,111.0,,,,,,,[],,,,,,50.0,0.0,i,1.0,False,1006.3999999761581,76.0,75.0,40.0,False,,229.38794517350215,[],"[960, 540]",ColorTask,63.0,103.0,,,HRV,HRV_0074,2022-11-30 17:58:37
,wl-rdm,111,295127,0.0-6.103-0.103,0.0,112.0,,,,,,,[],,,,,,56.4,1.0,i,1.0,True,1015.8999999761581,77.0,75.0,40.0,False,,383.9479573366434,[],"[960, 540]",ColorTask,64.0,104.0,,,HRV,HRV_0074,2022-11-30 17:58:37
,wl-rdm,112,297261,0.0-6.104-0.104,0.0,113.0,,,,,,,[],,,,,,73.6,0.0,u,0.0,True,789.7000000476837,60.0,75.0,40.0,False,,291.65056576140705,[],"[960, 540]",ColorTask,65.0,105.0,,,HRV,HRV_0074,2022-11-30 17:58:37
,wl-rdm,113,299249,0.0-6.105-0.105,0.0,114.0,,,,,,,[],,,,,,87.9,1.0,i,1.0,True,712.2000000476837,54.0,75.0,40.0,False,,226.13383331319113,[],"[960, 540]",ColorTask,66.0,106.0,,,HRV,HRV_0074,2022-11-30 17:58:37
,wl-rdm,114,301183,0.0-6.106-0.106,0.0,115.0,,,,,,,[],,,,,,87.9,1.0,i,1.0,True,659.8000000715256,50.0,75.0,40.0,False,,214.53592677868912,[],"[960, 540]",ColorTask,67.0,107.0,,,HRV,HRV_0074,2022-11-30 17:58:37
,wl-rdm,115,303504,0.0-6.107-0.107,0.0,116.0,,,,,,,[],,,,,,56.4,0.0,u,0.0,True,1001.2999999523163,76.0,75.0,40.0,False,,263.1683243881913,[],"[960, 540]",ColorTask,68.0,108.0,,,HRV,HRV_0074,2022-11-30 17:58:37
,wl-html-keyboard-response,116,313547,0.0-7.0-0.0,1.0,117.0,,,,,,,,8036.199999928474,1.0,0,,,,,,,,,,,,,,,,,,,,,,HRV,HRV_0074,2022-11-30 17:58:37
,wl-rdm,117,315882,0.0-8.0-0.0,1.0,118.0,,,,,,,[],,,,,,53.2,0.0,i,1.0,False,937.2000000476837,71.0,75.0,40.0,False,,335.4377894633815,[],"[960, 540]",ColorTask,67.0,1.0,,,HRV,HRV_0074,2022-11-30 17:58:37
,wl-rdm,118,318002,0.0-8.1-0.1,1.0,119.0,,,,,,,[],,,,,,73.6,0.0,u,0.0,True,826.2999999523163,62.0,75.0,40.0,False,,252.5138590213163,[],"[960, 540]",ColorTask,68.0,2.0,,,HRV,HRV_0074,2022-11-30 17:58:37
,wl-rdm,119,320363,0.0-8.2-0.2,1.0,120.0,,,,,,,[],,,,,,50.0,0.0,u,0.0,True,945.4999998807907,71.0,75.0,40.0,False,,372.0430445608554,[],"[960, 540]",ColorTask,69.0,3.0,,,HRV,HRV_0074,2022-11-30 17:58:37
,wl-rdm,120,322417,0.0-8.3-0.3,1.0,121.0,,,,,,,[],,,,,,73.6,1.0,i,1.0,True,768.3000000715256,58.0,75.0,40.0,False,,239.43594215161266,[],"[960, 540]",ColorTask,70.0,4.0,,,HRV,HRV_0074,2022-11-30 17:58:37
,wl-rdm,121,324617,0.0-8.4-0.4,1.0,122.0,,,,,,,[],,,,,,73.6,1.0,i,1.0,True,775.6000000238419,59.0,75.0,40.0,False,,364.37365990748276,[],"[960, 540]",ColorTask,71.0,5.0,,,HRV,HRV_0074,2022-11-30 17:58:37
,wl-rdm,122,326845,0.0-8.5-0.5,1.0,123.0,,,,,,,[],,,,,,56.4,1.0,u,0.0,False,836.8999999761581,63.0,75.0,40.0,False,,322.85402358803924,[],"[960, 540]",ColorTask,70.0,6.0,,,HRV,HRV_0074,2022-11-30 17:58:37
,wl-rdm,123,328832,0.0-8.6-0.6,1.0,124.0,,,,,,,[],,,,,,62.5,1.0,i,1.0,True,682.6000000238419,52.0,75.0,40.0,False,,246.9730352719629,[],"[960, 540]",ColorTask,71.0,7.0,,,HRV,HRV_0074,2022-11-30 17:58:37
,wl-rdm,124,330806,0.0-8.7-0.7,1.0,125.0,,,,,,,[],,,,,,62.5,0.0,u,0.0,True,696.6000000238419,53.0,75.0,40.0,False,,216.44132606049064,[],"[960, 540]",ColorTask,72.0,8.0,,,HRV,HRV_0074,2022-11-30 17:58:37
,wl-rdm,125,332914,0.0-8.8-0.8,1.0,126.0,,,,,,,[],,,,,,56.4,0.0,i,1.0,False,832.7999999523163,63.0,75.0,40.0,False,,226.67379253919637,[],"[960, 540]",ColorTask,71.0,9.0,,,HRV,HRV_0074,2022-11-30 17:58:37
,wl-rdm,126,335221,0.0-8.9-0.9,1.0,127.0,,,,,,,[],,,,,,62.5,1.0,i,1.0,True,915.2000000476837,69.0,75.0,40.0,False,,333.6063431632174,[],"[960, 540]",ColorTask,72.0,10.0,,,HRV,HRV_0074,2022-11-30 17:58:37
,wl-rdm,127,337155,0.0-8.10-0.10,1.0,128.0,,,,,,,[],,,,,,87.9,0.0,u,0.0,True,644.3999999761581,49.0,75.0,40.0,False,,229.51329496335237,[],"[960, 540]",ColorTask,73.0,11.0,,,HRV,HRV_0074,2022-11-30 17:58:37
,wl-rdm,128,339129,0.0-8.11-0.11,1.0,129.0,,,,,,,[],,,,,,73.6,0.0,u,0.0,True,698.5,53.0,75.0,40.0,False,,226.77469425762592,[],"[960, 540]",ColorTask,74.0,12.0,,,HRV,HRV_0074,2022-11-30 17:58:37
,wl-rdm,129,341130,0.0-8.12-0.12,1.0,130.0,,,,,,,[],,,,,,53.2,1.0,i,1.0,True,698.7999999523163,53.0,75.0,40.0,False,,243.72882332499896,[],"[960, 540]",ColorTask,75.0,13.0,,,HRV,HRV_0074,2022-11-30 17:58:37
,wl-rdm,130,343317,0.0-8.13-0.13,1.0,131.0,,,,,,,[],,,,,,50.0,1.0,i,1.0,True,901.6000000238419,68.0,75.0,40.0,False,,229.48673938037714,[],"[960, 540]",ColorTask,76.0,14.0,,,HRV,HRV_0074,2022-11-30 17:58:37
,wl-rdm,131,345692,0.0-8.14-0.14,1.0,132.0,,,,,,,[],,,,,,50.0,0.0,i,1.0,False,1111.0999999046326,84.0,75.0,40.0,False,,202.39469007067498,[],"[960, 540]",ColorTask,75.0,15.0,,,HRV,HRV_0074,2022-11-30 17:58:37
,wl-rdm,132,347892,0.0-8.15-0.15,1.0,133.0,,,,,,,[],,,,,,56.4,0.0,u,0.0,True,906.3999999761581,68.0,75.0,40.0,False,,244.2418208381793,[],"[960, 540]",ColorTask,76.0,16.0,,,HRV,HRV_0074,2022-11-30 17:58:37
,wl-rdm,133,349973,0.0-8.16-0.16,1.0,134.0,,,,,,,[],,,,,,87.9,0.0,u,0.0,True,812.3999998569489,61.0,75.0,40.0,False,,215.5553614528292,[],"[960, 540]",ColorTask,77.0,17.0,,,HRV,HRV_0074,2022-11-30 17:58:37
,wl-rdm,134,352081,0.0-8.17-0.17,1.0,135.0,,,,,,,[],,,,,,53.2,0.0,u,0.0,True,751.5,57.0,75.0,40.0,False,,305.15302701462485,[],"[960, 540]",ColorTask,78.0,18.0,,,HRV,HRV_0074,2022-11-30 17:58:37
,wl-rdm,135,354108,0.0-8.18-0.18,1.0,136.0,,,,,,,[],,,,,,87.9,1.0,i,1.0,True,660.8000000715256,50.0,75.0,40.0,False,,316.4947218650545,[],"[960, 540]",ColorTask,79.0,19.0,,,HRV,HRV_0074,2022-11-30 17:58:37
,wl-rdm,136,356176,0.0-8.19-0.19,1.0,137.0,,,,,,,[],,,,,,53.2,1.0,i,1.0,True,796.7000000476837,60.0,75.0,40.0,False,,217.18713003413802,[],"[960, 540]",ColorTask,80.0,20.0,,,HRV,HRV_0074,2022-11-30 17:58:37
,wl-rdm,137,358110,0.0-8.20-0.20,1.0,138.0,,,,,,,[],,,,,,62.5,0.0,u,0.0,True,650.8999999761581,49.0,75.0,40.0,False,,227.19975313819572,[],"[960, 540]",ColorTask,81.0,21.0,,,HRV,HRV_0074,2022-11-30 17:58:37
,wl-rdm,138,360230,0.0-8.21-0.21,1.0,139.0,,,,,,,[],,,,,,50.0,0.0,u,0.0,True,810.1000000238419,61.0,75.0,40.0,False,,257.36176396871923,[],"[960, 540]",ColorTask,82.0,22.0,,,HRV,HRV_0074,2022-11-30 17:58:37
,wl-rdm,139,362365,0.0-8.22-0.22,1.0,140.0,,,,,,,[],,,,,,56.4,1.0,u,0.0,False,846.1000000238419,64.0,75.0,40.0,False,,232.96697990385826,[],"[960, 540]",ColorTask,81.0,23.0,,,HRV,HRV_0074,2022-11-30 17:58:37
,wl-rdm,140,364339,0.0-8.23-0.23,1.0,141.0,,,,,,,[],,,,,,62.5,1.0,i,1.0,True,722.2999999523163,55.0,75.0,40.0,False,,200.12674993092165,[],"[960, 540]",ColorTask,82.0,24.0,,,HRV,HRV_0074,2022-11-30 17:58:37
,wl-rdm,141,366286,0.0-8.24-0.24,1.0,142.0,,,,,,,[],,,,,,87.9,1.0,i,1.0,True,671.2999999523163,51.0,75.0,40.0,False,,226.1091865235662,[],"[960, 540]",ColorTask,83.0,25.0,,,HRV,HRV_0074,2022-11-30 17:58:37
,wl-rdm,142,368433,0.0-8.25-0.25,1.0,143.0,,,,,,,[],,,,,,53.2,0.0,i,1.0,False,855.6000000238419,65.0,75.0,40.0,False,,229.08490302221887,[],"[960, 540]",ColorTask,82.0,26.0,,,HRV,HRV_0074,2022-11-30 17:58:37
,wl-rdm,143,370634,0.0-8.26-0.26,1.0,144.0,,,,,,,[],,,,,,73.6,1.0,i,1.0,True,753.8999999761581,57.0,75.0,40.0,False,,391.62725962495523,[],"[960, 540]",ColorTask,83.0,27.0,,,HRV,HRV_0074,2022-11-30 17:58:37
,wl-rdm,144,372888,0.0-8.27-0.27,1.0,145.0,,,,,,,[],,,,,,53.2,1.0,i,1.0,True,986.7000000476837,74.0,75.0,40.0,False,,215.2166332400084,[],"[960, 540]",ColorTask,84.0,28.0,,,HRV,HRV_0074,2022-11-30 17:58:37
,wl-rdm,145,375236,0.0-8.28-0.28,1.0,146.0,,,,,,,[],,,,,,56.4,0.0,u,0.0,True,939.3000000715256,71.0,75.0,40.0,False,,355.27035881720644,[],"[960, 540]",ColorTask,85.0,29.0,,,HRV,HRV_0074,2022-11-30 17:58:37
,wl-rdm,146,377370,0.0-8.29-0.29,1.0,147.0,,,,,,,[],,,,,,87.9,1.0,i,1.0,True,734.8999999761581,56.0,75.0,40.0,False,,338.0082411106854,[],"[960, 540]",ColorTask,86.0,30.0,,,HRV,HRV_0074,2022-11-30 17:58:37
,wl-rdm,147,379304,0.0-8.30-0.30,1.0,148.0,,,,,,,[],,,,,,73.6,1.0,i,1.0,True,679.1000000238419,51.0,75.0,40.0,False,,200.79663726481513,[],"[960, 540]",ColorTask,87.0,31.0,,,HRV,HRV_0074,2022-11-30 17:58:37
,wl-rdm,148,381625,0.0-8.31-0.31,1.0,149.0,,,,,,,[],,,,,,53.2,0.0,u,0.0,True,945.2000000476837,71.0,75.0,40.0,False,,321.24806117780383,[],"[960, 540]",ColorTask,88.0,32.0,,,HRV,HRV_0074,2022-11-30 17:58:37
,wl-rdm,149,383746,0.0-8.32-0.32,1.0,150.0,,,,,,,[],,,,,,73.6,0.0,u,0.0,True,707.9000000953674,54.0,75.0,40.0,False,,353.93730112856076,[],"[960, 540]",ColorTask,89.0,33.0,,,HRV,HRV_0074,2022-11-30 17:58:37
,wl-rdm,150,385787,0.0-8.33-0.33,1.0,151.0,,,,,,,[],,,,,,73.6,1.0,i,1.0,True,747.5999999046326,57.0,75.0,40.0,False,,231.78754595118812,[],"[960, 540]",ColorTask,90.0,34.0,,,HRV,HRV_0074,2022-11-30 17:58:37
,wl-rdm,151,387868,0.0-8.34-0.34,1.0,152.0,,,,,,,[],,,,,,50.0,0.0,i,1.0,False,777.8000000715256,59.0,75.0,40.0,False,,247.4456071746702,[],"[960, 540]",ColorTask,89.0,35.0,,,HRV,HRV_0074,2022-11-30 17:58:37
,wl-rdm,152,389935,0.0-8.35-0.35,1.0,153.0,,,,,,,[],,,,,,56.4,0.0,u,0.0,True,748.8000000715256,57.0,75.0,40.0,False,,257.6246690441525,[],"[960, 540]",ColorTask,90.0,36.0,,,HRV,HRV_0074,2022-11-30 17:58:37
,wl-rdm,153,392216,0.0-8.36-0.36,1.0,154.0,,,,,,,[],,,,,,62.5,0.0,u,0.0,True,827.9999998807907,63.0,75.0,40.0,False,,394.44015046593006,[],"[960, 540]",ColorTask,91.0,37.0,,,HRV,HRV_0074,2022-11-30 17:58:37
,wl-rdm,154,394083,0.0-8.37-0.37,1.0,155.0,,,,,,,[],,,,,,87.9,0.0,u,0.0,True,568.5,43.0,75.0,40.0,False,,245.65634298924053,[],"[960, 540]",ColorTask,92.0,38.0,,,HRV,HRV_0074,2022-11-30 17:58:37
,wl-rdm,155,396511,0.0-8.38-0.38,1.0,156.0,,,,,,,[],,,,,,56.4,1.0,i,1.0,True,1055.0,80.0,75.0,40.0,False,,315.78638923332005,[],"[960, 540]",ColorTask,93.0,39.0,,,HRV,HRV_0074,2022-11-30 17:58:37
,wl-rdm,156,398765,0.0-8.39-0.39,1.0,157.0,,,,,,,[],,,,,,50.0,0.0,i,1.0,False,833.7000000476837,63.0,75.0,40.0,False,,363.7577393531035,[],"[960, 540]",ColorTask,92.0,40.0,,,HRV,HRV_0074,2022-11-30 17:58:37
,wl-rdm,157,401193,0.0-8.40-0.40,1.0,158.0,,,,,,,[],,,,,,56.4,1.0,i,1.0,True,1050.7000000476837,79.0,75.0,40.0,False,,331.5277105765123,[],"[960, 540]",ColorTask,93.0,41.0,,,HRV,HRV_0074,2022-11-30 17:58:37
,wl-rdm,158,403660,0.0-8.41-0.41,1.0,159.0,,,,,,,[],,,,,,50.0,1.0,u,0.0,False,1029.7999999523163,78.0,75.0,40.0,False,,378.1257921320198,[],"[960, 540]",ColorTask,92.0,42.0,,,HRV,HRV_0074,2022-11-30 17:58:37
,wl-rdm,159,405581,0.0-8.42-0.42,1.0,160.0,,,,,,,[],,,,,,87.9,1.0,i,1.0,True,655.6000000238419,50.0,75.0,40.0,False,,207.94375015181984,[],"[960, 540]",ColorTask,93.0,43.0,,,HRV,HRV_0074,2022-11-30 17:58:37
,wl-rdm,160,407955,0.0-8.43-0.43,1.0,161.0,,,,,,,[],,,,,,53.2,1.0,u,0.0,False,1096.7999999523163,83.0,75.0,40.0,False,,218.8411845300352,[],"[960, 540]",ColorTask,92.0,44.0,,,HRV,HRV_0074,2022-11-30 17:58:37
,wl-rdm,161,409982,0.0-8.44-0.44,1.0,162.0,,,,,,,[],,,,,,73.6,0.0,u,0.0,True,694.3999999761581,53.0,75.0,40.0,False,,277.7147943441751,[],"[960, 540]",ColorTask,93.0,45.0,,,HRV,HRV_0074,2022-11-30 17:58:37
,wl-rdm,162,412157,0.0-8.45-0.45,1.0,163.0,,,,,,,[],,,,,,62.5,1.0,i,1.0,True,820.0,62.0,75.0,40.0,False,,294.48661549575934,[],"[960, 540]",ColorTask,94.0,46.0,,,HRV,HRV_0074,2022-11-30 17:58:37
,wl-rdm,163,414357,0.0-8.46-0.46,1.0,164.0,,,,,,,[],,,,,,50.0,1.0,u,0.0,False,899.0999999046326,68.0,75.0,40.0,False,,251.8020395490143,[],"[960, 540]",ColorTask,93.0,47.0,,,HRV,HRV_0074,2022-11-30 17:58:37
,wl-rdm,164,416505,0.0-8.47-0.47,1.0,165.0,,,,,,,[],,,,,,87.9,0.0,u,0.0,True,728.2000000476837,55.0,75.0,40.0,False,,364.9526042160883,[],"[960, 540]",ColorTask,94.0,48.0,,,HRV,HRV_0074,2022-11-30 17:58:37
,wl-rdm,165,418559,0.0-8.48-0.48,1.0,166.0,,,,,,,[],,,,,,56.4,1.0,i,1.0,True,742.7000000476837,56.0,75.0,40.0,False,,260.0997194856718,[],"[960, 540]",ColorTask,95.0,49.0,,,HRV,HRV_0074,2022-11-30 17:58:37
,wl-rdm,166,420880,0.0-8.49-0.49,1.0,167.0,,,,,,,[],,,,,,62.5,1.0,i,1.0,True,928.2999999523163,70.0,75.0,40.0,False,,342.82241363996116,[],"[960, 540]",ColorTask,96.0,50.0,,,HRV,HRV_0074,2022-11-30 17:58:37
,wl-rdm,167,422961,0.0-8.50-0.50,1.0,168.0,,,,,,,[],,,,,,73.6,0.0,u,0.0,True,735.8999999761581,56.0,75.0,40.0,False,,281.0392940117626,[],"[960, 540]",ColorTask,97.0,51.0,,,HRV,HRV_0074,2022-11-30 17:58:37
,wl-rdm,168,425135,0.0-8.51-0.51,1.0,169.0,,,,,,,[],,,,,,50.0,1.0,i,1.0,True,776.7000000476837,59.0,75.0,40.0,False,,345.2237328169074,[],"[960, 540]",ColorTask,98.0,52.0,,,HRV,HRV_0074,2022-11-30 17:58:37
,wl-rdm,169,427282,0.0-8.52-0.52,1.0,170.0,,,,,,,[],,,,,,87.9,1.0,i,1.0,True,841.1000000238419,64.0,75.0,40.0,False,,245.97483089719339,[],"[960, 540]",ColorTask,99.0,53.0,,,HRV,HRV_0074,2022-11-30 17:58:37
,wl-rdm,170,429536,0.0-8.53-0.53,1.0,171.0,,,,,,,[],,,,,,53.2,1.0,i,1.0,True,905.3000000715256,68.0,75.0,40.0,False,,304.2900202370529,[],"[960, 540]",ColorTask,100.0,54.0,,,HRV,HRV_0074,2022-11-30 17:58:37
,wl-rdm,171,432057,0.0-8.54-0.54,1.0,172.0,,,,,,,[],,,,,,50.0,1.0,u,0.0,False,1247.2000000476837,94.0,75.0,40.0,False,,218.26983739488537,[],"[960, 540]",ColorTask,99.0,55.0,,,HRV,HRV_0074,2022-11-30 17:58:37
,wl-rdm,172,434458,0.0-8.55-0.55,1.0,173.0,,,,,,,[],,,,,,50.0,1.0,u,0.0,False,1006.0,76.0,75.0,40.0,False,,339.4948831299325,[],"[960, 540]",ColorTask,98.0,56.0,,,HRV,HRV_0074,2022-11-30 17:58:37
,wl-rdm,173,436686,0.0-8.56-0.56,1.0,174.0,,,,,,,[],,,,,,56.4,0.0,u,0.0,True,813.5999999046326,61.0,75.0,40.0,False,,364.5804672303865,[],"[960, 540]",ColorTask,99.0,57.0,,,HRV,HRV_0074,2022-11-30 17:58:37
,wl-rdm,174,439126,0.0-8.57-0.57,1.0,175.0,,,,,,,[],,,,,,56.4,0.0,u,0.0,True,1056.1000000238419,80.0,75.0,40.0,False,,322.19066123509987,[],"[960, 540]",ColorTask,100.0,58.0,,,HRV,HRV_0074,2022-11-30 17:58:37
,wl-rdm,175,441834,0.0-8.58-0.58,1.0,176.0,,,,,,,[],,,,,,56.4,1.0,i,1.0,True,1397.2000000476837,105.0,75.0,40.0,False,,262.59875950231793,[],"[960, 540]",ColorTask,101.0,59.0,,,HRV,HRV_0074,2022-11-30 17:58:37
,wl-rdm,176,443835,0.0-8.59-0.59,1.0,177.0,,,,,,,[],,,,,,87.9,0.0,u,0.0,True,689.2000000476837,52.0,75.0,40.0,False,,263.26326155882805,[],"[960, 540]",ColorTask,102.0,60.0,,,HRV,HRV_0074,2022-11-30 17:58:37
,wl-rdm,177,446116,0.0-8.60-0.60,1.0,178.0,,,,,,,[],,,,,,62.5,1.0,i,1.0,True,1003.3999999761581,76.0,75.0,40.0,False,,215.30815977581022,[],"[960, 540]",ColorTask,103.0,61.0,,,HRV,HRV_0074,2022-11-30 17:58:37
,wl-rdm,178,448383,0.0-8.61-0.61,1.0,179.0,,,,,,,[],,,,,,53.2,1.0,i,1.0,True,824.3999999761581,62.0,75.0,40.0,False,,394.5466803561827,[],"[960, 540]",ColorTask,104.0,62.0,,,HRV,HRV_0074,2022-11-30 17:58:37
,wl-rdm,179,450371,0.0-8.62-0.62,1.0,180.0,,,,,,,[],,,,,,73.6,0.0,u,0.0,True,710.1000000238419,54.0,75.0,40.0,False,,213.71100142716278,[],"[960, 540]",ColorTask,105.0,63.0,,,HRV,HRV_0074,2022-11-30 17:58:37
,wl-rdm,180,452371,0.0-8.63-0.63,1.0,181.0,,,,,,,[],,,,,,73.6,0.0,u,0.0,True,674.6000000238419,51.0,75.0,40.0,False,,275.687890750647,[],"[960, 540]",ColorTask,106.0,64.0,,,HRV,HRV_0074,2022-11-30 17:58:37
,wl-rdm,181,454599,0.0-8.64-0.64,1.0,182.0,,,,,,,[],,,,,,50.0,0.0,u,0.0,True,792.2000000476837,60.0,75.0,40.0,False,,385.87543624928526,[],"[960, 540]",ColorTask,107.0,65.0,,,HRV,HRV_0074,2022-11-30 17:58:37
,wl-rdm,182,456880,0.0-8.65-0.65,1.0,183.0,,,,,,,[],,,,,,53.2,1.0,i,1.0,True,942.7999999523163,71.0,75.0,40.0,False,,287.4498390262915,[],"[960, 540]",ColorTask,108.0,66.0,,,HRV,HRV_0074,2022-11-30 17:58:37
,wl-rdm,183,459454,0.0-8.66-0.66,1.0,184.0,,,,,,,[],,,,,,56.4,0.0,u,0.0,True,1317.0,99.0,75.0,40.0,False,,204.9147962351775,[],"[960, 540]",ColorTask,109.0,67.0,,,HRV,HRV_0074,2022-11-30 17:58:37
,wl-rdm,184,461788,0.0-8.67-0.67,1.0,185.0,,,,,,,[],,,,,,62.5,1.0,i,1.0,True,998.8000000715256,75.0,75.0,40.0,False,,289.47621462607003,[],"[960, 540]",ColorTask,110.0,68.0,,,HRV,HRV_0074,2022-11-30 17:58:37
,wl-rdm,185,464122,0.0-8.68-0.68,1.0,186.0,,,,,,,[],,,,,,62.5,0.0,u,0.0,True,1079.7999999523163,81.0,75.0,40.0,False,,204.30815530634393,[],"[960, 540]",ColorTask,111.0,69.0,,,HRV,HRV_0074,2022-11-30 17:58:37
,wl-rdm,186,466203,0.0-8.69-0.69,1.0,187.0,,,,,,,[],,,,,,73.6,1.0,i,1.0,True,812.0,61.0,75.0,40.0,False,,217.62887631873684,[],"[960, 540]",ColorTask,112.0,70.0,,,HRV,HRV_0074,2022-11-30 17:58:37
,wl-rdm,187,468350,0.0-8.70-0.70,1.0,188.0,,,,,,,[],,,,,,62.5,0.0,u,0.0,True,876.3999999761581,66.0,75.0,40.0,False,,219.46943228216912,[],"[960, 540]",ColorTask,113.0,71.0,,,HRV,HRV_0074,2022-11-30 17:58:37
,wl-rdm,188,470965,0.0-8.71-0.71,1.0,189.0,,,,,,,[],,,,,,56.4,1.0,u,0.0,False,1277.2000000476837,96.0,75.0,40.0,False,,281.90005133877503,[],"[960, 540]",ColorTask,112.0,72.0,,,HRV,HRV_0074,2022-11-30 17:58:37
,wl-rdm,189,473179,0.0-8.72-0.72,1.0,190.0,,,,,,,[],,,,,,87.9,1.0,i,1.0,True,771.3000000715256,58.0,75.0,40.0,False,,396.8059022230517,[],"[960, 540]",ColorTask,113.0,73.0,,,HRV,HRV_0074,2022-11-30 17:58:37
,wl-rdm,190,475500,0.0-8.73-0.73,1.0,191.0,,,,,,,[],,,,,,53.2,0.0,i,1.0,False,872.2000000476837,66.0,75.0,40.0,False,,393.0332412055226,[],"[960, 540]",ColorTask,112.0,74.0,,,HRV,HRV_0074,2022-11-30 17:58:37
,wl-rdm,191,478167,0.0-8.74-0.74,1.0,192.0,,,,,,,[],,,,,,50.0,0.0,u,0.0,True,1372.7999999523163,103.0,75.0,40.0,False,,249.79754299063057,[],"[960, 540]",ColorTask,113.0,75.0,,,HRV,HRV_0074,2022-11-30 17:58:37
,wl-rdm,192,480675,0.0-8.75-0.75,1.0,193.0,,,,,,,[],,,,,,56.4,1.0,u,0.0,False,1183.5,89.0,75.0,40.0,False,,274.15862361143286,[],"[960, 540]",ColorTask,112.0,76.0,,,HRV,HRV_0074,2022-11-30 17:58:37
,wl-rdm,193,483036,0.0-8.76-0.76,1.0,194.0,,,,,,,[],,,,,,53.2,0.0,u,0.0,True,969.1999999284744,73.0,75.0,40.0,False,,344.1954297099692,[],"[960, 540]",ColorTask,113.0,77.0,,,HRV,HRV_0074,2022-11-30 17:58:37
,wl-rdm,194,485877,0.0-8.77-0.77,1.0,195.0,,,,,,,[],,,,,,53.2,0.0,i,1.0,False,1541.8999999761581,116.0,75.0,40.0,False,,242.94035560350667,[],"[960, 540]",ColorTask,112.0,78.0,,,HRV,HRV_0074,2022-11-30 17:58:37
,wl-rdm,195,488064,0.0-8.78-0.78,1.0,196.0,,,,,,,[],,,,,,87.9,0.0,u,0.0,True,819.0999999046326,62.0,75.0,40.0,False,,309.88534738842736,[],"[960, 540]",ColorTask,113.0,79.0,,,HRV,HRV_0074,2022-11-30 17:58:37
,wl-rdm,196,490238,0.0-8.79-0.79,1.0,197.0,,,,,,,[],,,,,,73.6,1.0,i,1.0,True,900.0,68.0,75.0,40.0,False,,220.386298971967,[],"[960, 540]",ColorTask,114.0,80.0,,,HRV,HRV_0074,2022-11-30 17:58:37
,wl-rdm,197,492546,0.0-8.80-0.80,1.0,198.0,,,,,,,[],,,,,,56.4,0.0,i,1.0,False,970.1000000238419,73.0,75.0,40.0,False,,281.5614474317227,[],"[960, 540]",ColorTask,113.0,81.0,,,HRV,HRV_0074,2022-11-30 17:58:37
,wl-rdm,198,494640,0.0-8.81-0.81,1.0,199.0,,,,,,,[],,,,,,87.9,0.0,u,0.0,True,787.8000000715256,60.0,75.0,40.0,False,,248.3771049932144,[],"[960, 540]",ColorTask,114.0,82.0,,,HRV,HRV_0074,2022-11-30 17:58:37
,wl-rdm,199,496627,0.0-8.82-0.82,1.0,200.0,,,,,,,[],,,,,,87.9,0.0,u,0.0,True,670.2000000476837,51.0,75.0,40.0,False,,264.14303894283785,[],"[960, 540]",ColorTask,115.0,83.0,,,HRV,HRV_0074,2022-11-30 17:58:37
,wl-rdm,200,498642,0.0-8.83-0.83,1.0,201.0,,,,,,,[],,,,,,87.9,1.0,i,1.0,True,671.1000000238419,51.0,75.0,40.0,False,,292.5219405884809,[],"[960, 540]",ColorTask,116.0,84.0,,,HRV,HRV_0074,2022-11-30 17:58:37
,wl-rdm,201,501242,0.0-8.84-0.84,1.0,202.0,,,,,,,[],,,,,,53.2,1.0,u,0.0,False,1310.299999833107,99.0,75.0,40.0,False,,235.23174493135934,[],"[960, 540]",ColorTask,115.0,85.0,,,HRV,HRV_0074,2022-11-30 17:58:37
,wl-rdm,202,503403,0.0-8.85-0.85,1.0,203.0,,,,,,,[],,,,,,53.2,1.0,i,1.0,True,869.3999999761581,66.0,75.0,40.0,False,,231.34413586835166,[],"[960, 540]",ColorTask,116.0,86.0,,,HRV,HRV_0074,2022-11-30 17:58:37
,wl-rdm,203,505671,0.0-8.86-0.86,1.0,204.0,,,,,,,[],,,,,,73.6,0.0,u,0.0,True,957.1000000238419,72.0,75.0,40.0,False,,266.43658364968303,[],"[960, 540]",ColorTask,117.0,87.0,,,HRV,HRV_0074,2022-11-30 17:58:37
,wl-rdm,204,508619,0.0-8.87-0.87,1.0,205.0,,,,,,,[],,,,,,50.0,0.0,u,0.0,True,1634.6000000238419,123.0,75.0,40.0,False,,265.306350844355,[],"[960, 540]",ColorTask,118.0,88.0,,,HRV,HRV_0074,2022-11-30 17:58:37
,wl-rdm,205,511100,0.0-8.88-0.88,1.0,206.0,,,,,,,[],,,,,,50.0,1.0,i,1.0,True,1113.5,84.0,75.0,40.0,False,,307.7630984191252,[],"[960, 540]",ColorTask,119.0,89.0,,,HRV,HRV_0074,2022-11-30 17:58:37
,wl-rdm,206,513180,0.0-8.89-0.89,1.0,207.0,,,,,,,[],,,,,,87.9,0.0,u,0.0,True,810.8999999761581,61.0,75.0,40.0,False,,225.04095834539902,[],"[960, 540]",ColorTask,120.0,90.0,,,HRV,HRV_0074,2022-11-30 17:58:37
,wl-rdm,207,515288,0.0-8.90-0.90,1.0,208.0,,,,,,,[],,,,,,87.9,1.0,i,1.0,True,706.6000000238419,53.0,75.0,40.0,False,,352.7841015140988,[],"[960, 540]",ColorTask,121.0,91.0,,,HRV,HRV_0074,2022-11-30 17:58:37
,wl-rdm,208,517875,0.0-8.91-0.91,1.0,209.0,,,,,,,[],,,,,,50.0,1.0,u,0.0,False,1165.9999998807907,88.0,75.0,40.0,False,,367.5887109238896,[],"[960, 540]",ColorTask,120.0,92.0,,,HRV,HRV_0074,2022-11-30 17:58:37
,wl-rdm,209,520103,0.0-8.92-0.92,1.0,210.0,,,,,,,[],,,,,,87.9,1.0,i,1.0,True,790.1000000238419,60.0,75.0,40.0,False,,377.0617054383598,[],"[960, 540]",ColorTask,121.0,93.0,,,HRV,HRV_0074,2022-11-30 17:58:37
,wl-rdm,210,522317,0.0-8.93-0.93,1.0,211.0,,,,,,,[],,,,,,62.5,1.0,i,1.0,True,871.7999999523163,66.0,75.0,40.0,False,,286.9346170955614,[],"[960, 540]",ColorTask,122.0,94.0,,,HRV,HRV_0074,2022-11-30 17:58:37
,wl-rdm,211,525425,0.0-8.94-0.94,1.0,212.0,,,,,,,[],,,,,,53.2,0.0,i,1.0,False,1679.5,126.0,75.0,40.0,False,,374.1710029814081,[],"[960, 540]",ColorTask,121.0,95.0,,,HRV,HRV_0074,2022-11-30 17:58:37
,wl-rdm,212,528826,0.0-8.95-0.95,1.0,213.0,,,,,,,[],,,,,,50.0,0.0,i,1.0,False,1993.1000000238419,150.0,75.0,40.0,False,,351.6883447385732,[],"[960, 540]",ColorTask,120.0,96.0,,,HRV,HRV_0074,2022-11-30 17:58:37
,wl-rdm,213,531894,0.0-8.96-0.96,1.0,214.0,,,,,,,[],,,,,,56.4,1.0,u,0.0,False,1675.5,126.0,75.0,40.0,False,,337.20980713635635,[],"[960, 540]",ColorTask,119.0,97.0,,,HRV,HRV_0074,2022-11-30 17:58:37
,wl-rdm,214,534428,0.0-8.97-0.97,1.0,215.0,,,,,,,[],,,,,,62.5,0.0,u,0.0,True,1262.5,95.0,75.0,40.0,False,,222.1001987500003,[],"[960, 540]",ColorTask,120.0,98.0,,,HRV,HRV_0074,2022-11-30 17:58:37
,wl-rdm,215,536829,0.0-8.98-0.98,1.0,216.0,,,,,,,[],,,,,,62.5,0.0,u,0.0,True,1106.5999999046326,83.0,75.0,40.0,False,,249.48460179495714,[],"[960, 540]",ColorTask,121.0,99.0,,,HRV,HRV_0074,2022-11-30 17:58:37
,wl-rdm,216,539350,0.0-8.99-0.99,1.0,217.0,,,,,,,[],,,,,,62.5,0.0,u,0.0,True,1162.3999999761581,88.0,75.0,40.0,False,,302.6689832127427,[],"[960, 540]",ColorTask,122.0,100.0,,,HRV,HRV_0074,2022-11-30 17:58:37
,wl-rdm,217,541844,0.0-8.100-0.100,1.0,218.0,,,,,,,[],,,,,,62.5,1.0,i,1.0,True,1053.0,79.0,75.0,40.0,False,,398.39617526091126,[],"[960, 540]",ColorTask,123.0,101.0,,,HRV,HRV_0074,2022-11-30 17:58:37
,wl-rdm,218,544205,0.0-8.101-0.101,1.0,219.0,,,,,,,[],,,,,,73.6,1.0,i,1.0,True,1100.7000000476837,83.0,75.0,40.0,False,,203.4946299782632,[],"[960, 540]",ColorTask,124.0,102.0,,,HRV,HRV_0074,2022-11-30 17:58:37
,wl-rdm,219,546846,0.0-8.102-0.102,1.0,220.0,,,,,,,[],,,,,,50.0,1.0,u,0.0,False,1268.1000000238419,96.0,75.0,40.0,False,,318.15166151992634,[],"[960, 540]",ColorTask,123.0,103.0,,,HRV,HRV_0074,2022-11-30 17:58:37
,wl-rdm,220,549634,0.0-8.103-0.103,1.0,221.0,,,,,,,[],,,,,,56.4,0.0,u,0.0,True,1355.2999999523163,102.0,75.0,40.0,False,,374.59042783266204,[],"[960, 540]",ColorTask,124.0,104.0,,,HRV,HRV_0074,2022-11-30 17:58:37
,wl-rdm,221,551781,0.0-8.104-0.104,1.0,222.0,,,,,,,[],,,,,,73.6,0.0,u,0.0,True,766.8999999761581,58.0,75.0,40.0,False,,327.79594500728604,[],"[960, 540]",ColorTask,125.0,105.0,,,HRV,HRV_0074,2022-11-30 17:58:37
,wl-rdm,222,554102,0.0-8.105-0.105,1.0,223.0,,,,,,,[],,,,,,73.6,1.0,i,1.0,True,934.5,71.0,75.0,40.0,False,,322.2837071979386,[],"[960, 540]",ColorTask,126.0,106.0,,,HRV,HRV_0074,2022-11-30 17:58:37
,wl-rdm,223,557330,0.0-8.106-0.106,1.0,224.0,,,,,,,[],,,,,,53.2,0.0,u,0.0,True,1942.2000000476837,146.0,75.0,40.0,False,,240.0869896658386,[],"[960, 540]",ColorTask,127.0,107.0,,,HRV,HRV_0074,2022-11-30 17:58:37
,wl-rdm,224,560157,0.0-8.107-0.107,1.0,225.0,,,,,,,[],,,,,,62.5,0.0,u,0.0,True,1414.7000000476837,107.0,75.0,40.0,False,,352.7562460374857,[],"[960, 540]",ColorTask,128.0,108.0,,,HRV,HRV_0074,2022-11-30 17:58:37
,wl-html-button-response,225,563246,0.0-9.0-0.0,,,,,,,,,,3085.7000000476837,,0,,,,,,,,,,,,,,,,,,,,<h3>End of this session. Thank you!</h3><br>,['Close window'],HRV,HRV_0074,2022-11-30 17:58:37
