trialN,stimuli,trialStartTime,trialStartTime_UNIX,stimulus1,stimulus2,stimulus1Bid,stimulus2Bid,delta,selected,rt,rt_UNIX,rt_perfnow,receivedResponse,rsp,trialEndTime,trialDuration,trialEndTime_UNIX,trialDuration_UNIX,exp,subjectId,date
0,"[{'imgObject': {}, 'id': 'olives', 'src': '/static/foodstim60/olives.jpg', 'key': 'u', 'origWidth': 410, 'origHeight': 410, 'width': 410, 'height': 410, 'widthPercent': 0.45, 'rescaleHeight': False, 'trialN': 0, 'loaded': True, 'loadedTime': 2995.2999999523163, 'positionName': 'LEFT', 'positionCoords': [511.6, 335], 'bid': 7.52}, {'imgObject': {}, 'id': 'steak', 'src': '/static/foodstim60/steak.jpg', 'key': 'i', 'origWidth': 410, 'origHeight': 410, 'width': 410, 'height': 410, 'widthPercent': 0.45, 'rescaleHeight': False, 'trialN': 0, 'loaded': True, 'loadedTime': 3103.899999976158, 'positionName': 'RIGHT', 'positionCoords': [998.4, 335], 'bid': 9.29}]",3597.899999976158,1669829423608,olives,steak,7.52,9.29,1.7699999999999996,steak,1015.5,1016,1016.0,True,i,5132.200000047684,1534.3000000715256,1669829425143,1535,HRV,HRV_0074,2022-11-30 17:35:28
1,"[{'imgObject': {}, 'id': 'Grapes', 'src': '/static/foodstim60/Grapes.jpg', 'key': 'u', 'origWidth': 411, 'origHeight': 411, 'width': 411, 'height': 411, 'widthPercent': 0.45, 'rescaleHeight': False, 'trialN': 1, 'loaded': True, 'loadedTime': 3118.2999999523163, 'positionName': 'LEFT', 'positionCoords': [510.6, 334.5], 'bid': 2.72}, {'imgObject': {}, 'id': 'eggs', 'src': '/static/foodstim60/eggs.jpg', 'key': 'i', 'origWidth': 409, 'origHeight': 409, 'width': 409, 'height': 409, 'widthPercent': 0.45, 'rescaleHeight': False, 'trialN': 1, 'loaded': True, 'loadedTime': 3144.2000000476837, 'positionName': 'RIGHT', 'positionCoords': [998.4, 335.5], 'bid': 4.1}]",5132.299999952316,1669829425143,Grapes,eggs,2.72,4.1,1.3799999999999994,eggs,1305.5,1305,1305.7000000476837,True,i,6955.200000047684,1822.9000000953674,1669829426966,1823,HRV,HRV_0074,2022-11-30 17:35:28
2,"[{'imgObject': {}, 'id': 'blackbeanswithrice', 'src': '/static/foodstim60/blackbeanswithrice.jpg', 'key': 'u', 'origWidth': 410, 'origHeight': 410, 'width': 410, 'height': 410, 'widthPercent': 0.45, 'rescaleHeight': False, 'trialN': 2, 'loaded': True, 'loadedTime': 3179.2999999523163, 'positionName': 'LEFT', 'positionCoords': [511.6, 335], 'bid': 0.97}, {'imgObject': {}, 'id': 'seaweed', 'src': '/static/foodstim60/seaweed.jpg', 'key': 'i', 'origWidth': 410, 'origHeight': 410, 'width': 410, 'height': 410, 'widthPercent': 0.45, 'rescaleHeight': False, 'trialN': 2, 'loaded': True, 'loadedTime': 3185, 'positionName': 'RIGHT', 'positionCoords': [998.4, 335], 'bid': 0.91}]",6955.399999976158,1669829426966,blackbeanswithrice,seaweed,0.97,0.91,-0.05999999999999994,seaweed,1232.8000000715256,1232,1233.2000000476837,True,i,8695.899999976158,1740.5,1669829428705,1739,HRV,HRV_0074,2022-11-30 17:35:28
3,"[{'imgObject': {}, 'id': 'fried eggs', 'src': '/static/foodstim60/fried eggs.jpg', 'key': 'u', 'origWidth': 410, 'origHeight': 410, 'width': 410, 'height': 410, 'widthPercent': 0.45, 'rescaleHeight': False, 'trialN': 3, 'loaded': True, 'loadedTime': 3226.600000023842, 'positionName': 'LEFT', 'positionCoords': [511.6, 335], 'bid': 6.26}, {'imgObject': {}, 'id': 'turkeysandwich', 'src': '/static/foodstim60/turkeysandwich.jpg', 'key': 'i', 'origWidth': 409, 'origHeight': 409, 'width': 409, 'height': 409, 'widthPercent': 0.45, 'rescaleHeight': False, 'trialN': 3, 'loaded': True, 'loadedTime': 3015.2999999523163, 'positionName': 'RIGHT', 'positionCoords': [998.4, 335.5], 'bid': 6.67}]",8696.0,1669829428705,fried eggs,turkeysandwich,6.26,6.67,0.41000000000000014,turkeysandwich,1151.8999999761581,1153,1152.1000000238419,True,i,10355.100000023842,1659.1000000238419,1669829430365,1660,HRV,HRV_0074,2022-11-30 17:35:28
4,"[{'imgObject': {}, 'id': 'Grapes', 'src': '/static/foodstim60/Grapes.jpg', 'key': 'u', 'origWidth': 411, 'origHeight': 411, 'width': 411, 'height': 411, 'widthPercent': 0.45, 'rescaleHeight': False, 'trialN': 4, 'loaded': True, 'loadedTime': 3129.5, 'positionName': 'LEFT', 'positionCoords': [510.6, 334.5], 'bid': 2.72}, {'imgObject': {}, 'id': 'blueberries', 'src': '/static/foodstim60/blueberries.jpg', 'key': 'i', 'origWidth': 411, 'origHeight': 411, 'width': 411, 'height': 411, 'widthPercent': 0.45, 'rescaleHeight': False, 'trialN': 4, 'loaded': True, 'loadedTime': 3046.600000023842, 'positionName': 'RIGHT', 'positionCoords': [998.4, 334.5], 'bid': 2.81}]",10355.299999952316,1669829430365,Grapes,blueberries,2.72,2.81,0.08999999999999986,Grapes,1068.3000000715256,1068,1068.6000000238419,True,u,11931.799999952316,1576.5,1669829431941,1576,HRV,HRV_0074,2022-11-30 17:35:28
5,"[{'imgObject': {}, 'id': 'mango', 'src': '/static/foodstim60/mango.jpg', 'key': 'u', 'origWidth': 411, 'origHeight': 411, 'width': 411, 'height': 411, 'widthPercent': 0.45, 'rescaleHeight': False, 'trialN': 5, 'loaded': True, 'loadedTime': 3048.600000023842, 'positionName': 'LEFT', 'positionCoords': [510.6, 334.5], 'bid': 0.87}, {'imgObject': {}, 'id': 'eggs', 'src': '/static/foodstim60/eggs.jpg', 'key': 'i', 'origWidth': 409, 'origHeight': 409, 'width': 409, 'height': 409, 'widthPercent': 0.45, 'rescaleHeight': False, 'trialN': 5, 'loaded': True, 'loadedTime': 3145.600000023842, 'positionName': 'RIGHT', 'positionCoords': [998.4, 335.5], 'bid': 4.1}]",11931.899999976158,1669829431941,mango,eggs,0.87,4.1,3.2299999999999995,eggs,1026.1000000238419,1027,1026.3000000715256,True,i,13468.799999952316,1536.8999999761581,1669829433478,1537,HRV,HRV_0074,2022-11-30 17:35:28
6,"[{'imgObject': {}, 'id': 'cocktailshrimp', 'src': '/static/foodstim60/cocktailshrimp.jpg', 'key': 'u', 'origWidth': 410, 'origHeight': 410, 'width': 410, 'height': 410, 'widthPercent': 0.45, 'rescaleHeight': False, 'trialN': 6, 'loaded': True, 'loadedTime': 3087.600000023842, 'positionName': 'LEFT', 'positionCoords': [511.6, 335], 'bid': 7.95}, {'imgObject': {}, 'id': 'chicken nuggets2', 'src': '/static/foodstim60/chicken nuggets2.jpg', 'key': 'i', 'origWidth': 410, 'origHeight': 409, 'width': 410, 'height': 409, 'widthPercent': 0.45, 'rescaleHeight': False, 'trialN': 6, 'loaded': True, 'loadedTime': 3172.7999999523163, 'positionName': 'RIGHT', 'positionCoords': [998.4, 335.5], 'bid': 6.84}]",13468.899999976158,1669829433478,cocktailshrimp,chicken nuggets2,7.95,6.84,-1.1100000000000003,cocktailshrimp,1079.8000000715256,1080,1080.0,True,u,15066.799999952316,1597.8999999761581,1669829435076,1598,HRV,HRV_0074,2022-11-30 17:35:28
7,"[{'imgObject': {}, 'id': 'turkeysandwich', 'src': '/static/foodstim60/turkeysandwich.jpg', 'key': 'u', 'origWidth': 409, 'origHeight': 409, 'width': 409, 'height': 409, 'widthPercent': 0.45, 'rescaleHeight': False, 'trialN': 7, 'loaded': True, 'loadedTime': 3027.2999999523163, 'positionName': 'LEFT', 'positionCoords': [512.6, 335.5], 'bid': 6.67}, {'imgObject': {}, 'id': 'burger', 'src': '/static/foodstim60/burger.jpg', 'key': 'i', 'origWidth': 409, 'origHeight': 409, 'width': 409, 'height': 409, 'widthPercent': 0.45, 'rescaleHeight': False, 'trialN': 7, 'loaded': True, 'loadedTime': 3180.899999976158, 'positionName': 'RIGHT', 'positionCoords': [998.4, 335.5], 'bid': 7.79}]",15067.0,1669829435076,turkeysandwich,burger,6.67,7.79,1.12,burger,1195.8999999761581,1197,1196.1000000238419,True,i,16775.200000047684,1708.2000000476837,1669829436785,1709,HRV,HRV_0074,2022-11-30 17:35:28
8,"[{'imgObject': {}, 'id': 'chickenfingers', 'src': '/static/foodstim60/chickenfingers.jpg', 'key': 'u', 'origWidth': 410, 'origHeight': 410, 'width': 410, 'height': 410, 'widthPercent': 0.45, 'rescaleHeight': False, 'trialN': 8, 'loaded': True, 'loadedTime': 3191.399999976158, 'positionName': 'LEFT', 'positionCoords': [511.6, 335], 'bid': 6.16}, {'imgObject': {}, 'id': 'omelette', 'src': '/static/foodstim60/omelette.jpg', 'key': 'i', 'origWidth': 410, 'origHeight': 409, 'width': 410, 'height': 409, 'widthPercent': 0.45, 'rescaleHeight': False, 'trialN': 8, 'loaded': True, 'loadedTime': 3245.2000000476837, 'positionName': 'RIGHT', 'positionCoords': [998.4, 335.5], 'bid': 4.36}]",16775.299999952316,1669829436785,chickenfingers,omelette,6.16,4.36,-1.7999999999999998,chickenfingers,1172.6000000238419,1173,1172.8000000715256,True,u,18455.200000047684,1679.9000000953674,1669829438465,1680,HRV,HRV_0074,2022-11-30 17:35:28
9,"[{'imgObject': {}, 'id': 'roastedpotatoes', 'src': '/static/foodstim60/roastedpotatoes.jpg', 'key': 'u', 'origWidth': 409, 'origHeight': 410, 'width': 409, 'height': 410, 'widthPercent': 0.45, 'rescaleHeight': False, 'trialN': 9, 'loaded': True, 'loadedTime': 3250, 'positionName': 'LEFT', 'positionCoords': [512.6, 335], 'bid': 1.84}, {'imgObject': {}, 'id': 'Tribe humus pita', 'src': '/static/foodstim60/Tribe humus pita.jpg', 'key': 'i', 'origWidth': 411, 'origHeight': 411, 'width': 411, 'height': 411, 'widthPercent': 0.45, 'rescaleHeight': False, 'trialN': 9, 'loaded': True, 'loadedTime': 3251.399999976158, 'positionName': 'RIGHT', 'positionCoords': [998.4, 334.5], 'bid': 0.53}]",18455.399999976158,1669829438465,roastedpotatoes,Tribe humus pita,1.84,0.53,-1.31,roastedpotatoes,1092.6000000238419,1093,1092.8000000715256,True,u,20057.299999952316,1601.8999999761581,1669829440067,1602,HRV,HRV_0074,2022-11-30 17:35:28
10,"[{'imgObject': {}, 'id': 'lox', 'src': '/static/foodstim60/lox.jpg', 'key': 'u', 'origWidth': 410, 'origHeight': 411, 'width': 410, 'height': 411, 'widthPercent': 0.45, 'rescaleHeight': False, 'trialN': 10, 'loaded': True, 'loadedTime': 3258.7999999523163, 'positionName': 'LEFT', 'positionCoords': [511.6, 334.5], 'bid': 1.35}, {'imgObject': {}, 'id': 'avocado', 'src': '/static/foodstim60/avocado.jpg', 'key': 'i', 'origWidth': 409, 'origHeight': 409, 'width': 409, 'height': 409, 'widthPercent': 0.45, 'rescaleHeight': False, 'trialN': 10, 'loaded': True, 'loadedTime': 3293.2000000476837, 'positionName': 'RIGHT', 'positionCoords': [998.4, 335.5], 'bid': 1.12}]",20057.399999976158,1669829440067,lox,avocado,1.35,1.12,-0.22999999999999998,avocado,1136.3000000715256,1136,1136.5,True,i,21696.299999952316,1638.8999999761581,1669829441706,1639,HRV,HRV_0074,2022-11-30 17:35:28
11,"[{'imgObject': {}, 'id': 'tacos', 'src': '/static/foodstim60/tacos.jpg', 'key': 'u', 'origWidth': 411, 'origHeight': 411, 'width': 411, 'height': 411, 'widthPercent': 0.45, 'rescaleHeight': False, 'trialN': 11, 'loaded': True, 'loadedTime': 3307.7999999523163, 'positionName': 'LEFT', 'positionCoords': [510.6, 334.5], 'bid': 7.57}, {'imgObject': {}, 'id': 'froot loops w milk', 'src': '/static/foodstim60/froot loops w milk.jpg', 'key': 'i', 'origWidth': 410, 'origHeight': 410, 'width': 410, 'height': 410, 'widthPercent': 0.45, 'rescaleHeight': False, 'trialN': 11, 'loaded': True, 'loadedTime': 3308.2000000476837, 'positionName': 'RIGHT', 'positionCoords': [998.4, 335], 'bid': 4.5600000000000005}]",21696.5,1669829441706,tacos,froot loops w milk,7.57,4.5600000000000005,-3.01,tacos,946.7999999523163,947,947.0,True,u,23158.600000023842,1462.1000000238419,1669829443168,1462,HRV,HRV_0074,2022-11-30 17:35:28
12,"[{'imgObject': {}, 'id': 'burger', 'src': '/static/foodstim60/burger.jpg', 'key': 'u', 'origWidth': 409, 'origHeight': 409, 'width': 409, 'height': 409, 'widthPercent': 0.45, 'rescaleHeight': False, 'trialN': 12, 'loaded': True, 'loadedTime': 3182.100000023842, 'positionName': 'LEFT', 'positionCoords': [512.6, 335.5], 'bid': 7.79}, {'imgObject': {}, 'id': 'cocktailshrimp', 'src': '/static/foodstim60/cocktailshrimp.jpg', 'key': 'i', 'origWidth': 410, 'origHeight': 410, 'width': 410, 'height': 410, 'widthPercent': 0.45, 'rescaleHeight': False, 'trialN': 12, 'loaded': True, 'loadedTime': 3071.2999999523163, 'positionName': 'RIGHT', 'positionCoords': [998.4, 335], 'bid': 7.95}]",23158.799999952316,1669829443168,burger,cocktailshrimp,7.79,7.95,0.16000000000000014,burger,999.2000000476837,1000,999.4000000953674,True,u,24673.0,1514.2000000476837,1669829444682,1514,HRV,HRV_0074,2022-11-30 17:35:28
13,"[{'imgObject': {}, 'id': 'bagel and cc', 'src': '/static/foodstim60/bagel and cc.jpg', 'key': 'u', 'origWidth': 410, 'origHeight': 410, 'width': 410, 'height': 410, 'widthPercent': 0.45, 'rescaleHeight': False, 'trialN': 13, 'loaded': True, 'loadedTime': 3341.7000000476837, 'positionName': 'LEFT', 'positionCoords': [511.6, 335], 'bid': 7.35}, {'imgObject': {}, 'id': 'sushi w_condiments', 'src': '/static/foodstim60/sushi w_condiments.jpg', 'key': 'i', 'origWidth': 410, 'origHeight': 410, 'width': 410, 'height': 410, 'widthPercent': 0.45, 'rescaleHeight': False, 'trialN': 13, 'loaded': True, 'loadedTime': 3344.7000000476837, 'positionName': 'RIGHT', 'positionCoords': [998.4, 335], 'bid': 8.76}]",24673.100000023842,1669829444683,bagel and cc,sushi w_condiments,7.35,8.76,1.4100000000000001,sushi w_condiments,1115.1999999284744,1115,1115.3999999761581,True,i,26304.899999976158,1631.7999999523163,1669829446314,1631,HRV,HRV_0074,2022-11-30 17:35:28
14,"[{'imgObject': {}, 'id': 'edamame', 'src': '/static/foodstim60/edamame.jpg', 'key': 'u', 'origWidth': 409, 'origHeight': 410, 'width': 409, 'height': 410, 'widthPercent': 0.45, 'rescaleHeight': False, 'trialN': 14, 'loaded': True, 'loadedTime': 3347.7000000476837, 'positionName': 'LEFT', 'positionCoords': [512.6, 335], 'bid': 0.38}, {'imgObject': {}, 'id': 'popsicles', 'src': '/static/foodstim60/popsicles.jpg', 'key': 'i', 'origWidth': 410, 'origHeight': 410, 'width': 410, 'height': 410, 'widthPercent': 0.45, 'rescaleHeight': False, 'trialN': 14, 'loaded': True, 'loadedTime': 3352.5, 'positionName': 'RIGHT', 'positionCoords': [998.4, 335], 'bid': 1.83}]",26305.0,1669829446315,edamame,popsicles,0.38,1.83,1.4500000000000002,popsicles,1243.6000000238419,1243,1243.7999999523163,True,i,28069.399999976158,1764.3999999761581,1669829448079,1764,HRV,HRV_0074,2022-11-30 17:35:28
15,"[{'imgObject': {}, 'id': 'ice cream sundae 002', 'src': '/static/foodstim60/ice cream sundae 002.jpg', 'key': 'u', 'origWidth': 409, 'origHeight': 409, 'width': 409, 'height': 409, 'widthPercent': 0.45, 'rescaleHeight': False, 'trialN': 15, 'loaded': True, 'loadedTime': 3355.600000023842, 'positionName': 'LEFT', 'positionCoords': [512.6, 335.5], 'bid': 3.75}, {'imgObject': {}, 'id': 'shreddedwheatwithmilk', 'src': '/static/foodstim60/shreddedwheatwithmilk.jpg', 'key': 'i', 'origWidth': 410, 'origHeight': 410, 'width': 410, 'height': 410, 'widthPercent': 0.45, 'rescaleHeight': False, 'trialN': 15, 'loaded': True, 'loadedTime': 3377.899999976158, 'positionName': 'RIGHT', 'positionCoords': [998.4, 335], 'bid': 2.45}]",28069.399999976158,1669829448079,ice cream sundae 002,shreddedwheatwithmilk,3.75,2.45,-1.2999999999999998,shreddedwheatwithmilk,1379.0,1379,1379.2000000476837,True,i,29952.5,1883.1000000238419,1669829449962,1883,HRV,HRV_0074,2022-11-30 17:35:28
16,"[{'imgObject': {}, 'id': 'pear', 'src': '/static/foodstim60/pear.jpg', 'key': 'u', 'origWidth': 411, 'origHeight': 410, 'width': 411, 'height': 410, 'widthPercent': 0.45, 'rescaleHeight': False, 'trialN': 16, 'loaded': True, 'loadedTime': 3378.2000000476837, 'positionName': 'LEFT', 'positionCoords': [510.6, 335], 'bid': 4.51}, {'imgObject': {}, 'id': 'olives', 'src': '/static/foodstim60/olives.jpg', 'key': 'i', 'origWidth': 410, 'origHeight': 410, 'width': 410, 'height': 410, 'widthPercent': 0.45, 'rescaleHeight': False, 'trialN': 16, 'loaded': True, 'loadedTime': 2980.5, 'positionName': 'RIGHT', 'positionCoords': [998.4, 335], 'bid': 7.52}]",29952.5,1669829449962,pear,olives,4.51,7.52,3.01,olives,1121.7999999523163,1122,1122.2000000476837,True,i,31589.799999952316,1637.2999999523163,1669829451599,1637,HRV,HRV_0074,2022-11-30 17:35:28
17,"[{'imgObject': {}, 'id': 'burger', 'src': '/static/foodstim60/burger.jpg', 'key': 'u', 'origWidth': 409, 'origHeight': 409, 'width': 409, 'height': 409, 'widthPercent': 0.45, 'rescaleHeight': False, 'trialN': 17, 'loaded': True, 'loadedTime': 3183.600000023842, 'positionName': 'LEFT', 'positionCoords': [512.6, 335.5], 'bid': 7.79}, {'imgObject': {}, 'id': 'banana', 'src': '/static/foodstim60/banana.jpg', 'key': 'i', 'origWidth': 410, 'origHeight': 410, 'width': 410, 'height': 410, 'widthPercent': 0.45, 'rescaleHeight': False, 'trialN': 17, 'loaded': True, 'loadedTime': 3408.7999999523163, 'positionName': 'RIGHT', 'positionCoords': [998.4, 335], 'bid': 2.82}]",31589.899999976158,1669829451599,burger,banana,7.79,2.82,-4.970000000000001,burger,819.0,820,819.1000000238419,True,u,32914.0,1324.1000000238419,1669829452924,1325,HRV,HRV_0074,2022-11-30 17:35:28
18,"[{'imgObject': {}, 'id': 'eggsalad', 'src': '/static/foodstim60/eggsalad.jpg', 'key': 'u', 'origWidth': 410, 'origHeight': 409, 'width': 410, 'height': 409, 'widthPercent': 0.45, 'rescaleHeight': False, 'trialN': 18, 'loaded': True, 'loadedTime': 3409, 'positionName': 'LEFT', 'positionCoords': [511.6, 335.5], 'bid': 1.19}, {'imgObject': {}, 'id': 'froot loops w milk', 'src': '/static/foodstim60/froot loops w milk.jpg', 'key': 'i', 'origWidth': 410, 'origHeight': 410, 'width': 410, 'height': 410, 'widthPercent': 0.45, 'rescaleHeight': False, 'trialN': 18, 'loaded': True, 'loadedTime': 3326.7999999523163, 'positionName': 'RIGHT', 'positionCoords': [998.4, 335], 'bid': 4.5600000000000005}]",32914.299999952316,1669829452924,eggsalad,froot loops w milk,1.19,4.5600000000000005,3.3700000000000006,froot loops w milk,1519.8000000715256,1520,1520.0,True,i,34949.299999952316,2035.0,1669829454959,2035,HRV,HRV_0074,2022-11-30 17:35:28
19,"[{'imgObject': {}, 'id': 'hashbrowns', 'src': '/static/foodstim60/hashbrowns.jpg', 'key': 'u', 'origWidth': 411, 'origHeight': 410, 'width': 411, 'height': 410, 'widthPercent': 0.45, 'rescaleHeight': False, 'trialN': 19, 'loaded': True, 'loadedTime': 3423.100000023842, 'positionName': 'LEFT', 'positionCoords': [510.6, 335], 'bid': 1.85}, {'imgObject': {}, 'id': 'roastedpotatoes', 'src': '/static/foodstim60/roastedpotatoes.jpg', 'key': 'i', 'origWidth': 409, 'origHeight': 410, 'width': 409, 'height': 410, 'widthPercent': 0.45, 'rescaleHeight': False, 'trialN': 19, 'loaded': True, 'loadedTime': 3250.7999999523163, 'positionName': 'RIGHT', 'positionCoords': [998.4, 335], 'bid': 1.84}]",34949.39999997616,1669829454959,hashbrowns,roastedpotatoes,1.85,1.84,-0.010000000000000009,roastedpotatoes,1310.3999999761581,1311,1310.7000000476837,True,i,36770.89999997616,1821.5,1669829456780,1821,HRV,HRV_0074,2022-11-30 17:35:28
20,"[{'imgObject': {}, 'id': 'roastedpotatoes', 'src': '/static/foodstim60/roastedpotatoes.jpg', 'key': 'u', 'origWidth': 409, 'origHeight': 410, 'width': 409, 'height': 410, 'widthPercent': 0.45, 'rescaleHeight': False, 'trialN': 20, 'loaded': True, 'loadedTime': 3247.7000000476837, 'positionName': 'LEFT', 'positionCoords': [512.6, 335], 'bid': 1.84}, {'imgObject': {}, 'id': 'rigatoni', 'src': '/static/foodstim60/rigatoni.jpg', 'key': 'i', 'origWidth': 411, 'origHeight': 411, 'width': 411, 'height': 411, 'widthPercent': 0.45, 'rescaleHeight': False, 'trialN': 20, 'loaded': True, 'loadedTime': 3444.7999999523163, 'positionName': 'RIGHT', 'positionCoords': [998.4, 334.5], 'bid': 1.94}]",36771.0,1669829456781,roastedpotatoes,rigatoni,1.84,1.94,0.09999999999999987,roastedpotatoes,972.8999999761581,973,973.1000000238419,True,u,38256.5,1485.5,1669829458266,1485,HRV,HRV_0074,2022-11-30 17:35:28
21,"[{'imgObject': {}, 'id': 'orange slices', 'src': '/static/foodstim60/orange slices.jpg', 'key': 'u', 'origWidth': 409, 'origHeight': 410, 'width': 409, 'height': 410, 'widthPercent': 0.45, 'rescaleHeight': False, 'trialN': 21, 'loaded': True, 'loadedTime': 3448.899999976158, 'positionName': 'LEFT', 'positionCoords': [512.6, 335], 'bid': 3.54}, {'imgObject': {}, 'id': 'steak', 'src': '/static/foodstim60/steak.jpg', 'key': 'i', 'origWidth': 410, 'origHeight': 410, 'width': 410, 'height': 410, 'widthPercent': 0.45, 'rescaleHeight': False, 'trialN': 21, 'loaded': True, 'loadedTime': 3116.2000000476837, 'positionName': 'RIGHT', 'positionCoords': [998.4, 335], 'bid': 9.29}]",38256.700000047684,1669829458266,orange slices,steak,3.54,9.29,5.749999999999999,steak,992.0999999046326,993,992.2999999523163,True,i,39754.0,1497.2999999523163,1669829459764,1498,HRV,HRV_0074,2022-11-30 17:35:28
22,"[{'imgObject': {}, 'id': 'hotdog w must', 'src': '/static/foodstim60/hotdog w must.jpg', 'key': 'u', 'origWidth': 409, 'origHeight': 409, 'width': 409, 'height': 409, 'widthPercent': 0.45, 'rescaleHeight': False, 'trialN': 22, 'loaded': True, 'loadedTime': 3454.899999976158, 'positionName': 'LEFT', 'positionCoords': [512.6, 335.5], 'bid': 2.94}, {'imgObject': {}, 'id': 'cocktailshrimp', 'src': '/static/foodstim60/cocktailshrimp.jpg', 'key': 'i', 'origWidth': 410, 'origHeight': 410, 'width': 410, 'height': 410, 'widthPercent': 0.45, 'rescaleHeight': False, 'trialN': 22, 'loaded': True, 'loadedTime': 3072.100000023842, 'positionName': 'RIGHT', 'positionCoords': [998.4, 335], 'bid': 7.95}]",39754.200000047684,1669829459764,hotdog w must,cocktailshrimp,2.94,7.95,5.01,cocktailshrimp,975.1999999284744,975,975.3999999761581,True,i,41238.10000002384,1483.8999999761581,1669829461248,1484,HRV,HRV_0074,2022-11-30 17:35:28
23,"[{'imgObject': {}, 'id': 'cherry tomato', 'src': '/static/foodstim60/cherry tomato.jpg', 'key': 'u', 'origWidth': 410, 'origHeight': 410, 'width': 410, 'height': 410, 'widthPercent': 0.45, 'rescaleHeight': False, 'trialN': 23, 'loaded': True, 'loadedTime': 3455.399999976158, 'positionName': 'LEFT', 'positionCoords': [511.6, 335], 'bid': 0.7000000000000001}, {'imgObject': {}, 'id': 'Tribe humus pita', 'src': '/static/foodstim60/Tribe humus pita.jpg', 'key': 'i', 'origWidth': 411, 'origHeight': 411, 'width': 411, 'height': 411, 'widthPercent': 0.45, 'rescaleHeight': False, 'trialN': 23, 'loaded': True, 'loadedTime': 3252.7000000476837, 'positionName': 'RIGHT', 'positionCoords': [998.4, 334.5], 'bid': 0.53}]",41238.200000047684,1669829461248,cherry tomato,Tribe humus pita,0.7000000000000001,0.53,-0.17000000000000004,Tribe humus pita,1336.0,1336,1336.1999999284744,True,i,43085.200000047684,1847.0,1669829463095,1847,HRV,HRV_0074,2022-11-30 17:35:28
24,"[{'imgObject': {}, 'id': 'mango', 'src': '/static/foodstim60/mango.jpg', 'key': 'u', 'origWidth': 411, 'origHeight': 411, 'width': 411, 'height': 411, 'widthPercent': 0.45, 'rescaleHeight': False, 'trialN': 24, 'loaded': True, 'loadedTime': 3053.600000023842, 'positionName': 'LEFT', 'positionCoords': [510.6, 334.5], 'bid': 0.87}, {'imgObject': {}, 'id': 'lox', 'src': '/static/foodstim60/lox.jpg', 'key': 'i', 'origWidth': 410, 'origHeight': 411, 'width': 410, 'height': 411, 'widthPercent': 0.45, 'rescaleHeight': False, 'trialN': 24, 'loaded': True, 'loadedTime': 3262.2999999523163, 'positionName': 'RIGHT', 'positionCoords': [998.4, 334.5], 'bid': 1.35}]",43085.299999952316,1669829463095,mango,lox,0.87,1.35,0.4800000000000001,lox,1348.9000000953674,1349,1349.1000000238419,True,i,44949.700000047684,1864.4000000953674,1669829464959,1864,HRV,HRV_0074,2022-11-30 17:35:28
25,"[{'imgObject': {}, 'id': 'tacos', 'src': '/static/foodstim60/tacos.jpg', 'key': 'u', 'origWidth': 411, 'origHeight': 411, 'width': 411, 'height': 411, 'widthPercent': 0.45, 'rescaleHeight': False, 'trialN': 25, 'loaded': True, 'loadedTime': 3295.2000000476837, 'positionName': 'LEFT', 'positionCoords': [510.6, 334.5], 'bid': 7.57}, {'imgObject': {}, 'id': 'bagel and cc', 'src': '/static/foodstim60/bagel and cc.jpg', 'key': 'i', 'origWidth': 410, 'origHeight': 410, 'width': 410, 'height': 410, 'widthPercent': 0.45, 'rescaleHeight': False, 'trialN': 25, 'loaded': True, 'loadedTime': 3341.7000000476837, 'positionName': 'RIGHT', 'positionCoords': [998.4, 335], 'bid': 7.35}]",44949.799999952316,1669829464959,tacos,bagel and cc,7.57,7.35,-0.22000000000000064,bagel and cc,1774.8000000715256,1775,1775.1000000238419,True,i,47235.89999997616,2286.100000023842,1669829467245,2286,HRV,HRV_0074,2022-11-30 17:35:28
26,"[{'imgObject': {}, 'id': 'mashed potato', 'src': '/static/foodstim60/mashed potato.jpg', 'key': 'u', 'origWidth': 409, 'origHeight': 409, 'width': 409, 'height': 409, 'widthPercent': 0.45, 'rescaleHeight': False, 'trialN': 26, 'loaded': True, 'loadedTime': 3461.5, 'positionName': 'LEFT', 'positionCoords': [512.6, 335.5], 'bid': 0.94}, {'imgObject': {}, 'id': 'blackbeanswithrice', 'src': '/static/foodstim60/blackbeanswithrice.jpg', 'key': 'i', 'origWidth': 410, 'origHeight': 410, 'width': 410, 'height': 410, 'widthPercent': 0.45, 'rescaleHeight': False, 'trialN': 26, 'loaded': True, 'loadedTime': 3177.5, 'positionName': 'RIGHT', 'positionCoords': [998.4, 335], 'bid': 0.97}]",47236.0,1669829467246,mashed potato,blackbeanswithrice,0.94,0.97,0.030000000000000027,mashed potato,1318.3999999761581,1318,1318.6000000238419,True,u,49060.5,1824.5,1669829469070,1824,HRV,HRV_0074,2022-11-30 17:35:28
27,"[{'imgObject': {}, 'id': 'mac & cheese', 'src': '/static/foodstim60/mac & cheese.jpg', 'key': 'u', 'origWidth': 410, 'origHeight': 410, 'width': 410, 'height': 410, 'widthPercent': 0.45, 'rescaleHeight': False, 'trialN': 27, 'loaded': True, 'loadedTime': 3463.7999999523163, 'positionName': 'LEFT', 'positionCoords': [511.6, 335], 'bid': 4.25}, {'imgObject': {}, 'id': 'mashed potato', 'src': '/static/foodstim60/mashed potato.jpg', 'key': 'i', 'origWidth': 409, 'origHeight': 409, 'width': 409, 'height': 409, 'widthPercent': 0.45, 'rescaleHeight': False, 'trialN': 27, 'loaded': True, 'loadedTime': 3461.600000023842, 'positionName': 'RIGHT', 'positionCoords': [998.4, 335.5], 'bid': 0.94}]",49060.60000002384,1669829469070,mac & cheese,mashed potato,4.25,0.94,-3.31,mac & cheese,913.1999999284744,914,913.5,True,u,50479.799999952316,1419.1999999284744,1669829470489,1419,HRV,HRV_0074,2022-11-30 17:35:28
28,"[{'imgObject': {}, 'id': 'mac & cheese', 'src': '/static/foodstim60/mac & cheese.jpg', 'key': 'u', 'origWidth': 410, 'origHeight': 410, 'width': 410, 'height': 410, 'widthPercent': 0.45, 'rescaleHeight': False, 'trialN': 28, 'loaded': True, 'loadedTime': 3463.899999976158, 'positionName': 'LEFT', 'positionCoords': [511.6, 335], 'bid': 4.25}, {'imgObject': {}, 'id': 'omelette', 'src': '/static/foodstim60/omelette.jpg', 'key': 'i', 'origWidth': 410, 'origHeight': 409, 'width': 410, 'height': 409, 'widthPercent': 0.45, 'rescaleHeight': False, 'trialN': 28, 'loaded': True, 'loadedTime': 3240, 'positionName': 'RIGHT', 'positionCoords': [998.4, 335.5], 'bid': 4.36}]",50479.89999997616,1669829470489,mac & cheese,omelette,4.25,4.36,0.11000000000000032,omelette,1009.0,1010,1009.2000000476837,True,i,52000.89999997616,1521.0,1669829472010,1521,HRV,HRV_0074,2022-11-30 17:35:28
29,"[{'imgObject': {}, 'id': 'shreddedwheatwithmilk', 'src': '/static/foodstim60/shreddedwheatwithmilk.jpg', 'key': 'u', 'origWidth': 410, 'origHeight': 410, 'width': 410, 'height': 410, 'widthPercent': 0.45, 'rescaleHeight': False, 'trialN': 29, 'loaded': True, 'loadedTime': 3359.899999976158, 'positionName': 'LEFT', 'positionCoords': [511.6, 335], 'bid': 2.45}, {'imgObject': {}, 'id': 'seaweed', 'src': '/static/foodstim60/seaweed.jpg', 'key': 'i', 'origWidth': 410, 'origHeight': 410, 'width': 410, 'height': 410, 'widthPercent': 0.45, 'rescaleHeight': False, 'trialN': 29, 'loaded': True, 'loadedTime': 3188, 'positionName': 'RIGHT', 'positionCoords': [998.4, 335], 'bid': 0.91}]",52001.0,1669829472010,shreddedwheatwithmilk,seaweed,2.45,0.91,-1.54,shreddedwheatwithmilk,1288.5,1289,1288.7999999523163,True,u,53804.700000047684,1803.7000000476837,1669829473814,1804,HRV,HRV_0074,2022-11-30 17:35:28
30,"[{'imgObject': {}, 'id': 'rigatoni and sauce', 'src': '/static/foodstim60/rigatoni and sauce.jpg', 'key': 'u', 'origWidth': 410, 'origHeight': 411, 'width': 410, 'height': 411, 'widthPercent': 0.45, 'rescaleHeight': False, 'trialN': 30, 'loaded': True, 'loadedTime': 3477.399999976158, 'positionName': 'LEFT', 'positionCoords': [511.6, 334.5], 'bid': 1.6}, {'imgObject': {}, 'id': 'cheerios', 'src': '/static/foodstim60/cheerios.jpg', 'key': 'i', 'origWidth': 409, 'origHeight': 410, 'width': 409, 'height': 410, 'widthPercent': 0.45, 'rescaleHeight': False, 'trialN': 30, 'loaded': True, 'loadedTime': 3494.899999976158, 'positionName': 'RIGHT', 'positionCoords': [998.4, 335], 'bid': 3.11}]",53804.799999952316,1669829473814,rigatoni and sauce,cheerios,1.6,3.11,1.5099999999999998,cheerios,1249.0,1249,1249.2000000476837,True,i,55562.89999997616,1758.1000000238419,1669829475572,1758,HRV,HRV_0074,2022-11-30 17:35:28
31,"[{'imgObject': {}, 'id': 'shreddedwheatwithmilk', 'src': '/static/foodstim60/shreddedwheatwithmilk.jpg', 'key': 'u', 'origWidth': 410, 'origHeight': 410, 'width': 410, 'height': 410, 'widthPercent': 0.45, 'rescaleHeight': False, 'trialN': 31, 'loaded': True, 'loadedTime': 3361.5, 'positionName': 'LEFT', 'positionCoords': [511.6, 335], 'bid': 2.45}, {'imgObject': {}, 'id': 'bagel plain', 'src': '/static/foodstim60/bagel plain.jpg', 'key': 'i', 'origWidth': 410, 'origHeight': 410, 'width': 410, 'height': 410, 'widthPercent': 0.45, 'rescaleHeight': False, 'trialN': 31, 'loaded': True, 'loadedTime': 3496.7999999523163, 'positionName': 'RIGHT', 'positionCoords': [998.4, 335], 'bid': 7.19}]",55563.0,1669829475573,shreddedwheatwithmilk,bagel plain,2.45,7.19,4.74,bagel plain,870.7999999523163,871,871.1000000238419,True,i,56949.0,1386.0,1669829476959,1386,HRV,HRV_0074,2022-11-30 17:35:28
32,"[{'imgObject': {}, 'id': 'sushi w_condiments', 'src': '/static/foodstim60/sushi w_condiments.jpg', 'key': 'u', 'origWidth': 410, 'origHeight': 410, 'width': 410, 'height': 410, 'widthPercent': 0.45, 'rescaleHeight': False, 'trialN': 32, 'loaded': True, 'loadedTime': 3344.899999976158, 'positionName': 'LEFT', 'positionCoords': [511.6, 335], 'bid': 8.76}, {'imgObject': {}, 'id': 'salmon', 'src': '/static/foodstim60/salmon.jpg', 'key': 'i', 'origWidth': 410, 'origHeight': 409, 'width': 410, 'height': 409, 'widthPercent': 0.45, 'rescaleHeight': False, 'trialN': 32, 'loaded': True, 'loadedTime': 3510.2999999523163, 'positionName': 'RIGHT', 'positionCoords': [998.4, 335.5], 'bid': 7.04}]",56949.200000047684,1669829476959,sushi w_condiments,salmon,8.76,7.04,-1.7199999999999998,sushi w_condiments,885.3999999761581,885,885.5999999046326,True,u,58346.89999997616,1397.6999999284744,1669829478356,1397,HRV,HRV_0074,2022-11-30 17:35:28
33,"[{'imgObject': {}, 'id': 'hashbrowns', 'src': '/static/foodstim60/hashbrowns.jpg', 'key': 'u', 'origWidth': 411, 'origHeight': 410, 'width': 411, 'height': 410, 'widthPercent': 0.45, 'rescaleHeight': False, 'trialN': 33, 'loaded': True, 'loadedTime': 3424.7999999523163, 'positionName': 'LEFT', 'positionCoords': [510.6, 335], 'bid': 1.85}, {'imgObject': {}, 'id': 'corn cob', 'src': '/static/foodstim60/corn cob.jpg', 'key': 'i', 'origWidth': 411, 'origHeight': 411, 'width': 411, 'height': 411, 'widthPercent': 0.45, 'rescaleHeight': False, 'trialN': 33, 'loaded': True, 'loadedTime': 3526.2999999523163, 'positionName': 'RIGHT', 'positionCoords': [998.4, 334.5], 'bid': 2.34}]",58347.10000002384,1669829478357,hashbrowns,corn cob,1.85,2.34,0.48999999999999977,hashbrowns,1531.7999999523163,1532,1532.1000000238419,True,u,60390.5,2043.3999999761581,1669829480400,2043,HRV,HRV_0074,2022-11-30 17:35:28
34,"[{'imgObject': {}, 'id': 'chicken nuggets2', 'src': '/static/foodstim60/chicken nuggets2.jpg', 'key': 'u', 'origWidth': 410, 'origHeight': 409, 'width': 410, 'height': 409, 'widthPercent': 0.45, 'rescaleHeight': False, 'trialN': 34, 'loaded': True, 'loadedTime': 3172.2999999523163, 'positionName': 'LEFT', 'positionCoords': [511.6, 335.5], 'bid': 6.84}, {'imgObject': {}, 'id': 'grilled chicken strips', 'src': '/static/foodstim60/grilled chicken strips.jpg', 'key': 'i', 'origWidth': 410, 'origHeight': 411, 'width': 410, 'height': 411, 'widthPercent': 0.45, 'rescaleHeight': False, 'trialN': 34, 'loaded': True, 'loadedTime': 3526.399999976158, 'positionName': 'RIGHT', 'positionCoords': [998.4, 334.5], 'bid': 6.4}]",60390.5,1669829480400,chicken nuggets2,grilled chicken strips,6.84,6.4,-0.4399999999999995,chicken nuggets2,1634.3999999761581,1635,1634.6000000238419,True,u,62535.799999952316,2145.2999999523163,1669829482545,2145,HRV,HRV_0074,2022-11-30 17:35:28
35,"[{'imgObject': {}, 'id': 'popsicles', 'src': '/static/foodstim60/popsicles.jpg', 'key': 'u', 'origWidth': 410, 'origHeight': 410, 'width': 410, 'height': 410, 'widthPercent': 0.45, 'rescaleHeight': False, 'trialN': 35, 'loaded': True, 'loadedTime': 3350.5, 'positionName': 'LEFT', 'positionCoords': [511.6, 335], 'bid': 1.83}, {'imgObject': {}, 'id': 'baked potato', 'src': '/static/foodstim60/baked potato.jpg', 'key': 'i', 'origWidth': 409, 'origHeight': 410, 'width': 409, 'height': 410, 'widthPercent': 0.45, 'rescaleHeight': False, 'trialN': 35, 'loaded': True, 'loadedTime': 3540.600000023842, 'positionName': 'RIGHT', 'positionCoords': [998.4, 335], 'bid': 1.81}]",62536.0,1669829482545,popsicles,baked potato,1.83,1.81,-0.020000000000000018,baked potato,1138.7999999523163,1140,1139.1000000238419,True,i,64183.799999952316,1647.7999999523163,1669829484193,1648,HRV,HRV_0074,2022-11-30 17:35:28
36,"[{'imgObject': {}, 'id': 'blueberries', 'src': '/static/foodstim60/blueberries.jpg', 'key': 'u', 'origWidth': 411, 'origHeight': 411, 'width': 411, 'height': 411, 'widthPercent': 0.45, 'rescaleHeight': False, 'trialN': 36, 'loaded': True, 'loadedTime': 3048, 'positionName': 'LEFT', 'positionCoords': [510.6, 334.5], 'bid': 2.81}, {'imgObject': {}, 'id': 'fruitsalad', 'src': '/static/foodstim60/fruitsalad.jpg', 'key': 'i', 'origWidth': 410, 'origHeight': 410, 'width': 410, 'height': 410, 'widthPercent': 0.45, 'rescaleHeight': False, 'trialN': 36, 'loaded': True, 'loadedTime': 3542.7000000476837, 'positionName': 'RIGHT', 'positionCoords': [998.4, 335], 'bid': 7.77}]",64184.0,1669829484194,blueberries,fruitsalad,2.81,7.77,4.959999999999999,fruitsalad,950.8999999761581,951,951.1000000238419,True,i,65653.29999995232,1469.2999999523163,1669829485663,1469,HRV,HRV_0074,2022-11-30 17:35:28
37,"[{'imgObject': {}, 'id': 'mac & cheese', 'src': '/static/foodstim60/mac & cheese.jpg', 'key': 'u', 'origWidth': 410, 'origHeight': 410, 'width': 410, 'height': 410, 'widthPercent': 0.45, 'rescaleHeight': False, 'trialN': 37, 'loaded': True, 'loadedTime': 3464, 'positionName': 'LEFT', 'positionCoords': [511.6, 335], 'bid': 4.25}, {'imgObject': {}, 'id': 'salad w chicken', 'src': '/static/foodstim60/salad w chicken.jpg', 'key': 'i', 'origWidth': 411, 'origHeight': 411, 'width': 411, 'height': 411, 'widthPercent': 0.45, 'rescaleHeight': False, 'trialN': 37, 'loaded': True, 'loadedTime': 3557.100000023842, 'positionName': 'RIGHT', 'positionCoords': [998.4, 334.5], 'bid': 5.88}]",65653.5,1669829485663,mac & cheese,salad w chicken,4.25,5.88,1.63,salad w chicken,1251.5,1252,1251.7000000476837,True,i,67414.89999997616,1761.3999999761581,1669829487424,1761,HRV,HRV_0074,2022-11-30 17:35:28
38,"[{'imgObject': {}, 'id': 'roastedpotatoes', 'src': '/static/foodstim60/roastedpotatoes.jpg', 'key': 'u', 'origWidth': 409, 'origHeight': 410, 'width': 409, 'height': 410, 'widthPercent': 0.45, 'rescaleHeight': False, 'trialN': 38, 'loaded': True, 'loadedTime': 3248.600000023842, 'positionName': 'LEFT', 'positionCoords': [512.6, 335], 'bid': 1.84}, {'imgObject': {}, 'id': 'turkeysandwich', 'src': '/static/foodstim60/turkeysandwich.jpg', 'key': 'i', 'origWidth': 409, 'origHeight': 409, 'width': 409, 'height': 409, 'widthPercent': 0.45, 'rescaleHeight': False, 'trialN': 38, 'loaded': True, 'loadedTime': 3027.600000023842, 'positionName': 'RIGHT', 'positionCoords': [998.4, 335.5], 'bid': 6.67}]",67415.10000002384,1669829487425,roastedpotatoes,turkeysandwich,1.84,6.67,4.83,turkeysandwich,860.2999999523163,860,860.5,True,i,68784.60000002384,1369.5,1669829488794,1369,HRV,HRV_0074,2022-11-30 17:35:28
39,"[{'imgObject': {}, 'id': 'raspberries', 'src': '/static/foodstim60/raspberries.jpg', 'key': 'u', 'origWidth': 411, 'origHeight': 411, 'width': 411, 'height': 411, 'widthPercent': 0.45, 'rescaleHeight': False, 'trialN': 39, 'loaded': True, 'loadedTime': 3557.2999999523163, 'positionName': 'LEFT', 'positionCoords': [510.6, 334.5], 'bid': 2.64}, {'imgObject': {}, 'id': 'olives', 'src': '/static/foodstim60/olives.jpg', 'key': 'i', 'origWidth': 410, 'origHeight': 410, 'width': 410, 'height': 410, 'widthPercent': 0.45, 'rescaleHeight': False, 'trialN': 39, 'loaded': True, 'loadedTime': 2943.399999976158, 'positionName': 'RIGHT', 'positionCoords': [998.4, 335], 'bid': 7.52}]",68784.70000004768,1669829488794,raspberries,olives,2.64,7.52,4.879999999999999,olives,1030.1999999284744,1031,1030.2999999523163,True,i,70323.5,1538.7999999523163,1669829490333,1539,HRV,HRV_0074,2022-11-30 17:35:28
40,"[{'imgObject': {}, 'id': 'Tribe humus pita', 'src': '/static/foodstim60/Tribe humus pita.jpg', 'key': 'u', 'origWidth': 411, 'origHeight': 411, 'width': 411, 'height': 411, 'widthPercent': 0.45, 'rescaleHeight': False, 'trialN': 40, 'loaded': True, 'loadedTime': 3254.600000023842, 'positionName': 'LEFT', 'positionCoords': [510.6, 334.5], 'bid': 0.53}, {'imgObject': {}, 'id': 'luckycharms', 'src': '/static/foodstim60/luckycharms.jpg', 'key': 'i', 'origWidth': 410, 'origHeight': 409, 'width': 410, 'height': 409, 'widthPercent': 0.45, 'rescaleHeight': False, 'trialN': 40, 'loaded': True, 'loadedTime': 3576.2000000476837, 'positionName': 'RIGHT', 'positionCoords': [998.4, 335.5], 'bid': 3.85}]",70323.60000002384,1669829490333,Tribe humus pita,luckycharms,0.53,3.85,3.3200000000000003,luckycharms,997.1000000238419,998,997.3999999761581,True,i,71828.29999995232,1504.6999999284744,1669829491838,1505,HRV,HRV_0074,2022-11-30 17:35:28
41,"[{'imgObject': {}, 'id': 'seaweed', 'src': '/static/foodstim60/seaweed.jpg', 'key': 'u', 'origWidth': 410, 'origHeight': 410, 'width': 410, 'height': 410, 'widthPercent': 0.45, 'rescaleHeight': False, 'trialN': 41, 'loaded': True, 'loadedTime': 3188.399999976158, 'positionName': 'LEFT', 'positionCoords': [511.6, 335], 'bid': 0.91}, {'imgObject': {}, 'id': 'apple slices', 'src': '/static/foodstim60/apple slices.jpg', 'key': 'i', 'origWidth': 409, 'origHeight': 410, 'width': 409, 'height': 410, 'widthPercent': 0.45, 'rescaleHeight': False, 'trialN': 41, 'loaded': True, 'loadedTime': 3578.399999976158, 'positionName': 'RIGHT', 'positionCoords': [998.4, 335], 'bid': 4.15}]",71828.39999997616,1669829491838,seaweed,apple slices,0.91,4.15,3.24,apple slices,1156.3999999761581,1157,1156.6000000238419,True,i,73498.70000004768,1670.3000000715256,1669829493508,1670,HRV,HRV_0074,2022-11-30 17:35:28
42,"[{'imgObject': {}, 'id': 'cherry tomato', 'src': '/static/foodstim60/cherry tomato.jpg', 'key': 'u', 'origWidth': 410, 'origHeight': 410, 'width': 410, 'height': 410, 'widthPercent': 0.45, 'rescaleHeight': False, 'trialN': 42, 'loaded': True, 'loadedTime': 3456.899999976158, 'positionName': 'LEFT', 'positionCoords': [511.6, 335], 'bid': 0.7000000000000001}, {'imgObject': {}, 'id': 'sweetpotato', 'src': '/static/foodstim60/sweetpotato.jpg', 'key': 'i', 'origWidth': 410, 'origHeight': 410, 'width': 410, 'height': 410, 'widthPercent': 0.45, 'rescaleHeight': False, 'trialN': 42, 'loaded': True, 'loadedTime': 3580.5, 'positionName': 'RIGHT', 'positionCoords': [998.4, 335], 'bid': 0.64}]",73498.89999997616,1669829493508,cherry tomato,sweetpotato,0.7000000000000001,0.64,-0.06000000000000005,sweetpotato,1006.3999999761581,1007,1006.5,True,i,75016.39999997616,1517.5,1669829495026,1518,HRV,HRV_0074,2022-11-30 17:35:28
43,"[{'imgObject': {}, 'id': 'omelette', 'src': '/static/foodstim60/omelette.jpg', 'key': 'u', 'origWidth': 410, 'origHeight': 409, 'width': 410, 'height': 409, 'widthPercent': 0.45, 'rescaleHeight': False, 'trialN': 43, 'loaded': True, 'loadedTime': 3243.7999999523163, 'positionName': 'LEFT', 'positionCoords': [511.6, 335.5], 'bid': 4.36}, {'imgObject': {}, 'id': 'froot loops w milk', 'src': '/static/foodstim60/froot loops w milk.jpg', 'key': 'i', 'origWidth': 410, 'origHeight': 410, 'width': 410, 'height': 410, 'widthPercent': 0.45, 'rescaleHeight': False, 'trialN': 43, 'loaded': True, 'loadedTime': 3309.2999999523163, 'positionName': 'RIGHT', 'positionCoords': [998.4, 335], 'bid': 4.5600000000000005}]",75016.5,1669829495026,omelette,froot loops w milk,4.36,4.5600000000000005,0.20000000000000018,froot loops w milk,1703.3999999761581,1704,1703.6000000238419,True,i,77234.29999995232,2217.7999999523163,1669829497244,2218,HRV,HRV_0074,2022-11-30 17:35:28
44,"[{'imgObject': {}, 'id': 'cantaloupe', 'src': '/static/foodstim60/cantaloupe.jpg', 'key': 'u', 'origWidth': 409, 'origHeight': 409, 'width': 409, 'height': 409, 'widthPercent': 0.45, 'rescaleHeight': False, 'trialN': 44, 'loaded': True, 'loadedTime': 3583.2000000476837, 'positionName': 'LEFT', 'positionCoords': [512.6, 335.5], 'bid': 1.48}, {'imgObject': {}, 'id': 'lox', 'src': '/static/foodstim60/lox.jpg', 'key': 'i', 'origWidth': 410, 'origHeight': 411, 'width': 410, 'height': 411, 'widthPercent': 0.45, 'rescaleHeight': False, 'trialN': 44, 'loaded': True, 'loadedTime': 3255.399999976158, 'positionName': 'RIGHT', 'positionCoords': [998.4, 334.5], 'bid': 1.35}]",77234.39999997616,1669829497244,cantaloupe,lox,1.48,1.35,-0.1299999999999999,cantaloupe,931.2000000476837,931,931.3999999761581,True,u,78672.70000004768,1438.3000000715256,1669829498682,1438,HRV,HRV_0074,2022-11-30 17:35:28
45,"[{'imgObject': {}, 'id': 'baked potato', 'src': '/static/foodstim60/baked potato.jpg', 'key': 'u', 'origWidth': 409, 'origHeight': 410, 'width': 409, 'height': 410, 'widthPercent': 0.45, 'rescaleHeight': False, 'trialN': 45, 'loaded': True, 'loadedTime': 3528.7999999523163, 'positionName': 'LEFT', 'positionCoords': [512.6, 335], 'bid': 1.81}, {'imgObject': {}, 'id': 'shreddedwheatwithmilk', 'src': '/static/foodstim60/shreddedwheatwithmilk.jpg', 'key': 'i', 'origWidth': 410, 'origHeight': 410, 'width': 410, 'height': 410, 'widthPercent': 0.45, 'rescaleHeight': False, 'trialN': 45, 'loaded': True, 'loadedTime': 3361.899999976158, 'positionName': 'RIGHT', 'positionCoords': [998.4, 335], 'bid': 2.45}]",78672.89999997616,1669829498683,baked potato,shreddedwheatwithmilk,1.81,2.45,0.6400000000000001,shreddedwheatwithmilk,1512.7000000476837,1513,1513.1000000238419,True,i,80688.70000004768,2015.8000000715256,1669829500698,2015,HRV,HRV_0074,2022-11-30 17:35:28
46,"[{'imgObject': {}, 'id': 'orange slices', 'src': '/static/foodstim60/orange slices.jpg', 'key': 'u', 'origWidth': 409, 'origHeight': 410, 'width': 409, 'height': 410, 'widthPercent': 0.45, 'rescaleHeight': False, 'trialN': 46, 'loaded': True, 'loadedTime': 3449, 'positionName': 'LEFT', 'positionCoords': [512.6, 335], 'bid': 3.54}, {'imgObject': {}, 'id': 'apple slices', 'src': '/static/foodstim60/apple slices.jpg', 'key': 'i', 'origWidth': 409, 'origHeight': 410, 'width': 409, 'height': 410, 'widthPercent': 0.45, 'rescaleHeight': False, 'trialN': 46, 'loaded': True, 'loadedTime': 3578.2999999523163, 'positionName': 'RIGHT', 'positionCoords': [998.4, 335], 'bid': 4.15}]",80688.89999997616,1669829500698,orange slices,apple slices,3.54,4.15,0.6100000000000003,apple slices,1086.3999999761581,1087,1086.6000000238419,True,i,82284.10000002384,1595.2000000476837,1669829502294,1596,HRV,HRV_0074,2022-11-30 17:35:28
47,"[{'imgObject': {}, 'id': 'yogurt no spoon', 'src': '/static/foodstim60/yogurt no spoon.jpg', 'key': 'u', 'origWidth': 411, 'origHeight': 410, 'width': 411, 'height': 410, 'widthPercent': 0.45, 'rescaleHeight': False, 'trialN': 47, 'loaded': True, 'loadedTime': 3584.7999999523163, 'positionName': 'LEFT', 'positionCoords': [510.6, 335], 'bid': 4.04}, {'imgObject': {}, 'id': 'veggieswithdip', 'src': '/static/foodstim60/veggieswithdip.jpg', 'key': 'i', 'origWidth': 409, 'origHeight': 409, 'width': 409, 'height': 409, 'widthPercent': 0.45, 'rescaleHeight': False, 'trialN': 47, 'loaded': True, 'loadedTime': 3585.5, 'positionName': 'RIGHT', 'positionCoords': [998.4, 335.5], 'bid': 3.93}]",82284.10000002384,1669829502294,yogurt no spoon,veggieswithdip,4.04,3.93,-0.10999999999999988,veggieswithdip,1421.1000000238419,1421,1421.2999999523163,True,i,84221.5,1937.3999999761581,1669829504231,1937,HRV,HRV_0074,2022-11-30 17:35:28
48,"[{'imgObject': {}, 'id': 'ice cream sundae 002', 'src': '/static/foodstim60/ice cream sundae 002.jpg', 'key': 'u', 'origWidth': 409, 'origHeight': 409, 'width': 409, 'height': 409, 'widthPercent': 0.45, 'rescaleHeight': False, 'trialN': 48, 'loaded': True, 'loadedTime': 3355.2000000476837, 'positionName': 'LEFT', 'positionCoords': [512.6, 335.5], 'bid': 3.75}, {'imgObject': {}, 'id': 'luckycharms', 'src': '/static/foodstim60/luckycharms.jpg', 'key': 'i', 'origWidth': 410, 'origHeight': 409, 'width': 410, 'height': 409, 'widthPercent': 0.45, 'rescaleHeight': False, 'trialN': 48, 'loaded': True, 'loadedTime': 3575.7999999523163, 'positionName': 'RIGHT', 'positionCoords': [998.4, 335.5], 'bid': 3.85}]",84221.60000002384,1669829504231,ice cream sundae 002,luckycharms,3.75,3.85,0.10000000000000009,luckycharms,928.6000000238419,929,928.8999999761581,True,i,85655.5,1433.8999999761581,1669829505665,1434,HRV,HRV_0074,2022-11-30 17:35:28
49,"[{'imgObject': {}, 'id': 'bagel plain', 'src': '/static/foodstim60/bagel plain.jpg', 'key': 'u', 'origWidth': 410, 'origHeight': 410, 'width': 410, 'height': 410, 'widthPercent': 0.45, 'rescaleHeight': False, 'trialN': 49, 'loaded': True, 'loadedTime': 3496.7999999523163, 'positionName': 'LEFT', 'positionCoords': [511.6, 335], 'bid': 7.19}, {'imgObject': {}, 'id': 'kiwi', 'src': '/static/foodstim60/kiwi.jpg', 'key': 'i', 'origWidth': 410, 'origHeight': 410, 'width': 410, 'height': 410, 'widthPercent': 0.45, 'rescaleHeight': False, 'trialN': 49, 'loaded': True, 'loadedTime': 3587, 'positionName': 'RIGHT', 'positionCoords': [998.4, 335], 'bid': 5.36}]",85655.70000004768,1669829505665,bagel plain,kiwi,7.19,5.36,-1.83,bagel plain,1139.1999999284744,1140,1139.5,True,u,87312.60000002384,1656.8999999761581,1669829507322,1657,HRV,HRV_0074,2022-11-30 17:35:28
50,"[{'imgObject': {}, 'id': 'bagel plain', 'src': '/static/foodstim60/bagel plain.jpg', 'key': 'u', 'origWidth': 410, 'origHeight': 410, 'width': 410, 'height': 410, 'widthPercent': 0.45, 'rescaleHeight': False, 'trialN': 50, 'loaded': True, 'loadedTime': 3496.7999999523163, 'positionName': 'LEFT', 'positionCoords': [511.6, 335], 'bid': 7.19}, {'imgObject': {}, 'id': 'burger', 'src': '/static/foodstim60/burger.jpg', 'key': 'i', 'origWidth': 409, 'origHeight': 409, 'width': 409, 'height': 409, 'widthPercent': 0.45, 'rescaleHeight': False, 'trialN': 50, 'loaded': True, 'loadedTime': 3183, 'positionName': 'RIGHT', 'positionCoords': [998.4, 335.5], 'bid': 7.79}]",87312.79999995232,1669829507322,bagel plain,burger,7.19,7.79,0.5999999999999996,burger,797.1000000238419,798,797.2000000476837,True,i,88620.60000002384,1307.8000000715256,1669829508630,1308,HRV,HRV_0074,2022-11-30 17:35:28
51,"[{'imgObject': {}, 'id': 'cherries', 'src': '/static/foodstim60/cherries.jpg', 'key': 'u', 'origWidth': 410, 'origHeight': 411, 'width': 410, 'height': 411, 'widthPercent': 0.45, 'rescaleHeight': False, 'trialN': 51, 'loaded': True, 'loadedTime': 3589.2999999523163, 'positionName': 'LEFT', 'positionCoords': [511.6, 334.5], 'bid': 1.51}, {'imgObject': {}, 'id': 'sweetpotato', 'src': '/static/foodstim60/sweetpotato.jpg', 'key': 'i', 'origWidth': 410, 'origHeight': 410, 'width': 410, 'height': 410, 'widthPercent': 0.45, 'rescaleHeight': False, 'trialN': 51, 'loaded': True, 'loadedTime': 3580, 'positionName': 'RIGHT', 'positionCoords': [998.4, 335], 'bid': 0.64}]",88620.79999995232,1669829508630,cherries,sweetpotato,1.51,0.64,-0.87,sweetpotato,1259.4000000953674,1260,1259.7000000476837,True,i,90395.0,1774.2000000476837,1669829510405,1775,HRV,HRV_0074,2022-11-30 17:35:28
52,"[{'imgObject': {}, 'id': 'eggs', 'src': '/static/foodstim60/eggs.jpg', 'key': 'u', 'origWidth': 409, 'origHeight': 409, 'width': 409, 'height': 409, 'widthPercent': 0.45, 'rescaleHeight': False, 'trialN': 52, 'loaded': True, 'loadedTime': 3145.100000023842, 'positionName': 'LEFT', 'positionCoords': [512.6, 335.5], 'bid': 4.1}, {'imgObject': {}, 'id': 'turkey sandwich', 'src': '/static/foodstim60/turkey sandwich.jpg', 'key': 'i', 'origWidth': 409, 'origHeight': 409, 'width': 409, 'height': 409, 'widthPercent': 0.45, 'rescaleHeight': False, 'trialN': 52, 'loaded': True, 'loadedTime': 3589.7000000476837, 'positionName': 'RIGHT', 'positionCoords': [998.4, 335.5], 'bid': 7.08}]",90395.20000004768,1669829510405,eggs,turkey sandwich,4.1,7.08,2.9800000000000004,turkey sandwich,999.8999999761581,1000,1000.0999999046326,True,i,91909.20000004768,1514.0,1669829511919,1514,HRV,HRV_0074,2022-11-30 17:35:28
53,"[{'imgObject': {}, 'id': 'bagel plain', 'src': '/static/foodstim60/bagel plain.jpg', 'key': 'u', 'origWidth': 410, 'origHeight': 410, 'width': 410, 'height': 410, 'widthPercent': 0.45, 'rescaleHeight': False, 'trialN': 53, 'loaded': True, 'loadedTime': 3508.399999976158, 'positionName': 'LEFT', 'positionCoords': [511.6, 335], 'bid': 7.19}, {'imgObject': {}, 'id': 'apple slices', 'src': '/static/foodstim60/apple slices.jpg', 'key': 'i', 'origWidth': 409, 'origHeight': 410, 'width': 409, 'height': 410, 'widthPercent': 0.45, 'rescaleHeight': False, 'trialN': 53, 'loaded': True, 'loadedTime': 3578.5, 'positionName': 'RIGHT', 'positionCoords': [998.4, 335], 'bid': 4.15}]",91909.29999995232,1669829511919,bagel plain,apple slices,7.19,4.15,-3.04,bagel plain,952.0,952,952.3000000715256,True,u,93368.5,1459.2000000476837,1669829513378,1459,HRV,HRV_0074,2022-11-30 17:35:28
54,"[{'imgObject': {}, 'id': 'baked potato', 'src': '/static/foodstim60/baked potato.jpg', 'key': 'u', 'origWidth': 409, 'origHeight': 410, 'width': 409, 'height': 410, 'widthPercent': 0.45, 'rescaleHeight': False, 'trialN': 54, 'loaded': True, 'loadedTime': 3529, 'positionName': 'LEFT', 'positionCoords': [512.6, 335], 'bid': 1.81}, {'imgObject': {}, 'id': 'cherries', 'src': '/static/foodstim60/cherries.jpg', 'key': 'i', 'origWidth': 410, 'origHeight': 411, 'width': 410, 'height': 411, 'widthPercent': 0.45, 'rescaleHeight': False, 'trialN': 54, 'loaded': True, 'loadedTime': 3589.7000000476837, 'positionName': 'RIGHT', 'positionCoords': [998.4, 334.5], 'bid': 1.51}]",93368.60000002384,1669829513378,baked potato,cherries,1.81,1.51,-0.30000000000000004,baked potato,897.5,898,897.6999999284744,True,u,94773.0,1404.3999999761581,1669829514783,1405,HRV,HRV_0074,2022-11-30 17:35:28
55,"[{'imgObject': {}, 'id': 'shreddedwheatwithmilk', 'src': '/static/foodstim60/shreddedwheatwithmilk.jpg', 'key': 'u', 'origWidth': 410, 'origHeight': 410, 'width': 410, 'height': 410, 'widthPercent': 0.45, 'rescaleHeight': False, 'trialN': 55, 'loaded': True, 'loadedTime': 3362, 'positionName': 'LEFT', 'positionCoords': [511.6, 335], 'bid': 2.45}, {'imgObject': {}, 'id': 'raisin bran w milk', 'src': '/static/foodstim60/raisin bran w milk.jpg', 'key': 'i', 'origWidth': 411, 'origHeight': 411, 'width': 411, 'height': 411, 'widthPercent': 0.45, 'rescaleHeight': False, 'trialN': 55, 'loaded': True, 'loadedTime': 3592.100000023842, 'positionName': 'RIGHT', 'positionCoords': [998.4, 334.5], 'bid': 2.61}]",94773.10000002384,1669829514783,shreddedwheatwithmilk,raisin bran w milk,2.45,2.61,0.1599999999999997,raisin bran w milk,1412.7999999523163,1413,1413.0,True,i,96699.79999995232,1926.6999999284744,1669829516709,1926,HRV,HRV_0074,2022-11-30 17:35:28
56,"[{'imgObject': {}, 'id': 'raspberries', 'src': '/static/foodstim60/raspberries.jpg', 'key': 'u', 'origWidth': 411, 'origHeight': 411, 'width': 411, 'height': 411, 'widthPercent': 0.45, 'rescaleHeight': False, 'trialN': 56, 'loaded': True, 'loadedTime': 3571.100000023842, 'positionName': 'LEFT', 'positionCoords': [510.6, 334.5], 'bid': 2.64}, {'imgObject': {}, 'id': 'yogurt no spoon', 'src': '/static/foodstim60/yogurt no spoon.jpg', 'key': 'i', 'origWidth': 411, 'origHeight': 410, 'width': 411, 'height': 410, 'widthPercent': 0.45, 'rescaleHeight': False, 'trialN': 56, 'loaded': True, 'loadedTime': 3585.399999976158, 'positionName': 'RIGHT', 'positionCoords': [998.4, 335], 'bid': 4.04}]",96700.0,1669829516710,raspberries,yogurt no spoon,2.64,4.04,1.4,yogurt no spoon,1240.7999999523163,1241,1241.0,True,i,98447.5,1747.5,1669829518457,1747,HRV,HRV_0074,2022-11-30 17:35:28
57,"[{'imgObject': {}, 'id': 'pear', 'src': '/static/foodstim60/pear.jpg', 'key': 'u', 'origWidth': 411, 'origHeight': 410, 'width': 411, 'height': 410, 'widthPercent': 0.45, 'rescaleHeight': False, 'trialN': 57, 'loaded': True, 'loadedTime': 3379.7000000476837, 'positionName': 'LEFT', 'positionCoords': [510.6, 335], 'bid': 4.51}, {'imgObject': {}, 'id': 'froot loops w milk', 'src': '/static/foodstim60/froot loops w milk.jpg', 'key': 'i', 'origWidth': 410, 'origHeight': 410, 'width': 410, 'height': 410, 'widthPercent': 0.45, 'rescaleHeight': False, 'trialN': 57, 'loaded': True, 'loadedTime': 3309.399999976158, 'positionName': 'RIGHT', 'positionCoords': [998.4, 335], 'bid': 4.5600000000000005}]",98447.70000004768,1669829518457,pear,froot loops w milk,4.51,4.5600000000000005,0.05000000000000071,froot loops w milk,1028.6999999284744,1029,1028.8999999761581,True,i,99983.0,1535.2999999523163,1669829519993,1536,HRV,HRV_0074,2022-11-30 17:35:28
58,"[{'imgObject': {}, 'id': 'salmon', 'src': '/static/foodstim60/salmon.jpg', 'key': 'u', 'origWidth': 410, 'origHeight': 409, 'width': 410, 'height': 409, 'widthPercent': 0.45, 'rescaleHeight': False, 'trialN': 58, 'loaded': True, 'loadedTime': 3510.399999976158, 'positionName': 'LEFT', 'positionCoords': [511.6, 335.5], 'bid': 7.04}, {'imgObject': {}, 'id': 'turkey sandwich', 'src': '/static/foodstim60/turkey sandwich.jpg', 'key': 'i', 'origWidth': 409, 'origHeight': 409, 'width': 409, 'height': 409, 'widthPercent': 0.45, 'rescaleHeight': False, 'trialN': 58, 'loaded': True, 'loadedTime': 3590.5, 'positionName': 'RIGHT', 'positionCoords': [998.4, 335.5], 'bid': 7.08}]",99983.10000002384,1669829519993,salmon,turkey sandwich,7.04,7.08,0.040000000000000036,turkey sandwich,1568.6999999284744,1569,1569.0,True,i,102070.39999997616,2087.2999999523163,1669829522080,2087,HRV,HRV_0074,2022-11-30 17:35:28
59,"[{'imgObject': {}, 'id': 'burger', 'src': '/static/foodstim60/burger.jpg', 'key': 'u', 'origWidth': 409, 'origHeight': 409, 'width': 409, 'height': 409, 'widthPercent': 0.45, 'rescaleHeight': False, 'trialN': 59, 'loaded': True, 'loadedTime': 3182.399999976158, 'positionName': 'LEFT', 'positionCoords': [512.6, 335.5], 'bid': 7.79}, {'imgObject': {}, 'id': 'sushi w_condiments', 'src': '/static/foodstim60/sushi w_condiments.jpg', 'key': 'i', 'origWidth': 410, 'origHeight': 410, 'width': 410, 'height': 410, 'widthPercent': 0.45, 'rescaleHeight': False, 'trialN': 59, 'loaded': True, 'loadedTime': 3344.7000000476837, 'positionName': 'RIGHT', 'positionCoords': [998.4, 335], 'bid': 8.76}]",102070.39999997616,1669829522080,burger,sushi w_condiments,7.79,8.76,0.9699999999999998,sushi w_condiments,1420.7000000476837,1421,1420.8999999761581,True,i,104008.5,1938.1000000238419,1669829524018,1938,HRV,HRV_0074,2022-11-30 17:35:28
60,"[{'imgObject': {}, 'id': 'seaweed', 'src': '/static/foodstim60/seaweed.jpg', 'key': 'u', 'origWidth': 410, 'origHeight': 410, 'width': 410, 'height': 410, 'widthPercent': 0.45, 'rescaleHeight': False, 'trialN': 60, 'loaded': True, 'loadedTime': 3186.7000000476837, 'positionName': 'LEFT', 'positionCoords': [511.6, 335], 'bid': 0.91}, {'imgObject': {}, 'id': 'mango', 'src': '/static/foodstim60/mango.jpg', 'key': 'i', 'origWidth': 411, 'origHeight': 411, 'width': 411, 'height': 411, 'widthPercent': 0.45, 'rescaleHeight': False, 'trialN': 60, 'loaded': True, 'loadedTime': 3051, 'positionName': 'RIGHT', 'positionCoords': [998.4, 334.5], 'bid': 0.87}]",104008.70000004768,1669829524018,seaweed,mango,0.91,0.87,-0.040000000000000036,mango,1612.2999999523163,1613,1612.5999999046326,True,i,106130.0,2121.2999999523163,1669829526140,2122,HRV,HRV_0074,2022-11-30 17:35:28
61,"[{'imgObject': {}, 'id': 'corn cob', 'src': '/static/foodstim60/corn cob.jpg', 'key': 'u', 'origWidth': 411, 'origHeight': 411, 'width': 411, 'height': 411, 'widthPercent': 0.45, 'rescaleHeight': False, 'trialN': 61, 'loaded': True, 'loadedTime': 3526.2000000476837, 'positionName': 'LEFT', 'positionCoords': [510.6, 334.5], 'bid': 2.34}, {'imgObject': {}, 'id': 'eggsalad', 'src': '/static/foodstim60/eggsalad.jpg', 'key': 'i', 'origWidth': 410, 'origHeight': 409, 'width': 410, 'height': 409, 'widthPercent': 0.45, 'rescaleHeight': False, 'trialN': 61, 'loaded': True, 'loadedTime': 3422.7000000476837, 'positionName': 'RIGHT', 'positionCoords': [998.4, 335.5], 'bid': 1.19}]",106130.20000004768,1669829526140,corn cob,eggsalad,2.34,1.19,-1.15,corn cob,1155.5999999046326,1156,1155.8999999761581,True,u,107803.79999995232,1673.5999999046326,1669829527813,1673,HRV,HRV_0074,2022-11-30 17:35:28
62,"[{'imgObject': {}, 'id': 'fruitsalad', 'src': '/static/foodstim60/fruitsalad.jpg', 'key': 'u', 'origWidth': 410, 'origHeight': 410, 'width': 410, 'height': 410, 'widthPercent': 0.45, 'rescaleHeight': False, 'trialN': 62, 'loaded': True, 'loadedTime': 3543.399999976158, 'positionName': 'LEFT', 'positionCoords': [511.6, 335], 'bid': 7.77}, {'imgObject': {}, 'id': 'turkey sandwich', 'src': '/static/foodstim60/turkey sandwich.jpg', 'key': 'i', 'origWidth': 409, 'origHeight': 409, 'width': 409, 'height': 409, 'widthPercent': 0.45, 'rescaleHeight': False, 'trialN': 62, 'loaded': True, 'loadedTime': 3591, 'positionName': 'RIGHT', 'positionCoords': [998.4, 335.5], 'bid': 7.08}]",107803.79999995232,1669829527813,fruitsalad,turkey sandwich,7.77,7.08,-0.6899999999999995,fruitsalad,1342.1000000238419,1343,1342.3000000715256,True,u,109651.39999997616,1847.6000000238419,1669829529661,1848,HRV,HRV_0074,2022-11-30 17:35:28
63,"[{'imgObject': {}, 'id': 'avocado', 'src': '/static/foodstim60/avocado.jpg', 'key': 'u', 'origWidth': 409, 'origHeight': 409, 'width': 409, 'height': 409, 'widthPercent': 0.45, 'rescaleHeight': False, 'trialN': 63, 'loaded': True, 'loadedTime': 3262.399999976158, 'positionName': 'LEFT', 'positionCoords': [512.6, 335.5], 'bid': 1.12}, {'imgObject': {}, 'id': 'pear', 'src': '/static/foodstim60/pear.jpg', 'key': 'i', 'origWidth': 411, 'origHeight': 410, 'width': 411, 'height': 410, 'widthPercent': 0.45, 'rescaleHeight': False, 'trialN': 63, 'loaded': True, 'loadedTime': 3394.399999976158, 'positionName': 'RIGHT', 'positionCoords': [998.4, 335], 'bid': 4.51}]",109651.5,1669829529661,avocado,pear,1.12,4.51,3.3899999999999997,pear,1354.7000000476837,1355,1355.1000000238419,True,i,111525.39999997616,1873.8999999761581,1669829531535,1874,HRV,HRV_0074,2022-11-30 17:35:28
64,"[{'imgObject': {}, 'id': 'luckycharms', 'src': '/static/foodstim60/luckycharms.jpg', 'key': 'u', 'origWidth': 410, 'origHeight': 409, 'width': 410, 'height': 409, 'widthPercent': 0.45, 'rescaleHeight': False, 'trialN': 64, 'loaded': True, 'loadedTime': 3575.899999976158, 'positionName': 'LEFT', 'positionCoords': [511.6, 335.5], 'bid': 3.85}, {'imgObject': {}, 'id': 'turkeysandwich', 'src': '/static/foodstim60/turkeysandwich.jpg', 'key': 'i', 'origWidth': 409, 'origHeight': 409, 'width': 409, 'height': 409, 'widthPercent': 0.45, 'rescaleHeight': False, 'trialN': 64, 'loaded': True, 'loadedTime': 3026.899999976158, 'positionName': 'RIGHT', 'positionCoords': [998.4, 335.5], 'bid': 6.67}]",111525.5,1669829531535,luckycharms,turkeysandwich,3.85,6.67,2.82,turkeysandwich,766.6000000238419,767,766.8999999761581,True,i,112801.79999995232,1276.2999999523163,1669829532811,1276,HRV,HRV_0074,2022-11-30 17:35:28
65,"[{'imgObject': {}, 'id': 'fried eggs', 'src': '/static/foodstim60/fried eggs.jpg', 'key': 'u', 'origWidth': 410, 'origHeight': 410, 'width': 410, 'height': 410, 'widthPercent': 0.45, 'rescaleHeight': False, 'trialN': 65, 'loaded': True, 'loadedTime': 3226.899999976158, 'positionName': 'LEFT', 'positionCoords': [511.6, 335], 'bid': 6.26}, {'imgObject': {}, 'id': 'grilled chicken strips', 'src': '/static/foodstim60/grilled chicken strips.jpg', 'key': 'i', 'origWidth': 410, 'origHeight': 411, 'width': 410, 'height': 411, 'widthPercent': 0.45, 'rescaleHeight': False, 'trialN': 65, 'loaded': True, 'loadedTime': 3527.7999999523163, 'positionName': 'RIGHT', 'positionCoords': [998.4, 334.5], 'bid': 6.4}]",112801.79999995232,1669829532811,fried eggs,grilled chicken strips,6.26,6.4,0.14000000000000057,grilled chicken strips,1344.3000000715256,1345,1344.5,True,i,114653.79999995232,1852.0,1669829534663,1852,HRV,HRV_0074,2022-11-30 17:35:28
66,"[{'imgObject': {}, 'id': 'olives', 'src': '/static/foodstim60/olives.jpg', 'key': 'u', 'origWidth': 410, 'origHeight': 410, 'width': 410, 'height': 410, 'widthPercent': 0.45, 'rescaleHeight': False, 'trialN': 66, 'loaded': True, 'loadedTime': 2999.600000023842, 'positionName': 'LEFT', 'positionCoords': [511.6, 335], 'bid': 7.52}, {'imgObject': {}, 'id': 'bagel and cc', 'src': '/static/foodstim60/bagel and cc.jpg', 'key': 'i', 'origWidth': 410, 'origHeight': 410, 'width': 410, 'height': 410, 'widthPercent': 0.45, 'rescaleHeight': False, 'trialN': 66, 'loaded': True, 'loadedTime': 3341.2999999523163, 'positionName': 'RIGHT', 'positionCoords': [998.4, 335], 'bid': 7.35}]",114654.0,1669829534664,olives,bagel and cc,7.52,7.35,-0.16999999999999993,bagel and cc,1562.0,1562,1562.2000000476837,True,i,116727.39999997616,2073.399999976158,1669829536737,2073,HRV,HRV_0074,2022-11-30 17:35:28
67,"[{'imgObject': {}, 'id': 'shreddedwheatwithmilk', 'src': '/static/foodstim60/shreddedwheatwithmilk.jpg', 'key': 'u', 'origWidth': 410, 'origHeight': 410, 'width': 410, 'height': 410, 'widthPercent': 0.45, 'rescaleHeight': False, 'trialN': 67, 'loaded': True, 'loadedTime': 3377.2999999523163, 'positionName': 'LEFT', 'positionCoords': [511.6, 335], 'bid': 2.45}, {'imgObject': {}, 'id': 'granola w milk', 'src': '/static/foodstim60/granola w milk.jpg', 'key': 'i', 'origWidth': 410, 'origHeight': 410, 'width': 410, 'height': 410, 'widthPercent': 0.45, 'rescaleHeight': False, 'trialN': 67, 'loaded': True, 'loadedTime': 3593.5, 'positionName': 'RIGHT', 'positionCoords': [998.4, 335], 'bid': 2.46}]",116727.5,1669829536737,shreddedwheatwithmilk,granola w milk,2.45,2.46,0.009999999999999787,granola w milk,1474.2999999523163,1475,1474.6000000238419,True,i,118717.0,1989.5,1669829538727,1990,HRV,HRV_0074,2022-11-30 17:35:28
68,"[{'imgObject': {}, 'id': 'fruitsalad', 'src': '/static/foodstim60/fruitsalad.jpg', 'key': 'u', 'origWidth': 410, 'origHeight': 410, 'width': 410, 'height': 410, 'widthPercent': 0.45, 'rescaleHeight': False, 'trialN': 68, 'loaded': True, 'loadedTime': 3542.899999976158, 'positionName': 'LEFT', 'positionCoords': [511.6, 335], 'bid': 7.77}, {'imgObject': {}, 'id': 'tacos', 'src': '/static/foodstim60/tacos.jpg', 'key': 'i', 'origWidth': 411, 'origHeight': 411, 'width': 411, 'height': 411, 'widthPercent': 0.45, 'rescaleHeight': False, 'trialN': 68, 'loaded': True, 'loadedTime': 3294.899999976158, 'positionName': 'RIGHT', 'positionCoords': [998.4, 334.5], 'bid': 7.57}]",118717.10000002384,1669829538727,fruitsalad,tacos,7.77,7.57,-0.1999999999999993,fruitsalad,1453.6999999284744,1454,1454.0,True,u,120683.20000004768,1966.1000000238419,1669829540693,1966,HRV,HRV_0074,2022-11-30 17:35:28
69,"[{'imgObject': {}, 'id': 'chicken nuggets2', 'src': '/static/foodstim60/chicken nuggets2.jpg', 'key': 'u', 'origWidth': 410, 'origHeight': 409, 'width': 410, 'height': 409, 'widthPercent': 0.45, 'rescaleHeight': False, 'trialN': 69, 'loaded': True, 'loadedTime': 3173, 'positionName': 'LEFT', 'positionCoords': [511.6, 335.5], 'bid': 6.84}, {'imgObject': {}, 'id': 'strawberries', 'src': '/static/foodstim60/strawberries.jpg', 'key': 'i', 'origWidth': 410, 'origHeight': 410, 'width': 410, 'height': 410, 'widthPercent': 0.45, 'rescaleHeight': False, 'trialN': 69, 'loaded': True, 'loadedTime': 3594.399999976158, 'positionName': 'RIGHT', 'positionCoords': [998.4, 335], 'bid': 5.51}]",120683.39999997616,1669829540693,chicken nuggets2,strawberries,6.84,5.51,-1.33,chicken nuggets2,1183.8999999761581,1184,1184.2000000476837,True,u,122379.0,1695.6000000238419,1669829542389,1696,HRV,HRV_0074,2022-11-30 17:35:28
70,"[{'imgObject': {}, 'id': 'tacos', 'src': '/static/foodstim60/tacos.jpg', 'key': 'u', 'origWidth': 411, 'origHeight': 411, 'width': 411, 'height': 411, 'widthPercent': 0.45, 'rescaleHeight': False, 'trialN': 70, 'loaded': True, 'loadedTime': 3294.600000023842, 'positionName': 'LEFT', 'positionCoords': [510.6, 334.5], 'bid': 7.57}, {'imgObject': {}, 'id': 'fried eggs', 'src': '/static/foodstim60/fried eggs.jpg', 'key': 'i', 'origWidth': 410, 'origHeight': 410, 'width': 410, 'height': 410, 'widthPercent': 0.45, 'rescaleHeight': False, 'trialN': 70, 'loaded': True, 'loadedTime': 3226.100000023842, 'positionName': 'RIGHT', 'positionCoords': [998.4, 335], 'bid': 6.26}]",122379.10000002384,1669829542389,tacos,fried eggs,7.57,6.26,-1.3100000000000005,tacos,988.8999999761581,989,989.1999999284744,True,u,123880.60000002384,1501.5,1669829543890,1501,HRV,HRV_0074,2022-11-30 17:35:28
71,"[{'imgObject': {}, 'id': 'chicken nuggets2', 'src': '/static/foodstim60/chicken nuggets2.jpg', 'key': 'u', 'origWidth': 410, 'origHeight': 409, 'width': 410, 'height': 409, 'widthPercent': 0.45, 'rescaleHeight': False, 'trialN': 71, 'loaded': True, 'loadedTime': 3159.2999999523163, 'positionName': 'LEFT', 'positionCoords': [511.6, 335.5], 'bid': 6.84}, {'imgObject': {}, 'id': 'hashbrowns', 'src': '/static/foodstim60/hashbrowns.jpg', 'key': 'i', 'origWidth': 411, 'origHeight': 410, 'width': 411, 'height': 410, 'widthPercent': 0.45, 'rescaleHeight': False, 'trialN': 71, 'loaded': True, 'loadedTime': 3424.5, 'positionName': 'RIGHT', 'positionCoords': [998.4, 335], 'bid': 1.85}]",123880.79999995232,1669829543890,chicken nuggets2,hashbrowns,6.84,1.85,-4.99,chicken nuggets2,846.2000000476837,847,846.5,True,u,125233.39999997616,1352.6000000238419,1669829545243,1353,HRV,HRV_0074,2022-11-30 17:35:28
72,"[{'imgObject': {}, 'id': 'fried eggs', 'src': '/static/foodstim60/fried eggs.jpg', 'key': 'u', 'origWidth': 410, 'origHeight': 410, 'width': 410, 'height': 410, 'widthPercent': 0.45, 'rescaleHeight': False, 'trialN': 72, 'loaded': True, 'loadedTime': 3227.2000000476837, 'positionName': 'LEFT', 'positionCoords': [511.6, 335], 'bid': 6.26}, {'imgObject': {}, 'id': 'pear', 'src': '/static/foodstim60/pear.jpg', 'key': 'i', 'origWidth': 411, 'origHeight': 410, 'width': 411, 'height': 410, 'widthPercent': 0.45, 'rescaleHeight': False, 'trialN': 72, 'loaded': True, 'loadedTime': 3394, 'positionName': 'RIGHT', 'positionCoords': [998.4, 335], 'bid': 4.51}]",125233.60000002384,1669829545243,fried eggs,pear,6.26,4.51,-1.75,fried eggs,1288.6999999284744,1289,1288.7999999523163,True,u,127025.29999995232,1791.6999999284744,1669829547035,1792,HRV,HRV_0074,2022-11-30 17:35:28
73,"[{'imgObject': {}, 'id': 'rigatoni', 'src': '/static/foodstim60/rigatoni.jpg', 'key': 'u', 'origWidth': 411, 'origHeight': 411, 'width': 411, 'height': 411, 'widthPercent': 0.45, 'rescaleHeight': False, 'trialN': 73, 'loaded': True, 'loadedTime': 3444.7999999523163, 'positionName': 'LEFT', 'positionCoords': [510.6, 334.5], 'bid': 1.94}, {'imgObject': {}, 'id': 'corn cob', 'src': '/static/foodstim60/corn cob.jpg', 'key': 'i', 'origWidth': 411, 'origHeight': 411, 'width': 411, 'height': 411, 'widthPercent': 0.45, 'rescaleHeight': False, 'trialN': 73, 'loaded': True, 'loadedTime': 3526.2000000476837, 'positionName': 'RIGHT', 'positionCoords': [998.4, 334.5], 'bid': 2.34}]",127025.39999997616,1669829547035,rigatoni,corn cob,1.94,2.34,0.3999999999999999,corn cob,1572.3000000715256,1573,1572.7000000476837,True,i,129114.5,2089.100000023842,1669829549124,2089,HRV,HRV_0074,2022-11-30 17:35:28
74,"[{'imgObject': {}, 'id': 'rigatoni and sauce', 'src': '/static/foodstim60/rigatoni and sauce.jpg', 'key': 'u', 'origWidth': 410, 'origHeight': 411, 'width': 410, 'height': 411, 'widthPercent': 0.45, 'rescaleHeight': False, 'trialN': 74, 'loaded': True, 'loadedTime': 3476.899999976158, 'positionName': 'LEFT', 'positionCoords': [511.6, 334.5], 'bid': 1.6}, {'imgObject': {}, 'id': 'cherries', 'src': '/static/foodstim60/cherries.jpg', 'key': 'i', 'origWidth': 410, 'origHeight': 411, 'width': 410, 'height': 411, 'widthPercent': 0.45, 'rescaleHeight': False, 'trialN': 74, 'loaded': True, 'loadedTime': 3588.5, 'positionName': 'RIGHT', 'positionCoords': [998.4, 334.5], 'bid': 1.51}]",129114.70000004768,1669829549125,rigatoni and sauce,cherries,1.6,1.51,-0.09000000000000008,rigatoni and sauce,1042.1999999284744,1042,1042.5,True,u,130663.89999997616,1549.1999999284744,1669829550674,1549,HRV,HRV_0074,2022-11-30 17:35:28
75,"[{'imgObject': {}, 'id': 'granola w milk', 'src': '/static/foodstim60/granola w milk.jpg', 'key': 'u', 'origWidth': 410, 'origHeight': 410, 'width': 410, 'height': 410, 'widthPercent': 0.45, 'rescaleHeight': False, 'trialN': 75, 'loaded': True, 'loadedTime': 3592.2999999523163, 'positionName': 'LEFT', 'positionCoords': [511.6, 335], 'bid': 2.46}, {'imgObject': {}, 'id': 'burrito', 'src': '/static/foodstim60/burrito.jpg', 'key': 'i', 'origWidth': 410, 'origHeight': 410, 'width': 410, 'height': 410, 'widthPercent': 0.45, 'rescaleHeight': False, 'trialN': 75, 'loaded': True, 'loadedTime': 3596.600000023842, 'positionName': 'RIGHT', 'positionCoords': [998.4, 335], 'bid': 7.22}]",130664.10000002384,1669829550674,granola w milk,burrito,2.46,7.22,4.76,burrito,1058.1999999284744,1059,1058.6000000238419,True,i,132244.5,1580.3999999761581,1669829552254,1580,HRV,HRV_0074,2022-11-30 17:35:28
76,"[{'imgObject': {}, 'id': 'bagel plain', 'src': '/static/foodstim60/bagel plain.jpg', 'key': 'u', 'origWidth': 410, 'origHeight': 410, 'width': 410, 'height': 410, 'widthPercent': 0.45, 'rescaleHeight': False, 'trialN': 76, 'loaded': True, 'loadedTime': 3496.5, 'positionName': 'LEFT', 'positionCoords': [511.6, 335], 'bid': 7.19}, {'imgObject': {}, 'id': 'burrito', 'src': '/static/foodstim60/burrito.jpg', 'key': 'i', 'origWidth': 410, 'origHeight': 410, 'width': 410, 'height': 410, 'widthPercent': 0.45, 'rescaleHeight': False, 'trialN': 76, 'loaded': True, 'loadedTime': 3596.7999999523163, 'positionName': 'RIGHT', 'positionCoords': [998.4, 335], 'bid': 7.22}]",132244.60000002384,1669829552254,bagel plain,burrito,7.19,7.22,0.02999999999999936,bagel plain,1117.2999999523163,1118,1117.5,True,u,133866.29999995232,1621.6999999284744,1669829553876,1622,HRV,HRV_0074,2022-11-30 17:35:28
77,"[{'imgObject': {}, 'id': 'yogurt no spoon', 'src': '/static/foodstim60/yogurt no spoon.jpg', 'key': 'u', 'origWidth': 411, 'origHeight': 410, 'width': 411, 'height': 410, 'widthPercent': 0.45, 'rescaleHeight': False, 'trialN': 77, 'loaded': True, 'loadedTime': 3585.2999999523163, 'positionName': 'LEFT', 'positionCoords': [510.6, 335], 'bid': 4.04}, {'imgObject': {}, 'id': 'apple slices', 'src': '/static/foodstim60/apple slices.jpg', 'key': 'i', 'origWidth': 409, 'origHeight': 410, 'width': 409, 'height': 410, 'widthPercent': 0.45, 'rescaleHeight': False, 'trialN': 77, 'loaded': True, 'loadedTime': 3576.399999976158, 'positionName': 'RIGHT', 'positionCoords': [998.4, 335], 'bid': 4.15}]",133866.39999997616,1669829553876,yogurt no spoon,apple slices,4.04,4.15,0.11000000000000032,apple slices,1031.3000000715256,1032,1031.5,True,i,135400.10000002384,1533.7000000476837,1669829555410,1534,HRV,HRV_0074,2022-11-30 17:35:28
78,"[{'imgObject': {}, 'id': 'chickenfingers', 'src': '/static/foodstim60/chickenfingers.jpg', 'key': 'u', 'origWidth': 410, 'origHeight': 410, 'width': 410, 'height': 410, 'widthPercent': 0.45, 'rescaleHeight': False, 'trialN': 78, 'loaded': True, 'loadedTime': 3207.7000000476837, 'positionName': 'LEFT', 'positionCoords': [511.6, 335], 'bid': 6.16}, {'imgObject': {}, 'id': 'salad w chicken', 'src': '/static/foodstim60/salad w chicken.jpg', 'key': 'i', 'origWidth': 411, 'origHeight': 411, 'width': 411, 'height': 411, 'widthPercent': 0.45, 'rescaleHeight': False, 'trialN': 78, 'loaded': True, 'loadedTime': 3556.899999976158, 'positionName': 'RIGHT', 'positionCoords': [998.4, 334.5], 'bid': 5.88}]",135400.10000002384,1669829555410,chickenfingers,salad w chicken,6.16,5.88,-0.28000000000000025,chickenfingers,1631.6999999284744,1632,1632.0,True,u,137535.29999995232,2135.1999999284744,1669829557545,2135,HRV,HRV_0074,2022-11-30 17:35:28
79,"[{'imgObject': {}, 'id': 'blackbeanswithrice', 'src': '/static/foodstim60/blackbeanswithrice.jpg', 'key': 'u', 'origWidth': 410, 'origHeight': 410, 'width': 410, 'height': 410, 'widthPercent': 0.45, 'rescaleHeight': False, 'trialN': 79, 'loaded': True, 'loadedTime': 3180, 'positionName': 'LEFT', 'positionCoords': [511.6, 335], 'bid': 0.97}, {'imgObject': {}, 'id': 'raisin bran w milk', 'src': '/static/foodstim60/raisin bran w milk.jpg', 'key': 'i', 'origWidth': 411, 'origHeight': 411, 'width': 411, 'height': 411, 'widthPercent': 0.45, 'rescaleHeight': False, 'trialN': 79, 'loaded': True, 'loadedTime': 3592.2000000476837, 'positionName': 'RIGHT', 'positionCoords': [998.4, 334.5], 'bid': 2.61}]",137535.5,1669829557545,blackbeanswithrice,raisin bran w milk,0.97,2.61,1.64,raisin bran w milk,901.3999999761581,902,901.6000000238419,True,i,138956.29999995232,1420.7999999523163,1669829558966,1421,HRV,HRV_0074,2022-11-30 17:35:28
80,"[{'imgObject': {}, 'id': 'sweetpotato', 'src': '/static/foodstim60/sweetpotato.jpg', 'key': 'u', 'origWidth': 410, 'origHeight': 410, 'width': 410, 'height': 410, 'widthPercent': 0.45, 'rescaleHeight': False, 'trialN': 80, 'loaded': True, 'loadedTime': 3580.600000023842, 'positionName': 'LEFT', 'positionCoords': [511.6, 335], 'bid': 0.64}, {'imgObject': {}, 'id': 'veggieswithdip', 'src': '/static/foodstim60/veggieswithdip.jpg', 'key': 'i', 'origWidth': 409, 'origHeight': 409, 'width': 409, 'height': 409, 'widthPercent': 0.45, 'rescaleHeight': False, 'trialN': 80, 'loaded': True, 'loadedTime': 3586.2999999523163, 'positionName': 'RIGHT', 'positionCoords': [998.4, 335.5], 'bid': 3.93}]",138956.39999997616,1669829558966,sweetpotato,veggieswithdip,0.64,3.93,3.29,veggieswithdip,925.5,926,925.8000000715256,True,i,140392.89999997616,1436.5,1669829560403,1437,HRV,HRV_0074,2022-11-30 17:35:28
81,"[{'imgObject': {}, 'id': 'olives', 'src': '/static/foodstim60/olives.jpg', 'key': 'u', 'origWidth': 410, 'origHeight': 410, 'width': 410, 'height': 410, 'widthPercent': 0.45, 'rescaleHeight': False, 'trialN': 81, 'loaded': True, 'loadedTime': 3010.600000023842, 'positionName': 'LEFT', 'positionCoords': [511.6, 335], 'bid': 7.52}, {'imgObject': {}, 'id': 'chickenfingers', 'src': '/static/foodstim60/chickenfingers.jpg', 'key': 'i', 'origWidth': 410, 'origHeight': 410, 'width': 410, 'height': 410, 'widthPercent': 0.45, 'rescaleHeight': False, 'trialN': 81, 'loaded': True, 'loadedTime': 3208.100000023842, 'positionName': 'RIGHT', 'positionCoords': [998.4, 335], 'bid': 6.16}]",140393.10000002384,1669829560403,olives,chickenfingers,7.52,6.16,-1.3599999999999994,chickenfingers,1048.8999999761581,1049,1049.1000000238419,True,i,141956.10000002384,1563.0,1669829561966,1563,HRV,HRV_0074,2022-11-30 17:35:28
82,"[{'imgObject': {}, 'id': 'salad w chicken', 'src': '/static/foodstim60/salad w chicken.jpg', 'key': 'u', 'origWidth': 411, 'origHeight': 411, 'width': 411, 'height': 411, 'widthPercent': 0.45, 'rescaleHeight': False, 'trialN': 82, 'loaded': True, 'loadedTime': 3543.7999999523163, 'positionName': 'LEFT', 'positionCoords': [510.6, 334.5], 'bid': 5.88}, {'imgObject': {}, 'id': 'bagel and cc', 'src': '/static/foodstim60/bagel and cc.jpg', 'key': 'i', 'origWidth': 410, 'origHeight': 410, 'width': 410, 'height': 410, 'widthPercent': 0.45, 'rescaleHeight': False, 'trialN': 82, 'loaded': True, 'loadedTime': 3342.2000000476837, 'positionName': 'RIGHT', 'positionCoords': [998.4, 335], 'bid': 7.35}]",141956.20000004768,1669829561966,salad w chicken,bagel and cc,5.88,7.35,1.4699999999999998,bagel and cc,1370.6999999284744,1371,1370.8999999761581,True,i,143831.20000004768,1875.0,1669829563841,1875,HRV,HRV_0074,2022-11-30 17:35:28
83,"[{'imgObject': {}, 'id': 'grilled chicken strips', 'src': '/static/foodstim60/grilled chicken strips.jpg', 'key': 'u', 'origWidth': 410, 'origHeight': 411, 'width': 410, 'height': 411, 'widthPercent': 0.45, 'rescaleHeight': False, 'trialN': 83, 'loaded': True, 'loadedTime': 3527.399999976158, 'positionName': 'LEFT', 'positionCoords': [511.6, 334.5], 'bid': 6.4}, {'imgObject': {}, 'id': 'fruitsalad', 'src': '/static/foodstim60/fruitsalad.jpg', 'key': 'i', 'origWidth': 410, 'origHeight': 410, 'width': 410, 'height': 410, 'widthPercent': 0.45, 'rescaleHeight': False, 'trialN': 83, 'loaded': True, 'loadedTime': 3540.899999976158, 'positionName': 'RIGHT', 'positionCoords': [998.4, 335], 'bid': 7.77}]",143831.39999997616,1669829563841,grilled chicken strips,fruitsalad,6.4,7.77,1.3699999999999992,fruitsalad,1506.7000000476837,1507,1506.8999999761581,True,i,145847.70000004768,2016.3000000715256,1669829565858,2017,HRV,HRV_0074,2022-11-30 17:35:28
84,"[{'imgObject': {}, 'id': 'cocktailshrimp', 'src': '/static/foodstim60/cocktailshrimp.jpg', 'key': 'u', 'origWidth': 410, 'origHeight': 410, 'width': 410, 'height': 410, 'widthPercent': 0.45, 'rescaleHeight': False, 'trialN': 84, 'loaded': True, 'loadedTime': 3088.100000023842, 'positionName': 'LEFT', 'positionCoords': [511.6, 335], 'bid': 7.95}, {'imgObject': {}, 'id': 'burrito', 'src': '/static/foodstim60/burrito.jpg', 'key': 'i', 'origWidth': 410, 'origHeight': 410, 'width': 410, 'height': 410, 'widthPercent': 0.45, 'rescaleHeight': False, 'trialN': 84, 'loaded': True, 'loadedTime': 3595.2000000476837, 'positionName': 'RIGHT', 'positionCoords': [998.4, 335], 'bid': 7.22}]",145847.79999995232,1669829565858,cocktailshrimp,burrito,7.95,7.22,-0.7300000000000004,cocktailshrimp,2399.4000000953674,2399,2399.7000000476837,True,u,148764.0,2916.2000000476837,1669829568774,2916,HRV,HRV_0074,2022-11-30 17:35:28
85,"[{'imgObject': {}, 'id': 'kiwi', 'src': '/static/foodstim60/kiwi.jpg', 'key': 'u', 'origWidth': 410, 'origHeight': 410, 'width': 410, 'height': 410, 'widthPercent': 0.45, 'rescaleHeight': False, 'trialN': 85, 'loaded': True, 'loadedTime': 3588.2999999523163, 'positionName': 'LEFT', 'positionCoords': [511.6, 335], 'bid': 5.36}, {'imgObject': {}, 'id': 'turkeysandwich', 'src': '/static/foodstim60/turkeysandwich.jpg', 'key': 'i', 'origWidth': 409, 'origHeight': 409, 'width': 409, 'height': 409, 'widthPercent': 0.45, 'rescaleHeight': False, 'trialN': 85, 'loaded': True, 'loadedTime': 3040.7999999523163, 'positionName': 'RIGHT', 'positionCoords': [998.4, 335.5], 'bid': 6.67}]",148764.20000004768,1669829568774,kiwi,turkeysandwich,5.36,6.67,1.3099999999999996,turkeysandwich,892.6999999284744,893,892.7999999523163,True,i,150166.10000002384,1401.8999999761581,1669829570176,1402,HRV,HRV_0074,2022-11-30 17:35:28
86,"[{'imgObject': {}, 'id': 'grilled chicken strips', 'src': '/static/foodstim60/grilled chicken strips.jpg', 'key': 'u', 'origWidth': 410, 'origHeight': 411, 'width': 410, 'height': 411, 'widthPercent': 0.45, 'rescaleHeight': False, 'trialN': 86, 'loaded': True, 'loadedTime': 3527.600000023842, 'positionName': 'LEFT', 'positionCoords': [511.6, 334.5], 'bid': 6.4}, {'imgObject': {}, 'id': 'popsicles', 'src': '/static/foodstim60/popsicles.jpg', 'key': 'i', 'origWidth': 410, 'origHeight': 410, 'width': 410, 'height': 410, 'widthPercent': 0.45, 'rescaleHeight': False, 'trialN': 86, 'loaded': True, 'loadedTime': 3354, 'positionName': 'RIGHT', 'positionCoords': [998.4, 335], 'bid': 1.83}]",150166.20000004768,1669829570176,grilled chicken strips,popsicles,6.4,1.83,-4.57,grilled chicken strips,820.5999999046326,821,820.6999999284744,True,u,151504.70000004768,1338.5,1669829571515,1339,HRV,HRV_0074,2022-11-30 17:35:28
87,"[{'imgObject': {}, 'id': 'fried eggs', 'src': '/static/foodstim60/fried eggs.jpg', 'key': 'u', 'origWidth': 410, 'origHeight': 410, 'width': 410, 'height': 410, 'widthPercent': 0.45, 'rescaleHeight': False, 'trialN': 87, 'loaded': True, 'loadedTime': 3225.899999976158, 'positionName': 'LEFT', 'positionCoords': [511.6, 335], 'bid': 6.26}, {'imgObject': {}, 'id': 'steak', 'src': '/static/foodstim60/steak.jpg', 'key': 'i', 'origWidth': 410, 'origHeight': 410, 'width': 410, 'height': 410, 'widthPercent': 0.45, 'rescaleHeight': False, 'trialN': 87, 'loaded': True, 'loadedTime': 3104, 'positionName': 'RIGHT', 'positionCoords': [998.4, 335], 'bid': 9.29}]",151504.89999997616,1669829571515,fried eggs,steak,6.26,9.29,3.0299999999999994,steak,763.3999999761581,763,763.7000000476837,True,i,152784.70000004768,1279.8000000715256,1669829572795,1280,HRV,HRV_0074,2022-11-30 17:35:28
88,"[{'imgObject': {}, 'id': 'lox', 'src': '/static/foodstim60/lox.jpg', 'key': 'u', 'origWidth': 410, 'origHeight': 411, 'width': 410, 'height': 411, 'widthPercent': 0.45, 'rescaleHeight': False, 'trialN': 88, 'loaded': True, 'loadedTime': 3258, 'positionName': 'LEFT', 'positionCoords': [511.6, 334.5], 'bid': 1.35}, {'imgObject': {}, 'id': 'edamame', 'src': '/static/foodstim60/edamame.jpg', 'key': 'i', 'origWidth': 409, 'origHeight': 410, 'width': 409, 'height': 410, 'widthPercent': 0.45, 'rescaleHeight': False, 'trialN': 88, 'loaded': True, 'loadedTime': 3349.2999999523163, 'positionName': 'RIGHT', 'positionCoords': [998.4, 335], 'bid': 0.38}]",152784.89999997616,1669829572795,lox,edamame,1.35,0.38,-0.9700000000000001,lox,1258.0,1258,1258.1000000238419,True,u,154564.60000002384,1779.7000000476837,1669829574574,1779,HRV,HRV_0074,2022-11-30 17:35:28
89,"[{'imgObject': {}, 'id': 'chicken nuggets2', 'src': '/static/foodstim60/chicken nuggets2.jpg', 'key': 'u', 'origWidth': 410, 'origHeight': 409, 'width': 410, 'height': 409, 'widthPercent': 0.45, 'rescaleHeight': False, 'trialN': 89, 'loaded': True, 'loadedTime': 3159.100000023842, 'positionName': 'LEFT', 'positionCoords': [511.6, 335.5], 'bid': 6.84}, {'imgObject': {}, 'id': 'turkeysandwich', 'src': '/static/foodstim60/turkeysandwich.jpg', 'key': 'i', 'origWidth': 409, 'origHeight': 409, 'width': 409, 'height': 409, 'widthPercent': 0.45, 'rescaleHeight': False, 'trialN': 89, 'loaded': True, 'loadedTime': 3013.899999976158, 'positionName': 'RIGHT', 'positionCoords': [998.4, 335.5], 'bid': 6.67}]",154564.60000002384,1669829574574,chicken nuggets2,turkeysandwich,6.84,6.67,-0.16999999999999993,turkeysandwich,1574.3999999761581,1575,1574.6000000238419,True,i,156652.10000002384,2087.5,1669829576662,2088,HRV,HRV_0074,2022-11-30 17:35:28
90,"[{'imgObject': {}, 'id': 'pear', 'src': '/static/foodstim60/pear.jpg', 'key': 'u', 'origWidth': 411, 'origHeight': 410, 'width': 411, 'height': 410, 'widthPercent': 0.45, 'rescaleHeight': False, 'trialN': 90, 'loaded': True, 'loadedTime': 3379.7999999523163, 'positionName': 'LEFT', 'positionCoords': [510.6, 335], 'bid': 4.51}, {'imgObject': {}, 'id': 'cheerios', 'src': '/static/foodstim60/cheerios.jpg', 'key': 'i', 'origWidth': 409, 'origHeight': 410, 'width': 409, 'height': 410, 'widthPercent': 0.45, 'rescaleHeight': False, 'trialN': 90, 'loaded': True, 'loadedTime': 3495.100000023842, 'positionName': 'RIGHT', 'positionCoords': [998.4, 335], 'bid': 3.11}]",161014.10000002384,1669829581024,pear,cheerios,4.51,3.11,-1.4,pear,1629.1000000238419,1629,1629.2999999523163,True,u,163151.5,2137.399999976158,1669829583161,2137,HRV,HRV_0074,2022-11-30 17:35:28
91,"[{'imgObject': {}, 'id': 'Grapes', 'src': '/static/foodstim60/Grapes.jpg', 'key': 'u', 'origWidth': 411, 'origHeight': 411, 'width': 411, 'height': 411, 'widthPercent': 0.45, 'rescaleHeight': False, 'trialN': 91, 'loaded': True, 'loadedTime': 3129.7999999523163, 'positionName': 'LEFT', 'positionCoords': [510.6, 334.5], 'bid': 2.72}, {'imgObject': {}, 'id': 'eggsalad', 'src': '/static/foodstim60/eggsalad.jpg', 'key': 'i', 'origWidth': 410, 'origHeight': 409, 'width': 410, 'height': 409, 'widthPercent': 0.45, 'rescaleHeight': False, 'trialN': 91, 'loaded': True, 'loadedTime': 3422.399999976158, 'positionName': 'RIGHT', 'positionCoords': [998.4, 335.5], 'bid': 1.19}]",163151.60000002384,1669829583161,Grapes,eggsalad,2.72,1.19,-1.5300000000000002,Grapes,896.1999999284744,897,896.3999999761581,True,u,164552.10000002384,1400.5,1669829584562,1401,HRV,HRV_0074,2022-11-30 17:35:28
92,"[{'imgObject': {}, 'id': 'apple slices', 'src': '/static/foodstim60/apple slices.jpg', 'key': 'u', 'origWidth': 409, 'origHeight': 410, 'width': 409, 'height': 410, 'widthPercent': 0.45, 'rescaleHeight': False, 'trialN': 92, 'loaded': True, 'loadedTime': 3578.399999976158, 'positionName': 'LEFT', 'positionCoords': [512.6, 335], 'bid': 4.15}, {'imgObject': {}, 'id': 'eggs', 'src': '/static/foodstim60/eggs.jpg', 'key': 'i', 'origWidth': 409, 'origHeight': 409, 'width': 409, 'height': 409, 'widthPercent': 0.45, 'rescaleHeight': False, 'trialN': 92, 'loaded': True, 'loadedTime': 3145.5, 'positionName': 'RIGHT', 'positionCoords': [998.4, 335.5], 'bid': 4.1}]",164552.20000004768,1669829584562,apple slices,eggs,4.15,4.1,-0.05000000000000071,eggs,995.8999999761581,996,996.1999999284744,True,i,166058.20000004768,1506.0,1669829586068,1506,HRV,HRV_0074,2022-11-30 17:35:28
93,"[{'imgObject': {}, 'id': 'raspberries', 'src': '/static/foodstim60/raspberries.jpg', 'key': 'u', 'origWidth': 411, 'origHeight': 411, 'width': 411, 'height': 411, 'widthPercent': 0.45, 'rescaleHeight': False, 'trialN': 93, 'loaded': True, 'loadedTime': 3558.600000023842, 'positionName': 'LEFT', 'positionCoords': [510.6, 334.5], 'bid': 2.64}, {'imgObject': {}, 'id': 'granola w milk', 'src': '/static/foodstim60/granola w milk.jpg', 'key': 'i', 'origWidth': 410, 'origHeight': 410, 'width': 410, 'height': 410, 'widthPercent': 0.45, 'rescaleHeight': False, 'trialN': 93, 'loaded': True, 'loadedTime': 3593.5, 'positionName': 'RIGHT', 'positionCoords': [998.4, 335], 'bid': 2.46}]",166058.39999997616,1669829586068,raspberries,granola w milk,2.64,2.46,-0.18000000000000016,granola w milk,749.6000000238419,750,749.8999999761581,True,i,167320.89999997616,1262.5,1669829587331,1263,HRV,HRV_0074,2022-11-30 17:35:28
94,"[{'imgObject': {}, 'id': 'luckycharms', 'src': '/static/foodstim60/luckycharms.jpg', 'key': 'u', 'origWidth': 410, 'origHeight': 409, 'width': 410, 'height': 409, 'widthPercent': 0.45, 'rescaleHeight': False, 'trialN': 94, 'loaded': True, 'loadedTime': 3576.100000023842, 'positionName': 'LEFT', 'positionCoords': [511.6, 335.5], 'bid': 3.85}, {'imgObject': {}, 'id': 'granola w milk', 'src': '/static/foodstim60/granola w milk.jpg', 'key': 'i', 'origWidth': 410, 'origHeight': 410, 'width': 410, 'height': 410, 'widthPercent': 0.45, 'rescaleHeight': False, 'trialN': 94, 'loaded': True, 'loadedTime': 3593.2000000476837, 'positionName': 'RIGHT', 'positionCoords': [998.4, 335], 'bid': 2.46}]",167321.10000002384,1669829587331,luckycharms,granola w milk,3.85,2.46,-1.3900000000000001,luckycharms,1022.1999999284744,1022,1022.3999999761581,True,u,168850.89999997616,1529.7999999523163,1669829588861,1530,HRV,HRV_0074,2022-11-30 17:35:28
95,"[{'imgObject': {}, 'id': 'ice cream sundae 002', 'src': '/static/foodstim60/ice cream sundae 002.jpg', 'key': 'u', 'origWidth': 409, 'origHeight': 409, 'width': 409, 'height': 409, 'widthPercent': 0.45, 'rescaleHeight': False, 'trialN': 95, 'loaded': True, 'loadedTime': 3356.399999976158, 'positionName': 'LEFT', 'positionCoords': [512.6, 335.5], 'bid': 3.75}, {'imgObject': {}, 'id': 'grilled chicken strips', 'src': '/static/foodstim60/grilled chicken strips.jpg', 'key': 'i', 'origWidth': 410, 'origHeight': 411, 'width': 410, 'height': 411, 'widthPercent': 0.45, 'rescaleHeight': False, 'trialN': 95, 'loaded': True, 'loadedTime': 3527.7000000476837, 'positionName': 'RIGHT', 'positionCoords': [998.4, 334.5], 'bid': 6.4}]",168851.10000002384,1669829588861,ice cream sundae 002,grilled chicken strips,3.75,6.4,2.6500000000000004,grilled chicken strips,961.6999999284744,962,961.8999999761581,True,i,170330.89999997616,1479.7999999523163,1669829590341,1480,HRV,HRV_0074,2022-11-30 17:35:28
96,"[{'imgObject': {}, 'id': 'banana', 'src': '/static/foodstim60/banana.jpg', 'key': 'u', 'origWidth': 410, 'origHeight': 410, 'width': 410, 'height': 410, 'widthPercent': 0.45, 'rescaleHeight': False, 'trialN': 96, 'loaded': True, 'loadedTime': 3408.2000000476837, 'positionName': 'LEFT', 'positionCoords': [511.6, 335], 'bid': 2.82}, {'imgObject': {}, 'id': 'mac & cheese', 'src': '/static/foodstim60/mac & cheese.jpg', 'key': 'i', 'origWidth': 410, 'origHeight': 410, 'width': 410, 'height': 410, 'widthPercent': 0.45, 'rescaleHeight': False, 'trialN': 96, 'loaded': True, 'loadedTime': 3464, 'positionName': 'RIGHT', 'positionCoords': [998.4, 335], 'bid': 4.25}]",170331.0,1669829590341,banana,mac & cheese,2.82,4.25,1.4300000000000002,mac & cheese,1251.7999999523163,1252,1252.0,True,i,172087.70000004768,1756.7000000476837,1669829592098,1757,HRV,HRV_0074,2022-11-30 17:35:28
97,"[{'imgObject': {}, 'id': 'rigatoni', 'src': '/static/foodstim60/rigatoni.jpg', 'key': 'u', 'origWidth': 411, 'origHeight': 411, 'width': 411, 'height': 411, 'widthPercent': 0.45, 'rescaleHeight': False, 'trialN': 97, 'loaded': True, 'loadedTime': 3442.2000000476837, 'positionName': 'LEFT', 'positionCoords': [510.6, 334.5], 'bid': 1.94}, {'imgObject': {}, 'id': 'salmon', 'src': '/static/foodstim60/salmon.jpg', 'key': 'i', 'origWidth': 410, 'origHeight': 409, 'width': 410, 'height': 409, 'widthPercent': 0.45, 'rescaleHeight': False, 'trialN': 97, 'loaded': True, 'loadedTime': 3524.2000000476837, 'positionName': 'RIGHT', 'positionCoords': [998.4, 335.5], 'bid': 7.04}]",172087.79999995232,1669829592098,rigatoni,salmon,1.94,7.04,5.1,salmon,880.1000000238419,880,880.2000000476837,True,i,173478.60000002384,1390.8000000715256,1669829593488,1390,HRV,HRV_0074,2022-11-30 17:35:28
98,"[{'imgObject': {}, 'id': 'cherry tomato', 'src': '/static/foodstim60/cherry tomato.jpg', 'key': 'u', 'origWidth': 410, 'origHeight': 410, 'width': 410, 'height': 410, 'widthPercent': 0.45, 'rescaleHeight': False, 'trialN': 98, 'loaded': True, 'loadedTime': 3457.100000023842, 'positionName': 'LEFT', 'positionCoords': [511.6, 335], 'bid': 0.7000000000000001}, {'imgObject': {}, 'id': 'rigatoni', 'src': '/static/foodstim60/rigatoni.jpg', 'key': 'i', 'origWidth': 411, 'origHeight': 411, 'width': 411, 'height': 411, 'widthPercent': 0.45, 'rescaleHeight': False, 'trialN': 98, 'loaded': True, 'loadedTime': 3443.7000000476837, 'positionName': 'RIGHT', 'positionCoords': [998.4, 334.5], 'bid': 1.94}]",173478.79999995232,1669829593489,cherry tomato,rigatoni,0.7000000000000001,1.94,1.2399999999999998,rigatoni,1029.0,1029,1029.2000000476837,True,i,175015.70000004768,1536.9000000953674,1669829595026,1537,HRV,HRV_0074,2022-11-30 17:35:28
99,"[{'imgObject': {}, 'id': 'burrito', 'src': '/static/foodstim60/burrito.jpg', 'key': 'u', 'origWidth': 410, 'origHeight': 410, 'width': 410, 'height': 410, 'widthPercent': 0.45, 'rescaleHeight': False, 'trialN': 99, 'loaded': True, 'loadedTime': 3597, 'positionName': 'LEFT', 'positionCoords': [511.6, 335], 'bid': 7.22}, {'imgObject': {}, 'id': 'turkey sandwich', 'src': '/static/foodstim60/turkey sandwich.jpg', 'key': 'i', 'origWidth': 409, 'origHeight': 409, 'width': 409, 'height': 409, 'widthPercent': 0.45, 'rescaleHeight': False, 'trialN': 99, 'loaded': True, 'loadedTime': 3590.600000023842, 'positionName': 'RIGHT', 'positionCoords': [998.4, 335.5], 'bid': 7.08}]",175015.89999997616,1669829595026,burrito,turkey sandwich,7.22,7.08,-0.13999999999999968,turkey sandwich,1106.8000000715256,1107,1107.0,True,i,176636.89999997616,1621.0,1669829596647,1621,HRV,HRV_0074,2022-11-30 17:35:28
100,"[{'imgObject': {}, 'id': 'blueberries', 'src': '/static/foodstim60/blueberries.jpg', 'key': 'u', 'origWidth': 411, 'origHeight': 411, 'width': 411, 'height': 411, 'widthPercent': 0.45, 'rescaleHeight': False, 'trialN': 100, 'loaded': True, 'loadedTime': 3047.2999999523163, 'positionName': 'LEFT', 'positionCoords': [510.6, 334.5], 'bid': 2.81}, {'imgObject': {}, 'id': 'apple slices', 'src': '/static/foodstim60/apple slices.jpg', 'key': 'i', 'origWidth': 409, 'origHeight': 410, 'width': 409, 'height': 410, 'widthPercent': 0.45, 'rescaleHeight': False, 'trialN': 100, 'loaded': True, 'loadedTime': 3578.100000023842, 'positionName': 'RIGHT', 'positionCoords': [998.4, 335], 'bid': 4.15}]",176637.10000002384,1669829596647,blueberries,apple slices,2.81,4.15,1.3400000000000003,apple slices,726.1999999284744,726,726.3999999761581,True,i,177874.39999997616,1237.2999999523163,1669829597884,1237,HRV,HRV_0074,2022-11-30 17:35:28
101,"[{'imgObject': {}, 'id': 'tacos', 'src': '/static/foodstim60/tacos.jpg', 'key': 'u', 'origWidth': 411, 'origHeight': 411, 'width': 411, 'height': 411, 'widthPercent': 0.45, 'rescaleHeight': False, 'trialN': 101, 'loaded': True, 'loadedTime': 3295.5, 'positionName': 'LEFT', 'positionCoords': [510.6, 334.5], 'bid': 7.57}, {'imgObject': {}, 'id': 'salmon', 'src': '/static/foodstim60/salmon.jpg', 'key': 'i', 'origWidth': 410, 'origHeight': 409, 'width': 410, 'height': 409, 'widthPercent': 0.45, 'rescaleHeight': False, 'trialN': 101, 'loaded': True, 'loadedTime': 3524.5, 'positionName': 'RIGHT', 'positionCoords': [998.4, 335.5], 'bid': 7.04}]",177874.60000002384,1669829597884,tacos,salmon,7.57,7.04,-0.5300000000000002,tacos,888.6000000238419,889,889.0,True,u,179272.10000002384,1397.5,1669829599282,1398,HRV,HRV_0074,2022-11-30 17:35:28
102,"[{'imgObject': {}, 'id': 'granola w milk', 'src': '/static/foodstim60/granola w milk.jpg', 'key': 'u', 'origWidth': 410, 'origHeight': 410, 'width': 410, 'height': 410, 'widthPercent': 0.45, 'rescaleHeight': False, 'trialN': 102, 'loaded': True, 'loadedTime': 3593.5, 'positionName': 'LEFT', 'positionCoords': [511.6, 335], 'bid': 2.46}, {'imgObject': {}, 'id': 'mashed potato', 'src': '/static/foodstim60/mashed potato.jpg', 'key': 'i', 'origWidth': 409, 'origHeight': 409, 'width': 409, 'height': 409, 'widthPercent': 0.45, 'rescaleHeight': False, 'trialN': 102, 'loaded': True, 'loadedTime': 3457.2000000476837, 'positionName': 'RIGHT', 'positionCoords': [998.4, 335.5], 'bid': 0.94}]",179272.20000004768,1669829599282,granola w milk,mashed potato,2.46,0.94,-1.52,granola w milk,915.6999999284744,916,915.8999999761581,True,u,180707.89999997616,1435.6999999284744,1669829600718,1436,HRV,HRV_0074,2022-11-30 17:35:28
103,"[{'imgObject': {}, 'id': 'blueberries', 'src': '/static/foodstim60/blueberries.jpg', 'key': 'u', 'origWidth': 411, 'origHeight': 411, 'width': 411, 'height': 411, 'widthPercent': 0.45, 'rescaleHeight': False, 'trialN': 103, 'loaded': True, 'loadedTime': 3045.2999999523163, 'positionName': 'LEFT', 'positionCoords': [510.6, 334.5], 'bid': 2.81}, {'imgObject': {}, 'id': 'hotdog w must', 'src': '/static/foodstim60/hotdog w must.jpg', 'key': 'i', 'origWidth': 409, 'origHeight': 409, 'width': 409, 'height': 409, 'widthPercent': 0.45, 'rescaleHeight': False, 'trialN': 103, 'loaded': True, 'loadedTime': 3455.2999999523163, 'positionName': 'RIGHT', 'positionCoords': [998.4, 335.5], 'bid': 2.94}]",180708.10000002384,1669829600718,blueberries,hotdog w must,2.81,2.94,0.1299999999999999,hotdog w must,1110.5,1111,1110.6999999284744,True,i,182337.10000002384,1629.0,1669829602347,1629,HRV,HRV_0074,2022-11-30 17:35:28
104,"[{'imgObject': {}, 'id': 'rigatoni', 'src': '/static/foodstim60/rigatoni.jpg', 'key': 'u', 'origWidth': 411, 'origHeight': 411, 'width': 411, 'height': 411, 'widthPercent': 0.45, 'rescaleHeight': False, 'trialN': 104, 'loaded': True, 'loadedTime': 3444.600000023842, 'positionName': 'LEFT', 'positionCoords': [510.6, 334.5], 'bid': 1.94}, {'imgObject': {}, 'id': 'avocado', 'src': '/static/foodstim60/avocado.jpg', 'key': 'i', 'origWidth': 409, 'origHeight': 409, 'width': 409, 'height': 409, 'widthPercent': 0.45, 'rescaleHeight': False, 'trialN': 104, 'loaded': True, 'loadedTime': 3263.5, 'positionName': 'RIGHT', 'positionCoords': [998.4, 335.5], 'bid': 1.12}]",182337.20000004768,1669829602347,rigatoni,avocado,1.94,1.12,-0.8199999999999998,rigatoni,1656.6999999284744,1657,1656.7999999523163,True,u,184507.5,2170.2999999523163,1669829604517,2170,HRV,HRV_0074,2022-11-30 17:35:28
105,"[{'imgObject': {}, 'id': 'banana', 'src': '/static/foodstim60/banana.jpg', 'key': 'u', 'origWidth': 410, 'origHeight': 410, 'width': 410, 'height': 410, 'widthPercent': 0.45, 'rescaleHeight': False, 'trialN': 105, 'loaded': True, 'loadedTime': 3396.2999999523163, 'positionName': 'LEFT', 'positionCoords': [511.6, 335], 'bid': 2.82}, {'imgObject': {}, 'id': 'Grapes', 'src': '/static/foodstim60/Grapes.jpg', 'key': 'i', 'origWidth': 411, 'origHeight': 411, 'width': 411, 'height': 411, 'widthPercent': 0.45, 'rescaleHeight': False, 'trialN': 105, 'loaded': True, 'loadedTime': 3116.600000023842, 'positionName': 'RIGHT', 'positionCoords': [998.4, 334.5], 'bid': 2.72}]",184507.60000002384,1669829604517,banana,Grapes,2.82,2.72,-0.09999999999999964,Grapes,1091.2999999523163,1092,1091.5,True,i,186108.70000004768,1601.1000000238419,1669829606118,1601,HRV,HRV_0074,2022-11-30 17:35:28
106,"[{'imgObject': {}, 'id': 'veggieswithdip', 'src': '/static/foodstim60/veggieswithdip.jpg', 'key': 'u', 'origWidth': 409, 'origHeight': 409, 'width': 409, 'height': 409, 'widthPercent': 0.45, 'rescaleHeight': False, 'trialN': 106, 'loaded': True, 'loadedTime': 3586.5, 'positionName': 'LEFT', 'positionCoords': [512.6, 335.5], 'bid': 3.93}, {'imgObject': {}, 'id': 'eggs', 'src': '/static/foodstim60/eggs.jpg', 'key': 'i', 'origWidth': 409, 'origHeight': 409, 'width': 409, 'height': 409, 'widthPercent': 0.45, 'rescaleHeight': False, 'trialN': 106, 'loaded': True, 'loadedTime': 3145.7000000476837, 'positionName': 'RIGHT', 'positionCoords': [998.4, 335.5], 'bid': 4.1}]",186108.70000004768,1669829606119,veggieswithdip,eggs,3.93,4.1,0.16999999999999948,veggieswithdip,1030.3999999761581,1030,1030.6999999284744,True,u,187653.10000002384,1544.3999999761581,1669829607663,1544,HRV,HRV_0074,2022-11-30 17:35:28
107,"[{'imgObject': {}, 'id': 'avocado', 'src': '/static/foodstim60/avocado.jpg', 'key': 'u', 'origWidth': 409, 'origHeight': 409, 'width': 409, 'height': 409, 'widthPercent': 0.45, 'rescaleHeight': False, 'trialN': 107, 'loaded': True, 'loadedTime': 3281.100000023842, 'positionName': 'LEFT', 'positionCoords': [512.6, 335.5], 'bid': 1.12}, {'imgObject': {}, 'id': 'raspberries', 'src': '/static/foodstim60/raspberries.jpg', 'key': 'i', 'origWidth': 411, 'origHeight': 411, 'width': 411, 'height': 411, 'widthPercent': 0.45, 'rescaleHeight': False, 'trialN': 107, 'loaded': True, 'loadedTime': 3574.2000000476837, 'positionName': 'RIGHT', 'positionCoords': [998.4, 334.5], 'bid': 2.64}]",187653.29999995232,1669829607663,avocado,raspberries,1.12,2.64,1.52,raspberries,1431.2000000476837,1432,1431.5,True,i,189591.39999997616,1938.1000000238419,1669829609602,1939,HRV,HRV_0074,2022-11-30 17:35:28
108,"[{'imgObject': {}, 'id': 'popsicles', 'src': '/static/foodstim60/popsicles.jpg', 'key': 'u', 'origWidth': 410, 'origHeight': 410, 'width': 410, 'height': 410, 'widthPercent': 0.45, 'rescaleHeight': False, 'trialN': 108, 'loaded': True, 'loadedTime': 3353.5, 'positionName': 'LEFT', 'positionCoords': [511.6, 335], 'bid': 1.83}, {'imgObject': {}, 'id': 'granola w milk', 'src': '/static/foodstim60/granola w milk.jpg', 'key': 'i', 'origWidth': 410, 'origHeight': 410, 'width': 410, 'height': 410, 'widthPercent': 0.45, 'rescaleHeight': False, 'trialN': 108, 'loaded': True, 'loadedTime': 3593.399999976158, 'positionName': 'RIGHT', 'positionCoords': [998.4, 335], 'bid': 2.46}]",189591.60000002384,1669829609602,popsicles,granola w milk,1.83,2.46,0.6299999999999999,granola w milk,792.2999999523163,793,792.3999999761581,True,i,190899.89999997616,1308.2999999523163,1669829610910,1308,HRV,HRV_0074,2022-11-30 17:35:28
