trialN,stimuli,question,trialStartTime,trialStartTime_UNIX,stimulus1,rt,receivedResponse,rating,trialEndTime,trialDuration,stimulus1Loaded,exp,subjectId,date
0,"[{'imgObject': {}, 'id': 'omelette', 'src': '/static/foodstim60/omelette.jpg', 'key': 'NaN', 'origWidth': 410, 'origHeight': 409, 'width': 410, 'height': 409, 'widthPercent': 0.8, 'rescaleHeight': True, 'trialN': 0, 'loaded': True, 'loadedTime': 2539.100000023842, 'positionName': 'CENTER', 'positionCoords': [755, 335.5]}]",Rate how much you want to eat this food from 0 (least) to 10 (most).,2749.4000000953674,1669829278239,omelette,2679.899999976158,True,4.36,5429.300000071526,2679.899999976158,True,HRV,HRV_0074,2022-11-30 17:29:23
1,"[{'imgObject': {}, 'id': 'burger', 'src': '/static/foodstim60/burger.jpg', 'key': 'NaN', 'origWidth': 409, 'origHeight': 409, 'width': 409, 'height': 409, 'widthPercent': 0.8, 'rescaleHeight': True, 'trialN': 1, 'loaded': True, 'loadedTime': 2540.9000000953674, 'positionName': 'CENTER', 'positionCoords': [755.5, 335.5]}]",Rate how much you want to eat this food from 0 (least) to 10 (most).,5431.5,1669829280921,burger,1691.1000000238419,True,7.79,7122.600000023842,1691.1000000238419,True,HRV,HRV_0074,2022-11-30 17:29:23
2,"[{'imgObject': {}, 'id': 'hotdog w must', 'src': '/static/foodstim60/hotdog w must.jpg', 'key': 'NaN', 'origWidth': 409, 'origHeight': 409, 'width': 409, 'height': 409, 'widthPercent': 0.8, 'rescaleHeight': True, 'trialN': 2, 'loaded': True, 'loadedTime': 2542.100000023842, 'positionName': 'CENTER', 'positionCoords': [755.5, 335.5]}]",Rate how much you want to eat this food from 0 (least) to 10 (most).,7123.200000047684,1669829282613,hotdog w must,1234.6000000238419,True,2.94,8357.800000071526,1234.6000000238419,True,HRV,HRV_0074,2022-11-30 17:29:23
3,"[{'imgObject': {}, 'id': 'chickenfingers', 'src': '/static/foodstim60/chickenfingers.jpg', 'key': 'NaN', 'origWidth': 410, 'origHeight': 410, 'width': 410, 'height': 410, 'widthPercent': 0.8, 'rescaleHeight': True, 'trialN': 3, 'loaded': True, 'loadedTime': 2565.5, 'positionName': 'CENTER', 'positionCoords': [755, 335]}]",Rate how much you want to eat this food from 0 (least) to 10 (most).,8358.5,1669829283848,chickenfingers,1345.0,True,6.16,9703.5,1345.0,True,HRV,HRV_0074,2022-11-30 17:29:23
4,"[{'imgObject': {}, 'id': 'salmon', 'src': '/static/foodstim60/salmon.jpg', 'key': 'NaN', 'origWidth': 410, 'origHeight': 409, 'width': 410, 'height': 409, 'widthPercent': 0.8, 'rescaleHeight': True, 'trialN': 4, 'loaded': True, 'loadedTime': 2566.600000023842, 'positionName': 'CENTER', 'positionCoords': [755, 335.5]}]",Rate how much you want to eat this food from 0 (least) to 10 (most).,9704.700000047684,1669829285194,salmon,1092.0,True,7.04,10796.700000047684,1092.0,True,HRV,HRV_0074,2022-11-30 17:29:23
5,"[{'imgObject': {}, 'id': 'cherries', 'src': '/static/foodstim60/cherries.jpg', 'key': 'NaN', 'origWidth': 410, 'origHeight': 411, 'width': 410, 'height': 411, 'widthPercent': 0.8, 'rescaleHeight': True, 'trialN': 5, 'loaded': True, 'loadedTime': 2567.9000000953674, 'positionName': 'CENTER', 'positionCoords': [755, 334.5]}]",Rate how much you want to eat this food from 0 (least) to 10 (most).,10797.400000095367,1669829286287,cherries,1287.2999999523163,True,1.51,12084.700000047684,1287.2999999523163,True,HRV,HRV_0074,2022-11-30 17:29:23
6,"[{'imgObject': {}, 'id': 'blackbeanswithrice', 'src': '/static/foodstim60/blackbeanswithrice.jpg', 'key': 'NaN', 'origWidth': 410, 'origHeight': 410, 'width': 410, 'height': 410, 'widthPercent': 0.8, 'rescaleHeight': True, 'trialN': 6, 'loaded': True, 'loadedTime': 2584.2000000476837, 'positionName': 'CENTER', 'positionCoords': [755, 335]}]",Rate how much you want to eat this food from 0 (least) to 10 (most).,12085.400000095367,1669829287575,blackbeanswithrice,1328.1999999284744,True,0.97,13413.600000023842,1328.1999999284744,True,HRV,HRV_0074,2022-11-30 17:29:23
7,"[{'imgObject': {}, 'id': 'cheerios', 'src': '/static/foodstim60/cheerios.jpg', 'key': 'NaN', 'origWidth': 409, 'origHeight': 410, 'width': 409, 'height': 410, 'widthPercent': 0.8, 'rescaleHeight': True, 'trialN': 7, 'loaded': True, 'loadedTime': 2588.2000000476837, 'positionName': 'CENTER', 'positionCoords': [755.5, 335]}]",Rate how much you want to eat this food from 0 (least) to 10 (most).,13414.200000047684,1669829288904,cheerios,1498.3999999761581,True,3.11,14912.600000023842,1498.3999999761581,True,HRV,HRV_0074,2022-11-30 17:29:23
8,"[{'imgObject': {}, 'id': 'turkeysandwich', 'src': '/static/foodstim60/turkeysandwich.jpg', 'key': 'NaN', 'origWidth': 409, 'origHeight': 409, 'width': 409, 'height': 409, 'widthPercent': 0.8, 'rescaleHeight': True, 'trialN': 8, 'loaded': True, 'loadedTime': 2590.3000000715256, 'positionName': 'CENTER', 'positionCoords': [755.5, 335.5]}]",Rate how much you want to eat this food from 0 (least) to 10 (most).,14913.300000071526,1669829290403,turkeysandwich,1299.8999999761581,True,6.67,16213.200000047684,1299.8999999761581,True,HRV,HRV_0074,2022-11-30 17:29:23
9,"[{'imgObject': {}, 'id': 'pear', 'src': '/static/foodstim60/pear.jpg', 'key': 'NaN', 'origWidth': 411, 'origHeight': 410, 'width': 411, 'height': 410, 'widthPercent': 0.8, 'rescaleHeight': True, 'trialN': 9, 'loaded': True, 'loadedTime': 2591.9000000953674, 'positionName': 'CENTER', 'positionCoords': [754.5, 335]}]",Rate how much you want to eat this food from 0 (least) to 10 (most).,16214.300000071526,1669829291704,pear,1137.5,True,4.51,17351.800000071526,1137.5,True,HRV,HRV_0074,2022-11-30 17:29:23
10,"[{'imgObject': {}, 'id': 'steak', 'src': '/static/foodstim60/steak.jpg', 'key': 'NaN', 'origWidth': 410, 'origHeight': 410, 'width': 410, 'height': 410, 'widthPercent': 0.8, 'rescaleHeight': True, 'trialN': 10, 'loaded': True, 'loadedTime': 2593.4000000953674, 'positionName': 'CENTER', 'positionCoords': [755, 335]}]",Rate how much you want to eat this food from 0 (least) to 10 (most).,17352.5,1669829292842,steak,1921.1000000238419,True,9.290000000000001,19273.600000023842,1921.1000000238419,True,HRV,HRV_0074,2022-11-30 17:29:23
11,"[{'imgObject': {}, 'id': 'orange slices', 'src': '/static/foodstim60/orange slices.jpg', 'key': 'NaN', 'origWidth': 409, 'origHeight': 410, 'width': 409, 'height': 410, 'widthPercent': 0.8, 'rescaleHeight': True, 'trialN': 11, 'loaded': True, 'loadedTime': 2595.2000000476837, 'positionName': 'CENTER', 'positionCoords': [755.5, 335]}]",Rate how much you want to eat this food from 0 (least) to 10 (most).,19274.5,1669829294764,orange slices,1227.1000000238419,True,3.54,20501.600000023842,1227.1000000238419,True,HRV,HRV_0074,2022-11-30 17:29:23
12,"[{'imgObject': {}, 'id': 'popsicles', 'src': '/static/foodstim60/popsicles.jpg', 'key': 'NaN', 'origWidth': 410, 'origHeight': 410, 'width': 410, 'height': 410, 'widthPercent': 0.8, 'rescaleHeight': True, 'trialN': 12, 'loaded': True, 'loadedTime': 2606.4000000953674, 'positionName': 'CENTER', 'positionCoords': [755, 335]}]",Rate how much you want to eat this food from 0 (least) to 10 (most).,20502.400000095367,1669829295992,popsicles,1066.1999999284744,True,1.83,21568.600000023842,1066.1999999284744,True,HRV,HRV_0074,2022-11-30 17:29:23
13,"[{'imgObject': {}, 'id': 'roastedpotatoes', 'src': '/static/foodstim60/roastedpotatoes.jpg', 'key': 'NaN', 'origWidth': 409, 'origHeight': 410, 'width': 409, 'height': 410, 'widthPercent': 0.8, 'rescaleHeight': True, 'trialN': 13, 'loaded': True, 'loadedTime': 2607.9000000953674, 'positionName': 'CENTER', 'positionCoords': [755.5, 335]}]",Rate how much you want to eat this food from 0 (least) to 10 (most).,21569.400000095367,1669829297059,roastedpotatoes,1540.1999999284744,True,1.84,23109.600000023842,1540.1999999284744,True,HRV,HRV_0074,2022-11-30 17:29:23
14,"[{'imgObject': {}, 'id': 'sweetpotato', 'src': '/static/foodstim60/sweetpotato.jpg', 'key': 'NaN', 'origWidth': 410, 'origHeight': 410, 'width': 410, 'height': 410, 'widthPercent': 0.8, 'rescaleHeight': True, 'trialN': 14, 'loaded': True, 'loadedTime': 2609.4000000953674, 'positionName': 'CENTER', 'positionCoords': [755, 335]}]",Rate how much you want to eat this food from 0 (least) to 10 (most).,23110.5,1669829298600,sweetpotato,1352.8000000715256,True,0.64,24463.300000071526,1352.8000000715256,True,HRV,HRV_0074,2022-11-30 17:29:23
15,"[{'imgObject': {}, 'id': 'apple slices', 'src': '/static/foodstim60/apple slices.jpg', 'key': 'NaN', 'origWidth': 409, 'origHeight': 410, 'width': 409, 'height': 410, 'widthPercent': 0.8, 'rescaleHeight': True, 'trialN': 15, 'loaded': True, 'loadedTime': 2624.9000000953674, 'positionName': 'CENTER', 'positionCoords': [755.5, 335]}]",Rate how much you want to eat this food from 0 (least) to 10 (most).,24464.700000047684,1669829299954,apple slices,1367.8999999761581,True,4.15,25832.600000023842,1367.8999999761581,True,HRV,HRV_0074,2022-11-30 17:29:23
16,"[{'imgObject': {}, 'id': 'mashed potato', 'src': '/static/foodstim60/mashed potato.jpg', 'key': 'NaN', 'origWidth': 409, 'origHeight': 409, 'width': 409, 'height': 409, 'widthPercent': 0.8, 'rescaleHeight': True, 'trialN': 16, 'loaded': True, 'loadedTime': 2626.2000000476837, 'positionName': 'CENTER', 'positionCoords': [755.5, 335.5]}]",Rate how much you want to eat this food from 0 (least) to 10 (most).,25833.400000095367,1669829301323,mashed potato,1174.1999999284744,True,0.9400000000000001,27007.600000023842,1174.1999999284744,True,HRV,HRV_0074,2022-11-30 17:29:23
17,"[{'imgObject': {}, 'id': 'mango', 'src': '/static/foodstim60/mango.jpg', 'key': 'NaN', 'origWidth': 411, 'origHeight': 411, 'width': 411, 'height': 411, 'widthPercent': 0.8, 'rescaleHeight': True, 'trialN': 17, 'loaded': True, 'loadedTime': 2638.8000000715256, 'positionName': 'CENTER', 'positionCoords': [754.5, 334.5]}]",Rate how much you want to eat this food from 0 (least) to 10 (most).,27008.400000095367,1669829302498,mango,1297.1999999284744,True,0.87,28305.600000023842,1297.1999999284744,True,HRV,HRV_0074,2022-11-30 17:29:23
18,"[{'imgObject': {}, 'id': 'strawberries', 'src': '/static/foodstim60/strawberries.jpg', 'key': 'NaN', 'origWidth': 410, 'origHeight': 410, 'width': 410, 'height': 410, 'widthPercent': 0.8, 'rescaleHeight': True, 'trialN': 18, 'loaded': True, 'loadedTime': 2643.3000000715256, 'positionName': 'CENTER', 'positionCoords': [755, 335]}]",Rate how much you want to eat this food from 0 (least) to 10 (most).,28306.400000095367,1669829303796,strawberries,1351.1999999284744,True,5.51,29657.600000023842,1351.1999999284744,True,HRV,HRV_0074,2022-11-30 17:29:23
19,"[{'imgObject': {}, 'id': 'turkey sandwich', 'src': '/static/foodstim60/turkey sandwich.jpg', 'key': 'NaN', 'origWidth': 409, 'origHeight': 409, 'width': 409, 'height': 409, 'widthPercent': 0.8, 'rescaleHeight': True, 'trialN': 19, 'loaded': True, 'loadedTime': 2644.4000000953674, 'positionName': 'CENTER', 'positionCoords': [755.5, 335.5]}]",Rate how much you want to eat this food from 0 (least) to 10 (most).,29658.5,1669829305148,turkey sandwich,1340.1000000238419,True,7.08,30998.600000023842,1340.1000000238419,True,HRV,HRV_0074,2022-11-30 17:29:23
20,"[{'imgObject': {}, 'id': 'blueberries', 'src': '/static/foodstim60/blueberries.jpg', 'key': 'NaN', 'origWidth': 411, 'origHeight': 411, 'width': 411, 'height': 411, 'widthPercent': 0.8, 'rescaleHeight': True, 'trialN': 20, 'loaded': True, 'loadedTime': 2646.8000000715256, 'positionName': 'CENTER', 'positionCoords': [754.5, 334.5]}]",Rate how much you want to eat this food from 0 (least) to 10 (most).,30999.400000095367,1669829306489,blueberries,1041.5,True,2.81,32040.900000095367,1041.5,True,HRV,HRV_0074,2022-11-30 17:29:23
21,"[{'imgObject': {}, 'id': 'tacos', 'src': '/static/foodstim60/tacos.jpg', 'key': 'NaN', 'origWidth': 411, 'origHeight': 411, 'width': 411, 'height': 411, 'widthPercent': 0.8, 'rescaleHeight': True, 'trialN': 21, 'loaded': True, 'loadedTime': 2647.4000000953674, 'positionName': 'CENTER', 'positionCoords': [754.5, 334.5]}]",Rate how much you want to eat this food from 0 (least) to 10 (most).,32042.100000023842,1669829307532,tacos,1179.7000000476837,True,7.57,33221.800000071526,1179.7000000476837,True,HRV,HRV_0074,2022-11-30 17:29:23
22,"[{'imgObject': {}, 'id': 'lox', 'src': '/static/foodstim60/lox.jpg', 'key': 'NaN', 'origWidth': 410, 'origHeight': 411, 'width': 410, 'height': 411, 'widthPercent': 0.8, 'rescaleHeight': True, 'trialN': 22, 'loaded': True, 'loadedTime': 2648.3000000715256, 'positionName': 'CENTER', 'positionCoords': [755, 334.5]}]",Rate how much you want to eat this food from 0 (least) to 10 (most).,33222.800000071526,1669829308712,lox,1471.7999999523163,True,1.35,34694.60000002384,1471.7999999523163,True,HRV,HRV_0074,2022-11-30 17:29:23
23,"[{'imgObject': {}, 'id': 'kiwi', 'src': '/static/foodstim60/kiwi.jpg', 'key': 'NaN', 'origWidth': 410, 'origHeight': 410, 'width': 410, 'height': 410, 'widthPercent': 0.8, 'rescaleHeight': True, 'trialN': 23, 'loaded': True, 'loadedTime': 2649.100000023842, 'positionName': 'CENTER', 'positionCoords': [755, 335]}]",Rate how much you want to eat this food from 0 (least) to 10 (most).,34695.300000071526,1669829310185,kiwi,1476.2999999523163,True,5.36,36171.60000002384,1476.2999999523163,True,HRV,HRV_0074,2022-11-30 17:29:23
24,"[{'imgObject': {}, 'id': 'luckycharms', 'src': '/static/foodstim60/luckycharms.jpg', 'key': 'NaN', 'origWidth': 410, 'origHeight': 409, 'width': 410, 'height': 409, 'widthPercent': 0.8, 'rescaleHeight': True, 'trialN': 24, 'loaded': True, 'loadedTime': 2649.9000000953674, 'positionName': 'CENTER', 'positionCoords': [755, 335.5]}]",Rate how much you want to eat this food from 0 (least) to 10 (most).,36172.200000047684,1669829311662,luckycharms,1606.7000000476837,True,3.85,37778.90000009537,1606.7000000476837,True,HRV,HRV_0074,2022-11-30 17:29:23
25,"[{'imgObject': {}, 'id': 'veggieswithdip', 'src': '/static/foodstim60/veggieswithdip.jpg', 'key': 'NaN', 'origWidth': 409, 'origHeight': 409, 'width': 409, 'height': 409, 'widthPercent': 0.8, 'rescaleHeight': True, 'trialN': 25, 'loaded': True, 'loadedTime': 2650.9000000953674, 'positionName': 'CENTER', 'positionCoords': [755.5, 335.5]}]",Rate how much you want to eat this food from 0 (least) to 10 (most).,37779.700000047684,1669829313269,veggieswithdip,2172.2000000476837,True,3.93,39951.90000009537,2172.2000000476837,True,HRV,HRV_0074,2022-11-30 17:29:23
26,"[{'imgObject': {}, 'id': 'banana', 'src': '/static/foodstim60/banana.jpg', 'key': 'NaN', 'origWidth': 410, 'origHeight': 410, 'width': 410, 'height': 410, 'widthPercent': 0.8, 'rescaleHeight': True, 'trialN': 26, 'loaded': True, 'loadedTime': 2654.8000000715256, 'positionName': 'CENTER', 'positionCoords': [755, 335]}]",Rate how much you want to eat this food from 0 (least) to 10 (most).,39952.90000009537,1669829315442,banana,1208.8999999761581,True,2.82,41161.800000071526,1208.8999999761581,True,HRV,HRV_0074,2022-11-30 17:29:23
27,"[{'imgObject': {}, 'id': 'shreddedwheatwithmilk', 'src': '/static/foodstim60/shreddedwheatwithmilk.jpg', 'key': 'NaN', 'origWidth': 410, 'origHeight': 410, 'width': 410, 'height': 410, 'widthPercent': 0.8, 'rescaleHeight': True, 'trialN': 27, 'loaded': True, 'loadedTime': 2656.3000000715256, 'positionName': 'CENTER', 'positionCoords': [755, 335]}]",Rate how much you want to eat this food from 0 (least) to 10 (most).,41162.5,1669829316652,shreddedwheatwithmilk,1318.2000000476837,True,2.45,42480.700000047684,1318.2000000476837,True,HRV,HRV_0074,2022-11-30 17:29:23
28,"[{'imgObject': {}, 'id': 'raspberries', 'src': '/static/foodstim60/raspberries.jpg', 'key': 'NaN', 'origWidth': 411, 'origHeight': 411, 'width': 411, 'height': 411, 'widthPercent': 0.8, 'rescaleHeight': True, 'trialN': 28, 'loaded': True, 'loadedTime': 2657.7000000476837, 'positionName': 'CENTER', 'positionCoords': [754.5, 334.5]}]",Rate how much you want to eat this food from 0 (least) to 10 (most).,42481.800000071526,1669829317971,raspberries,1074.7999999523163,True,2.64,43556.60000002384,1074.7999999523163,True,HRV,HRV_0074,2022-11-30 17:29:23
29,"[{'imgObject': {}, 'id': 'cocktailshrimp', 'src': '/static/foodstim60/cocktailshrimp.jpg', 'key': 'NaN', 'origWidth': 410, 'origHeight': 410, 'width': 410, 'height': 410, 'widthPercent': 0.8, 'rescaleHeight': True, 'trialN': 29, 'loaded': True, 'loadedTime': 2669.5, 'positionName': 'CENTER', 'positionCoords': [755, 335]}]",Rate how much you want to eat this food from 0 (least) to 10 (most).,43557.5,1669829319047,cocktailshrimp,1344.1000000238419,True,7.95,44901.60000002384,1344.1000000238419,True,HRV,HRV_0074,2022-11-30 17:29:23
30,"[{'imgObject': {}, 'id': 'avocado', 'src': '/static/foodstim60/avocado.jpg', 'key': 'NaN', 'origWidth': 409, 'origHeight': 409, 'width': 409, 'height': 409, 'widthPercent': 0.8, 'rescaleHeight': True, 'trialN': 30, 'loaded': True, 'loadedTime': 2672.8000000715256, 'positionName': 'CENTER', 'positionCoords': [755.5, 335.5]}]",Rate how much you want to eat this food from 0 (least) to 10 (most).,44902.300000071526,1669829320392,avocado,1580.3999999761581,True,1.12,46482.700000047684,1580.3999999761581,True,HRV,HRV_0074,2022-11-30 17:29:23
31,"[{'imgObject': {}, 'id': 'fried eggs', 'src': '/static/foodstim60/fried eggs.jpg', 'key': 'NaN', 'origWidth': 410, 'origHeight': 410, 'width': 410, 'height': 410, 'widthPercent': 0.8, 'rescaleHeight': True, 'trialN': 31, 'loaded': True, 'loadedTime': 2682.4000000953674, 'positionName': 'CENTER', 'positionCoords': [755, 335]}]",Rate how much you want to eat this food from 0 (least) to 10 (most).,46483.60000002384,1669829321973,fried eggs,1488.0,True,6.26,47971.60000002384,1488.0,True,HRV,HRV_0074,2022-11-30 17:29:23
32,"[{'imgObject': {}, 'id': 'seaweed', 'src': '/static/foodstim60/seaweed.jpg', 'key': 'NaN', 'origWidth': 410, 'origHeight': 410, 'width': 410, 'height': 410, 'widthPercent': 0.8, 'rescaleHeight': True, 'trialN': 32, 'loaded': True, 'loadedTime': 2686.100000023842, 'positionName': 'CENTER', 'positionCoords': [755, 335]}]",Rate how much you want to eat this food from 0 (least) to 10 (most).,47972.40000009537,1669829323462,seaweed,1768.1999999284744,True,0.91,49740.60000002384,1768.1999999284744,True,HRV,HRV_0074,2022-11-30 17:29:23
33,"[{'imgObject': {}, 'id': 'hashbrowns', 'src': '/static/foodstim60/hashbrowns.jpg', 'key': 'NaN', 'origWidth': 411, 'origHeight': 410, 'width': 411, 'height': 410, 'widthPercent': 0.8, 'rescaleHeight': True, 'trialN': 33, 'loaded': True, 'loadedTime': 2687.9000000953674, 'positionName': 'CENTER', 'positionCoords': [754.5, 335]}]",Rate how much you want to eat this food from 0 (least) to 10 (most).,49741.40000009537,1669829325231,hashbrowns,1850.1999999284744,True,1.85,51591.60000002384,1850.1999999284744,True,HRV,HRV_0074,2022-11-30 17:29:23
34,"[{'imgObject': {}, 'id': 'eggs', 'src': '/static/foodstim60/eggs.jpg', 'key': 'NaN', 'origWidth': 409, 'origHeight': 409, 'width': 409, 'height': 409, 'widthPercent': 0.8, 'rescaleHeight': True, 'trialN': 34, 'loaded': True, 'loadedTime': 2689.9000000953674, 'positionName': 'CENTER', 'positionCoords': [755.5, 335.5]}]",Rate how much you want to eat this food from 0 (least) to 10 (most).,51592.5,1669829327082,eggs,959.1000000238419,True,4.1,52551.60000002384,959.1000000238419,True,HRV,HRV_0074,2022-11-30 17:29:23
35,"[{'imgObject': {}, 'id': 'rigatoni', 'src': '/static/foodstim60/rigatoni.jpg', 'key': 'NaN', 'origWidth': 411, 'origHeight': 411, 'width': 411, 'height': 411, 'widthPercent': 0.8, 'rescaleHeight': True, 'trialN': 35, 'loaded': True, 'loadedTime': 2691.5, 'positionName': 'CENTER', 'positionCoords': [754.5, 334.5]}]",Rate how much you want to eat this food from 0 (least) to 10 (most).,52552.60000002384,1669829328042,rigatoni,1233.8999999761581,True,1.94,53786.5,1233.8999999761581,True,HRV,HRV_0074,2022-11-30 17:29:23
36,"[{'imgObject': {}, 'id': 'rigatoni and sauce', 'src': '/static/foodstim60/rigatoni and sauce.jpg', 'key': 'NaN', 'origWidth': 410, 'origHeight': 411, 'width': 410, 'height': 411, 'widthPercent': 0.8, 'rescaleHeight': True, 'trialN': 36, 'loaded': True, 'loadedTime': 2695.100000023842, 'positionName': 'CENTER', 'positionCoords': [755, 334.5]}]",Rate how much you want to eat this food from 0 (least) to 10 (most).,53787.300000071526,1669829329277,rigatoni and sauce,1013.6000000238419,True,1.6,54800.90000009537,1013.6000000238419,True,HRV,HRV_0074,2022-11-30 17:29:23
37,"[{'imgObject': {}, 'id': 'mac & cheese', 'src': '/static/foodstim60/mac & cheese.jpg', 'key': 'NaN', 'origWidth': 410, 'origHeight': 410, 'width': 410, 'height': 410, 'widthPercent': 0.8, 'rescaleHeight': True, 'trialN': 37, 'loaded': True, 'loadedTime': 2696.7000000476837, 'positionName': 'CENTER', 'positionCoords': [755, 335]}]",Rate how much you want to eat this food from 0 (least) to 10 (most).,54801.60000002384,1669829330291,mac & cheese,1735.0,True,4.25,56536.60000002384,1735.0,True,HRV,HRV_0074,2022-11-30 17:29:23
38,"[{'imgObject': {}, 'id': 'grilled chicken strips', 'src': '/static/foodstim60/grilled chicken strips.jpg', 'key': 'NaN', 'origWidth': 410, 'origHeight': 411, 'width': 410, 'height': 411, 'widthPercent': 0.8, 'rescaleHeight': True, 'trialN': 38, 'loaded': True, 'loadedTime': 2697.8000000715256, 'positionName': 'CENTER', 'positionCoords': [755, 334.5]}]",Rate how much you want to eat this food from 0 (least) to 10 (most).,56537.300000071526,1669829332027,grilled chicken strips,1201.2999999523163,True,6.4,57738.60000002384,1201.2999999523163,True,HRV,HRV_0074,2022-11-30 17:29:23
39,"[{'imgObject': {}, 'id': 'Tribe humus pita', 'src': '/static/foodstim60/Tribe humus pita.jpg', 'key': 'NaN', 'origWidth': 411, 'origHeight': 411, 'width': 411, 'height': 411, 'widthPercent': 0.8, 'rescaleHeight': True, 'trialN': 39, 'loaded': True, 'loadedTime': 2698.8000000715256, 'positionName': 'CENTER', 'positionCoords': [754.5, 334.5]}]",Rate how much you want to eat this food from 0 (least) to 10 (most).,57739.300000071526,1669829333229,Tribe humus pita,1623.8999999761581,True,0.53,59363.200000047684,1623.8999999761581,True,HRV,HRV_0074,2022-11-30 17:29:23
40,"[{'imgObject': {}, 'id': 'froot loops w milk', 'src': '/static/foodstim60/froot loops w milk.jpg', 'key': 'NaN', 'origWidth': 410, 'origHeight': 410, 'width': 410, 'height': 410, 'widthPercent': 0.8, 'rescaleHeight': True, 'trialN': 40, 'loaded': True, 'loadedTime': 2699.8000000715256, 'positionName': 'CENTER', 'positionCoords': [755, 335]}]",Rate how much you want to eat this food from 0 (least) to 10 (most).,59364.300000071526,1669829334854,froot loops w milk,1512.2999999523163,True,4.5600000000000005,60876.60000002384,1512.2999999523163,True,HRV,HRV_0074,2022-11-30 17:29:23
41,"[{'imgObject': {}, 'id': 'corn cob', 'src': '/static/foodstim60/corn cob.jpg', 'key': 'NaN', 'origWidth': 411, 'origHeight': 411, 'width': 411, 'height': 411, 'widthPercent': 0.8, 'rescaleHeight': True, 'trialN': 41, 'loaded': True, 'loadedTime': 2700.7000000476837, 'positionName': 'CENTER', 'positionCoords': [754.5, 334.5]}]",Rate how much you want to eat this food from 0 (least) to 10 (most).,60877.300000071526,1669829336367,corn cob,1157.6999999284744,True,2.34,62035.0,1157.6999999284744,True,HRV,HRV_0074,2022-11-30 17:29:23
42,"[{'imgObject': {}, 'id': 'fruitsalad', 'src': '/static/foodstim60/fruitsalad.jpg', 'key': 'NaN', 'origWidth': 410, 'origHeight': 410, 'width': 410, 'height': 410, 'widthPercent': 0.8, 'rescaleHeight': True, 'trialN': 42, 'loaded': True, 'loadedTime': 2702.5, 'positionName': 'CENTER', 'positionCoords': [755, 335]}]",Rate how much you want to eat this food from 0 (least) to 10 (most).,62036.10000002384,1669829337526,fruitsalad,1585.5,True,7.7700000000000005,63621.60000002384,1585.5,True,HRV,HRV_0074,2022-11-30 17:29:23
43,"[{'imgObject': {}, 'id': 'bagel and cc', 'src': '/static/foodstim60/bagel and cc.jpg', 'key': 'NaN', 'origWidth': 410, 'origHeight': 410, 'width': 410, 'height': 410, 'widthPercent': 0.8, 'rescaleHeight': True, 'trialN': 43, 'loaded': True, 'loadedTime': 2704, 'positionName': 'CENTER', 'positionCoords': [755, 335]}]",Rate how much you want to eat this food from 0 (least) to 10 (most).,63622.40000009537,1669829339112,bagel and cc,1021.1999999284744,True,7.3500000000000005,64643.60000002384,1021.1999999284744,True,HRV,HRV_0074,2022-11-30 17:29:23
44,"[{'imgObject': {}, 'id': 'cherry tomato', 'src': '/static/foodstim60/cherry tomato.jpg', 'key': 'NaN', 'origWidth': 410, 'origHeight': 410, 'width': 410, 'height': 410, 'widthPercent': 0.8, 'rescaleHeight': True, 'trialN': 44, 'loaded': True, 'loadedTime': 2705.600000023842, 'positionName': 'CENTER', 'positionCoords': [755, 335]}]",Rate how much you want to eat this food from 0 (least) to 10 (most).,64644.60000002384,1669829340134,cherry tomato,1643.2000000476837,True,0.7000000000000001,66287.80000007153,1643.2000000476837,True,HRV,HRV_0074,2022-11-30 17:29:23
45,"[{'imgObject': {}, 'id': 'eggsalad', 'src': '/static/foodstim60/eggsalad.jpg', 'key': 'NaN', 'origWidth': 410, 'origHeight': 409, 'width': 410, 'height': 409, 'widthPercent': 0.8, 'rescaleHeight': True, 'trialN': 45, 'loaded': True, 'loadedTime': 2707, 'positionName': 'CENTER', 'positionCoords': [755, 335.5]}]",Rate how much you want to eat this food from 0 (least) to 10 (most).,66288.60000002384,1669829341778,eggsalad,1456.2000000476837,True,1.19,67744.80000007153,1456.2000000476837,True,HRV,HRV_0074,2022-11-30 17:29:23
46,"[{'imgObject': {}, 'id': 'salad w chicken', 'src': '/static/foodstim60/salad w chicken.jpg', 'key': 'NaN', 'origWidth': 411, 'origHeight': 411, 'width': 411, 'height': 411, 'widthPercent': 0.8, 'rescaleHeight': True, 'trialN': 46, 'loaded': True, 'loadedTime': 2708.8000000715256, 'positionName': 'CENTER', 'positionCoords': [754.5, 334.5]}]",Rate how much you want to eat this food from 0 (least) to 10 (most).,67746.0,1669829343236,salad w chicken,1641.6000000238419,True,5.88,69387.60000002384,1641.6000000238419,True,HRV,HRV_0074,2022-11-30 17:29:23
47,"[{'imgObject': {}, 'id': 'ice cream sundae 002', 'src': '/static/foodstim60/ice cream sundae 002.jpg', 'key': 'NaN', 'origWidth': 409, 'origHeight': 409, 'width': 409, 'height': 409, 'widthPercent': 0.8, 'rescaleHeight': True, 'trialN': 47, 'loaded': True, 'loadedTime': 2710, 'positionName': 'CENTER', 'positionCoords': [755.5, 335.5]}]",Rate how much you want to eat this food from 0 (least) to 10 (most).,69388.70000004768,1669829344878,ice cream sundae 002,1130.8999999761581,True,3.75,70519.60000002384,1130.8999999761581,True,HRV,HRV_0074,2022-11-30 17:29:23
48,"[{'imgObject': {}, 'id': 'baked potato', 'src': '/static/foodstim60/baked potato.jpg', 'key': 'NaN', 'origWidth': 409, 'origHeight': 410, 'width': 409, 'height': 410, 'widthPercent': 0.8, 'rescaleHeight': True, 'trialN': 48, 'loaded': True, 'loadedTime': 2713, 'positionName': 'CENTER', 'positionCoords': [755.5, 335]}]",Rate how much you want to eat this food from 0 (least) to 10 (most).,70520.60000002384,1669829346010,baked potato,1296.0,True,1.81,71816.60000002384,1296.0,True,HRV,HRV_0074,2022-11-30 17:29:23
49,"[{'imgObject': {}, 'id': 'granola w milk', 'src': '/static/foodstim60/granola w milk.jpg', 'key': 'NaN', 'origWidth': 410, 'origHeight': 410, 'width': 410, 'height': 410, 'widthPercent': 0.8, 'rescaleHeight': True, 'trialN': 49, 'loaded': True, 'loadedTime': 2714.2000000476837, 'positionName': 'CENTER', 'positionCoords': [755, 335]}]",Rate how much you want to eat this food from 0 (least) to 10 (most).,71817.20000004768,1669829347307,granola w milk,1257.2999999523163,True,2.46,73074.5,1257.2999999523163,True,HRV,HRV_0074,2022-11-30 17:29:23
50,"[{'imgObject': {}, 'id': 'olives', 'src': '/static/foodstim60/olives.jpg', 'key': 'NaN', 'origWidth': 410, 'origHeight': 410, 'width': 410, 'height': 410, 'widthPercent': 0.8, 'rescaleHeight': True, 'trialN': 50, 'loaded': True, 'loadedTime': 2715.3000000715256, 'positionName': 'CENTER', 'positionCoords': [755, 335]}]",Rate how much you want to eat this food from 0 (least) to 10 (most).,73075.30000007153,1669829348565,olives,1523.6000000238419,True,7.5200000000000005,74598.90000009537,1523.6000000238419,True,HRV,HRV_0074,2022-11-30 17:29:23
51,"[{'imgObject': {}, 'id': 'edamame', 'src': '/static/foodstim60/edamame.jpg', 'key': 'NaN', 'origWidth': 409, 'origHeight': 410, 'width': 409, 'height': 410, 'widthPercent': 0.8, 'rescaleHeight': True, 'trialN': 51, 'loaded': True, 'loadedTime': 2728.9000000953674, 'positionName': 'CENTER', 'positionCoords': [755.5, 335]}]",Rate how much you want to eat this food from 0 (least) to 10 (most).,74599.60000002384,1669829350089,edamame,1557.0,True,0.38,76156.60000002384,1557.0,True,HRV,HRV_0074,2022-11-30 17:29:23
52,"[{'imgObject': {}, 'id': 'cantaloupe', 'src': '/static/foodstim60/cantaloupe.jpg', 'key': 'NaN', 'origWidth': 409, 'origHeight': 409, 'width': 409, 'height': 409, 'widthPercent': 0.8, 'rescaleHeight': True, 'trialN': 52, 'loaded': True, 'loadedTime': 2731.5, 'positionName': 'CENTER', 'positionCoords': [755.5, 335.5]}]",Rate how much you want to eat this food from 0 (least) to 10 (most).,76157.30000007153,1669829351647,cantaloupe,1222.2999999523163,True,1.48,77379.60000002384,1222.2999999523163,True,HRV,HRV_0074,2022-11-30 17:29:23
53,"[{'imgObject': {}, 'id': 'bagel plain', 'src': '/static/foodstim60/bagel plain.jpg', 'key': 'NaN', 'origWidth': 410, 'origHeight': 410, 'width': 410, 'height': 410, 'widthPercent': 0.8, 'rescaleHeight': True, 'trialN': 53, 'loaded': True, 'loadedTime': 2735.100000023842, 'positionName': 'CENTER', 'positionCoords': [755, 335]}]",Rate how much you want to eat this food from 0 (least) to 10 (most).,77380.40000009537,1669829352870,bagel plain,2204.1999999284744,True,7.19,79584.60000002384,2204.1999999284744,True,HRV,HRV_0074,2022-11-30 17:29:23
54,"[{'imgObject': {}, 'id': 'sushi w_condiments', 'src': '/static/foodstim60/sushi w_condiments.jpg', 'key': 'NaN', 'origWidth': 410, 'origHeight': 410, 'width': 410, 'height': 410, 'widthPercent': 0.8, 'rescaleHeight': True, 'trialN': 54, 'loaded': True, 'loadedTime': 2736.600000023842, 'positionName': 'CENTER', 'positionCoords': [755, 335]}]",Rate how much you want to eat this food from 0 (least) to 10 (most).,79585.30000007153,1669829355075,sushi w_condiments,1575.2999999523163,True,8.76,81160.60000002384,1575.2999999523163,True,HRV,HRV_0074,2022-11-30 17:29:23
55,"[{'imgObject': {}, 'id': 'yogurt no spoon', 'src': '/static/foodstim60/yogurt no spoon.jpg', 'key': 'NaN', 'origWidth': 411, 'origHeight': 410, 'width': 411, 'height': 410, 'widthPercent': 0.8, 'rescaleHeight': True, 'trialN': 55, 'loaded': True, 'loadedTime': 2738.8000000715256, 'positionName': 'CENTER', 'positionCoords': [754.5, 335]}]",Rate how much you want to eat this food from 0 (least) to 10 (most).,81161.40000009537,1669829356651,yogurt no spoon,1490.1999999284744,True,4.04,82651.60000002384,1490.1999999284744,True,HRV,HRV_0074,2022-11-30 17:29:23
56,"[{'imgObject': {}, 'id': 'Grapes', 'src': '/static/foodstim60/Grapes.jpg', 'key': 'NaN', 'origWidth': 411, 'origHeight': 411, 'width': 411, 'height': 411, 'widthPercent': 0.8, 'rescaleHeight': True, 'trialN': 56, 'loaded': True, 'loadedTime': 2739.7000000476837, 'positionName': 'CENTER', 'positionCoords': [754.5, 334.5]}]",Rate how much you want to eat this food from 0 (least) to 10 (most).,82652.30000007153,1669829358142,Grapes,1117.6000000238419,True,2.72,83769.90000009537,1117.6000000238419,True,HRV,HRV_0074,2022-11-30 17:29:23
57,"[{'imgObject': {}, 'id': 'raisin bran w milk', 'src': '/static/foodstim60/raisin bran w milk.jpg', 'key': 'NaN', 'origWidth': 411, 'origHeight': 411, 'width': 411, 'height': 411, 'widthPercent': 0.8, 'rescaleHeight': True, 'trialN': 57, 'loaded': True, 'loadedTime': 2741.3000000715256, 'positionName': 'CENTER', 'positionCoords': [754.5, 334.5]}]",Rate how much you want to eat this food from 0 (least) to 10 (most).,83771.0,1669829359261,raisin bran w milk,998.9000000953674,True,2.61,84769.90000009537,998.9000000953674,True,HRV,HRV_0074,2022-11-30 17:29:23
58,"[{'imgObject': {}, 'id': 'burrito', 'src': '/static/foodstim60/burrito.jpg', 'key': 'NaN', 'origWidth': 410, 'origHeight': 410, 'width': 410, 'height': 410, 'widthPercent': 0.8, 'rescaleHeight': True, 'trialN': 58, 'loaded': True, 'loadedTime': 2742.4000000953674, 'positionName': 'CENTER', 'positionCoords': [755, 335]}]",Rate how much you want to eat this food from 0 (least) to 10 (most).,84771.10000002384,1669829360261,burrito,1230.3999999761581,True,7.22,86001.5,1230.3999999761581,True,HRV,HRV_0074,2022-11-30 17:29:23
59,"[{'imgObject': {}, 'id': 'chicken nuggets2', 'src': '/static/foodstim60/chicken nuggets2.jpg', 'key': 'NaN', 'origWidth': 410, 'origHeight': 409, 'width': 410, 'height': 409, 'widthPercent': 0.8, 'rescaleHeight': True, 'trialN': 59, 'loaded': True, 'loadedTime': 2743.4000000953674, 'positionName': 'CENTER', 'positionCoords': [755, 335.5]}]",Rate how much you want to eat this food from 0 (least) to 10 (most).,86002.5,1669829361492,chicken nuggets2,1228.1000000238419,True,6.84,87230.60000002384,1228.1000000238419,True,HRV,HRV_0074,2022-11-30 17:29:23
