success,trial_type,trial_index,time_elapsed,internal_node_id,Block,TrialNumber,TrialTime,trialTimeDiff,FPS_avg,FPS_med,FPS_mode,TrialDur,winResizeTime,rt,block,button_pressed,MotCoh,MotDir,ColCoh,Color,ChoiceKey,Choice,Accuracy,RT,nFrames,FPS,PPD,missTrial,missTrialMsg,onsetDelay,fullScreenExitTime,canvCenter,TrialType,Score,BlockTrial,stimulus,button_labels,exp,subjectId,date
True,fullscreen,0,2055,0.0-0.0,0.0,1.0,,,,,,,,,,,,,,,,,,,,,,,,,,,,,,,,HRV,HRV_0271,2022-11-30 20:19:45
,wl-check-fps,1,7390,0.0-1.0,0.0,2.0,"[2525.2, 2526, 2539.8, 2916.2, 2927, 2939, 2955.6, 2972.1, 2988.7, 3006.7, 3022, 3039.8, 3057.7, 3073.2, 3089.3, 3106.8, 3123.4, 3139.8, 3157.1, 3172.9, 3190.1, 3207.1, 3223.2, 3240, 3257, 3273.6, 3289.8, 3306.8, 3323.3, 3340.1, 3356.3, 3373.4, 3390.1, 3406.7, 3423.5, 3440, 3456.7, 3472.3, 3489.6, 3507.4, 3522.7, 3539.4, 3555.4, 3573.9, 3589.1, 3605.5, 3622.6, 3639, 3656.1, 3672.9, 3688.6, 3705.5, 3722.6, 3739.1, 3755.7, 3772.9, 3788.9, 3806.3, 3823, 3839.2, 3856.1, 3872.1, 3888.7, 3906.4, 3922.5, 3938.9, 3955.4, 3973.1, 3989, 4006, 4023, 4039.2, 4056.5, 4072.1, 4089.5, 4105.7, 4122.8, 4139, 4155.6, 4172.9, 4188.9, 4206.3, 4223.1, 4238.6, 4256.9, 4272.8, 4290.1, 4306.4, 4323.9, 4340.3, 4356.3, 4374.2, 4390.5, 4406.6, 4422.7, 4438.8, 4457.1, 4474, 4490.6, 4505.9, 4522.9, 4539.3, 4556.2, 4573.8, 4590, 4607.8, 4623, 4640, 4656.7, 4675.8, 4689.3, 4706.6, 4723.1, 4739.8, 4756.7, 4773.6, 4790.6, 4807.7, 4823.1, 4840.5, 4856, 4872.5, 4889.2, 4905.1, 4922.2, 4939.2, 4956.2, 4972.8, 4988.6, 5005.2, 5021.9, 5039.3, 5055.3, 5072, 5089.2, 5105, 5121.9, 5138.4, 5155.3, 5172.5, 5189.1, 5205.8, 5222, 5238.6, 5255, 5272.1, 5288.7, 5305, 5322.4, 5338.2, 5355.3, 5372.2, 5389, 5405.7, 5422.2, 5438.5, 5456, 5472.7, 5488.7, 5505, 5521.8, 5539, 5555, 5572.1, 5588.1, 5604.8, 5622.1, 5639, 5655.7, 5671.9, 5688.6, 5704.9, 5722.1, 5739, 5755.2, 5772.3, 5788.9, 5805.5, 5822, 5838, 5855.1, 5872.4, 5888.2, 5904.8, 5922.3, 5938.8, 5955, 5972.1, 5988.9, 6005.3, 6022.6, 6038.8, 6055.2, 6072.5, 6088.5, 6105, 6122.1, 6138.8, 6156, 6172.2, 6191.2, 6207.7, 6222.9, 6239.2, 6256.6, 6273.2, 6289.8, 6306.5, 6323.1, 6340.6, 6357.4, 6372.8, 6389.6, 6406.3, 6423.6, 6440.2, 6456.1, 6472.4, 6490, 6506.8, 6523.2, 6539.3, 6556.4, 6573.3, 6589.5, 6607.8, 6623.1, 6639.4, 6656.1, 6673.8, 6690.5, 6706.2, 6722.9, 6739.9, 6756.3, 6773.5, 6789.4, 6806.1, 6823, 6840.2, 6855.8, 6872.4, 6888.9, 6904.9, 6922.1, 6938.4, 6955.6, 6972, 6988.8, 7005.3, 7022.2, 7039, 7055.6, 7072.2, 7088.9, 7105.3, 7121.8, 7138.9, 7155.2, 7172.2, 7188.7, 7205.2, 7222.3, 7238.6, 7255.1, 7271.6, 7288.7, 7304.4, 7321.4, 7338.7, 7354.3, 7372, 7389.2, 7404.9, 7422.1, 7440.8, 7456.2, 7472, 7488.8, 7505.2, 7521.8, 7538.8, 7554.7, 7571.9, 7588.7, 7604.6, 7622.1, 7638.7, 7655.3, 7671.8, 7688.6, 7704.9, 7721.1, 7738.4, 7755.1, 7771.8, 7788.6, 7805.1, 7821.3, 7838.2]","[1.9, 0.8, 13.8, 376.4, 10.8, 12, 16.6, 16.5, 16.6, 18, 15.3, 17.8, 17.9, 15.5, 16.1, 17.5, 16.6, 16.4, 17.3, 15.8, 17.2, 17, 16.1, 16.8, 17, 16.6, 16.2, 17, 16.5, 16.8, 16.2, 17.1, 16.7, 16.6, 16.8, 16.5, 16.7, 15.6, 17.3, 17.8, 15.3, 16.7, 16, 18.5, 15.2, 16.4, 17.1, 16.4, 17.1, 16.8, 15.7, 16.9, 17.1, 16.5, 16.6, 17.2, 16, 17.4, 16.7, 16.2, 16.9, 16, 16.6, 17.7, 16.1, 16.4, 16.5, 17.7, 15.9, 17, 17, 16.2, 17.3, 15.6, 17.4, 16.2, 17.1, 16.2, 16.6, 17.3, 16, 17.4, 16.8, 15.5, 18.3, 15.9, 17.3, 16.3, 17.5, 16.4, 16, 17.9, 16.3, 16.1, 16.1, 16.1, 18.3, 16.9, 16.6, 15.3, 17, 16.4, 16.9, 17.6, 16.2, 17.8, 15.2, 17, 16.7, 19.1, 13.5, 17.3, 16.5, 16.7, 16.9, 16.9, 17, 17.1, 15.4, 17.4, 15.5, 16.5, 16.7, 15.9, 17.1, 17, 17, 16.6, 15.8, 16.6, 16.7, 17.4, 16, 16.7, 17.2, 15.8, 16.9, 16.5, 16.9, 17.2, 16.6, 16.7, 16.2, 16.6, 16.4, 17.1, 16.6, 16.3, 17.4, 15.8, 17.1, 16.9, 16.8, 16.7, 16.5, 16.3, 17.5, 16.7, 16, 16.3, 16.8, 17.2, 16, 17.1, 16, 16.7, 17.3, 16.9, 16.7, 16.2, 16.7, 16.3, 17.2, 16.9, 16.2, 17.1, 16.6, 16.6, 16.5, 16, 17.1, 17.3, 15.8, 16.6, 17.5, 16.5, 16.2, 17.1, 16.8, 16.4, 17.3, 16.2, 16.4, 17.3, 16, 16.5, 17.1, 16.7, 17.2, 16.2, 19, 16.5, 15.2, 16.3, 17.4, 16.6, 16.6, 16.7, 16.6, 17.5, 16.8, 15.4, 16.8, 16.7, 17.3, 16.6, 15.9, 16.3, 17.6, 16.8, 16.4, 16.1, 17.1, 16.9, 16.2, 18.3, 15.3, 16.3, 16.7, 17.7, 16.7, 15.7, 16.7, 17, 16.4, 17.2, 15.9, 16.7, 16.9, 17.2, 15.6, 16.6, 16.5, 16, 17.2, 16.3, 17.2, 16.4, 16.8, 16.5, 16.9, 16.8, 16.6, 16.6, 16.7, 16.4, 16.5, 17.1, 16.3, 17, 16.5, 16.5, 17.1, 16.3, 16.5, 16.5, 17.1, 15.7, 17, 17.3, 15.6, 17.7, 17.2, 15.7, 17.2, 18.7, 15.4, 15.8, 16.8, 16.4, 16.6, 17, 15.9, 17.2, 16.8, 15.9, 17.5, 16.6, 16.6, 16.5, 16.8, 16.3, 16.2, 17.3, 16.7, 16.7, 16.8, 16.5, 16.2, 16.9]",56.0,61.0,60.0,5330.6,[],,,,,,,,,,,,,,,,,,,,,,,,,HRV,HRV_0271,2022-11-30 20:19:45
,wl-html-keyboard-response,2,19782,0.0-2.0-0.0,0.0,3.0,,,,,,,,10369.199999999255,0.0,0,,,,,,,,,,,,,,,,,,,,,,HRV,HRV_0271,2022-11-30 20:19:45
,wl-rdm,3,28515,0.0-3.0-0.0,0.0,4.0,,,,,,,[],,,,0.0,0.0,87.9,0.0,u,0.0,True,873.1999999992549,53.0,60.0,40.0,False,too_early ,3000.0,[],"[960, 540]",ColorTask_Demo,,,,,HRV,HRV_0271,2022-11-30 20:19:45
,wl-rdm,4,33513,0.0-3.0-1.0,0.0,5.0,,,,,,,[],,,,0.0,0.0,87.9,1.0,i,1.0,True,902.5999999996275,55.0,60.0,40.0,False,,2000.0,[],"[960, 540]",ColorTask_Demo,,,,,HRV,HRV_0271,2022-11-30 20:19:45
,wl-html-keyboard-response,5,38974,0.0-3.0-2.0,0.0,6.0,,,,,,,,3452.7999999988824,0.0,1,,,,,,,,,,,,,,,,,,,,,,HRV,HRV_0271,2022-11-30 20:19:45
,wl-html-keyboard-response,6,50038,0.0-4.0-0.0,0.0,7.0,,,,,,,,9060.800000000745,0.0,0,,,,,,,,,,,,,,,,,,,,,,HRV,HRV_0271,2022-11-30 20:19:45
,wl-html-keyboard-response,7,63158,0.0-5.0-0.0,0.0,8.0,,,,,,,,11115.299999998882,0.0,0,,,,,,,,,,,,,,,,,,,,,,HRV,HRV_0271,2022-11-30 20:19:45
,wl-rdm,8,65237,0.0-6.0-0.0,0.0,9.0,,,,,,,[],,,,,,87.9,1.0,i,1.0,True,666.2999999988824,40.0,60.0,40.0,False,,336.56429097904345,[],"[960, 540]",ColorTask,1.0,1.0,,,HRV,HRV_0271,2022-11-30 20:19:45
,wl-rdm,9,67569,0.0-6.1-0.1,0.0,10.0,,,,,,,[],,,,,,73.6,1.0,u,0.0,False,927.8000000026077,56.0,60.0,40.0,False,,325.7858289655718,[],"[960, 540]",ColorTask,0.0,2.0,,,HRV,HRV_0271,2022-11-30 20:19:45
,wl-rdm,10,69718,0.0-6.2-0.2,0.0,11.0,,,,,,,[],,,,,,87.9,0.0,u,0.0,True,781.1999999992549,47.0,60.0,40.0,False,,301.8039093406718,[],"[960, 540]",ColorTask,1.0,3.0,,,HRV,HRV_0271,2022-11-30 20:19:45
,wl-rdm,11,71818,0.0-6.3-0.3,0.0,12.0,,,,,,,[],,,,,,87.9,0.0,u,0.0,True,711.1999999992549,43.0,60.0,40.0,False,,307.1265567102164,[],"[960, 540]",ColorTask,2.0,4.0,,,HRV,HRV_0271,2022-11-30 20:19:45
,wl-rdm,12,74185,0.0-6.4-0.4,0.0,13.0,,,,,,,[],,,,,,53.2,0.0,u,0.0,True,1043.9000000003725,63.0,60.0,40.0,False,,248.12029911049484,[],"[960, 540]",ColorTask,3.0,5.0,,,HRV,HRV_0271,2022-11-30 20:19:45
,wl-rdm,13,76701,0.0-6.5-0.5,0.0,14.0,,,,,,,[],,,,,,56.4,1.0,i,1.0,True,1047.199999999255,63.0,60.0,40.0,False,,390.24739724630575,[],"[960, 540]",ColorTask,4.0,6.0,,,HRV,HRV_0271,2022-11-30 20:19:45
,wl-rdm,14,78950,0.0-6.6-0.6,0.0,15.0,,,,,,,[],,,,,,56.4,0.0,u,0.0,True,935.6999999992549,57.0,60.0,40.0,False,,225.9909539814719,[],"[960, 540]",ColorTask,5.0,7.0,,,HRV,HRV_0271,2022-11-30 20:19:45
,wl-rdm,15,81116,0.0-6.7-0.7,0.0,16.0,,,,,,,[],,,,,,62.5,0.0,u,0.0,True,847.0,51.0,60.0,40.0,False,,245.17116652883303,[],"[960, 540]",ColorTask,6.0,8.0,,,HRV,HRV_0271,2022-11-30 20:19:45
,wl-rdm,16,83149,0.0-6.8-0.8,0.0,17.0,,,,,,,[],,,,,,62.5,1.0,i,1.0,True,736.1999999992549,45.0,60.0,40.0,False,,214.58009131636965,[],"[960, 540]",ColorTask,7.0,9.0,,,HRV,HRV_0271,2022-11-30 20:19:45
,wl-rdm,17,85648,0.0-6.9-0.9,0.0,18.0,,,,,,,[],,,,,,50.0,1.0,u,0.0,False,1212.0,73.0,60.0,40.0,False,,215.79346201535924,[],"[960, 540]",ColorTask,6.0,10.0,,,HRV,HRV_0271,2022-11-30 20:19:45
,wl-rdm,18,88613,0.0-6.10-0.10,0.0,19.0,,,,,,,[],,,,,,62.5,1.0,i,1.0,True,1652.2000000011176,100.0,60.0,40.0,False,,229.4603844460631,[],"[960, 540]",ColorTask,7.0,11.0,,,HRV,HRV_0271,2022-11-30 20:19:45
,wl-rdm,19,91063,0.0-6.11-0.11,0.0,20.0,,,,,,,[],,,,,,53.2,0.0,u,0.0,True,1069.5,65.0,60.0,40.0,False,,288.36365633441966,[],"[960, 540]",ColorTask,8.0,12.0,,,HRV,HRV_0271,2022-11-30 20:19:45
,wl-rdm,20,93162,0.0-6.12-0.12,0.0,21.0,,,,,,,[],,,,,,73.6,1.0,i,1.0,True,790.9000000003725,48.0,60.0,40.0,False,,227.72033032125836,[],"[960, 540]",ColorTask,9.0,13.0,,,HRV,HRV_0271,2022-11-30 20:19:45
,wl-rdm,21,95278,0.0-6.13-0.13,0.0,22.0,,,,,,,[],,,,,,50.0,0.0,u,0.0,True,823.0,50.0,60.0,40.0,False,,200.76835121863832,[],"[960, 540]",ColorTask,10.0,14.0,,,HRV,HRV_0271,2022-11-30 20:19:45
,wl-rdm,22,97744,0.0-6.14-0.14,0.0,23.0,,,,,,,[],,,,,,50.0,0.0,u,0.0,True,985.7999999988824,60.0,60.0,40.0,False,,392.4375196132049,[],"[960, 540]",ColorTask,11.0,15.0,,,HRV,HRV_0271,2022-11-30 20:19:45
,wl-rdm,23,100177,0.0-6.15-0.15,0.0,24.0,,,,,,,[],,,,,,50.0,1.0,u,0.0,False,1056.0000000018626,64.0,60.0,40.0,False,,286.9450407359687,[],"[960, 540]",ColorTask,10.0,16.0,,,HRV,HRV_0271,2022-11-30 20:19:45
,wl-rdm,24,102243,0.0-6.16-0.16,0.0,25.0,,,,,,,[],,,,,,87.9,0.0,u,0.0,True,724.8000000007451,44.0,60.0,40.0,False,,251.73010198414192,[],"[960, 540]",ColorTask,11.0,17.0,,,HRV,HRV_0271,2022-11-30 20:19:45
,wl-rdm,25,104775,0.0-6.17-0.17,0.0,26.0,,,,,,,[],,,,,,53.2,0.0,i,1.0,False,1191.0,72.0,60.0,40.0,False,,271.4499021872879,[],"[960, 540]",ColorTask,10.0,18.0,,,HRV,HRV_0271,2022-11-30 20:19:45
,wl-rdm,26,107024,0.0-6.18-0.18,0.0,27.0,,,,,,,[],,,,,,73.6,0.0,u,0.0,True,797.8000000026077,48.0,60.0,40.0,False,,371.1432821193969,[],"[960, 540]",ColorTask,11.0,19.0,,,HRV,HRV_0271,2022-11-30 20:19:45
,wl-rdm,27,110923,0.0-6.19-0.19,0.0,28.0,,,,,,,[],,,,,,53.2,1.0,i,1.0,True,2474.0999999996275,149.0,60.0,40.0,False,,359.51227124497393,[],"[960, 540]",ColorTask,12.0,20.0,,,HRV,HRV_0271,2022-11-30 20:19:45
,wl-rdm,28,113123,0.0-6.20-0.20,0.0,29.0,,,,,,,[],,,,,,73.6,1.0,i,1.0,True,804.2000000011176,49.0,60.0,40.0,False,,323.8160539065435,[],"[960, 540]",ColorTask,13.0,21.0,,,HRV,HRV_0271,2022-11-30 20:19:45
,wl-rdm,29,115305,0.0-6.21-0.21,0.0,30.0,,,,,,,[],,,,,,73.6,1.0,i,1.0,True,786.0999999996275,48.0,60.0,40.0,False,,310.8086946535886,[],"[960, 540]",ColorTask,14.0,22.0,,,HRV,HRV_0271,2022-11-30 20:19:45
,wl-rdm,30,117555,0.0-6.22-0.22,0.0,31.0,,,,,,,[],,,,,,56.4,0.0,u,0.0,True,789.1000000014901,48.0,60.0,40.0,False,,377.4073907803584,[],"[960, 540]",ColorTask,15.0,23.0,,,HRV,HRV_0271,2022-11-30 20:19:45
,wl-rdm,31,119937,0.0-6.23-0.23,0.0,32.0,,,,,,,[],,,,,,87.9,1.0,i,1.0,True,1069.4000000003725,65.0,60.0,40.0,False,,233.1021763784118,[],"[960, 540]",ColorTask,16.0,24.0,,,HRV,HRV_0271,2022-11-30 20:19:45
,wl-rdm,32,122053,0.0-6.24-0.24,0.0,33.0,,,,,,,[],,,,,,50.0,1.0,u,0.0,False,819.0999999996275,50.0,60.0,40.0,False,,232.90425343686655,[],"[960, 540]",ColorTask,15.0,25.0,,,HRV,HRV_0271,2022-11-30 20:19:45
,wl-rdm,33,124219,0.0-6.25-0.25,0.0,34.0,,,,,,,[],,,,,,53.2,0.0,u,0.0,True,894.4000000003725,54.0,60.0,40.0,False,,209.70143995647373,[],"[960, 540]",ColorTask,16.0,26.0,,,HRV,HRV_0271,2022-11-30 20:19:45
,wl-rdm,34,126919,0.0-6.26-0.26,0.0,35.0,,,,,,,[],,,,,,62.5,1.0,i,1.0,True,1319.4000000022352,80.0,60.0,40.0,False,,286.8519951460274,[],"[960, 540]",ColorTask,17.0,27.0,,,HRV,HRV_0271,2022-11-30 20:19:45
,wl-rdm,35,129484,0.0-6.27-0.27,0.0,36.0,,,,,,,[],,,,,,53.2,1.0,i,1.0,True,1225.4000000022352,74.0,60.0,40.0,False,,281.51482905852265,[],"[960, 540]",ColorTask,18.0,28.0,,,HRV,HRV_0271,2022-11-30 20:19:45
,wl-rdm,36,131600,0.0-6.28-0.28,0.0,37.0,,,,,,,[],,,,,,62.5,1.0,i,1.0,True,712.5999999996275,43.0,60.0,40.0,False,,317.1659376965187,[],"[960, 540]",ColorTask,19.0,29.0,,,HRV,HRV_0271,2022-11-30 20:19:45
,wl-rdm,37,133667,0.0-6.29-0.29,0.0,38.0,,,,,,,[],,,,,,73.6,0.0,u,0.0,True,736.0999999996275,45.0,60.0,40.0,False,,233.6382741460162,[],"[960, 540]",ColorTask,20.0,30.0,,,HRV,HRV_0271,2022-11-30 20:19:45
,wl-rdm,38,136415,0.0-6.30-0.30,0.0,39.0,,,,,,,[],,,,,,56.4,1.0,i,1.0,True,1310.2999999988824,79.0,60.0,40.0,False,,351.3778323277295,[],"[960, 540]",ColorTask,21.0,31.0,,,HRV,HRV_0271,2022-11-30 20:19:45
,wl-rdm,39,138481,0.0-6.31-0.31,0.0,40.0,,,,,,,[],,,,,,50.0,0.0,u,0.0,True,776.9000000003725,47.0,60.0,40.0,False,,201.32436196435162,[],"[960, 540]",ColorTask,22.0,32.0,,,HRV,HRV_0271,2022-11-30 20:19:45
,wl-rdm,40,140814,0.0-6.32-0.32,0.0,41.0,,,,,,,[],,,,,,56.4,0.0,i,1.0,False,909.5999999996275,55.0,60.0,40.0,False,,339.24964401589466,[],"[960, 540]",ColorTask,21.0,33.0,,,HRV,HRV_0271,2022-11-30 20:19:45
,wl-rdm,41,142897,0.0-6.33-0.33,0.0,42.0,,,,,,,[],,,,,,73.6,0.0,u,0.0,True,762.7999999988824,46.0,60.0,40.0,False,,248.65318117814974,[],"[960, 540]",ColorTask,22.0,34.0,,,HRV,HRV_0271,2022-11-30 20:19:45
,wl-rdm,42,145363,0.0-6.34-0.34,0.0,43.0,,,,,,,[],,,,,,53.2,1.0,i,1.0,True,1115.0999999996275,67.0,60.0,40.0,False,,272.65961734673044,[],"[960, 540]",ColorTask,23.0,35.0,,,HRV,HRV_0271,2022-11-30 20:19:45
,wl-rdm,43,148012,0.0-6.35-0.35,0.0,44.0,,,,,,,[],,,,,,56.4,1.0,i,1.0,True,1254.5999999996275,76.0,60.0,40.0,False,,323.17133362145705,[],"[960, 540]",ColorTask,24.0,36.0,,,HRV,HRV_0271,2022-11-30 20:19:45
,wl-rdm,44,150078,0.0-6.36-0.36,0.0,45.0,,,,,,,[],,,,,,62.5,1.0,i,1.0,True,684.8999999985099,42.0,60.0,40.0,False,,293.9193479277372,[],"[960, 540]",ColorTask,25.0,37.0,,,HRV,HRV_0271,2022-11-30 20:19:45
,wl-rdm,45,152077,0.0-6.37-0.37,0.0,46.0,,,,,,,[],,,,,,87.9,0.0,u,0.0,True,628.9000000003725,38.0,60.0,40.0,False,,293.6385155710414,[],"[960, 540]",ColorTask,26.0,38.0,,,HRV,HRV_0271,2022-11-30 20:19:45
,wl-rdm,46,154527,0.0-6.38-0.38,0.0,47.0,,,,,,,[],,,,,,50.0,0.0,u,0.0,True,1047.5,63.0,60.0,40.0,False,,317.4605905647569,[],"[960, 540]",ColorTask,27.0,39.0,,,HRV,HRV_0271,2022-11-30 20:19:45
,wl-rdm,47,157259,0.0-6.39-0.39,0.0,48.0,,,,,,,[],,,,,,56.4,1.0,i,1.0,True,1350.2999999988824,81.0,60.0,40.0,False,,304.7076575492589,[],"[960, 540]",ColorTask,28.0,40.0,,,HRV,HRV_0271,2022-11-30 20:19:45
,wl-rdm,48,159792,0.0-6.40-0.40,0.0,49.0,,,,,,,[],,,,,,50.0,0.0,i,1.0,False,1207.5000000018626,73.0,60.0,40.0,False,,241.1378404921889,[],"[960, 540]",ColorTask,27.0,41.0,,,HRV,HRV_0271,2022-11-30 20:19:45
,wl-rdm,49,162624,0.0-6.41-0.41,0.0,50.0,,,,,,,[],,,,,,50.0,0.0,u,0.0,True,1427.699999999255,86.0,60.0,40.0,False,,327.80846793827857,[],"[960, 540]",ColorTask,28.0,42.0,,,HRV,HRV_0271,2022-11-30 20:19:45
,wl-rdm,50,165073,0.0-6.42-0.42,0.0,51.0,,,,,,,[],,,,,,62.5,0.0,u,0.0,True,1048.4000000003725,63.0,60.0,40.0,False,,322.2204179090004,[],"[960, 540]",ColorTask,29.0,43.0,,,HRV,HRV_0271,2022-11-30 20:19:45
,wl-rdm,51,167639,0.0-6.43-0.43,0.0,52.0,,,,,,,[],,,,,,73.6,1.0,i,1.0,True,1085.800000000745,66.0,60.0,40.0,False,,389.5444977876612,[],"[960, 540]",ColorTask,30.0,44.0,,,HRV,HRV_0271,2022-11-30 20:19:45
,wl-rdm,52,170488,0.0-6.44-0.44,0.0,53.0,,,,,,,[],,,,,,56.4,0.0,u,0.0,True,1405.5999999996275,85.0,60.0,40.0,False,,351.22102515012693,[],"[960, 540]",ColorTask,31.0,45.0,,,HRV,HRV_0271,2022-11-30 20:19:45
,wl-rdm,53,172554,0.0-6.45-0.45,0.0,54.0,,,,,,,[],,,,,,62.5,0.0,u,0.0,True,742.0999999996275,45.0,60.0,40.0,False,,248.1228583409037,[],"[960, 540]",ColorTask,32.0,46.0,,,HRV,HRV_0271,2022-11-30 20:19:45
,wl-rdm,54,174420,0.0-6.46-0.46,0.0,55.0,,,,,,,[],,,,,,87.9,0.0,u,0.0,True,537.5,33.0,60.0,40.0,False,,267.0909189305857,[],"[960, 540]",ColorTask,33.0,47.0,,,HRV,HRV_0271,2022-11-30 20:19:45
,wl-rdm,55,176387,0.0-6.47-0.47,0.0,56.0,,,,,,,[],,,,,,87.9,1.0,i,1.0,True,643.5,39.0,60.0,40.0,False,,248.26669156601363,[],"[960, 540]",ColorTask,34.0,48.0,,,HRV,HRV_0271,2022-11-30 20:19:45
,wl-rdm,56,179636,0.0-6.48-0.48,0.0,57.0,,,,,,,[],,,,,,56.4,1.0,i,1.0,True,1937.7000000011176,117.0,60.0,40.0,False,,234.47004702320288,[],"[960, 540]",ColorTask,35.0,49.0,,,HRV,HRV_0271,2022-11-30 20:19:45
,wl-rdm,57,183434,0.0-6.49-0.49,0.0,58.0,,,,,,,[],,,,,,62.5,1.0,i,1.0,True,2479.7999999988824,149.0,60.0,40.0,False,,252.57616633350852,[],"[960, 540]",ColorTask,36.0,50.0,,,HRV,HRV_0271,2022-11-30 20:19:45
,wl-rdm,58,186000,0.0-6.50-0.50,0.0,59.0,,,,,,,[],,,,,,53.2,1.0,i,1.0,True,1160.9000000003725,70.0,60.0,40.0,False,,328.8070630357407,[],"[960, 540]",ColorTask,37.0,51.0,,,HRV,HRV_0271,2022-11-30 20:19:45
,wl-rdm,59,188383,0.0-6.51-0.51,0.0,60.0,,,,,,,[],,,,,,50.0,1.0,u,0.0,False,964.6000000014901,58.0,60.0,40.0,False,,344.4512478936365,[],"[960, 540]",ColorTask,36.0,52.0,,,HRV,HRV_0271,2022-11-30 20:19:45
,wl-rdm,60,190732,0.0-6.52-0.52,0.0,61.0,,,,,,,[],,,,,,56.4,1.0,i,1.0,True,1040.699999999255,63.0,60.0,40.0,False,,233.73024119468644,[],"[960, 540]",ColorTask,37.0,53.0,,,HRV,HRV_0271,2022-11-30 20:19:45
,wl-rdm,61,194548,0.0-6.53-0.53,0.0,62.0,,,,,,,[],,,,,,62.5,0.0,u,0.0,True,2369.0999999996275,143.0,60.0,40.0,False,,355.1678402650408,[],"[960, 540]",ColorTask,38.0,54.0,,,HRV,HRV_0271,2022-11-30 20:19:45
,wl-rdm,62,197047,0.0-6.54-0.54,0.0,63.0,,,,,,,[],,,,,,50.0,0.0,u,0.0,True,1085.2000000011176,66.0,60.0,40.0,False,,327.70418805569096,[],"[960, 540]",ColorTask,39.0,55.0,,,HRV,HRV_0271,2022-11-30 20:19:45
,wl-rdm,63,199113,0.0-6.55-0.55,0.0,64.0,,,,,,,[],,,,,,53.2,0.0,u,0.0,True,659.8000000007451,40.0,60.0,40.0,False,,322.01879335444977,[],"[960, 540]",ColorTask,40.0,56.0,,,HRV,HRV_0271,2022-11-30 20:19:45
,wl-rdm,64,201345,0.0-6.56-0.56,0.0,65.0,,,,,,,[],,,,,,73.6,0.0,u,0.0,True,785.7000000011176,48.0,60.0,40.0,False,,357.3879589475733,[],"[960, 540]",ColorTask,41.0,57.0,,,HRV,HRV_0271,2022-11-30 20:19:45
,wl-rdm,65,203478,0.0-6.57-0.57,0.0,66.0,,,,,,,[],,,,,,56.4,0.0,u,0.0,True,796.8999999985099,48.0,60.0,40.0,False,,277.0034951372704,[],"[960, 540]",ColorTask,42.0,58.0,,,HRV,HRV_0271,2022-11-30 20:19:45
,wl-rdm,66,205794,0.0-6.58-0.58,0.0,67.0,,,,,,,[],,,,,,50.0,1.0,i,1.0,True,1009.2999999988824,61.0,60.0,40.0,False,,224.13798396125054,[],"[960, 540]",ColorTask,43.0,59.0,,,HRV,HRV_0271,2022-11-30 20:19:45
,wl-rdm,67,207960,0.0-6.59-0.59,0.0,68.0,,,,,,,[],,,,,,53.2,0.0,u,0.0,True,836.2000000011176,51.0,60.0,40.0,False,,240.5600570409573,[],"[960, 540]",ColorTask,44.0,60.0,,,HRV,HRV_0271,2022-11-30 20:19:45
,wl-rdm,68,209860,0.0-6.60-0.60,0.0,69.0,,,,,,,[],,,,,,87.9,0.0,u,0.0,True,582.9000000003725,36.0,60.0,40.0,False,,234.21738673122167,[],"[960, 540]",ColorTask,45.0,61.0,,,HRV,HRV_0271,2022-11-30 20:19:45
,wl-rdm,69,211825,0.0-6.61-0.61,0.0,70.0,,,,,,,[],,,,,,87.9,0.0,u,0.0,True,525.5,32.0,60.0,40.0,False,,365.8431759681122,[],"[960, 540]",ColorTask,46.0,62.0,,,HRV,HRV_0271,2022-11-30 20:19:45
,wl-rdm,70,213692,0.0-6.62-0.62,0.0,71.0,,,,,,,[],,,,,,87.9,1.0,i,1.0,True,545.5999999996275,33.0,60.0,40.0,False,,239.72661505763116,[],"[960, 540]",ColorTask,47.0,63.0,,,HRV,HRV_0271,2022-11-30 20:19:45
,wl-rdm,71,216074,0.0-6.63-0.63,0.0,72.0,,,,,,,[],,,,,,73.6,1.0,i,1.0,True,1069.9000000003725,65.0,60.0,40.0,False,,223.15302332844095,[],"[960, 540]",ColorTask,48.0,64.0,,,HRV,HRV_0271,2022-11-30 20:19:45
,wl-rdm,72,218440,0.0-6.64-0.64,0.0,73.0,,,,,,,[],,,,,,50.0,1.0,u,0.0,False,890.0999999996275,54.0,60.0,40.0,False,,388.34588782073,[],"[960, 540]",ColorTask,47.0,65.0,,,HRV,HRV_0271,2022-11-30 20:19:45
,wl-rdm,73,220956,0.0-6.65-0.65,0.0,74.0,,,,,,,[],,,,,,56.4,1.0,i,1.0,True,1167.7000000011176,70.0,60.0,40.0,False,,270.58049972553414,[],"[960, 540]",ColorTask,48.0,66.0,,,HRV,HRV_0271,2022-11-30 20:19:45
,wl-rdm,74,223206,0.0-6.66-0.66,0.0,75.0,,,,,,,[],,,,,,62.5,0.0,u,0.0,True,774.4000000003725,47.0,60.0,40.0,False,,387.2960218917862,[],"[960, 540]",ColorTask,49.0,67.0,,,HRV,HRV_0271,2022-11-30 20:19:45
,wl-rdm,75,225538,0.0-6.67-0.67,0.0,76.0,,,,,,,[],,,,,,50.0,1.0,i,1.0,True,1036.2999999988824,63.0,60.0,40.0,False,,209.44552280993474,[],"[960, 540]",ColorTask,50.0,68.0,,,HRV,HRV_0271,2022-11-30 20:19:45
,wl-rdm,76,227587,0.0-6.68-0.68,0.0,77.0,,,,,,,[],,,,,,87.9,1.0,i,1.0,True,662.7000000011176,40.0,60.0,40.0,False,,313.1876988976052,[],"[960, 540]",ColorTask,51.0,69.0,,,HRV,HRV_0271,2022-11-30 20:19:45
,wl-rdm,77,230620,0.0-6.69-0.69,0.0,78.0,,,,,,,[],,,,,,50.0,1.0,u,0.0,False,1579.2999999988824,95.0,60.0,40.0,False,,395.99272958022095,[],"[960, 540]",ColorTask,50.0,70.0,,,HRV,HRV_0271,2022-11-30 20:19:45
,wl-rdm,78,232952,0.0-6.70-0.70,0.0,79.0,,,,,,,[],,,,,,53.2,1.0,i,1.0,True,946.8000000007451,57.0,60.0,40.0,False,,316.69909518079487,[],"[960, 540]",ColorTask,51.0,71.0,,,HRV,HRV_0271,2022-11-30 20:19:45
,wl-rdm,79,235635,0.0-6.71-0.71,0.0,80.0,,,,,,,[],,,,,,53.2,0.0,u,0.0,True,1252.9000000003725,76.0,60.0,40.0,False,,339.1776942762194,[],"[960, 540]",ColorTask,52.0,72.0,,,HRV,HRV_0271,2022-11-30 20:19:45
,wl-rdm,80,238151,0.0-6.72-0.72,0.0,81.0,,,,,,,[],,,,,,50.0,0.0,u,0.0,True,1191.2999999988824,72.0,60.0,40.0,False,,253.63701169277184,[],"[960, 540]",ColorTask,53.0,73.0,,,HRV,HRV_0271,2022-11-30 20:19:45
,wl-rdm,81,240150,0.0-6.73-0.73,0.0,82.0,,,,,,,[],,,,,,53.2,0.0,u,0.0,True,657.5,40.0,60.0,40.0,False,,266.66757502107635,[],"[960, 540]",ColorTask,54.0,74.0,,,HRV,HRV_0271,2022-11-30 20:19:45
,wl-rdm,82,242549,0.0-6.74-0.74,0.0,83.0,,,,,,,[],,,,,,53.2,1.0,i,1.0,True,1019.5999999996275,62.0,60.0,40.0,False,,315.2098394973307,[],"[960, 540]",ColorTask,55.0,75.0,,,HRV,HRV_0271,2022-11-30 20:19:45
,wl-rdm,83,244649,0.0-6.75-0.75,0.0,84.0,,,,,,,[],,,,,,87.9,1.0,i,1.0,True,727.3000000007451,44.0,60.0,40.0,False,,289.89546959165864,[],"[960, 540]",ColorTask,56.0,76.0,,,HRV,HRV_0271,2022-11-30 20:19:45
,wl-rdm,84,246998,0.0-6.76-0.76,0.0,85.0,,,,,,,[],,,,,,53.2,1.0,u,0.0,False,933.9000000003725,56.0,60.0,40.0,False,,339.5407729460859,[],"[960, 540]",ColorTask,55.0,77.0,,,HRV,HRV_0271,2022-11-30 20:19:45
,wl-rdm,85,248914,0.0-6.77-0.77,0.0,86.0,,,,,,,[],,,,,,73.6,0.0,u,0.0,True,522.4000000003725,32.0,60.0,40.0,False,,312.2261728375372,[],"[960, 540]",ColorTask,56.0,78.0,,,HRV,HRV_0271,2022-11-30 20:19:45
,wl-rdm,86,251112,0.0-6.78-0.78,0.0,87.0,,,,,,,[],,,,,,56.4,0.0,u,0.0,True,851.2999999988824,52.0,60.0,40.0,False,,243.45435160794386,[],"[960, 540]",ColorTask,57.0,79.0,,,HRV,HRV_0271,2022-11-30 20:19:45
,wl-rdm,87,253045,0.0-6.79-0.79,0.0,88.0,,,,,,,[],,,,,,73.6,0.0,u,0.0,True,559.7000000011176,34.0,60.0,40.0,False,,307.43528458047575,[],"[960, 540]",ColorTask,58.0,80.0,,,HRV,HRV_0271,2022-11-30 20:19:45
,wl-rdm,88,255295,0.0-6.80-0.80,0.0,89.0,,,,,,,[],,,,,,53.2,1.0,i,1.0,True,861.8000000007451,52.0,60.0,40.0,False,,324.81646254497855,[],"[960, 540]",ColorTask,59.0,81.0,,,HRV,HRV_0271,2022-11-30 20:19:45
,wl-rdm,89,257327,0.0-6.81-0.81,0.0,90.0,,,,,,,[],,,,,,87.9,0.0,u,0.0,True,613.3000000007451,37.0,60.0,40.0,False,,362.90371060026484,[],"[960, 540]",ColorTask,60.0,82.0,,,HRV,HRV_0271,2022-11-30 20:19:45
,wl-rdm,90,259576,0.0-6.82-0.82,0.0,91.0,,,,,,,[],,,,,,50.0,0.0,i,1.0,False,822.4000000003725,50.0,60.0,40.0,False,,348.8982142483176,[],"[960, 540]",ColorTask,59.0,83.0,,,HRV,HRV_0271,2022-11-30 20:19:45
,wl-rdm,91,261859,0.0-6.83-0.83,0.0,92.0,,,,,,,[],,,,,,62.5,1.0,i,1.0,True,992.0999999996275,60.0,60.0,40.0,False,,214.23209052757528,[],"[960, 540]",ColorTask,60.0,84.0,,,HRV,HRV_0271,2022-11-30 20:19:45
,wl-rdm,92,263975,0.0-6.84-0.84,0.0,93.0,,,,,,,[],,,,,,53.2,0.0,u,0.0,True,757.0999999996275,46.0,60.0,40.0,False,,274.1632242856,[],"[960, 540]",ColorTask,61.0,85.0,,,HRV,HRV_0271,2022-11-30 20:19:45
,wl-rdm,93,265924,0.0-6.85-0.85,0.0,94.0,,,,,,,[],,,,,,73.6,0.0,u,0.0,True,579.5,35.0,60.0,40.0,False,,298.0144106353085,[],"[960, 540]",ColorTask,62.0,86.0,,,HRV,HRV_0271,2022-11-30 20:19:45
,wl-rdm,94,268574,0.0-6.86-0.86,0.0,95.0,,,,,,,[],,,,,,62.5,1.0,i,1.0,True,1310.0000000018626,79.0,60.0,40.0,False,,259.278842119106,[],"[960, 540]",ColorTask,63.0,87.0,,,HRV,HRV_0271,2022-11-30 20:19:45
,wl-rdm,95,270673,0.0-6.87-0.87,0.0,96.0,,,,,,,[],,,,,,53.2,1.0,u,0.0,False,780.0,47.0,60.0,40.0,False,,241.11719704133492,[],"[960, 540]",ColorTask,62.0,88.0,,,HRV,HRV_0271,2022-11-30 20:19:45
,wl-rdm,96,273172,0.0-6.88-0.88,0.0,97.0,,,,,,,[],,,,,,73.6,1.0,i,1.0,True,1113.5,67.0,60.0,40.0,False,,300.2085695122383,[],"[960, 540]",ColorTask,63.0,89.0,,,HRV,HRV_0271,2022-11-30 20:19:45
,wl-rdm,97,275071,0.0-6.89-0.89,0.0,98.0,,,,,,,[],,,,,,87.9,1.0,i,1.0,True,541.4000000022352,33.0,60.0,40.0,False,,268.63866904258657,[],"[960, 540]",ColorTask,64.0,90.0,,,HRV,HRV_0271,2022-11-30 20:19:45
,wl-rdm,98,277071,0.0-6.90-0.90,0.0,99.0,,,,,,,[],,,,,,62.5,0.0,u,0.0,True,616.1999999992549,37.0,60.0,40.0,False,,300.0555713614759,[],"[960, 540]",ColorTask,65.0,91.0,,,HRV,HRV_0271,2022-11-30 20:19:45
,wl-rdm,99,279020,0.0-6.91-0.91,0.0,100.0,,,,,,,[],,,,,,87.9,0.0,u,0.0,True,565.8999999985099,34.0,60.0,40.0,False,,331.08215641513857,[],"[960, 540]",ColorTask,66.0,92.0,,,HRV,HRV_0271,2022-11-30 20:19:45
,wl-rdm,100,280953,0.0-6.92-0.92,0.0,101.0,,,,,,,[],,,,,,73.6,1.0,i,1.0,True,512.1999999992549,31.0,60.0,40.0,False,,354.73588488183697,[],"[960, 540]",ColorTask,67.0,93.0,,,HRV,HRV_0271,2022-11-30 20:19:45
,wl-rdm,101,283552,0.0-6.93-0.93,0.0,102.0,,,,,,,[],,,,,,56.4,1.0,i,1.0,True,1178.699999999255,71.0,60.0,40.0,False,,344.6220510969196,[],"[960, 540]",ColorTask,68.0,94.0,,,HRV,HRV_0271,2022-11-30 20:19:45
,wl-rdm,102,285518,0.0-6.94-0.94,0.0,103.0,,,,,,,[],,,,,,56.4,0.0,u,0.0,True,676.9000000003725,41.0,60.0,40.0,False,,201.3359303199237,[],"[960, 540]",ColorTask,69.0,95.0,,,HRV,HRV_0271,2022-11-30 20:19:45
,wl-rdm,103,287851,0.0-6.95-0.95,0.0,104.0,,,,,,,[],,,,,,62.5,1.0,i,1.0,True,987.1999999992549,60.0,60.0,40.0,False,,256.6869862120912,[],"[960, 540]",ColorTask,70.0,96.0,,,HRV,HRV_0271,2022-11-30 20:19:45
,wl-rdm,104,289750,0.0-6.96-0.96,0.0,105.0,,,,,,,[],,,,,,56.4,0.0,u,0.0,True,570.0999999996275,35.0,60.0,40.0,False,,238.21069828522576,[],"[960, 540]",ColorTask,71.0,97.0,,,HRV,HRV_0271,2022-11-30 20:19:45
,wl-rdm,105,291650,0.0-6.97-0.97,0.0,106.0,,,,,,,[],,,,,,62.5,0.0,u,0.0,True,569.2000000011176,35.0,60.0,40.0,False,,244.7465160000033,[],"[960, 540]",ColorTask,72.0,98.0,,,HRV,HRV_0271,2022-11-30 20:19:45
,wl-rdm,106,293532,0.0-6.98-0.98,0.0,107.0,,,,,,,[],,,,,,73.6,0.0,u,0.0,True,520.2999999988824,32.0,60.0,40.0,False,,268.0239435174961,[],"[960, 540]",ColorTask,73.0,99.0,,,HRV,HRV_0271,2022-11-30 20:19:45
,wl-rdm,107,295448,0.0-6.99-0.99,0.0,108.0,,,,,,,[],,,,,,87.9,1.0,i,1.0,True,576.8999999985099,35.0,60.0,40.0,False,,252.88299326527968,[],"[960, 540]",ColorTask,74.0,100.0,,,HRV,HRV_0271,2022-11-30 20:19:45
,wl-rdm,108,297931,0.0-6.100-0.100,0.0,109.0,,,,,,,[],,,,,,56.4,1.0,u,0.0,False,1120.6000000014901,68.0,60.0,40.0,False,,296.4978248756869,[],"[960, 540]",ColorTask,73.0,101.0,,,HRV,HRV_0271,2022-11-30 20:19:45
,wl-rdm,109,299947,0.0-6.101-0.101,0.0,110.0,,,,,,,[],,,,,,62.5,0.0,i,1.0,False,667.5,41.0,60.0,40.0,False,,265.13939438844255,[],"[960, 540]",ColorTask,72.0,102.0,,,HRV,HRV_0271,2022-11-30 20:19:45
,wl-rdm,110,302180,0.0-6.102-0.102,0.0,111.0,,,,,,,[],,,,,,56.4,0.0,i,1.0,False,926.0999999996275,56.0,60.0,40.0,False,,225.99789358911778,[],"[960, 540]",ColorTask,71.0,103.0,,,HRV,HRV_0271,2022-11-30 20:19:45
,wl-rdm,111,304362,0.0-6.103-0.103,0.0,112.0,,,,,,,[],,,,,,62.5,0.0,u,0.0,True,749.7000000011176,45.0,60.0,40.0,False,,355.02861681169475,[],"[960, 540]",ColorTask,72.0,104.0,,,HRV,HRV_0271,2022-11-30 20:19:45
,wl-rdm,112,306262,0.0-6.104-0.104,0.0,113.0,,,,,,,[],,,,,,73.6,0.0,u,0.0,True,598.1000000014901,36.0,60.0,40.0,False,,235.3521481578959,[],"[960, 540]",ColorTask,73.0,105.0,,,HRV,HRV_0271,2022-11-30 20:19:45
,wl-rdm,113,308228,0.0-6.105-0.105,0.0,114.0,,,,,,,[],,,,,,73.6,1.0,i,1.0,True,631.0,38.0,60.0,40.0,False,,270.197065988185,[],"[960, 540]",ColorTask,74.0,106.0,,,HRV,HRV_0271,2022-11-30 20:19:45
,wl-rdm,114,310743,0.0-6.106-0.106,0.0,115.0,,,,,,,[],,,,,,50.0,1.0,i,1.0,True,1103.1000000014901,67.0,60.0,40.0,False,,318.78768493272327,[],"[960, 540]",ColorTask,75.0,107.0,,,HRV,HRV_0271,2022-11-30 20:19:45
,wl-rdm,115,312676,0.0-6.107-0.107,0.0,116.0,,,,,,,[],,,,,,87.9,1.0,i,1.0,True,613.0,37.0,60.0,40.0,False,,244.714267751301,[],"[960, 540]",ColorTask,76.0,108.0,,,HRV,HRV_0271,2022-11-30 20:19:45
,wl-html-keyboard-response,116,323191,0.0-7.0-0.0,1.0,117.0,,,,,,,,8508.800000000745,1.0,0,,,,,,,,,,,,,,,,,,,,,,HRV,HRV_0271,2022-11-30 20:19:45
,wl-rdm,117,325139,0.0-8.0-0.0,1.0,118.0,,,,,,,[],,,,,,56.4,1.0,i,1.0,True,574.1999999992549,35.0,60.0,40.0,False,,296.77182241690355,[],"[960, 540]",ColorTask,77.0,1.0,,,HRV,HRV_0271,2022-11-30 20:19:45
,wl-rdm,118,327972,0.0-8.1-0.1,1.0,119.0,,,,,,,[],,,,,,50.0,0.0,i,1.0,False,1526.6000000014901,92.0,60.0,40.0,False,,227.20666027099472,[],"[960, 540]",ColorTask,76.0,2.0,,,HRV,HRV_0271,2022-11-30 20:19:45
,wl-rdm,119,331204,0.0-8.2-0.2,1.0,120.0,,,,,,,[],,,,,,56.4,1.0,i,1.0,True,1896.9000000003725,114.0,60.0,40.0,False,,253.42505400948494,[],"[960, 540]",ColorTask,77.0,3.0,,,HRV,HRV_0271,2022-11-30 20:19:45
,wl-rdm,120,333437,0.0-8.3-0.3,1.0,121.0,,,,,,,[],,,,,,53.2,1.0,i,1.0,True,950.0000000018626,57.0,60.0,40.0,False,,223.67387237815066,[],"[960, 540]",ColorTask,78.0,4.0,,,HRV,HRV_0271,2022-11-30 20:19:45
,wl-rdm,121,335637,0.0-8.4-0.4,1.0,122.0,,,,,,,[],,,,,,53.2,1.0,i,1.0,True,876.0,53.0,60.0,40.0,False,,264.2482027937662,[],"[960, 540]",ColorTask,79.0,5.0,,,HRV,HRV_0271,2022-11-30 20:19:45
,wl-rdm,122,337769,0.0-8.5-0.5,1.0,123.0,,,,,,,[],,,,,,50.0,1.0,i,1.0,True,786.7999999988824,48.0,60.0,40.0,False,,266.5469606430642,[],"[960, 540]",ColorTask,80.0,6.0,,,HRV,HRV_0271,2022-11-30 20:19:45
,wl-rdm,123,340168,0.0-8.6-0.6,1.0,124.0,,,,,,,[],,,,,,56.4,1.0,i,1.0,True,1064.7000000029802,64.0,60.0,40.0,False,,261.7382982163625,[],"[960, 540]",ColorTask,81.0,7.0,,,HRV,HRV_0271,2022-11-30 20:19:45
,wl-rdm,124,343867,0.0-8.7-0.7,1.0,125.0,,,,,,,[],,,,,,50.0,1.0,i,1.0,True,2280.199999999255,137.0,60.0,40.0,False,,339.4702460543905,[],"[960, 540]",ColorTask,82.0,8.0,,,HRV,HRV_0271,2022-11-30 20:19:45
,wl-rdm,125,346916,0.0-8.8-0.8,1.0,126.0,,,,,,,[],,,,,,53.2,1.0,u,0.0,False,1758.5,106.0,60.0,40.0,False,,207.81308063696213,[],"[960, 540]",ColorTask,81.0,9.0,,,HRV,HRV_0271,2022-11-30 20:19:45
,wl-rdm,126,349332,0.0-8.9-0.9,1.0,127.0,,,,,,,[],,,,,,87.9,1.0,i,1.0,True,995.7999999988824,60.0,60.0,40.0,False,,334.65886545695025,[],"[960, 540]",ColorTask,82.0,10.0,,,HRV,HRV_0271,2022-11-30 20:19:45
,wl-rdm,127,351514,0.0-8.10-0.10,1.0,128.0,,,,,,,[],,,,,,73.6,0.0,u,0.0,True,710.9000000003725,43.0,60.0,40.0,False,,397.5603530461152,[],"[960, 540]",ColorTask,83.0,11.0,,,HRV,HRV_0271,2022-11-30 20:19:45
,wl-rdm,128,353747,0.0-8.11-0.11,1.0,129.0,,,,,,,[],,,,,,73.6,1.0,i,1.0,True,842.0,51.0,60.0,40.0,False,,301.26186995111243,[],"[960, 540]",ColorTask,84.0,12.0,,,HRV,HRV_0271,2022-11-30 20:19:45
,wl-rdm,129,357363,0.0-8.12-0.12,1.0,130.0,,,,,,,[],,,,,,62.5,1.0,i,1.0,True,2243.4000000003725,135.0,60.0,40.0,False,,304.3212020412846,[],"[960, 540]",ColorTask,85.0,13.0,,,HRV,HRV_0271,2022-11-30 20:19:45
,wl-rdm,130,361228,0.0-8.13-0.13,1.0,131.0,,,,,,,[],,,,,,56.4,1.0,i,1.0,True,2515.7000000011176,151.0,60.0,40.0,False,,271.3328212821617,[],"[960, 540]",ColorTask,86.0,14.0,,,HRV,HRV_0271,2022-11-30 20:19:45
,wl-rdm,131,363794,0.0-8.14-0.14,1.0,132.0,,,,,,,[],,,,,,73.6,1.0,i,1.0,True,1205.9000000003725,73.0,60.0,40.0,False,,281.69899916278706,[],"[960, 540]",ColorTask,87.0,15.0,,,HRV,HRV_0271,2022-11-30 20:19:45
,wl-rdm,132,366577,0.0-8.15-0.15,1.0,133.0,,,,,,,[],,,,,,53.2,0.0,u,0.0,True,1349.7000000011176,81.0,60.0,40.0,False,,350.05210511935627,[],"[960, 540]",ColorTask,88.0,16.0,,,HRV,HRV_0271,2022-11-30 20:19:45
,wl-rdm,133,368742,0.0-8.16-0.16,1.0,134.0,,,,,,,[],,,,,,62.5,1.0,i,1.0,True,809.3000000007451,49.0,60.0,40.0,False,,280.06530999506356,[],"[960, 540]",ColorTask,89.0,17.0,,,HRV,HRV_0271,2022-11-30 20:19:45
,wl-rdm,134,373125,0.0-8.17-0.17,1.0,134.0,,,,,,,[],,,,,,53.2,0.0,i,,,3319.400000002235,179.0,60.0,40.0,True,RT_timeout ,291.2646971366397,[],"[960, 540]",ColorTask,88.0,18.0,,,HRV,HRV_0271,2022-11-30 20:19:45
,wl-rdm,135,375307,0.0-8.18-0.18,1.0,135.0,,,,,,,[],,,,,,73.6,0.0,u,0.0,True,870.3000000007451,53.0,60.0,40.0,False,,230.31448776853574,[],"[960, 540]",ColorTask,89.0,19.0,,,HRV,HRV_0271,2022-11-30 20:19:45
,wl-rdm,136,377357,0.0-8.19-0.19,1.0,136.0,,,,,,,[],,,,,,56.4,1.0,i,1.0,True,686.0999999996275,42.0,60.0,40.0,False,,286.45500650908326,[],"[960, 540]",ColorTask,90.0,20.0,,,HRV,HRV_0271,2022-11-30 20:19:45
,wl-rdm,137,379755,0.0-8.20-0.20,1.0,137.0,,,,,,,[],,,,,,53.2,1.0,i,1.0,True,1059.5999999996275,64.0,60.0,40.0,False,,262.2938060424008,[],"[960, 540]",ColorTask,91.0,21.0,,,HRV,HRV_0271,2022-11-30 20:19:45
,wl-rdm,138,382305,0.0-8.21-0.21,1.0,138.0,,,,,,,[],,,,,,53.2,0.0,i,1.0,False,1204.4000000003725,73.0,60.0,40.0,False,,266.1230837964857,[],"[960, 540]",ColorTask,90.0,22.0,,,HRV,HRV_0271,2022-11-30 20:19:45
,wl-rdm,139,384837,0.0-8.22-0.22,1.0,139.0,,,,,,,[],,,,,,50.0,0.0,u,0.0,True,1079.5,65.0,60.0,40.0,False,,369.9058175431056,[],"[960, 540]",ColorTask,91.0,23.0,,,HRV,HRV_0271,2022-11-30 20:19:45
,wl-rdm,140,387387,0.0-8.23-0.23,1.0,140.0,,,,,,,[],,,,,,73.6,0.0,u,0.0,True,1201.5,73.0,60.0,40.0,False,,259.14873026611446,[],"[960, 540]",ColorTask,92.0,24.0,,,HRV,HRV_0271,2022-11-30 20:19:45
,wl-rdm,141,389785,0.0-8.24-0.24,1.0,141.0,,,,,,,[],,,,,,62.5,0.0,u,0.0,True,1040.1000000014901,63.0,60.0,40.0,False,,279.5829466740961,[],"[960, 540]",ColorTask,93.0,25.0,,,HRV,HRV_0271,2022-11-30 20:19:45
,wl-rdm,142,392151,0.0-8.25-0.25,1.0,142.0,,,,,,,[],,,,,,50.0,1.0,i,1.0,True,1081.5999999996275,65.0,60.0,40.0,False,,201.39985907863846,[],"[960, 540]",ColorTask,94.0,26.0,,,HRV,HRV_0271,2022-11-30 20:19:45
,wl-rdm,143,394267,0.0-8.26-0.26,1.0,143.0,,,,,,,[],,,,,,87.9,1.0,i,1.0,True,781.0000000018626,47.0,60.0,40.0,False,,270.2573072923976,[],"[960, 540]",ColorTask,95.0,27.0,,,HRV,HRV_0271,2022-11-30 20:19:45
,wl-rdm,144,396883,0.0-8.27-0.27,1.0,144.0,,,,,,,[],,,,,,50.0,0.0,u,0.0,True,1136.800000000745,69.0,60.0,40.0,False,,386.9092181891514,[],"[960, 540]",ColorTask,96.0,28.0,,,HRV,HRV_0271,2022-11-30 20:19:45
,wl-rdm,145,398866,0.0-8.28-0.28,1.0,145.0,,,,,,,[],,,,,,87.9,0.0,u,0.0,True,605.2000000011176,37.0,60.0,40.0,False,,294.2634547350553,[],"[960, 540]",ColorTask,97.0,29.0,,,HRV,HRV_0271,2022-11-30 20:19:45
,wl-rdm,146,401548,0.0-8.29-0.29,1.0,146.0,,,,,,,[],,,,,,53.2,0.0,u,0.0,True,1387.2999999988824,84.0,60.0,40.0,False,,215.3729663744951,[],"[960, 540]",ColorTask,98.0,30.0,,,HRV,HRV_0271,2022-11-30 20:19:45
,wl-rdm,147,403747,0.0-8.30-0.30,1.0,147.0,,,,,,,[],,,,,,56.4,0.0,u,0.0,True,903.0,55.0,60.0,40.0,False,,214.82286644673079,[],"[960, 540]",ColorTask,99.0,31.0,,,HRV,HRV_0271,2022-11-30 20:19:45
,wl-rdm,148,405830,0.0-8.31-0.31,1.0,148.0,,,,,,,[],,,,,,87.9,0.0,u,0.0,True,644.7000000011176,39.0,60.0,40.0,False,,353.9163263895256,[],"[960, 540]",ColorTask,100.0,32.0,,,HRV,HRV_0271,2022-11-30 20:19:45
,wl-rdm,149,408213,0.0-8.32-0.32,1.0,149.0,,,,,,,[],,,,,,62.5,0.0,i,1.0,False,920.2000000011176,56.0,60.0,40.0,False,,379.8326517797366,[],"[960, 540]",ColorTask,99.0,33.0,,,HRV,HRV_0271,2022-11-30 20:19:45
,wl-rdm,150,410829,0.0-8.33-0.33,1.0,150.0,,,,,,,[],,,,,,50.0,0.0,u,0.0,True,1319.9000000003725,80.0,60.0,40.0,False,,206.42722286032745,[],"[960, 540]",ColorTask,100.0,34.0,,,HRV,HRV_0271,2022-11-30 20:19:45
,wl-rdm,151,413645,0.0-8.34-0.34,1.0,151.0,,,,,,,[],,,,,,56.4,0.0,i,1.0,False,1426.300000000745,86.0,60.0,40.0,False,,320.7805356374125,[],"[960, 540]",ColorTask,99.0,35.0,,,HRV,HRV_0271,2022-11-30 20:19:45
,wl-rdm,152,415677,0.0-8.35-0.35,1.0,152.0,,,,,,,[],,,,,,73.6,0.0,u,0.0,True,639.8000000007451,39.0,60.0,40.0,False,,331.5028093107686,[],"[960, 540]",ColorTask,100.0,36.0,,,HRV,HRV_0271,2022-11-30 20:19:45
,wl-rdm,153,417727,0.0-8.36-0.36,1.0,153.0,,,,,,,[],,,,,,87.9,1.0,i,1.0,True,725.8000000007451,44.0,60.0,40.0,False,,245.5266744732969,[],"[960, 540]",ColorTask,101.0,37.0,,,HRV,HRV_0271,2022-11-30 20:19:45
,wl-rdm,154,420642,0.0-8.37-0.37,1.0,154.0,,,,,,,[],,,,,,62.5,1.0,u,0.0,False,1446.199999999255,87.0,60.0,40.0,False,,396.8392136045955,[],"[960, 540]",ColorTask,100.0,38.0,,,HRV,HRV_0271,2022-11-30 20:19:45
,wl-rdm,155,423142,0.0-8.38-0.38,1.0,155.0,,,,,,,[],,,,,,56.4,1.0,u,0.0,False,1186.2000000011176,72.0,60.0,40.0,False,,229.88001404544772,[],"[960, 540]",ColorTask,99.0,39.0,,,HRV,HRV_0271,2022-11-30 20:19:45
,wl-rdm,156,425141,0.0-8.39-0.39,1.0,156.0,,,,,,,[],,,,,,50.0,0.0,i,1.0,False,714.0,43.0,60.0,40.0,False,,211.07747215984097,[],"[960, 540]",ColorTask,98.0,40.0,,,HRV,HRV_0271,2022-11-30 20:19:45
,wl-rdm,157,427224,0.0-8.40-0.40,1.0,157.0,,,,,,,[],,,,,,73.6,0.0,u,0.0,True,792.2000000011176,48.0,60.0,40.0,False,,216.68045859583754,[],"[960, 540]",ColorTask,99.0,41.0,,,HRV,HRV_0271,2022-11-30 20:19:45
,wl-rdm,158,429873,0.0-8.41-0.41,1.0,158.0,,,,,,,[],,,,,,53.2,1.0,i,1.0,True,1271.9000000003725,77.0,60.0,40.0,False,,286.83317141091555,[],"[960, 540]",ColorTask,100.0,42.0,,,HRV,HRV_0271,2022-11-30 20:19:45
,wl-rdm,159,431922,0.0-8.42-0.42,1.0,159.0,,,,,,,[],,,,,,87.9,1.0,i,1.0,True,636.3000000007451,39.0,60.0,40.0,False,,330.5049513256131,[],"[960, 540]",ColorTask,101.0,43.0,,,HRV,HRV_0271,2022-11-30 20:19:45
,wl-rdm,160,433955,0.0-8.43-0.43,1.0,160.0,,,,,,,[],,,,,,62.5,0.0,u,0.0,True,601.6999999992549,37.0,60.0,40.0,False,,344.1109737062676,[],"[960, 540]",ColorTask,102.0,44.0,,,HRV,HRV_0271,2022-11-30 20:19:45
,wl-rdm,161,435871,0.0-8.44-0.44,1.0,161.0,,,,,,,[],,,,,,87.9,0.0,u,0.0,True,586.5999999996275,36.0,60.0,40.0,False,,243.00161007013517,[],"[960, 540]",ColorTask,103.0,45.0,,,HRV,HRV_0271,2022-11-30 20:19:45
,wl-rdm,162,438037,0.0-8.45-0.45,1.0,162.0,,,,,,,[],,,,,,73.6,1.0,u,0.0,False,879.8999999985099,53.0,60.0,40.0,False,,220.68573403851593,[],"[960, 540]",ColorTask,102.0,46.0,,,HRV,HRV_0271,2022-11-30 20:19:45
,wl-rdm,163,440653,0.0-8.46-0.46,1.0,163.0,,,,,,,[],,,,,,87.9,0.0,u,0.0,True,1175.199999999255,71.0,60.0,40.0,False,,379.05564667692596,[],"[960, 540]",ColorTask,103.0,47.0,,,HRV,HRV_0271,2022-11-30 20:19:45
,wl-rdm,164,442719,0.0-8.47-0.47,1.0,164.0,,,,,,,[],,,,,,62.5,1.0,i,1.0,True,611.1999999992549,37.0,60.0,40.0,False,,371.7515899653641,[],"[960, 540]",ColorTask,104.0,48.0,,,HRV,HRV_0271,2022-11-30 20:19:45
,wl-rdm,165,444735,0.0-8.48-0.48,1.0,165.0,,,,,,,[],,,,,,56.4,0.0,u,0.0,True,589.8999999985099,36.0,60.0,40.0,False,,347.04980892891365,[],"[960, 540]",ColorTask,105.0,49.0,,,HRV,HRV_0271,2022-11-30 20:19:45
,wl-rdm,166,447268,0.0-8.49-0.49,1.0,166.0,,,,,,,[],,,,,,50.0,1.0,i,1.0,True,1220.5999999996275,74.0,60.0,40.0,False,,228.52915206378563,[],"[960, 540]",ColorTask,106.0,50.0,,,HRV,HRV_0271,2022-11-30 20:19:45
,wl-rdm,167,449684,0.0-8.50-0.50,1.0,167.0,,,,,,,[],,,,,,73.6,1.0,i,1.0,True,1032.7000000011176,62.0,60.0,40.0,False,,309.0961496133126,[],"[960, 540]",ColorTask,107.0,51.0,,,HRV,HRV_0271,2022-11-30 20:19:45
,wl-rdm,168,451716,0.0-8.51-0.51,1.0,168.0,,,,,,,[],,,,,,87.9,0.0,u,0.0,True,608.7000000011176,37.0,60.0,40.0,False,,340.6654282480192,[],"[960, 540]",ColorTask,108.0,52.0,,,HRV,HRV_0271,2022-11-30 20:19:45
,wl-rdm,169,454033,0.0-8.52-0.52,1.0,169.0,,,,,,,[],,,,,,73.6,0.0,u,0.0,True,1018.5999999996275,62.0,60.0,40.0,False,,215.92683701549728,[],"[960, 540]",ColorTask,109.0,53.0,,,HRV,HRV_0271,2022-11-30 20:19:45
,wl-rdm,170,455998,0.0-8.53-0.53,1.0,170.0,,,,,,,[],,,,,,73.6,1.0,i,1.0,True,652.2000000011176,40.0,60.0,40.0,False,,219.81363540916027,[],"[960, 540]",ColorTask,110.0,54.0,,,HRV,HRV_0271,2022-11-30 20:19:45
,wl-rdm,171,458881,0.0-8.54-0.54,1.0,171.0,,,,,,,[],,,,,,50.0,0.0,u,0.0,True,1435.5,87.0,60.0,40.0,False,,365.0663773721061,[],"[960, 540]",ColorTask,111.0,55.0,,,HRV,HRV_0271,2022-11-30 20:19:45
,wl-rdm,172,461280,0.0-8.55-0.55,1.0,172.0,,,,,,,[],,,,,,56.4,0.0,u,0.0,True,1106.5,67.0,60.0,40.0,False,,228.47650525242062,[],"[960, 540]",ColorTask,112.0,56.0,,,HRV,HRV_0271,2022-11-30 20:19:45
,wl-rdm,173,463796,0.0-8.56-0.56,1.0,173.0,,,,,,,[],,,,,,62.5,0.0,u,0.0,True,1062.300000000745,64.0,60.0,40.0,False,,384.27519177819966,[],"[960, 540]",ColorTask,113.0,57.0,,,HRV,HRV_0271,2022-11-30 20:19:45
,wl-rdm,174,465829,0.0-8.57-0.57,1.0,174.0,,,,,,,[],,,,,,73.6,1.0,i,1.0,True,709.7000000011176,43.0,60.0,40.0,False,,244.80264446549597,[],"[960, 540]",ColorTask,114.0,58.0,,,HRV,HRV_0271,2022-11-30 20:19:45
,wl-rdm,175,467962,0.0-8.58-0.58,1.0,175.0,,,,,,,[],,,,,,56.4,0.0,u,0.0,True,814.0999999996275,49.0,60.0,40.0,False,,250.40426183916745,[],"[960, 540]",ColorTask,115.0,59.0,,,HRV,HRV_0271,2022-11-30 20:19:45
,wl-rdm,176,470111,0.0-8.59-0.59,1.0,176.0,,,,,,,[],,,,,,53.2,1.0,u,0.0,False,785.5999999996275,48.0,60.0,40.0,False,,272.2384500194581,[],"[960, 540]",ColorTask,114.0,60.0,,,HRV,HRV_0271,2022-11-30 20:19:45
,wl-rdm,177,472344,0.0-8.60-0.60,1.0,177.0,,,,,,,[],,,,,,87.9,1.0,i,1.0,True,936.5,57.0,60.0,40.0,False,,208.0837576544861,[],"[960, 540]",ColorTask,115.0,61.0,,,HRV,HRV_0271,2022-11-30 20:19:45
,wl-rdm,178,474426,0.0-8.61-0.61,1.0,178.0,,,,,,,[],,,,,,62.5,0.0,u,0.0,True,753.5999999996275,46.0,60.0,40.0,False,,250.10670618601387,[],"[960, 540]",ColorTask,116.0,62.0,,,HRV,HRV_0271,2022-11-30 20:19:45
,wl-rdm,179,476892,0.0-8.62-0.62,1.0,179.0,,,,,,,[],,,,,,87.9,1.0,i,1.0,True,1055.0,64.0,60.0,40.0,False,,338.5794919868946,[],"[960, 540]",ColorTask,117.0,63.0,,,HRV,HRV_0271,2022-11-30 20:19:45
,wl-rdm,180,479025,0.0-8.63-0.63,1.0,180.0,,,,,,,[],,,,,,62.5,0.0,u,0.0,True,669.0999999996275,41.0,60.0,40.0,False,,378.22555466829294,[],"[960, 540]",ColorTask,118.0,64.0,,,HRV,HRV_0271,2022-11-30 20:19:45
,wl-rdm,181,481358,0.0-8.64-0.64,1.0,181.0,,,,,,,[],,,,,,53.2,1.0,i,1.0,True,1044.9000000003725,63.0,60.0,40.0,False,,203.60063378222154,[],"[960, 540]",ColorTask,119.0,65.0,,,HRV,HRV_0271,2022-11-30 20:19:45
,wl-rdm,182,484123,0.0-8.65-0.65,1.0,182.0,,,,,,,[],,,,,,56.4,0.0,u,0.0,True,1352.4000000003725,82.0,60.0,40.0,False,,326.67190550499004,[],"[960, 540]",ColorTask,120.0,66.0,,,HRV,HRV_0271,2022-11-30 20:19:45
,wl-rdm,183,486107,0.0-8.66-0.66,1.0,183.0,,,,,,,[],,,,,,87.9,1.0,i,1.0,True,677.4000000003725,41.0,60.0,40.0,False,,217.0025385000415,[],"[960, 540]",ColorTask,121.0,67.0,,,HRV,HRV_0271,2022-11-30 20:19:45
,wl-rdm,184,488505,0.0-8.67-0.67,1.0,184.0,,,,,,,[],,,,,,53.2,0.0,i,1.0,False,981.7999999988824,59.0,60.0,40.0,False,,345.5457082908637,[],"[960, 540]",ColorTask,120.0,68.0,,,HRV,HRV_0271,2022-11-30 20:19:45
,wl-rdm,185,490488,0.0-8.68-0.68,1.0,185.0,,,,,,,[],,,,,,73.6,0.0,u,0.0,True,682.2999999988824,41.0,60.0,40.0,False,,226.82765368391475,[],"[960, 540]",ColorTask,121.0,69.0,,,HRV,HRV_0271,2022-11-30 20:19:45
,wl-rdm,186,492554,0.0-8.69-0.69,1.0,186.0,,,,,,,[],,,,,,73.6,1.0,i,1.0,True,778.6999999992549,47.0,60.0,40.0,False,,229.0223932514801,[],"[960, 540]",ColorTask,122.0,70.0,,,HRV,HRV_0271,2022-11-30 20:19:45
,wl-rdm,187,494787,0.0-8.70-0.70,1.0,187.0,,,,,,,[],,,,,,53.2,0.0,u,0.0,True,958.9000000003725,58.0,60.0,40.0,False,,212.0384041728709,[],"[960, 540]",ColorTask,123.0,71.0,,,HRV,HRV_0271,2022-11-30 20:19:45
,wl-rdm,188,497286,0.0-8.71-0.71,1.0,188.0,,,,,,,[],,,,,,53.2,0.0,u,0.0,True,1052.0999999996275,64.0,60.0,40.0,False,,353.5105756244757,[],"[960, 540]",ColorTask,124.0,72.0,,,HRV,HRV_0271,2022-11-30 20:19:45
,wl-rdm,189,499435,0.0-8.72-0.72,1.0,189.0,,,,,,,[],,,,,,56.4,1.0,i,1.0,True,824.6000000014901,50.0,60.0,40.0,False,,239.19985134584158,[],"[960, 540]",ColorTask,125.0,73.0,,,HRV,HRV_0271,2022-11-30 20:19:45
,wl-rdm,190,501718,0.0-8.73-0.73,1.0,190.0,,,,,,,[],,,,,,50.0,0.0,u,0.0,True,921.5999999996275,56.0,60.0,40.0,False,,270.2214937797887,[],"[960, 540]",ColorTask,126.0,74.0,,,HRV,HRV_0271,2022-11-30 20:19:45
,wl-rdm,191,504200,0.0-8.74-0.74,1.0,191.0,,,,,,,[],,,,,,62.5,0.0,u,0.0,True,1113.800000000745,67.0,60.0,40.0,False,,298.96764213301475,[],"[960, 540]",ColorTask,127.0,75.0,,,HRV,HRV_0271,2022-11-30 20:19:45
,wl-rdm,192,506233,0.0-8.75-0.75,1.0,192.0,,,,,,,[],,,,,,87.9,0.0,u,0.0,True,734.3000000007451,45.0,60.0,40.0,False,,207.7977871623436,[],"[960, 540]",ColorTask,128.0,76.0,,,HRV,HRV_0271,2022-11-30 20:19:45
,wl-rdm,193,508316,0.0-8.76-0.76,1.0,193.0,,,,,,,[],,,,,,62.5,0.0,u,0.0,True,738.1999999992549,45.0,60.0,40.0,False,,277.02189573739236,[],"[960, 540]",ColorTask,129.0,77.0,,,HRV,HRV_0271,2022-11-30 20:19:45
,wl-rdm,194,511281,0.0-8.77-0.77,1.0,194.0,,,,,,,[],,,,,,53.2,0.0,u,0.0,True,1610.0,97.0,60.0,40.0,False,,290.3974200229485,[],"[960, 540]",ColorTask,130.0,78.0,,,HRV,HRV_0271,2022-11-30 20:19:45
,wl-rdm,195,513197,0.0-8.78-0.78,1.0,195.0,,,,,,,[],,,,,,87.9,0.0,u,0.0,True,592.9000000003725,36.0,60.0,40.0,False,,240.89396780646726,[],"[960, 540]",ColorTask,131.0,79.0,,,HRV,HRV_0271,2022-11-30 20:19:45
,wl-rdm,196,515263,0.0-8.79-0.79,1.0,196.0,,,,,,,[],,,,,,62.5,1.0,i,1.0,True,688.5999999996275,42.0,60.0,40.0,False,,289.9734093680859,[],"[960, 540]",ColorTask,132.0,80.0,,,HRV,HRV_0271,2022-11-30 20:19:45
,wl-rdm,197,517796,0.0-8.80-0.80,1.0,197.0,,,,,,,[],,,,,,50.0,1.0,u,0.0,False,1187.0999999996275,72.0,60.0,40.0,False,,252.26349483930284,[],"[960, 540]",ColorTask,131.0,81.0,,,HRV,HRV_0271,2022-11-30 20:19:45
,wl-rdm,198,519995,0.0-8.81-0.81,1.0,198.0,,,,,,,[],,,,,,56.4,0.0,u,0.0,True,890.3000000007451,54.0,60.0,40.0,False,,228.13928577270252,[],"[960, 540]",ColorTask,132.0,82.0,,,HRV,HRV_0271,2022-11-30 20:19:45
,wl-rdm,199,522428,0.0-8.82-0.82,1.0,199.0,,,,,,,[],,,,,,50.0,0.0,i,1.0,False,1157.300000000745,70.0,60.0,40.0,False,,214.2501886294853,[],"[960, 540]",ColorTask,131.0,83.0,,,HRV,HRV_0271,2022-11-30 20:19:45
,wl-rdm,200,524644,0.0-8.83-0.83,1.0,200.0,,,,,,,[],,,,,,73.6,1.0,i,1.0,True,757.1999999992549,46.0,60.0,40.0,False,,384.2469631255864,[],"[960, 540]",ColorTask,132.0,84.0,,,HRV,HRV_0271,2022-11-30 20:19:45
,wl-rdm,201,526743,0.0-8.84-0.84,1.0,201.0,,,,,,,[],,,,,,73.6,0.0,u,0.0,True,814.2000000011176,49.0,60.0,40.0,False,,201.23112296257926,[],"[960, 540]",ColorTask,133.0,85.0,,,HRV,HRV_0271,2022-11-30 20:19:45
,wl-rdm,202,528826,0.0-8.85-0.85,1.0,202.0,,,,,,,[],,,,,,62.5,0.0,u,0.0,True,653.8999999985099,40.0,60.0,40.0,False,,343.15735866283075,[],"[960, 540]",ColorTask,134.0,86.0,,,HRV,HRV_0271,2022-11-30 20:19:45
,wl-rdm,203,531158,0.0-8.86-0.86,1.0,203.0,,,,,,,[],,,,,,56.4,1.0,i,1.0,True,869.8000000007451,53.0,60.0,40.0,False,,372.4988059954939,[],"[960, 540]",ColorTask,135.0,87.0,,,HRV,HRV_0271,2022-11-30 20:19:45
,wl-rdm,204,533341,0.0-8.87-0.87,1.0,204.0,,,,,,,[],,,,,,50.0,1.0,u,0.0,False,882.7999999988824,53.0,60.0,40.0,False,,227.72231334815964,[],"[960, 540]",ColorTask,134.0,88.0,,,HRV,HRV_0271,2022-11-30 20:19:45
,wl-rdm,205,535607,0.0-8.88-0.88,1.0,205.0,,,,,,,[],,,,,,53.2,1.0,i,1.0,True,979.0,59.0,60.0,40.0,False,,215.94654479824487,[],"[960, 540]",ColorTask,135.0,89.0,,,HRV,HRV_0271,2022-11-30 20:19:45
,wl-rdm,206,537956,0.0-8.89-0.89,1.0,206.0,,,,,,,[],,,,,,56.4,1.0,i,1.0,True,989.1999999992549,60.0,60.0,40.0,False,,269.88814124020047,[],"[960, 540]",ColorTask,136.0,90.0,,,HRV,HRV_0271,2022-11-30 20:19:45
,wl-rdm,207,540172,0.0-8.90-0.90,1.0,207.0,,,,,,,[],,,,,,62.5,1.0,i,1.0,True,782.1999999992549,47.0,60.0,40.0,False,,381.9708636815378,[],"[960, 540]",ColorTask,137.0,91.0,,,HRV,HRV_0271,2022-11-30 20:19:45
,wl-rdm,208,542138,0.0-8.91-0.91,1.0,208.0,,,,,,,[],,,,,,73.6,0.0,u,0.0,True,642.0999999996275,39.0,60.0,40.0,False,,246.0258370690898,[],"[960, 540]",ColorTask,138.0,92.0,,,HRV,HRV_0271,2022-11-30 20:19:45
,wl-rdm,209,544637,0.0-8.92-0.92,1.0,209.0,,,,,,,[],,,,,,56.4,0.0,u,0.0,True,1076.800000000745,65.0,60.0,40.0,False,,360.3305179662103,[],"[960, 540]",ColorTask,139.0,93.0,,,HRV,HRV_0271,2022-11-30 20:19:45
,wl-rdm,210,547187,0.0-8.93-0.93,1.0,210.0,,,,,,,[],,,,,,50.0,1.0,u,0.0,False,1257.199999999255,76.0,60.0,40.0,False,,209.7390838422366,[],"[960, 540]",ColorTask,138.0,94.0,,,HRV,HRV_0271,2022-11-30 20:19:45
,wl-rdm,211,549569,0.0-8.94-0.94,1.0,211.0,,,,,,,[],,,,,,53.2,1.0,i,1.0,True,922.9999999981374,56.0,60.0,40.0,False,,369.47571712566423,[],"[960, 540]",ColorTask,139.0,95.0,,,HRV,HRV_0271,2022-11-30 20:19:45
,wl-rdm,212,551952,0.0-8.95-0.95,1.0,212.0,,,,,,,[],,,,,,62.5,1.0,i,1.0,True,944.4000000003725,57.0,60.0,40.0,False,,357.69515786591376,[],"[960, 540]",ColorTask,140.0,96.0,,,HRV,HRV_0271,2022-11-30 20:19:45
,wl-rdm,213,554218,0.0-8.96-0.96,1.0,213.0,,,,,,,[],,,,,,50.0,1.0,i,1.0,True,936.5,57.0,60.0,40.0,False,,234.9135357388394,[],"[960, 540]",ColorTask,141.0,97.0,,,HRV,HRV_0271,2022-11-30 20:19:45
,wl-rdm,214,556317,0.0-8.97-0.97,1.0,214.0,,,,,,,[],,,,,,56.4,0.0,u,0.0,True,793.9000000003725,48.0,60.0,40.0,False,,223.3158869100015,[],"[960, 540]",ColorTask,142.0,98.0,,,HRV,HRV_0271,2022-11-30 20:19:45
,wl-rdm,215,558333,0.0-8.98-0.98,1.0,215.0,,,,,,,[],,,,,,87.9,0.0,u,0.0,True,603.7000000011176,37.0,60.0,40.0,False,,317.40254571445445,[],"[960, 540]",ColorTask,143.0,99.0,,,HRV,HRV_0271,2022-11-30 20:19:45
,wl-rdm,216,560516,0.0-8.99-0.99,1.0,216.0,,,,,,,[],,,,,,53.2,0.0,i,1.0,False,765.0,46.0,60.0,40.0,False,,344.5591428073083,[],"[960, 540]",ColorTask,142.0,100.0,,,HRV,HRV_0271,2022-11-30 20:19:45
,wl-rdm,217,562515,0.0-8.100-0.100,1.0,217.0,,,,,,,[],,,,,,73.6,1.0,i,1.0,True,636.7000000011176,39.0,60.0,40.0,False,,279.87000727356724,[],"[960, 540]",ColorTask,143.0,101.0,,,HRV,HRV_0271,2022-11-30 20:19:45
,wl-rdm,218,565431,0.0-8.101-0.101,1.0,218.0,,,,,,,[],,,,,,53.2,0.0,u,0.0,True,1470.199999999255,89.0,60.0,40.0,False,,351.81910058228493,[],"[960, 540]",ColorTask,144.0,102.0,,,HRV,HRV_0271,2022-11-30 20:19:45
,wl-rdm,219,568614,0.0-8.102-0.102,1.0,219.0,,,,,,,[],,,,,,50.0,1.0,i,1.0,True,1869.9000000003725,113.0,60.0,40.0,False,,244.72180001122354,[],"[960, 540]",ColorTask,145.0,103.0,,,HRV,HRV_0271,2022-11-30 20:19:45
,wl-rdm,220,571462,0.0-8.103-0.103,1.0,220.0,,,,,,,[],,,,,,50.0,0.0,i,1.0,False,1414.0999999996275,85.0,60.0,40.0,False,,363.40428696761734,[],"[960, 540]",ColorTask,144.0,104.0,,,HRV,HRV_0271,2022-11-30 20:19:45
,wl-rdm,221,573395,0.0-8.104-0.104,1.0,221.0,,,,,,,[],,,,,,87.9,0.0,u,0.0,True,604.6999999992549,37.0,60.0,40.0,False,,233.6885101445732,[],"[960, 540]",ColorTask,145.0,105.0,,,HRV,HRV_0271,2022-11-30 20:19:45
,wl-rdm,222,575511,0.0-8.105-0.105,1.0,222.0,,,,,,,[],,,,,,62.5,1.0,i,1.0,True,824.2000000011176,50.0,60.0,40.0,False,,211.81077667854044,[],"[960, 540]",ColorTask,146.0,106.0,,,HRV,HRV_0271,2022-11-30 20:19:45
,wl-rdm,223,577444,0.0-8.106-0.106,1.0,223.0,,,,,,,[],,,,,,87.9,1.0,i,1.0,True,653.5,40.0,60.0,40.0,False,,201.60475771665583,[],"[960, 540]",ColorTask,147.0,107.0,,,HRV,HRV_0271,2022-11-30 20:19:45
,wl-rdm,224,579410,0.0-8.107-0.107,1.0,224.0,,,,,,,[],,,,,,87.9,1.0,i,1.0,True,597.4000000003725,36.0,60.0,40.0,False,,312.3217819969107,[],"[960, 540]",ColorTask,148.0,108.0,,,HRV,HRV_0271,2022-11-30 20:19:45
,wl-rdm,225,581843,0.0-8.108-0.108,1.0,225.0,,,,,,,[],,,,,,62.5,1.0,i,1.0,True,1141.9000000003725,69.0,60.0,40.0,False,,201.78609747687958,[],"[960, 540]",ColorTask,149.0,109.0,,,HRV,HRV_0271,2022-11-30 20:19:45
,wl-html-button-response,226,586528,0.0-9.0-0.0,,,,,,,,,,4680.9000000003725,,0,,,,,,,,,,,,,,,,,,,,<h3>End of this session. Thank you!</h3><br>,['Close window'],HRV,HRV_0271,2022-11-30 20:19:45
