trialN,stimuli,trialStartTime,trialStartTime_UNIX,stimulus1,stimulus2,stimulus1Bid,stimulus2Bid,delta,selected,rt,rt_UNIX,rt_perfnow,receivedResponse,rsp,trialEndTime,trialDuration,trialEndTime_UNIX,trialDuration_UNIX,exp,subjectId,date
0,"[{'imgObject': {}, 'id': 'orange slices', 'src': '/static/foodstim60/orange slices.jpg', 'key': 'u', 'origWidth': 409, 'origHeight': 410, 'width': 409, 'height': 410, 'widthPercent': 0.45, 'rescaleHeight': False, 'trialN': 0, 'loaded': True, 'loadedTime': 3770.9000000003725, 'positionName': 'LEFT', 'positionCoords': [512.6, 335], 'bid': 1.29}, {'imgObject': {}, 'id': 'ice cream sundae 002', 'src': '/static/foodstim60/ice cream sundae 002.jpg', 'key': 'i', 'origWidth': 409, 'origHeight': 409, 'width': 409, 'height': 409, 'widthPercent': 0.45, 'rescaleHeight': False, 'trialN': 0, 'loaded': True, 'loadedTime': 3874.0999999996275, 'positionName': 'RIGHT', 'positionCoords': [998.4, 335.5], 'bid': 2.63}]",5041.699999999255,1669838705415,orange slices,ice cream sundae 002,1.29,2.63,1.3399999999999999,orange slices,771.8000000007451,773,772.4000000003725,True,u,6316.800000000745,1275.1000000014901,1669838706691,1276,HRV,HRV_0271,2022-11-30 20:09:54
1,"[{'imgObject': {}, 'id': 'hotdog w must', 'src': '/static/foodstim60/hotdog w must.jpg', 'key': 'u', 'origWidth': 409, 'origHeight': 409, 'width': 409, 'height': 409, 'widthPercent': 0.45, 'rescaleHeight': False, 'trialN': 1, 'loaded': True, 'loadedTime': 4004.300000000745, 'positionName': 'LEFT', 'positionCoords': [512.6, 335.5], 'bid': 0.64}, {'imgObject': {}, 'id': 'shreddedwheatwithmilk', 'src': '/static/foodstim60/shreddedwheatwithmilk.jpg', 'key': 'i', 'origWidth': 410, 'origHeight': 410, 'width': 410, 'height': 410, 'widthPercent': 0.45, 'rescaleHeight': False, 'trialN': 1, 'loaded': True, 'loadedTime': 3680.800000000745, 'positionName': 'RIGHT', 'positionCoords': [998.4, 335], 'bid': 0.12}]",6317.199999999255,1669838706691,hotdog w must,shreddedwheatwithmilk,0.64,0.12,-0.52,hotdog w must,1330.9000000003725,1331,1331.2000000011176,True,u,8156.699999999255,1839.5,1669838708530,1839,HRV,HRV_0271,2022-11-30 20:09:54
2,"[{'imgObject': {}, 'id': 'sushi w_condiments', 'src': '/static/foodstim60/sushi w_condiments.jpg', 'key': 'u', 'origWidth': 410, 'origHeight': 410, 'width': 410, 'height': 410, 'widthPercent': 0.45, 'rescaleHeight': False, 'trialN': 2, 'loaded': True, 'loadedTime': 3807.199999999255, 'positionName': 'LEFT', 'positionCoords': [511.6, 335], 'bid': 3.43}, {'imgObject': {}, 'id': 'omelette', 'src': '/static/foodstim60/omelette.jpg', 'key': 'i', 'origWidth': 410, 'origHeight': 409, 'width': 410, 'height': 409, 'widthPercent': 0.45, 'rescaleHeight': False, 'trialN': 2, 'loaded': True, 'loadedTime': 3989.0999999996275, 'positionName': 'RIGHT', 'positionCoords': [998.4, 335.5], 'bid': 2.87}]",8156.9000000003725,1669838708531,sushi w_condiments,omelette,3.43,2.87,-0.56,omelette,1304.5999999996275,1305,1304.7999999988824,True,i,9964.199999999255,1807.2999999988824,1669838710338,1807,HRV,HRV_0271,2022-11-30 20:09:54
3,"[{'imgObject': {}, 'id': 'lox', 'src': '/static/foodstim60/lox.jpg', 'key': 'u', 'origWidth': 410, 'origHeight': 411, 'width': 410, 'height': 411, 'widthPercent': 0.45, 'rescaleHeight': False, 'trialN': 3, 'loaded': True, 'loadedTime': 3808.0999999996275, 'positionName': 'LEFT', 'positionCoords': [511.6, 334.5], 'bid': 0.54}, {'imgObject': {}, 'id': 'tacos', 'src': '/static/foodstim60/tacos.jpg', 'key': 'i', 'origWidth': 411, 'origHeight': 411, 'width': 411, 'height': 411, 'widthPercent': 0.45, 'rescaleHeight': False, 'trialN': 3, 'loaded': True, 'loadedTime': 3798.0999999996275, 'positionName': 'RIGHT', 'positionCoords': [998.4, 334.5], 'bid': 1.04}]",9964.400000000373,1669838710338,lox,tacos,0.54,1.04,0.5,tacos,997.4000000003725,998,997.6999999992549,True,i,11468.199999999255,1503.7999999988824,1669838711842,1504,HRV,HRV_0271,2022-11-30 20:09:54
4,"[{'imgObject': {}, 'id': 'strawberries', 'src': '/static/foodstim60/strawberries.jpg', 'key': 'u', 'origWidth': 410, 'origHeight': 410, 'width': 410, 'height': 410, 'widthPercent': 0.45, 'rescaleHeight': False, 'trialN': 4, 'loaded': True, 'loadedTime': 3820.699999999255, 'positionName': 'LEFT', 'positionCoords': [511.6, 335], 'bid': 6.21}, {'imgObject': {}, 'id': 'cherry tomato', 'src': '/static/foodstim60/cherry tomato.jpg', 'key': 'i', 'origWidth': 410, 'origHeight': 410, 'width': 410, 'height': 410, 'widthPercent': 0.45, 'rescaleHeight': False, 'trialN': 4, 'loaded': True, 'loadedTime': 3964.800000000745, 'positionName': 'RIGHT', 'positionCoords': [998.4, 335], 'bid': 3.37}]",11468.5,1669838711842,strawberries,cherry tomato,6.21,3.37,-2.84,strawberries,894.4000000003725,895,894.5999999996275,True,u,12867.800000000745,1399.300000000745,1669838713242,1400,HRV,HRV_0271,2022-11-30 20:09:54
5,"[{'imgObject': {}, 'id': 'mac & cheese', 'src': '/static/foodstim60/mac & cheese.jpg', 'key': 'u', 'origWidth': 410, 'origHeight': 410, 'width': 410, 'height': 410, 'widthPercent': 0.45, 'rescaleHeight': False, 'trialN': 5, 'loaded': True, 'loadedTime': 3971.800000000745, 'positionName': 'LEFT', 'positionCoords': [511.6, 335], 'bid': 5.7700000000000005}, {'imgObject': {}, 'id': 'tacos', 'src': '/static/foodstim60/tacos.jpg', 'key': 'i', 'origWidth': 411, 'origHeight': 411, 'width': 411, 'height': 411, 'widthPercent': 0.45, 'rescaleHeight': False, 'trialN': 5, 'loaded': True, 'loadedTime': 3798.9000000003725, 'positionName': 'RIGHT', 'positionCoords': [998.4, 334.5], 'bid': 1.04}]",12868.099999999627,1669838713242,mac & cheese,tacos,5.7700000000000005,1.04,-4.73,mac & cheese,981.8000000007451,983,982.5999999996275,True,u,14355.599999999627,1487.5,1669838714729,1487,HRV,HRV_0271,2022-11-30 20:09:54
6,"[{'imgObject': {}, 'id': 'kiwi', 'src': '/static/foodstim60/kiwi.jpg', 'key': 'u', 'origWidth': 410, 'origHeight': 410, 'width': 410, 'height': 410, 'widthPercent': 0.45, 'rescaleHeight': False, 'trialN': 6, 'loaded': True, 'loadedTime': 3978.9000000003725, 'positionName': 'LEFT', 'positionCoords': [511.6, 335], 'bid': 1.91}, {'imgObject': {}, 'id': 'bagel and cc', 'src': '/static/foodstim60/bagel and cc.jpg', 'key': 'i', 'origWidth': 410, 'origHeight': 410, 'width': 410, 'height': 410, 'widthPercent': 0.45, 'rescaleHeight': False, 'trialN': 6, 'loaded': True, 'loadedTime': 3981.5999999996275, 'positionName': 'RIGHT', 'positionCoords': [998.4, 335], 'bid': 1.93}]",14355.800000000745,1669838714730,kiwi,bagel and cc,1.91,1.93,0.020000000000000018,bagel and cc,990.5,990,990.7999999988824,True,i,15852.400000000373,1496.5999999996275,1669838716226,1496,HRV,HRV_0271,2022-11-30 20:09:54
7,"[{'imgObject': {}, 'id': 'salmon', 'src': '/static/foodstim60/salmon.jpg', 'key': 'u', 'origWidth': 410, 'origHeight': 409, 'width': 410, 'height': 409, 'widthPercent': 0.45, 'rescaleHeight': False, 'trialN': 7, 'loaded': True, 'loadedTime': 3985.9000000003725, 'positionName': 'LEFT', 'positionCoords': [511.6, 335.5], 'bid': 8.39}, {'imgObject': {}, 'id': 'raspberries', 'src': '/static/foodstim60/raspberries.jpg', 'key': 'i', 'origWidth': 411, 'origHeight': 411, 'width': 411, 'height': 411, 'widthPercent': 0.45, 'rescaleHeight': False, 'trialN': 7, 'loaded': True, 'loadedTime': 4001.199999999255, 'positionName': 'RIGHT', 'positionCoords': [998.4, 334.5], 'bid': 7.2}]",15852.599999999627,1669838716226,salmon,raspberries,8.39,7.2,-1.1900000000000004,salmon,1074.5999999996275,1075,1074.9000000003725,True,u,17435.599999999627,1583.0,1669838717809,1583,HRV,HRV_0271,2022-11-30 20:09:54
8,"[{'imgObject': {}, 'id': 'cheerios', 'src': '/static/foodstim60/cheerios.jpg', 'key': 'u', 'origWidth': 409, 'origHeight': 410, 'width': 409, 'height': 410, 'widthPercent': 0.45, 'rescaleHeight': False, 'trialN': 8, 'loaded': True, 'loadedTime': 4005.800000000745, 'positionName': 'LEFT', 'positionCoords': [512.6, 335], 'bid': 1.65}, {'imgObject': {}, 'id': 'bagel plain', 'src': '/static/foodstim60/bagel plain.jpg', 'key': 'i', 'origWidth': 410, 'origHeight': 410, 'width': 410, 'height': 410, 'widthPercent': 0.45, 'rescaleHeight': False, 'trialN': 8, 'loaded': True, 'loadedTime': 4009.199999999255, 'positionName': 'RIGHT', 'positionCoords': [998.4, 335], 'bid': 0.8200000000000001}]",17435.699999999255,1669838717809,cheerios,bagel plain,1.65,0.8200000000000001,-0.8299999999999998,bagel plain,1297.4000000003725,1298,1297.7000000011176,True,i,19235.599999999627,1799.9000000003725,1669838719609,1800,HRV,HRV_0271,2022-11-30 20:09:54
9,"[{'imgObject': {}, 'id': 'blackbeanswithrice', 'src': '/static/foodstim60/blackbeanswithrice.jpg', 'key': 'u', 'origWidth': 410, 'origHeight': 410, 'width': 410, 'height': 410, 'widthPercent': 0.45, 'rescaleHeight': False, 'trialN': 9, 'loaded': True, 'loadedTime': 4017.5999999996275, 'positionName': 'LEFT', 'positionCoords': [511.6, 335], 'bid': 1.57}, {'imgObject': {}, 'id': 'Tribe humus pita', 'src': '/static/foodstim60/Tribe humus pita.jpg', 'key': 'i', 'origWidth': 411, 'origHeight': 411, 'width': 411, 'height': 411, 'widthPercent': 0.45, 'rescaleHeight': False, 'trialN': 9, 'loaded': True, 'loadedTime': 4159.800000000745, 'positionName': 'RIGHT', 'positionCoords': [998.4, 334.5], 'bid': 1.33}]",19235.699999999255,1669838719610,blackbeanswithrice,Tribe humus pita,1.57,1.33,-0.24,Tribe humus pita,854.2000000011176,854,854.5,True,i,20595.599999999627,1359.9000000003725,1669838720969,1359,HRV,HRV_0271,2022-11-30 20:09:54
10,"[{'imgObject': {}, 'id': 'rigatoni and sauce', 'src': '/static/foodstim60/rigatoni and sauce.jpg', 'key': 'u', 'origWidth': 410, 'origHeight': 411, 'width': 410, 'height': 411, 'widthPercent': 0.45, 'rescaleHeight': False, 'trialN': 10, 'loaded': True, 'loadedTime': 4232.300000000745, 'positionName': 'LEFT', 'positionCoords': [511.6, 334.5], 'bid': 2.18}, {'imgObject': {}, 'id': 'sweetpotato', 'src': '/static/foodstim60/sweetpotato.jpg', 'key': 'i', 'origWidth': 410, 'origHeight': 410, 'width': 410, 'height': 410, 'widthPercent': 0.45, 'rescaleHeight': False, 'trialN': 10, 'loaded': True, 'loadedTime': 4071.300000000745, 'positionName': 'RIGHT', 'positionCoords': [998.4, 335], 'bid': 6.8}]",20595.699999999255,1669838720970,rigatoni and sauce,sweetpotato,2.18,6.8,4.619999999999999,sweetpotato,953.1000000014901,953,953.3000000007451,True,i,22051.5,1455.800000000745,1669838722425,1455,HRV,HRV_0271,2022-11-30 20:09:54
11,"[{'imgObject': {}, 'id': 'froot loops w milk', 'src': '/static/foodstim60/froot loops w milk.jpg', 'key': 'u', 'origWidth': 410, 'origHeight': 410, 'width': 410, 'height': 410, 'widthPercent': 0.45, 'rescaleHeight': False, 'trialN': 11, 'loaded': True, 'loadedTime': 4166.199999999255, 'positionName': 'LEFT', 'positionCoords': [511.6, 335], 'bid': 6.34}, {'imgObject': {}, 'id': 'raisin bran w milk', 'src': '/static/foodstim60/raisin bran w milk.jpg', 'key': 'i', 'origWidth': 411, 'origHeight': 411, 'width': 411, 'height': 411, 'widthPercent': 0.45, 'rescaleHeight': False, 'trialN': 11, 'loaded': True, 'loadedTime': 4173.199999999255, 'positionName': 'RIGHT', 'positionCoords': [998.4, 334.5], 'bid': 5.9}]",22051.699999999255,1669838722426,froot loops w milk,raisin bran w milk,6.34,5.9,-0.4399999999999995,froot loops w milk,689.3000000007451,689,689.6000000014901,True,u,23244.199999999255,1192.5,1669838723618,1192,HRV,HRV_0271,2022-11-30 20:09:54
12,"[{'imgObject': {}, 'id': 'fruitsalad', 'src': '/static/foodstim60/fruitsalad.jpg', 'key': 'u', 'origWidth': 410, 'origHeight': 410, 'width': 410, 'height': 410, 'widthPercent': 0.45, 'rescaleHeight': False, 'trialN': 12, 'loaded': True, 'loadedTime': 4182, 'positionName': 'LEFT', 'positionCoords': [511.6, 335], 'bid': 5.71}, {'imgObject': {}, 'id': 'strawberries', 'src': '/static/foodstim60/strawberries.jpg', 'key': 'i', 'origWidth': 410, 'origHeight': 410, 'width': 410, 'height': 410, 'widthPercent': 0.45, 'rescaleHeight': False, 'trialN': 12, 'loaded': True, 'loadedTime': 3830.800000000745, 'positionName': 'RIGHT', 'positionCoords': [998.4, 335], 'bid': 6.21}]",23244.300000000745,1669838723618,fruitsalad,strawberries,5.71,6.21,0.5,strawberries,898.0,898,898.2999999988824,True,i,24643.800000000745,1399.5,1669838725017,1399,HRV,HRV_0271,2022-11-30 20:09:54
13,"[{'imgObject': {}, 'id': 'lox', 'src': '/static/foodstim60/lox.jpg', 'key': 'u', 'origWidth': 410, 'origHeight': 411, 'width': 410, 'height': 411, 'widthPercent': 0.45, 'rescaleHeight': False, 'trialN': 13, 'loaded': True, 'loadedTime': 3811.5, 'positionName': 'LEFT', 'positionCoords': [511.6, 334.5], 'bid': 0.54}, {'imgObject': {}, 'id': 'banana', 'src': '/static/foodstim60/banana.jpg', 'key': 'i', 'origWidth': 410, 'origHeight': 410, 'width': 410, 'height': 410, 'widthPercent': 0.45, 'rescaleHeight': False, 'trialN': 13, 'loaded': True, 'loadedTime': 4185.5999999996275, 'positionName': 'RIGHT', 'positionCoords': [998.4, 335], 'bid': 4.25}]",24644.099999999627,1669838725017,lox,banana,0.54,4.25,3.71,banana,785.7000000011176,787,786.0,True,i,25931.5,1287.4000000003725,1669838726305,1288,HRV,HRV_0271,2022-11-30 20:09:54
14,"[{'imgObject': {}, 'id': 'steak', 'src': '/static/foodstim60/steak.jpg', 'key': 'u', 'origWidth': 410, 'origHeight': 410, 'width': 410, 'height': 410, 'widthPercent': 0.45, 'rescaleHeight': False, 'trialN': 14, 'loaded': True, 'loadedTime': 4185.699999999255, 'positionName': 'LEFT', 'positionCoords': [511.6, 335], 'bid': 6.71}, {'imgObject': {}, 'id': 'turkey sandwich', 'src': '/static/foodstim60/turkey sandwich.jpg', 'key': 'i', 'origWidth': 409, 'origHeight': 409, 'width': 409, 'height': 409, 'widthPercent': 0.45, 'rescaleHeight': False, 'trialN': 14, 'loaded': True, 'loadedTime': 4192.5999999996275, 'positionName': 'RIGHT', 'positionCoords': [998.4, 335.5], 'bid': 6.62}]",25931.699999999255,1669838726305,steak,turkey sandwich,6.71,6.62,-0.08999999999999986,turkey sandwich,1067.0,1067,1067.300000000745,True,i,27500.099999999627,1568.4000000003725,1669838727873,1568,HRV,HRV_0271,2022-11-30 20:09:54
15,"[{'imgObject': {}, 'id': 'lox', 'src': '/static/foodstim60/lox.jpg', 'key': 'u', 'origWidth': 410, 'origHeight': 411, 'width': 410, 'height': 411, 'widthPercent': 0.45, 'rescaleHeight': False, 'trialN': 15, 'loaded': True, 'loadedTime': 3818.9000000003725, 'positionName': 'LEFT', 'positionCoords': [511.6, 334.5], 'bid': 0.54}, {'imgObject': {}, 'id': 'apple slices', 'src': '/static/foodstim60/apple slices.jpg', 'key': 'i', 'origWidth': 409, 'origHeight': 410, 'width': 409, 'height': 410, 'widthPercent': 0.45, 'rescaleHeight': False, 'trialN': 15, 'loaded': True, 'loadedTime': 4269, 'positionName': 'RIGHT', 'positionCoords': [998.4, 335], 'bid': 1.54}]",27500.199999999255,1669838727874,lox,apple slices,0.54,1.54,1.0,apple slices,925.5,925,925.8000000007451,True,i,28932.400000000373,1432.2000000011176,1669838729306,1432,HRV,HRV_0271,2022-11-30 20:09:54
16,"[{'imgObject': {}, 'id': 'yogurt no spoon', 'src': '/static/foodstim60/yogurt no spoon.jpg', 'key': 'u', 'origWidth': 411, 'origHeight': 410, 'width': 411, 'height': 410, 'widthPercent': 0.45, 'rescaleHeight': False, 'trialN': 16, 'loaded': True, 'loadedTime': 4275.699999999255, 'positionName': 'LEFT', 'positionCoords': [510.6, 335], 'bid': 2.03}, {'imgObject': {}, 'id': 'rigatoni and sauce', 'src': '/static/foodstim60/rigatoni and sauce.jpg', 'key': 'i', 'origWidth': 410, 'origHeight': 411, 'width': 410, 'height': 411, 'widthPercent': 0.45, 'rescaleHeight': False, 'trialN': 16, 'loaded': True, 'loadedTime': 4234.199999999255, 'positionName': 'RIGHT', 'positionCoords': [998.4, 334.5], 'bid': 2.18}]",28932.5,1669838729306,yogurt no spoon,rigatoni and sauce,2.03,2.18,0.15000000000000036,rigatoni and sauce,1219.199999999255,1219,1219.5,True,i,30652.199999999255,1719.699999999255,1669838731026,1720,HRV,HRV_0271,2022-11-30 20:09:54
17,"[{'imgObject': {}, 'id': 'fried eggs', 'src': '/static/foodstim60/fried eggs.jpg', 'key': 'u', 'origWidth': 410, 'origHeight': 410, 'width': 410, 'height': 410, 'widthPercent': 0.45, 'rescaleHeight': False, 'trialN': 17, 'loaded': True, 'loadedTime': 4283.800000000745, 'positionName': 'LEFT', 'positionCoords': [511.6, 335], 'bid': 2}, {'imgObject': {}, 'id': 'cantaloupe', 'src': '/static/foodstim60/cantaloupe.jpg', 'key': 'i', 'origWidth': 409, 'origHeight': 409, 'width': 409, 'height': 409, 'widthPercent': 0.45, 'rescaleHeight': False, 'trialN': 17, 'loaded': True, 'loadedTime': 4281.4000000003725, 'positionName': 'RIGHT', 'positionCoords': [998.4, 335.5], 'bid': 6.65}]",30652.400000000373,1669838731026,fried eggs,cantaloupe,2.0,6.65,4.65,cantaloupe,1575.0,1575,1575.2999999988824,True,i,32731.5,2079.0999999996275,1669838733105,2079,HRV,HRV_0271,2022-11-30 20:09:54
18,"[{'imgObject': {}, 'id': 'banana', 'src': '/static/foodstim60/banana.jpg', 'key': 'u', 'origWidth': 410, 'origHeight': 410, 'width': 410, 'height': 410, 'widthPercent': 0.45, 'rescaleHeight': False, 'trialN': 18, 'loaded': True, 'loadedTime': 4184.0999999996275, 'positionName': 'LEFT', 'positionCoords': [511.6, 335], 'bid': 4.25}, {'imgObject': {}, 'id': 'blueberries', 'src': '/static/foodstim60/blueberries.jpg', 'key': 'i', 'origWidth': 411, 'origHeight': 411, 'width': 411, 'height': 411, 'widthPercent': 0.45, 'rescaleHeight': False, 'trialN': 18, 'loaded': True, 'loadedTime': 4312.0999999996275, 'positionName': 'RIGHT', 'positionCoords': [998.4, 334.5], 'bid': 2.79}]",32731.800000000745,1669838733105,banana,blueberries,4.25,2.79,-1.46,blueberries,1574.0,1575,1574.3999999985099,True,i,34812.09999999963,2080.2999999988824,1669838735186,2081,HRV,HRV_0271,2022-11-30 20:09:54
19,"[{'imgObject': {}, 'id': 'chicken nuggets2', 'src': '/static/foodstim60/chicken nuggets2.jpg', 'key': 'u', 'origWidth': 410, 'origHeight': 409, 'width': 410, 'height': 409, 'widthPercent': 0.45, 'rescaleHeight': False, 'trialN': 19, 'loaded': True, 'loadedTime': 4565.4000000003725, 'positionName': 'LEFT', 'positionCoords': [511.6, 335.5], 'bid': 6.140000000000001}, {'imgObject': {}, 'id': 'burrito', 'src': '/static/foodstim60/burrito.jpg', 'key': 'i', 'origWidth': 410, 'origHeight': 410, 'width': 410, 'height': 410, 'widthPercent': 0.45, 'rescaleHeight': False, 'trialN': 19, 'loaded': True, 'loadedTime': 4318.5999999996275, 'positionName': 'RIGHT', 'positionCoords': [998.4, 335], 'bid': 6.29}]",34812.40000000037,1669838735186,chicken nuggets2,burrito,6.140000000000001,6.29,0.14999999999999947,chicken nuggets2,1276.5999999996275,1277,1276.9000000003725,True,u,36595.800000000745,1783.4000000003725,1669838736969,1783,HRV,HRV_0271,2022-11-30 20:09:54
20,"[{'imgObject': {}, 'id': 'steak', 'src': '/static/foodstim60/steak.jpg', 'key': 'u', 'origWidth': 410, 'origHeight': 410, 'width': 410, 'height': 410, 'widthPercent': 0.45, 'rescaleHeight': False, 'trialN': 20, 'loaded': True, 'loadedTime': 4187.199999999255, 'positionName': 'LEFT', 'positionCoords': [511.6, 335], 'bid': 6.71}, {'imgObject': {}, 'id': 'cantaloupe', 'src': '/static/foodstim60/cantaloupe.jpg', 'key': 'i', 'origWidth': 409, 'origHeight': 409, 'width': 409, 'height': 409, 'widthPercent': 0.45, 'rescaleHeight': False, 'trialN': 20, 'loaded': True, 'loadedTime': 4280.199999999255, 'positionName': 'RIGHT', 'positionCoords': [998.4, 335.5], 'bid': 6.65}]",36596.09999999963,1669838736969,steak,cantaloupe,6.71,6.65,-0.05999999999999961,steak,1457.300000000745,1458,1457.7000000011176,True,u,38555.699999999255,1959.5999999996275,1669838738929,1960,HRV,HRV_0271,2022-11-30 20:09:54
21,"[{'imgObject': {}, 'id': 'cheerios', 'src': '/static/foodstim60/cheerios.jpg', 'key': 'u', 'origWidth': 409, 'origHeight': 410, 'width': 409, 'height': 410, 'widthPercent': 0.45, 'rescaleHeight': False, 'trialN': 21, 'loaded': True, 'loadedTime': 4007.199999999255, 'positionName': 'LEFT', 'positionCoords': [512.6, 335], 'bid': 1.65}, {'imgObject': {}, 'id': 'rigatoni and sauce', 'src': '/static/foodstim60/rigatoni and sauce.jpg', 'key': 'i', 'origWidth': 410, 'origHeight': 411, 'width': 410, 'height': 411, 'widthPercent': 0.45, 'rescaleHeight': False, 'trialN': 21, 'loaded': True, 'loadedTime': 4234.199999999255, 'positionName': 'RIGHT', 'positionCoords': [998.4, 334.5], 'bid': 2.18}]",38555.800000000745,1669838738929,cheerios,rigatoni and sauce,1.65,2.18,0.5300000000000002,cheerios,1526.199999999255,1527,1526.5,True,u,40587.90000000037,2032.0999999996275,1669838740961,2032,HRV,HRV_0271,2022-11-30 20:09:54
22,"[{'imgObject': {}, 'id': 'salad w chicken', 'src': '/static/foodstim60/salad w chicken.jpg', 'key': 'u', 'origWidth': 411, 'origHeight': 411, 'width': 411, 'height': 411, 'widthPercent': 0.45, 'rescaleHeight': False, 'trialN': 22, 'loaded': True, 'loadedTime': 4320.300000000745, 'positionName': 'LEFT', 'positionCoords': [510.6, 334.5], 'bid': 6}, {'imgObject': {}, 'id': 'turkeysandwich', 'src': '/static/foodstim60/turkeysandwich.jpg', 'key': 'i', 'origWidth': 409, 'origHeight': 409, 'width': 409, 'height': 409, 'widthPercent': 0.45, 'rescaleHeight': False, 'trialN': 22, 'loaded': True, 'loadedTime': 4603.5, 'positionName': 'RIGHT', 'positionCoords': [998.4, 335.5], 'bid': 6.75}]",40588.09999999963,1669838740961,salad w chicken,turkeysandwich,6.0,6.75,0.75,salad w chicken,1084.9000000003725,1086,1085.2000000011176,True,u,42180.5,1592.4000000003725,1669838742554,1593,HRV,HRV_0271,2022-11-30 20:09:54
23,"[{'imgObject': {}, 'id': 'olives', 'src': '/static/foodstim60/olives.jpg', 'key': 'u', 'origWidth': 410, 'origHeight': 410, 'width': 410, 'height': 410, 'widthPercent': 0.45, 'rescaleHeight': False, 'trialN': 23, 'loaded': True, 'loadedTime': 4529.800000000745, 'positionName': 'LEFT', 'positionCoords': [511.6, 335], 'bid': 0.12}, {'imgObject': {}, 'id': 'sushi w_condiments', 'src': '/static/foodstim60/sushi w_condiments.jpg', 'key': 'i', 'origWidth': 410, 'origHeight': 410, 'width': 410, 'height': 410, 'widthPercent': 0.45, 'rescaleHeight': False, 'trialN': 23, 'loaded': True, 'loadedTime': 3800.5, 'positionName': 'RIGHT', 'positionCoords': [998.4, 335], 'bid': 3.43}]",42180.59999999963,1669838742554,olives,sushi w_condiments,0.12,3.43,3.31,sushi w_condiments,1195.0,1195,1195.300000000745,True,i,43883.800000000745,1703.2000000011176,1669838744257,1703,HRV,HRV_0271,2022-11-30 20:09:54
24,"[{'imgObject': {}, 'id': 'raspberries', 'src': '/static/foodstim60/raspberries.jpg', 'key': 'u', 'origWidth': 411, 'origHeight': 411, 'width': 411, 'height': 411, 'widthPercent': 0.45, 'rescaleHeight': False, 'trialN': 24, 'loaded': True, 'loadedTime': 4000.699999999255, 'positionName': 'LEFT', 'positionCoords': [510.6, 334.5], 'bid': 7.2}, {'imgObject': {}, 'id': 'salad w chicken', 'src': '/static/foodstim60/salad w chicken.jpg', 'key': 'i', 'origWidth': 411, 'origHeight': 411, 'width': 411, 'height': 411, 'widthPercent': 0.45, 'rescaleHeight': False, 'trialN': 24, 'loaded': True, 'loadedTime': 4318.800000000745, 'positionName': 'RIGHT', 'positionCoords': [998.4, 334.5], 'bid': 6}]",43884.0,1669838744257,raspberries,salad w chicken,7.2,6.0,-1.2000000000000002,salad w chicken,1057.9000000003725,1059,1058.199999999255,True,i,45444.300000000745,1560.300000000745,1669838745818,1561,HRV,HRV_0271,2022-11-30 20:09:54
25,"[{'imgObject': {}, 'id': 'seaweed', 'src': '/static/foodstim60/seaweed.jpg', 'key': 'u', 'origWidth': 410, 'origHeight': 410, 'width': 410, 'height': 410, 'widthPercent': 0.45, 'rescaleHeight': False, 'trialN': 25, 'loaded': True, 'loadedTime': 4605.5999999996275, 'positionName': 'LEFT', 'positionCoords': [511.6, 335], 'bid': 2.01}, {'imgObject': {}, 'id': 'rigatoni and sauce', 'src': '/static/foodstim60/rigatoni and sauce.jpg', 'key': 'i', 'origWidth': 410, 'origHeight': 411, 'width': 410, 'height': 411, 'widthPercent': 0.45, 'rescaleHeight': False, 'trialN': 25, 'loaded': True, 'loadedTime': 4261.4000000003725, 'positionName': 'RIGHT', 'positionCoords': [998.4, 334.5], 'bid': 2.18}]",45444.5,1669838745818,seaweed,rigatoni and sauce,2.01,2.18,0.17000000000000037,seaweed,1449.0999999996275,1449,1449.4000000003725,True,u,47396.0,1951.5,1669838747769,1951,HRV,HRV_0271,2022-11-30 20:09:54
26,"[{'imgObject': {}, 'id': 'yogurt no spoon', 'src': '/static/foodstim60/yogurt no spoon.jpg', 'key': 'u', 'origWidth': 411, 'origHeight': 410, 'width': 411, 'height': 410, 'widthPercent': 0.45, 'rescaleHeight': False, 'trialN': 26, 'loaded': True, 'loadedTime': 4270.0999999996275, 'positionName': 'LEFT', 'positionCoords': [510.6, 335], 'bid': 2.03}, {'imgObject': {}, 'id': 'bagel plain', 'src': '/static/foodstim60/bagel plain.jpg', 'key': 'i', 'origWidth': 410, 'origHeight': 410, 'width': 410, 'height': 410, 'widthPercent': 0.45, 'rescaleHeight': False, 'trialN': 26, 'loaded': True, 'loadedTime': 4009.5, 'positionName': 'RIGHT', 'positionCoords': [998.4, 335], 'bid': 0.8200000000000001}]",47396.09999999963,1669838747769,yogurt no spoon,bagel plain,2.03,0.8200000000000001,-1.2099999999999997,bagel plain,960.8000000007451,962,961.0999999996275,True,i,48860.0,1463.9000000003725,1669838749233,1464,HRV,HRV_0271,2022-11-30 20:09:54
27,"[{'imgObject': {}, 'id': 'cocktailshrimp', 'src': '/static/foodstim60/cocktailshrimp.jpg', 'key': 'u', 'origWidth': 410, 'origHeight': 410, 'width': 410, 'height': 410, 'widthPercent': 0.45, 'rescaleHeight': False, 'trialN': 27, 'loaded': True, 'loadedTime': 4606.9000000003725, 'positionName': 'LEFT', 'positionCoords': [511.6, 335], 'bid': 4.29}, {'imgObject': {}, 'id': 'omelette', 'src': '/static/foodstim60/omelette.jpg', 'key': 'i', 'origWidth': 410, 'origHeight': 409, 'width': 410, 'height': 409, 'widthPercent': 0.45, 'rescaleHeight': False, 'trialN': 27, 'loaded': True, 'loadedTime': 3993.9000000003725, 'positionName': 'RIGHT', 'positionCoords': [998.4, 335.5], 'bid': 2.87}]",48860.09999999963,1669838749233,cocktailshrimp,omelette,4.29,2.87,-1.42,cocktailshrimp,1101.9000000003725,1103,1102.2000000011176,True,u,50468.300000000745,1608.2000000011176,1669838750842,1609,HRV,HRV_0271,2022-11-30 20:09:54
28,"[{'imgObject': {}, 'id': 'banana', 'src': '/static/foodstim60/banana.jpg', 'key': 'u', 'origWidth': 410, 'origHeight': 410, 'width': 410, 'height': 410, 'widthPercent': 0.45, 'rescaleHeight': False, 'trialN': 28, 'loaded': True, 'loadedTime': 4183.5, 'positionName': 'LEFT', 'positionCoords': [511.6, 335], 'bid': 4.25}, {'imgObject': {}, 'id': 'baked potato', 'src': '/static/foodstim60/baked potato.jpg', 'key': 'i', 'origWidth': 409, 'origHeight': 410, 'width': 409, 'height': 410, 'widthPercent': 0.45, 'rescaleHeight': False, 'trialN': 28, 'loaded': True, 'loadedTime': 4644.5, 'positionName': 'RIGHT', 'positionCoords': [998.4, 335], 'bid': 3.75}]",50468.40000000037,1669838750842,banana,baked potato,4.25,3.75,-0.5,baked potato,1192.7999999988824,1193,1193.0999999996275,True,i,52164.300000000745,1695.9000000003725,1669838752538,1696,HRV,HRV_0271,2022-11-30 20:09:54
29,"[{'imgObject': {}, 'id': 'apple slices', 'src': '/static/foodstim60/apple slices.jpg', 'key': 'u', 'origWidth': 409, 'origHeight': 410, 'width': 409, 'height': 410, 'widthPercent': 0.45, 'rescaleHeight': False, 'trialN': 29, 'loaded': True, 'loadedTime': 4269.300000000745, 'positionName': 'LEFT', 'positionCoords': [512.6, 335], 'bid': 1.54}, {'imgObject': {}, 'id': 'fried eggs', 'src': '/static/foodstim60/fried eggs.jpg', 'key': 'i', 'origWidth': 410, 'origHeight': 410, 'width': 410, 'height': 410, 'widthPercent': 0.45, 'rescaleHeight': False, 'trialN': 29, 'loaded': True, 'loadedTime': 4284.4000000003725, 'positionName': 'RIGHT', 'positionCoords': [998.4, 335], 'bid': 2}]",52164.5,1669838752538,apple slices,fried eggs,1.54,2.0,0.45999999999999996,fried eggs,1087.0,1087,1087.300000000745,True,i,53755.40000000037,1590.9000000003725,1669838754129,1591,HRV,HRV_0271,2022-11-30 20:09:54
30,"[{'imgObject': {}, 'id': 'grilled chicken strips', 'src': '/static/foodstim60/grilled chicken strips.jpg', 'key': 'u', 'origWidth': 410, 'origHeight': 411, 'width': 410, 'height': 411, 'widthPercent': 0.45, 'rescaleHeight': False, 'trialN': 30, 'loaded': True, 'loadedTime': 4727.5, 'positionName': 'LEFT', 'positionCoords': [511.6, 334.5], 'bid': 7.5}, {'imgObject': {}, 'id': 'blueberries', 'src': '/static/foodstim60/blueberries.jpg', 'key': 'i', 'origWidth': 411, 'origHeight': 411, 'width': 411, 'height': 411, 'widthPercent': 0.45, 'rescaleHeight': False, 'trialN': 30, 'loaded': True, 'loadedTime': 4312.4000000003725, 'positionName': 'RIGHT', 'positionCoords': [998.4, 334.5], 'bid': 2.79}]",53755.59999999963,1669838754129,grilled chicken strips,blueberries,7.5,2.79,-4.71,grilled chicken strips,752.5,753,752.7000000011176,True,u,55011.59999999963,1256.0,1669838755385,1256,HRV,HRV_0271,2022-11-30 20:09:54
31,"[{'imgObject': {}, 'id': 'turkey sandwich', 'src': '/static/foodstim60/turkey sandwich.jpg', 'key': 'u', 'origWidth': 409, 'origHeight': 409, 'width': 409, 'height': 409, 'widthPercent': 0.45, 'rescaleHeight': False, 'trialN': 31, 'loaded': True, 'loadedTime': 4189.0999999996275, 'positionName': 'LEFT', 'positionCoords': [512.6, 335.5], 'bid': 6.62}, {'imgObject': {}, 'id': 'salmon', 'src': '/static/foodstim60/salmon.jpg', 'key': 'i', 'origWidth': 410, 'origHeight': 409, 'width': 410, 'height': 409, 'widthPercent': 0.45, 'rescaleHeight': False, 'trialN': 31, 'loaded': True, 'loadedTime': 3981.9000000003725, 'positionName': 'RIGHT', 'positionCoords': [998.4, 335.5], 'bid': 8.39}]",55011.699999999255,1669838755385,turkey sandwich,salmon,6.62,8.39,1.7700000000000005,salmon,945.1000000014901,946,945.4000000003725,True,i,56460.300000000745,1448.6000000014901,1669838756834,1449,HRV,HRV_0271,2022-11-30 20:09:54
32,"[{'imgObject': {}, 'id': 'shreddedwheatwithmilk', 'src': '/static/foodstim60/shreddedwheatwithmilk.jpg', 'key': 'u', 'origWidth': 410, 'origHeight': 410, 'width': 410, 'height': 410, 'widthPercent': 0.45, 'rescaleHeight': False, 'trialN': 32, 'loaded': True, 'loadedTime': 3677.5999999996275, 'positionName': 'LEFT', 'positionCoords': [511.6, 335], 'bid': 0.12}, {'imgObject': {}, 'id': 'olives', 'src': '/static/foodstim60/olives.jpg', 'key': 'i', 'origWidth': 410, 'origHeight': 410, 'width': 410, 'height': 410, 'widthPercent': 0.45, 'rescaleHeight': False, 'trialN': 32, 'loaded': True, 'loadedTime': 4529.5, 'positionName': 'RIGHT', 'positionCoords': [998.4, 335], 'bid': 0.12}]",56460.5,1669838756834,shreddedwheatwithmilk,olives,0.12,0.12,0.0,shreddedwheatwithmilk,1327.300000000745,1327,1327.5999999996275,True,u,58291.5,1831.0,1669838758665,1831,HRV,HRV_0271,2022-11-30 20:09:54
33,"[{'imgObject': {}, 'id': 'bagel and cc', 'src': '/static/foodstim60/bagel and cc.jpg', 'key': 'u', 'origWidth': 410, 'origHeight': 410, 'width': 410, 'height': 410, 'widthPercent': 0.45, 'rescaleHeight': False, 'trialN': 33, 'loaded': True, 'loadedTime': 3980.5999999996275, 'positionName': 'LEFT', 'positionCoords': [511.6, 335], 'bid': 1.93}, {'imgObject': {}, 'id': 'lox', 'src': '/static/foodstim60/lox.jpg', 'key': 'i', 'origWidth': 410, 'origHeight': 411, 'width': 410, 'height': 411, 'widthPercent': 0.45, 'rescaleHeight': False, 'trialN': 33, 'loaded': True, 'loadedTime': 3818.300000000745, 'positionName': 'RIGHT', 'positionCoords': [998.4, 334.5], 'bid': 0.54}]",58291.59999999963,1669838758665,bagel and cc,lox,1.93,0.54,-1.39,bagel and cc,771.8000000007451,772,772.2000000011176,True,u,59564.300000000745,1272.7000000011176,1669838759938,1273,HRV,HRV_0271,2022-11-30 20:09:54
34,"[{'imgObject': {}, 'id': 'apple slices', 'src': '/static/foodstim60/apple slices.jpg', 'key': 'u', 'origWidth': 409, 'origHeight': 410, 'width': 409, 'height': 410, 'widthPercent': 0.45, 'rescaleHeight': False, 'trialN': 34, 'loaded': True, 'loadedTime': 4269.9000000003725, 'positionName': 'LEFT', 'positionCoords': [512.6, 335], 'bid': 1.54}, {'imgObject': {}, 'id': 'blackbeanswithrice', 'src': '/static/foodstim60/blackbeanswithrice.jpg', 'key': 'i', 'origWidth': 410, 'origHeight': 410, 'width': 410, 'height': 410, 'widthPercent': 0.45, 'rescaleHeight': False, 'trialN': 34, 'loaded': True, 'loadedTime': 4017, 'positionName': 'RIGHT', 'positionCoords': [998.4, 335], 'bid': 1.57}]",59564.40000000037,1669838759938,apple slices,blackbeanswithrice,1.54,1.57,0.030000000000000027,apple slices,1246.699999999255,1247,1246.9000000003725,True,u,61315.699999999255,1751.2999999988824,1669838761689,1751,HRV,HRV_0271,2022-11-30 20:09:54
35,"[{'imgObject': {}, 'id': 'eggsalad', 'src': '/static/foodstim60/eggsalad.jpg', 'key': 'u', 'origWidth': 410, 'origHeight': 409, 'width': 410, 'height': 409, 'widthPercent': 0.45, 'rescaleHeight': False, 'trialN': 35, 'loaded': True, 'loadedTime': 4728.9000000003725, 'positionName': 'LEFT', 'positionCoords': [511.6, 335.5], 'bid': 1.64}, {'imgObject': {}, 'id': 'hotdog w must', 'src': '/static/foodstim60/hotdog w must.jpg', 'key': 'i', 'origWidth': 409, 'origHeight': 409, 'width': 409, 'height': 409, 'widthPercent': 0.45, 'rescaleHeight': False, 'trialN': 35, 'loaded': True, 'loadedTime': 4004.4000000003725, 'positionName': 'RIGHT', 'positionCoords': [998.4, 335.5], 'bid': 0.64}]",61315.90000000037,1669838761689,eggsalad,hotdog w must,1.64,0.64,-0.9999999999999999,hotdog w must,1209.0,1210,1209.2999999988824,True,i,63028.5,1712.5999999996275,1669838763402,1713,HRV,HRV_0271,2022-11-30 20:09:54
36,"[{'imgObject': {}, 'id': 'steak', 'src': '/static/foodstim60/steak.jpg', 'key': 'u', 'origWidth': 410, 'origHeight': 410, 'width': 410, 'height': 410, 'widthPercent': 0.45, 'rescaleHeight': False, 'trialN': 36, 'loaded': True, 'loadedTime': 4187.800000000745, 'positionName': 'LEFT', 'positionCoords': [511.6, 335], 'bid': 6.71}, {'imgObject': {}, 'id': 'raisin bran w milk', 'src': '/static/foodstim60/raisin bran w milk.jpg', 'key': 'i', 'origWidth': 411, 'origHeight': 411, 'width': 411, 'height': 411, 'widthPercent': 0.45, 'rescaleHeight': False, 'trialN': 36, 'loaded': True, 'loadedTime': 4173.300000000745, 'positionName': 'RIGHT', 'positionCoords': [998.4, 334.5], 'bid': 5.9}]",63028.59999999963,1669838763402,steak,raisin bran w milk,6.71,5.9,-0.8099999999999996,steak,1215.0,1215,1215.300000000745,True,u,64748.199999999255,1719.5999999996275,1669838765122,1720,HRV,HRV_0271,2022-11-30 20:09:54
37,"[{'imgObject': {}, 'id': 'kiwi', 'src': '/static/foodstim60/kiwi.jpg', 'key': 'u', 'origWidth': 410, 'origHeight': 410, 'width': 410, 'height': 410, 'widthPercent': 0.45, 'rescaleHeight': False, 'trialN': 37, 'loaded': True, 'loadedTime': 3975.0999999996275, 'positionName': 'LEFT', 'positionCoords': [511.6, 335], 'bid': 1.91}, {'imgObject': {}, 'id': 'orange slices', 'src': '/static/foodstim60/orange slices.jpg', 'key': 'i', 'origWidth': 409, 'origHeight': 410, 'width': 409, 'height': 410, 'widthPercent': 0.45, 'rescaleHeight': False, 'trialN': 37, 'loaded': True, 'loadedTime': 3733.9000000003725, 'positionName': 'RIGHT', 'positionCoords': [998.4, 335], 'bid': 1.29}]",64748.40000000037,1669838765122,kiwi,orange slices,1.91,1.29,-0.6199999999999999,orange slices,798.2999999988824,798,798.5,True,i,66052.30000000075,1303.9000000003725,1669838766426,1304,HRV,HRV_0271,2022-11-30 20:09:54
38,"[{'imgObject': {}, 'id': 'hashbrowns', 'src': '/static/foodstim60/hashbrowns.jpg', 'key': 'u', 'origWidth': 411, 'origHeight': 410, 'width': 411, 'height': 410, 'widthPercent': 0.45, 'rescaleHeight': False, 'trialN': 38, 'loaded': True, 'loadedTime': 4767.5999999996275, 'positionName': 'LEFT', 'positionCoords': [510.6, 335], 'bid': 1.27}, {'imgObject': {}, 'id': 'cherries', 'src': '/static/foodstim60/cherries.jpg', 'key': 'i', 'origWidth': 410, 'origHeight': 411, 'width': 410, 'height': 411, 'widthPercent': 0.45, 'rescaleHeight': False, 'trialN': 38, 'loaded': True, 'loadedTime': 4805.0999999996275, 'positionName': 'RIGHT', 'positionCoords': [998.4, 334.5], 'bid': 2.41}]",66052.40000000037,1669838766426,hashbrowns,cherries,1.27,2.41,1.1400000000000001,cherries,1070.5,1071,1070.7999999988824,True,i,67627.80000000075,1575.4000000003725,1669838768001,1575,HRV,HRV_0271,2022-11-30 20:09:54
39,"[{'imgObject': {}, 'id': 'olives', 'src': '/static/foodstim60/olives.jpg', 'key': 'u', 'origWidth': 410, 'origHeight': 410, 'width': 410, 'height': 410, 'widthPercent': 0.45, 'rescaleHeight': False, 'trialN': 39, 'loaded': True, 'loadedTime': 4529.9000000003725, 'positionName': 'LEFT', 'positionCoords': [511.6, 335], 'bid': 0.12}, {'imgObject': {}, 'id': 'eggsalad', 'src': '/static/foodstim60/eggsalad.jpg', 'key': 'i', 'origWidth': 410, 'origHeight': 409, 'width': 410, 'height': 409, 'widthPercent': 0.45, 'rescaleHeight': False, 'trialN': 39, 'loaded': True, 'loadedTime': 4728.699999999255, 'positionName': 'RIGHT', 'positionCoords': [998.4, 335.5], 'bid': 1.64}]",67627.90000000037,1669838768001,olives,eggsalad,0.12,1.64,1.52,eggsalad,882.6999999992549,883,883.0,True,i,69012.19999999925,1384.2999999988824,1669838769386,1385,HRV,HRV_0271,2022-11-30 20:09:54
40,"[{'imgObject': {}, 'id': 'Grapes', 'src': '/static/foodstim60/Grapes.jpg', 'key': 'u', 'origWidth': 411, 'origHeight': 411, 'width': 411, 'height': 411, 'widthPercent': 0.45, 'rescaleHeight': False, 'trialN': 40, 'loaded': True, 'loadedTime': 4805.9000000003725, 'positionName': 'LEFT', 'positionCoords': [510.6, 334.5], 'bid': 7.09}, {'imgObject': {}, 'id': 'roastedpotatoes', 'src': '/static/foodstim60/roastedpotatoes.jpg', 'key': 'i', 'origWidth': 409, 'origHeight': 410, 'width': 409, 'height': 410, 'widthPercent': 0.45, 'rescaleHeight': False, 'trialN': 40, 'loaded': True, 'loadedTime': 4871.5, 'positionName': 'RIGHT', 'positionCoords': [998.4, 335], 'bid': 6.4}]",69012.30000000075,1669838769386,Grapes,roastedpotatoes,7.09,6.4,-0.6899999999999995,roastedpotatoes,1232.0999999996275,1232,1232.5,True,i,70747.5,1735.199999999255,1669838771121,1735,HRV,HRV_0271,2022-11-30 20:09:54
41,"[{'imgObject': {}, 'id': 'luckycharms', 'src': '/static/foodstim60/luckycharms.jpg', 'key': 'u', 'origWidth': 410, 'origHeight': 409, 'width': 410, 'height': 409, 'widthPercent': 0.45, 'rescaleHeight': False, 'trialN': 41, 'loaded': True, 'loadedTime': 4875.800000000745, 'positionName': 'LEFT', 'positionCoords': [511.6, 335.5], 'bid': 3.85}, {'imgObject': {}, 'id': 'cocktailshrimp', 'src': '/static/foodstim60/cocktailshrimp.jpg', 'key': 'i', 'origWidth': 410, 'origHeight': 410, 'width': 410, 'height': 410, 'widthPercent': 0.45, 'rescaleHeight': False, 'trialN': 41, 'loaded': True, 'loadedTime': 4641.800000000745, 'positionName': 'RIGHT', 'positionCoords': [998.4, 335], 'bid': 4.29}]",70747.69999999925,1669838771121,luckycharms,cocktailshrimp,3.85,4.29,0.43999999999999995,cocktailshrimp,1071.6000000014901,1072,1071.9000000003725,True,i,72324.30000000075,1576.6000000014901,1669838772698,1577,HRV,HRV_0271,2022-11-30 20:09:54
42,"[{'imgObject': {}, 'id': 'shreddedwheatwithmilk', 'src': '/static/foodstim60/shreddedwheatwithmilk.jpg', 'key': 'u', 'origWidth': 410, 'origHeight': 410, 'width': 410, 'height': 410, 'widthPercent': 0.45, 'rescaleHeight': False, 'trialN': 42, 'loaded': True, 'loadedTime': 3676.9000000003725, 'positionName': 'LEFT', 'positionCoords': [511.6, 335], 'bid': 0.12}, {'imgObject': {}, 'id': 'tacos', 'src': '/static/foodstim60/tacos.jpg', 'key': 'i', 'origWidth': 411, 'origHeight': 411, 'width': 411, 'height': 411, 'widthPercent': 0.45, 'rescaleHeight': False, 'trialN': 42, 'loaded': True, 'loadedTime': 3789.9000000003725, 'positionName': 'RIGHT', 'positionCoords': [998.4, 334.5], 'bid': 1.04}]",72324.59999999963,1669838772698,shreddedwheatwithmilk,tacos,0.12,1.04,0.92,tacos,1259.0,1259,1259.300000000745,True,i,74084.30000000075,1759.7000000011176,1669838774458,1760,HRV,HRV_0271,2022-11-30 20:09:54
43,"[{'imgObject': {}, 'id': 'sweetpotato', 'src': '/static/foodstim60/sweetpotato.jpg', 'key': 'u', 'origWidth': 410, 'origHeight': 410, 'width': 410, 'height': 410, 'widthPercent': 0.45, 'rescaleHeight': False, 'trialN': 43, 'loaded': True, 'loadedTime': 4104.800000000745, 'positionName': 'LEFT', 'positionCoords': [511.6, 335], 'bid': 6.8}, {'imgObject': {}, 'id': 'mango', 'src': '/static/foodstim60/mango.jpg', 'key': 'i', 'origWidth': 411, 'origHeight': 411, 'width': 411, 'height': 411, 'widthPercent': 0.45, 'rescaleHeight': False, 'trialN': 43, 'loaded': True, 'loadedTime': 4877.4000000003725, 'positionName': 'RIGHT', 'positionCoords': [998.4, 334.5], 'bid': 7.1000000000000005}]",74084.40000000037,1669838774458,sweetpotato,mango,6.8,7.1000000000000005,0.3000000000000007,sweetpotato,1170.0999999996275,1170,1170.4000000003725,True,u,75755.5,1671.0999999996275,1669838776129,1671,HRV,HRV_0271,2022-11-30 20:09:54
44,"[{'imgObject': {}, 'id': 'raisin bran w milk', 'src': '/static/foodstim60/raisin bran w milk.jpg', 'key': 'u', 'origWidth': 411, 'origHeight': 411, 'width': 411, 'height': 411, 'widthPercent': 0.45, 'rescaleHeight': False, 'trialN': 44, 'loaded': True, 'loadedTime': 4169.199999999255, 'positionName': 'LEFT', 'positionCoords': [510.6, 334.5], 'bid': 5.9}, {'imgObject': {}, 'id': 'chickenfingers', 'src': '/static/foodstim60/chickenfingers.jpg', 'key': 'i', 'origWidth': 410, 'origHeight': 410, 'width': 410, 'height': 410, 'widthPercent': 0.45, 'rescaleHeight': False, 'trialN': 44, 'loaded': True, 'loadedTime': 4885.5999999996275, 'positionName': 'RIGHT', 'positionCoords': [998.4, 335], 'bid': 7.16}]",75755.69999999925,1669838776129,raisin bran w milk,chickenfingers,5.9,7.16,1.2599999999999998,chickenfingers,1094.800000000745,1095,1095.0,True,i,77356.19999999925,1600.5,1669838777730,1601,HRV,HRV_0271,2022-11-30 20:09:54
45,"[{'imgObject': {}, 'id': 'rigatoni', 'src': '/static/foodstim60/rigatoni.jpg', 'key': 'u', 'origWidth': 411, 'origHeight': 411, 'width': 411, 'height': 411, 'widthPercent': 0.45, 'rescaleHeight': False, 'trialN': 45, 'loaded': True, 'loadedTime': 4885.5999999996275, 'positionName': 'LEFT', 'positionCoords': [510.6, 334.5], 'bid': 0.86}, {'imgObject': {}, 'id': 'edamame', 'src': '/static/foodstim60/edamame.jpg', 'key': 'i', 'origWidth': 409, 'origHeight': 410, 'width': 409, 'height': 410, 'widthPercent': 0.45, 'rescaleHeight': False, 'trialN': 45, 'loaded': True, 'loadedTime': 4955.0999999996275, 'positionName': 'RIGHT', 'positionCoords': [998.4, 335], 'bid': 0.21}]",77356.30000000075,1669838777730,rigatoni,edamame,0.86,0.21,-0.65,rigatoni,941.1999999992549,941,941.5999999996275,True,u,78804.30000000075,1448.0,1669838779178,1448,HRV,HRV_0271,2022-11-30 20:09:54
46,"[{'imgObject': {}, 'id': 'corn cob', 'src': '/static/foodstim60/corn cob.jpg', 'key': 'u', 'origWidth': 411, 'origHeight': 411, 'width': 411, 'height': 411, 'widthPercent': 0.45, 'rescaleHeight': False, 'trialN': 46, 'loaded': True, 'loadedTime': 4958.800000000745, 'positionName': 'LEFT', 'positionCoords': [510.6, 334.5], 'bid': 2.27}, {'imgObject': {}, 'id': 'sushi w_condiments', 'src': '/static/foodstim60/sushi w_condiments.jpg', 'key': 'i', 'origWidth': 410, 'origHeight': 410, 'width': 410, 'height': 410, 'widthPercent': 0.45, 'rescaleHeight': False, 'trialN': 46, 'loaded': True, 'loadedTime': 3802.4000000003725, 'positionName': 'RIGHT', 'positionCoords': [998.4, 335], 'bid': 3.43}]",78804.5,1669838779178,corn cob,sushi w_condiments,2.27,3.43,1.1600000000000001,corn cob,1245.4000000003725,1246,1245.5999999996275,True,u,80555.69999999925,1751.199999999255,1669838780929,1751,HRV,HRV_0271,2022-11-30 20:09:54
47,"[{'imgObject': {}, 'id': 'luckycharms', 'src': '/static/foodstim60/luckycharms.jpg', 'key': 'u', 'origWidth': 410, 'origHeight': 409, 'width': 410, 'height': 409, 'widthPercent': 0.45, 'rescaleHeight': False, 'trialN': 47, 'loaded': True, 'loadedTime': 4875.5, 'positionName': 'LEFT', 'positionCoords': [511.6, 335.5], 'bid': 3.85}, {'imgObject': {}, 'id': 'roastedpotatoes', 'src': '/static/foodstim60/roastedpotatoes.jpg', 'key': 'i', 'origWidth': 409, 'origHeight': 410, 'width': 409, 'height': 410, 'widthPercent': 0.45, 'rescaleHeight': False, 'trialN': 47, 'loaded': True, 'loadedTime': 4837.300000000745, 'positionName': 'RIGHT', 'positionCoords': [998.4, 335], 'bid': 6.4}]",80555.90000000037,1669838780929,luckycharms,roastedpotatoes,3.85,6.4,2.5500000000000003,roastedpotatoes,871.4000000003725,872,871.6999999992549,True,i,81932.30000000075,1376.4000000003725,1669838782306,1377,HRV,HRV_0271,2022-11-30 20:09:54
48,"[{'imgObject': {}, 'id': 'mac & cheese', 'src': '/static/foodstim60/mac & cheese.jpg', 'key': 'u', 'origWidth': 410, 'origHeight': 410, 'width': 410, 'height': 410, 'widthPercent': 0.45, 'rescaleHeight': False, 'trialN': 48, 'loaded': True, 'loadedTime': 3965.199999999255, 'positionName': 'LEFT', 'positionCoords': [511.6, 335], 'bid': 5.7700000000000005}, {'imgObject': {}, 'id': 'burrito', 'src': '/static/foodstim60/burrito.jpg', 'key': 'i', 'origWidth': 410, 'origHeight': 410, 'width': 410, 'height': 410, 'widthPercent': 0.45, 'rescaleHeight': False, 'trialN': 48, 'loaded': True, 'loadedTime': 4313, 'positionName': 'RIGHT', 'positionCoords': [998.4, 335], 'bid': 6.29}]",81932.40000000037,1669838782306,mac & cheese,burrito,5.7700000000000005,6.29,0.5199999999999996,mac & cheese,959.5,960,959.6999999992549,True,u,83395.90000000037,1463.5,1669838783769,1463,HRV,HRV_0271,2022-11-30 20:09:54
49,"[{'imgObject': {}, 'id': 'hotdog w must', 'src': '/static/foodstim60/hotdog w must.jpg', 'key': 'u', 'origWidth': 409, 'origHeight': 409, 'width': 409, 'height': 409, 'widthPercent': 0.45, 'rescaleHeight': False, 'trialN': 49, 'loaded': True, 'loadedTime': 4003.800000000745, 'positionName': 'LEFT', 'positionCoords': [512.6, 335.5], 'bid': 0.64}, {'imgObject': {}, 'id': 'bagel plain', 'src': '/static/foodstim60/bagel plain.jpg', 'key': 'i', 'origWidth': 410, 'origHeight': 410, 'width': 410, 'height': 410, 'widthPercent': 0.45, 'rescaleHeight': False, 'trialN': 49, 'loaded': True, 'loadedTime': 4010.300000000745, 'positionName': 'RIGHT', 'positionCoords': [998.4, 335], 'bid': 0.8200000000000001}]",83396.19999999925,1669838783770,hotdog w must,bagel plain,0.64,0.8200000000000001,0.18000000000000005,hotdog w must,1193.5,1193,1193.7000000011176,True,u,85092.09999999963,1695.9000000003725,1669838785466,1696,HRV,HRV_0271,2022-11-30 20:09:54
50,"[{'imgObject': {}, 'id': 'luckycharms', 'src': '/static/foodstim60/luckycharms.jpg', 'key': 'u', 'origWidth': 410, 'origHeight': 409, 'width': 410, 'height': 409, 'widthPercent': 0.45, 'rescaleHeight': False, 'trialN': 50, 'loaded': True, 'loadedTime': 4875.5999999996275, 'positionName': 'LEFT', 'positionCoords': [511.6, 335.5], 'bid': 3.85}, {'imgObject': {}, 'id': 'rigatoni and sauce', 'src': '/static/foodstim60/rigatoni and sauce.jpg', 'key': 'i', 'origWidth': 410, 'origHeight': 411, 'width': 410, 'height': 411, 'widthPercent': 0.45, 'rescaleHeight': False, 'trialN': 50, 'loaded': True, 'loadedTime': 4233.9000000003725, 'positionName': 'RIGHT', 'positionCoords': [998.4, 334.5], 'bid': 2.18}]",85092.19999999925,1669838785466,luckycharms,rigatoni and sauce,3.85,2.18,-1.67,luckycharms,1092.300000000745,1092,1092.7000000011176,True,u,86692.40000000037,1600.2000000011176,1669838787066,1600,HRV,HRV_0271,2022-11-30 20:09:54
51,"[{'imgObject': {}, 'id': 'turkey sandwich', 'src': '/static/foodstim60/turkey sandwich.jpg', 'key': 'u', 'origWidth': 409, 'origHeight': 409, 'width': 409, 'height': 409, 'widthPercent': 0.45, 'rescaleHeight': False, 'trialN': 51, 'loaded': True, 'loadedTime': 4192.699999999255, 'positionName': 'LEFT', 'positionCoords': [512.6, 335.5], 'bid': 6.62}, {'imgObject': {}, 'id': 'roastedpotatoes', 'src': '/static/foodstim60/roastedpotatoes.jpg', 'key': 'i', 'origWidth': 409, 'origHeight': 410, 'width': 409, 'height': 410, 'widthPercent': 0.45, 'rescaleHeight': False, 'trialN': 51, 'loaded': True, 'loadedTime': 4871.0999999996275, 'positionName': 'RIGHT', 'positionCoords': [998.4, 335], 'bid': 6.4}]",86692.59999999963,1669838787066,turkey sandwich,roastedpotatoes,6.62,6.4,-0.21999999999999975,turkey sandwich,1321.0,1321,1321.300000000745,True,u,88515.80000000075,1823.2000000011176,1669838788889,1823,HRV,HRV_0271,2022-11-30 20:09:54
52,"[{'imgObject': {}, 'id': 'steak', 'src': '/static/foodstim60/steak.jpg', 'key': 'u', 'origWidth': 410, 'origHeight': 410, 'width': 410, 'height': 410, 'widthPercent': 0.45, 'rescaleHeight': False, 'trialN': 52, 'loaded': True, 'loadedTime': 4188.5, 'positionName': 'LEFT', 'positionCoords': [511.6, 335], 'bid': 6.71}, {'imgObject': {}, 'id': 'burger', 'src': '/static/foodstim60/burger.jpg', 'key': 'i', 'origWidth': 409, 'origHeight': 409, 'width': 409, 'height': 409, 'widthPercent': 0.45, 'rescaleHeight': False, 'trialN': 52, 'loaded': True, 'loadedTime': 4957.0999999996275, 'positionName': 'RIGHT', 'positionCoords': [998.4, 335.5], 'bid': 4.98}]",88516.0,1669838788889,steak,burger,6.71,4.98,-1.7299999999999995,steak,1509.0,1510,1509.300000000745,True,u,90532.5,2016.5,1669838790906,2017,HRV,HRV_0271,2022-11-30 20:09:54
53,"[{'imgObject': {}, 'id': 'fruitsalad', 'src': '/static/foodstim60/fruitsalad.jpg', 'key': 'u', 'origWidth': 410, 'origHeight': 410, 'width': 410, 'height': 410, 'widthPercent': 0.45, 'rescaleHeight': False, 'trialN': 53, 'loaded': True, 'loadedTime': 4180.4000000003725, 'positionName': 'LEFT', 'positionCoords': [511.6, 335], 'bid': 5.71}, {'imgObject': {}, 'id': 'avocado', 'src': '/static/foodstim60/avocado.jpg', 'key': 'i', 'origWidth': 409, 'origHeight': 409, 'width': 409, 'height': 409, 'widthPercent': 0.45, 'rescaleHeight': False, 'trialN': 53, 'loaded': True, 'loadedTime': 4994.199999999255, 'positionName': 'RIGHT', 'positionCoords': [998.4, 335.5], 'bid': 5.1000000000000005}]",90532.59999999963,1669838790906,fruitsalad,avocado,5.71,5.1000000000000005,-0.6099999999999994,avocado,1072.800000000745,1073,1073.0,True,i,92107.5,1574.9000000003725,1669838792481,1575,HRV,HRV_0271,2022-11-30 20:09:54
54,"[{'imgObject': {}, 'id': 'granola w milk', 'src': '/static/foodstim60/granola w milk.jpg', 'key': 'u', 'origWidth': 410, 'origHeight': 410, 'width': 410, 'height': 410, 'widthPercent': 0.45, 'rescaleHeight': False, 'trialN': 54, 'loaded': True, 'loadedTime': 4995.199999999255, 'positionName': 'LEFT', 'positionCoords': [511.6, 335], 'bid': 5.45}, {'imgObject': {}, 'id': 'sweetpotato', 'src': '/static/foodstim60/sweetpotato.jpg', 'key': 'i', 'origWidth': 410, 'origHeight': 410, 'width': 410, 'height': 410, 'widthPercent': 0.45, 'rescaleHeight': False, 'trialN': 54, 'loaded': True, 'loadedTime': 4072.5999999996275, 'positionName': 'RIGHT', 'positionCoords': [998.4, 335], 'bid': 6.8}]",92107.59999999963,1669838792481,granola w milk,sweetpotato,5.45,6.8,1.3499999999999996,sweetpotato,919.4000000003725,920,919.7000000011176,True,i,93531.59999999963,1424.0,1669838793905,1424,HRV,HRV_0271,2022-11-30 20:09:54
55,"[{'imgObject': {}, 'id': 'froot loops w milk', 'src': '/static/foodstim60/froot loops w milk.jpg', 'key': 'u', 'origWidth': 410, 'origHeight': 410, 'width': 410, 'height': 410, 'widthPercent': 0.45, 'rescaleHeight': False, 'trialN': 55, 'loaded': True, 'loadedTime': 4160.5, 'positionName': 'LEFT', 'positionCoords': [511.6, 335], 'bid': 6.34}, {'imgObject': {}, 'id': 'raspberries', 'src': '/static/foodstim60/raspberries.jpg', 'key': 'i', 'origWidth': 411, 'origHeight': 411, 'width': 411, 'height': 411, 'widthPercent': 0.45, 'rescaleHeight': False, 'trialN': 55, 'loaded': True, 'loadedTime': 3996.5999999996275, 'positionName': 'RIGHT', 'positionCoords': [998.4, 334.5], 'bid': 7.2}]",93531.69999999925,1669838793905,froot loops w milk,raspberries,6.34,7.2,0.8600000000000003,raspberries,778.3000000007451,779,778.5,True,i,94811.90000000037,1280.2000000011176,1669838795185,1280,HRV,HRV_0271,2022-11-30 20:09:54
56,"[{'imgObject': {}, 'id': 'corn cob', 'src': '/static/foodstim60/corn cob.jpg', 'key': 'u', 'origWidth': 411, 'origHeight': 411, 'width': 411, 'height': 411, 'widthPercent': 0.45, 'rescaleHeight': False, 'trialN': 56, 'loaded': True, 'loadedTime': 4958.5, 'positionName': 'LEFT', 'positionCoords': [510.6, 334.5], 'bid': 2.27}, {'imgObject': {}, 'id': 'ice cream sundae 002', 'src': '/static/foodstim60/ice cream sundae 002.jpg', 'key': 'i', 'origWidth': 409, 'origHeight': 409, 'width': 409, 'height': 409, 'widthPercent': 0.45, 'rescaleHeight': False, 'trialN': 56, 'loaded': True, 'loadedTime': 3882.199999999255, 'positionName': 'RIGHT', 'positionCoords': [998.4, 335.5], 'bid': 2.63}]",94812.09999999963,1669838795186,corn cob,ice cream sundae 002,2.27,2.63,0.3599999999999999,corn cob,1098.2000000011176,1098,1098.4000000003725,True,u,96411.90000000037,1599.800000000745,1669838796785,1599,HRV,HRV_0271,2022-11-30 20:09:54
57,"[{'imgObject': {}, 'id': 'bagel and cc', 'src': '/static/foodstim60/bagel and cc.jpg', 'key': 'u', 'origWidth': 410, 'origHeight': 410, 'width': 410, 'height': 410, 'widthPercent': 0.45, 'rescaleHeight': False, 'trialN': 57, 'loaded': True, 'loadedTime': 3979.300000000745, 'positionName': 'LEFT', 'positionCoords': [511.6, 335], 'bid': 1.93}, {'imgObject': {}, 'id': 'mashed potato', 'src': '/static/foodstim60/mashed potato.jpg', 'key': 'i', 'origWidth': 409, 'origHeight': 409, 'width': 409, 'height': 409, 'widthPercent': 0.45, 'rescaleHeight': False, 'trialN': 57, 'loaded': True, 'loadedTime': 4996.300000000745, 'positionName': 'RIGHT', 'positionCoords': [998.4, 335.5], 'bid': 0.92}]",96412.0,1669838796785,bagel and cc,mashed potato,1.93,0.92,-1.0099999999999998,mashed potato,888.0,889,888.4000000003725,True,i,97804.09999999963,1392.0999999996275,1669838798177,1392,HRV,HRV_0271,2022-11-30 20:09:54
58,"[{'imgObject': {}, 'id': 'orange slices', 'src': '/static/foodstim60/orange slices.jpg', 'key': 'u', 'origWidth': 409, 'origHeight': 410, 'width': 409, 'height': 410, 'widthPercent': 0.45, 'rescaleHeight': False, 'trialN': 58, 'loaded': True, 'loadedTime': 3733.699999999255, 'positionName': 'LEFT', 'positionCoords': [512.6, 335], 'bid': 1.29}, {'imgObject': {}, 'id': 'edamame', 'src': '/static/foodstim60/edamame.jpg', 'key': 'i', 'origWidth': 409, 'origHeight': 410, 'width': 409, 'height': 410, 'widthPercent': 0.45, 'rescaleHeight': False, 'trialN': 58, 'loaded': True, 'loadedTime': 4955.4000000003725, 'positionName': 'RIGHT', 'positionCoords': [998.4, 335], 'bid': 0.21}]",97804.19999999925,1669838798178,orange slices,edamame,1.29,0.21,-1.08,orange slices,875.5,875,875.8000000007451,True,u,99188.19999999925,1384.0,1669838799562,1384,HRV,HRV_0271,2022-11-30 20:09:54
59,"[{'imgObject': {}, 'id': 'baked potato', 'src': '/static/foodstim60/baked potato.jpg', 'key': 'u', 'origWidth': 409, 'origHeight': 410, 'width': 409, 'height': 410, 'widthPercent': 0.45, 'rescaleHeight': False, 'trialN': 59, 'loaded': True, 'loadedTime': 4648.300000000745, 'positionName': 'LEFT', 'positionCoords': [512.6, 335], 'bid': 3.75}, {'imgObject': {}, 'id': 'cherries', 'src': '/static/foodstim60/cherries.jpg', 'key': 'i', 'origWidth': 410, 'origHeight': 411, 'width': 410, 'height': 411, 'widthPercent': 0.45, 'rescaleHeight': False, 'trialN': 59, 'loaded': True, 'loadedTime': 4805.5999999996275, 'positionName': 'RIGHT', 'positionCoords': [998.4, 334.5], 'bid': 2.41}]",99188.30000000075,1669838799562,baked potato,cherries,3.75,2.41,-1.3399999999999999,baked potato,771.5999999996275,772,771.8999999985099,True,u,100467.80000000075,1279.5,1669838800841,1279,HRV,HRV_0271,2022-11-30 20:09:54
60,"[{'imgObject': {}, 'id': 'cherry tomato', 'src': '/static/foodstim60/cherry tomato.jpg', 'key': 'u', 'origWidth': 410, 'origHeight': 410, 'width': 410, 'height': 410, 'widthPercent': 0.45, 'rescaleHeight': False, 'trialN': 60, 'loaded': True, 'loadedTime': 3964.9000000003725, 'positionName': 'LEFT', 'positionCoords': [511.6, 335], 'bid': 3.37}, {'imgObject': {}, 'id': 'eggs', 'src': '/static/foodstim60/eggs.jpg', 'key': 'i', 'origWidth': 409, 'origHeight': 409, 'width': 409, 'height': 409, 'widthPercent': 0.45, 'rescaleHeight': False, 'trialN': 60, 'loaded': True, 'loadedTime': 5032.699999999255, 'positionName': 'RIGHT', 'positionCoords': [998.4, 335.5], 'bid': 2.22}]",100468.09999999963,1669838800842,cherry tomato,eggs,3.37,2.22,-1.15,eggs,1272.800000000745,1273,1273.0999999996275,True,i,102244.19999999925,1776.0999999996275,1669838802618,1776,HRV,HRV_0271,2022-11-30 20:09:54
61,"[{'imgObject': {}, 'id': 'luckycharms', 'src': '/static/foodstim60/luckycharms.jpg', 'key': 'u', 'origWidth': 410, 'origHeight': 409, 'width': 410, 'height': 409, 'widthPercent': 0.45, 'rescaleHeight': False, 'trialN': 61, 'loaded': True, 'loadedTime': 4875.800000000745, 'positionName': 'LEFT', 'positionCoords': [511.6, 335.5], 'bid': 3.85}, {'imgObject': {}, 'id': 'baked potato', 'src': '/static/foodstim60/baked potato.jpg', 'key': 'i', 'origWidth': 409, 'origHeight': 410, 'width': 409, 'height': 410, 'widthPercent': 0.45, 'rescaleHeight': False, 'trialN': 61, 'loaded': True, 'loadedTime': 4692.199999999255, 'positionName': 'RIGHT', 'positionCoords': [998.4, 335], 'bid': 3.75}]",102244.40000000037,1669838802618,luckycharms,baked potato,3.85,3.75,-0.10000000000000009,baked potato,1170.4000000003725,1171,1170.699999999255,True,i,103916.30000000075,1671.9000000003725,1669838804290,1672,HRV,HRV_0271,2022-11-30 20:09:54
62,"[{'imgObject': {}, 'id': 'pear', 'src': '/static/foodstim60/pear.jpg', 'key': 'u', 'origWidth': 411, 'origHeight': 410, 'width': 411, 'height': 410, 'widthPercent': 0.45, 'rescaleHeight': False, 'trialN': 62, 'loaded': True, 'loadedTime': 5033.5999999996275, 'positionName': 'LEFT', 'positionCoords': [510.6, 335], 'bid': 0.6}, {'imgObject': {}, 'id': 'hashbrowns', 'src': '/static/foodstim60/hashbrowns.jpg', 'key': 'i', 'origWidth': 411, 'origHeight': 410, 'width': 411, 'height': 410, 'widthPercent': 0.45, 'rescaleHeight': False, 'trialN': 62, 'loaded': True, 'loadedTime': 4729.9000000003725, 'positionName': 'RIGHT', 'positionCoords': [998.4, 335], 'bid': 1.27}]",103916.40000000037,1669838804290,pear,hashbrowns,0.6,1.27,0.67,pear,1033.0,1033,1033.4000000003725,True,u,105451.90000000037,1535.5,1669838805825,1535,HRV,HRV_0271,2022-11-30 20:09:54
63,"[{'imgObject': {}, 'id': 'orange slices', 'src': '/static/foodstim60/orange slices.jpg', 'key': 'u', 'origWidth': 409, 'origHeight': 410, 'width': 409, 'height': 410, 'widthPercent': 0.45, 'rescaleHeight': False, 'trialN': 63, 'loaded': True, 'loadedTime': 3782, 'positionName': 'LEFT', 'positionCoords': [512.6, 335], 'bid': 1.29}, {'imgObject': {}, 'id': 'salad w chicken', 'src': '/static/foodstim60/salad w chicken.jpg', 'key': 'i', 'origWidth': 411, 'origHeight': 411, 'width': 411, 'height': 411, 'widthPercent': 0.45, 'rescaleHeight': False, 'trialN': 63, 'loaded': True, 'loadedTime': 4320.300000000745, 'positionName': 'RIGHT', 'positionCoords': [998.4, 334.5], 'bid': 6}]",105452.0,1669838805825,orange slices,salad w chicken,1.29,6.0,4.71,salad w chicken,760.3000000007451,761,760.5,True,i,106716.30000000075,1264.300000000745,1669838807090,1265,HRV,HRV_0271,2022-11-30 20:09:54
64,"[{'imgObject': {}, 'id': 'corn cob', 'src': '/static/foodstim60/corn cob.jpg', 'key': 'u', 'origWidth': 411, 'origHeight': 411, 'width': 411, 'height': 411, 'widthPercent': 0.45, 'rescaleHeight': False, 'trialN': 64, 'loaded': True, 'loadedTime': 4958.5999999996275, 'positionName': 'LEFT', 'positionCoords': [510.6, 334.5], 'bid': 2.27}, {'imgObject': {}, 'id': 'tacos', 'src': '/static/foodstim60/tacos.jpg', 'key': 'i', 'origWidth': 411, 'origHeight': 411, 'width': 411, 'height': 411, 'widthPercent': 0.45, 'rescaleHeight': False, 'trialN': 64, 'loaded': True, 'loadedTime': 3799.800000000745, 'positionName': 'RIGHT', 'positionCoords': [998.4, 334.5], 'bid': 1.04}]",106716.5,1669838807090,corn cob,tacos,2.27,1.04,-1.23,corn cob,1616.5,1617,1616.800000000745,True,u,108836.30000000075,2119.800000000745,1669838809210,2120,HRV,HRV_0271,2022-11-30 20:09:54
65,"[{'imgObject': {}, 'id': 'pear', 'src': '/static/foodstim60/pear.jpg', 'key': 'u', 'origWidth': 411, 'origHeight': 410, 'width': 411, 'height': 410, 'widthPercent': 0.45, 'rescaleHeight': False, 'trialN': 65, 'loaded': True, 'loadedTime': 5034, 'positionName': 'LEFT', 'positionCoords': [510.6, 335], 'bid': 0.6}, {'imgObject': {}, 'id': 'cocktailshrimp', 'src': '/static/foodstim60/cocktailshrimp.jpg', 'key': 'i', 'origWidth': 410, 'origHeight': 410, 'width': 410, 'height': 410, 'widthPercent': 0.45, 'rescaleHeight': False, 'trialN': 65, 'loaded': True, 'loadedTime': 4607.0999999996275, 'positionName': 'RIGHT', 'positionCoords': [998.4, 335], 'bid': 4.29}]",108836.5,1669838809210,pear,cocktailshrimp,0.6,4.29,3.69,cocktailshrimp,752.0999999996275,752,752.5,True,i,110092.09999999963,1255.5999999996275,1669838810466,1256,HRV,HRV_0271,2022-11-30 20:09:54
66,"[{'imgObject': {}, 'id': 'eggsalad', 'src': '/static/foodstim60/eggsalad.jpg', 'key': 'u', 'origWidth': 410, 'origHeight': 409, 'width': 410, 'height': 409, 'widthPercent': 0.45, 'rescaleHeight': False, 'trialN': 66, 'loaded': True, 'loadedTime': 4728.800000000745, 'positionName': 'LEFT', 'positionCoords': [511.6, 335.5], 'bid': 1.64}, {'imgObject': {}, 'id': 'kiwi', 'src': '/static/foodstim60/kiwi.jpg', 'key': 'i', 'origWidth': 410, 'origHeight': 410, 'width': 410, 'height': 410, 'widthPercent': 0.45, 'rescaleHeight': False, 'trialN': 66, 'loaded': True, 'loadedTime': 3977.800000000745, 'positionName': 'RIGHT', 'positionCoords': [998.4, 335], 'bid': 1.91}]",110092.30000000075,1669838810466,eggsalad,kiwi,1.64,1.91,0.27,eggsalad,1210.5999999996275,1211,1210.8999999985099,True,u,111803.69999999925,1711.3999999985099,1669838812177,1711,HRV,HRV_0271,2022-11-30 20:09:54
67,"[{'imgObject': {}, 'id': 'lox', 'src': '/static/foodstim60/lox.jpg', 'key': 'u', 'origWidth': 410, 'origHeight': 411, 'width': 410, 'height': 411, 'widthPercent': 0.45, 'rescaleHeight': False, 'trialN': 67, 'loaded': True, 'loadedTime': 3815.800000000745, 'positionName': 'LEFT', 'positionCoords': [511.6, 334.5], 'bid': 0.54}, {'imgObject': {}, 'id': 'pear', 'src': '/static/foodstim60/pear.jpg', 'key': 'i', 'origWidth': 411, 'origHeight': 410, 'width': 411, 'height': 410, 'widthPercent': 0.45, 'rescaleHeight': False, 'trialN': 67, 'loaded': True, 'loadedTime': 5033.699999999255, 'positionName': 'RIGHT', 'positionCoords': [998.4, 335], 'bid': 0.6}]",111804.0,1669838812177,lox,pear,0.54,0.6,0.05999999999999994,pear,824.9000000003725,826,825.3000000007451,True,i,113132.59999999963,1328.5999999996275,1669838813506,1329,HRV,HRV_0271,2022-11-30 20:09:54
68,"[{'imgObject': {}, 'id': 'granola w milk', 'src': '/static/foodstim60/granola w milk.jpg', 'key': 'u', 'origWidth': 410, 'origHeight': 410, 'width': 410, 'height': 410, 'widthPercent': 0.45, 'rescaleHeight': False, 'trialN': 68, 'loaded': True, 'loadedTime': 4994.199999999255, 'positionName': 'LEFT', 'positionCoords': [511.6, 335], 'bid': 5.45}, {'imgObject': {}, 'id': 'chicken nuggets2', 'src': '/static/foodstim60/chicken nuggets2.jpg', 'key': 'i', 'origWidth': 410, 'origHeight': 409, 'width': 410, 'height': 409, 'widthPercent': 0.45, 'rescaleHeight': False, 'trialN': 68, 'loaded': True, 'loadedTime': 4565.5, 'positionName': 'RIGHT', 'positionCoords': [998.4, 335.5], 'bid': 6.140000000000001}]",113132.80000000075,1669838813506,granola w milk,chicken nuggets2,5.45,6.140000000000001,0.6900000000000004,chicken nuggets2,995.5,996,995.7999999988824,True,i,114636.30000000075,1503.5,1669838815010,1504,HRV,HRV_0271,2022-11-30 20:09:54
69,"[{'imgObject': {}, 'id': 'grilled chicken strips', 'src': '/static/foodstim60/grilled chicken strips.jpg', 'key': 'u', 'origWidth': 410, 'origHeight': 411, 'width': 410, 'height': 411, 'widthPercent': 0.45, 'rescaleHeight': False, 'trialN': 69, 'loaded': True, 'loadedTime': 4727.0999999996275, 'positionName': 'LEFT', 'positionCoords': [511.6, 334.5], 'bid': 7.5}, {'imgObject': {}, 'id': 'roastedpotatoes', 'src': '/static/foodstim60/roastedpotatoes.jpg', 'key': 'i', 'origWidth': 409, 'origHeight': 410, 'width': 409, 'height': 410, 'widthPercent': 0.45, 'rescaleHeight': False, 'trialN': 69, 'loaded': True, 'loadedTime': 4871.300000000745, 'positionName': 'RIGHT', 'positionCoords': [998.4, 335], 'bid': 6.4}]",114636.40000000037,1669838815010,grilled chicken strips,roastedpotatoes,7.5,6.4,-1.0999999999999996,roastedpotatoes,1864.4000000003725,1865,1864.699999999255,True,i,117003.5,2367.0999999996275,1669838817377,2367,HRV,HRV_0271,2022-11-30 20:09:54
70,"[{'imgObject': {}, 'id': 'luckycharms', 'src': '/static/foodstim60/luckycharms.jpg', 'key': 'u', 'origWidth': 410, 'origHeight': 409, 'width': 410, 'height': 409, 'widthPercent': 0.45, 'rescaleHeight': False, 'trialN': 70, 'loaded': True, 'loadedTime': 4875.9000000003725, 'positionName': 'LEFT', 'positionCoords': [511.6, 335.5], 'bid': 3.85}, {'imgObject': {}, 'id': 'ice cream sundae 002', 'src': '/static/foodstim60/ice cream sundae 002.jpg', 'key': 'i', 'origWidth': 409, 'origHeight': 409, 'width': 409, 'height': 409, 'widthPercent': 0.45, 'rescaleHeight': False, 'trialN': 70, 'loaded': True, 'loadedTime': 3881.5999999996275, 'positionName': 'RIGHT', 'positionCoords': [998.4, 335.5], 'bid': 2.63}]",117003.59999999963,1669838817377,luckycharms,ice cream sundae 002,3.85,2.63,-1.2200000000000002,luckycharms,787.7000000011176,788,788.0,True,u,118292.30000000075,1288.7000000011176,1669838818666,1289,HRV,HRV_0271,2022-11-30 20:09:54
71,"[{'imgObject': {}, 'id': 'hotdog w must', 'src': '/static/foodstim60/hotdog w must.jpg', 'key': 'u', 'origWidth': 409, 'origHeight': 409, 'width': 409, 'height': 409, 'widthPercent': 0.45, 'rescaleHeight': False, 'trialN': 71, 'loaded': True, 'loadedTime': 4003.0999999996275, 'positionName': 'LEFT', 'positionCoords': [512.6, 335.5], 'bid': 0.64}, {'imgObject': {}, 'id': 'burger', 'src': '/static/foodstim60/burger.jpg', 'key': 'i', 'origWidth': 409, 'origHeight': 409, 'width': 409, 'height': 409, 'widthPercent': 0.45, 'rescaleHeight': False, 'trialN': 71, 'loaded': True, 'loadedTime': 4956.699999999255, 'positionName': 'RIGHT', 'positionCoords': [998.4, 335.5], 'bid': 4.98}]",118292.40000000037,1669838818666,hotdog w must,burger,0.64,4.98,4.340000000000001,burger,917.9000000003725,918,918.1999999992549,True,i,119715.69999999925,1423.2999999988824,1669838820089,1423,HRV,HRV_0271,2022-11-30 20:09:54
72,"[{'imgObject': {}, 'id': 'Tribe humus pita', 'src': '/static/foodstim60/Tribe humus pita.jpg', 'key': 'u', 'origWidth': 411, 'origHeight': 411, 'width': 411, 'height': 411, 'widthPercent': 0.45, 'rescaleHeight': False, 'trialN': 72, 'loaded': True, 'loadedTime': 4160.199999999255, 'positionName': 'LEFT', 'positionCoords': [510.6, 334.5], 'bid': 1.33}, {'imgObject': {}, 'id': 'bagel and cc', 'src': '/static/foodstim60/bagel and cc.jpg', 'key': 'i', 'origWidth': 410, 'origHeight': 410, 'width': 410, 'height': 410, 'widthPercent': 0.45, 'rescaleHeight': False, 'trialN': 72, 'loaded': True, 'loadedTime': 3981.5999999996275, 'positionName': 'RIGHT', 'positionCoords': [998.4, 335], 'bid': 1.93}]",119715.80000000075,1669838820089,Tribe humus pita,bagel and cc,1.33,1.93,0.5999999999999999,Tribe humus pita,1130.5,1131,1130.7999999988824,True,u,121347.69999999925,1631.8999999985099,1669838821721,1632,HRV,HRV_0271,2022-11-30 20:09:54
73,"[{'imgObject': {}, 'id': 'Grapes', 'src': '/static/foodstim60/Grapes.jpg', 'key': 'u', 'origWidth': 411, 'origHeight': 411, 'width': 411, 'height': 411, 'widthPercent': 0.45, 'rescaleHeight': False, 'trialN': 73, 'loaded': True, 'loadedTime': 4836.5999999996275, 'positionName': 'LEFT', 'positionCoords': [510.6, 334.5], 'bid': 7.09}, {'imgObject': {}, 'id': 'turkeysandwich', 'src': '/static/foodstim60/turkeysandwich.jpg', 'key': 'i', 'origWidth': 409, 'origHeight': 409, 'width': 409, 'height': 409, 'widthPercent': 0.45, 'rescaleHeight': False, 'trialN': 73, 'loaded': True, 'loadedTime': 4604.0999999996275, 'positionName': 'RIGHT', 'positionCoords': [998.4, 335.5], 'bid': 6.75}]",121347.69999999925,1669838821721,Grapes,turkeysandwich,7.09,6.75,-0.33999999999999986,turkeysandwich,840.5,841,840.8000000007451,True,i,122692.40000000037,1344.7000000011176,1669838823066,1345,HRV,HRV_0271,2022-11-30 20:09:54
74,"[{'imgObject': {}, 'id': 'mango', 'src': '/static/foodstim60/mango.jpg', 'key': 'u', 'origWidth': 411, 'origHeight': 411, 'width': 411, 'height': 411, 'widthPercent': 0.45, 'rescaleHeight': False, 'trialN': 74, 'loaded': True, 'loadedTime': 4877.0999999996275, 'positionName': 'LEFT', 'positionCoords': [510.6, 334.5], 'bid': 7.1000000000000005}, {'imgObject': {}, 'id': 'strawberries', 'src': '/static/foodstim60/strawberries.jpg', 'key': 'i', 'origWidth': 410, 'origHeight': 410, 'width': 410, 'height': 410, 'widthPercent': 0.45, 'rescaleHeight': False, 'trialN': 74, 'loaded': True, 'loadedTime': 3838.4000000003725, 'positionName': 'RIGHT', 'positionCoords': [998.4, 335], 'bid': 6.21}]",122692.5,1669838823066,mango,strawberries,7.1000000000000005,6.21,-0.8900000000000006,strawberries,1508.0999999996275,1508,1508.5,True,i,124708.19999999925,2015.699999999255,1669838825082,2016,HRV,HRV_0271,2022-11-30 20:09:54
75,"[{'imgObject': {}, 'id': 'seaweed', 'src': '/static/foodstim60/seaweed.jpg', 'key': 'u', 'origWidth': 410, 'origHeight': 410, 'width': 410, 'height': 410, 'widthPercent': 0.45, 'rescaleHeight': False, 'trialN': 75, 'loaded': True, 'loadedTime': 4605.800000000745, 'positionName': 'LEFT', 'positionCoords': [511.6, 335], 'bid': 2.01}, {'imgObject': {}, 'id': 'sushi w_condiments', 'src': '/static/foodstim60/sushi w_condiments.jpg', 'key': 'i', 'origWidth': 410, 'origHeight': 410, 'width': 410, 'height': 410, 'widthPercent': 0.45, 'rescaleHeight': False, 'trialN': 75, 'loaded': True, 'loadedTime': 3806.300000000745, 'positionName': 'RIGHT', 'positionCoords': [998.4, 335], 'bid': 3.43}]",124708.30000000075,1669838825082,seaweed,sushi w_condiments,2.01,3.43,1.4200000000000004,seaweed,1330.0999999996275,1330,1330.5,True,u,126540.0,1831.699999999255,1669838826913,1831,HRV,HRV_0271,2022-11-30 20:09:54
76,"[{'imgObject': {}, 'id': 'burger', 'src': '/static/foodstim60/burger.jpg', 'key': 'u', 'origWidth': 409, 'origHeight': 409, 'width': 409, 'height': 409, 'widthPercent': 0.45, 'rescaleHeight': False, 'trialN': 76, 'loaded': True, 'loadedTime': 4956.9000000003725, 'positionName': 'LEFT', 'positionCoords': [512.6, 335.5], 'bid': 4.98}, {'imgObject': {}, 'id': 'avocado', 'src': '/static/foodstim60/avocado.jpg', 'key': 'i', 'origWidth': 409, 'origHeight': 409, 'width': 409, 'height': 409, 'widthPercent': 0.45, 'rescaleHeight': False, 'trialN': 76, 'loaded': True, 'loadedTime': 4993.800000000745, 'positionName': 'RIGHT', 'positionCoords': [998.4, 335.5], 'bid': 5.1000000000000005}]",126540.19999999925,1669838826914,burger,avocado,4.98,5.1000000000000005,0.1200000000000001,avocado,1067.6000000014901,1068,1067.9000000003725,True,i,128116.09999999963,1575.9000000003725,1669838828490,1576,HRV,HRV_0271,2022-11-30 20:09:54
77,"[{'imgObject': {}, 'id': 'tacos', 'src': '/static/foodstim60/tacos.jpg', 'key': 'u', 'origWidth': 411, 'origHeight': 411, 'width': 411, 'height': 411, 'widthPercent': 0.45, 'rescaleHeight': False, 'trialN': 77, 'loaded': True, 'loadedTime': 3782.800000000745, 'positionName': 'LEFT', 'positionCoords': [510.6, 334.5], 'bid': 1.04}, {'imgObject': {}, 'id': 'rigatoni', 'src': '/static/foodstim60/rigatoni.jpg', 'key': 'i', 'origWidth': 411, 'origHeight': 411, 'width': 411, 'height': 411, 'widthPercent': 0.45, 'rescaleHeight': False, 'trialN': 77, 'loaded': True, 'loadedTime': 4917.199999999255, 'positionName': 'RIGHT', 'positionCoords': [998.4, 334.5], 'bid': 0.86}]",128116.40000000037,1669838828490,tacos,rigatoni,1.04,0.86,-0.18000000000000005,tacos,1046.699999999255,1047,1047.0,True,u,129667.69999999925,1551.2999999988824,1669838830041,1551,HRV,HRV_0271,2022-11-30 20:09:54
78,"[{'imgObject': {}, 'id': 'raspberries', 'src': '/static/foodstim60/raspberries.jpg', 'key': 'u', 'origWidth': 411, 'origHeight': 411, 'width': 411, 'height': 411, 'widthPercent': 0.45, 'rescaleHeight': False, 'trialN': 78, 'loaded': True, 'loadedTime': 3995.300000000745, 'positionName': 'LEFT', 'positionCoords': [510.6, 334.5], 'bid': 7.2}, {'imgObject': {}, 'id': 'ice cream sundae 002', 'src': '/static/foodstim60/ice cream sundae 002.jpg', 'key': 'i', 'origWidth': 409, 'origHeight': 409, 'width': 409, 'height': 409, 'widthPercent': 0.45, 'rescaleHeight': False, 'trialN': 78, 'loaded': True, 'loadedTime': 3930.5999999996275, 'positionName': 'RIGHT', 'positionCoords': [998.4, 335.5], 'bid': 2.63}]",129667.80000000075,1669838830041,raspberries,ice cream sundae 002,7.2,2.63,-4.57,raspberries,926.2999999988824,927,926.5,True,u,131100.40000000037,1432.5999999996275,1669838831474,1433,HRV,HRV_0271,2022-11-30 20:09:54
79,"[{'imgObject': {}, 'id': 'apple slices', 'src': '/static/foodstim60/apple slices.jpg', 'key': 'u', 'origWidth': 409, 'origHeight': 410, 'width': 409, 'height': 410, 'widthPercent': 0.45, 'rescaleHeight': False, 'trialN': 79, 'loaded': True, 'loadedTime': 4269.9000000003725, 'positionName': 'LEFT', 'positionCoords': [512.6, 335], 'bid': 1.54}, {'imgObject': {}, 'id': 'orange slices', 'src': '/static/foodstim60/orange slices.jpg', 'key': 'i', 'origWidth': 409, 'origHeight': 410, 'width': 409, 'height': 410, 'widthPercent': 0.45, 'rescaleHeight': False, 'trialN': 79, 'loaded': True, 'loadedTime': 3732.4000000003725, 'positionName': 'RIGHT', 'positionCoords': [998.4, 335], 'bid': 1.29}]",131100.69999999925,1669838831474,apple slices,orange slices,1.54,1.29,-0.25,orange slices,905.9000000003725,906,906.3000000007451,True,i,132508.80000000075,1408.1000000014901,1669838832882,1408,HRV,HRV_0271,2022-11-30 20:09:54
80,"[{'imgObject': {}, 'id': 'seaweed', 'src': '/static/foodstim60/seaweed.jpg', 'key': 'u', 'origWidth': 410, 'origHeight': 410, 'width': 410, 'height': 410, 'widthPercent': 0.45, 'rescaleHeight': False, 'trialN': 80, 'loaded': True, 'loadedTime': 4605.699999999255, 'positionName': 'LEFT', 'positionCoords': [511.6, 335], 'bid': 2.01}, {'imgObject': {}, 'id': 'steak', 'src': '/static/foodstim60/steak.jpg', 'key': 'i', 'origWidth': 410, 'origHeight': 410, 'width': 410, 'height': 410, 'widthPercent': 0.45, 'rescaleHeight': False, 'trialN': 80, 'loaded': True, 'loadedTime': 4187.9000000003725, 'positionName': 'RIGHT', 'positionCoords': [998.4, 335], 'bid': 6.71}]",132508.90000000037,1669838832882,seaweed,steak,2.01,6.71,4.7,steak,676.0999999996275,677,676.2999999988824,True,i,133691.69999999925,1182.7999999988824,1669838834065,1183,HRV,HRV_0271,2022-11-30 20:09:54
81,"[{'imgObject': {}, 'id': 'hashbrowns', 'src': '/static/foodstim60/hashbrowns.jpg', 'key': 'u', 'origWidth': 411, 'origHeight': 410, 'width': 411, 'height': 410, 'widthPercent': 0.45, 'rescaleHeight': False, 'trialN': 81, 'loaded': True, 'loadedTime': 4729.9000000003725, 'positionName': 'LEFT', 'positionCoords': [510.6, 335], 'bid': 1.27}, {'imgObject': {}, 'id': 'tacos', 'src': '/static/foodstim60/tacos.jpg', 'key': 'i', 'origWidth': 411, 'origHeight': 411, 'width': 411, 'height': 411, 'widthPercent': 0.45, 'rescaleHeight': False, 'trialN': 81, 'loaded': True, 'loadedTime': 3790, 'positionName': 'RIGHT', 'positionCoords': [998.4, 334.5], 'bid': 1.04}]",133691.80000000075,1669838834065,hashbrowns,tacos,1.27,1.04,-0.22999999999999998,tacos,1020.8999999985099,1021,1021.1999999992549,True,i,135220.0,1528.199999999255,1669838835593,1528,HRV,HRV_0271,2022-11-30 20:09:54
82,"[{'imgObject': {}, 'id': 'omelette', 'src': '/static/foodstim60/omelette.jpg', 'key': 'u', 'origWidth': 410, 'origHeight': 409, 'width': 410, 'height': 409, 'widthPercent': 0.45, 'rescaleHeight': False, 'trialN': 82, 'loaded': True, 'loadedTime': 3994.800000000745, 'positionName': 'LEFT', 'positionCoords': [511.6, 335.5], 'bid': 2.87}, {'imgObject': {}, 'id': 'blueberries', 'src': '/static/foodstim60/blueberries.jpg', 'key': 'i', 'origWidth': 411, 'origHeight': 411, 'width': 411, 'height': 411, 'widthPercent': 0.45, 'rescaleHeight': False, 'trialN': 82, 'loaded': True, 'loadedTime': 4284.5999999996275, 'positionName': 'RIGHT', 'positionCoords': [998.4, 334.5], 'bid': 2.79}]",135220.09999999963,1669838835593,omelette,blueberries,2.87,2.79,-0.08000000000000007,omelette,1542.2000000011176,1543,1542.4000000003725,True,u,137268.09999999963,2048.0,1669838837642,2049,HRV,HRV_0271,2022-11-30 20:09:54
83,"[{'imgObject': {}, 'id': 'fried eggs', 'src': '/static/foodstim60/fried eggs.jpg', 'key': 'u', 'origWidth': 410, 'origHeight': 410, 'width': 410, 'height': 410, 'widthPercent': 0.45, 'rescaleHeight': False, 'trialN': 83, 'loaded': True, 'loadedTime': 4283.9000000003725, 'positionName': 'LEFT', 'positionCoords': [511.6, 335], 'bid': 2}, {'imgObject': {}, 'id': 'yogurt no spoon', 'src': '/static/foodstim60/yogurt no spoon.jpg', 'key': 'i', 'origWidth': 411, 'origHeight': 410, 'width': 411, 'height': 410, 'widthPercent': 0.45, 'rescaleHeight': False, 'trialN': 83, 'loaded': True, 'loadedTime': 4272.800000000745, 'positionName': 'RIGHT', 'positionCoords': [998.4, 335], 'bid': 2.03}]",137268.19999999925,1669838837642,fried eggs,yogurt no spoon,2.0,2.03,0.029999999999999805,fried eggs,1216.0,1216,1216.4000000003725,True,u,138987.69999999925,1719.5,1669838839361,1719,HRV,HRV_0271,2022-11-30 20:09:54
84,"[{'imgObject': {}, 'id': 'pear', 'src': '/static/foodstim60/pear.jpg', 'key': 'u', 'origWidth': 411, 'origHeight': 410, 'width': 411, 'height': 410, 'widthPercent': 0.45, 'rescaleHeight': False, 'trialN': 84, 'loaded': True, 'loadedTime': 5033.800000000745, 'positionName': 'LEFT', 'positionCoords': [510.6, 335], 'bid': 0.6}, {'imgObject': {}, 'id': 'fried eggs', 'src': '/static/foodstim60/fried eggs.jpg', 'key': 'i', 'origWidth': 410, 'origHeight': 410, 'width': 410, 'height': 410, 'widthPercent': 0.45, 'rescaleHeight': False, 'trialN': 84, 'loaded': True, 'loadedTime': 4283.9000000003725, 'positionName': 'RIGHT', 'positionCoords': [998.4, 335], 'bid': 2}]",138987.80000000075,1669838839361,pear,fried eggs,0.6,2.0,1.4,fried eggs,804.7999999988824,805,805.0,True,i,140299.90000000037,1312.0999999996275,1669838840673,1312,HRV,HRV_0271,2022-11-30 20:09:54
85,"[{'imgObject': {}, 'id': 'turkeysandwich', 'src': '/static/foodstim60/turkeysandwich.jpg', 'key': 'u', 'origWidth': 409, 'origHeight': 409, 'width': 409, 'height': 409, 'widthPercent': 0.45, 'rescaleHeight': False, 'trialN': 85, 'loaded': True, 'loadedTime': 4565.699999999255, 'positionName': 'LEFT', 'positionCoords': [512.6, 335.5], 'bid': 6.75}, {'imgObject': {}, 'id': 'grilled chicken strips', 'src': '/static/foodstim60/grilled chicken strips.jpg', 'key': 'i', 'origWidth': 410, 'origHeight': 411, 'width': 410, 'height': 411, 'widthPercent': 0.45, 'rescaleHeight': False, 'trialN': 85, 'loaded': True, 'loadedTime': 4727.5, 'positionName': 'RIGHT', 'positionCoords': [998.4, 334.5], 'bid': 7.5}]",140300.09999999963,1669838840674,turkeysandwich,grilled chicken strips,6.75,7.5,0.75,grilled chicken strips,1198.4000000003725,1198,1198.7000000011176,True,i,142004.0,1703.9000000003725,1669838842377,1703,HRV,HRV_0271,2022-11-30 20:09:54
86,"[{'imgObject': {}, 'id': 'cantaloupe', 'src': '/static/foodstim60/cantaloupe.jpg', 'key': 'u', 'origWidth': 409, 'origHeight': 409, 'width': 409, 'height': 409, 'widthPercent': 0.45, 'rescaleHeight': False, 'trialN': 86, 'loaded': True, 'loadedTime': 4278.300000000745, 'positionName': 'LEFT', 'positionCoords': [512.6, 335.5], 'bid': 6.65}, {'imgObject': {}, 'id': 'cocktailshrimp', 'src': '/static/foodstim60/cocktailshrimp.jpg', 'key': 'i', 'origWidth': 410, 'origHeight': 410, 'width': 410, 'height': 410, 'widthPercent': 0.45, 'rescaleHeight': False, 'trialN': 86, 'loaded': True, 'loadedTime': 4607, 'positionName': 'RIGHT', 'positionCoords': [998.4, 335], 'bid': 4.29}]",142004.09999999963,1669838842377,cantaloupe,cocktailshrimp,6.65,4.29,-2.3600000000000003,cocktailshrimp,854.0,855,854.3000000007451,True,i,143364.30000000075,1360.2000000011176,1669838843738,1361,HRV,HRV_0271,2022-11-30 20:09:54
87,"[{'imgObject': {}, 'id': 'turkey sandwich', 'src': '/static/foodstim60/turkey sandwich.jpg', 'key': 'u', 'origWidth': 409, 'origHeight': 409, 'width': 409, 'height': 409, 'widthPercent': 0.45, 'rescaleHeight': False, 'trialN': 87, 'loaded': True, 'loadedTime': 4193.300000000745, 'positionName': 'LEFT', 'positionCoords': [512.6, 335.5], 'bid': 6.62}, {'imgObject': {}, 'id': 'mango', 'src': '/static/foodstim60/mango.jpg', 'key': 'i', 'origWidth': 411, 'origHeight': 411, 'width': 411, 'height': 411, 'widthPercent': 0.45, 'rescaleHeight': False, 'trialN': 87, 'loaded': True, 'loadedTime': 4877, 'positionName': 'RIGHT', 'positionCoords': [998.4, 334.5], 'bid': 7.1000000000000005}]",143364.40000000037,1669838843738,turkey sandwich,mango,6.62,7.1000000000000005,0.4800000000000004,turkey sandwich,1038.0999999996275,1038,1038.5,True,u,144907.59999999963,1543.199999999255,1669838845281,1543,HRV,HRV_0271,2022-11-30 20:09:54
88,"[{'imgObject': {}, 'id': 'grilled chicken strips', 'src': '/static/foodstim60/grilled chicken strips.jpg', 'key': 'u', 'origWidth': 410, 'origHeight': 411, 'width': 410, 'height': 411, 'widthPercent': 0.45, 'rescaleHeight': False, 'trialN': 88, 'loaded': True, 'loadedTime': 4727.699999999255, 'positionName': 'LEFT', 'positionCoords': [511.6, 334.5], 'bid': 7.5}, {'imgObject': {}, 'id': 'chickenfingers', 'src': '/static/foodstim60/chickenfingers.jpg', 'key': 'i', 'origWidth': 410, 'origHeight': 410, 'width': 410, 'height': 410, 'widthPercent': 0.45, 'rescaleHeight': False, 'trialN': 88, 'loaded': True, 'loadedTime': 4878.5999999996275, 'positionName': 'RIGHT', 'positionCoords': [998.4, 335], 'bid': 7.16}]",144907.80000000075,1669838845282,grilled chicken strips,chickenfingers,7.5,7.16,-0.33999999999999986,chickenfingers,935.0999999996275,935,935.2999999988824,True,i,146347.59999999963,1439.7999999988824,1669838846721,1439,HRV,HRV_0271,2022-11-30 20:09:54
89,"[{'imgObject': {}, 'id': 'popsicles', 'src': '/static/foodstim60/popsicles.jpg', 'key': 'u', 'origWidth': 410, 'origHeight': 410, 'width': 410, 'height': 410, 'widthPercent': 0.45, 'rescaleHeight': False, 'trialN': 89, 'loaded': True, 'loadedTime': 5034.9000000003725, 'positionName': 'LEFT', 'positionCoords': [511.6, 335], 'bid': 6.0200000000000005}, {'imgObject': {}, 'id': 'grilled chicken strips', 'src': '/static/foodstim60/grilled chicken strips.jpg', 'key': 'i', 'origWidth': 410, 'origHeight': 411, 'width': 410, 'height': 411, 'widthPercent': 0.45, 'rescaleHeight': False, 'trialN': 89, 'loaded': True, 'loadedTime': 4693.9000000003725, 'positionName': 'RIGHT', 'positionCoords': [998.4, 334.5], 'bid': 7.5}]",146347.80000000075,1669838846722,popsicles,grilled chicken strips,6.0200000000000005,7.5,1.4799999999999995,grilled chicken strips,859.6999999992549,860,860.0,True,i,147707.90000000037,1360.0999999996275,1669838848082,1360,HRV,HRV_0271,2022-11-30 20:09:54
90,"[{'imgObject': {}, 'id': 'banana', 'src': '/static/foodstim60/banana.jpg', 'key': 'u', 'origWidth': 410, 'origHeight': 410, 'width': 410, 'height': 410, 'widthPercent': 0.45, 'rescaleHeight': False, 'trialN': 90, 'loaded': True, 'loadedTime': 4182.199999999255, 'positionName': 'LEFT', 'positionCoords': [511.6, 335], 'bid': 4.25}, {'imgObject': {}, 'id': 'eggs', 'src': '/static/foodstim60/eggs.jpg', 'key': 'i', 'origWidth': 409, 'origHeight': 409, 'width': 409, 'height': 409, 'widthPercent': 0.45, 'rescaleHeight': False, 'trialN': 90, 'loaded': True, 'loadedTime': 5031.5, 'positionName': 'RIGHT', 'positionCoords': [998.4, 335.5], 'bid': 2.22}]",150555.90000000037,1669838850930,banana,eggs,4.25,2.22,-2.03,banana,1661.2999999988824,1661,1661.699999999255,True,u,152723.40000000037,2167.5,1669838853097,2167,HRV,HRV_0271,2022-11-30 20:09:54
91,"[{'imgObject': {}, 'id': 'rigatoni', 'src': '/static/foodstim60/rigatoni.jpg', 'key': 'u', 'origWidth': 411, 'origHeight': 411, 'width': 411, 'height': 411, 'widthPercent': 0.45, 'rescaleHeight': False, 'trialN': 91, 'loaded': True, 'loadedTime': 4915.0999999996275, 'positionName': 'LEFT', 'positionCoords': [510.6, 334.5], 'bid': 0.86}, {'imgObject': {}, 'id': 'mashed potato', 'src': '/static/foodstim60/mashed potato.jpg', 'key': 'i', 'origWidth': 409, 'origHeight': 409, 'width': 409, 'height': 409, 'widthPercent': 0.45, 'rescaleHeight': False, 'trialN': 91, 'loaded': True, 'loadedTime': 4996.199999999255, 'positionName': 'RIGHT', 'positionCoords': [998.4, 335.5], 'bid': 0.92}]",152723.59999999963,1669838853097,rigatoni,mashed potato,0.86,0.92,0.06000000000000005,mashed potato,883.0999999996275,884,883.5,True,i,154107.40000000037,1383.800000000745,1669838854481,1384,HRV,HRV_0271,2022-11-30 20:09:54
92,"[{'imgObject': {}, 'id': 'rigatoni', 'src': '/static/foodstim60/rigatoni.jpg', 'key': 'u', 'origWidth': 411, 'origHeight': 411, 'width': 411, 'height': 411, 'widthPercent': 0.45, 'rescaleHeight': False, 'trialN': 92, 'loaded': True, 'loadedTime': 4917.5999999996275, 'positionName': 'LEFT', 'positionCoords': [510.6, 334.5], 'bid': 0.86}, {'imgObject': {}, 'id': 'rigatoni and sauce', 'src': '/static/foodstim60/rigatoni and sauce.jpg', 'key': 'i', 'origWidth': 410, 'origHeight': 411, 'width': 410, 'height': 411, 'widthPercent': 0.45, 'rescaleHeight': False, 'trialN': 92, 'loaded': True, 'loadedTime': 4233.5999999996275, 'positionName': 'RIGHT', 'positionCoords': [998.4, 334.5], 'bid': 2.18}]",154107.59999999963,1669838854481,rigatoni,rigatoni and sauce,0.86,2.18,1.3200000000000003,rigatoni and sauce,826.0,827,826.3000000007451,True,i,155435.59999999963,1328.0,1669838855809,1328,HRV,HRV_0271,2022-11-30 20:09:54
93,"[{'imgObject': {}, 'id': 'lox', 'src': '/static/foodstim60/lox.jpg', 'key': 'u', 'origWidth': 410, 'origHeight': 411, 'width': 410, 'height': 411, 'widthPercent': 0.45, 'rescaleHeight': False, 'trialN': 93, 'loaded': True, 'loadedTime': 3812.5, 'positionName': 'LEFT', 'positionCoords': [511.6, 334.5], 'bid': 0.54}, {'imgObject': {}, 'id': 'hotdog w must', 'src': '/static/foodstim60/hotdog w must.jpg', 'key': 'i', 'origWidth': 409, 'origHeight': 409, 'width': 409, 'height': 409, 'widthPercent': 0.45, 'rescaleHeight': False, 'trialN': 93, 'loaded': True, 'loadedTime': 4004.699999999255, 'positionName': 'RIGHT', 'positionCoords': [998.4, 335.5], 'bid': 0.64}]",155435.69999999925,1669838855809,lox,hotdog w must,0.54,0.64,0.09999999999999998,hotdog w must,725.7000000011176,726,726.0,True,i,156668.59999999963,1232.9000000003725,1669838857042,1233,HRV,HRV_0271,2022-11-30 20:09:54
94,"[{'imgObject': {}, 'id': 'bagel and cc', 'src': '/static/foodstim60/bagel and cc.jpg', 'key': 'u', 'origWidth': 410, 'origHeight': 410, 'width': 410, 'height': 410, 'widthPercent': 0.45, 'rescaleHeight': False, 'trialN': 94, 'loaded': True, 'loadedTime': 3981.199999999255, 'positionName': 'LEFT', 'positionCoords': [511.6, 335], 'bid': 1.93}, {'imgObject': {}, 'id': 'cheerios', 'src': '/static/foodstim60/cheerios.jpg', 'key': 'i', 'origWidth': 409, 'origHeight': 410, 'width': 409, 'height': 410, 'widthPercent': 0.45, 'rescaleHeight': False, 'trialN': 94, 'loaded': True, 'loadedTime': 4004.800000000745, 'positionName': 'RIGHT', 'positionCoords': [998.4, 335], 'bid': 1.65}]",156668.69999999925,1669838857042,bagel and cc,cheerios,1.93,1.65,-0.28,cheerios,617.0,618,617.3000000007451,True,i,157788.40000000037,1119.7000000011176,1669838858162,1120,HRV,HRV_0271,2022-11-30 20:09:54
95,"[{'imgObject': {}, 'id': 'chickenfingers', 'src': '/static/foodstim60/chickenfingers.jpg', 'key': 'u', 'origWidth': 410, 'origHeight': 410, 'width': 410, 'height': 410, 'widthPercent': 0.45, 'rescaleHeight': False, 'trialN': 95, 'loaded': True, 'loadedTime': 4885.300000000745, 'positionName': 'LEFT', 'positionCoords': [511.6, 335], 'bid': 7.16}, {'imgObject': {}, 'id': 'cantaloupe', 'src': '/static/foodstim60/cantaloupe.jpg', 'key': 'i', 'origWidth': 409, 'origHeight': 409, 'width': 409, 'height': 409, 'widthPercent': 0.45, 'rescaleHeight': False, 'trialN': 95, 'loaded': True, 'loadedTime': 4280.4000000003725, 'positionName': 'RIGHT', 'positionCoords': [998.4, 335.5], 'bid': 6.65}]",157788.5,1669838858162,chickenfingers,cantaloupe,7.16,6.65,-0.5099999999999998,chickenfingers,695.0999999996275,696,695.4000000003725,True,u,158988.19999999925,1199.699999999255,1669838859362,1200,HRV,HRV_0271,2022-11-30 20:09:54
96,"[{'imgObject': {}, 'id': 'orange slices', 'src': '/static/foodstim60/orange slices.jpg', 'key': 'u', 'origWidth': 409, 'origHeight': 410, 'width': 409, 'height': 410, 'widthPercent': 0.45, 'rescaleHeight': False, 'trialN': 96, 'loaded': True, 'loadedTime': 3771.300000000745, 'positionName': 'LEFT', 'positionCoords': [512.6, 335], 'bid': 1.29}, {'imgObject': {}, 'id': 'Tribe humus pita', 'src': '/static/foodstim60/Tribe humus pita.jpg', 'key': 'i', 'origWidth': 411, 'origHeight': 411, 'width': 411, 'height': 411, 'widthPercent': 0.45, 'rescaleHeight': False, 'trialN': 96, 'loaded': True, 'loadedTime': 4160, 'positionName': 'RIGHT', 'positionCoords': [998.4, 334.5], 'bid': 1.33}]",158988.30000000075,1669838859362,orange slices,Tribe humus pita,1.29,1.33,0.040000000000000036,orange slices,767.1999999992549,768,767.5,True,u,160260.09999999963,1271.7999999988824,1669838860634,1272,HRV,HRV_0271,2022-11-30 20:09:54
97,"[{'imgObject': {}, 'id': 'cocktailshrimp', 'src': '/static/foodstim60/cocktailshrimp.jpg', 'key': 'u', 'origWidth': 410, 'origHeight': 410, 'width': 410, 'height': 410, 'widthPercent': 0.45, 'rescaleHeight': False, 'trialN': 97, 'loaded': True, 'loadedTime': 4644.199999999255, 'positionName': 'LEFT', 'positionCoords': [511.6, 335], 'bid': 4.29}, {'imgObject': {}, 'id': 'corn cob', 'src': '/static/foodstim60/corn cob.jpg', 'key': 'i', 'origWidth': 411, 'origHeight': 411, 'width': 411, 'height': 411, 'widthPercent': 0.45, 'rescaleHeight': False, 'trialN': 97, 'loaded': True, 'loadedTime': 4958.699999999255, 'positionName': 'RIGHT', 'positionCoords': [998.4, 334.5], 'bid': 2.27}]",160260.30000000075,1669838860634,cocktailshrimp,corn cob,4.29,2.27,-2.02,cocktailshrimp,1103.0999999996275,1103,1103.2999999988824,True,u,161868.09999999963,1607.7999999988824,1669838862242,1608,HRV,HRV_0271,2022-11-30 20:09:54
98,"[{'imgObject': {}, 'id': 'eggsalad', 'src': '/static/foodstim60/eggsalad.jpg', 'key': 'u', 'origWidth': 410, 'origHeight': 409, 'width': 410, 'height': 409, 'widthPercent': 0.45, 'rescaleHeight': False, 'trialN': 98, 'loaded': True, 'loadedTime': 4727.800000000745, 'positionName': 'LEFT', 'positionCoords': [511.6, 335.5], 'bid': 1.64}, {'imgObject': {}, 'id': 'yogurt no spoon', 'src': '/static/foodstim60/yogurt no spoon.jpg', 'key': 'i', 'origWidth': 411, 'origHeight': 410, 'width': 411, 'height': 410, 'widthPercent': 0.45, 'rescaleHeight': False, 'trialN': 98, 'loaded': True, 'loadedTime': 4277.800000000745, 'positionName': 'RIGHT', 'positionCoords': [998.4, 335], 'bid': 2.03}]",161868.09999999963,1669838862242,eggsalad,yogurt no spoon,1.64,2.03,0.3899999999999999,yogurt no spoon,982.2000000011176,982,982.5,True,i,163355.80000000075,1487.7000000011176,1669838863730,1488,HRV,HRV_0271,2022-11-30 20:09:54
99,"[{'imgObject': {}, 'id': 'bagel plain', 'src': '/static/foodstim60/bagel plain.jpg', 'key': 'u', 'origWidth': 410, 'origHeight': 410, 'width': 410, 'height': 410, 'widthPercent': 0.45, 'rescaleHeight': False, 'trialN': 99, 'loaded': True, 'loadedTime': 4009.300000000745, 'positionName': 'LEFT', 'positionCoords': [511.6, 335], 'bid': 0.8200000000000001}, {'imgObject': {}, 'id': 'pear', 'src': '/static/foodstim60/pear.jpg', 'key': 'i', 'origWidth': 411, 'origHeight': 410, 'width': 411, 'height': 410, 'widthPercent': 0.45, 'rescaleHeight': False, 'trialN': 99, 'loaded': True, 'loadedTime': 5032.699999999255, 'positionName': 'RIGHT', 'positionCoords': [998.4, 335], 'bid': 0.6}]",163355.90000000037,1669838863730,bagel plain,pear,0.8200000000000001,0.6,-0.22000000000000008,pear,1142.699999999255,1143,1143.0999999996275,True,i,165003.90000000037,1648.0,1669838865378,1648,HRV,HRV_0271,2022-11-30 20:09:54
100,"[{'imgObject': {}, 'id': 'burrito', 'src': '/static/foodstim60/burrito.jpg', 'key': 'u', 'origWidth': 410, 'origHeight': 410, 'width': 410, 'height': 410, 'widthPercent': 0.45, 'rescaleHeight': False, 'trialN': 100, 'loaded': True, 'loadedTime': 4318.4000000003725, 'positionName': 'LEFT', 'positionCoords': [511.6, 335], 'bid': 6.29}, {'imgObject': {}, 'id': 'eggsalad', 'src': '/static/foodstim60/eggsalad.jpg', 'key': 'i', 'origWidth': 410, 'origHeight': 409, 'width': 410, 'height': 409, 'widthPercent': 0.45, 'rescaleHeight': False, 'trialN': 100, 'loaded': True, 'loadedTime': 4728.699999999255, 'positionName': 'RIGHT', 'positionCoords': [998.4, 335.5], 'bid': 1.64}]",165004.09999999963,1669838865378,burrito,eggsalad,6.29,1.64,-4.65,eggsalad,1135.7000000011176,1136,1136.0,True,i,166644.40000000037,1640.300000000745,1669838867018,1640,HRV,HRV_0271,2022-11-30 20:09:54
101,"[{'imgObject': {}, 'id': 'apple slices', 'src': '/static/foodstim60/apple slices.jpg', 'key': 'u', 'origWidth': 409, 'origHeight': 410, 'width': 409, 'height': 410, 'widthPercent': 0.45, 'rescaleHeight': False, 'trialN': 101, 'loaded': True, 'loadedTime': 4269.0999999996275, 'positionName': 'LEFT', 'positionCoords': [512.6, 335], 'bid': 1.54}, {'imgObject': {}, 'id': 'chicken nuggets2', 'src': '/static/foodstim60/chicken nuggets2.jpg', 'key': 'i', 'origWidth': 410, 'origHeight': 409, 'width': 410, 'height': 409, 'widthPercent': 0.45, 'rescaleHeight': False, 'trialN': 101, 'loaded': True, 'loadedTime': 4565.300000000745, 'positionName': 'RIGHT', 'positionCoords': [998.4, 335.5], 'bid': 6.140000000000001}]",166644.5,1669838867018,apple slices,chicken nuggets2,1.54,6.140000000000001,4.6000000000000005,chicken nuggets2,704.3000000007451,705,704.5,True,i,167852.0,1207.5,1669838868226,1208,HRV,HRV_0271,2022-11-30 20:09:54
102,"[{'imgObject': {}, 'id': 'granola w milk', 'src': '/static/foodstim60/granola w milk.jpg', 'key': 'u', 'origWidth': 410, 'origHeight': 410, 'width': 410, 'height': 410, 'widthPercent': 0.45, 'rescaleHeight': False, 'trialN': 102, 'loaded': True, 'loadedTime': 4995.0999999996275, 'positionName': 'LEFT', 'positionCoords': [511.6, 335], 'bid': 5.45}, {'imgObject': {}, 'id': 'fruitsalad', 'src': '/static/foodstim60/fruitsalad.jpg', 'key': 'i', 'origWidth': 410, 'origHeight': 410, 'width': 410, 'height': 410, 'widthPercent': 0.45, 'rescaleHeight': False, 'trialN': 102, 'loaded': True, 'loadedTime': 4181.5, 'positionName': 'RIGHT', 'positionCoords': [998.4, 335], 'bid': 5.71}]",167852.09999999963,1669838868226,granola w milk,fruitsalad,5.45,5.71,0.2599999999999998,fruitsalad,1441.2000000011176,1441,1441.5999999996275,True,i,169796.19999999925,1944.0999999996275,1669838870170,1944,HRV,HRV_0271,2022-11-30 20:09:54
103,"[{'imgObject': {}, 'id': 'bagel plain', 'src': '/static/foodstim60/bagel plain.jpg', 'key': 'u', 'origWidth': 410, 'origHeight': 410, 'width': 410, 'height': 410, 'widthPercent': 0.45, 'rescaleHeight': False, 'trialN': 103, 'loaded': True, 'loadedTime': 4007.800000000745, 'positionName': 'LEFT', 'positionCoords': [511.6, 335], 'bid': 0.8200000000000001}, {'imgObject': {}, 'id': 'avocado', 'src': '/static/foodstim60/avocado.jpg', 'key': 'i', 'origWidth': 409, 'origHeight': 409, 'width': 409, 'height': 409, 'widthPercent': 0.45, 'rescaleHeight': False, 'trialN': 103, 'loaded': True, 'loadedTime': 4993.9000000003725, 'positionName': 'RIGHT', 'positionCoords': [998.4, 335.5], 'bid': 5.1000000000000005}]",169796.30000000075,1669838870170,bagel plain,avocado,0.8200000000000001,5.1000000000000005,4.28,avocado,754.3999999985099,755,754.7999999988824,True,i,171051.59999999963,1255.2999999988824,1669838871425,1255,HRV,HRV_0271,2022-11-30 20:09:54
104,"[{'imgObject': {}, 'id': 'cherries', 'src': '/static/foodstim60/cherries.jpg', 'key': 'u', 'origWidth': 410, 'origHeight': 411, 'width': 410, 'height': 411, 'widthPercent': 0.45, 'rescaleHeight': False, 'trialN': 104, 'loaded': True, 'loadedTime': 4805.699999999255, 'positionName': 'LEFT', 'positionCoords': [511.6, 334.5], 'bid': 2.41}, {'imgObject': {}, 'id': 'chickenfingers', 'src': '/static/foodstim60/chickenfingers.jpg', 'key': 'i', 'origWidth': 410, 'origHeight': 410, 'width': 410, 'height': 410, 'widthPercent': 0.45, 'rescaleHeight': False, 'trialN': 104, 'loaded': True, 'loadedTime': 4877.5999999996275, 'positionName': 'RIGHT', 'positionCoords': [998.4, 335], 'bid': 7.16}]",171051.80000000075,1669838871426,cherries,chickenfingers,2.41,7.16,4.75,chickenfingers,808.0,808,808.2999999988824,True,i,172363.69999999925,1311.8999999985099,1669838872738,1312,HRV,HRV_0271,2022-11-30 20:09:54
105,"[{'imgObject': {}, 'id': 'cherries', 'src': '/static/foodstim60/cherries.jpg', 'key': 'u', 'origWidth': 410, 'origHeight': 411, 'width': 410, 'height': 411, 'widthPercent': 0.45, 'rescaleHeight': False, 'trialN': 105, 'loaded': True, 'loadedTime': 4805.300000000745, 'positionName': 'LEFT', 'positionCoords': [511.6, 334.5], 'bid': 2.41}, {'imgObject': {}, 'id': 'eggs', 'src': '/static/foodstim60/eggs.jpg', 'key': 'i', 'origWidth': 409, 'origHeight': 409, 'width': 409, 'height': 409, 'widthPercent': 0.45, 'rescaleHeight': False, 'trialN': 105, 'loaded': True, 'loadedTime': 5032.5, 'positionName': 'RIGHT', 'positionCoords': [998.4, 335.5], 'bid': 2.22}]",172363.90000000037,1669838872738,cherries,eggs,2.41,2.22,-0.18999999999999995,eggs,1629.0,1629,1629.4000000003725,True,i,174499.59999999963,2135.699999999255,1669838874873,2135,HRV,HRV_0271,2022-11-30 20:09:54
106,"[{'imgObject': {}, 'id': 'baked potato', 'src': '/static/foodstim60/baked potato.jpg', 'key': 'u', 'origWidth': 409, 'origHeight': 410, 'width': 409, 'height': 410, 'widthPercent': 0.45, 'rescaleHeight': False, 'trialN': 106, 'loaded': True, 'loadedTime': 4692.9000000003725, 'positionName': 'LEFT', 'positionCoords': [512.6, 335], 'bid': 3.75}, {'imgObject': {}, 'id': 'edamame', 'src': '/static/foodstim60/edamame.jpg', 'key': 'i', 'origWidth': 409, 'origHeight': 410, 'width': 409, 'height': 410, 'widthPercent': 0.45, 'rescaleHeight': False, 'trialN': 106, 'loaded': True, 'loadedTime': 4955.5, 'positionName': 'RIGHT', 'positionCoords': [998.4, 335], 'bid': 0.21}]",174499.69999999925,1669838874873,baked potato,edamame,3.75,0.21,-3.54,baked potato,1510.4000000003725,1511,1510.7000000011176,True,u,176516.30000000075,2016.6000000014901,1669838876890,2017,HRV,HRV_0271,2022-11-30 20:09:54
107,"[{'imgObject': {}, 'id': 'bagel plain', 'src': '/static/foodstim60/bagel plain.jpg', 'key': 'u', 'origWidth': 410, 'origHeight': 410, 'width': 410, 'height': 410, 'widthPercent': 0.45, 'rescaleHeight': False, 'trialN': 107, 'loaded': True, 'loadedTime': 4009.9000000003725, 'positionName': 'LEFT', 'positionCoords': [511.6, 335], 'bid': 0.8200000000000001}, {'imgObject': {}, 'id': 'olives', 'src': '/static/foodstim60/olives.jpg', 'key': 'i', 'origWidth': 410, 'origHeight': 410, 'width': 410, 'height': 410, 'widthPercent': 0.45, 'rescaleHeight': False, 'trialN': 107, 'loaded': True, 'loadedTime': 4529.5999999996275, 'positionName': 'RIGHT', 'positionCoords': [998.4, 335], 'bid': 0.12}]",176516.5,1669838876890,bagel plain,olives,0.8200000000000001,0.12,-0.7000000000000001,bagel plain,1936.699999999255,1937,1937.0999999996275,True,u,178955.69999999925,2439.199999999255,1669838879329,2439,HRV,HRV_0271,2022-11-30 20:09:54
108,"[{'imgObject': {}, 'id': 'popsicles', 'src': '/static/foodstim60/popsicles.jpg', 'key': 'u', 'origWidth': 410, 'origHeight': 410, 'width': 410, 'height': 410, 'widthPercent': 0.45, 'rescaleHeight': False, 'trialN': 108, 'loaded': True, 'loadedTime': 5034, 'positionName': 'LEFT', 'positionCoords': [511.6, 335], 'bid': 6.0200000000000005}, {'imgObject': {}, 'id': 'sweetpotato', 'src': '/static/foodstim60/sweetpotato.jpg', 'key': 'i', 'origWidth': 410, 'origHeight': 410, 'width': 410, 'height': 410, 'widthPercent': 0.45, 'rescaleHeight': False, 'trialN': 108, 'loaded': True, 'loadedTime': 4104.5999999996275, 'positionName': 'RIGHT', 'positionCoords': [998.4, 335], 'bid': 6.8}]",178955.90000000037,1669838879330,popsicles,sweetpotato,6.0200000000000005,6.8,0.7799999999999994,sweetpotato,1040.7999999988824,1041,1041.0,True,i,180500.0,1544.0999999996275,1669838880874,1544,HRV,HRV_0271,2022-11-30 20:09:54
