success,trial_type,trial_index,time_elapsed,internal_node_id,Block,TrialNumber,TrialTime,trialTimeDiff,FPS_avg,FPS_med,FPS_mode,TrialDur,winResizeTime,rt,block,button_pressed,MotCoh,MotDir,ColCoh,Color,ChoiceKey,Choice,Accuracy,RT,nFrames,FPS,PPD,missTrial,missTrialMsg,onsetDelay,fullScreenExitTime,canvCenter,TrialType,Score,BlockTrial,stimulus,button_labels,exp,subjectId,date
True,fullscreen,0,4577,0.0-0.0,0.0,1.0,,,,,,,,,,,,,,,,,,,,,,,,,,,,,,,,HRV,HRV_0144,2022-11-30 18:27:11
,wl-check-fps,1,9564,0.0-1.0,0.0,2.0,"[5275.2, 5276, 5292.7, 5309.4, 5326.1, 5342.7, 5359.5, 5376.1, 5392.7, 5409.2, 5426.2, 5442.7, 5459.3, 5475.9, 5492.7, 5509.4, 5526, 5542.8, 5559.5, 5576.1, 5592.6, 5609.3, 5626, 5642.7, 5659.3, 5676, 5692.6, 5709.3, 5726.1, 5742.7, 5759.3, 5776, 5792.7, 5809.4, 5826.1, 5842.6, 5859.4, 5876, 5892.7, 5909.3, 5926, 5942.7, 5959.4, 5976, 5992.7, 6009.3, 6026, 6042.6, 6059.3, 6076.1, 6092.7, 6109.3, 6126, 6142.7, 6159.3, 6176, 6192.6, 6209.3, 6226, 6242.7, 6259.3, 6276.1, 6292.7, 6309.3, 6326, 6342.6, 6359.3, 6376, 6392.7, 6409.3, 6426, 6442.7, 6459.4, 6475.9, 6492.6, 6509.1, 6526, 6542.8, 6559.3, 6576, 6592.6, 6609.3, 6626, 6642.7, 6659.3, 6676, 6692.7, 6709.3, 6726, 6742.7, 6759.3, 6775.9, 6792.7, 6809.3, 6825.9, 6842.6, 6859.3, 6876, 6892.7, 6909.3, 6925.9, 6942.7, 6959.3, 6975.9, 6992.6, 7009.3, 7026, 7042.6, 7059.3, 7076.1, 7092.6, 7109.3, 7126, 7142.6, 7159.3, 7176, 7192.6, 7209.3, 7226, 7242.6, 7259.3, 7275.8, 7292.7, 7309.3, 7326, 7342.6, 7359.3, 7376, 7392.6, 7409.3, 7426, 7442.6, 7459.3, 7476, 7492.7, 7509.3, 7526.5, 7542.8, 7559.4, 7576, 7592.7, 7609.3, 7626, 7642.6, 7659.4, 7676, 7692.6, 7709.3, 7726, 7742.6, 7759.3, 7776, 7792.7, 7809.3, 7826, 7842.6, 7859.3, 7876, 7892.6, 7909.3, 7926, 7942.7, 7959.4, 7976, 7992.7, 8009.3, 8026, 8042.6, 8059.3, 8075.9, 8092.6, 8109.3, 8126, 8142.6, 8159.3, 8176, 8192.6, 8209.3, 8226, 8242.6, 8259.3, 8276, 8292.7, 8309.3, 8325.9, 8342.6, 8359.3, 8376, 8392.6, 8409.3, 8426, 8442.6, 8459.3, 8476, 8492.6, 8509.2, 8526, 8542.6, 8559.3, 8576, 8592.7, 8609.3, 8626, 8642.6, 8659.3, 8676, 8692.6, 8709.3, 8726, 8742.6, 8759.3, 8776, 8792.7, 8809.3, 8826, 8842.7, 8859.2, 8876, 8892.6, 8909.2, 8926, 8942.7, 8959.4, 8976, 8992.6, 9009.4, 9025.9, 9042.7, 9059.5, 9076, 9092.8, 9109.2, 9126, 9142.6, 9159.3, 9176, 9192.7, 9209.3, 9225.9, 9242.6, 9259.4, 9275.9, 9292.7, 9309.5, 9326, 9342.6, 9359.1, 9375.9, 9392.7, 9409.3, 9426, 9442.6, 9459.3, 9475.9, 9492.6, 9509.4, 9526.3, 9542.9, 9559.3, 9575.9, 9592.7, 9609.3, 9626.1, 9642.8, 9659.1, 9675.9, 9692.7, 9709.3, 9726.1, 9742.7, 9759.3, 9776, 9792.7, 9809.3, 9826, 9842.7, 9859.3, 9875.9, 9892.6, 9909.2, 9925.9, 9942.6, 9959.3, 9975.9, 9992.4, 10009.2, 10026, 10042.6, 10059.2, 10076.2, 10092.8, 10109.4, 10126, 10142.6, 10159.3, 10175.9, 10192.6, 10209.3, 10225.9, 10242.6]","[1.2, 0.8, 16.7, 16.7, 16.7, 16.6, 16.8, 16.6, 16.6, 16.5, 17, 16.5, 16.6, 16.6, 16.8, 16.7, 16.6, 16.8, 16.7, 16.6, 16.5, 16.7, 16.7, 16.7, 16.6, 16.7, 16.6, 16.7, 16.8, 16.6, 16.6, 16.7, 16.7, 16.7, 16.7, 16.5, 16.8, 16.6, 16.7, 16.6, 16.7, 16.7, 16.7, 16.6, 16.7, 16.6, 16.7, 16.6, 16.7, 16.8, 16.6, 16.6, 16.7, 16.7, 16.6, 16.7, 16.6, 16.7, 16.7, 16.7, 16.6, 16.8, 16.6, 16.6, 16.7, 16.6, 16.7, 16.7, 16.7, 16.6, 16.7, 16.7, 16.7, 16.5, 16.7, 16.5, 16.9, 16.8, 16.5, 16.7, 16.6, 16.7, 16.7, 16.7, 16.6, 16.7, 16.7, 16.6, 16.7, 16.7, 16.6, 16.6, 16.8, 16.6, 16.6, 16.7, 16.7, 16.7, 16.7, 16.6, 16.6, 16.8, 16.6, 16.6, 16.7, 16.7, 16.7, 16.6, 16.7, 16.8, 16.5, 16.7, 16.7, 16.6, 16.7, 16.7, 16.6, 16.7, 16.7, 16.6, 16.7, 16.5, 16.9, 16.6, 16.7, 16.6, 16.7, 16.7, 16.6, 16.7, 16.7, 16.6, 16.7, 16.7, 16.7, 16.6, 17.2, 16.3, 16.6, 16.6, 16.7, 16.6, 16.7, 16.6, 16.8, 16.6, 16.6, 16.7, 16.7, 16.6, 16.7, 16.7, 16.7, 16.6, 16.7, 16.6, 16.7, 16.7, 16.6, 16.7, 16.7, 16.7, 16.7, 16.6, 16.7, 16.6, 16.7, 16.6, 16.7, 16.6, 16.7, 16.7, 16.7, 16.6, 16.7, 16.7, 16.6, 16.7, 16.7, 16.6, 16.7, 16.7, 16.7, 16.6, 16.6, 16.7, 16.7, 16.7, 16.6, 16.7, 16.7, 16.6, 16.7, 16.7, 16.6, 16.6, 16.8, 16.6, 16.7, 16.7, 16.7, 16.6, 16.7, 16.6, 16.7, 16.7, 16.6, 16.7, 16.7, 16.6, 16.7, 16.7, 16.7, 16.6, 16.7, 16.7, 16.5, 16.8, 16.6, 16.6, 16.8, 16.7, 16.7, 16.6, 16.6, 16.8, 16.5, 16.8, 16.8, 16.5, 16.8, 16.4, 16.8, 16.6, 16.7, 16.7, 16.7, 16.6, 16.6, 16.7, 16.8, 16.5, 16.8, 16.8, 16.5, 16.6, 16.5, 16.8, 16.8, 16.6, 16.7, 16.6, 16.7, 16.6, 16.7, 16.8, 16.9, 16.6, 16.4, 16.6, 16.8, 16.6, 16.8, 16.7, 16.3, 16.8, 16.8, 16.6, 16.8, 16.6, 16.6, 16.7, 16.7, 16.6, 16.7, 16.7, 16.6, 16.6, 16.7, 16.6, 16.7, 16.7, 16.7, 16.6, 16.5, 16.8, 16.8, 16.6, 16.6, 17, 16.6, 16.6, 16.6, 16.6, 16.7, 16.6, 16.7, 16.7, 16.6, 16.7]",60.0,60.0,60.0,4985.3,[],,,,,,,,,,,,,,,,,,,,,,,,,HRV,HRV_0144,2022-11-30 18:27:11
,wl-html-keyboard-response,2,28894,0.0-2.0-0.0,0.0,3.0,,,,,,,,17310.099999904633,0.0,0,,,,,,,,,,,,,,,,,,,,,,HRV,HRV_0144,2022-11-30 18:27:11
,wl-rdm,3,36213,0.0-3.0-0.0,0.0,4.0,,,,,,,[],,,,0.0,0.0,87.9,0.0,u,0.0,True,1734.5,105.0,60.0,40.0,False,,3000.0,[],"[960, 540]",ColorTask_Demo,,,,,HRV,HRV_0144,2022-11-30 18:27:11
,wl-rdm,4,41130,0.0-3.0-1.0,0.0,5.0,,,,,,,[],,,,0.0,0.0,87.9,1.0,i,1.0,True,818.1000001430511,50.0,60.0,40.0,False,,2000.0,[],"[960, 540]",ColorTask_Demo,,,,,HRV,HRV_0144,2022-11-30 18:27:11
,wl-html-keyboard-response,5,49338,0.0-3.0-2.0,0.0,6.0,,,,,,,,6187.799999952316,0.0,1,,,,,,,,,,,,,,,,,,,,,,HRV,HRV_0144,2022-11-30 18:27:11
,wl-html-keyboard-response,6,63338,0.0-4.0-0.0,0.0,7.0,,,,,,,,11981.300000190735,0.0,0,,,,,,,,,,,,,,,,,,,,,,HRV,HRV_0144,2022-11-30 18:27:11
,wl-html-keyboard-response,7,79682,0.0-5.0-0.0,0.0,8.0,,,,,,,,14336.899999856949,0.0,0,,,,,,,,,,,,,,,,,,,,,,HRV,HRV_0144,2022-11-30 18:27:11
,wl-rdm,8,81929,0.0-6.0-0.0,0.0,9.0,,,,,,,[],,,,,,73.6,1.0,i,1.0,True,917.4000000953674,56.0,60.0,40.0,False,,235.05248967678187,[],"[960, 540]",ColorTask,1.0,1.0,,,HRV,HRV_0144,2022-11-30 18:27:11
,wl-rdm,9,84712,0.0-6.1-0.1,0.0,10.0,,,,,,,[],,,,,,50.0,0.0,u,0.0,True,1351.6999998092651,82.0,60.0,40.0,False,,339.24931929641536,[],"[960, 540]",ColorTask,2.0,2.0,,,HRV,HRV_0144,2022-11-30 18:27:11
,wl-rdm,10,87262,0.0-6.2-0.2,0.0,11.0,,,,,,,[],,,,,,62.5,0.0,u,0.0,True,1194.9000000953674,72.0,60.0,40.0,False,,290.76598109760124,[],"[960, 540]",ColorTask,3.0,3.0,,,HRV,HRV_0144,2022-11-30 18:27:11
,wl-rdm,11,89695,0.0-6.3-0.3,0.0,12.0,,,,,,,[],,,,,,73.6,0.0,u,0.0,True,1127.2999999523163,68.0,60.0,40.0,False,,233.6516664352612,[],"[960, 540]",ColorTask,4.0,4.0,,,HRV,HRV_0144,2022-11-30 18:27:11
,wl-rdm,12,91862,0.0-6.4-0.4,0.0,13.0,,,,,,,[],,,,,,50.0,1.0,i,1.0,True,812.8999998569489,49.0,60.0,40.0,False,,266.8676219517853,[],"[960, 540]",ColorTask,5.0,5.0,,,HRV,HRV_0144,2022-11-30 18:27:11
,wl-rdm,13,93979,0.0-6.5-0.5,0.0,14.0,,,,,,,[],,,,,,62.5,1.0,i,1.0,True,817.5,50.0,60.0,40.0,False,,200.05000236950832,[],"[960, 540]",ColorTask,6.0,6.0,,,HRV,HRV_0144,2022-11-30 18:27:11
,wl-rdm,14,96445,0.0-6.6-0.6,0.0,15.0,,,,,,,[],,,,,,56.4,1.0,i,1.0,True,1130.6000001430511,68.0,60.0,40.0,False,,269.3145649375392,[],"[960, 540]",ColorTask,7.0,7.0,,,HRV,HRV_0144,2022-11-30 18:27:11
,wl-rdm,15,99245,0.0-6.7-0.7,0.0,16.0,,,,,,,[],,,,,,56.4,1.0,i,1.0,True,1490.2000000476837,90.0,60.0,40.0,False,,232.99881970529913,[],"[960, 540]",ColorTask,8.0,8.0,,,HRV,HRV_0144,2022-11-30 18:27:11
,wl-rdm,16,102245,0.0-6.8-0.8,0.0,17.0,,,,,,,[],,,,,,50.0,1.0,i,1.0,True,1557.5999999046326,94.0,60.0,40.0,False,,363.46441384237824,[],"[960, 540]",ColorTask,9.0,9.0,,,HRV,HRV_0144,2022-11-30 18:27:11
,wl-rdm,17,105029,0.0-6.9-0.9,0.0,18.0,,,,,,,[],,,,,,53.2,0.0,u,0.0,True,1484.2000000476837,90.0,60.0,40.0,False,,204.58767840755718,[],"[960, 540]",ColorTask,10.0,10.0,,,HRV,HRV_0144,2022-11-30 18:27:11
,wl-rdm,18,107379,0.0-6.10-0.10,0.0,19.0,,,,,,,[],,,,,,73.6,1.0,i,1.0,True,994.2999999523163,60.0,60.0,40.0,False,,282.0884735503874,[],"[960, 540]",ColorTask,11.0,11.0,,,HRV,HRV_0144,2022-11-30 18:27:11
,wl-rdm,19,109862,0.0-6.11-0.11,0.0,20.0,,,,,,,[],,,,,,53.2,0.0,i,1.0,False,1191.3999998569489,72.0,60.0,40.0,False,,200.65006498743702,[],"[960, 540]",ColorTask,10.0,12.0,,,HRV,HRV_0144,2022-11-30 18:27:11
,wl-rdm,20,112045,0.0-6.12-0.12,0.0,21.0,,,,,,,[],,,,,,87.9,0.0,u,0.0,True,899.6999998092651,54.0,60.0,40.0,False,,227.86832071273957,[],"[960, 540]",ColorTask,11.0,13.0,,,HRV,HRV_0144,2022-11-30 18:27:11
,wl-rdm,21,114295,0.0-6.13-0.13,0.0,22.0,,,,,,,[],,,,,,73.6,1.0,i,1.0,True,899.0,54.0,60.0,40.0,False,,282.38023158545946,[],"[960, 540]",ColorTask,12.0,14.0,,,HRV,HRV_0144,2022-11-30 18:27:11
,wl-rdm,22,116862,0.0-6.14-0.14,0.0,23.0,,,,,,,[],,,,,,62.5,0.0,u,0.0,True,1118.0,68.0,60.0,40.0,False,,357.23832330289804,[],"[960, 540]",ColorTask,13.0,15.0,,,HRV,HRV_0144,2022-11-30 18:27:11
,wl-rdm,23,119746,0.0-6.15-0.15,0.0,24.0,,,,,,,[],,,,,,50.0,0.0,i,1.0,False,1531.0999999046326,92.0,60.0,40.0,False,,272.5619879458203,[],"[960, 540]",ColorTask,12.0,16.0,,,HRV,HRV_0144,2022-11-30 18:27:11
,wl-rdm,24,122346,0.0-6.16-0.16,0.0,25.0,,,,,,,[],,,,,,53.2,1.0,i,1.0,True,1264.2000000476837,76.0,60.0,40.0,False,,283.13897418851155,[],"[960, 540]",ColorTask,13.0,17.0,,,HRV,HRV_0144,2022-11-30 18:27:11
,wl-rdm,25,125446,0.0-6.17-0.17,0.0,26.0,,,,,,,[],,,,,,50.0,0.0,i,1.0,False,1787.0999999046326,108.0,60.0,40.0,False,,227.81507149497457,[],"[960, 540]",ColorTask,12.0,18.0,,,HRV,HRV_0144,2022-11-30 18:27:11
,wl-rdm,26,127662,0.0-6.18-0.18,0.0,27.0,,,,,,,[],,,,,,87.9,0.0,u,0.0,True,861.0,52.0,60.0,40.0,False,,272.24875369102597,[],"[960, 540]",ColorTask,13.0,19.0,,,HRV,HRV_0144,2022-11-30 18:27:11
,wl-rdm,27,130196,0.0-6.19-0.19,0.0,28.0,,,,,,,[],,,,,,73.6,0.0,u,0.0,True,1230.2999999523163,74.0,60.0,40.0,False,,249.96872515689827,[],"[960, 540]",ColorTask,14.0,20.0,,,HRV,HRV_0144,2022-11-30 18:27:11
,wl-rdm,28,133196,0.0-6.20-0.20,0.0,29.0,,,,,,,[],,,,,,50.0,1.0,i,1.0,True,1698.3999998569489,102.0,60.0,40.0,False,,218.77470052008388,[],"[960, 540]",ColorTask,15.0,21.0,,,HRV,HRV_0144,2022-11-30 18:27:11
,wl-rdm,29,135446,0.0-6.21-0.21,0.0,30.0,,,,,,,[],,,,,,87.9,1.0,i,1.0,True,962.7000000476837,58.0,60.0,40.0,False,,229.1554827938972,[],"[960, 540]",ColorTask,16.0,22.0,,,HRV,HRV_0144,2022-11-30 18:27:11
,wl-rdm,30,137512,0.0-6.22-0.22,0.0,31.0,,,,,,,[],,,,,,87.9,0.0,u,0.0,True,694.2000000476837,42.0,60.0,40.0,False,,289.04911882954855,[],"[960, 540]",ColorTask,17.0,23.0,,,HRV,HRV_0144,2022-11-30 18:27:11
,wl-rdm,31,140012,0.0-6.23-0.23,0.0,32.0,,,,,,,[],,,,,,50.0,1.0,i,1.0,True,1041.0,63.0,60.0,40.0,False,,375.7620784380599,[],"[960, 540]",ColorTask,18.0,24.0,,,HRV,HRV_0144,2022-11-30 18:27:11
,wl-rdm,32,142279,0.0-6.24-0.24,0.0,33.0,,,,,,,[],,,,,,73.6,1.0,i,1.0,True,846.3999998569489,51.0,60.0,40.0,False,,341.6558533084334,[],"[960, 540]",ColorTask,19.0,25.0,,,HRV,HRV_0144,2022-11-30 18:27:11
,wl-rdm,33,144796,0.0-6.25-0.25,0.0,34.0,,,,,,,[],,,,,,62.5,0.0,u,0.0,True,1217.7000000476837,74.0,60.0,40.0,False,,214.26590822642368,[],"[960, 540]",ColorTask,20.0,26.0,,,HRV,HRV_0144,2022-11-30 18:27:11
,wl-rdm,34,147796,0.0-6.26-0.26,0.0,35.0,,,,,,,[],,,,,,50.0,0.0,i,1.0,False,1634.2999999523163,99.0,60.0,40.0,False,,292.2094949184609,[],"[960, 540]",ColorTask,19.0,27.0,,,HRV,HRV_0144,2022-11-30 18:27:11
,wl-rdm,35,150812,0.0-6.27-0.27,0.0,36.0,,,,,,,[],,,,,,53.2,1.0,u,0.0,False,1717.9000000953674,104.0,60.0,40.0,False,,201.1411970123312,[],"[960, 540]",ColorTask,18.0,28.0,,,HRV,HRV_0144,2022-11-30 18:27:11
,wl-rdm,36,153596,0.0-6.28-0.28,0.0,37.0,,,,,,,[],,,,,,56.4,1.0,i,1.0,True,1477.1000001430511,89.0,60.0,40.0,False,,221.43294732034218,[],"[960, 540]",ColorTask,19.0,29.0,,,HRV,HRV_0144,2022-11-30 18:27:11
,wl-rdm,37,156229,0.0-6.29-0.29,0.0,38.0,,,,,,,[],,,,,,53.2,1.0,i,1.0,True,1309.4000000953674,79.0,60.0,40.0,False,,242.21522523562953,[],"[960, 540]",ColorTask,20.0,30.0,,,HRV,HRV_0144,2022-11-30 18:27:11
,wl-rdm,38,159312,0.0-6.30-0.30,0.0,39.0,,,,,,,[],,,,,,53.2,0.0,i,1.0,False,1764.6999998092651,106.0,60.0,40.0,False,,248.3379156041138,[],"[960, 540]",ColorTask,19.0,31.0,,,HRV,HRV_0144,2022-11-30 18:27:11
,wl-rdm,39,162095,0.0-6.31-0.31,0.0,40.0,,,,,,,[],,,,,,62.5,1.0,i,1.0,True,1465.2000000476837,88.0,60.0,40.0,False,,264.94755498394164,[],"[960, 540]",ColorTask,20.0,32.0,,,HRV,HRV_0144,2022-11-30 18:27:11
,wl-rdm,40,164846,0.0-6.32-0.32,0.0,41.0,,,,,,,[],,,,,,62.5,0.0,u,0.0,True,1301.5999999046326,79.0,60.0,40.0,False,,378.4986607911851,[],"[960, 540]",ColorTask,21.0,33.0,,,HRV,HRV_0144,2022-11-30 18:27:11
,wl-rdm,41,167195,0.0-6.33-0.33,0.0,42.0,,,,,,,[],,,,,,73.6,1.0,i,1.0,True,1038.0,63.0,60.0,40.0,False,,217.81207158814806,[],"[960, 540]",ColorTask,22.0,34.0,,,HRV,HRV_0144,2022-11-30 18:27:11
,wl-rdm,42,169612,0.0-6.34-0.34,0.0,43.0,,,,,,,[],,,,,,53.2,1.0,i,1.0,True,1079.2000000476837,65.0,60.0,40.0,False,,257.140196546474,[],"[960, 540]",ColorTask,23.0,35.0,,,HRV,HRV_0144,2022-11-30 18:27:11
,wl-rdm,43,171895,0.0-6.35-0.35,0.0,44.0,,,,,,,[],,,,,,62.5,1.0,i,1.0,True,859.3999998569489,52.0,60.0,40.0,False,,347.9814635402585,[],"[960, 540]",ColorTask,24.0,36.0,,,HRV,HRV_0144,2022-11-30 18:27:11
,wl-rdm,44,173962,0.0-6.36-0.36,0.0,45.0,,,,,,,[],,,,,,73.6,0.0,u,0.0,True,757.2000000476837,46.0,60.0,40.0,False,,227.53448851516092,[],"[960, 540]",ColorTask,25.0,37.0,,,HRV,HRV_0144,2022-11-30 18:27:11
,wl-rdm,45,176529,0.0-6.37-0.37,0.0,46.0,,,,,,,[],,,,,,56.4,0.0,u,0.0,True,1267.8999998569489,77.0,60.0,40.0,False,,200.2595689285173,[],"[960, 540]",ColorTask,26.0,38.0,,,HRV,HRV_0144,2022-11-30 18:27:11
,wl-rdm,46,179029,0.0-6.38-0.38,0.0,47.0,,,,,,,[],,,,,,62.5,1.0,i,1.0,True,1146.9000000953674,69.0,60.0,40.0,False,,269.07535342453167,[],"[960, 540]",ColorTask,27.0,39.0,,,HRV,HRV_0144,2022-11-30 18:27:11
,wl-rdm,47,181979,0.0-6.39-0.39,0.0,48.0,,,,,,,[],,,,,,62.5,0.0,u,0.0,True,1650.5999999046326,100.0,60.0,40.0,False,,201.2991441386728,[],"[960, 540]",ColorTask,28.0,40.0,,,HRV,HRV_0144,2022-11-30 18:27:11
,wl-rdm,48,184395,0.0-6.40-0.40,0.0,49.0,,,,,,,[],,,,,,53.2,1.0,i,1.0,True,1065.7000000476837,64.0,60.0,40.0,False,,276.5486329043369,[],"[960, 540]",ColorTask,29.0,41.0,,,HRV,HRV_0144,2022-11-30 18:27:11
,wl-rdm,49,186745,0.0-6.41-0.41,0.0,50.0,,,,,,,[],,,,,,62.5,0.0,u,0.0,True,885.2999999523163,54.0,60.0,40.0,False,,379.50478996962624,[],"[960, 540]",ColorTask,30.0,42.0,,,HRV,HRV_0144,2022-11-30 18:27:11
,wl-rdm,50,189445,0.0-6.42-0.42,0.0,51.0,,,,,,,[],,,,,,50.0,1.0,i,1.0,True,1347.7999999523163,81.0,60.0,40.0,False,,277.2273964986217,[],"[960, 540]",ColorTask,31.0,43.0,,,HRV,HRV_0144,2022-11-30 18:27:11
,wl-rdm,51,191562,0.0-6.43-0.43,0.0,52.0,,,,,,,[],,,,,,87.9,1.0,i,1.0,True,785.5,48.0,60.0,40.0,False,,235.41237898647702,[],"[960, 540]",ColorTask,32.0,44.0,,,HRV,HRV_0144,2022-11-30 18:27:11
,wl-rdm,52,193962,0.0-6.44-0.44,0.0,53.0,,,,,,,[],,,,,,73.6,0.0,u,0.0,True,1027.5999999046326,62.0,60.0,40.0,False,,291.0121338304767,[],"[960, 540]",ColorTask,33.0,45.0,,,HRV,HRV_0144,2022-11-30 18:27:11
,wl-rdm,53,196162,0.0-6.45-0.45,0.0,54.0,,,,,,,[],,,,,,87.9,0.0,u,0.0,True,894.5,54.0,60.0,40.0,False,,229.63919132762243,[],"[960, 540]",ColorTask,34.0,46.0,,,HRV,HRV_0144,2022-11-30 18:27:11
,wl-rdm,54,198512,0.0-6.46-0.46,0.0,55.0,,,,,,,[],,,,,,56.4,0.0,i,1.0,False,880.1000001430511,53.0,60.0,40.0,False,,397.82829018210384,[],"[960, 540]",ColorTask,33.0,47.0,,,HRV,HRV_0144,2022-11-30 18:27:11
,wl-rdm,55,201795,0.0-6.47-0.47,0.0,56.0,,,,,,,[],,,,,,53.2,0.0,i,1.0,False,1919.2000000476837,116.0,60.0,40.0,False,,272.94482010747316,[],"[960, 540]",ColorTask,32.0,48.0,,,HRV,HRV_0144,2022-11-30 18:27:11
,wl-rdm,56,204828,0.0-6.48-0.48,0.0,57.0,,,,,,,[],,,,,,53.2,1.0,i,1.0,True,1718.8999998569489,104.0,60.0,40.0,False,,233.17855111703847,[],"[960, 540]",ColorTask,33.0,49.0,,,HRV,HRV_0144,2022-11-30 18:27:11
,wl-rdm,57,207545,0.0-6.49-0.49,0.0,58.0,,,,,,,[],,,,,,53.2,0.0,u,0.0,True,1346.2999999523163,81.0,60.0,40.0,False,,304.5678473460367,[],"[960, 540]",ColorTask,34.0,50.0,,,HRV,HRV_0144,2022-11-30 18:27:11
,wl-rdm,58,209745,0.0-6.50-0.50,0.0,59.0,,,,,,,[],,,,,,87.9,1.0,i,1.0,True,856.0,52.0,60.0,40.0,False,,259.96890940907707,[],"[960, 540]",ColorTask,35.0,51.0,,,HRV,HRV_0144,2022-11-30 18:27:11
,wl-rdm,59,211945,0.0-6.51-0.51,0.0,60.0,,,,,,,[],,,,,,73.6,0.0,u,0.0,True,914.2999999523163,55.0,60.0,40.0,False,,216.19544783787404,[],"[960, 540]",ColorTask,36.0,52.0,,,HRV,HRV_0144,2022-11-30 18:27:11
,wl-rdm,60,214245,0.0-6.52-0.52,0.0,61.0,,,,,,,[],,,,,,62.5,1.0,i,1.0,True,1002.8999998569489,61.0,60.0,40.0,False,,200.07956332908844,[],"[960, 540]",ColorTask,37.0,53.0,,,HRV,HRV_0144,2022-11-30 18:27:11
,wl-rdm,61,216678,0.0-6.53-0.53,0.0,62.0,,,,,,,[],,,,,,62.5,0.0,i,1.0,False,1110.1000001430511,67.0,60.0,40.0,False,,240.13416286433343,[],"[960, 540]",ColorTask,36.0,54.0,,,HRV,HRV_0144,2022-11-30 18:27:11
,wl-rdm,62,218928,0.0-6.54-0.54,0.0,63.0,,,,,,,[],,,,,,56.4,1.0,i,1.0,True,858.8000001907349,52.0,60.0,40.0,False,,302.37401069248847,[],"[960, 540]",ColorTask,37.0,55.0,,,HRV,HRV_0144,2022-11-30 18:27:11
,wl-rdm,63,221595,0.0-6.55-0.55,0.0,64.0,,,,,,,[],,,,,,62.5,1.0,i,1.0,True,1222.8000001907349,74.0,60.0,40.0,False,,363.7654709892525,[],"[960, 540]",ColorTask,38.0,56.0,,,HRV,HRV_0144,2022-11-30 18:27:11
,wl-rdm,64,223861,0.0-6.56-0.56,0.0,65.0,,,,,,,[],,,,,,73.6,0.0,u,0.0,True,978.7999999523163,59.0,60.0,40.0,False,,213.8575280560877,[],"[960, 540]",ColorTask,39.0,57.0,,,HRV,HRV_0144,2022-11-30 18:27:11
,wl-rdm,65,226078,0.0-6.57-0.57,0.0,66.0,,,,,,,[],,,,,,62.5,1.0,i,1.0,True,853.7999999523163,52.0,60.0,40.0,False,,273.65337050516433,[],"[960, 540]",ColorTask,40.0,58.0,,,HRV,HRV_0144,2022-11-30 18:27:11
,wl-rdm,66,228428,0.0-6.58-0.58,0.0,67.0,,,,,,,[],,,,,,73.6,0.0,u,0.0,True,1056.2999999523163,64.0,60.0,40.0,False,,214.71943116761238,[],"[960, 540]",ColorTask,41.0,59.0,,,HRV,HRV_0144,2022-11-30 18:27:11
,wl-rdm,67,230795,0.0-6.59-0.59,0.0,68.0,,,,,,,[],,,,,,53.2,0.0,i,1.0,False,998.8000001907349,60.0,60.0,40.0,False,,283.549311740367,[],"[960, 540]",ColorTask,40.0,60.0,,,HRV,HRV_0144,2022-11-30 18:27:11
,wl-rdm,68,232828,0.0-6.60-0.60,0.0,69.0,,,,,,,[],,,,,,73.6,0.0,u,0.0,True,739.3999998569489,45.0,60.0,40.0,False,,225.0379890044143,[],"[960, 540]",ColorTask,41.0,61.0,,,HRV,HRV_0144,2022-11-30 18:27:11
,wl-rdm,69,235277,0.0-6.61-0.61,0.0,70.0,,,,,,,[],,,,,,56.4,0.0,i,1.0,False,1121.9000000953674,68.0,60.0,40.0,False,,244.5926680999295,[],"[960, 540]",ColorTask,40.0,62.0,,,HRV,HRV_0144,2022-11-30 18:27:11
,wl-rdm,70,237411,0.0-6.62-0.62,0.0,71.0,,,,,,,[],,,,,,87.9,1.0,i,1.0,True,834.0,51.0,60.0,40.0,False,,202.42304393666885,[],"[960, 540]",ColorTask,41.0,63.0,,,HRV,HRV_0144,2022-11-30 18:27:11
,wl-rdm,71,240161,0.0-6.63-0.63,0.0,72.0,,,,,,,[],,,,,,62.5,0.0,u,0.0,True,1310.7999999523163,79.0,60.0,40.0,False,,363.6949996103824,[],"[960, 540]",ColorTask,42.0,64.0,,,HRV,HRV_0144,2022-11-30 18:27:11
,wl-rdm,72,242744,0.0-6.64-0.64,0.0,73.0,,,,,,,[],,,,,,50.0,1.0,u,0.0,False,1295.2999999523163,78.0,60.0,40.0,False,,208.28814397919518,[],"[960, 540]",ColorTask,41.0,65.0,,,HRV,HRV_0144,2022-11-30 18:27:11
,wl-rdm,73,244978,0.0-6.65-0.65,0.0,74.0,,,,,,,[],,,,,,87.9,0.0,u,0.0,True,877.5,53.0,60.0,40.0,False,,281.0094280046162,[],"[960, 540]",ColorTask,42.0,66.0,,,HRV,HRV_0144,2022-11-30 18:27:11
,wl-rdm,74,247527,0.0-6.66-0.66,0.0,75.0,,,,,,,[],,,,,,50.0,0.0,i,1.0,False,1196.7000002861023,72.0,60.0,40.0,False,,271.84083417918094,[],"[960, 540]",ColorTask,41.0,67.0,,,HRV,HRV_0144,2022-11-30 18:27:11
,wl-rdm,75,250560,0.0-6.67-0.67,0.0,76.0,,,,,,,[],,,,,,56.4,1.0,i,1.0,True,1704.7999999523163,103.0,60.0,40.0,False,,236.54981313740728,[],"[960, 540]",ColorTask,42.0,68.0,,,HRV,HRV_0144,2022-11-30 18:27:11
,wl-rdm,76,253194,0.0-6.68-0.68,0.0,77.0,,,,,,,[],,,,,,56.4,0.0,u,0.0,True,1153.7000000476837,70.0,60.0,40.0,False,,388.5629686841315,[],"[960, 540]",ColorTask,43.0,69.0,,,HRV,HRV_0144,2022-11-30 18:27:11
,wl-rdm,77,256627,0.0-6.69-0.69,0.0,78.0,,,,,,,[],,,,,,56.4,0.0,u,0.0,True,2019.7000000476837,122.0,60.0,40.0,False,,332.4620372543418,[],"[960, 540]",ColorTask,44.0,70.0,,,HRV,HRV_0144,2022-11-30 18:27:11
,wl-rdm,78,259694,0.0-6.70-0.70,0.0,79.0,,,,,,,[],,,,,,50.0,0.0,i,1.0,False,1684.0,102.0,60.0,40.0,False,,288.0459074546809,[],"[960, 540]",ColorTask,43.0,71.0,,,HRV,HRV_0144,2022-11-30 18:27:11
,wl-rdm,79,261827,0.0-6.71-0.71,0.0,80.0,,,,,,,[],,,,,,87.9,0.0,u,0.0,True,728.1000001430511,44.0,60.0,40.0,False,,333.63287827370476,[],"[960, 540]",ColorTask,44.0,72.0,,,HRV,HRV_0144,2022-11-30 18:27:11
,wl-rdm,80,265444,0.0-6.72-0.72,0.0,81.0,,,,,,,[],,,,,,50.0,1.0,u,0.0,False,2170.4000000953674,131.0,60.0,40.0,False,,351.9582576369694,[],"[960, 540]",ColorTask,43.0,73.0,,,HRV,HRV_0144,2022-11-30 18:27:11
,wl-rdm,81,269377,0.0-6.73-0.73,0.0,82.0,,,,,,,[],,,,,,50.0,1.0,u,0.0,False,2473.7999999523163,149.0,60.0,40.0,False,,375.58063054679405,[],"[960, 540]",ColorTask,42.0,74.0,,,HRV,HRV_0144,2022-11-30 18:27:11
,wl-rdm,82,272460,0.0-6.74-0.74,0.0,83.0,,,,,,,[],,,,,,56.4,0.0,u,0.0,True,1645.7999999523163,99.0,60.0,40.0,False,,352.6446738393853,[],"[960, 540]",ColorTask,43.0,75.0,,,HRV,HRV_0144,2022-11-30 18:27:11
,wl-rdm,83,275210,0.0-6.75-0.75,0.0,84.0,,,,,,,[],,,,,,73.6,0.0,u,0.0,True,1364.8999998569489,82.0,60.0,40.0,False,,300.9751766926457,[],"[960, 540]",ColorTask,44.0,76.0,,,HRV,HRV_0144,2022-11-30 18:27:11
,wl-rdm,84,278210,0.0-6.76-0.76,0.0,85.0,,,,,,,[],,,,,,53.2,0.0,u,0.0,True,1590.5,96.0,60.0,40.0,False,,332.52952746238725,[],"[960, 540]",ColorTask,45.0,77.0,,,HRV,HRV_0144,2022-11-30 18:27:11
,wl-rdm,85,280644,0.0-6.77-0.77,0.0,86.0,,,,,,,[],,,,,,50.0,1.0,i,1.0,True,1097.0,66.0,60.0,40.0,False,,281.3355005729704,[],"[960, 540]",ColorTask,46.0,78.0,,,HRV,HRV_0144,2022-11-30 18:27:11
,wl-rdm,86,283377,0.0-6.78-0.78,0.0,87.0,,,,,,,[],,,,,,50.0,0.0,i,1.0,False,1451.1000001430511,88.0,60.0,40.0,False,,215.2430579580863,[],"[960, 540]",ColorTask,45.0,79.0,,,HRV,HRV_0144,2022-11-30 18:27:11
,wl-rdm,87,286810,0.0-6.79-0.79,0.0,88.0,,,,,,,[],,,,,,53.2,1.0,i,1.0,True,1967.7000002861023,119.0,60.0,40.0,False,,376.7891967332066,[],"[960, 540]",ColorTask,46.0,80.0,,,HRV,HRV_0144,2022-11-30 18:27:11
,wl-rdm,88,289077,0.0-6.80-0.80,0.0,89.0,,,,,,,[],,,,,,56.4,1.0,i,1.0,True,831.2999999523163,50.0,60.0,40.0,False,,357.44338777798623,[],"[960, 540]",ColorTask,47.0,81.0,,,HRV,HRV_0144,2022-11-30 18:27:11
,wl-rdm,89,291977,0.0-6.81-0.81,0.0,90.0,,,,,,,[],,,,,,56.4,1.0,i,1.0,True,1602.3999998569489,97.0,60.0,40.0,False,,223.0310501557085,[],"[960, 540]",ColorTask,48.0,82.0,,,HRV,HRV_0144,2022-11-30 18:27:11
,wl-rdm,90,294710,0.0-6.82-0.82,0.0,91.0,,,,,,,[],,,,,,62.5,1.0,i,1.0,True,1323.0,80.0,60.0,40.0,False,,328.31012377018476,[],"[960, 540]",ColorTask,49.0,83.0,,,HRV,HRV_0144,2022-11-30 18:27:11
,wl-rdm,91,297460,0.0-6.83-0.83,0.0,92.0,,,,,,,[],,,,,,62.5,1.0,i,1.0,True,1474.6999998092651,89.0,60.0,40.0,False,,215.19097931043223,[],"[960, 540]",ColorTask,50.0,84.0,,,HRV,HRV_0144,2022-11-30 18:27:11
,wl-rdm,92,300377,0.0-6.84-0.84,0.0,93.0,,,,,,,[],,,,,,53.2,1.0,i,1.0,True,1437.9000000953674,87.0,60.0,40.0,False,,391.1015200254506,[],"[960, 540]",ColorTask,51.0,85.0,,,HRV,HRV_0144,2022-11-30 18:27:11
,wl-rdm,93,302527,0.0-6.85-0.85,0.0,94.0,,,,,,,[],,,,,,87.9,1.0,i,1.0,True,815.0,49.0,60.0,40.0,False,,256.2144351217628,[],"[960, 540]",ColorTask,52.0,86.0,,,HRV,HRV_0144,2022-11-30 18:27:11
,wl-rdm,94,304643,0.0-6.86-0.86,0.0,95.0,,,,,,,[],,,,,,87.9,0.0,u,0.0,True,819.5999999046326,50.0,60.0,40.0,False,,205.2638065470683,[],"[960, 540]",ColorTask,53.0,87.0,,,HRV,HRV_0144,2022-11-30 18:27:11
,wl-rdm,95,307377,0.0-6.87-0.87,0.0,96.0,,,,,,,[],,,,,,56.4,0.0,u,0.0,True,1439.2999999523163,87.0,60.0,40.0,False,,213.0639521731419,[],"[960, 540]",ColorTask,54.0,88.0,,,HRV,HRV_0144,2022-11-30 18:27:11
,wl-rdm,96,309510,0.0-6.88-0.88,0.0,97.0,,,,,,,[],,,,,,73.6,1.0,i,1.0,True,842.0999999046326,51.0,60.0,40.0,False,,201.1045178164912,[],"[960, 540]",ColorTask,55.0,89.0,,,HRV,HRV_0144,2022-11-30 18:27:11
,wl-rdm,97,311760,0.0-6.89-0.89,0.0,98.0,,,,,,,[],,,,,,73.6,1.0,i,1.0,True,798.0999999046326,48.0,60.0,40.0,False,,385.3260692962531,[],"[960, 540]",ColorTask,56.0,90.0,,,HRV,HRV_0144,2022-11-30 18:27:11
,wl-rdm,98,313810,0.0-6.90-0.90,0.0,99.0,,,,,,,[],,,,,,87.9,1.0,i,1.0,True,696.7999999523163,42.0,60.0,40.0,False,,280.28317127330024,[],"[960, 540]",ColorTask,57.0,91.0,,,HRV,HRV_0144,2022-11-30 18:27:11
,wl-rdm,99,316077,0.0-6.91-0.91,0.0,100.0,,,,,,,[],,,,,,62.5,0.0,u,0.0,True,961.2999999523163,58.0,60.0,40.0,False,,220.07370962866167,[],"[960, 540]",ColorTask,58.0,92.0,,,HRV,HRV_0144,2022-11-30 18:27:11
,wl-rdm,100,318160,0.0-6.92-0.92,0.0,101.0,,,,,,,[],,,,,,87.9,0.0,u,0.0,True,699.5999999046326,42.0,60.0,40.0,False,,303.8089038598167,[],"[960, 540]",ColorTask,59.0,93.0,,,HRV,HRV_0144,2022-11-30 18:27:11
,wl-rdm,101,320277,0.0-6.93-0.93,0.0,102.0,,,,,,,[],,,,,,50.0,0.0,i,1.0,False,695.2000000476837,42.0,60.0,40.0,False,,345.37043517775874,[],"[960, 540]",ColorTask,58.0,94.0,,,HRV,HRV_0144,2022-11-30 18:27:11
,wl-rdm,102,323093,0.0-6.94-0.94,0.0,103.0,,,,,,,[],,,,,,56.4,1.0,u,0.0,False,1437.2000000476837,87.0,60.0,40.0,False,,287.76212233226073,[],"[960, 540]",ColorTask,57.0,95.0,,,HRV,HRV_0144,2022-11-30 18:27:11
,wl-rdm,103,326493,0.0-6.95-0.95,0.0,104.0,,,,,,,[],,,,,,53.2,0.0,u,0.0,True,2003.7999999523163,121.0,60.0,40.0,False,,324.13638149569147,[],"[960, 540]",ColorTask,58.0,96.0,,,HRV,HRV_0144,2022-11-30 18:27:11
,wl-rdm,104,328993,0.0-6.96-0.96,0.0,105.0,,,,,,,[],,,,,,56.4,0.0,i,1.0,False,1084.4000000953674,66.0,60.0,40.0,False,,325.3759087553627,[],"[960, 540]",ColorTask,57.0,97.0,,,HRV,HRV_0144,2022-11-30 18:27:11
,wl-rdm,105,332260,0.0-6.97-0.97,0.0,106.0,,,,,,,[],,,,,,53.2,1.0,i,1.0,True,1823.5,110.0,60.0,40.0,False,,356.0748441940384,[],"[960, 540]",ColorTask,58.0,98.0,,,HRV,HRV_0144,2022-11-30 18:27:11
,wl-rdm,106,335310,0.0-6.98-0.98,0.0,107.0,,,,,,,[],,,,,,73.6,1.0,i,1.0,True,1729.8999998569489,104.0,60.0,40.0,False,,237.45584299830722,[],"[960, 540]",ColorTask,59.0,99.0,,,HRV,HRV_0144,2022-11-30 18:27:11
,wl-rdm,107,337460,0.0-6.99-0.99,0.0,108.0,,,,,,,[],,,,,,87.9,1.0,i,1.0,True,815.5999999046326,49.0,60.0,40.0,False,,260.1510189733199,[],"[960, 540]",ColorTask,60.0,100.0,,,HRV,HRV_0144,2022-11-30 18:27:11
,wl-rdm,108,339593,0.0-6.100-0.100,0.0,109.0,,,,,,,[],,,,,,87.9,1.0,i,1.0,True,726.7999999523163,44.0,60.0,40.0,False,,346.05146823750215,[],"[960, 540]",ColorTask,61.0,101.0,,,HRV,HRV_0144,2022-11-30 18:27:11
,wl-rdm,109,341577,0.0-6.101-0.101,0.0,110.0,,,,,,,[],,,,,,87.9,0.0,u,0.0,True,695.1000001430511,42.0,60.0,40.0,False,,206.42225701970162,[],"[960, 540]",ColorTask,62.0,102.0,,,HRV,HRV_0144,2022-11-30 18:27:11
,wl-rdm,110,344360,0.0-6.102-0.102,0.0,111.0,,,,,,,[],,,,,,56.4,0.0,i,1.0,False,1362.7000000476837,82.0,60.0,40.0,False,,346.7070577258018,[],"[960, 540]",ColorTask,61.0,103.0,,,HRV,HRV_0144,2022-11-30 18:27:11
,wl-rdm,111,347277,0.0-6.103-0.103,0.0,112.0,,,,,,,[],,,,,,73.6,1.0,i,1.0,True,1574.8000001907349,95.0,60.0,40.0,False,,282.4454710911806,[],"[960, 540]",ColorTask,62.0,104.0,,,HRV,HRV_0144,2022-11-30 18:27:11
,wl-rdm,112,349677,0.0-6.104-0.104,0.0,113.0,,,,,,,[],,,,,,53.2,0.0,i,1.0,False,1026.0,62.0,60.0,40.0,False,,288.98877414115395,[],"[960, 540]",ColorTask,61.0,105.0,,,HRV,HRV_0144,2022-11-30 18:27:11
,wl-rdm,113,352910,0.0-6.105-0.105,0.0,114.0,,,,,,,[],,,,,,50.0,0.0,u,0.0,True,1941.9000000953674,117.0,60.0,40.0,False,,211.70110055704922,[],"[960, 540]",ColorTask,62.0,106.0,,,HRV,HRV_0144,2022-11-30 18:27:11
,wl-rdm,114,355077,0.0-6.106-0.106,0.0,115.0,,,,,,,[],,,,,,87.9,1.0,i,1.0,True,826.0,50.0,60.0,40.0,False,,282.0382809571517,[],"[960, 540]",ColorTask,63.0,107.0,,,HRV,HRV_0144,2022-11-30 18:27:11
,wl-rdm,115,357210,0.0-6.107-0.107,0.0,116.0,,,,,,,[],,,,,,56.4,1.0,i,1.0,True,805.0,49.0,60.0,40.0,False,,239.62222581420232,[],"[960, 540]",ColorTask,64.0,108.0,,,HRV,HRV_0144,2022-11-30 18:27:11
,wl-html-keyboard-response,116,375959,0.0-7.0-0.0,1.0,117.0,,,,,,,,16729.200000047684,1.0,0,,,,,,,,,,,,,,,,,,,,,,HRV,HRV_0144,2022-11-30 18:27:11
,wl-rdm,117,378060,0.0-8.0-0.0,1.0,118.0,,,,,,,[],,,,,,73.6,1.0,i,1.0,True,748.0,45.0,60.0,40.0,False,,279.4951457477875,[],"[960, 540]",ColorTask,65.0,1.0,,,HRV,HRV_0144,2022-11-30 18:27:11
,wl-rdm,118,380210,0.0-8.1-0.1,1.0,119.0,,,,,,,[],,,,,,50.0,0.0,i,1.0,False,734.3000001907349,45.0,60.0,40.0,False,,332.45596470196887,[],"[960, 540]",ColorTask,64.0,2.0,,,HRV,HRV_0144,2022-11-30 18:27:11
,wl-rdm,119,382710,0.0-8.2-0.2,1.0,120.0,,,,,,,[],,,,,,56.4,0.0,u,0.0,True,1205.5,73.0,60.0,40.0,False,,216.54016622879578,[],"[960, 540]",ColorTask,65.0,3.0,,,HRV,HRV_0144,2022-11-30 18:27:11
,wl-rdm,120,385710,0.0-8.3-0.3,1.0,121.0,,,,,,,[],,,,,,56.4,1.0,u,0.0,False,1597.2999999523163,96.0,60.0,40.0,False,,330.0540486596568,[],"[960, 540]",ColorTask,64.0,4.0,,,HRV,HRV_0144,2022-11-30 18:27:11
,wl-rdm,121,387960,0.0-8.4-0.4,1.0,122.0,,,,,,,[],,,,,,62.5,1.0,i,1.0,True,812.3000001907349,49.0,60.0,40.0,False,,351.92471996919255,[],"[960, 540]",ColorTask,65.0,5.0,,,HRV,HRV_0144,2022-11-30 18:27:11
,wl-rdm,122,390677,0.0-8.5-0.5,1.0,123.0,,,,,,,[],,,,,,53.2,0.0,u,0.0,True,1366.1000001430511,82.0,60.0,40.0,False,,282.03074902771317,[],"[960, 540]",ColorTask,66.0,6.0,,,HRV,HRV_0144,2022-11-30 18:27:11
,wl-rdm,123,392743,0.0-8.6-0.6,1.0,124.0,,,,,,,[],,,,,,73.6,1.0,i,1.0,True,772.5999999046326,47.0,60.0,40.0,False,,207.8889130370792,[],"[960, 540]",ColorTask,67.0,7.0,,,HRV,HRV_0144,2022-11-30 18:27:11
,wl-rdm,124,394827,0.0-8.7-0.7,1.0,125.0,,,,,,,[],,,,,,87.9,0.0,u,0.0,True,694.1999998092651,42.0,60.0,40.0,False,,305.3699803838676,[],"[960, 540]",ColorTask,68.0,8.0,,,HRV,HRV_0144,2022-11-30 18:27:11
,wl-rdm,125,397393,0.0-8.8-0.8,1.0,126.0,,,,,,,[],,,,,,53.2,1.0,u,0.0,False,1204.2000000476837,73.0,60.0,40.0,False,,287.0620693142315,[],"[960, 540]",ColorTask,67.0,9.0,,,HRV,HRV_0144,2022-11-30 18:27:11
,wl-rdm,126,400210,0.0-8.9-0.9,1.0,127.0,,,,,,,[],,,,,,62.5,1.0,i,1.0,True,1445.7999999523163,87.0,60.0,40.0,False,,298.887948003077,[],"[960, 540]",ColorTask,68.0,10.0,,,HRV,HRV_0144,2022-11-30 18:27:11
,wl-rdm,127,402977,0.0-8.10-0.10,1.0,128.0,,,,,,,[],,,,,,62.5,0.0,u,0.0,True,1380.8000001907349,83.0,60.0,40.0,False,,303.0206999106427,[],"[960, 540]",ColorTask,69.0,11.0,,,HRV,HRV_0144,2022-11-30 18:27:11
,wl-rdm,128,405393,0.0-8.11-0.11,1.0,129.0,,,,,,,[],,,,,,62.5,0.0,u,0.0,True,1072.8000001907349,65.0,60.0,40.0,False,,259.2085008748651,[],"[960, 540]",ColorTask,70.0,12.0,,,HRV,HRV_0144,2022-11-30 18:27:11
,wl-rdm,129,408160,0.0-8.12-0.12,1.0,130.0,,,,,,,[],,,,,,50.0,1.0,u,0.0,False,1448.7000000476837,87.0,60.0,40.0,False,,250.52270178175266,[],"[960, 540]",ColorTask,69.0,13.0,,,HRV,HRV_0144,2022-11-30 18:27:11
,wl-rdm,130,411143,0.0-8.13-0.13,1.0,131.0,,,,,,,[],,,,,,53.2,1.0,u,0.0,False,1667.8000001907349,101.0,60.0,40.0,False,,216.5688428155069,[],"[960, 540]",ColorTask,68.0,14.0,,,HRV,HRV_0144,2022-11-30 18:27:11
,wl-rdm,131,413510,0.0-8.14-0.14,1.0,132.0,,,,,,,[],,,,,,73.6,1.0,i,1.0,True,936.0,57.0,60.0,40.0,False,,345.22205108219623,[],"[960, 540]",ColorTask,69.0,15.0,,,HRV,HRV_0144,2022-11-30 18:27:11
,wl-rdm,132,416127,0.0-8.15-0.15,1.0,133.0,,,,,,,[],,,,,,50.0,1.0,i,1.0,True,1277.1999998092651,77.0,60.0,40.0,False,,256.56102225024466,[],"[960, 540]",ColorTask,70.0,16.0,,,HRV,HRV_0144,2022-11-30 18:27:11
,wl-rdm,133,418860,0.0-8.16-0.16,1.0,134.0,,,,,,,[],,,,,,56.4,0.0,u,0.0,True,1379.7999999523163,83.0,60.0,40.0,False,,295.8350630278886,[],"[960, 540]",ColorTask,71.0,17.0,,,HRV,HRV_0144,2022-11-30 18:27:11
,wl-rdm,134,421910,0.0-8.17-0.17,1.0,135.0,,,,,,,[],,,,,,50.0,1.0,i,1.0,True,1628.7999999523163,98.0,60.0,40.0,False,,341.3846598897806,[],"[960, 540]",ColorTask,72.0,18.0,,,HRV,HRV_0144,2022-11-30 18:27:11
,wl-rdm,135,424027,0.0-8.18-0.18,1.0,136.0,,,,,,,[],,,,,,62.5,1.0,i,1.0,True,782.5,47.0,60.0,40.0,False,,254.38631276756803,[],"[960, 540]",ColorTask,73.0,19.0,,,HRV,HRV_0144,2022-11-30 18:27:11
,wl-rdm,136,426243,0.0-8.19-0.19,1.0,137.0,,,,,,,[],,,,,,50.0,0.0,u,0.0,True,899.1999998092651,54.0,60.0,40.0,False,,236.4667447770522,[],"[960, 540]",ColorTask,74.0,20.0,,,HRV,HRV_0144,2022-11-30 18:27:11
,wl-rdm,137,428310,0.0-8.20-0.20,1.0,138.0,,,,,,,[],,,,,,73.6,1.0,i,1.0,True,730.0,44.0,60.0,40.0,False,,263.7012728151991,[],"[960, 540]",ColorTask,75.0,21.0,,,HRV,HRV_0144,2022-11-30 18:27:11
,wl-rdm,138,430977,0.0-8.21-0.21,1.0,139.0,,,,,,,[],,,,,,73.6,0.0,u,0.0,True,1303.2999999523163,79.0,60.0,40.0,False,,268.4183421884869,[],"[960, 540]",ColorTask,76.0,22.0,,,HRV,HRV_0144,2022-11-30 18:27:11
,wl-rdm,139,433660,0.0-8.22-0.22,1.0,140.0,,,,,,,[],,,,,,56.4,0.0,i,1.0,False,1317.5000002384186,80.0,60.0,40.0,False,,274.0463173464507,[],"[960, 540]",ColorTask,75.0,23.0,,,HRV,HRV_0144,2022-11-30 18:27:11
,wl-rdm,140,436127,0.0-8.23-0.23,1.0,141.0,,,,,,,[],,,,,,73.6,1.0,i,1.0,True,1122.7000000476837,68.0,60.0,40.0,False,,254.3938047771386,[],"[960, 540]",ColorTask,76.0,24.0,,,HRV,HRV_0144,2022-11-30 18:27:11
,wl-rdm,141,438426,0.0-8.24-0.24,1.0,142.0,,,,,,,[],,,,,,87.9,1.0,i,1.0,True,827.0999999046326,50.0,60.0,40.0,False,,384.571556497913,[],"[960, 540]",ColorTask,77.0,25.0,,,HRV,HRV_0144,2022-11-30 18:27:11
,wl-rdm,142,440710,0.0-8.25-0.25,1.0,143.0,,,,,,,[],,,,,,73.6,0.0,u,0.0,True,832.2000000476837,50.0,60.0,40.0,False,,370.1017789809391,[],"[960, 540]",ColorTask,78.0,26.0,,,HRV,HRV_0144,2022-11-30 18:27:11
,wl-rdm,143,442926,0.0-8.26-0.26,1.0,144.0,,,,,,,[],,,,,,56.4,0.0,u,0.0,True,874.0999999046326,53.0,60.0,40.0,False,,265.206606450948,[],"[960, 540]",ColorTask,79.0,27.0,,,HRV,HRV_0144,2022-11-30 18:27:11
,wl-rdm,144,445393,0.0-8.27-0.27,1.0,145.0,,,,,,,[],,,,,,56.4,1.0,u,0.0,False,1079.7000000476837,65.0,60.0,40.0,False,,315.7520878570148,[],"[960, 540]",ColorTask,78.0,28.0,,,HRV,HRV_0144,2022-11-30 18:27:11
,wl-rdm,145,447710,0.0-8.28-0.28,1.0,146.0,,,,,,,[],,,,,,62.5,1.0,i,1.0,True,1000.2000000476837,60.0,60.0,40.0,False,,247.63997821323215,[],"[960, 540]",ColorTask,79.0,29.0,,,HRV,HRV_0144,2022-11-30 18:27:11
,wl-rdm,146,450193,0.0-8.29-0.29,1.0,147.0,,,,,,,[],,,,,,53.2,1.0,u,0.0,False,1139.2000002861023,69.0,60.0,40.0,False,,266.38987748871205,[],"[960, 540]",ColorTask,78.0,30.0,,,HRV,HRV_0144,2022-11-30 18:27:11
,wl-rdm,147,453676,0.0-8.30-0.30,1.0,148.0,,,,,,,[],,,,,,50.0,0.0,i,1.0,False,2194.7999997138977,132.0,60.0,40.0,False,,204.176055099623,[],"[960, 540]",ColorTask,77.0,31.0,,,HRV,HRV_0144,2022-11-30 18:27:11
,wl-rdm,148,455843,0.0-8.31-0.31,1.0,149.0,,,,,,,[],,,,,,87.9,1.0,i,1.0,True,812.7000000476837,49.0,60.0,40.0,False,,273.33598342784495,[],"[960, 540]",ColorTask,78.0,32.0,,,HRV,HRV_0144,2022-11-30 18:27:11
,wl-rdm,149,458076,0.0-8.32-0.32,1.0,150.0,,,,,,,[],,,,,,53.2,1.0,i,1.0,True,937.1999998092651,57.0,60.0,40.0,False,,207.56741045316534,[],"[960, 540]",ColorTask,79.0,33.0,,,HRV,HRV_0144,2022-11-30 18:27:11
,wl-rdm,150,460176,0.0-8.33-0.33,1.0,151.0,,,,,,,[],,,,,,87.9,0.0,u,0.0,True,716.2999999523163,43.0,60.0,40.0,False,,300.5024064734847,[],"[960, 540]",ColorTask,80.0,34.0,,,HRV,HRV_0144,2022-11-30 18:27:11
,wl-rdm,151,463410,0.0-8.34-0.34,1.0,152.0,,,,,,,[],,,,,,50.0,1.0,i,1.0,True,1831.5,110.0,60.0,40.0,False,,336.0024159293931,[],"[960, 540]",ColorTask,81.0,35.0,,,HRV,HRV_0144,2022-11-30 18:27:11
,wl-rdm,152,465460,0.0-8.35-0.35,1.0,153.0,,,,,,,[],,,,,,56.4,1.0,i,1.0,True,738.7999999523163,45.0,60.0,40.0,False,,245.7105275726901,[],"[960, 540]",ColorTask,82.0,36.0,,,HRV,HRV_0144,2022-11-30 18:27:11
,wl-rdm,153,467743,0.0-8.36-0.36,1.0,154.0,,,,,,,[],,,,,,62.5,1.0,i,1.0,True,852.9000000953674,52.0,60.0,40.0,False,,339.1663403015648,[],"[960, 540]",ColorTask,83.0,37.0,,,HRV,HRV_0144,2022-11-30 18:27:11
,wl-rdm,154,469826,0.0-8.37-0.37,1.0,155.0,,,,,,,[],,,,,,87.9,0.0,u,0.0,True,774.5999999046326,47.0,60.0,40.0,False,,221.98842252604666,[],"[960, 540]",ColorTask,84.0,38.0,,,HRV,HRV_0144,2022-11-30 18:27:11
,wl-rdm,155,472660,0.0-8.38-0.38,1.0,156.0,,,,,,,[],,,,,,53.2,0.0,i,1.0,False,1506.3999998569489,91.0,60.0,40.0,False,,257.3384730807187,[],"[960, 540]",ColorTask,83.0,39.0,,,HRV,HRV_0144,2022-11-30 18:27:11
,wl-rdm,156,475476,0.0-8.39-0.39,1.0,157.0,,,,,,,[],,,,,,73.6,0.0,u,0.0,True,1365.0999999046326,82.0,60.0,40.0,False,,377.54292425188584,[],"[960, 540]",ColorTask,84.0,40.0,,,HRV,HRV_0144,2022-11-30 18:27:11
,wl-rdm,157,477809,0.0-8.40-0.40,1.0,158.0,,,,,,,[],,,,,,53.2,1.0,i,1.0,True,852.1000001430511,52.0,60.0,40.0,False,,385.5256855536826,[],"[960, 540]",ColorTask,85.0,41.0,,,HRV,HRV_0144,2022-11-30 18:27:11
,wl-rdm,158,480409,0.0-8.41-0.41,1.0,159.0,,,,,,,[],,,,,,50.0,0.0,u,0.0,True,1185.7000000476837,72.0,60.0,40.0,False,,327.2548747322759,[],"[960, 540]",ColorTask,86.0,42.0,,,HRV,HRV_0144,2022-11-30 18:27:11
,wl-rdm,159,483742,0.0-8.42-0.42,1.0,160.0,,,,,,,[],,,,,,56.4,1.0,i,1.0,True,1855.5999999046326,112.0,60.0,40.0,False,,387.81908256274687,[],"[960, 540]",ColorTask,87.0,43.0,,,HRV,HRV_0144,2022-11-30 18:27:11
,wl-rdm,160,487442,0.0-8.43-0.43,1.0,161.0,,,,,,,[],,,,,,50.0,0.0,i,1.0,False,2410.4999997615814,145.0,60.0,40.0,False,,204.95860653007756,[],"[960, 540]",ColorTask,86.0,44.0,,,HRV,HRV_0144,2022-11-30 18:27:11
,wl-rdm,161,490542,0.0-8.44-0.44,1.0,162.0,,,,,,,[],,,,,,53.2,0.0,i,1.0,False,1681.4000000953674,101.0,60.0,40.0,False,,334.6633168646255,[],"[960, 540]",ColorTask,85.0,45.0,,,HRV,HRV_0144,2022-11-30 18:27:11
,wl-rdm,162,494526,0.0-8.45-0.45,1.0,163.0,,,,,,,[],,,,,,62.5,0.0,u,0.0,True,2658.2000000476837,160.0,60.0,40.0,False,,244.27985672783973,[],"[960, 540]",ColorTask,86.0,46.0,,,HRV,HRV_0144,2022-11-30 18:27:11
,wl-rdm,163,497809,0.0-8.46-0.46,1.0,164.0,,,,,,,[],,,,,,50.0,1.0,i,1.0,True,2004.8999998569489,121.0,60.0,40.0,False,,200.1637527907401,[],"[960, 540]",ColorTask,87.0,47.0,,,HRV,HRV_0144,2022-11-30 18:27:11
,wl-rdm,164,500326,0.0-8.47-0.47,1.0,165.0,,,,,,,[],,,,,,87.9,0.0,u,0.0,True,1059.1999998092651,64.0,60.0,40.0,False,,371.7132070401093,[],"[960, 540]",ColorTask,88.0,48.0,,,HRV,HRV_0144,2022-11-30 18:27:11
,wl-rdm,165,503742,0.0-8.48-0.48,1.0,166.0,,,,,,,[],,,,,,62.5,1.0,i,1.0,True,2017.9000000953674,122.0,60.0,40.0,False,,316.47340115699956,[],"[960, 540]",ColorTask,89.0,49.0,,,HRV,HRV_0144,2022-11-30 18:27:11
,wl-rdm,166,507326,0.0-8.49-0.49,1.0,167.0,,,,,,,[],,,,,,50.0,0.0,u,0.0,True,2210.399999856949,133.0,60.0,40.0,False,,290.09030535073794,[],"[960, 540]",ColorTask,90.0,50.0,,,HRV,HRV_0144,2022-11-30 18:27:11
,wl-rdm,167,509959,0.0-8.50-0.50,1.0,168.0,,,,,,,[],,,,,,73.6,1.0,i,1.0,True,1267.9000000953674,77.0,60.0,40.0,False,,297.6925246956706,[],"[960, 540]",ColorTask,91.0,51.0,,,HRV,HRV_0144,2022-11-30 18:27:11
,wl-rdm,168,512326,0.0-8.51-0.51,1.0,169.0,,,,,,,[],,,,,,87.9,0.0,u,0.0,True,970.0,59.0,60.0,40.0,False,,304.3500424917944,[],"[960, 540]",ColorTask,92.0,52.0,,,HRV,HRV_0144,2022-11-30 18:27:11
,wl-rdm,169,514876,0.0-8.52-0.52,1.0,170.0,,,,,,,[],,,,,,62.5,1.0,i,1.0,True,1122.4000000953674,68.0,60.0,40.0,False,,348.1386523985674,[],"[960, 540]",ColorTask,93.0,53.0,,,HRV,HRV_0144,2022-11-30 18:27:11
,wl-rdm,170,517725,0.0-8.53-0.53,1.0,171.0,,,,,,,[],,,,,,56.4,0.0,u,0.0,True,1454.1000001430511,88.0,60.0,40.0,False,,308.605042023306,[],"[960, 540]",ColorTask,94.0,54.0,,,HRV,HRV_0144,2022-11-30 18:27:11
,wl-rdm,171,520259,0.0-8.54-0.54,1.0,172.0,,,,,,,[],,,,,,56.4,0.0,i,1.0,False,1148.8999998569489,69.0,60.0,40.0,False,,308.1888587212683,[],"[960, 540]",ColorTask,93.0,55.0,,,HRV,HRV_0144,2022-11-30 18:27:11
,wl-rdm,172,523442,0.0-8.55-0.55,1.0,173.0,,,,,,,[],,,,,,53.2,0.0,u,0.0,True,1800.0,108.0,60.0,40.0,False,,312.38990932574706,[],"[960, 540]",ColorTask,94.0,56.0,,,HRV,HRV_0144,2022-11-30 18:27:11
,wl-rdm,173,526275,0.0-8.56-0.56,1.0,174.0,,,,,,,[],,,,,,62.5,0.0,i,1.0,False,1384.1000001430511,84.0,60.0,40.0,False,,350.4092784182916,[],"[960, 540]",ColorTask,93.0,57.0,,,HRV,HRV_0144,2022-11-30 18:27:11
,wl-rdm,174,529892,0.0-8.57-0.57,1.0,175.0,,,,,,,[],,,,,,62.5,1.0,i,1.0,True,2224.300000190735,134.0,60.0,40.0,False,,311.2030944371587,[],"[960, 540]",ColorTask,94.0,58.0,,,HRV,HRV_0144,2022-11-30 18:27:11
,wl-rdm,175,532625,0.0-8.58-0.58,1.0,176.0,,,,,,,[],,,,,,56.4,0.0,i,1.0,False,1403.0,85.0,60.0,40.0,False,,234.88512132268957,[],"[960, 540]",ColorTask,93.0,59.0,,,HRV,HRV_0144,2022-11-30 18:27:11
,wl-rdm,176,535292,0.0-8.59-0.59,1.0,177.0,,,,,,,[],,,,,,50.0,0.0,i,1.0,False,1375.2000000476837,83.0,60.0,40.0,False,,200.06215456397567,[],"[960, 540]",ColorTask,92.0,60.0,,,HRV,HRV_0144,2022-11-30 18:27:11
,wl-rdm,177,537559,0.0-8.60-0.60,1.0,178.0,,,,,,,[],,,,,,87.9,1.0,i,1.0,True,963.7999999523163,58.0,60.0,40.0,False,,244.08578122115068,[],"[960, 540]",ColorTask,93.0,61.0,,,HRV,HRV_0144,2022-11-30 18:27:11
,wl-rdm,178,540209,0.0-8.61-0.61,1.0,179.0,,,,,,,[],,,,,,73.6,1.0,i,1.0,True,1354.6999998092651,82.0,60.0,40.0,False,,203.03778562591708,[],"[960, 540]",ColorTask,94.0,62.0,,,HRV,HRV_0144,2022-11-30 18:27:11
,wl-rdm,179,542992,0.0-8.62-0.62,1.0,180.0,,,,,,,[],,,,,,53.2,0.0,u,0.0,True,1497.3999998569489,90.0,60.0,40.0,False,,200.5430923841126,[],"[960, 540]",ColorTask,95.0,63.0,,,HRV,HRV_0144,2022-11-30 18:27:11
,wl-rdm,180,545225,0.0-8.63-0.63,1.0,181.0,,,,,,,[],,,,,,87.9,1.0,i,1.0,True,879.6999998092651,53.0,60.0,40.0,False,,283.190434713388,[],"[960, 540]",ColorTask,96.0,64.0,,,HRV,HRV_0144,2022-11-30 18:27:11
,wl-rdm,181,547359,0.0-8.64-0.64,1.0,182.0,,,,,,,[],,,,,,87.9,1.0,i,1.0,True,749.3999998569489,45.0,60.0,40.0,False,,315.05997642961825,[],"[960, 540]",ColorTask,97.0,65.0,,,HRV,HRV_0144,2022-11-30 18:27:11
,wl-rdm,182,549575,0.0-8.65-0.65,1.0,183.0,,,,,,,[],,,,,,73.6,0.0,u,0.0,True,874.5,53.0,60.0,40.0,False,,253.4641727427363,[],"[960, 540]",ColorTask,98.0,66.0,,,HRV,HRV_0144,2022-11-30 18:27:11
,wl-rdm,183,551842,0.0-8.66-0.66,1.0,184.0,,,,,,,[],,,,,,56.4,1.0,i,1.0,True,846.0999999046326,51.0,60.0,40.0,False,,354.11873533291475,[],"[960, 540]",ColorTask,99.0,67.0,,,HRV,HRV_0144,2022-11-30 18:27:11
,wl-rdm,184,553942,0.0-8.67-0.67,1.0,185.0,,,,,,,[],,,,,,53.2,1.0,i,1.0,True,793.4000000953674,48.0,60.0,40.0,False,,231.73352927287425,[],"[960, 540]",ColorTask,100.0,68.0,,,HRV,HRV_0144,2022-11-30 18:27:11
,wl-rdm,185,556175,0.0-8.68-0.68,1.0,186.0,,,,,,,[],,,,,,87.9,0.0,u,0.0,True,867.5,53.0,60.0,40.0,False,,292.1316704439269,[],"[960, 540]",ColorTask,101.0,69.0,,,HRV,HRV_0144,2022-11-30 18:27:11
,wl-rdm,186,558192,0.0-8.69-0.69,1.0,187.0,,,,,,,[],,,,,,73.6,0.0,u,0.0,True,717.2999999523163,44.0,60.0,40.0,False,,210.07281242746632,[],"[960, 540]",ColorTask,102.0,70.0,,,HRV,HRV_0144,2022-11-30 18:27:11
,wl-rdm,187,560592,0.0-8.70-0.70,1.0,188.0,,,,,,,[],,,,,,56.4,0.0,i,1.0,False,1050.9000000953674,64.0,60.0,40.0,False,,276.2431911425927,[],"[960, 540]",ColorTask,101.0,71.0,,,HRV,HRV_0144,2022-11-30 18:27:11
,wl-rdm,188,562892,0.0-8.71-0.71,1.0,189.0,,,,,,,[],,,,,,87.9,0.0,u,0.0,True,955.4000000953674,58.0,60.0,40.0,False,,254.8357653106061,[],"[960, 540]",ColorTask,102.0,72.0,,,HRV,HRV_0144,2022-11-30 18:27:11
,wl-rdm,189,565042,0.0-8.72-0.72,1.0,190.0,,,,,,,[],,,,,,73.6,0.0,u,0.0,True,807.4000000953674,49.0,60.0,40.0,False,,276.7562432027708,[],"[960, 540]",ColorTask,103.0,73.0,,,HRV,HRV_0144,2022-11-30 18:27:11
,wl-rdm,190,567975,0.0-8.73-0.73,1.0,191.0,,,,,,,[],,,,,,50.0,1.0,i,1.0,True,1511.0000002384186,91.0,60.0,40.0,False,,335.7716130576643,[],"[960, 540]",ColorTask,104.0,74.0,,,HRV,HRV_0144,2022-11-30 18:27:11
,wl-rdm,191,570575,0.0-8.74-0.74,1.0,192.0,,,,,,,[],,,,,,53.2,0.0,i,1.0,False,1128.1000001430511,68.0,60.0,40.0,False,,396.3205345134685,[],"[960, 540]",ColorTask,103.0,75.0,,,HRV,HRV_0144,2022-11-30 18:27:11
,wl-rdm,192,573975,0.0-8.75-0.75,1.0,193.0,,,,,,,[],,,,,,56.4,1.0,i,1.0,True,2077.9000000953674,125.0,60.0,40.0,False,,259.3425144472982,[],"[960, 540]",ColorTask,104.0,76.0,,,HRV,HRV_0144,2022-11-30 18:27:11
,wl-rdm,193,576908,0.0-8.76-0.76,1.0,194.0,,,,,,,[],,,,,,50.0,0.0,u,0.0,True,1648.6000001430511,99.0,60.0,40.0,False,,216.58808256119877,[],"[960, 540]",ColorTask,105.0,77.0,,,HRV,HRV_0144,2022-11-30 18:27:11
,wl-rdm,194,579125,0.0-8.77-0.77,1.0,195.0,,,,,,,[],,,,,,62.5,1.0,i,1.0,True,923.5999999046326,56.0,60.0,40.0,False,,212.4259501760223,[],"[960, 540]",ColorTask,106.0,78.0,,,HRV,HRV_0144,2022-11-30 18:27:11
,wl-rdm,195,581592,0.0-8.78-0.78,1.0,196.0,,,,,,,[],,,,,,62.5,0.0,u,0.0,True,1004.5999999046326,61.0,60.0,40.0,False,,379.67312134941074,[],"[960, 540]",ColorTask,107.0,79.0,,,HRV,HRV_0144,2022-11-30 18:27:11
,wl-rdm,196,584375,0.0-8.79-0.79,1.0,197.0,,,,,,,[],,,,,,53.2,0.0,i,1.0,False,1396.5999999046326,84.0,60.0,40.0,False,,318.9226125877659,[],"[960, 540]",ColorTask,106.0,80.0,,,HRV,HRV_0144,2022-11-30 18:27:11
,wl-rdm,197,586742,0.0-8.80-0.80,1.0,198.0,,,,,,,[],,,,,,73.6,0.0,u,0.0,True,981.7000002861023,59.0,60.0,40.0,False,,327.08126952806816,[],"[960, 540]",ColorTask,107.0,81.0,,,HRV,HRV_0144,2022-11-30 18:27:11
,wl-rdm,198,589275,0.0-8.81-0.81,1.0,199.0,,,,,,,[],,,,,,56.4,1.0,i,1.0,True,1260.2999999523163,76.0,60.0,40.0,False,,202.01628711464363,[],"[960, 540]",ColorTask,108.0,82.0,,,HRV,HRV_0144,2022-11-30 18:27:11
,wl-rdm,199,591442,0.0-8.82-0.82,1.0,200.0,,,,,,,[],,,,,,56.4,1.0,i,1.0,True,770.2999999523163,47.0,60.0,40.0,False,,330.17090260549014,[],"[960, 540]",ColorTask,109.0,83.0,,,HRV,HRV_0144,2022-11-30 18:27:11
,wl-rdm,200,595875,0.0-8.83-0.83,1.0,200.0,,,,,,,[],,,,,,56.4,1.0,,,,,179.0,60.0,40.0,True,RT_timeout ,324.6355667773627,[],"[960, 540]",ColorTask,108.0,84.0,,,HRV,HRV_0144,2022-11-30 18:27:11
,wl-rdm,201,596958,0.0-8.84-0.84,1.0,200.0,,,,,,,[],,,,,,50.0,1.0,u,,,140.29999995231628,0.0,60.0,40.0,True,too_early ,219.7759374221912,[],"[960, 540]",ColorTask,107.0,85.0,,,HRV,HRV_0144,2022-11-30 18:27:11
,wl-rdm,202,599308,0.0-8.85-0.85,1.0,201.0,,,,,,,[],,,,,,50.0,1.0,u,0.0,False,1053.0,64.0,60.0,40.0,False,,211.41736122498816,[],"[960, 540]",ColorTask,106.0,86.0,,,HRV,HRV_0144,2022-11-30 18:27:11
,wl-rdm,203,601408,0.0-8.86-0.86,1.0,202.0,,,,,,,[],,,,,,87.9,1.0,i,1.0,True,807.5999999046326,49.0,60.0,40.0,False,,208.9854748501056,[],"[960, 540]",ColorTask,107.0,87.0,,,HRV,HRV_0144,2022-11-30 18:27:11
,wl-rdm,204,604025,0.0-8.87-0.87,1.0,203.0,,,,,,,[],,,,,,53.2,1.0,i,1.0,True,1215.1000001430511,73.0,60.0,40.0,False,,319.3439374749316,[],"[960, 540]",ColorTask,108.0,88.0,,,HRV,HRV_0144,2022-11-30 18:27:11
,wl-rdm,205,606558,0.0-8.88-0.88,1.0,204.0,,,,,,,[],,,,,,62.5,0.0,u,0.0,True,1219.0,74.0,60.0,40.0,False,,232.18481058318213,[],"[960, 540]",ColorTask,109.0,89.0,,,HRV,HRV_0144,2022-11-30 18:27:11
,wl-rdm,206,609025,0.0-8.89-0.89,1.0,205.0,,,,,,,[],,,,,,53.2,1.0,i,1.0,True,1100.7000000476837,67.0,60.0,40.0,False,,273.0064799206904,[],"[960, 540]",ColorTask,110.0,90.0,,,HRV,HRV_0144,2022-11-30 18:27:11
,wl-rdm,207,611708,0.0-8.90-0.90,1.0,206.0,,,,,,,[],,,,,,62.5,0.0,u,0.0,True,1238.7000000476837,75.0,60.0,40.0,False,,351.34808584092593,[],"[960, 540]",ColorTask,111.0,91.0,,,HRV,HRV_0144,2022-11-30 18:27:11
,wl-rdm,208,613825,0.0-8.91-0.91,1.0,207.0,,,,,,,[],,,,,,73.6,1.0,i,1.0,True,817.4000000953674,50.0,60.0,40.0,False,,228.68493975764756,[],"[960, 540]",ColorTask,112.0,92.0,,,HRV,HRV_0144,2022-11-30 18:27:11
,wl-rdm,209,615925,0.0-8.92-0.92,1.0,208.0,,,,,,,[],,,,,,62.5,0.0,u,0.0,True,713.2999999523163,43.0,60.0,40.0,False,,301.29719403055606,[],"[960, 540]",ColorTask,113.0,93.0,,,HRV,HRV_0144,2022-11-30 18:27:11
,wl-rdm,210,618108,0.0-8.93-0.93,1.0,209.0,,,,,,,[],,,,,,50.0,1.0,i,1.0,True,781.0,47.0,60.0,40.0,False,,323.3122549971648,[],"[960, 540]",ColorTask,114.0,94.0,,,HRV,HRV_0144,2022-11-30 18:27:11
,wl-rdm,211,620258,0.0-8.94-0.94,1.0,210.0,,,,,,,[],,,,,,56.4,1.0,i,1.0,True,834.1999998092651,51.0,60.0,40.0,False,,221.87017962560657,[],"[960, 540]",ColorTask,115.0,95.0,,,HRV,HRV_0144,2022-11-30 18:27:11
,wl-rdm,212,622358,0.0-8.95-0.95,1.0,211.0,,,,,,,[],,,,,,87.9,1.0,i,1.0,True,746.0,45.0,60.0,40.0,False,,292.69332561707347,[],"[960, 540]",ColorTask,116.0,96.0,,,HRV,HRV_0144,2022-11-30 18:27:11
,wl-rdm,213,624458,0.0-8.96-0.96,1.0,212.0,,,,,,,[],,,,,,87.9,1.0,i,1.0,True,701.5,43.0,60.0,40.0,False,,310.6895795351196,[],"[960, 540]",ColorTask,117.0,97.0,,,HRV,HRV_0144,2022-11-30 18:27:11
,wl-rdm,214,626625,0.0-8.97-0.97,1.0,213.0,,,,,,,[],,,,,,73.6,1.0,i,1.0,True,686.5,42.0,60.0,40.0,False,,396.6604704442468,[],"[960, 540]",ColorTask,118.0,98.0,,,HRV,HRV_0144,2022-11-30 18:27:11
,wl-rdm,215,628741,0.0-8.98-0.98,1.0,214.0,,,,,,,[],,,,,,62.5,0.0,u,0.0,True,681.5999999046326,41.0,60.0,40.0,False,,351.7975139219544,[],"[960, 540]",ColorTask,119.0,99.0,,,HRV,HRV_0144,2022-11-30 18:27:11
,wl-rdm,216,631108,0.0-8.99-0.99,1.0,215.0,,,,,,,[],,,,,,73.6,0.0,u,0.0,True,933.3999998569489,56.0,60.0,40.0,False,,359.73007700537255,[],"[960, 540]",ColorTask,120.0,100.0,,,HRV,HRV_0144,2022-11-30 18:27:11
,wl-rdm,217,633558,0.0-8.100-0.100,1.0,216.0,,,,,,,[],,,,,,50.0,1.0,u,0.0,False,1023.9000000953674,62.0,60.0,40.0,False,,340.8191376037073,[],"[960, 540]",ColorTask,119.0,101.0,,,HRV,HRV_0144,2022-11-30 18:27:11
,wl-rdm,218,635858,0.0-8.101-0.101,1.0,217.0,,,,,,,[],,,,,,87.9,0.0,u,0.0,True,820.0999999046326,50.0,60.0,40.0,False,,392.8271672466015,[],"[960, 540]",ColorTask,120.0,102.0,,,HRV,HRV_0144,2022-11-30 18:27:11
,wl-rdm,219,638008,0.0-8.102-0.102,1.0,218.0,,,,,,,[],,,,,,53.2,1.0,i,1.0,True,704.9000000953674,43.0,60.0,40.0,False,,379.48616666610826,[],"[960, 540]",ColorTask,121.0,103.0,,,HRV,HRV_0144,2022-11-30 18:27:11
,wl-rdm,220,640041,0.0-8.103-0.103,1.0,219.0,,,,,,,[],,,,,,87.9,1.0,i,1.0,True,754.1000001430511,46.0,60.0,40.0,False,,205.17428686297737,[],"[960, 540]",ColorTask,122.0,104.0,,,HRV,HRV_0144,2022-11-30 18:27:11
,wl-rdm,221,642558,0.0-8.104-0.104,1.0,220.0,,,,,,,[],,,,,,53.2,0.0,u,0.0,True,1084.3999998569489,66.0,60.0,40.0,False,,334.5581214897977,[],"[960, 540]",ColorTask,123.0,105.0,,,HRV,HRV_0144,2022-11-30 18:27:11
,wl-rdm,222,644741,0.0-8.105-0.105,1.0,221.0,,,,,,,[],,,,,,73.6,0.0,u,0.0,True,885.1999998092651,54.0,60.0,40.0,False,,207.49698151129778,[],"[960, 540]",ColorTask,124.0,106.0,,,HRV,HRV_0144,2022-11-30 18:27:11
,wl-rdm,223,648041,0.0-8.106-0.106,1.0,222.0,,,,,,,[],,,,,,53.2,0.0,i,1.0,False,1922.8999998569489,116.0,60.0,40.0,False,,286.8460237333438,[],"[960, 540]",ColorTask,123.0,107.0,,,HRV,HRV_0144,2022-11-30 18:27:11
,wl-rdm,224,650575,0.0-8.107-0.107,1.0,223.0,,,,,,,[],,,,,,50.0,0.0,u,0.0,True,1118.0,68.0,60.0,40.0,False,,326.23390605759215,[],"[960, 540]",ColorTask,124.0,108.0,,,HRV,HRV_0144,2022-11-30 18:27:11
,wl-rdm,225,652674,0.0-8.108-0.108,1.0,224.0,,,,,,,[],,,,,,87.9,0.0,u,0.0,True,713.0,43.0,60.0,40.0,False,,330.5743945074054,[],"[960, 540]",ColorTask,125.0,109.0,,,HRV,HRV_0144,2022-11-30 18:27:11
,wl-rdm,226,655074,0.0-8.109-0.109,1.0,225.0,,,,,,,[],,,,,,56.4,0.0,i,1.0,False,1080.8999998569489,65.0,60.0,40.0,False,,249.2843110536554,[],"[960, 540]",ColorTask,124.0,110.0,,,HRV,HRV_0144,2022-11-30 18:27:11
,wl-html-button-response,227,658232,0.0-9.0-0.0,,,,,,,,,,3156.7000000476837,,0,,,,,,,,,,,,,,,,,,,,<h3>End of this session. Thank you!</h3><br>,['Close window'],HRV,HRV_0144,2022-11-30 18:27:11
