trialN,stimuli,trialStartTime,trialStartTime_UNIX,stimulus1,stimulus2,stimulus1Bid,stimulus2Bid,delta,selected,rt,rt_UNIX,rt_perfnow,receivedResponse,rsp,trialEndTime,trialDuration,trialEndTime_UNIX,trialDuration_UNIX,exp,subjectId,date
0,"[{'imgObject': {}, 'id': 'tacos', 'src': '/static/foodstim60/tacos.jpg', 'key': 'u', 'origWidth': 411, 'origHeight': 411, 'width': 411, 'height': 411, 'widthPercent': 0.45, 'rescaleHeight': False, 'trialN': 0, 'loaded': True, 'loadedTime': 2984.0999999046326, 'positionName': 'LEFT', 'positionCoords': [510.6, 334.5], 'bid': 9.84}, {'imgObject': {}, 'id': 'grilled chicken strips', 'src': '/static/foodstim60/grilled chicken strips.jpg', 'key': 'i', 'origWidth': 410, 'origHeight': 411, 'width': 410, 'height': 411, 'widthPercent': 0.45, 'rescaleHeight': False, 'trialN': 0, 'loaded': True, 'loadedTime': 3018.199999809265, 'positionName': 'RIGHT', 'positionCoords': [998.4, 334.5], 'bid': 7.53}]",3283.5999999046326,1669830799874,tacos,grilled chicken strips,9.84,7.53,-2.3099999999999996,grilled chicken strips,2038.7000000476837,2039,2039.0999999046326,True,i,5838.299999952316,2554.7000000476837,1669830802429,2555,HRV,HRV_0144,2022-11-30 17:59:59
1,"[{'imgObject': {}, 'id': 'sushi w_condiments', 'src': '/static/foodstim60/sushi w_condiments.jpg', 'key': 'u', 'origWidth': 410, 'origHeight': 410, 'width': 410, 'height': 410, 'widthPercent': 0.45, 'rescaleHeight': False, 'trialN': 1, 'loaded': True, 'loadedTime': 3034.899999856949, 'positionName': 'LEFT', 'positionCoords': [511.6, 335], 'bid': 0.03}, {'imgObject': {}, 'id': 'fruitsalad', 'src': '/static/foodstim60/fruitsalad.jpg', 'key': 'i', 'origWidth': 410, 'origHeight': 410, 'width': 410, 'height': 410, 'widthPercent': 0.45, 'rescaleHeight': False, 'trialN': 1, 'loaded': True, 'loadedTime': 3035.899999856949, 'positionName': 'RIGHT', 'positionCoords': [998.4, 335], 'bid': 3.16}]",5838.5,1669830802429,sushi w_condiments,fruitsalad,0.03,3.16,3.1300000000000003,fruitsalad,1420.0999999046326,1420,1420.3999998569489,True,i,7774.099999904633,1935.5999999046326,1669830804364,1935,HRV,HRV_0144,2022-11-30 17:59:59
2,"[{'imgObject': {}, 'id': 'apple slices', 'src': '/static/foodstim60/apple slices.jpg', 'key': 'u', 'origWidth': 409, 'origHeight': 410, 'width': 409, 'height': 410, 'widthPercent': 0.45, 'rescaleHeight': False, 'trialN': 2, 'loaded': True, 'loadedTime': 3037.5, 'positionName': 'LEFT', 'positionCoords': [512.6, 335], 'bid': 1.27}, {'imgObject': {}, 'id': 'granola w milk', 'src': '/static/foodstim60/granola w milk.jpg', 'key': 'i', 'origWidth': 410, 'origHeight': 410, 'width': 410, 'height': 410, 'widthPercent': 0.45, 'rescaleHeight': False, 'trialN': 2, 'loaded': True, 'loadedTime': 3039.5999999046326, 'positionName': 'RIGHT', 'positionCoords': [998.4, 335], 'bid': 9.08}]",7774.399999856949,1669830804365,apple slices,granola w milk,1.27,9.08,7.8100000000000005,granola w milk,1684.4000000953674,1684,1684.7000000476837,True,i,9976.899999856949,2202.5,1669830806567,2202,HRV,HRV_0144,2022-11-30 17:59:59
3,"[{'imgObject': {}, 'id': 'fried eggs', 'src': '/static/foodstim60/fried eggs.jpg', 'key': 'u', 'origWidth': 410, 'origHeight': 410, 'width': 410, 'height': 410, 'widthPercent': 0.45, 'rescaleHeight': False, 'trialN': 3, 'loaded': True, 'loadedTime': 3044.0999999046326, 'positionName': 'LEFT', 'positionCoords': [511.6, 335], 'bid': 5.55}, {'imgObject': {}, 'id': 'chickenfingers', 'src': '/static/foodstim60/chickenfingers.jpg', 'key': 'i', 'origWidth': 410, 'origHeight': 410, 'width': 410, 'height': 410, 'widthPercent': 0.45, 'rescaleHeight': False, 'trialN': 3, 'loaded': True, 'loadedTime': 3057, 'positionName': 'RIGHT', 'positionCoords': [998.4, 335], 'bid': 7}]",9977.099999904633,1669830806567,fried eggs,chickenfingers,5.55,7.0,1.4500000000000002,chickenfingers,1778.5,1779,1778.7000000476837,True,i,12269.199999809265,2292.0999999046326,1669830808860,2293,HRV,HRV_0144,2022-11-30 17:59:59
4,"[{'imgObject': {}, 'id': 'sweetpotato', 'src': '/static/foodstim60/sweetpotato.jpg', 'key': 'u', 'origWidth': 410, 'origHeight': 410, 'width': 410, 'height': 410, 'widthPercent': 0.45, 'rescaleHeight': False, 'trialN': 4, 'loaded': True, 'loadedTime': 3025.5999999046326, 'positionName': 'LEFT', 'positionCoords': [511.6, 335], 'bid': 0.08}, {'imgObject': {}, 'id': 'cocktailshrimp', 'src': '/static/foodstim60/cocktailshrimp.jpg', 'key': 'i', 'origWidth': 410, 'origHeight': 410, 'width': 410, 'height': 410, 'widthPercent': 0.45, 'rescaleHeight': False, 'trialN': 4, 'loaded': True, 'loadedTime': 3028.5999999046326, 'positionName': 'RIGHT', 'positionCoords': [998.4, 335], 'bid': 0.08}]",12269.399999856949,1669830808860,sweetpotato,cocktailshrimp,0.08,0.08,0.0,cocktailshrimp,1150.2999999523163,1150,1150.6000001430511,True,i,13930.5,1661.1000001430511,1669830810521,1661,HRV,HRV_0144,2022-11-30 17:59:59
5,"[{'imgObject': {}, 'id': 'ice cream sundae 002', 'src': '/static/foodstim60/ice cream sundae 002.jpg', 'key': 'u', 'origWidth': 409, 'origHeight': 409, 'width': 409, 'height': 409, 'widthPercent': 0.45, 'rescaleHeight': False, 'trialN': 5, 'loaded': True, 'loadedTime': 3030.2999999523163, 'positionName': 'LEFT', 'positionCoords': [512.6, 335.5], 'bid': 8.13}, {'imgObject': {}, 'id': 'veggieswithdip', 'src': '/static/foodstim60/veggieswithdip.jpg', 'key': 'i', 'origWidth': 409, 'origHeight': 409, 'width': 409, 'height': 409, 'widthPercent': 0.45, 'rescaleHeight': False, 'trialN': 5, 'loaded': True, 'loadedTime': 3033.2999999523163, 'positionName': 'RIGHT', 'positionCoords': [998.4, 335.5], 'bid': 8}]",13930.699999809265,1669830810521,ice cream sundae 002,veggieswithdip,8.13,8.0,-0.13000000000000078,ice cream sundae 002,2193.5,2194,2193.800000190735,True,u,16636.0,2705.300000190735,1669830813226,2705,HRV,HRV_0144,2022-11-30 17:59:59
6,"[{'imgObject': {}, 'id': 'mango', 'src': '/static/foodstim60/mango.jpg', 'key': 'u', 'origWidth': 411, 'origHeight': 411, 'width': 411, 'height': 411, 'widthPercent': 0.45, 'rescaleHeight': False, 'trialN': 6, 'loaded': True, 'loadedTime': 3108, 'positionName': 'LEFT', 'positionCoords': [510.6, 334.5], 'bid': 0.13}, {'imgObject': {}, 'id': 'avocado', 'src': '/static/foodstim60/avocado.jpg', 'key': 'i', 'origWidth': 409, 'origHeight': 409, 'width': 409, 'height': 409, 'widthPercent': 0.45, 'rescaleHeight': False, 'trialN': 6, 'loaded': True, 'loadedTime': 3108.7999999523163, 'positionName': 'RIGHT', 'positionCoords': [998.4, 335.5], 'bid': 0.12}]",16636.39999985695,1669830813227,mango,avocado,0.13,0.12,-0.010000000000000009,mango,1432.0,1432,1432.2999999523163,True,u,18585.299999952316,1948.9000000953674,1669830815176,1949,HRV,HRV_0144,2022-11-30 17:59:59
7,"[{'imgObject': {}, 'id': 'rigatoni and sauce', 'src': '/static/foodstim60/rigatoni and sauce.jpg', 'key': 'u', 'origWidth': 410, 'origHeight': 411, 'width': 410, 'height': 411, 'widthPercent': 0.45, 'rescaleHeight': False, 'trialN': 7, 'loaded': True, 'loadedTime': 3119.399999856949, 'positionName': 'LEFT', 'positionCoords': [511.6, 334.5], 'bid': 2.51}, {'imgObject': {}, 'id': 'chicken nuggets2', 'src': '/static/foodstim60/chicken nuggets2.jpg', 'key': 'i', 'origWidth': 410, 'origHeight': 409, 'width': 410, 'height': 409, 'widthPercent': 0.45, 'rescaleHeight': False, 'trialN': 7, 'loaded': True, 'loadedTime': 3128.5999999046326, 'positionName': 'RIGHT', 'positionCoords': [998.4, 335.5], 'bid': 1.47}]",18585.5,1669830815176,rigatoni and sauce,chicken nuggets2,2.51,1.47,-1.0399999999999998,chicken nuggets2,2131.399999856949,2131,2131.699999809265,True,i,21220.199999809265,2634.699999809265,1669830817810,2634,HRV,HRV_0144,2022-11-30 17:59:59
8,"[{'imgObject': {}, 'id': 'turkey sandwich', 'src': '/static/foodstim60/turkey sandwich.jpg', 'key': 'u', 'origWidth': 409, 'origHeight': 409, 'width': 409, 'height': 409, 'widthPercent': 0.45, 'rescaleHeight': False, 'trialN': 8, 'loaded': True, 'loadedTime': 3136, 'positionName': 'LEFT', 'positionCoords': [512.6, 335.5], 'bid': 7.51}, {'imgObject': {}, 'id': 'grilled chicken strips', 'src': '/static/foodstim60/grilled chicken strips.jpg', 'key': 'i', 'origWidth': 410, 'origHeight': 411, 'width': 410, 'height': 411, 'widthPercent': 0.45, 'rescaleHeight': False, 'trialN': 8, 'loaded': True, 'loadedTime': 3018.5, 'positionName': 'RIGHT', 'positionCoords': [998.4, 334.5], 'bid': 7.53}]",21220.39999985695,1669830817811,turkey sandwich,grilled chicken strips,7.51,7.53,0.020000000000000462,grilled chicken strips,1376.9000000953674,1377,1377.2000000476837,True,i,23103.099999904633,1882.7000000476837,1669830819693,1882,HRV,HRV_0144,2022-11-30 17:59:59
9,"[{'imgObject': {}, 'id': 'chicken nuggets2', 'src': '/static/foodstim60/chicken nuggets2.jpg', 'key': 'u', 'origWidth': 410, 'origHeight': 409, 'width': 410, 'height': 409, 'widthPercent': 0.45, 'rescaleHeight': False, 'trialN': 9, 'loaded': True, 'loadedTime': 3128.5, 'positionName': 'LEFT', 'positionCoords': [511.6, 335.5], 'bid': 1.47}, {'imgObject': {}, 'id': 'apple slices', 'src': '/static/foodstim60/apple slices.jpg', 'key': 'i', 'origWidth': 409, 'origHeight': 410, 'width': 409, 'height': 410, 'widthPercent': 0.45, 'rescaleHeight': False, 'trialN': 9, 'loaded': True, 'loadedTime': 3037.5, 'positionName': 'RIGHT', 'positionCoords': [998.4, 335], 'bid': 1.27}]",23103.39999985695,1669830819694,chicken nuggets2,apple slices,1.47,1.27,-0.19999999999999996,apple slices,2166.2000000476837,2166,2166.5,True,i,25774.799999952316,2671.4000000953674,1669830822365,2671,HRV,HRV_0144,2022-11-30 17:59:59
10,"[{'imgObject': {}, 'id': 'blueberries', 'src': '/static/foodstim60/blueberries.jpg', 'key': 'u', 'origWidth': 411, 'origHeight': 411, 'width': 411, 'height': 411, 'widthPercent': 0.45, 'rescaleHeight': False, 'trialN': 10, 'loaded': True, 'loadedTime': 3147.699999809265, 'positionName': 'LEFT', 'positionCoords': [510.6, 334.5], 'bid': 0}, {'imgObject': {}, 'id': 'blackbeanswithrice', 'src': '/static/foodstim60/blackbeanswithrice.jpg', 'key': 'i', 'origWidth': 410, 'origHeight': 410, 'width': 410, 'height': 410, 'widthPercent': 0.45, 'rescaleHeight': False, 'trialN': 10, 'loaded': True, 'loadedTime': 3167.199999809265, 'positionName': 'RIGHT', 'positionCoords': [998.4, 335], 'bid': 0.06}]",25775.0,1669830822365,blueberries,blackbeanswithrice,0.0,0.06,0.06,blueberries,2046.8999998569489,2047,2047.1999998092651,True,u,28336.39999985695,2561.399999856949,1669830824927,2562,HRV,HRV_0144,2022-11-30 17:59:59
11,"[{'imgObject': {}, 'id': 'raisin bran w milk', 'src': '/static/foodstim60/raisin bran w milk.jpg', 'key': 'u', 'origWidth': 411, 'origHeight': 411, 'width': 411, 'height': 411, 'widthPercent': 0.45, 'rescaleHeight': False, 'trialN': 11, 'loaded': True, 'loadedTime': 3186.0999999046326, 'positionName': 'LEFT', 'positionCoords': [510.6, 334.5], 'bid': 9.53}, {'imgObject': {}, 'id': 'banana', 'src': '/static/foodstim60/banana.jpg', 'key': 'i', 'origWidth': 410, 'origHeight': 410, 'width': 410, 'height': 410, 'widthPercent': 0.45, 'rescaleHeight': False, 'trialN': 11, 'loaded': True, 'loadedTime': 3194.899999856949, 'positionName': 'RIGHT', 'positionCoords': [998.4, 335], 'bid': 1.42}]",28336.5,1669830824927,raisin bran w milk,banana,9.53,1.42,-8.11,raisin bran w milk,1101.8999998569489,1102,1102.1999998092651,True,u,29961.599999904633,1625.0999999046326,1669830826552,1625,HRV,HRV_0144,2022-11-30 17:59:59
12,"[{'imgObject': {}, 'id': 'bagel plain', 'src': '/static/foodstim60/bagel plain.jpg', 'key': 'u', 'origWidth': 410, 'origHeight': 410, 'width': 410, 'height': 410, 'widthPercent': 0.45, 'rescaleHeight': False, 'trialN': 12, 'loaded': True, 'loadedTime': 3196, 'positionName': 'LEFT', 'positionCoords': [511.6, 335], 'bid': 2.11}, {'imgObject': {}, 'id': 'hashbrowns', 'src': '/static/foodstim60/hashbrowns.jpg', 'key': 'i', 'origWidth': 411, 'origHeight': 410, 'width': 411, 'height': 410, 'widthPercent': 0.45, 'rescaleHeight': False, 'trialN': 12, 'loaded': True, 'loadedTime': 3206.5, 'positionName': 'RIGHT', 'positionCoords': [998.4, 335], 'bid': 0}]",29961.799999952316,1669830826552,bagel plain,hashbrowns,2.11,0.0,-2.11,bagel plain,1701.0,1701,1701.2000000476837,True,u,32183.89999985695,2222.0999999046326,1669830828774,2222,HRV,HRV_0144,2022-11-30 17:59:59
13,"[{'imgObject': {}, 'id': 'burrito', 'src': '/static/foodstim60/burrito.jpg', 'key': 'u', 'origWidth': 410, 'origHeight': 410, 'width': 410, 'height': 410, 'widthPercent': 0.45, 'rescaleHeight': False, 'trialN': 13, 'loaded': True, 'loadedTime': 3209.0999999046326, 'positionName': 'LEFT', 'positionCoords': [511.6, 335], 'bid': 0.1}, {'imgObject': {}, 'id': 'seaweed', 'src': '/static/foodstim60/seaweed.jpg', 'key': 'i', 'origWidth': 410, 'origHeight': 410, 'width': 410, 'height': 410, 'widthPercent': 0.45, 'rescaleHeight': False, 'trialN': 13, 'loaded': True, 'loadedTime': 3212, 'positionName': 'RIGHT', 'positionCoords': [998.4, 335], 'bid': 0.11}]",32184.199999809265,1669830828774,burrito,seaweed,0.1,0.11,0.009999999999999995,burrito,1399.1000001430511,1400,1399.3000001907349,True,u,34102.09999990463,1917.9000000953674,1669830830692,1918,HRV,HRV_0144,2022-11-30 17:59:59
14,"[{'imgObject': {}, 'id': 'hotdog w must', 'src': '/static/foodstim60/hotdog w must.jpg', 'key': 'u', 'origWidth': 409, 'origHeight': 409, 'width': 409, 'height': 409, 'widthPercent': 0.45, 'rescaleHeight': False, 'trialN': 14, 'loaded': True, 'loadedTime': 3214.399999856949, 'positionName': 'LEFT', 'positionCoords': [512.6, 335.5], 'bid': 4.43}, {'imgObject': {}, 'id': 'luckycharms', 'src': '/static/foodstim60/luckycharms.jpg', 'key': 'i', 'origWidth': 410, 'origHeight': 409, 'width': 410, 'height': 409, 'widthPercent': 0.45, 'rescaleHeight': False, 'trialN': 14, 'loaded': True, 'loadedTime': 3224.0999999046326, 'positionName': 'RIGHT', 'positionCoords': [998.4, 335.5], 'bid': 8.21}]",34102.39999985695,1669830830693,hotdog w must,luckycharms,4.43,8.21,3.780000000000001,luckycharms,1632.7000000476837,1633,1632.9000000953674,True,i,36252.39999985695,2150.0,1669830832843,2150,HRV,HRV_0144,2022-11-30 17:59:59
15,"[{'imgObject': {}, 'id': 'turkeysandwich', 'src': '/static/foodstim60/turkeysandwich.jpg', 'key': 'u', 'origWidth': 409, 'origHeight': 409, 'width': 409, 'height': 409, 'widthPercent': 0.45, 'rescaleHeight': False, 'trialN': 15, 'loaded': True, 'loadedTime': 3233.699999809265, 'positionName': 'LEFT', 'positionCoords': [512.6, 335.5], 'bid': 6.51}, {'imgObject': {}, 'id': 'steak', 'src': '/static/foodstim60/steak.jpg', 'key': 'i', 'origWidth': 410, 'origHeight': 410, 'width': 410, 'height': 410, 'widthPercent': 0.45, 'rescaleHeight': False, 'trialN': 15, 'loaded': True, 'loadedTime': 3250, 'positionName': 'RIGHT', 'positionCoords': [998.4, 335], 'bid': 9.86}]",36252.59999990463,1669830832843,turkeysandwich,steak,6.51,9.86,3.3499999999999996,steak,1187.0,1187,1187.2999999523163,True,i,37961.09999990463,1708.5,1669830834551,1708,HRV,HRV_0144,2022-11-30 17:59:59
16,"[{'imgObject': {}, 'id': 'popsicles', 'src': '/static/foodstim60/popsicles.jpg', 'key': 'u', 'origWidth': 410, 'origHeight': 410, 'width': 410, 'height': 410, 'widthPercent': 0.45, 'rescaleHeight': False, 'trialN': 16, 'loaded': True, 'loadedTime': 3251.7999999523163, 'positionName': 'LEFT', 'positionCoords': [511.6, 335], 'bid': 1.73}, {'imgObject': {}, 'id': 'steak', 'src': '/static/foodstim60/steak.jpg', 'key': 'i', 'origWidth': 410, 'origHeight': 410, 'width': 410, 'height': 410, 'widthPercent': 0.45, 'rescaleHeight': False, 'trialN': 16, 'loaded': True, 'loadedTime': 3241.699999809265, 'positionName': 'RIGHT', 'positionCoords': [998.4, 335], 'bid': 9.86}]",37961.39999985695,1669830834552,popsicles,steak,1.73,9.86,8.129999999999999,steak,1030.5,1030,1030.7999999523163,True,i,39502.199999809265,1540.7999999523163,1669830836093,1541,HRV,HRV_0144,2022-11-30 17:59:59
17,"[{'imgObject': {}, 'id': 'froot loops w milk', 'src': '/static/foodstim60/froot loops w milk.jpg', 'key': 'u', 'origWidth': 410, 'origHeight': 410, 'width': 410, 'height': 410, 'widthPercent': 0.45, 'rescaleHeight': False, 'trialN': 17, 'loaded': True, 'loadedTime': 3251.899999856949, 'positionName': 'LEFT', 'positionCoords': [511.6, 335], 'bid': 8.86}, {'imgObject': {}, 'id': 'Grapes', 'src': '/static/foodstim60/Grapes.jpg', 'key': 'i', 'origWidth': 411, 'origHeight': 411, 'width': 411, 'height': 411, 'widthPercent': 0.45, 'rescaleHeight': False, 'trialN': 17, 'loaded': True, 'loadedTime': 3261.899999856949, 'positionName': 'RIGHT', 'positionCoords': [998.4, 334.5], 'bid': 6.88}]",39502.59999990463,1669830836093,froot loops w milk,Grapes,8.86,6.88,-1.9799999999999995,Grapes,1521.7999999523163,1522,1522.2000000476837,True,i,41534.199999809265,2031.5999999046326,1669830838124,2031,HRV,HRV_0144,2022-11-30 17:59:59
18,"[{'imgObject': {}, 'id': 'sweetpotato', 'src': '/static/foodstim60/sweetpotato.jpg', 'key': 'u', 'origWidth': 410, 'origHeight': 410, 'width': 410, 'height': 410, 'widthPercent': 0.45, 'rescaleHeight': False, 'trialN': 18, 'loaded': True, 'loadedTime': 3023.5, 'positionName': 'LEFT', 'positionCoords': [511.6, 335], 'bid': 0.08}, {'imgObject': {}, 'id': 'burger', 'src': '/static/foodstim60/burger.jpg', 'key': 'i', 'origWidth': 409, 'origHeight': 409, 'width': 409, 'height': 409, 'widthPercent': 0.45, 'rescaleHeight': False, 'trialN': 18, 'loaded': True, 'loadedTime': 3267.399999856949, 'positionName': 'RIGHT', 'positionCoords': [998.4, 335.5], 'bid': 5.88}]",41534.299999952316,1669830838125,sweetpotato,burger,0.08,5.88,5.8,burger,1514.2000000476837,1514,1514.5,True,i,43568.299999952316,2034.0,1669830840159,2034,HRV,HRV_0144,2022-11-30 17:59:59
19,"[{'imgObject': {}, 'id': 'kiwi', 'src': '/static/foodstim60/kiwi.jpg', 'key': 'u', 'origWidth': 410, 'origHeight': 410, 'width': 410, 'height': 410, 'widthPercent': 0.45, 'rescaleHeight': False, 'trialN': 19, 'loaded': True, 'loadedTime': 3268.399999856949, 'positionName': 'LEFT', 'positionCoords': [511.6, 335], 'bid': 0.65}, {'imgObject': {}, 'id': 'froot loops w milk', 'src': '/static/foodstim60/froot loops w milk.jpg', 'key': 'i', 'origWidth': 410, 'origHeight': 410, 'width': 410, 'height': 410, 'widthPercent': 0.45, 'rescaleHeight': False, 'trialN': 19, 'loaded': True, 'loadedTime': 3258.699999809265, 'positionName': 'RIGHT', 'positionCoords': [998.4, 335], 'bid': 8.86}]",43568.5,1669830840159,kiwi,froot loops w milk,0.65,8.86,8.209999999999999,froot loops w milk,1488.1999998092651,1488,1488.5,True,i,45569.09999990463,2000.5999999046326,1669830842159,2000,HRV,HRV_0144,2022-11-30 17:59:59
20,"[{'imgObject': {}, 'id': 'lox', 'src': '/static/foodstim60/lox.jpg', 'key': 'u', 'origWidth': 410, 'origHeight': 411, 'width': 410, 'height': 411, 'widthPercent': 0.45, 'rescaleHeight': False, 'trialN': 20, 'loaded': True, 'loadedTime': 3269.0999999046326, 'positionName': 'LEFT', 'positionCoords': [511.6, 334.5], 'bid': 0.09}, {'imgObject': {}, 'id': 'olives', 'src': '/static/foodstim60/olives.jpg', 'key': 'i', 'origWidth': 410, 'origHeight': 410, 'width': 410, 'height': 410, 'widthPercent': 0.45, 'rescaleHeight': False, 'trialN': 20, 'loaded': True, 'loadedTime': 3270.7999999523163, 'positionName': 'RIGHT', 'positionCoords': [998.4, 335], 'bid': 0}]",45569.199999809265,1669830842159,lox,olives,0.09,0.0,-0.09,lox,2048.100000143051,2049,2048.5,True,u,48135.699999809265,2566.5,1669830844726,2567,HRV,HRV_0144,2022-11-30 17:59:59
21,"[{'imgObject': {}, 'id': 'mashed potato', 'src': '/static/foodstim60/mashed potato.jpg', 'key': 'u', 'origWidth': 409, 'origHeight': 409, 'width': 409, 'height': 409, 'widthPercent': 0.45, 'rescaleHeight': False, 'trialN': 21, 'loaded': True, 'loadedTime': 3271.5, 'positionName': 'LEFT', 'positionCoords': [512.6, 335.5], 'bid': 5.16}, {'imgObject': {}, 'id': 'Grapes', 'src': '/static/foodstim60/Grapes.jpg', 'key': 'i', 'origWidth': 411, 'origHeight': 411, 'width': 411, 'height': 411, 'widthPercent': 0.45, 'rescaleHeight': False, 'trialN': 21, 'loaded': True, 'loadedTime': 3260.899999856949, 'positionName': 'RIGHT', 'positionCoords': [998.4, 334.5], 'bid': 6.88}]",48135.89999985695,1669830844726,mashed potato,Grapes,5.16,6.88,1.7199999999999998,Grapes,1873.7999999523163,1874,1874.0,True,i,50515.0,2379.100000143051,1669830847105,2379,HRV,HRV_0144,2022-11-30 17:59:59
22,"[{'imgObject': {}, 'id': 'avocado', 'src': '/static/foodstim60/avocado.jpg', 'key': 'u', 'origWidth': 409, 'origHeight': 409, 'width': 409, 'height': 409, 'widthPercent': 0.45, 'rescaleHeight': False, 'trialN': 22, 'loaded': True, 'loadedTime': 3108.899999856949, 'positionName': 'LEFT', 'positionCoords': [512.6, 335.5], 'bid': 0.12}, {'imgObject': {}, 'id': 'blackbeanswithrice', 'src': '/static/foodstim60/blackbeanswithrice.jpg', 'key': 'i', 'origWidth': 410, 'origHeight': 410, 'width': 410, 'height': 410, 'widthPercent': 0.45, 'rescaleHeight': False, 'trialN': 22, 'loaded': True, 'loadedTime': 3168, 'positionName': 'RIGHT', 'positionCoords': [998.4, 335], 'bid': 0.06}]",50515.09999990463,1669830847105,avocado,blackbeanswithrice,0.12,0.06,-0.06,blackbeanswithrice,1631.0999999046326,1632,1631.4000000953674,True,i,52651.5,2136.4000000953674,1669830849242,2137,HRV,HRV_0144,2022-11-30 17:59:59
23,"[{'imgObject': {}, 'id': 'granola w milk', 'src': '/static/foodstim60/granola w milk.jpg', 'key': 'u', 'origWidth': 410, 'origHeight': 410, 'width': 410, 'height': 410, 'widthPercent': 0.45, 'rescaleHeight': False, 'trialN': 23, 'loaded': True, 'loadedTime': 3039.2999999523163, 'positionName': 'LEFT', 'positionCoords': [511.6, 335], 'bid': 9.08}, {'imgObject': {}, 'id': 'corn cob', 'src': '/static/foodstim60/corn cob.jpg', 'key': 'i', 'origWidth': 411, 'origHeight': 411, 'width': 411, 'height': 411, 'widthPercent': 0.45, 'rescaleHeight': False, 'trialN': 23, 'loaded': True, 'loadedTime': 3273.5999999046326, 'positionName': 'RIGHT', 'positionCoords': [998.4, 334.5], 'bid': 5.67}]",52651.59999990463,1669830849242,granola w milk,corn cob,9.08,5.67,-3.41,granola w milk,1758.9000000953674,1759,1759.0999999046326,True,u,54919.699999809265,2268.0999999046326,1669830851510,2268,HRV,HRV_0144,2022-11-30 17:59:59
24,"[{'imgObject': {}, 'id': 'seaweed', 'src': '/static/foodstim60/seaweed.jpg', 'key': 'u', 'origWidth': 410, 'origHeight': 410, 'width': 410, 'height': 410, 'widthPercent': 0.45, 'rescaleHeight': False, 'trialN': 24, 'loaded': True, 'loadedTime': 3210.699999809265, 'positionName': 'LEFT', 'positionCoords': [511.6, 335], 'bid': 0.11}, {'imgObject': {}, 'id': 'chickenfingers', 'src': '/static/foodstim60/chickenfingers.jpg', 'key': 'i', 'origWidth': 410, 'origHeight': 410, 'width': 410, 'height': 410, 'widthPercent': 0.45, 'rescaleHeight': False, 'trialN': 24, 'loaded': True, 'loadedTime': 3064.2999999523163, 'positionName': 'RIGHT', 'positionCoords': [998.4, 335], 'bid': 7}]",54919.799999952316,1669830851510,seaweed,chickenfingers,0.11,7.0,6.89,chickenfingers,1187.2000000476837,1188,1187.5,True,i,56619.09999990463,1699.2999999523163,1669830853209,1699,HRV,HRV_0144,2022-11-30 17:59:59
25,"[{'imgObject': {}, 'id': 'salad w chicken', 'src': '/static/foodstim60/salad w chicken.jpg', 'key': 'u', 'origWidth': 411, 'origHeight': 411, 'width': 411, 'height': 411, 'widthPercent': 0.45, 'rescaleHeight': False, 'trialN': 25, 'loaded': True, 'loadedTime': 3274.5999999046326, 'positionName': 'LEFT', 'positionCoords': [510.6, 334.5], 'bid': 0.13}, {'imgObject': {}, 'id': 'lox', 'src': '/static/foodstim60/lox.jpg', 'key': 'i', 'origWidth': 410, 'origHeight': 411, 'width': 410, 'height': 411, 'widthPercent': 0.45, 'rescaleHeight': False, 'trialN': 25, 'loaded': True, 'loadedTime': 3269.2999999523163, 'positionName': 'RIGHT', 'positionCoords': [998.4, 334.5], 'bid': 0.09}]",56619.299999952316,1669830853210,salad w chicken,lox,0.13,0.09,-0.04000000000000001,salad w chicken,1647.7999999523163,1648,1648.0,True,u,58785.5,2166.2000000476837,1669830855376,2166,HRV,HRV_0144,2022-11-30 17:59:59
26,"[{'imgObject': {}, 'id': 'salad w chicken', 'src': '/static/foodstim60/salad w chicken.jpg', 'key': 'u', 'origWidth': 411, 'origHeight': 411, 'width': 411, 'height': 411, 'widthPercent': 0.45, 'rescaleHeight': False, 'trialN': 26, 'loaded': True, 'loadedTime': 3277.199999809265, 'positionName': 'LEFT', 'positionCoords': [510.6, 334.5], 'bid': 0.13}, {'imgObject': {}, 'id': 'edamame', 'src': '/static/foodstim60/edamame.jpg', 'key': 'i', 'origWidth': 409, 'origHeight': 410, 'width': 409, 'height': 410, 'widthPercent': 0.45, 'rescaleHeight': False, 'trialN': 26, 'loaded': True, 'loadedTime': 3072.0999999046326, 'positionName': 'RIGHT', 'positionCoords': [998.4, 335], 'bid': 0.11}]",58785.799999952316,1669830855376,salad w chicken,edamame,0.13,0.11,-0.020000000000000004,salad w chicken,1481.7000000476837,1482,1482.0,True,u,60785.59999990463,1999.7999999523163,1669830857376,2000,HRV,HRV_0144,2022-11-30 17:59:59
27,"[{'imgObject': {}, 'id': 'ice cream sundae 002', 'src': '/static/foodstim60/ice cream sundae 002.jpg', 'key': 'u', 'origWidth': 409, 'origHeight': 409, 'width': 409, 'height': 409, 'widthPercent': 0.45, 'rescaleHeight': False, 'trialN': 27, 'loaded': True, 'loadedTime': 3031.2999999523163, 'positionName': 'LEFT', 'positionCoords': [512.6, 335.5], 'bid': 8.13}, {'imgObject': {}, 'id': 'strawberries', 'src': '/static/foodstim60/strawberries.jpg', 'key': 'i', 'origWidth': 410, 'origHeight': 410, 'width': 410, 'height': 410, 'widthPercent': 0.45, 'rescaleHeight': False, 'trialN': 27, 'loaded': True, 'loadedTime': 3074.699999809265, 'positionName': 'RIGHT', 'positionCoords': [998.4, 335], 'bid': 8.07}]",60785.699999809265,1669830857376,ice cream sundae 002,strawberries,8.13,8.07,-0.0600000000000005,strawberries,1362.2000000476837,1362,1362.5,True,i,62665.299999952316,1879.6000001430511,1669830859256,1880,HRV,HRV_0144,2022-11-30 17:59:59
28,"[{'imgObject': {}, 'id': 'popsicles', 'src': '/static/foodstim60/popsicles.jpg', 'key': 'u', 'origWidth': 410, 'origHeight': 410, 'width': 410, 'height': 410, 'widthPercent': 0.45, 'rescaleHeight': False, 'trialN': 28, 'loaded': True, 'loadedTime': 3251.199999809265, 'positionName': 'LEFT', 'positionCoords': [511.6, 335], 'bid': 1.73}, {'imgObject': {}, 'id': 'pear', 'src': '/static/foodstim60/pear.jpg', 'key': 'i', 'origWidth': 411, 'origHeight': 410, 'width': 411, 'height': 410, 'widthPercent': 0.45, 'rescaleHeight': False, 'trialN': 28, 'loaded': True, 'loadedTime': 3078, 'positionName': 'RIGHT', 'positionCoords': [998.4, 335], 'bid': 1.9}]",62665.39999985695,1669830859256,popsicles,pear,1.73,1.9,0.16999999999999993,popsicles,2082.9000000953674,2083,2083.100000143051,True,u,65254.39999985695,2589.0,1669830861845,2589,HRV,HRV_0144,2022-11-30 17:59:59
29,"[{'imgObject': {}, 'id': 'lox', 'src': '/static/foodstim60/lox.jpg', 'key': 'u', 'origWidth': 410, 'origHeight': 411, 'width': 410, 'height': 411, 'widthPercent': 0.45, 'rescaleHeight': False, 'trialN': 29, 'loaded': True, 'loadedTime': 3269.0999999046326, 'positionName': 'LEFT', 'positionCoords': [511.6, 334.5], 'bid': 0.09}, {'imgObject': {}, 'id': 'burrito', 'src': '/static/foodstim60/burrito.jpg', 'key': 'i', 'origWidth': 410, 'origHeight': 410, 'width': 410, 'height': 410, 'widthPercent': 0.45, 'rescaleHeight': False, 'trialN': 29, 'loaded': True, 'loadedTime': 3210.199999809265, 'positionName': 'RIGHT', 'positionCoords': [998.4, 335], 'bid': 0.1}]",65254.59999990463,1669830861845,lox,burrito,0.09,0.1,0.010000000000000009,burrito,1597.9000000953674,1598,1598.2000000476837,True,i,67369.19999980927,2114.5999999046326,1669830863959,2114,HRV,HRV_0144,2022-11-30 17:59:59
30,"[{'imgObject': {}, 'id': 'raspberries', 'src': '/static/foodstim60/raspberries.jpg', 'key': 'u', 'origWidth': 411, 'origHeight': 411, 'width': 411, 'height': 411, 'widthPercent': 0.45, 'rescaleHeight': False, 'trialN': 30, 'loaded': True, 'loadedTime': 3078.199999809265, 'positionName': 'LEFT', 'positionCoords': [510.6, 334.5], 'bid': 0.08}, {'imgObject': {}, 'id': 'corn cob', 'src': '/static/foodstim60/corn cob.jpg', 'key': 'i', 'origWidth': 411, 'origHeight': 411, 'width': 411, 'height': 411, 'widthPercent': 0.45, 'rescaleHeight': False, 'trialN': 30, 'loaded': True, 'loadedTime': 3273.5999999046326, 'positionName': 'RIGHT', 'positionCoords': [998.4, 334.5], 'bid': 5.67}]",67369.39999985695,1669830863960,raspberries,corn cob,0.08,5.67,5.59,corn cob,1107.7999999523163,1108,1108.0,True,i,68984.89999985695,1615.5,1669830865575,1615,HRV,HRV_0144,2022-11-30 17:59:59
31,"[{'imgObject': {}, 'id': 'luckycharms', 'src': '/static/foodstim60/luckycharms.jpg', 'key': 'u', 'origWidth': 410, 'origHeight': 409, 'width': 410, 'height': 409, 'widthPercent': 0.45, 'rescaleHeight': False, 'trialN': 31, 'loaded': True, 'loadedTime': 3225, 'positionName': 'LEFT', 'positionCoords': [511.6, 335.5], 'bid': 8.21}, {'imgObject': {}, 'id': 'cantaloupe', 'src': '/static/foodstim60/cantaloupe.jpg', 'key': 'i', 'origWidth': 409, 'origHeight': 409, 'width': 409, 'height': 409, 'widthPercent': 0.45, 'rescaleHeight': False, 'trialN': 31, 'loaded': True, 'loadedTime': 3080.0999999046326, 'positionName': 'RIGHT', 'positionCoords': [998.4, 335.5], 'bid': 0.47}]",68985.09999990463,1669830865575,luckycharms,cantaloupe,8.21,0.47,-7.740000000000001,luckycharms,1316.0,1317,1316.2000000476837,True,u,70803.5,1818.4000000953674,1669830867394,1819,HRV,HRV_0144,2022-11-30 17:59:59
32,"[{'imgObject': {}, 'id': 'apple slices', 'src': '/static/foodstim60/apple slices.jpg', 'key': 'u', 'origWidth': 409, 'origHeight': 410, 'width': 409, 'height': 410, 'widthPercent': 0.45, 'rescaleHeight': False, 'trialN': 32, 'loaded': True, 'loadedTime': 3037.2999999523163, 'positionName': 'LEFT', 'positionCoords': [512.6, 335], 'bid': 1.27}, {'imgObject': {}, 'id': 'mac & cheese', 'src': '/static/foodstim60/mac & cheese.jpg', 'key': 'i', 'origWidth': 410, 'origHeight': 410, 'width': 410, 'height': 410, 'widthPercent': 0.45, 'rescaleHeight': False, 'trialN': 32, 'loaded': True, 'loadedTime': 3081.5, 'positionName': 'RIGHT', 'positionCoords': [998.4, 335], 'bid': 3.68}]",70803.59999990463,1669830867394,apple slices,mac & cheese,1.27,3.68,2.41,mac & cheese,1585.9000000953674,1580,1586.0999999046326,True,i,72901.5,2097.9000000953674,1669830869486,2092,HRV,HRV_0144,2022-11-30 17:59:59
33,"[{'imgObject': {}, 'id': 'strawberries', 'src': '/static/foodstim60/strawberries.jpg', 'key': 'u', 'origWidth': 410, 'origHeight': 410, 'width': 410, 'height': 410, 'widthPercent': 0.45, 'rescaleHeight': False, 'trialN': 33, 'loaded': True, 'loadedTime': 3072.399999856949, 'positionName': 'LEFT', 'positionCoords': [511.6, 335], 'bid': 8.07}, {'imgObject': {}, 'id': 'mac & cheese', 'src': '/static/foodstim60/mac & cheese.jpg', 'key': 'i', 'origWidth': 410, 'origHeight': 410, 'width': 410, 'height': 410, 'widthPercent': 0.45, 'rescaleHeight': False, 'trialN': 33, 'loaded': True, 'loadedTime': 3081.5, 'positionName': 'RIGHT', 'positionCoords': [998.4, 335], 'bid': 3.68}]",72901.69999980927,1669830869486,strawberries,mac & cheese,8.07,3.68,-4.390000000000001,strawberries,1448.2000000476837,1449,1448.5,True,u,74860.19999980927,1958.5,1669830871445,1959,HRV,HRV_0144,2022-11-30 17:59:59
34,"[{'imgObject': {}, 'id': 'eggs', 'src': '/static/foodstim60/eggs.jpg', 'key': 'u', 'origWidth': 409, 'origHeight': 409, 'width': 409, 'height': 409, 'widthPercent': 0.45, 'rescaleHeight': False, 'trialN': 34, 'loaded': True, 'loadedTime': 3082.2999999523163, 'positionName': 'LEFT', 'positionCoords': [512.6, 335.5], 'bid': 2.14}, {'imgObject': {}, 'id': 'apple slices', 'src': '/static/foodstim60/apple slices.jpg', 'key': 'i', 'origWidth': 409, 'origHeight': 410, 'width': 409, 'height': 410, 'widthPercent': 0.45, 'rescaleHeight': False, 'trialN': 34, 'loaded': True, 'loadedTime': 3036.5, 'positionName': 'RIGHT', 'positionCoords': [998.4, 335], 'bid': 1.27}]",74860.39999985695,1669830871445,eggs,apple slices,2.14,1.27,-0.8700000000000001,apple slices,2106.0,2106,2106.2000000476837,True,i,77483.69999980927,2623.2999999523163,1669830874068,2623,HRV,HRV_0144,2022-11-30 17:59:59
35,"[{'imgObject': {}, 'id': 'turkey sandwich', 'src': '/static/foodstim60/turkey sandwich.jpg', 'key': 'u', 'origWidth': 409, 'origHeight': 409, 'width': 409, 'height': 409, 'widthPercent': 0.45, 'rescaleHeight': False, 'trialN': 35, 'loaded': True, 'loadedTime': 3137.5999999046326, 'positionName': 'LEFT', 'positionCoords': [512.6, 335.5], 'bid': 7.51}, {'imgObject': {}, 'id': 'raisin bran w milk', 'src': '/static/foodstim60/raisin bran w milk.jpg', 'key': 'i', 'origWidth': 411, 'origHeight': 411, 'width': 411, 'height': 411, 'widthPercent': 0.45, 'rescaleHeight': False, 'trialN': 35, 'loaded': True, 'loadedTime': 3186.0999999046326, 'positionName': 'RIGHT', 'positionCoords': [998.4, 334.5], 'bid': 9.53}]",77483.89999985695,1669830874069,turkey sandwich,raisin bran w milk,7.51,9.53,2.0199999999999996,raisin bran w milk,1234.7000000476837,1234,1234.9000000953674,True,i,79235.5,1751.6000001430511,1669830875820,1751,HRV,HRV_0144,2022-11-30 17:59:59
36,"[{'imgObject': {}, 'id': 'sushi w_condiments', 'src': '/static/foodstim60/sushi w_condiments.jpg', 'key': 'u', 'origWidth': 410, 'origHeight': 410, 'width': 410, 'height': 410, 'widthPercent': 0.45, 'rescaleHeight': False, 'trialN': 36, 'loaded': True, 'loadedTime': 3034.5999999046326, 'positionName': 'LEFT', 'positionCoords': [511.6, 335], 'bid': 0.03}, {'imgObject': {}, 'id': 'burrito', 'src': '/static/foodstim60/burrito.jpg', 'key': 'i', 'origWidth': 410, 'origHeight': 410, 'width': 410, 'height': 410, 'widthPercent': 0.45, 'rescaleHeight': False, 'trialN': 36, 'loaded': True, 'loadedTime': 3208.5, 'positionName': 'RIGHT', 'positionCoords': [998.4, 335], 'bid': 0.1}]",79235.59999990463,1669830875820,sushi w_condiments,burrito,0.03,0.1,0.07,burrito,1283.2999999523163,1284,1283.5,True,i,81035.19999980927,1799.5999999046326,1669830877620,1800,HRV,HRV_0144,2022-11-30 17:59:59
37,"[{'imgObject': {}, 'id': 'rigatoni', 'src': '/static/foodstim60/rigatoni.jpg', 'key': 'u', 'origWidth': 411, 'origHeight': 411, 'width': 411, 'height': 411, 'widthPercent': 0.45, 'rescaleHeight': False, 'trialN': 37, 'loaded': True, 'loadedTime': 3082.5, 'positionName': 'LEFT', 'positionCoords': [510.6, 334.5], 'bid': 0.52}, {'imgObject': {}, 'id': 'avocado', 'src': '/static/foodstim60/avocado.jpg', 'key': 'i', 'origWidth': 409, 'origHeight': 409, 'width': 409, 'height': 409, 'widthPercent': 0.45, 'rescaleHeight': False, 'trialN': 37, 'loaded': True, 'loadedTime': 3108.899999856949, 'positionName': 'RIGHT', 'positionCoords': [998.4, 335.5], 'bid': 0.12}]",81035.39999985695,1669830877620,rigatoni,avocado,0.52,0.12,-0.4,rigatoni,1163.4000000953674,1164,1163.7000000476837,True,u,82718.59999990463,1683.2000000476837,1669830879303,1683,HRV,HRV_0144,2022-11-30 17:59:59
38,"[{'imgObject': {}, 'id': 'grilled chicken strips', 'src': '/static/foodstim60/grilled chicken strips.jpg', 'key': 'u', 'origWidth': 410, 'origHeight': 411, 'width': 410, 'height': 411, 'widthPercent': 0.45, 'rescaleHeight': False, 'trialN': 38, 'loaded': True, 'loadedTime': 3010, 'positionName': 'LEFT', 'positionCoords': [511.6, 334.5], 'bid': 7.53}, {'imgObject': {}, 'id': 'burger', 'src': '/static/foodstim60/burger.jpg', 'key': 'i', 'origWidth': 409, 'origHeight': 409, 'width': 409, 'height': 409, 'widthPercent': 0.45, 'rescaleHeight': False, 'trialN': 38, 'loaded': True, 'loadedTime': 3267.699999809265, 'positionName': 'RIGHT', 'positionCoords': [998.4, 335.5], 'bid': 5.88}]",82718.89999985695,1669830879304,grilled chicken strips,burger,7.53,5.88,-1.6500000000000004,grilled chicken strips,1216.5,1216,1216.7999999523163,True,u,84451.89999985695,1733.0,1669830881037,1733,HRV,HRV_0144,2022-11-30 17:59:59
39,"[{'imgObject': {}, 'id': 'mashed potato', 'src': '/static/foodstim60/mashed potato.jpg', 'key': 'u', 'origWidth': 409, 'origHeight': 409, 'width': 409, 'height': 409, 'widthPercent': 0.45, 'rescaleHeight': False, 'trialN': 39, 'loaded': True, 'loadedTime': 3271.5999999046326, 'positionName': 'LEFT', 'positionCoords': [512.6, 335.5], 'bid': 5.16}, {'imgObject': {}, 'id': 'fried eggs', 'src': '/static/foodstim60/fried eggs.jpg', 'key': 'i', 'origWidth': 410, 'origHeight': 410, 'width': 410, 'height': 410, 'widthPercent': 0.45, 'rescaleHeight': False, 'trialN': 39, 'loaded': True, 'loadedTime': 3044.199999809265, 'positionName': 'RIGHT', 'positionCoords': [998.4, 335], 'bid': 5.55}]",84452.19999980927,1669830881037,mashed potato,fried eggs,5.16,5.55,0.3899999999999997,fried eggs,1179.7000000476837,1180,1180.1000001430511,True,i,86151.59999990463,1699.4000000953674,1669830882736,1699,HRV,HRV_0144,2022-11-30 17:59:59
40,"[{'imgObject': {}, 'id': 'burrito', 'src': '/static/foodstim60/burrito.jpg', 'key': 'u', 'origWidth': 410, 'origHeight': 410, 'width': 410, 'height': 410, 'widthPercent': 0.45, 'rescaleHeight': False, 'trialN': 40, 'loaded': True, 'loadedTime': 3209.5, 'positionName': 'LEFT', 'positionCoords': [511.6, 335], 'bid': 0.1}, {'imgObject': {}, 'id': 'Grapes', 'src': '/static/foodstim60/Grapes.jpg', 'key': 'i', 'origWidth': 411, 'origHeight': 411, 'width': 411, 'height': 411, 'widthPercent': 0.45, 'rescaleHeight': False, 'trialN': 40, 'loaded': True, 'loadedTime': 3262.0999999046326, 'positionName': 'RIGHT', 'positionCoords': [998.4, 334.5], 'bid': 6.88}]",86151.79999995232,1669830882736,burrito,Grapes,0.1,6.88,6.78,Grapes,1632.3999998569489,1633,1632.7000000476837,True,i,88301.79999995232,2150.0,1669830884886,2150,HRV,HRV_0144,2022-11-30 17:59:59
41,"[{'imgObject': {}, 'id': 'grilled chicken strips', 'src': '/static/foodstim60/grilled chicken strips.jpg', 'key': 'u', 'origWidth': 410, 'origHeight': 411, 'width': 410, 'height': 411, 'widthPercent': 0.45, 'rescaleHeight': False, 'trialN': 41, 'loaded': True, 'loadedTime': 3010.899999856949, 'positionName': 'LEFT', 'positionCoords': [511.6, 334.5], 'bid': 7.53}, {'imgObject': {}, 'id': 'chickenfingers', 'src': '/static/foodstim60/chickenfingers.jpg', 'key': 'i', 'origWidth': 410, 'origHeight': 410, 'width': 410, 'height': 410, 'widthPercent': 0.45, 'rescaleHeight': False, 'trialN': 41, 'loaded': True, 'loadedTime': 3056.899999856949, 'positionName': 'RIGHT', 'positionCoords': [998.4, 335], 'bid': 7}]",88301.89999985695,1669830884887,grilled chicken strips,chickenfingers,7.53,7.0,-0.5300000000000002,grilled chicken strips,842.4000000953674,842,842.7000000476837,True,u,89664.19999980927,1362.2999999523163,1669830886249,1362,HRV,HRV_0144,2022-11-30 17:59:59
42,"[{'imgObject': {}, 'id': 'avocado', 'src': '/static/foodstim60/avocado.jpg', 'key': 'u', 'origWidth': 409, 'origHeight': 409, 'width': 409, 'height': 409, 'widthPercent': 0.45, 'rescaleHeight': False, 'trialN': 42, 'loaded': True, 'loadedTime': 3109, 'positionName': 'LEFT', 'positionCoords': [512.6, 335.5], 'bid': 0.12}, {'imgObject': {}, 'id': 'grilled chicken strips', 'src': '/static/foodstim60/grilled chicken strips.jpg', 'key': 'i', 'origWidth': 410, 'origHeight': 411, 'width': 410, 'height': 411, 'widthPercent': 0.45, 'rescaleHeight': False, 'trialN': 42, 'loaded': True, 'loadedTime': 3020.199999809265, 'positionName': 'RIGHT', 'positionCoords': [998.4, 334.5], 'bid': 7.53}]",89664.29999995232,1669830886249,avocado,grilled chicken strips,0.12,7.53,7.41,grilled chicken strips,968.2999999523163,969,968.5999999046326,True,i,91152.0,1487.7000000476837,1669830887737,1488,HRV,HRV_0144,2022-11-30 17:59:59
43,"[{'imgObject': {}, 'id': 'steak', 'src': '/static/foodstim60/steak.jpg', 'key': 'u', 'origWidth': 410, 'origHeight': 410, 'width': 410, 'height': 410, 'widthPercent': 0.45, 'rescaleHeight': False, 'trialN': 43, 'loaded': True, 'loadedTime': 3249.899999856949, 'positionName': 'LEFT', 'positionCoords': [511.6, 335], 'bid': 9.86}, {'imgObject': {}, 'id': 'cheerios', 'src': '/static/foodstim60/cheerios.jpg', 'key': 'i', 'origWidth': 409, 'origHeight': 410, 'width': 409, 'height': 410, 'widthPercent': 0.45, 'rescaleHeight': False, 'trialN': 43, 'loaded': True, 'loadedTime': 3083.5, 'positionName': 'RIGHT', 'positionCoords': [998.4, 335], 'bid': 9.87}]",91152.09999990463,1669830887737,steak,cheerios,9.86,9.87,0.009999999999999787,steak,864.5999999046326,865,864.9000000953674,True,u,92535.39999985695,1383.2999999523163,1669830889120,1383,HRV,HRV_0144,2022-11-30 17:59:59
44,"[{'imgObject': {}, 'id': 'veggieswithdip', 'src': '/static/foodstim60/veggieswithdip.jpg', 'key': 'u', 'origWidth': 409, 'origHeight': 409, 'width': 409, 'height': 409, 'widthPercent': 0.45, 'rescaleHeight': False, 'trialN': 44, 'loaded': True, 'loadedTime': 3033.5999999046326, 'positionName': 'LEFT', 'positionCoords': [512.6, 335.5], 'bid': 8}, {'imgObject': {}, 'id': 'roastedpotatoes', 'src': '/static/foodstim60/roastedpotatoes.jpg', 'key': 'i', 'origWidth': 409, 'origHeight': 410, 'width': 409, 'height': 410, 'widthPercent': 0.45, 'rescaleHeight': False, 'trialN': 44, 'loaded': True, 'loadedTime': 3085.699999809265, 'positionName': 'RIGHT', 'positionCoords': [998.4, 335], 'bid': 7.6}]",92535.5,1669830889120,veggieswithdip,roastedpotatoes,8.0,7.6,-0.40000000000000036,roastedpotatoes,1393.2999999523163,1394,1393.5999999046326,True,i,94450.19999980927,1914.6999998092651,1669830891035,1915,HRV,HRV_0144,2022-11-30 17:59:59
45,"[{'imgObject': {}, 'id': 'blueberries', 'src': '/static/foodstim60/blueberries.jpg', 'key': 'u', 'origWidth': 411, 'origHeight': 411, 'width': 411, 'height': 411, 'widthPercent': 0.45, 'rescaleHeight': False, 'trialN': 45, 'loaded': True, 'loadedTime': 3156.899999856949, 'positionName': 'LEFT', 'positionCoords': [510.6, 334.5], 'bid': 0}, {'imgObject': {}, 'id': 'sweetpotato', 'src': '/static/foodstim60/sweetpotato.jpg', 'key': 'i', 'origWidth': 410, 'origHeight': 410, 'width': 410, 'height': 410, 'widthPercent': 0.45, 'rescaleHeight': False, 'trialN': 45, 'loaded': True, 'loadedTime': 3025.199999809265, 'positionName': 'RIGHT', 'positionCoords': [998.4, 335], 'bid': 0.08}]",94450.39999985695,1669830891035,blueberries,sweetpotato,0.0,0.08,0.08,blueberries,966.9000000953674,967,967.1000001430511,True,u,95930.0,1479.6000001430511,1669830892515,1480,HRV,HRV_0144,2022-11-30 17:59:59
46,"[{'imgObject': {}, 'id': 'eggsalad', 'src': '/static/foodstim60/eggsalad.jpg', 'key': 'u', 'origWidth': 410, 'origHeight': 409, 'width': 410, 'height': 409, 'widthPercent': 0.45, 'rescaleHeight': False, 'trialN': 46, 'loaded': True, 'loadedTime': 3098.899999856949, 'positionName': 'LEFT', 'positionCoords': [511.6, 335.5], 'bid': 0.1}, {'imgObject': {}, 'id': 'lox', 'src': '/static/foodstim60/lox.jpg', 'key': 'i', 'origWidth': 410, 'origHeight': 411, 'width': 410, 'height': 411, 'widthPercent': 0.45, 'rescaleHeight': False, 'trialN': 46, 'loaded': True, 'loadedTime': 3268.5, 'positionName': 'RIGHT', 'positionCoords': [998.4, 334.5], 'bid': 0.09}]",95930.09999990463,1669830892515,eggsalad,lox,0.1,0.09,-0.010000000000000009,eggsalad,1911.7999999523163,1912,1912.0,True,u,98350.19999980927,2420.0999999046326,1669830894935,2420,HRV,HRV_0144,2022-11-30 17:59:59
47,"[{'imgObject': {}, 'id': 'edamame', 'src': '/static/foodstim60/edamame.jpg', 'key': 'u', 'origWidth': 409, 'origHeight': 410, 'width': 409, 'height': 410, 'widthPercent': 0.45, 'rescaleHeight': False, 'trialN': 47, 'loaded': True, 'loadedTime': 3071.7999999523163, 'positionName': 'LEFT', 'positionCoords': [512.6, 335], 'bid': 0.11}, {'imgObject': {}, 'id': 'avocado', 'src': '/static/foodstim60/avocado.jpg', 'key': 'i', 'origWidth': 409, 'origHeight': 409, 'width': 409, 'height': 409, 'widthPercent': 0.45, 'rescaleHeight': False, 'trialN': 47, 'loaded': True, 'loadedTime': 3108.199999809265, 'positionName': 'RIGHT', 'positionCoords': [998.4, 335.5], 'bid': 0.12}]",98350.39999985695,1669830894935,edamame,avocado,0.11,0.12,0.009999999999999995,edamame,1563.6000001430511,1564,1563.7999999523163,True,u,100419.59999990463,2069.2000000476837,1669830897004,2069,HRV,HRV_0144,2022-11-30 17:59:59
48,"[{'imgObject': {}, 'id': 'pear', 'src': '/static/foodstim60/pear.jpg', 'key': 'u', 'origWidth': 411, 'origHeight': 410, 'width': 411, 'height': 410, 'widthPercent': 0.45, 'rescaleHeight': False, 'trialN': 48, 'loaded': True, 'loadedTime': 3077.899999856949, 'positionName': 'LEFT', 'positionCoords': [510.6, 335], 'bid': 1.9}, {'imgObject': {}, 'id': 'fried eggs', 'src': '/static/foodstim60/fried eggs.jpg', 'key': 'i', 'origWidth': 410, 'origHeight': 410, 'width': 410, 'height': 410, 'widthPercent': 0.45, 'rescaleHeight': False, 'trialN': 48, 'loaded': True, 'loadedTime': 3054.399999856949, 'positionName': 'RIGHT', 'positionCoords': [998.4, 335], 'bid': 5.55}]",100419.79999995232,1669830897004,pear,fried eggs,1.9,5.55,3.65,pear,2502.7000000476837,2503,2503.0999999046326,True,u,103433.09999990463,3013.2999999523163,1669830900018,3014,HRV,HRV_0144,2022-11-30 17:59:59
49,"[{'imgObject': {}, 'id': 'raspberries', 'src': '/static/foodstim60/raspberries.jpg', 'key': 'u', 'origWidth': 411, 'origHeight': 411, 'width': 411, 'height': 411, 'widthPercent': 0.45, 'rescaleHeight': False, 'trialN': 49, 'loaded': True, 'loadedTime': 3078.7999999523163, 'positionName': 'LEFT', 'positionCoords': [510.6, 334.5], 'bid': 0.08}, {'imgObject': {}, 'id': 'sweetpotato', 'src': '/static/foodstim60/sweetpotato.jpg', 'key': 'i', 'origWidth': 410, 'origHeight': 410, 'width': 410, 'height': 410, 'widthPercent': 0.45, 'rescaleHeight': False, 'trialN': 49, 'loaded': True, 'loadedTime': 3024.7999999523163, 'positionName': 'RIGHT', 'positionCoords': [998.4, 335], 'bid': 0.08}]",103433.29999995232,1669830900018,raspberries,sweetpotato,0.08,0.08,0.0,raspberries,1313.0999999046326,1313,1313.3999998569489,True,u,105251.79999995232,1818.5,1669830901836,1818,HRV,HRV_0144,2022-11-30 17:59:59
50,"[{'imgObject': {}, 'id': 'corn cob', 'src': '/static/foodstim60/corn cob.jpg', 'key': 'u', 'origWidth': 411, 'origHeight': 411, 'width': 411, 'height': 411, 'widthPercent': 0.45, 'rescaleHeight': False, 'trialN': 50, 'loaded': True, 'loadedTime': 3273.5999999046326, 'positionName': 'LEFT', 'positionCoords': [510.6, 334.5], 'bid': 5.67}, {'imgObject': {}, 'id': 'strawberries', 'src': '/static/foodstim60/strawberries.jpg', 'key': 'i', 'origWidth': 410, 'origHeight': 410, 'width': 410, 'height': 410, 'widthPercent': 0.45, 'rescaleHeight': False, 'trialN': 50, 'loaded': True, 'loadedTime': 3073.5, 'positionName': 'RIGHT', 'positionCoords': [998.4, 335], 'bid': 8.07}]",105252.0,1669830901837,corn cob,strawberries,5.67,8.07,2.4000000000000004,strawberries,2527.2999999523163,2527,2527.5999999046326,True,i,108283.59999990463,3031.5999999046326,1669830904868,3031,HRV,HRV_0144,2022-11-30 17:59:59
51,"[{'imgObject': {}, 'id': 'cherry tomato', 'src': '/static/foodstim60/cherry tomato.jpg', 'key': 'u', 'origWidth': 410, 'origHeight': 410, 'width': 410, 'height': 410, 'widthPercent': 0.45, 'rescaleHeight': False, 'trialN': 51, 'loaded': True, 'loadedTime': 3158, 'positionName': 'LEFT', 'positionCoords': [511.6, 335], 'bid': 0.04}, {'imgObject': {}, 'id': 'edamame', 'src': '/static/foodstim60/edamame.jpg', 'key': 'i', 'origWidth': 409, 'origHeight': 410, 'width': 409, 'height': 410, 'widthPercent': 0.45, 'rescaleHeight': False, 'trialN': 51, 'loaded': True, 'loadedTime': 3069.399999856949, 'positionName': 'RIGHT', 'positionCoords': [998.4, 335], 'bid': 0.11}]",108283.79999995232,1669830904868,cherry tomato,edamame,0.04,0.11,0.07,cherry tomato,1552.2999999523163,1553,1552.5,True,u,110351.89999985695,2068.0999999046326,1669830906937,2069,HRV,HRV_0144,2022-11-30 17:59:59
52,"[{'imgObject': {}, 'id': 'bagel and cc', 'src': '/static/foodstim60/bagel and cc.jpg', 'key': 'u', 'origWidth': 410, 'origHeight': 410, 'width': 410, 'height': 410, 'widthPercent': 0.45, 'rescaleHeight': False, 'trialN': 52, 'loaded': True, 'loadedTime': 3176.699999809265, 'positionName': 'LEFT', 'positionCoords': [511.6, 335], 'bid': 2.17}, {'imgObject': {}, 'id': 'olives', 'src': '/static/foodstim60/olives.jpg', 'key': 'i', 'origWidth': 410, 'origHeight': 410, 'width': 410, 'height': 410, 'widthPercent': 0.45, 'rescaleHeight': False, 'trialN': 52, 'loaded': True, 'loadedTime': 3270.899999856949, 'positionName': 'RIGHT', 'positionCoords': [998.4, 335], 'bid': 0}]",110352.19999980927,1669830906937,bagel and cc,olives,2.17,0.0,-2.17,bagel and cc,1123.8000001907349,1124,1124.0,True,u,111990.59999990463,1638.4000000953674,1669830908575,1638,HRV,HRV_0144,2022-11-30 17:59:59
53,"[{'imgObject': {}, 'id': 'rigatoni', 'src': '/static/foodstim60/rigatoni.jpg', 'key': 'u', 'origWidth': 411, 'origHeight': 411, 'width': 411, 'height': 411, 'widthPercent': 0.45, 'rescaleHeight': False, 'trialN': 53, 'loaded': True, 'loadedTime': 3083.2999999523163, 'positionName': 'LEFT', 'positionCoords': [510.6, 334.5], 'bid': 0.52}, {'imgObject': {}, 'id': 'yogurt no spoon', 'src': '/static/foodstim60/yogurt no spoon.jpg', 'key': 'i', 'origWidth': 411, 'origHeight': 410, 'width': 411, 'height': 410, 'widthPercent': 0.45, 'rescaleHeight': False, 'trialN': 53, 'loaded': True, 'loadedTime': 3208, 'positionName': 'RIGHT', 'positionCoords': [998.4, 335], 'bid': 0.08}]",111990.89999985695,1669830908576,rigatoni,yogurt no spoon,0.52,0.08,-0.44,rigatoni,1701.5,1701,1701.7000000476837,True,u,114201.5,2210.600000143051,1669830910786,2210,HRV,HRV_0144,2022-11-30 17:59:59
54,"[{'imgObject': {}, 'id': 'Tribe humus pita', 'src': '/static/foodstim60/Tribe humus pita.jpg', 'key': 'u', 'origWidth': 411, 'origHeight': 411, 'width': 411, 'height': 411, 'widthPercent': 0.45, 'rescaleHeight': False, 'trialN': 54, 'loaded': True, 'loadedTime': 3251.0999999046326, 'positionName': 'LEFT', 'positionCoords': [510.6, 334.5], 'bid': 0.13}, {'imgObject': {}, 'id': 'cherry tomato', 'src': '/static/foodstim60/cherry tomato.jpg', 'key': 'i', 'origWidth': 410, 'origHeight': 410, 'width': 410, 'height': 410, 'widthPercent': 0.45, 'rescaleHeight': False, 'trialN': 54, 'loaded': True, 'loadedTime': 3158.0999999046326, 'positionName': 'RIGHT', 'positionCoords': [998.4, 335], 'bid': 0.04}]",114201.59999990463,1669830910786,Tribe humus pita,cherry tomato,0.13,0.04,-0.09,cherry tomato,2091.0,2092,2091.2999999523163,True,i,116801.0,2599.4000000953674,1669830913386,2600,HRV,HRV_0144,2022-11-30 17:59:59
55,"[{'imgObject': {}, 'id': 'yogurt no spoon', 'src': '/static/foodstim60/yogurt no spoon.jpg', 'key': 'u', 'origWidth': 411, 'origHeight': 410, 'width': 411, 'height': 410, 'widthPercent': 0.45, 'rescaleHeight': False, 'trialN': 55, 'loaded': True, 'loadedTime': 3207.5999999046326, 'positionName': 'LEFT', 'positionCoords': [510.6, 335], 'bid': 0.08}, {'imgObject': {}, 'id': 'olives', 'src': '/static/foodstim60/olives.jpg', 'key': 'i', 'origWidth': 410, 'origHeight': 410, 'width': 410, 'height': 410, 'widthPercent': 0.45, 'rescaleHeight': False, 'trialN': 55, 'loaded': True, 'loadedTime': 3270.7999999523163, 'positionName': 'RIGHT', 'positionCoords': [998.4, 335], 'bid': 0}]",116801.19999980927,1669830913386,yogurt no spoon,olives,0.08,0.0,-0.08,yogurt no spoon,1787.5,1788,1787.7000000476837,True,u,119101.19999980927,2300.0,1669830915686,2300,HRV,HRV_0144,2022-11-30 17:59:59
56,"[{'imgObject': {}, 'id': 'blueberries', 'src': '/static/foodstim60/blueberries.jpg', 'key': 'u', 'origWidth': 411, 'origHeight': 411, 'width': 411, 'height': 411, 'widthPercent': 0.45, 'rescaleHeight': False, 'trialN': 56, 'loaded': True, 'loadedTime': 3147.399999856949, 'positionName': 'LEFT', 'positionCoords': [510.6, 334.5], 'bid': 0}, {'imgObject': {}, 'id': 'hashbrowns', 'src': '/static/foodstim60/hashbrowns.jpg', 'key': 'i', 'origWidth': 411, 'origHeight': 410, 'width': 411, 'height': 410, 'widthPercent': 0.45, 'rescaleHeight': False, 'trialN': 56, 'loaded': True, 'loadedTime': 3205.7999999523163, 'positionName': 'RIGHT', 'positionCoords': [998.4, 335], 'bid': 0}]",119101.39999985695,1669830915686,blueberries,hashbrowns,0.0,0.0,0.0,hashbrowns,1872.4000000953674,1873,1872.7000000476837,True,i,121485.09999990463,2383.7000000476837,1669830918070,2384,HRV,HRV_0144,2022-11-30 17:59:59
57,"[{'imgObject': {}, 'id': 'cheerios', 'src': '/static/foodstim60/cheerios.jpg', 'key': 'u', 'origWidth': 409, 'origHeight': 410, 'width': 409, 'height': 410, 'widthPercent': 0.45, 'rescaleHeight': False, 'trialN': 57, 'loaded': True, 'loadedTime': 3084.399999856949, 'positionName': 'LEFT', 'positionCoords': [512.6, 335], 'bid': 9.87}, {'imgObject': {}, 'id': 'tacos', 'src': '/static/foodstim60/tacos.jpg', 'key': 'i', 'origWidth': 411, 'origHeight': 411, 'width': 411, 'height': 411, 'widthPercent': 0.45, 'rescaleHeight': False, 'trialN': 57, 'loaded': True, 'loadedTime': 2982.5, 'positionName': 'RIGHT', 'positionCoords': [998.4, 334.5], 'bid': 9.84}]",121485.19999980927,1669830918070,cheerios,tacos,9.87,9.84,-0.02999999999999936,cheerios,1944.8000001907349,1945,1945.0,True,u,123945.0,2459.800000190735,1669830920530,2460,HRV,HRV_0144,2022-11-30 17:59:59
58,"[{'imgObject': {}, 'id': 'veggieswithdip', 'src': '/static/foodstim60/veggieswithdip.jpg', 'key': 'u', 'origWidth': 409, 'origHeight': 409, 'width': 409, 'height': 409, 'widthPercent': 0.45, 'rescaleHeight': False, 'trialN': 58, 'loaded': True, 'loadedTime': 3033.5, 'positionName': 'LEFT', 'positionCoords': [512.6, 335.5], 'bid': 8}, {'imgObject': {}, 'id': 'cheerios', 'src': '/static/foodstim60/cheerios.jpg', 'key': 'i', 'origWidth': 409, 'origHeight': 410, 'width': 409, 'height': 410, 'widthPercent': 0.45, 'rescaleHeight': False, 'trialN': 58, 'loaded': True, 'loadedTime': 3084.399999856949, 'positionName': 'RIGHT', 'positionCoords': [998.4, 335], 'bid': 9.87}]",123945.09999990463,1669830920530,veggieswithdip,cheerios,8.0,9.87,1.8699999999999992,cheerios,1261.2000000476837,1261,1261.4000000953674,True,i,125725.39999985695,1780.2999999523163,1669830922310,1780,HRV,HRV_0144,2022-11-30 17:59:59
59,"[{'imgObject': {}, 'id': 'cantaloupe', 'src': '/static/foodstim60/cantaloupe.jpg', 'key': 'u', 'origWidth': 409, 'origHeight': 409, 'width': 409, 'height': 409, 'widthPercent': 0.45, 'rescaleHeight': False, 'trialN': 59, 'loaded': True, 'loadedTime': 3080.2999999523163, 'positionName': 'LEFT', 'positionCoords': [512.6, 335.5], 'bid': 0.47}, {'imgObject': {}, 'id': 'edamame', 'src': '/static/foodstim60/edamame.jpg', 'key': 'i', 'origWidth': 409, 'origHeight': 410, 'width': 409, 'height': 410, 'widthPercent': 0.45, 'rescaleHeight': False, 'trialN': 59, 'loaded': True, 'loadedTime': 3071.0999999046326, 'positionName': 'RIGHT', 'positionCoords': [998.4, 335], 'bid': 0.11}]",125725.79999995232,1669830922310,cantaloupe,edamame,0.47,0.11,-0.36,cantaloupe,1744.2000000476837,1745,1744.3999998569489,True,u,127991.39999985695,2265.5999999046326,1669830924576,2266,HRV,HRV_0144,2022-11-30 17:59:59
60,"[{'imgObject': {}, 'id': 'ice cream sundae 002', 'src': '/static/foodstim60/ice cream sundae 002.jpg', 'key': 'u', 'origWidth': 409, 'origHeight': 409, 'width': 409, 'height': 409, 'widthPercent': 0.45, 'rescaleHeight': False, 'trialN': 60, 'loaded': True, 'loadedTime': 3031.199999809265, 'positionName': 'LEFT', 'positionCoords': [512.6, 335.5], 'bid': 8.13}, {'imgObject': {}, 'id': 'baked potato', 'src': '/static/foodstim60/baked potato.jpg', 'key': 'i', 'origWidth': 409, 'origHeight': 410, 'width': 409, 'height': 410, 'widthPercent': 0.45, 'rescaleHeight': False, 'trialN': 60, 'loaded': True, 'loadedTime': 3272.399999856949, 'positionName': 'RIGHT', 'positionCoords': [998.4, 335], 'bid': 3.82}]",127991.59999990463,1669830924576,ice cream sundae 002,baked potato,8.13,3.82,-4.3100000000000005,baked potato,1863.4000000953674,1864,1863.5999999046326,True,i,130368.09999990463,2376.5,1669830926953,2377,HRV,HRV_0144,2022-11-30 17:59:59
61,"[{'imgObject': {}, 'id': 'seaweed', 'src': '/static/foodstim60/seaweed.jpg', 'key': 'u', 'origWidth': 410, 'origHeight': 410, 'width': 410, 'height': 410, 'widthPercent': 0.45, 'rescaleHeight': False, 'trialN': 61, 'loaded': True, 'loadedTime': 3211.699999809265, 'positionName': 'LEFT', 'positionCoords': [511.6, 335], 'bid': 0.11}, {'imgObject': {}, 'id': 'shreddedwheatwithmilk', 'src': '/static/foodstim60/shreddedwheatwithmilk.jpg', 'key': 'i', 'origWidth': 410, 'origHeight': 410, 'width': 410, 'height': 410, 'widthPercent': 0.45, 'rescaleHeight': False, 'trialN': 61, 'loaded': True, 'loadedTime': 3278, 'positionName': 'RIGHT', 'positionCoords': [998.4, 335], 'bid': 0.04}]",130368.29999995232,1669830926953,seaweed,shreddedwheatwithmilk,0.11,0.04,-0.07,shreddedwheatwithmilk,1279.2999999523163,1280,1279.5999999046326,True,i,132169.29999995232,1801.0,1669830928754,1801,HRV,HRV_0144,2022-11-30 17:59:59
62,"[{'imgObject': {}, 'id': 'steak', 'src': '/static/foodstim60/steak.jpg', 'key': 'u', 'origWidth': 410, 'origHeight': 410, 'width': 410, 'height': 410, 'widthPercent': 0.45, 'rescaleHeight': False, 'trialN': 62, 'loaded': True, 'loadedTime': 3250, 'positionName': 'LEFT', 'positionCoords': [511.6, 335], 'bid': 9.86}, {'imgObject': {}, 'id': 'raisin bran w milk', 'src': '/static/foodstim60/raisin bran w milk.jpg', 'key': 'i', 'origWidth': 411, 'origHeight': 411, 'width': 411, 'height': 411, 'widthPercent': 0.45, 'rescaleHeight': False, 'trialN': 62, 'loaded': True, 'loadedTime': 3177.5, 'positionName': 'RIGHT', 'positionCoords': [998.4, 334.5], 'bid': 9.53}]",132169.39999985695,1669830928754,steak,raisin bran w milk,9.86,9.53,-0.33000000000000007,steak,846.2000000476837,849,846.4000000953674,True,u,133535.29999995232,1365.9000000953674,1669830930123,1369,HRV,HRV_0144,2022-11-30 17:59:59
63,"[{'imgObject': {}, 'id': 'sushi w_condiments', 'src': '/static/foodstim60/sushi w_condiments.jpg', 'key': 'u', 'origWidth': 410, 'origHeight': 410, 'width': 410, 'height': 410, 'widthPercent': 0.45, 'rescaleHeight': False, 'trialN': 63, 'loaded': True, 'loadedTime': 3033.899999856949, 'positionName': 'LEFT', 'positionCoords': [511.6, 335], 'bid': 0.03}, {'imgObject': {}, 'id': 'raspberries', 'src': '/static/foodstim60/raspberries.jpg', 'key': 'i', 'origWidth': 411, 'origHeight': 411, 'width': 411, 'height': 411, 'widthPercent': 0.45, 'rescaleHeight': False, 'trialN': 63, 'loaded': True, 'loadedTime': 3078.899999856949, 'positionName': 'RIGHT', 'positionCoords': [998.4, 334.5], 'bid': 0.08}]",133535.5,1669830930123,sushi w_condiments,raspberries,0.03,0.08,0.05,raspberries,1464.3999998569489,1465,1464.5999999046326,True,i,135518.09999990463,1982.5999999046326,1669830932106,1983,HRV,HRV_0144,2022-11-30 17:59:59
64,"[{'imgObject': {}, 'id': 'shreddedwheatwithmilk', 'src': '/static/foodstim60/shreddedwheatwithmilk.jpg', 'key': 'u', 'origWidth': 410, 'origHeight': 410, 'width': 410, 'height': 410, 'widthPercent': 0.45, 'rescaleHeight': False, 'trialN': 64, 'loaded': True, 'loadedTime': 3278.0999999046326, 'positionName': 'LEFT', 'positionCoords': [511.6, 335], 'bid': 0.04}, {'imgObject': {}, 'id': 'blackbeanswithrice', 'src': '/static/foodstim60/blackbeanswithrice.jpg', 'key': 'i', 'origWidth': 410, 'origHeight': 410, 'width': 410, 'height': 410, 'widthPercent': 0.45, 'rescaleHeight': False, 'trialN': 64, 'loaded': True, 'loadedTime': 3168, 'positionName': 'RIGHT', 'positionCoords': [998.4, 335], 'bid': 0.06}]",135518.39999985695,1669830932106,shreddedwheatwithmilk,blackbeanswithrice,0.04,0.06,0.019999999999999997,shreddedwheatwithmilk,1601.9000000953674,1602,1602.2000000476837,True,u,137631.89999985695,2113.5,1669830934219,2113,HRV,HRV_0144,2022-11-30 17:59:59
65,"[{'imgObject': {}, 'id': 'burger', 'src': '/static/foodstim60/burger.jpg', 'key': 'u', 'origWidth': 409, 'origHeight': 409, 'width': 409, 'height': 409, 'widthPercent': 0.45, 'rescaleHeight': False, 'trialN': 65, 'loaded': True, 'loadedTime': 3267.699999809265, 'positionName': 'LEFT', 'positionCoords': [512.6, 335.5], 'bid': 5.88}, {'imgObject': {}, 'id': 'turkeysandwich', 'src': '/static/foodstim60/turkeysandwich.jpg', 'key': 'i', 'origWidth': 409, 'origHeight': 409, 'width': 409, 'height': 409, 'widthPercent': 0.45, 'rescaleHeight': False, 'trialN': 65, 'loaded': True, 'loadedTime': 3241.399999856949, 'positionName': 'RIGHT', 'positionCoords': [998.4, 335.5], 'bid': 6.51}]",137632.0,1669830934220,burger,turkeysandwich,5.88,6.51,0.6299999999999999,burger,1784.7999999523163,1785,1785.0,True,u,139929.19999980927,2297.199999809265,1669830936517,2297,HRV,HRV_0144,2022-11-30 17:59:59
66,"[{'imgObject': {}, 'id': 'sweetpotato', 'src': '/static/foodstim60/sweetpotato.jpg', 'key': 'u', 'origWidth': 410, 'origHeight': 410, 'width': 410, 'height': 410, 'widthPercent': 0.45, 'rescaleHeight': False, 'trialN': 66, 'loaded': True, 'loadedTime': 3026.899999856949, 'positionName': 'LEFT', 'positionCoords': [511.6, 335], 'bid': 0.08}, {'imgObject': {}, 'id': 'banana', 'src': '/static/foodstim60/banana.jpg', 'key': 'i', 'origWidth': 410, 'origHeight': 410, 'width': 410, 'height': 410, 'widthPercent': 0.45, 'rescaleHeight': False, 'trialN': 66, 'loaded': True, 'loadedTime': 3186.0999999046326, 'positionName': 'RIGHT', 'positionCoords': [998.4, 335], 'bid': 1.42}]",139929.39999985695,1669830936517,sweetpotato,banana,0.08,1.42,1.3399999999999999,banana,1127.6000001430511,1128,1127.7999999523163,True,i,141568.09999990463,1638.7000000476837,1669830938156,1639,HRV,HRV_0144,2022-11-30 17:59:59
67,"[{'imgObject': {}, 'id': 'seaweed', 'src': '/static/foodstim60/seaweed.jpg', 'key': 'u', 'origWidth': 410, 'origHeight': 410, 'width': 410, 'height': 410, 'widthPercent': 0.45, 'rescaleHeight': False, 'trialN': 67, 'loaded': True, 'loadedTime': 3212.0999999046326, 'positionName': 'LEFT', 'positionCoords': [511.6, 335], 'bid': 0.11}, {'imgObject': {}, 'id': 'Tribe humus pita', 'src': '/static/foodstim60/Tribe humus pita.jpg', 'key': 'i', 'origWidth': 411, 'origHeight': 411, 'width': 411, 'height': 411, 'widthPercent': 0.45, 'rescaleHeight': False, 'trialN': 67, 'loaded': True, 'loadedTime': 3251.0999999046326, 'positionName': 'RIGHT', 'positionCoords': [998.4, 334.5], 'bid': 0.13}]",141568.39999985695,1669830938156,seaweed,Tribe humus pita,0.11,0.13,0.020000000000000004,Tribe humus pita,1433.1000001430511,1433,1433.4000000953674,True,i,143518.19999980927,1949.7999999523163,1669830940106,1950,HRV,HRV_0144,2022-11-30 17:59:59
68,"[{'imgObject': {}, 'id': 'bagel and cc', 'src': '/static/foodstim60/bagel and cc.jpg', 'key': 'u', 'origWidth': 410, 'origHeight': 410, 'width': 410, 'height': 410, 'widthPercent': 0.45, 'rescaleHeight': False, 'trialN': 68, 'loaded': True, 'loadedTime': 3176.899999856949, 'positionName': 'LEFT', 'positionCoords': [511.6, 335], 'bid': 2.17}, {'imgObject': {}, 'id': 'rigatoni and sauce', 'src': '/static/foodstim60/rigatoni and sauce.jpg', 'key': 'i', 'origWidth': 410, 'origHeight': 411, 'width': 410, 'height': 411, 'widthPercent': 0.45, 'rescaleHeight': False, 'trialN': 68, 'loaded': True, 'loadedTime': 3119.0999999046326, 'positionName': 'RIGHT', 'positionCoords': [998.4, 334.5], 'bid': 2.51}]",143518.39999985695,1669830940106,bagel and cc,rigatoni and sauce,2.17,2.51,0.33999999999999986,rigatoni and sauce,1963.2999999523163,1963,1963.4000000953674,True,i,145992.0,2473.600000143051,1669830942580,2474,HRV,HRV_0144,2022-11-30 17:59:59
69,"[{'imgObject': {}, 'id': 'eggsalad', 'src': '/static/foodstim60/eggsalad.jpg', 'key': 'u', 'origWidth': 410, 'origHeight': 409, 'width': 410, 'height': 409, 'widthPercent': 0.45, 'rescaleHeight': False, 'trialN': 69, 'loaded': True, 'loadedTime': 3089.5, 'positionName': 'LEFT', 'positionCoords': [511.6, 335.5], 'bid': 0.1}, {'imgObject': {}, 'id': 'turkeysandwich', 'src': '/static/foodstim60/turkeysandwich.jpg', 'key': 'i', 'origWidth': 409, 'origHeight': 409, 'width': 409, 'height': 409, 'widthPercent': 0.45, 'rescaleHeight': False, 'trialN': 69, 'loaded': True, 'loadedTime': 3232.899999856949, 'positionName': 'RIGHT', 'positionCoords': [998.4, 335.5], 'bid': 6.51}]",145992.19999980927,1669830942580,eggsalad,turkeysandwich,0.1,6.51,6.41,turkeysandwich,1393.1000001430511,1393,1393.3000001907349,True,i,147898.09999990463,1905.9000000953674,1669830944486,1906,HRV,HRV_0144,2022-11-30 17:59:59
70,"[{'imgObject': {}, 'id': 'cherries', 'src': '/static/foodstim60/cherries.jpg', 'key': 'u', 'origWidth': 410, 'origHeight': 411, 'width': 410, 'height': 411, 'widthPercent': 0.45, 'rescaleHeight': False, 'trialN': 70, 'loaded': True, 'loadedTime': 3279.199999809265, 'positionName': 'LEFT', 'positionCoords': [511.6, 334.5], 'bid': 0.13}, {'imgObject': {}, 'id': 'strawberries', 'src': '/static/foodstim60/strawberries.jpg', 'key': 'i', 'origWidth': 410, 'origHeight': 410, 'width': 410, 'height': 410, 'widthPercent': 0.45, 'rescaleHeight': False, 'trialN': 70, 'loaded': True, 'loadedTime': 3074.699999809265, 'positionName': 'RIGHT', 'positionCoords': [998.4, 335], 'bid': 8.07}]",147898.29999995232,1669830944486,cherries,strawberries,0.13,8.07,7.94,strawberries,1464.0999999046326,1464,1464.2999999523163,True,i,149868.0,1969.7000000476837,1669830946456,1970,HRV,HRV_0144,2022-11-30 17:59:59
71,"[{'imgObject': {}, 'id': 'cantaloupe', 'src': '/static/foodstim60/cantaloupe.jpg', 'key': 'u', 'origWidth': 409, 'origHeight': 409, 'width': 409, 'height': 409, 'widthPercent': 0.45, 'rescaleHeight': False, 'trialN': 71, 'loaded': True, 'loadedTime': 3080.199999809265, 'positionName': 'LEFT', 'positionCoords': [512.6, 335.5], 'bid': 0.47}, {'imgObject': {}, 'id': 'cherries', 'src': '/static/foodstim60/cherries.jpg', 'key': 'i', 'origWidth': 410, 'origHeight': 411, 'width': 410, 'height': 411, 'widthPercent': 0.45, 'rescaleHeight': False, 'trialN': 71, 'loaded': True, 'loadedTime': 3279, 'positionName': 'RIGHT', 'positionCoords': [998.4, 334.5], 'bid': 0.13}]",149868.29999995232,1669830946456,cantaloupe,cherries,0.47,0.13,-0.33999999999999997,cantaloupe,2126.399999856949,2127,2126.5999999046326,True,u,152501.19999980927,2632.899999856949,1669830949089,2633,HRV,HRV_0144,2022-11-30 17:59:59
72,"[{'imgObject': {}, 'id': 'raspberries', 'src': '/static/foodstim60/raspberries.jpg', 'key': 'u', 'origWidth': 411, 'origHeight': 411, 'width': 411, 'height': 411, 'widthPercent': 0.45, 'rescaleHeight': False, 'trialN': 72, 'loaded': True, 'loadedTime': 3079.0999999046326, 'positionName': 'LEFT', 'positionCoords': [510.6, 334.5], 'bid': 0.08}, {'imgObject': {}, 'id': 'apple slices', 'src': '/static/foodstim60/apple slices.jpg', 'key': 'i', 'origWidth': 409, 'origHeight': 410, 'width': 409, 'height': 410, 'widthPercent': 0.45, 'rescaleHeight': False, 'trialN': 72, 'loaded': True, 'loadedTime': 3037.199999809265, 'positionName': 'RIGHT', 'positionCoords': [998.4, 335], 'bid': 1.27}]",152501.5,1669830949089,raspberries,apple slices,0.08,1.27,1.19,raspberries,1109.6999998092651,1110,1110.0,True,u,154117.5,1616.0,1669830950705,1616,HRV,HRV_0144,2022-11-30 17:59:59
73,"[{'imgObject': {}, 'id': 'mac & cheese', 'src': '/static/foodstim60/mac & cheese.jpg', 'key': 'u', 'origWidth': 410, 'origHeight': 410, 'width': 410, 'height': 410, 'widthPercent': 0.45, 'rescaleHeight': False, 'trialN': 73, 'loaded': True, 'loadedTime': 3081.2999999523163, 'positionName': 'LEFT', 'positionCoords': [511.6, 335], 'bid': 3.68}, {'imgObject': {}, 'id': 'shreddedwheatwithmilk', 'src': '/static/foodstim60/shreddedwheatwithmilk.jpg', 'key': 'i', 'origWidth': 410, 'origHeight': 410, 'width': 410, 'height': 410, 'widthPercent': 0.45, 'rescaleHeight': False, 'trialN': 73, 'loaded': True, 'loadedTime': 3278.2999999523163, 'positionName': 'RIGHT', 'positionCoords': [998.4, 335], 'bid': 0.04}]",154117.69999980927,1669830950705,mac & cheese,shreddedwheatwithmilk,3.68,0.04,-3.64,shreddedwheatwithmilk,1869.7000000476837,1870,1869.9000000953674,True,i,156501.19999980927,2383.5,1669830953089,2384,HRV,HRV_0144,2022-11-30 17:59:59
74,"[{'imgObject': {}, 'id': 'turkeysandwich', 'src': '/static/foodstim60/turkeysandwich.jpg', 'key': 'u', 'origWidth': 409, 'origHeight': 409, 'width': 409, 'height': 409, 'widthPercent': 0.45, 'rescaleHeight': False, 'trialN': 74, 'loaded': True, 'loadedTime': 3233.5, 'positionName': 'LEFT', 'positionCoords': [512.6, 335.5], 'bid': 6.51}, {'imgObject': {}, 'id': 'salmon', 'src': '/static/foodstim60/salmon.jpg', 'key': 'i', 'origWidth': 410, 'origHeight': 409, 'width': 410, 'height': 409, 'widthPercent': 0.45, 'rescaleHeight': False, 'trialN': 74, 'loaded': True, 'loadedTime': 3279.7999999523163, 'positionName': 'RIGHT', 'positionCoords': [998.4, 335.5], 'bid': 8.26}]",156501.39999985695,1669830953089,turkeysandwich,salmon,6.51,8.26,1.75,salmon,1558.5,1559,1558.7000000476837,True,i,158564.0,2062.600000143051,1669830955152,2063,HRV,HRV_0144,2022-11-30 17:59:59
75,"[{'imgObject': {}, 'id': 'hotdog w must', 'src': '/static/foodstim60/hotdog w must.jpg', 'key': 'u', 'origWidth': 409, 'origHeight': 409, 'width': 409, 'height': 409, 'widthPercent': 0.45, 'rescaleHeight': False, 'trialN': 75, 'loaded': True, 'loadedTime': 3215.699999809265, 'positionName': 'LEFT', 'positionCoords': [512.6, 335.5], 'bid': 4.43}, {'imgObject': {}, 'id': 'fried eggs', 'src': '/static/foodstim60/fried eggs.jpg', 'key': 'i', 'origWidth': 410, 'origHeight': 410, 'width': 410, 'height': 410, 'widthPercent': 0.45, 'rescaleHeight': False, 'trialN': 75, 'loaded': True, 'loadedTime': 3043.899999856949, 'positionName': 'RIGHT', 'positionCoords': [998.4, 335], 'bid': 5.55}]",158564.0,1669830955152,hotdog w must,fried eggs,4.43,5.55,1.12,fried eggs,1664.0,1664,1664.1999998092651,True,i,160734.19999980927,2170.199999809265,1669830957322,2170,HRV,HRV_0144,2022-11-30 17:59:59
76,"[{'imgObject': {}, 'id': 'eggs', 'src': '/static/foodstim60/eggs.jpg', 'key': 'u', 'origWidth': 409, 'origHeight': 409, 'width': 409, 'height': 409, 'widthPercent': 0.45, 'rescaleHeight': False, 'trialN': 76, 'loaded': True, 'loadedTime': 3082.399999856949, 'positionName': 'LEFT', 'positionCoords': [512.6, 335.5], 'bid': 2.14}, {'imgObject': {}, 'id': 'turkey sandwich', 'src': '/static/foodstim60/turkey sandwich.jpg', 'key': 'i', 'origWidth': 409, 'origHeight': 409, 'width': 409, 'height': 409, 'widthPercent': 0.45, 'rescaleHeight': False, 'trialN': 76, 'loaded': True, 'loadedTime': 3146.199999809265, 'positionName': 'RIGHT', 'positionCoords': [998.4, 335.5], 'bid': 7.51}]",160734.29999995232,1669830957322,eggs,turkey sandwich,2.14,7.51,5.369999999999999,turkey sandwich,1526.0,1526,1526.2999999523163,True,i,162767.5,2033.2000000476837,1669830959355,2033,HRV,HRV_0144,2022-11-30 17:59:59
77,"[{'imgObject': {}, 'id': 'sushi w_condiments', 'src': '/static/foodstim60/sushi w_condiments.jpg', 'key': 'u', 'origWidth': 410, 'origHeight': 410, 'width': 410, 'height': 410, 'widthPercent': 0.45, 'rescaleHeight': False, 'trialN': 77, 'loaded': True, 'loadedTime': 3034.699999809265, 'positionName': 'LEFT', 'positionCoords': [511.6, 335], 'bid': 0.03}, {'imgObject': {}, 'id': 'cherry tomato', 'src': '/static/foodstim60/cherry tomato.jpg', 'key': 'i', 'origWidth': 410, 'origHeight': 410, 'width': 410, 'height': 410, 'widthPercent': 0.45, 'rescaleHeight': False, 'trialN': 77, 'loaded': True, 'loadedTime': 3158, 'positionName': 'RIGHT', 'positionCoords': [998.4, 335], 'bid': 0.04}]",162767.79999995232,1669830959355,sushi w_condiments,cherry tomato,0.03,0.04,0.010000000000000002,cherry tomato,1213.2000000476837,1214,1213.5,True,i,164485.19999980927,1717.3999998569489,1669830961073,1718,HRV,HRV_0144,2022-11-30 17:59:59
78,"[{'imgObject': {}, 'id': 'roastedpotatoes', 'src': '/static/foodstim60/roastedpotatoes.jpg', 'key': 'u', 'origWidth': 409, 'origHeight': 410, 'width': 409, 'height': 410, 'widthPercent': 0.45, 'rescaleHeight': False, 'trialN': 78, 'loaded': True, 'loadedTime': 3085.5, 'positionName': 'LEFT', 'positionCoords': [512.6, 335], 'bid': 7.6}, {'imgObject': {}, 'id': 'froot loops w milk', 'src': '/static/foodstim60/froot loops w milk.jpg', 'key': 'i', 'origWidth': 410, 'origHeight': 410, 'width': 410, 'height': 410, 'widthPercent': 0.45, 'rescaleHeight': False, 'trialN': 78, 'loaded': True, 'loadedTime': 3260.7999999523163, 'positionName': 'RIGHT', 'positionCoords': [998.4, 335], 'bid': 8.86}]",164485.29999995232,1669830961073,roastedpotatoes,froot loops w milk,7.6,8.86,1.2599999999999998,roastedpotatoes,847.2000000476837,847,847.3999998569489,True,u,165836.79999995232,1351.5,1669830962424,1351,HRV,HRV_0144,2022-11-30 17:59:59
79,"[{'imgObject': {}, 'id': 'omelette', 'src': '/static/foodstim60/omelette.jpg', 'key': 'u', 'origWidth': 410, 'origHeight': 409, 'width': 410, 'height': 409, 'widthPercent': 0.45, 'rescaleHeight': False, 'trialN': 79, 'loaded': True, 'loadedTime': 3280.5999999046326, 'positionName': 'LEFT', 'positionCoords': [511.6, 335.5], 'bid': 0.01}, {'imgObject': {}, 'id': 'eggsalad', 'src': '/static/foodstim60/eggsalad.jpg', 'key': 'i', 'origWidth': 410, 'origHeight': 409, 'width': 410, 'height': 409, 'widthPercent': 0.45, 'rescaleHeight': False, 'trialN': 79, 'loaded': True, 'loadedTime': 3089.699999809265, 'positionName': 'RIGHT', 'positionCoords': [998.4, 335.5], 'bid': 0.1}]",165836.89999985695,1669830962425,omelette,eggsalad,0.01,0.1,0.09000000000000001,eggsalad,1856.5,1856,1856.7000000476837,True,i,168200.59999990463,2363.7000000476837,1669830964788,2363,HRV,HRV_0144,2022-11-30 17:59:59
80,"[{'imgObject': {}, 'id': 'froot loops w milk', 'src': '/static/foodstim60/froot loops w milk.jpg', 'key': 'u', 'origWidth': 410, 'origHeight': 410, 'width': 410, 'height': 410, 'widthPercent': 0.45, 'rescaleHeight': False, 'trialN': 80, 'loaded': True, 'loadedTime': 3260.5999999046326, 'positionName': 'LEFT', 'positionCoords': [511.6, 335], 'bid': 8.86}, {'imgObject': {}, 'id': 'luckycharms', 'src': '/static/foodstim60/luckycharms.jpg', 'key': 'i', 'origWidth': 410, 'origHeight': 409, 'width': 410, 'height': 409, 'widthPercent': 0.45, 'rescaleHeight': False, 'trialN': 80, 'loaded': True, 'loadedTime': 3232.5, 'positionName': 'RIGHT', 'positionCoords': [998.4, 335.5], 'bid': 8.21}]",168201.0,1669830964789,froot loops w milk,luckycharms,8.86,8.21,-0.6499999999999986,froot loops w milk,1828.7999999523163,1829,1828.8999998569489,True,u,170537.89999985695,2336.899999856949,1669830967126,2337,HRV,HRV_0144,2022-11-30 17:59:59
81,"[{'imgObject': {}, 'id': 'popsicles', 'src': '/static/foodstim60/popsicles.jpg', 'key': 'u', 'origWidth': 410, 'origHeight': 410, 'width': 410, 'height': 410, 'widthPercent': 0.45, 'rescaleHeight': False, 'trialN': 81, 'loaded': True, 'loadedTime': 3251.7999999523163, 'positionName': 'LEFT', 'positionCoords': [511.6, 335], 'bid': 1.73}, {'imgObject': {}, 'id': 'bagel plain', 'src': '/static/foodstim60/bagel plain.jpg', 'key': 'i', 'origWidth': 410, 'origHeight': 410, 'width': 410, 'height': 410, 'widthPercent': 0.45, 'rescaleHeight': False, 'trialN': 81, 'loaded': True, 'loadedTime': 3202.899999856949, 'positionName': 'RIGHT', 'positionCoords': [998.4, 335], 'bid': 2.11}]",170538.19999980927,1669830967126,popsicles,bagel plain,1.73,2.11,0.3799999999999999,popsicles,1788.0,1788,1788.2000000476837,True,u,172849.59999990463,2311.4000000953674,1669830969437,2311,HRV,HRV_0144,2022-11-30 17:59:59
82,"[{'imgObject': {}, 'id': 'rigatoni', 'src': '/static/foodstim60/rigatoni.jpg', 'key': 'u', 'origWidth': 411, 'origHeight': 411, 'width': 411, 'height': 411, 'widthPercent': 0.45, 'rescaleHeight': False, 'trialN': 82, 'loaded': True, 'loadedTime': 3083.5, 'positionName': 'LEFT', 'positionCoords': [510.6, 334.5], 'bid': 0.52}, {'imgObject': {}, 'id': 'cantaloupe', 'src': '/static/foodstim60/cantaloupe.jpg', 'key': 'i', 'origWidth': 409, 'origHeight': 409, 'width': 409, 'height': 409, 'widthPercent': 0.45, 'rescaleHeight': False, 'trialN': 82, 'loaded': True, 'loadedTime': 3079.0999999046326, 'positionName': 'RIGHT', 'positionCoords': [998.4, 335.5], 'bid': 0.47}]",172849.89999985695,1669830969437,rigatoni,cantaloupe,0.52,0.47,-0.050000000000000044,cantaloupe,2028.9000000953674,2030,2029.1000001430511,True,i,175400.09999990463,2550.2000000476837,1669830971988,2551,HRV,HRV_0144,2022-11-30 17:59:59
83,"[{'imgObject': {}, 'id': 'veggieswithdip', 'src': '/static/foodstim60/veggieswithdip.jpg', 'key': 'u', 'origWidth': 409, 'origHeight': 409, 'width': 409, 'height': 409, 'widthPercent': 0.45, 'rescaleHeight': False, 'trialN': 83, 'loaded': True, 'loadedTime': 3033.5999999046326, 'positionName': 'LEFT', 'positionCoords': [512.6, 335.5], 'bid': 8}, {'imgObject': {}, 'id': 'mango', 'src': '/static/foodstim60/mango.jpg', 'key': 'i', 'origWidth': 411, 'origHeight': 411, 'width': 411, 'height': 411, 'widthPercent': 0.45, 'rescaleHeight': False, 'trialN': 83, 'loaded': True, 'loadedTime': 3108, 'positionName': 'RIGHT', 'positionCoords': [998.4, 334.5], 'bid': 0.13}]",175400.39999985695,1669830971988,veggieswithdip,mango,8.0,0.13,-7.87,veggieswithdip,2366.4000000953674,2367,2366.7000000476837,True,u,178284.59999990463,2884.2000000476837,1669830974872,2884,HRV,HRV_0144,2022-11-30 17:59:59
84,"[{'imgObject': {}, 'id': 'yogurt no spoon', 'src': '/static/foodstim60/yogurt no spoon.jpg', 'key': 'u', 'origWidth': 411, 'origHeight': 410, 'width': 411, 'height': 410, 'widthPercent': 0.45, 'rescaleHeight': False, 'trialN': 84, 'loaded': True, 'loadedTime': 3206.699999809265, 'positionName': 'LEFT', 'positionCoords': [510.6, 335], 'bid': 0.08}, {'imgObject': {}, 'id': 'salad w chicken', 'src': '/static/foodstim60/salad w chicken.jpg', 'key': 'i', 'origWidth': 411, 'origHeight': 411, 'width': 411, 'height': 411, 'widthPercent': 0.45, 'rescaleHeight': False, 'trialN': 84, 'loaded': True, 'loadedTime': 3277, 'positionName': 'RIGHT', 'positionCoords': [998.4, 334.5], 'bid': 0.13}]",178284.79999995232,1669830974872,yogurt no spoon,salad w chicken,0.08,0.13,0.05,salad w chicken,1386.7000000476837,1387,1386.8999998569489,True,i,180184.79999995232,1900.0,1669830976772,1900,HRV,HRV_0144,2022-11-30 17:59:59
85,"[{'imgObject': {}, 'id': 'omelette', 'src': '/static/foodstim60/omelette.jpg', 'key': 'u', 'origWidth': 410, 'origHeight': 409, 'width': 410, 'height': 409, 'widthPercent': 0.45, 'rescaleHeight': False, 'trialN': 85, 'loaded': True, 'loadedTime': 3280.5999999046326, 'positionName': 'LEFT', 'positionCoords': [511.6, 335.5], 'bid': 0.01}, {'imgObject': {}, 'id': 'blueberries', 'src': '/static/foodstim60/blueberries.jpg', 'key': 'i', 'origWidth': 411, 'origHeight': 411, 'width': 411, 'height': 411, 'widthPercent': 0.45, 'rescaleHeight': False, 'trialN': 85, 'loaded': True, 'loadedTime': 3146.5, 'positionName': 'RIGHT', 'positionCoords': [998.4, 334.5], 'bid': 0}]",180185.0,1669830976773,omelette,blueberries,0.01,0.0,-0.01,blueberries,1214.7999999523163,1215,1215.0,True,i,181913.59999990463,1728.5999999046326,1669830978501,1728,HRV,HRV_0144,2022-11-30 17:59:59
86,"[{'imgObject': {}, 'id': 'olives', 'src': '/static/foodstim60/olives.jpg', 'key': 'u', 'origWidth': 410, 'origHeight': 410, 'width': 410, 'height': 410, 'widthPercent': 0.45, 'rescaleHeight': False, 'trialN': 86, 'loaded': True, 'loadedTime': 3270.699999809265, 'positionName': 'LEFT', 'positionCoords': [511.6, 335], 'bid': 0}, {'imgObject': {}, 'id': 'avocado', 'src': '/static/foodstim60/avocado.jpg', 'key': 'i', 'origWidth': 409, 'origHeight': 409, 'width': 409, 'height': 409, 'widthPercent': 0.45, 'rescaleHeight': False, 'trialN': 86, 'loaded': True, 'loadedTime': 3109, 'positionName': 'RIGHT', 'positionCoords': [998.4, 335.5], 'bid': 0.12}]",181913.89999985695,1669830978501,olives,avocado,0.0,0.12,0.12,olives,2086.2000000476837,2087,2086.4000000953674,True,u,184518.0,2604.100000143051,1669830981106,2605,HRV,HRV_0144,2022-11-30 17:59:59
87,"[{'imgObject': {}, 'id': 'mashed potato', 'src': '/static/foodstim60/mashed potato.jpg', 'key': 'u', 'origWidth': 409, 'origHeight': 409, 'width': 409, 'height': 409, 'widthPercent': 0.45, 'rescaleHeight': False, 'trialN': 87, 'loaded': True, 'loadedTime': 3271.699999809265, 'positionName': 'LEFT', 'positionCoords': [512.6, 335.5], 'bid': 5.16}, {'imgObject': {}, 'id': 'yogurt no spoon', 'src': '/static/foodstim60/yogurt no spoon.jpg', 'key': 'i', 'origWidth': 411, 'origHeight': 410, 'width': 411, 'height': 410, 'widthPercent': 0.45, 'rescaleHeight': False, 'trialN': 87, 'loaded': True, 'loadedTime': 3208.0999999046326, 'positionName': 'RIGHT', 'positionCoords': [998.4, 335], 'bid': 0.08}]",184518.09999990463,1669830981106,mashed potato,yogurt no spoon,5.16,0.08,-5.08,mashed potato,1786.5,1786,1786.7999999523163,True,u,186820.5,2302.4000000953674,1669830983408,2302,HRV,HRV_0144,2022-11-30 17:59:59
88,"[{'imgObject': {}, 'id': 'cherries', 'src': '/static/foodstim60/cherries.jpg', 'key': 'u', 'origWidth': 410, 'origHeight': 411, 'width': 410, 'height': 411, 'widthPercent': 0.45, 'rescaleHeight': False, 'trialN': 88, 'loaded': True, 'loadedTime': 3279.199999809265, 'positionName': 'LEFT', 'positionCoords': [511.6, 334.5], 'bid': 0.13}, {'imgObject': {}, 'id': 'bagel plain', 'src': '/static/foodstim60/bagel plain.jpg', 'key': 'i', 'origWidth': 410, 'origHeight': 410, 'width': 410, 'height': 410, 'widthPercent': 0.45, 'rescaleHeight': False, 'trialN': 88, 'loaded': True, 'loadedTime': 3204.899999856949, 'positionName': 'RIGHT', 'positionCoords': [998.4, 335], 'bid': 2.11}]",186820.69999980927,1669830983408,cherries,bagel plain,0.13,2.11,1.98,bagel plain,1476.1000001430511,1477,1476.4000000953674,True,i,188803.5,1982.8000001907349,1669830985391,1983,HRV,HRV_0144,2022-11-30 17:59:59
89,"[{'imgObject': {}, 'id': 'corn cob', 'src': '/static/foodstim60/corn cob.jpg', 'key': 'u', 'origWidth': 411, 'origHeight': 411, 'width': 411, 'height': 411, 'widthPercent': 0.45, 'rescaleHeight': False, 'trialN': 89, 'loaded': True, 'loadedTime': 3273.5, 'positionName': 'LEFT', 'positionCoords': [510.6, 334.5], 'bid': 5.67}, {'imgObject': {}, 'id': 'turkey sandwich', 'src': '/static/foodstim60/turkey sandwich.jpg', 'key': 'i', 'origWidth': 409, 'origHeight': 409, 'width': 409, 'height': 409, 'widthPercent': 0.45, 'rescaleHeight': False, 'trialN': 89, 'loaded': True, 'loadedTime': 3137.5, 'positionName': 'RIGHT', 'positionCoords': [998.4, 335.5], 'bid': 7.51}]",188803.89999985695,1669830985391,corn cob,turkey sandwich,5.67,7.51,1.8399999999999999,turkey sandwich,1325.2999999523163,1326,1325.6000001430511,True,i,190635.5,1831.6000001430511,1669830987223,1832,HRV,HRV_0144,2022-11-30 17:59:59
90,"[{'imgObject': {}, 'id': 'banana', 'src': '/static/foodstim60/banana.jpg', 'key': 'u', 'origWidth': 410, 'origHeight': 410, 'width': 410, 'height': 410, 'widthPercent': 0.45, 'rescaleHeight': False, 'trialN': 90, 'loaded': True, 'loadedTime': 3186.7999999523163, 'positionName': 'LEFT', 'positionCoords': [511.6, 335], 'bid': 1.42}, {'imgObject': {}, 'id': 'baked potato', 'src': '/static/foodstim60/baked potato.jpg', 'key': 'i', 'origWidth': 409, 'origHeight': 410, 'width': 409, 'height': 410, 'widthPercent': 0.45, 'rescaleHeight': False, 'trialN': 90, 'loaded': True, 'loadedTime': 3272.399999856949, 'positionName': 'RIGHT', 'positionCoords': [998.4, 335], 'bid': 3.82}]",210415.79999995232,1669831007006,banana,baked potato,1.42,3.82,2.4,banana,1644.8999998569489,1645,1645.2999999523163,True,u,212566.79999995232,2151.0,1669831009157,2151,HRV,HRV_0144,2022-11-30 17:59:59
91,"[{'imgObject': {}, 'id': 'orange slices', 'src': '/static/foodstim60/orange slices.jpg', 'key': 'u', 'origWidth': 409, 'origHeight': 410, 'width': 409, 'height': 410, 'widthPercent': 0.45, 'rescaleHeight': False, 'trialN': 91, 'loaded': True, 'loadedTime': 3281.5, 'positionName': 'LEFT', 'positionCoords': [512.6, 335], 'bid': 6.43}, {'imgObject': {}, 'id': 'tacos', 'src': '/static/foodstim60/tacos.jpg', 'key': 'i', 'origWidth': 411, 'origHeight': 411, 'width': 411, 'height': 411, 'widthPercent': 0.45, 'rescaleHeight': False, 'trialN': 91, 'loaded': True, 'loadedTime': 2994.5999999046326, 'positionName': 'RIGHT', 'positionCoords': [998.4, 334.5], 'bid': 9.84}]",212567.09999990463,1669831009157,orange slices,tacos,6.43,9.84,3.41,tacos,917.9000000953674,919,918.2000000476837,True,i,213991.09999990463,1424.0,1669831010582,1425,HRV,HRV_0144,2022-11-30 17:59:59
92,"[{'imgObject': {}, 'id': 'rigatoni and sauce', 'src': '/static/foodstim60/rigatoni and sauce.jpg', 'key': 'u', 'origWidth': 410, 'origHeight': 411, 'width': 410, 'height': 411, 'widthPercent': 0.45, 'rescaleHeight': False, 'trialN': 92, 'loaded': True, 'loadedTime': 3119.2999999523163, 'positionName': 'LEFT', 'positionCoords': [511.6, 334.5], 'bid': 2.51}, {'imgObject': {}, 'id': 'mac & cheese', 'src': '/static/foodstim60/mac & cheese.jpg', 'key': 'i', 'origWidth': 410, 'origHeight': 410, 'width': 410, 'height': 410, 'widthPercent': 0.45, 'rescaleHeight': False, 'trialN': 92, 'loaded': True, 'loadedTime': 3081.199999809265, 'positionName': 'RIGHT', 'positionCoords': [998.4, 335], 'bid': 3.68}]",213991.39999985695,1669831010582,rigatoni and sauce,mac & cheese,2.51,3.68,1.1700000000000004,rigatoni and sauce,1822.0,1822,1822.2999999523163,True,u,216319.09999990463,2327.7000000476837,1669831012910,2328,HRV,HRV_0144,2022-11-30 17:59:59
93,"[{'imgObject': {}, 'id': 'burger', 'src': '/static/foodstim60/burger.jpg', 'key': 'u', 'origWidth': 409, 'origHeight': 409, 'width': 409, 'height': 409, 'widthPercent': 0.45, 'rescaleHeight': False, 'trialN': 93, 'loaded': True, 'loadedTime': 3266.5, 'positionName': 'LEFT', 'positionCoords': [512.6, 335.5], 'bid': 5.88}, {'imgObject': {}, 'id': 'raisin bran w milk', 'src': '/static/foodstim60/raisin bran w milk.jpg', 'key': 'i', 'origWidth': 411, 'origHeight': 411, 'width': 411, 'height': 411, 'widthPercent': 0.45, 'rescaleHeight': False, 'trialN': 93, 'loaded': True, 'loadedTime': 3185.899999856949, 'positionName': 'RIGHT', 'positionCoords': [998.4, 334.5], 'bid': 9.53}]",216319.29999995232,1669831012910,burger,raisin bran w milk,5.88,9.53,3.6499999999999995,raisin bran w milk,998.3999998569489,998,998.5999999046326,True,i,217820.69999980927,1501.3999998569489,1669831014411,1501,HRV,HRV_0144,2022-11-30 17:59:59
94,"[{'imgObject': {}, 'id': 'baked potato', 'src': '/static/foodstim60/baked potato.jpg', 'key': 'u', 'origWidth': 409, 'origHeight': 410, 'width': 409, 'height': 410, 'widthPercent': 0.45, 'rescaleHeight': False, 'trialN': 94, 'loaded': True, 'loadedTime': 3271.899999856949, 'positionName': 'LEFT', 'positionCoords': [512.6, 335], 'bid': 3.82}, {'imgObject': {}, 'id': 'mashed potato', 'src': '/static/foodstim60/mashed potato.jpg', 'key': 'i', 'origWidth': 409, 'origHeight': 409, 'width': 409, 'height': 409, 'widthPercent': 0.45, 'rescaleHeight': False, 'trialN': 94, 'loaded': True, 'loadedTime': 3271.699999809265, 'positionName': 'RIGHT', 'positionCoords': [998.4, 335.5], 'bid': 5.16}]",217820.79999995232,1669831014411,baked potato,mashed potato,3.82,5.16,1.3400000000000003,mashed potato,1161.2000000476837,1162,1161.3999998569489,True,i,219484.89999985695,1664.0999999046326,1669831016075,1664,HRV,HRV_0144,2022-11-30 17:59:59
95,"[{'imgObject': {}, 'id': 'cantaloupe', 'src': '/static/foodstim60/cantaloupe.jpg', 'key': 'u', 'origWidth': 409, 'origHeight': 409, 'width': 409, 'height': 409, 'widthPercent': 0.45, 'rescaleHeight': False, 'trialN': 95, 'loaded': True, 'loadedTime': 3080.2999999523163, 'positionName': 'LEFT', 'positionCoords': [512.6, 335.5], 'bid': 0.47}, {'imgObject': {}, 'id': 'blackbeanswithrice', 'src': '/static/foodstim60/blackbeanswithrice.jpg', 'key': 'i', 'origWidth': 410, 'origHeight': 410, 'width': 410, 'height': 410, 'widthPercent': 0.45, 'rescaleHeight': False, 'trialN': 95, 'loaded': True, 'loadedTime': 3167.899999856949, 'positionName': 'RIGHT', 'positionCoords': [998.4, 335], 'bid': 0.06}]",219485.0,1669831016075,cantaloupe,blackbeanswithrice,0.47,0.06,-0.41,cantaloupe,1697.3999998569489,1698,1697.6999998092651,True,u,221694.19999980927,2209.199999809265,1669831018285,2210,HRV,HRV_0144,2022-11-30 17:59:59
96,"[{'imgObject': {}, 'id': 'cocktailshrimp', 'src': '/static/foodstim60/cocktailshrimp.jpg', 'key': 'u', 'origWidth': 410, 'origHeight': 410, 'width': 410, 'height': 410, 'widthPercent': 0.45, 'rescaleHeight': False, 'trialN': 96, 'loaded': True, 'loadedTime': 3029, 'positionName': 'LEFT', 'positionCoords': [511.6, 335], 'bid': 0.08}, {'imgObject': {}, 'id': 'yogurt no spoon', 'src': '/static/foodstim60/yogurt no spoon.jpg', 'key': 'i', 'origWidth': 411, 'origHeight': 410, 'width': 411, 'height': 410, 'widthPercent': 0.45, 'rescaleHeight': False, 'trialN': 96, 'loaded': True, 'loadedTime': 3208, 'positionName': 'RIGHT', 'positionCoords': [998.4, 335], 'bid': 0.08}]",221694.39999985695,1669831018285,cocktailshrimp,yogurt no spoon,0.08,0.08,0.0,cocktailshrimp,2152.5,2153,2152.7000000476837,True,u,224367.79999995232,2673.4000000953674,1669831020958,2673,HRV,HRV_0144,2022-11-30 17:59:59
97,"[{'imgObject': {}, 'id': 'Grapes', 'src': '/static/foodstim60/Grapes.jpg', 'key': 'u', 'origWidth': 411, 'origHeight': 411, 'width': 411, 'height': 411, 'widthPercent': 0.45, 'rescaleHeight': False, 'trialN': 97, 'loaded': True, 'loadedTime': 3262, 'positionName': 'LEFT', 'positionCoords': [510.6, 334.5], 'bid': 6.88}, {'imgObject': {}, 'id': 'chickenfingers', 'src': '/static/foodstim60/chickenfingers.jpg', 'key': 'i', 'origWidth': 410, 'origHeight': 410, 'width': 410, 'height': 410, 'widthPercent': 0.45, 'rescaleHeight': False, 'trialN': 97, 'loaded': True, 'loadedTime': 3057, 'positionName': 'RIGHT', 'positionCoords': [998.4, 335], 'bid': 7}]",224368.09999990463,1669831020958,Grapes,chickenfingers,6.88,7.0,0.1200000000000001,chickenfingers,1119.0,1120,1119.2000000476837,True,i,226006.69999980927,1638.5999999046326,1669831022597,1639,HRV,HRV_0144,2022-11-30 17:59:59
98,"[{'imgObject': {}, 'id': 'roastedpotatoes', 'src': '/static/foodstim60/roastedpotatoes.jpg', 'key': 'u', 'origWidth': 409, 'origHeight': 410, 'width': 409, 'height': 410, 'widthPercent': 0.45, 'rescaleHeight': False, 'trialN': 98, 'loaded': True, 'loadedTime': 3085.2999999523163, 'positionName': 'LEFT', 'positionCoords': [512.6, 335], 'bid': 7.6}, {'imgObject': {}, 'id': 'rigatoni and sauce', 'src': '/static/foodstim60/rigatoni and sauce.jpg', 'key': 'i', 'origWidth': 410, 'origHeight': 411, 'width': 410, 'height': 411, 'widthPercent': 0.45, 'rescaleHeight': False, 'trialN': 98, 'loaded': True, 'loadedTime': 3118.0999999046326, 'positionName': 'RIGHT', 'positionCoords': [998.4, 334.5], 'bid': 2.51}]",226006.89999985695,1669831022597,roastedpotatoes,rigatoni and sauce,7.6,2.51,-5.09,roastedpotatoes,1672.5,1673,1672.7000000476837,True,u,228200.79999995232,2193.9000000953674,1669831024791,2194,HRV,HRV_0144,2022-11-30 17:59:59
99,"[{'imgObject': {}, 'id': 'olives', 'src': '/static/foodstim60/olives.jpg', 'key': 'u', 'origWidth': 410, 'origHeight': 410, 'width': 410, 'height': 410, 'widthPercent': 0.45, 'rescaleHeight': False, 'trialN': 99, 'loaded': True, 'loadedTime': 3270.7999999523163, 'positionName': 'LEFT', 'positionCoords': [511.6, 335], 'bid': 0}, {'imgObject': {}, 'id': 'hashbrowns', 'src': '/static/foodstim60/hashbrowns.jpg', 'key': 'i', 'origWidth': 411, 'origHeight': 410, 'width': 411, 'height': 410, 'widthPercent': 0.45, 'rescaleHeight': False, 'trialN': 99, 'loaded': True, 'loadedTime': 3206.0999999046326, 'positionName': 'RIGHT', 'positionCoords': [998.4, 335], 'bid': 0}]",228200.89999985695,1669831024791,olives,hashbrowns,0.0,0.0,0.0,hashbrowns,1854.9000000953674,1855,1855.1000001430511,True,i,230571.69999980927,2370.7999999523163,1669831027162,2371,HRV,HRV_0144,2022-11-30 17:59:59
100,"[{'imgObject': {}, 'id': 'bagel and cc', 'src': '/static/foodstim60/bagel and cc.jpg', 'key': 'u', 'origWidth': 410, 'origHeight': 410, 'width': 410, 'height': 410, 'widthPercent': 0.45, 'rescaleHeight': False, 'trialN': 100, 'loaded': True, 'loadedTime': 3176, 'positionName': 'LEFT', 'positionCoords': [511.6, 335], 'bid': 2.17}, {'imgObject': {}, 'id': 'fruitsalad', 'src': '/static/foodstim60/fruitsalad.jpg', 'key': 'i', 'origWidth': 410, 'origHeight': 410, 'width': 410, 'height': 410, 'widthPercent': 0.45, 'rescaleHeight': False, 'trialN': 100, 'loaded': True, 'loadedTime': 3035.699999809265, 'positionName': 'RIGHT', 'positionCoords': [998.4, 335], 'bid': 3.16}]",230571.89999985695,1669831027162,bagel and cc,fruitsalad,2.17,3.16,0.9900000000000002,bagel and cc,1644.4000000953674,1645,1644.6000001430511,True,u,232733.79999995232,2161.9000000953674,1669831029324,2162,HRV,HRV_0144,2022-11-30 17:59:59
101,"[{'imgObject': {}, 'id': 'fruitsalad', 'src': '/static/foodstim60/fruitsalad.jpg', 'key': 'u', 'origWidth': 410, 'origHeight': 410, 'width': 410, 'height': 410, 'widthPercent': 0.45, 'rescaleHeight': False, 'trialN': 101, 'loaded': True, 'loadedTime': 3036.0999999046326, 'positionName': 'LEFT', 'positionCoords': [511.6, 335], 'bid': 3.16}, {'imgObject': {}, 'id': 'veggieswithdip', 'src': '/static/foodstim60/veggieswithdip.jpg', 'key': 'i', 'origWidth': 409, 'origHeight': 409, 'width': 409, 'height': 409, 'widthPercent': 0.45, 'rescaleHeight': False, 'trialN': 101, 'loaded': True, 'loadedTime': 3033.399999856949, 'positionName': 'RIGHT', 'positionCoords': [998.4, 335.5], 'bid': 8}]",232733.79999995232,1669831029324,fruitsalad,veggieswithdip,3.16,8.0,4.84,fruitsalad,1522.7999999523163,1523,1523.0999999046326,True,u,234766.39999985695,2032.5999999046326,1669831031357,2033,HRV,HRV_0144,2022-11-30 17:59:59
102,"[{'imgObject': {}, 'id': 'roastedpotatoes', 'src': '/static/foodstim60/roastedpotatoes.jpg', 'key': 'u', 'origWidth': 409, 'origHeight': 410, 'width': 409, 'height': 410, 'widthPercent': 0.45, 'rescaleHeight': False, 'trialN': 102, 'loaded': True, 'loadedTime': 3084.5, 'positionName': 'LEFT', 'positionCoords': [512.6, 335], 'bid': 7.6}, {'imgObject': {}, 'id': 'strawberries', 'src': '/static/foodstim60/strawberries.jpg', 'key': 'i', 'origWidth': 410, 'origHeight': 410, 'width': 410, 'height': 410, 'widthPercent': 0.45, 'rescaleHeight': False, 'trialN': 102, 'loaded': True, 'loadedTime': 3074.5, 'positionName': 'RIGHT', 'positionCoords': [998.4, 335], 'bid': 8.07}]",234766.59999990463,1669831031357,roastedpotatoes,strawberries,7.6,8.07,0.47000000000000064,roastedpotatoes,1554.4000000953674,1555,1554.7000000476837,True,u,236834.59999990463,2068.0,1669831033425,2068,HRV,HRV_0144,2022-11-30 17:59:59
103,"[{'imgObject': {}, 'id': 'raisin bran w milk', 'src': '/static/foodstim60/raisin bran w milk.jpg', 'key': 'u', 'origWidth': 411, 'origHeight': 411, 'width': 411, 'height': 411, 'widthPercent': 0.45, 'rescaleHeight': False, 'trialN': 103, 'loaded': True, 'loadedTime': 3177, 'positionName': 'LEFT', 'positionCoords': [510.6, 334.5], 'bid': 9.53}, {'imgObject': {}, 'id': 'strawberries', 'src': '/static/foodstim60/strawberries.jpg', 'key': 'i', 'origWidth': 410, 'origHeight': 410, 'width': 410, 'height': 410, 'widthPercent': 0.45, 'rescaleHeight': False, 'trialN': 103, 'loaded': True, 'loadedTime': 3074.0999999046326, 'positionName': 'RIGHT', 'positionCoords': [998.4, 335], 'bid': 8.07}]",236834.79999995232,1669831033425,raisin bran w milk,strawberries,9.53,8.07,-1.459999999999999,raisin bran w milk,1006.3999998569489,1007,1006.5999999046326,True,u,238350.89999985695,1516.0999999046326,1669831034941,1516,HRV,HRV_0144,2022-11-30 17:59:59
104,"[{'imgObject': {}, 'id': 'shreddedwheatwithmilk', 'src': '/static/foodstim60/shreddedwheatwithmilk.jpg', 'key': 'u', 'origWidth': 410, 'origHeight': 410, 'width': 410, 'height': 410, 'widthPercent': 0.45, 'rescaleHeight': False, 'trialN': 104, 'loaded': True, 'loadedTime': 3278.0999999046326, 'positionName': 'LEFT', 'positionCoords': [511.6, 335], 'bid': 0.04}, {'imgObject': {}, 'id': 'sweetpotato', 'src': '/static/foodstim60/sweetpotato.jpg', 'key': 'i', 'origWidth': 410, 'origHeight': 410, 'width': 410, 'height': 410, 'widthPercent': 0.45, 'rescaleHeight': False, 'trialN': 104, 'loaded': True, 'loadedTime': 3027, 'positionName': 'RIGHT', 'positionCoords': [998.4, 335], 'bid': 0.08}]",238351.09999990463,1669831034942,shreddedwheatwithmilk,sweetpotato,0.04,0.08,0.04,shreddedwheatwithmilk,2330.2000000476837,2330,2330.4000000953674,True,u,241199.19999980927,2848.0999999046326,1669831037790,2848,HRV,HRV_0144,2022-11-30 17:59:59
105,"[{'imgObject': {}, 'id': 'ice cream sundae 002', 'src': '/static/foodstim60/ice cream sundae 002.jpg', 'key': 'u', 'origWidth': 409, 'origHeight': 409, 'width': 409, 'height': 409, 'widthPercent': 0.45, 'rescaleHeight': False, 'trialN': 105, 'loaded': True, 'loadedTime': 3031.399999856949, 'positionName': 'LEFT', 'positionCoords': [512.6, 335.5], 'bid': 8.13}, {'imgObject': {}, 'id': 'Tribe humus pita', 'src': '/static/foodstim60/Tribe humus pita.jpg', 'key': 'i', 'origWidth': 411, 'origHeight': 411, 'width': 411, 'height': 411, 'widthPercent': 0.45, 'rescaleHeight': False, 'trialN': 105, 'loaded': True, 'loadedTime': 3250.899999856949, 'positionName': 'RIGHT', 'positionCoords': [998.4, 334.5], 'bid': 0.13}]",241199.39999985695,1669831037790,ice cream sundae 002,Tribe humus pita,8.13,0.13,-8.0,ice cream sundae 002,1714.7999999523163,1715,1714.9000000953674,True,u,243432.5,2233.100000143051,1669831040023,2233,HRV,HRV_0144,2022-11-30 17:59:59
106,"[{'imgObject': {}, 'id': 'rigatoni', 'src': '/static/foodstim60/rigatoni.jpg', 'key': 'u', 'origWidth': 411, 'origHeight': 411, 'width': 411, 'height': 411, 'widthPercent': 0.45, 'rescaleHeight': False, 'trialN': 106, 'loaded': True, 'loadedTime': 3083.5, 'positionName': 'LEFT', 'positionCoords': [510.6, 334.5], 'bid': 0.52}, {'imgObject': {}, 'id': 'Tribe humus pita', 'src': '/static/foodstim60/Tribe humus pita.jpg', 'key': 'i', 'origWidth': 411, 'origHeight': 411, 'width': 411, 'height': 411, 'widthPercent': 0.45, 'rescaleHeight': False, 'trialN': 106, 'loaded': True, 'loadedTime': 3251.199999809265, 'positionName': 'RIGHT', 'positionCoords': [998.4, 334.5], 'bid': 0.13}]",243432.69999980927,1669831040023,rigatoni,Tribe humus pita,0.52,0.13,-0.39,rigatoni,1273.7000000476837,1274,1273.9000000953674,True,u,245218.0,1785.3000001907349,1669831041808,1785,HRV,HRV_0144,2022-11-30 17:59:59
107,"[{'imgObject': {}, 'id': 'ice cream sundae 002', 'src': '/static/foodstim60/ice cream sundae 002.jpg', 'key': 'u', 'origWidth': 409, 'origHeight': 409, 'width': 409, 'height': 409, 'widthPercent': 0.45, 'rescaleHeight': False, 'trialN': 107, 'loaded': True, 'loadedTime': 3031.199999809265, 'positionName': 'LEFT', 'positionCoords': [512.6, 335.5], 'bid': 8.13}, {'imgObject': {}, 'id': 'tacos', 'src': '/static/foodstim60/tacos.jpg', 'key': 'i', 'origWidth': 411, 'origHeight': 411, 'width': 411, 'height': 411, 'widthPercent': 0.45, 'rescaleHeight': False, 'trialN': 107, 'loaded': True, 'loadedTime': 2994.399999856949, 'positionName': 'RIGHT', 'positionCoords': [998.4, 334.5], 'bid': 9.84}]",245218.19999980927,1669831041809,ice cream sundae 002,tacos,8.13,9.84,1.709999999999999,tacos,1479.7000000476837,1480,1480.0,True,i,247217.0,1998.8000001907349,1669831043807,1998,HRV,HRV_0144,2022-11-30 17:59:59
108,"[{'imgObject': {}, 'id': 'yogurt no spoon', 'src': '/static/foodstim60/yogurt no spoon.jpg', 'key': 'u', 'origWidth': 411, 'origHeight': 410, 'width': 411, 'height': 410, 'widthPercent': 0.45, 'rescaleHeight': False, 'trialN': 108, 'loaded': True, 'loadedTime': 3208.0999999046326, 'positionName': 'LEFT', 'positionCoords': [510.6, 335], 'bid': 0.08}, {'imgObject': {}, 'id': 'raspberries', 'src': '/static/foodstim60/raspberries.jpg', 'key': 'i', 'origWidth': 411, 'origHeight': 411, 'width': 411, 'height': 411, 'widthPercent': 0.45, 'rescaleHeight': False, 'trialN': 108, 'loaded': True, 'loadedTime': 3078.899999856949, 'positionName': 'RIGHT', 'positionCoords': [998.4, 334.5], 'bid': 0.08}]",247217.09999990463,1669831043808,yogurt no spoon,raspberries,0.08,0.08,0.0,raspberries,1641.9000000953674,1642,1642.2000000476837,True,i,249366.89999985695,2149.7999999523163,1669831045957,2149,HRV,HRV_0144,2022-11-30 17:59:59
