trialN,stimuli,trialStartTime,trialStartTime_UNIX,stimulus1,stimulus2,stimulus1Bid,stimulus2Bid,delta,selected,rt,rt_UNIX,rt_perfnow,receivedResponse,rsp,trialEndTime,trialDuration,trialEndTime_UNIX,trialDuration_UNIX,exp,subjectId,date
0,"[{'imgObject': {}, 'id': 'orange slices', 'src': '/static/foodstim60/orange slices.jpg', 'key': 'u', 'origWidth': 409, 'origHeight': 410, 'width': 409, 'height': 410, 'widthPercent': 0.45, 'rescaleHeight': False, 'trialN': 0, 'loaded': True, 'loadedTime': 3083, 'positionName': 'LEFT', 'positionCoords': [328.28, 227], 'bid': 7.18}, {'imgObject': {}, 'id': 'fruitsalad', 'src': '/static/foodstim60/fruitsalad.jpg', 'key': 'i', 'origWidth': 410, 'origHeight': 410, 'width': 410, 'height': 410, 'widthPercent': 0.45, 'rescaleHeight': False, 'trialN': 0, 'loaded': True, 'loadedTime': 3092.0999999940395, 'positionName': 'RIGHT', 'positionCoords': [798.72, 227], 'bid': 8.43}]",3656.0999999940395,1669831326909,orange slices,fruitsalad,7.18,8.43,1.25,fruitsalad,1497.9000000059605,1498,1498.300000011921,True,i,5670.5999999940395,2014.5,1669831328923,2014,HRV,HRV_0141,2022-11-30 18:06:14
1,"[{'imgObject': {}, 'id': 'orange slices', 'src': '/static/foodstim60/orange slices.jpg', 'key': 'u', 'origWidth': 409, 'origHeight': 410, 'width': 409, 'height': 410, 'widthPercent': 0.45, 'rescaleHeight': False, 'trialN': 1, 'loaded': True, 'loadedTime': 3082.9000000059605, 'positionName': 'LEFT', 'positionCoords': [328.28, 227], 'bid': 7.18}, {'imgObject': {}, 'id': 'salmon', 'src': '/static/foodstim60/salmon.jpg', 'key': 'i', 'origWidth': 410, 'origHeight': 409, 'width': 410, 'height': 409, 'widthPercent': 0.45, 'rescaleHeight': False, 'trialN': 1, 'loaded': True, 'loadedTime': 3093.7000000029802, 'positionName': 'RIGHT', 'positionCoords': [798.72, 227.5], 'bid': 9.83}]",5671.0,1669831328924,orange slices,salmon,7.18,9.83,2.6500000000000004,salmon,710.5,711,711.0,True,i,6893.0999999940395,1222.0999999940395,1669831330146,1222,HRV,HRV_0141,2022-11-30 18:06:14
2,"[{'imgObject': {}, 'id': 'apple slices', 'src': '/static/foodstim60/apple slices.jpg', 'key': 'u', 'origWidth': 409, 'origHeight': 410, 'width': 409, 'height': 410, 'widthPercent': 0.45, 'rescaleHeight': False, 'trialN': 2, 'loaded': True, 'loadedTime': 3151.9000000059605, 'positionName': 'LEFT', 'positionCoords': [328.28, 227], 'bid': 8.950000000000001}, {'imgObject': {}, 'id': 'sushi w_condiments', 'src': '/static/foodstim60/sushi w_condiments.jpg', 'key': 'i', 'origWidth': 410, 'origHeight': 410, 'width': 410, 'height': 410, 'widthPercent': 0.45, 'rescaleHeight': False, 'trialN': 2, 'loaded': True, 'loadedTime': 3172.7999999970198, 'positionName': 'RIGHT', 'positionCoords': [798.72, 227], 'bid': 7.26}]",6893.4000000059605,1669831330146,apple slices,sushi w_condiments,8.950000000000001,7.26,-1.6900000000000013,apple slices,1140.699999988079,1141,1141.0999999940395,True,u,8541.59999999404,1648.199999988079,1669831331794,1648,HRV,HRV_0141,2022-11-30 18:06:14
3,"[{'imgObject': {}, 'id': 'cocktailshrimp', 'src': '/static/foodstim60/cocktailshrimp.jpg', 'key': 'u', 'origWidth': 410, 'origHeight': 410, 'width': 410, 'height': 410, 'widthPercent': 0.45, 'rescaleHeight': False, 'trialN': 3, 'loaded': True, 'loadedTime': 3181.7999999970198, 'positionName': 'LEFT', 'positionCoords': [327.28, 227], 'bid': 6.92}, {'imgObject': {}, 'id': 'pear', 'src': '/static/foodstim60/pear.jpg', 'key': 'i', 'origWidth': 411, 'origHeight': 410, 'width': 411, 'height': 410, 'widthPercent': 0.45, 'rescaleHeight': False, 'trialN': 3, 'loaded': True, 'loadedTime': 3190.7999999970198, 'positionName': 'RIGHT', 'positionCoords': [798.72, 227], 'bid': 6.94}]",8541.90000000596,1669831331795,cocktailshrimp,pear,6.92,6.94,0.020000000000000462,cocktailshrimp,870.2999999970198,871,870.8999999910593,True,u,9917.29999999702,1375.3999999910593,1669831333170,1375,HRV,HRV_0141,2022-11-30 18:06:14
4,"[{'imgObject': {}, 'id': 'grilled chicken strips', 'src': '/static/foodstim60/grilled chicken strips.jpg', 'key': 'u', 'origWidth': 410, 'origHeight': 411, 'width': 410, 'height': 411, 'widthPercent': 0.45, 'rescaleHeight': False, 'trialN': 4, 'loaded': True, 'loadedTime': 3203.2000000029802, 'positionName': 'LEFT', 'positionCoords': [327.28, 226.5], 'bid': 7.5}, {'imgObject': {}, 'id': 'raspberries', 'src': '/static/foodstim60/raspberries.jpg', 'key': 'i', 'origWidth': 411, 'origHeight': 411, 'width': 411, 'height': 411, 'widthPercent': 0.45, 'rescaleHeight': False, 'trialN': 4, 'loaded': True, 'loadedTime': 3213.4000000059605, 'positionName': 'RIGHT', 'positionCoords': [798.72, 226.5], 'bid': 6.79}]",9917.70000000298,1669831333171,grilled chicken strips,raspberries,7.5,6.79,-0.71,grilled chicken strips,699.3999999910593,700,700.0999999940395,True,u,11137.59999999404,1219.8999999910593,1669831334390,1219,HRV,HRV_0141,2022-11-30 18:06:14
5,"[{'imgObject': {}, 'id': 'turkey sandwich', 'src': '/static/foodstim60/turkey sandwich.jpg', 'key': 'u', 'origWidth': 409, 'origHeight': 409, 'width': 409, 'height': 409, 'widthPercent': 0.45, 'rescaleHeight': False, 'trialN': 5, 'loaded': True, 'loadedTime': 3220.7000000029802, 'positionName': 'LEFT', 'positionCoords': [328.28, 227.5], 'bid': 5.05}, {'imgObject': {}, 'id': 'banana', 'src': '/static/foodstim60/banana.jpg', 'key': 'i', 'origWidth': 410, 'origHeight': 410, 'width': 410, 'height': 410, 'widthPercent': 0.45, 'rescaleHeight': False, 'trialN': 5, 'loaded': True, 'loadedTime': 3102.2999999970198, 'positionName': 'RIGHT', 'positionCoords': [798.72, 227], 'bid': 2.03}]",11137.90000000596,1669831334391,turkey sandwich,banana,5.05,2.03,-3.02,turkey sandwich,765.0999999940395,765,765.6999999880791,True,u,12405.5,1267.5999999940395,1669831335658,1267,HRV,HRV_0141,2022-11-30 18:06:14
6,"[{'imgObject': {}, 'id': 'shreddedwheatwithmilk', 'src': '/static/foodstim60/shreddedwheatwithmilk.jpg', 'key': 'u', 'origWidth': 410, 'origHeight': 410, 'width': 410, 'height': 410, 'widthPercent': 0.45, 'rescaleHeight': False, 'trialN': 6, 'loaded': True, 'loadedTime': 3165.5999999940395, 'positionName': 'LEFT', 'positionCoords': [327.28, 227], 'bid': 0.18}, {'imgObject': {}, 'id': 'rigatoni', 'src': '/static/foodstim60/rigatoni.jpg', 'key': 'i', 'origWidth': 411, 'origHeight': 411, 'width': 411, 'height': 411, 'widthPercent': 0.45, 'rescaleHeight': False, 'trialN': 6, 'loaded': True, 'loadedTime': 3233.4000000059605, 'positionName': 'RIGHT', 'positionCoords': [798.72, 226.5], 'bid': 0.14}]",12405.90000000596,1669831335659,shreddedwheatwithmilk,rigatoni,0.18,0.14,-0.03999999999999998,rigatoni,1175.7999999970198,1176,1176.5,True,i,14088.70000000298,1682.7999999970198,1669831337341,1682,HRV,HRV_0141,2022-11-30 18:06:14
7,"[{'imgObject': {}, 'id': 'steak', 'src': '/static/foodstim60/steak.jpg', 'key': 'u', 'origWidth': 410, 'origHeight': 410, 'width': 410, 'height': 410, 'widthPercent': 0.45, 'rescaleHeight': False, 'trialN': 7, 'loaded': True, 'loadedTime': 3245.7000000029802, 'positionName': 'LEFT', 'positionCoords': [327.28, 227], 'bid': 8.38}, {'imgObject': {}, 'id': 'roastedpotatoes', 'src': '/static/foodstim60/roastedpotatoes.jpg', 'key': 'i', 'origWidth': 409, 'origHeight': 410, 'width': 409, 'height': 410, 'widthPercent': 0.45, 'rescaleHeight': False, 'trialN': 7, 'loaded': True, 'loadedTime': 3247.5999999940395, 'positionName': 'RIGHT', 'positionCoords': [798.72, 227], 'bid': 6.18}]",14088.79999999702,1669831337342,steak,roastedpotatoes,8.38,6.18,-2.200000000000001,steak,1205.4000000059605,1206,1206.0,True,u,15807.20000000298,1718.4000000059605,1669831339060,1718,HRV,HRV_0141,2022-11-30 18:06:14
8,"[{'imgObject': {}, 'id': 'burger', 'src': '/static/foodstim60/burger.jpg', 'key': 'u', 'origWidth': 409, 'origHeight': 409, 'width': 409, 'height': 409, 'widthPercent': 0.45, 'rescaleHeight': False, 'trialN': 8, 'loaded': True, 'loadedTime': 3255.4000000059605, 'positionName': 'LEFT', 'positionCoords': [328.28, 227.5], 'bid': 6.5600000000000005}, {'imgObject': {}, 'id': 'sushi w_condiments', 'src': '/static/foodstim60/sushi w_condiments.jpg', 'key': 'i', 'origWidth': 410, 'origHeight': 410, 'width': 410, 'height': 410, 'widthPercent': 0.45, 'rescaleHeight': False, 'trialN': 8, 'loaded': True, 'loadedTime': 3173.7000000029802, 'positionName': 'RIGHT', 'positionCoords': [798.72, 227], 'bid': 7.26}]",15807.40000000596,1669831339060,burger,sushi w_condiments,6.5600000000000005,7.26,0.6999999999999993,burger,1020.2999999970198,1022,1021.1999999880791,True,u,17332.29999999702,1524.8999999910593,1669831340585,1525,HRV,HRV_0141,2022-11-30 18:06:14
9,"[{'imgObject': {}, 'id': 'cherries', 'src': '/static/foodstim60/cherries.jpg', 'key': 'u', 'origWidth': 410, 'origHeight': 411, 'width': 410, 'height': 411, 'widthPercent': 0.45, 'rescaleHeight': False, 'trialN': 9, 'loaded': True, 'loadedTime': 3265.2000000029802, 'positionName': 'LEFT', 'positionCoords': [327.28, 226.5], 'bid': 6.3}, {'imgObject': {}, 'id': 'roastedpotatoes', 'src': '/static/foodstim60/roastedpotatoes.jpg', 'key': 'i', 'origWidth': 409, 'origHeight': 410, 'width': 409, 'height': 410, 'widthPercent': 0.45, 'rescaleHeight': False, 'trialN': 9, 'loaded': True, 'loadedTime': 3254.9000000059605, 'positionName': 'RIGHT', 'positionCoords': [798.72, 227], 'bid': 6.18}]",17332.5,1669831340585,cherries,roastedpotatoes,6.3,6.18,-0.1200000000000001,cherries,662.5999999940395,664,663.2000000029802,True,u,18498.29999999702,1165.7999999970198,1669831341751,1166,HRV,HRV_0141,2022-11-30 18:06:14
10,"[{'imgObject': {}, 'id': 'mashed potato', 'src': '/static/foodstim60/mashed potato.jpg', 'key': 'u', 'origWidth': 409, 'origHeight': 409, 'width': 409, 'height': 409, 'widthPercent': 0.45, 'rescaleHeight': False, 'trialN': 10, 'loaded': True, 'loadedTime': 3265.4000000059605, 'positionName': 'LEFT', 'positionCoords': [328.28, 227.5], 'bid': 0.92}, {'imgObject': {}, 'id': 'pear', 'src': '/static/foodstim60/pear.jpg', 'key': 'i', 'origWidth': 411, 'origHeight': 410, 'width': 411, 'height': 410, 'widthPercent': 0.45, 'rescaleHeight': False, 'trialN': 10, 'loaded': True, 'loadedTime': 3201.5, 'positionName': 'RIGHT', 'positionCoords': [798.72, 227], 'bid': 6.94}]",18498.79999999702,1669831341752,mashed potato,pear,0.92,6.94,6.0200000000000005,pear,949.2999999970198,950,950.1000000089407,True,i,19958.09999999404,1459.2999999970198,1669831343211,1459,HRV,HRV_0141,2022-11-30 18:06:14
11,"[{'imgObject': {}, 'id': 'hotdog w must', 'src': '/static/foodstim60/hotdog w must.jpg', 'key': 'u', 'origWidth': 409, 'origHeight': 409, 'width': 409, 'height': 409, 'widthPercent': 0.45, 'rescaleHeight': False, 'trialN': 11, 'loaded': True, 'loadedTime': 3274.4000000059605, 'positionName': 'LEFT', 'positionCoords': [328.28, 227.5], 'bid': 2.04}, {'imgObject': {}, 'id': 'blueberries', 'src': '/static/foodstim60/blueberries.jpg', 'key': 'i', 'origWidth': 411, 'origHeight': 411, 'width': 411, 'height': 411, 'widthPercent': 0.45, 'rescaleHeight': False, 'trialN': 11, 'loaded': True, 'loadedTime': 3283.2999999970198, 'positionName': 'RIGHT', 'positionCoords': [798.72, 226.5], 'bid': 5.53}]",19958.29999999702,1669831343211,hotdog w must,blueberries,2.04,5.53,3.49,blueberries,663.1000000089407,664,663.6000000089407,True,i,21128.29999999702,1170.0,1669831344381,1170,HRV,HRV_0141,2022-11-30 18:06:14
12,"[{'imgObject': {}, 'id': 'salmon', 'src': '/static/foodstim60/salmon.jpg', 'key': 'u', 'origWidth': 410, 'origHeight': 409, 'width': 410, 'height': 409, 'widthPercent': 0.45, 'rescaleHeight': False, 'trialN': 12, 'loaded': True, 'loadedTime': 3095, 'positionName': 'LEFT', 'positionCoords': [327.28, 227.5], 'bid': 9.83}, {'imgObject': {}, 'id': 'cocktailshrimp', 'src': '/static/foodstim60/cocktailshrimp.jpg', 'key': 'i', 'origWidth': 410, 'origHeight': 410, 'width': 410, 'height': 410, 'widthPercent': 0.45, 'rescaleHeight': False, 'trialN': 12, 'loaded': True, 'loadedTime': 3189.5, 'positionName': 'RIGHT', 'positionCoords': [798.72, 227], 'bid': 6.92}]",21128.5,1669831344381,salmon,cocktailshrimp,9.83,6.92,-2.91,salmon,720.5,721,721.0999999940395,True,u,22370.29999999702,1241.7999999970198,1669831345623,1242,HRV,HRV_0141,2022-11-30 18:06:14
13,"[{'imgObject': {}, 'id': 'sushi w_condiments', 'src': '/static/foodstim60/sushi w_condiments.jpg', 'key': 'u', 'origWidth': 410, 'origHeight': 410, 'width': 410, 'height': 410, 'widthPercent': 0.45, 'rescaleHeight': False, 'trialN': 13, 'loaded': True, 'loadedTime': 3181.0999999940395, 'positionName': 'LEFT', 'positionCoords': [327.28, 227], 'bid': 7.26}, {'imgObject': {}, 'id': 'fried eggs', 'src': '/static/foodstim60/fried eggs.jpg', 'key': 'i', 'origWidth': 410, 'origHeight': 410, 'width': 410, 'height': 410, 'widthPercent': 0.45, 'rescaleHeight': False, 'trialN': 13, 'loaded': True, 'loadedTime': 3309.5999999940395, 'positionName': 'RIGHT', 'positionCoords': [798.72, 227], 'bid': 7.18}]",22370.5,1669831345623,sushi w_condiments,fried eggs,7.26,7.18,-0.08000000000000007,fried eggs,639.5,640,640.0,True,i,23519.29999999702,1148.7999999970198,1669831346772,1149,HRV,HRV_0141,2022-11-30 18:06:14
14,"[{'imgObject': {}, 'id': 'baked potato', 'src': '/static/foodstim60/baked potato.jpg', 'key': 'u', 'origWidth': 409, 'origHeight': 410, 'width': 409, 'height': 410, 'widthPercent': 0.45, 'rescaleHeight': False, 'trialN': 14, 'loaded': True, 'loadedTime': 3334.2000000029802, 'positionName': 'LEFT', 'positionCoords': [328.28, 227], 'bid': 1.71}, {'imgObject': {}, 'id': 'shreddedwheatwithmilk', 'src': '/static/foodstim60/shreddedwheatwithmilk.jpg', 'key': 'i', 'origWidth': 410, 'origHeight': 410, 'width': 410, 'height': 410, 'widthPercent': 0.45, 'rescaleHeight': False, 'trialN': 14, 'loaded': True, 'loadedTime': 3165.5, 'positionName': 'RIGHT', 'positionCoords': [798.72, 227], 'bid': 0.18}]",23519.59999999404,1669831346772,baked potato,shreddedwheatwithmilk,1.71,0.18,-1.53,baked potato,888.3000000119209,889,888.7000000029802,True,u,24920.29999999702,1400.7000000029802,1669831348173,1401,HRV,HRV_0141,2022-11-30 18:06:14
15,"[{'imgObject': {}, 'id': 'eggs', 'src': '/static/foodstim60/eggs.jpg', 'key': 'u', 'origWidth': 409, 'origHeight': 409, 'width': 409, 'height': 409, 'widthPercent': 0.45, 'rescaleHeight': False, 'trialN': 15, 'loaded': True, 'loadedTime': 3339.4000000059605, 'positionName': 'LEFT', 'positionCoords': [328.28, 227.5], 'bid': 5.79}, {'imgObject': {}, 'id': 'veggieswithdip', 'src': '/static/foodstim60/veggieswithdip.jpg', 'key': 'i', 'origWidth': 409, 'origHeight': 409, 'width': 409, 'height': 409, 'widthPercent': 0.45, 'rescaleHeight': False, 'trialN': 15, 'loaded': True, 'loadedTime': 3365.5999999940395, 'positionName': 'RIGHT', 'positionCoords': [798.72, 227.5], 'bid': 3.98}]",24920.59999999404,1669831348173,eggs,veggieswithdip,5.79,3.98,-1.81,eggs,875.6000000089407,877,876.2000000029802,True,u,26298.79999999702,1378.2000000029802,1669831349552,1379,HRV,HRV_0141,2022-11-30 18:06:14
16,"[{'imgObject': {}, 'id': 'eggs', 'src': '/static/foodstim60/eggs.jpg', 'key': 'u', 'origWidth': 409, 'origHeight': 409, 'width': 409, 'height': 409, 'widthPercent': 0.45, 'rescaleHeight': False, 'trialN': 16, 'loaded': True, 'loadedTime': 3338.7000000029802, 'positionName': 'LEFT', 'positionCoords': [328.28, 227.5], 'bid': 5.79}, {'imgObject': {}, 'id': 'shreddedwheatwithmilk', 'src': '/static/foodstim60/shreddedwheatwithmilk.jpg', 'key': 'i', 'origWidth': 410, 'origHeight': 410, 'width': 410, 'height': 410, 'widthPercent': 0.45, 'rescaleHeight': False, 'trialN': 16, 'loaded': True, 'loadedTime': 3172.7000000029802, 'positionName': 'RIGHT', 'positionCoords': [798.72, 227], 'bid': 0.18}]",26299.0,1669831349552,eggs,shreddedwheatwithmilk,5.79,0.18,-5.61,eggs,759.2999999970198,760,760.0999999940395,True,u,27567.90000000596,1268.9000000059605,1669831350821,1269,HRV,HRV_0141,2022-11-30 18:06:14
17,"[{'imgObject': {}, 'id': 'kiwi', 'src': '/static/foodstim60/kiwi.jpg', 'key': 'u', 'origWidth': 410, 'origHeight': 410, 'width': 410, 'height': 410, 'widthPercent': 0.45, 'rescaleHeight': False, 'trialN': 17, 'loaded': True, 'loadedTime': 3367.0999999940395, 'positionName': 'LEFT', 'positionCoords': [327.28, 227], 'bid': 7}, {'imgObject': {}, 'id': 'burger', 'src': '/static/foodstim60/burger.jpg', 'key': 'i', 'origWidth': 409, 'origHeight': 409, 'width': 409, 'height': 409, 'widthPercent': 0.45, 'rescaleHeight': False, 'trialN': 17, 'loaded': True, 'loadedTime': 3256.5999999940395, 'positionName': 'RIGHT', 'positionCoords': [798.72, 227.5], 'bid': 6.5600000000000005}]",27568.09999999404,1669831350821,kiwi,burger,7.0,6.5600000000000005,-0.4399999999999995,burger,607.4000000059605,608,607.8000000119209,True,i,28685.40000000596,1117.300000011921,1669831351938,1117,HRV,HRV_0141,2022-11-30 18:06:14
18,"[{'imgObject': {}, 'id': 'roastedpotatoes', 'src': '/static/foodstim60/roastedpotatoes.jpg', 'key': 'u', 'origWidth': 409, 'origHeight': 410, 'width': 409, 'height': 410, 'widthPercent': 0.45, 'rescaleHeight': False, 'trialN': 18, 'loaded': True, 'loadedTime': 3255.2999999970198, 'positionName': 'LEFT', 'positionCoords': [328.28, 227], 'bid': 6.18}, {'imgObject': {}, 'id': 'bagel plain', 'src': '/static/foodstim60/bagel plain.jpg', 'key': 'i', 'origWidth': 410, 'origHeight': 410, 'width': 410, 'height': 410, 'widthPercent': 0.45, 'rescaleHeight': False, 'trialN': 18, 'loaded': True, 'loadedTime': 3368.2000000029802, 'positionName': 'RIGHT', 'positionCoords': [798.72, 227], 'bid': 0.26}]",28685.70000000298,1669831351939,roastedpotatoes,bagel plain,6.18,0.26,-5.92,roastedpotatoes,672.2999999970198,672,672.8999999910593,True,u,29871.20000000298,1185.5,1669831353124,1185,HRV,HRV_0141,2022-11-30 18:06:14
19,"[{'imgObject': {}, 'id': 'granola w milk', 'src': '/static/foodstim60/granola w milk.jpg', 'key': 'u', 'origWidth': 410, 'origHeight': 410, 'width': 410, 'height': 410, 'widthPercent': 0.45, 'rescaleHeight': False, 'trialN': 19, 'loaded': True, 'loadedTime': 3380.2000000029802, 'positionName': 'LEFT', 'positionCoords': [327.28, 227], 'bid': 0.02}, {'imgObject': {}, 'id': 'froot loops w milk', 'src': '/static/foodstim60/froot loops w milk.jpg', 'key': 'i', 'origWidth': 410, 'origHeight': 410, 'width': 410, 'height': 410, 'widthPercent': 0.45, 'rescaleHeight': False, 'trialN': 19, 'loaded': True, 'loadedTime': 3389.2999999970198, 'positionName': 'RIGHT', 'positionCoords': [798.72, 227], 'bid': 0.29}]",29871.40000000596,1669831353124,granola w milk,froot loops w milk,0.02,0.29,0.26999999999999996,froot loops w milk,1891.5,1892,1892.0999999940395,True,i,32272.59999999404,2401.199999988079,1669831355525,2401,HRV,HRV_0141,2022-11-30 18:06:14
20,"[{'imgObject': {}, 'id': 'cheerios', 'src': '/static/foodstim60/cheerios.jpg', 'key': 'u', 'origWidth': 409, 'origHeight': 410, 'width': 409, 'height': 410, 'widthPercent': 0.45, 'rescaleHeight': False, 'trialN': 20, 'loaded': True, 'loadedTime': 3399.9000000059605, 'positionName': 'LEFT', 'positionCoords': [328.28, 227], 'bid': 0.2}, {'imgObject': {}, 'id': 'mac & cheese', 'src': '/static/foodstim60/mac & cheese.jpg', 'key': 'i', 'origWidth': 410, 'origHeight': 410, 'width': 410, 'height': 410, 'widthPercent': 0.45, 'rescaleHeight': False, 'trialN': 20, 'loaded': True, 'loadedTime': 3411.2000000029802, 'positionName': 'RIGHT', 'positionCoords': [798.72, 227], 'bid': 1.14}]",32272.79999999702,1669831355526,cheerios,mac & cheese,0.2,1.14,0.94,mac & cheese,1145.0,1145,1145.5,True,i,33923.79999999702,1651.0,1669831357177,1651,HRV,HRV_0141,2022-11-30 18:06:14
21,"[{'imgObject': {}, 'id': 'Tribe humus pita', 'src': '/static/foodstim60/Tribe humus pita.jpg', 'key': 'u', 'origWidth': 411, 'origHeight': 411, 'width': 411, 'height': 411, 'widthPercent': 0.45, 'rescaleHeight': False, 'trialN': 21, 'loaded': True, 'loadedTime': 3412.5, 'positionName': 'LEFT', 'positionCoords': [326.28, 226.5], 'bid': 1.26}, {'imgObject': {}, 'id': 'omelette', 'src': '/static/foodstim60/omelette.jpg', 'key': 'i', 'origWidth': 410, 'origHeight': 409, 'width': 410, 'height': 409, 'widthPercent': 0.45, 'rescaleHeight': False, 'trialN': 21, 'loaded': True, 'loadedTime': 3420.5999999940395, 'positionName': 'RIGHT', 'positionCoords': [798.72, 227.5], 'bid': 1.51}]",33924.0,1669831357177,Tribe humus pita,omelette,1.26,1.51,0.25,omelette,939.7999999970198,940,940.2000000029802,True,i,35378.29999999702,1454.2999999970198,1669831358631,1454,HRV,HRV_0141,2022-11-30 18:06:14
22,"[{'imgObject': {}, 'id': 'cherry tomato', 'src': '/static/foodstim60/cherry tomato.jpg', 'key': 'u', 'origWidth': 410, 'origHeight': 410, 'width': 410, 'height': 410, 'widthPercent': 0.45, 'rescaleHeight': False, 'trialN': 22, 'loaded': True, 'loadedTime': 3433.7999999970198, 'positionName': 'LEFT', 'positionCoords': [327.28, 227], 'bid': 5.5200000000000005}, {'imgObject': {}, 'id': 'ice cream sundae 002', 'src': '/static/foodstim60/ice cream sundae 002.jpg', 'key': 'i', 'origWidth': 409, 'origHeight': 409, 'width': 409, 'height': 409, 'widthPercent': 0.45, 'rescaleHeight': False, 'trialN': 22, 'loaded': True, 'loadedTime': 3445.9000000059605, 'positionName': 'RIGHT', 'positionCoords': [798.72, 227.5], 'bid': 2.91}]",35378.40000000596,1669831358631,cherry tomato,ice cream sundae 002,5.5200000000000005,2.91,-2.6100000000000003,cherry tomato,963.5999999940395,964,964.1999999880791,True,u,36859.0,1480.5999999940395,1669831360112,1481,HRV,HRV_0141,2022-11-30 18:06:14
23,"[{'imgObject': {}, 'id': 'eggsalad', 'src': '/static/foodstim60/eggsalad.jpg', 'key': 'u', 'origWidth': 410, 'origHeight': 409, 'width': 410, 'height': 409, 'widthPercent': 0.45, 'rescaleHeight': False, 'trialN': 23, 'loaded': True, 'loadedTime': 3447.9000000059605, 'positionName': 'LEFT', 'positionCoords': [327.28, 227.5], 'bid': 1.47}, {'imgObject': {}, 'id': 'omelette', 'src': '/static/foodstim60/omelette.jpg', 'key': 'i', 'origWidth': 410, 'origHeight': 409, 'width': 410, 'height': 409, 'widthPercent': 0.45, 'rescaleHeight': False, 'trialN': 23, 'loaded': True, 'loadedTime': 3421.5999999940395, 'positionName': 'RIGHT', 'positionCoords': [798.72, 227.5], 'bid': 1.51}]",36859.20000000298,1669831360112,eggsalad,omelette,1.47,1.51,0.040000000000000036,omelette,861.2999999970198,861,861.5,True,i,38231.79999999702,1372.5999999940395,1669831361485,1373,HRV,HRV_0141,2022-11-30 18:06:14
24,"[{'imgObject': {}, 'id': 'mac & cheese', 'src': '/static/foodstim60/mac & cheese.jpg', 'key': 'u', 'origWidth': 410, 'origHeight': 410, 'width': 410, 'height': 410, 'widthPercent': 0.45, 'rescaleHeight': False, 'trialN': 24, 'loaded': True, 'loadedTime': 3411.2999999970198, 'positionName': 'LEFT', 'positionCoords': [327.28, 227], 'bid': 1.14}, {'imgObject': {}, 'id': 'Tribe humus pita', 'src': '/static/foodstim60/Tribe humus pita.jpg', 'key': 'i', 'origWidth': 411, 'origHeight': 411, 'width': 411, 'height': 411, 'widthPercent': 0.45, 'rescaleHeight': False, 'trialN': 24, 'loaded': True, 'loadedTime': 3411.4000000059605, 'positionName': 'RIGHT', 'positionCoords': [798.72, 226.5], 'bid': 1.26}]",38232.0,1669831361485,mac & cheese,Tribe humus pita,1.14,1.26,0.1200000000000001,Tribe humus pita,1447.5,1448,1447.7999999970198,True,i,40190.5,1958.5,1669831363443,1958,HRV,HRV_0141,2022-11-30 18:06:14
25,"[{'imgObject': {}, 'id': 'ice cream sundae 002', 'src': '/static/foodstim60/ice cream sundae 002.jpg', 'key': 'u', 'origWidth': 409, 'origHeight': 409, 'width': 409, 'height': 409, 'widthPercent': 0.45, 'rescaleHeight': False, 'trialN': 25, 'loaded': True, 'loadedTime': 3446.4000000059605, 'positionName': 'LEFT', 'positionCoords': [328.28, 227.5], 'bid': 2.91}, {'imgObject': {}, 'id': 'luckycharms', 'src': '/static/foodstim60/luckycharms.jpg', 'key': 'i', 'origWidth': 410, 'origHeight': 409, 'width': 410, 'height': 409, 'widthPercent': 0.45, 'rescaleHeight': False, 'trialN': 25, 'loaded': True, 'loadedTime': 3459.2000000029802, 'positionName': 'RIGHT', 'positionCoords': [798.72, 227.5], 'bid': 0.36}]",40190.70000000298,1669831363444,ice cream sundae 002,luckycharms,2.91,0.36,-2.5500000000000003,ice cream sundae 002,810.5,810,810.7999999970198,True,u,41512.29999999702,1321.5999999940395,1669831364765,1321,HRV,HRV_0141,2022-11-30 18:06:14
26,"[{'imgObject': {}, 'id': 'cheerios', 'src': '/static/foodstim60/cheerios.jpg', 'key': 'u', 'origWidth': 409, 'origHeight': 410, 'width': 409, 'height': 410, 'widthPercent': 0.45, 'rescaleHeight': False, 'trialN': 26, 'loaded': True, 'loadedTime': 3400.0999999940395, 'positionName': 'LEFT', 'positionCoords': [328.28, 227], 'bid': 0.2}, {'imgObject': {}, 'id': 'granola w milk', 'src': '/static/foodstim60/granola w milk.jpg', 'key': 'i', 'origWidth': 410, 'origHeight': 410, 'width': 410, 'height': 410, 'widthPercent': 0.45, 'rescaleHeight': False, 'trialN': 26, 'loaded': True, 'loadedTime': 3388, 'positionName': 'RIGHT', 'positionCoords': [798.72, 227], 'bid': 0.02}]",41512.59999999404,1669831364765,cheerios,granola w milk,0.2,0.02,-0.18000000000000002,cheerios,1397.300000011921,1398,1397.6000000089407,True,u,43411.5,1898.9000000059605,1669831366664,1899,HRV,HRV_0141,2022-11-30 18:06:14
27,"[{'imgObject': {}, 'id': 'apple slices', 'src': '/static/foodstim60/apple slices.jpg', 'key': 'u', 'origWidth': 409, 'origHeight': 410, 'width': 409, 'height': 410, 'widthPercent': 0.45, 'rescaleHeight': False, 'trialN': 27, 'loaded': True, 'loadedTime': 3162.5, 'positionName': 'LEFT', 'positionCoords': [328.28, 227], 'bid': 8.950000000000001}, {'imgObject': {}, 'id': 'kiwi', 'src': '/static/foodstim60/kiwi.jpg', 'key': 'i', 'origWidth': 410, 'origHeight': 410, 'width': 410, 'height': 410, 'widthPercent': 0.45, 'rescaleHeight': False, 'trialN': 27, 'loaded': True, 'loadedTime': 3367, 'positionName': 'RIGHT', 'positionCoords': [798.72, 227], 'bid': 7}]",43411.70000000298,1669831366664,apple slices,kiwi,8.950000000000001,7.0,-1.950000000000001,kiwi,596.5999999940395,598,597.0,True,i,44518.59999999404,1106.8999999910593,1669831367771,1107,HRV,HRV_0141,2022-11-30 18:06:14
28,"[{'imgObject': {}, 'id': 'orange slices', 'src': '/static/foodstim60/orange slices.jpg', 'key': 'u', 'origWidth': 409, 'origHeight': 410, 'width': 409, 'height': 410, 'widthPercent': 0.45, 'rescaleHeight': False, 'trialN': 28, 'loaded': True, 'loadedTime': 3081.2000000029802, 'positionName': 'LEFT', 'positionCoords': [328.28, 227], 'bid': 7.18}, {'imgObject': {}, 'id': 'corn cob', 'src': '/static/foodstim60/corn cob.jpg', 'key': 'i', 'origWidth': 411, 'origHeight': 411, 'width': 411, 'height': 411, 'widthPercent': 0.45, 'rescaleHeight': False, 'trialN': 28, 'loaded': True, 'loadedTime': 3468.7999999970198, 'positionName': 'RIGHT', 'positionCoords': [798.72, 226.5], 'bid': 5.69}]",44518.79999999702,1669831367772,orange slices,corn cob,7.18,5.69,-1.4899999999999993,orange slices,871.5,872,872.0,True,u,45905.40000000596,1386.6000000089407,1669831369158,1386,HRV,HRV_0141,2022-11-30 18:06:14
29,"[{'imgObject': {}, 'id': 'edamame', 'src': '/static/foodstim60/edamame.jpg', 'key': 'u', 'origWidth': 409, 'origHeight': 410, 'width': 409, 'height': 410, 'widthPercent': 0.45, 'rescaleHeight': False, 'trialN': 29, 'loaded': True, 'loadedTime': 3498.7000000029802, 'positionName': 'LEFT', 'positionCoords': [328.28, 227], 'bid': 2.04}, {'imgObject': {}, 'id': 'mango', 'src': '/static/foodstim60/mango.jpg', 'key': 'i', 'origWidth': 411, 'origHeight': 411, 'width': 411, 'height': 411, 'widthPercent': 0.45, 'rescaleHeight': False, 'trialN': 29, 'loaded': True, 'loadedTime': 3501.2000000029802, 'positionName': 'RIGHT', 'positionCoords': [798.72, 226.5], 'bid': 8.42}]",45905.5,1669831369158,edamame,mango,2.04,8.42,6.38,mango,616.7999999970198,617,617.0999999940395,True,i,47033.79999999702,1128.2999999970198,1669831370287,1129,HRV,HRV_0141,2022-11-30 18:06:14
30,"[{'imgObject': {}, 'id': 'blueberries', 'src': '/static/foodstim60/blueberries.jpg', 'key': 'u', 'origWidth': 411, 'origHeight': 411, 'width': 411, 'height': 411, 'widthPercent': 0.45, 'rescaleHeight': False, 'trialN': 30, 'loaded': True, 'loadedTime': 3284.7000000029802, 'positionName': 'LEFT', 'positionCoords': [326.28, 226.5], 'bid': 5.53}, {'imgObject': {}, 'id': 'bagel and cc', 'src': '/static/foodstim60/bagel and cc.jpg', 'key': 'i', 'origWidth': 410, 'origHeight': 410, 'width': 410, 'height': 410, 'widthPercent': 0.45, 'rescaleHeight': False, 'trialN': 30, 'loaded': True, 'loadedTime': 3525.5999999940395, 'positionName': 'RIGHT', 'positionCoords': [798.72, 227], 'bid': 0.13}]",47034.0,1669831370287,blueberries,bagel and cc,5.53,0.13,-5.4,blueberries,820.9000000059605,821,821.2000000029802,True,u,48371.40000000596,1337.4000000059605,1669831371624,1337,HRV,HRV_0141,2022-11-30 18:06:14
31,"[{'imgObject': {}, 'id': 'olives', 'src': '/static/foodstim60/olives.jpg', 'key': 'u', 'origWidth': 410, 'origHeight': 410, 'width': 410, 'height': 410, 'widthPercent': 0.45, 'rescaleHeight': False, 'trialN': 31, 'loaded': True, 'loadedTime': 3527.9000000059605, 'positionName': 'LEFT', 'positionCoords': [327.28, 227], 'bid': 0.05}, {'imgObject': {}, 'id': 'bagel and cc', 'src': '/static/foodstim60/bagel and cc.jpg', 'key': 'i', 'origWidth': 410, 'origHeight': 410, 'width': 410, 'height': 410, 'widthPercent': 0.45, 'rescaleHeight': False, 'trialN': 31, 'loaded': True, 'loadedTime': 3506.4000000059605, 'positionName': 'RIGHT', 'positionCoords': [798.72, 227], 'bid': 0.13}]",48371.70000000298,1669831371624,olives,bagel and cc,0.05,0.13,0.08,bagel and cc,1272.0,1273,1272.3999999910593,True,i,50149.5,1777.7999999970198,1669831373402,1778,HRV,HRV_0141,2022-11-30 18:06:14
32,"[{'imgObject': {}, 'id': 'burrito', 'src': '/static/foodstim60/burrito.jpg', 'key': 'u', 'origWidth': 410, 'origHeight': 410, 'width': 410, 'height': 410, 'widthPercent': 0.45, 'rescaleHeight': False, 'trialN': 32, 'loaded': True, 'loadedTime': 3536.2999999970198, 'positionName': 'LEFT', 'positionCoords': [327.28, 227], 'bid': 3.39}, {'imgObject': {}, 'id': 'turkeysandwich', 'src': '/static/foodstim60/turkeysandwich.jpg', 'key': 'i', 'origWidth': 409, 'origHeight': 409, 'width': 409, 'height': 409, 'widthPercent': 0.45, 'rescaleHeight': False, 'trialN': 32, 'loaded': True, 'loadedTime': 3540.7000000029802, 'positionName': 'RIGHT', 'positionCoords': [798.72, 227.5], 'bid': 4.19}]",50149.79999999702,1669831373403,burrito,turkeysandwich,3.39,4.19,0.8000000000000003,turkeysandwich,791.5,791,791.7999999970198,True,i,51454.90000000596,1305.1000000089407,1669831374708,1305,HRV,HRV_0141,2022-11-30 18:06:14
33,"[{'imgObject': {}, 'id': 'shreddedwheatwithmilk', 'src': '/static/foodstim60/shreddedwheatwithmilk.jpg', 'key': 'u', 'origWidth': 410, 'origHeight': 410, 'width': 410, 'height': 410, 'widthPercent': 0.45, 'rescaleHeight': False, 'trialN': 33, 'loaded': True, 'loadedTime': 3164.2999999970198, 'positionName': 'LEFT', 'positionCoords': [327.28, 227], 'bid': 0.18}, {'imgObject': {}, 'id': 'mashed potato', 'src': '/static/foodstim60/mashed potato.jpg', 'key': 'i', 'origWidth': 409, 'origHeight': 409, 'width': 409, 'height': 409, 'widthPercent': 0.45, 'rescaleHeight': False, 'trialN': 33, 'loaded': True, 'loadedTime': 3273.2999999970198, 'positionName': 'RIGHT', 'positionCoords': [798.72, 227.5], 'bid': 0.92}]",51455.20000000298,1669831374708,shreddedwheatwithmilk,mashed potato,0.18,0.92,0.74,shreddedwheatwithmilk,949.2000000029802,950,950.0,True,u,52906.5,1451.2999999970198,1669831376159,1451,HRV,HRV_0141,2022-11-30 18:06:14
34,"[{'imgObject': {}, 'id': 'bagel plain', 'src': '/static/foodstim60/bagel plain.jpg', 'key': 'u', 'origWidth': 410, 'origHeight': 410, 'width': 410, 'height': 410, 'widthPercent': 0.45, 'rescaleHeight': False, 'trialN': 34, 'loaded': True, 'loadedTime': 3378.5999999940395, 'positionName': 'LEFT', 'positionCoords': [327.28, 227], 'bid': 0.26}, {'imgObject': {}, 'id': 'eggsalad', 'src': '/static/foodstim60/eggsalad.jpg', 'key': 'i', 'origWidth': 410, 'origHeight': 409, 'width': 410, 'height': 409, 'widthPercent': 0.45, 'rescaleHeight': False, 'trialN': 34, 'loaded': True, 'loadedTime': 3456.7999999970198, 'positionName': 'RIGHT', 'positionCoords': [798.72, 227.5], 'bid': 1.47}]",52906.70000000298,1669831376159,bagel plain,eggsalad,0.26,1.47,1.21,eggsalad,715.0,716,715.2999999970198,True,i,54125.0,1218.2999999970198,1669831377378,1219,HRV,HRV_0141,2022-11-30 18:06:14
35,"[{'imgObject': {}, 'id': 'cherry tomato', 'src': '/static/foodstim60/cherry tomato.jpg', 'key': 'u', 'origWidth': 410, 'origHeight': 410, 'width': 410, 'height': 410, 'widthPercent': 0.45, 'rescaleHeight': False, 'trialN': 35, 'loaded': True, 'loadedTime': 3434.4000000059605, 'positionName': 'LEFT', 'positionCoords': [327.28, 227], 'bid': 5.5200000000000005}, {'imgObject': {}, 'id': 'seaweed', 'src': '/static/foodstim60/seaweed.jpg', 'key': 'i', 'origWidth': 410, 'origHeight': 410, 'width': 410, 'height': 410, 'widthPercent': 0.45, 'rescaleHeight': False, 'trialN': 35, 'loaded': True, 'loadedTime': 3544.7999999970198, 'positionName': 'RIGHT', 'positionCoords': [798.72, 227], 'bid': 7.16}]",54125.29999999702,1669831377378,cherry tomato,seaweed,5.5200000000000005,7.16,1.6399999999999997,seaweed,539.7999999970198,540,540.2000000029802,True,i,55171.0,1045.7000000029802,1669831378424,1046,HRV,HRV_0141,2022-11-30 18:06:14
36,"[{'imgObject': {}, 'id': 'grilled chicken strips', 'src': '/static/foodstim60/grilled chicken strips.jpg', 'key': 'u', 'origWidth': 410, 'origHeight': 411, 'width': 410, 'height': 411, 'widthPercent': 0.45, 'rescaleHeight': False, 'trialN': 36, 'loaded': True, 'loadedTime': 3203, 'positionName': 'LEFT', 'positionCoords': [327.28, 226.5], 'bid': 7.5}, {'imgObject': {}, 'id': 'banana', 'src': '/static/foodstim60/banana.jpg', 'key': 'i', 'origWidth': 410, 'origHeight': 410, 'width': 410, 'height': 410, 'widthPercent': 0.45, 'rescaleHeight': False, 'trialN': 36, 'loaded': True, 'loadedTime': 3102.5, 'positionName': 'RIGHT', 'positionCoords': [798.72, 227], 'bid': 2.03}]",55171.29999999702,1669831378424,grilled chicken strips,banana,7.5,2.03,-5.470000000000001,grilled chicken strips,575.7000000029802,576,576.1000000089407,True,u,56257.0,1085.7000000029802,1669831379510,1086,HRV,HRV_0141,2022-11-30 18:06:14
37,"[{'imgObject': {}, 'id': 'turkey sandwich', 'src': '/static/foodstim60/turkey sandwich.jpg', 'key': 'u', 'origWidth': 409, 'origHeight': 409, 'width': 409, 'height': 409, 'widthPercent': 0.45, 'rescaleHeight': False, 'trialN': 37, 'loaded': True, 'loadedTime': 3220.2999999970198, 'positionName': 'LEFT', 'positionCoords': [328.28, 227.5], 'bid': 5.05}, {'imgObject': {}, 'id': 'blackbeanswithrice', 'src': '/static/foodstim60/blackbeanswithrice.jpg', 'key': 'i', 'origWidth': 410, 'origHeight': 410, 'width': 410, 'height': 410, 'widthPercent': 0.45, 'rescaleHeight': False, 'trialN': 37, 'loaded': True, 'loadedTime': 3547.2999999970198, 'positionName': 'RIGHT', 'positionCoords': [798.72, 227], 'bid': 0.02}]",56257.09999999404,1669831379510,turkey sandwich,blackbeanswithrice,5.05,0.02,-5.03,turkey sandwich,591.1000000089407,591,591.4000000059605,True,u,57366.59999999404,1109.5,1669831380619,1109,HRV,HRV_0141,2022-11-30 18:06:14
38,"[{'imgObject': {}, 'id': 'Grapes', 'src': '/static/foodstim60/Grapes.jpg', 'key': 'u', 'origWidth': 411, 'origHeight': 411, 'width': 411, 'height': 411, 'widthPercent': 0.45, 'rescaleHeight': False, 'trialN': 38, 'loaded': True, 'loadedTime': 3565.4000000059605, 'positionName': 'LEFT', 'positionCoords': [326.28, 226.5], 'bid': 5.96}, {'imgObject': {}, 'id': 'strawberries', 'src': '/static/foodstim60/strawberries.jpg', 'key': 'i', 'origWidth': 410, 'origHeight': 410, 'width': 410, 'height': 410, 'widthPercent': 0.45, 'rescaleHeight': False, 'trialN': 38, 'loaded': True, 'loadedTime': 3587.9000000059605, 'positionName': 'RIGHT', 'positionCoords': [798.72, 227], 'bid': 6.88}]",57366.79999999702,1669831380620,Grapes,strawberries,5.96,6.88,0.9199999999999999,Grapes,1075.0,1075,1075.5,True,u,58963.09999999404,1596.2999999970198,1669831382216,1596,HRV,HRV_0141,2022-11-30 18:06:14
39,"[{'imgObject': {}, 'id': 'chickenfingers', 'src': '/static/foodstim60/chickenfingers.jpg', 'key': 'u', 'origWidth': 410, 'origHeight': 410, 'width': 410, 'height': 410, 'widthPercent': 0.45, 'rescaleHeight': False, 'trialN': 39, 'loaded': True, 'loadedTime': 3589.7000000029802, 'positionName': 'LEFT', 'positionCoords': [327.28, 227], 'bid': 9.19}, {'imgObject': {}, 'id': 'burrito', 'src': '/static/foodstim60/burrito.jpg', 'key': 'i', 'origWidth': 410, 'origHeight': 410, 'width': 410, 'height': 410, 'widthPercent': 0.45, 'rescaleHeight': False, 'trialN': 39, 'loaded': True, 'loadedTime': 3535.7999999970198, 'positionName': 'RIGHT', 'positionCoords': [798.72, 227], 'bid': 3.39}]",58963.20000000298,1669831382216,chickenfingers,burrito,9.19,3.39,-5.799999999999999,chickenfingers,1672.5999999940395,1673,1673.0999999940395,True,u,61147.0,2183.7999999970198,1669831384400,2184,HRV,HRV_0141,2022-11-30 18:06:14
40,"[{'imgObject': {}, 'id': 'hotdog w must', 'src': '/static/foodstim60/hotdog w must.jpg', 'key': 'u', 'origWidth': 409, 'origHeight': 409, 'width': 409, 'height': 409, 'widthPercent': 0.45, 'rescaleHeight': False, 'trialN': 40, 'loaded': True, 'loadedTime': 3274.7000000029802, 'positionName': 'LEFT', 'positionCoords': [328.28, 227.5], 'bid': 2.04}, {'imgObject': {}, 'id': 'Tribe humus pita', 'src': '/static/foodstim60/Tribe humus pita.jpg', 'key': 'i', 'origWidth': 411, 'origHeight': 411, 'width': 411, 'height': 411, 'widthPercent': 0.45, 'rescaleHeight': False, 'trialN': 40, 'loaded': True, 'loadedTime': 3412.2999999970198, 'positionName': 'RIGHT', 'positionCoords': [798.72, 226.5], 'bid': 1.26}]",61147.20000000298,1669831384400,hotdog w must,Tribe humus pita,2.04,1.26,-0.78,hotdog w must,1588.7000000029802,1589,1589.0,True,u,63250.0,2102.7999999970198,1669831386503,2103,HRV,HRV_0141,2022-11-30 18:06:14
41,"[{'imgObject': {}, 'id': 'rigatoni', 'src': '/static/foodstim60/rigatoni.jpg', 'key': 'u', 'origWidth': 411, 'origHeight': 411, 'width': 411, 'height': 411, 'widthPercent': 0.45, 'rescaleHeight': False, 'trialN': 41, 'loaded': True, 'loadedTime': 3233.9000000059605, 'positionName': 'LEFT', 'positionCoords': [326.28, 226.5], 'bid': 0.14}, {'imgObject': {}, 'id': 'cheerios', 'src': '/static/foodstim60/cheerios.jpg', 'key': 'i', 'origWidth': 409, 'origHeight': 410, 'width': 409, 'height': 410, 'widthPercent': 0.45, 'rescaleHeight': False, 'trialN': 41, 'loaded': True, 'loadedTime': 3399.5, 'positionName': 'RIGHT', 'positionCoords': [798.72, 227], 'bid': 0.2}]",63250.29999999702,1669831386503,rigatoni,cheerios,0.14,0.2,0.06,cheerios,1008.2999999970198,1009,1009.0,True,i,64769.79999999702,1519.5,1669831388023,1520,HRV,HRV_0141,2022-11-30 18:06:14
42,"[{'imgObject': {}, 'id': 'steak', 'src': '/static/foodstim60/steak.jpg', 'key': 'u', 'origWidth': 410, 'origHeight': 410, 'width': 410, 'height': 410, 'widthPercent': 0.45, 'rescaleHeight': False, 'trialN': 42, 'loaded': True, 'loadedTime': 3246.0999999940395, 'positionName': 'LEFT', 'positionCoords': [327.28, 227], 'bid': 8.38}, {'imgObject': {}, 'id': 'cantaloupe', 'src': '/static/foodstim60/cantaloupe.jpg', 'key': 'i', 'origWidth': 409, 'origHeight': 409, 'width': 409, 'height': 409, 'widthPercent': 0.45, 'rescaleHeight': False, 'trialN': 42, 'loaded': True, 'loadedTime': 3590.0999999940395, 'positionName': 'RIGHT', 'positionCoords': [798.72, 227.5], 'bid': 6.92}]",64770.0,1669831388023,steak,cantaloupe,8.38,6.92,-1.4600000000000009,steak,591.5999999940395,592,592.0999999940395,True,u,65881.09999999404,1111.0999999940395,1669831389134,1111,HRV,HRV_0141,2022-11-30 18:06:14
43,"[{'imgObject': {}, 'id': 'veggieswithdip', 'src': '/static/foodstim60/veggieswithdip.jpg', 'key': 'u', 'origWidth': 409, 'origHeight': 409, 'width': 409, 'height': 409, 'widthPercent': 0.45, 'rescaleHeight': False, 'trialN': 43, 'loaded': True, 'loadedTime': 3365.7000000029802, 'positionName': 'LEFT', 'positionCoords': [328.28, 227.5], 'bid': 3.98}, {'imgObject': {}, 'id': 'turkey sandwich', 'src': '/static/foodstim60/turkey sandwich.jpg', 'key': 'i', 'origWidth': 409, 'origHeight': 409, 'width': 409, 'height': 409, 'widthPercent': 0.45, 'rescaleHeight': False, 'trialN': 43, 'loaded': True, 'loadedTime': 3220.7999999970198, 'positionName': 'RIGHT', 'positionCoords': [798.72, 227.5], 'bid': 5.05}]",65881.29999999702,1669831389134,veggieswithdip,turkey sandwich,3.98,5.05,1.0699999999999998,turkey sandwich,691.5,692,691.7000000029802,True,i,67077.70000000298,1196.4000000059605,1669831390330,1196,HRV,HRV_0141,2022-11-30 18:06:14
44,"[{'imgObject': {}, 'id': 'eggsalad', 'src': '/static/foodstim60/eggsalad.jpg', 'key': 'u', 'origWidth': 410, 'origHeight': 409, 'width': 410, 'height': 409, 'widthPercent': 0.45, 'rescaleHeight': False, 'trialN': 44, 'loaded': True, 'loadedTime': 3446.9000000059605, 'positionName': 'LEFT', 'positionCoords': [327.28, 227.5], 'bid': 1.47}, {'imgObject': {}, 'id': 'yogurt no spoon', 'src': '/static/foodstim60/yogurt no spoon.jpg', 'key': 'i', 'origWidth': 411, 'origHeight': 410, 'width': 411, 'height': 410, 'widthPercent': 0.45, 'rescaleHeight': False, 'trialN': 44, 'loaded': True, 'loadedTime': 3592.5999999940395, 'positionName': 'RIGHT', 'positionCoords': [798.72, 227], 'bid': 0.53}]",67078.09999999404,1669831390331,eggsalad,yogurt no spoon,1.47,0.53,-0.94,eggsalad,1428.6000000089407,1429,1429.0,True,u,69012.09999999404,1934.0,1669831392265,1934,HRV,HRV_0141,2022-11-30 18:06:14
45,"[{'imgObject': {}, 'id': 'chicken nuggets2', 'src': '/static/foodstim60/chicken nuggets2.jpg', 'key': 'u', 'origWidth': 410, 'origHeight': 409, 'width': 410, 'height': 409, 'widthPercent': 0.45, 'rescaleHeight': False, 'trialN': 45, 'loaded': True, 'loadedTime': 3603.5999999940395, 'positionName': 'LEFT', 'positionCoords': [327.28, 227.5], 'bid': 7.890000000000001}, {'imgObject': {}, 'id': 'strawberries', 'src': '/static/foodstim60/strawberries.jpg', 'key': 'i', 'origWidth': 410, 'origHeight': 410, 'width': 410, 'height': 410, 'widthPercent': 0.45, 'rescaleHeight': False, 'trialN': 45, 'loaded': True, 'loadedTime': 3579.7000000029802, 'positionName': 'RIGHT', 'positionCoords': [798.72, 227], 'bid': 6.88}]",69012.29999999702,1669831392265,chicken nuggets2,strawberries,7.890000000000001,6.88,-1.0100000000000007,chicken nuggets2,646.6000000089407,647,646.9000000059605,True,u,70167.79999999702,1155.5,1669831393420,1155,HRV,HRV_0141,2022-11-30 18:06:14
46,"[{'imgObject': {}, 'id': 'mashed potato', 'src': '/static/foodstim60/mashed potato.jpg', 'key': 'u', 'origWidth': 409, 'origHeight': 409, 'width': 409, 'height': 409, 'widthPercent': 0.45, 'rescaleHeight': False, 'trialN': 46, 'loaded': True, 'loadedTime': 3273.0999999940395, 'positionName': 'LEFT', 'positionCoords': [328.28, 227.5], 'bid': 0.92}, {'imgObject': {}, 'id': 'avocado', 'src': '/static/foodstim60/avocado.jpg', 'key': 'i', 'origWidth': 409, 'origHeight': 409, 'width': 409, 'height': 409, 'widthPercent': 0.45, 'rescaleHeight': False, 'trialN': 46, 'loaded': True, 'loadedTime': 3605.4000000059605, 'positionName': 'RIGHT', 'positionCoords': [798.72, 227.5], 'bid': 0.78}]",70168.0,1669831393421,mashed potato,avocado,0.92,0.78,-0.14,avocado,878.7000000029802,879,878.9000000059605,True,i,71561.59999999404,1393.5999999940395,1669831394814,1393,HRV,HRV_0141,2022-11-30 18:06:14
47,"[{'imgObject': {}, 'id': 'cherries', 'src': '/static/foodstim60/cherries.jpg', 'key': 'u', 'origWidth': 410, 'origHeight': 411, 'width': 410, 'height': 411, 'widthPercent': 0.45, 'rescaleHeight': False, 'trialN': 47, 'loaded': True, 'loadedTime': 3263.5999999940395, 'positionName': 'LEFT', 'positionCoords': [327.28, 226.5], 'bid': 6.3}, {'imgObject': {}, 'id': 'hashbrowns', 'src': '/static/foodstim60/hashbrowns.jpg', 'key': 'i', 'origWidth': 411, 'origHeight': 410, 'width': 411, 'height': 410, 'widthPercent': 0.45, 'rescaleHeight': False, 'trialN': 47, 'loaded': True, 'loadedTime': 3606.5, 'positionName': 'RIGHT', 'positionCoords': [798.72, 227], 'bid': 0.28}]",71561.90000000596,1669831394815,cherries,hashbrowns,6.3,0.28,-6.02,cherries,642.5999999940395,643,643.1999999880791,True,u,72717.90000000596,1156.0,1669831395971,1156,HRV,HRV_0141,2022-11-30 18:06:14
48,"[{'imgObject': {}, 'id': 'edamame', 'src': '/static/foodstim60/edamame.jpg', 'key': 'u', 'origWidth': 409, 'origHeight': 410, 'width': 409, 'height': 410, 'widthPercent': 0.45, 'rescaleHeight': False, 'trialN': 48, 'loaded': True, 'loadedTime': 3471.5999999940395, 'positionName': 'LEFT', 'positionCoords': [328.28, 227], 'bid': 2.04}, {'imgObject': {}, 'id': 'corn cob', 'src': '/static/foodstim60/corn cob.jpg', 'key': 'i', 'origWidth': 411, 'origHeight': 411, 'width': 411, 'height': 411, 'widthPercent': 0.45, 'rescaleHeight': False, 'trialN': 48, 'loaded': True, 'loadedTime': 3465.2000000029802, 'positionName': 'RIGHT', 'positionCoords': [798.72, 226.5], 'bid': 5.69}]",72718.20000000298,1669831395971,edamame,corn cob,2.04,5.69,3.6500000000000004,corn cob,564.0999999940395,565,564.8999999910593,True,i,73787.0,1068.7999999970198,1669831397040,1069,HRV,HRV_0141,2022-11-30 18:06:14
49,"[{'imgObject': {}, 'id': 'kiwi', 'src': '/static/foodstim60/kiwi.jpg', 'key': 'u', 'origWidth': 410, 'origHeight': 410, 'width': 410, 'height': 410, 'widthPercent': 0.45, 'rescaleHeight': False, 'trialN': 49, 'loaded': True, 'loadedTime': 3367.0999999940395, 'positionName': 'LEFT', 'positionCoords': [327.28, 227], 'bid': 7}, {'imgObject': {}, 'id': 'turkey sandwich', 'src': '/static/foodstim60/turkey sandwich.jpg', 'key': 'i', 'origWidth': 409, 'origHeight': 409, 'width': 409, 'height': 409, 'widthPercent': 0.45, 'rescaleHeight': False, 'trialN': 49, 'loaded': True, 'loadedTime': 3220.7000000029802, 'positionName': 'RIGHT', 'positionCoords': [798.72, 227.5], 'bid': 5.05}]",73787.09999999404,1669831397040,kiwi,turkey sandwich,7.0,5.05,-1.9500000000000002,turkey sandwich,536.7000000029802,537,537.0,True,i,74829.59999999404,1042.5,1669831398082,1042,HRV,HRV_0141,2022-11-30 18:06:14
50,"[{'imgObject': {}, 'id': 'Grapes', 'src': '/static/foodstim60/Grapes.jpg', 'key': 'u', 'origWidth': 411, 'origHeight': 411, 'width': 411, 'height': 411, 'widthPercent': 0.45, 'rescaleHeight': False, 'trialN': 50, 'loaded': True, 'loadedTime': 3574.2000000029802, 'positionName': 'LEFT', 'positionCoords': [326.28, 226.5], 'bid': 5.96}, {'imgObject': {}, 'id': 'roastedpotatoes', 'src': '/static/foodstim60/roastedpotatoes.jpg', 'key': 'i', 'origWidth': 409, 'origHeight': 410, 'width': 409, 'height': 410, 'widthPercent': 0.45, 'rescaleHeight': False, 'trialN': 50, 'loaded': True, 'loadedTime': 3247.7000000029802, 'positionName': 'RIGHT', 'positionCoords': [798.72, 227], 'bid': 6.18}]",74829.79999999702,1669831398083,Grapes,roastedpotatoes,5.96,6.18,0.21999999999999975,Grapes,547.4000000059605,548,547.9000000059605,True,u,75890.90000000596,1061.1000000089407,1669831399144,1061,HRV,HRV_0141,2022-11-30 18:06:14
51,"[{'imgObject': {}, 'id': 'chickenfingers', 'src': '/static/foodstim60/chickenfingers.jpg', 'key': 'u', 'origWidth': 410, 'origHeight': 410, 'width': 410, 'height': 410, 'widthPercent': 0.45, 'rescaleHeight': False, 'trialN': 51, 'loaded': True, 'loadedTime': 3589.2999999970198, 'positionName': 'LEFT', 'positionCoords': [327.28, 227], 'bid': 9.19}, {'imgObject': {}, 'id': 'cantaloupe', 'src': '/static/foodstim60/cantaloupe.jpg', 'key': 'i', 'origWidth': 409, 'origHeight': 409, 'width': 409, 'height': 409, 'widthPercent': 0.45, 'rescaleHeight': False, 'trialN': 51, 'loaded': True, 'loadedTime': 3591.2000000029802, 'positionName': 'RIGHT', 'positionCoords': [798.72, 227.5], 'bid': 6.92}]",75891.0,1669831399144,chickenfingers,cantaloupe,9.19,6.92,-2.2699999999999996,chickenfingers,752.5,753,752.7999999970198,True,u,77164.5,1273.5,1669831400417,1273,HRV,HRV_0141,2022-11-30 18:06:14
52,"[{'imgObject': {}, 'id': 'lox', 'src': '/static/foodstim60/lox.jpg', 'key': 'u', 'origWidth': 410, 'origHeight': 411, 'width': 410, 'height': 411, 'widthPercent': 0.45, 'rescaleHeight': False, 'trialN': 52, 'loaded': True, 'loadedTime': 3616.0999999940395, 'positionName': 'LEFT', 'positionCoords': [327.28, 226.5], 'bid': 6.17}, {'imgObject': {}, 'id': 'Grapes', 'src': '/static/foodstim60/Grapes.jpg', 'key': 'i', 'origWidth': 411, 'origHeight': 411, 'width': 411, 'height': 411, 'widthPercent': 0.45, 'rescaleHeight': False, 'trialN': 52, 'loaded': True, 'loadedTime': 3573.7000000029802, 'positionName': 'RIGHT', 'positionCoords': [798.72, 226.5], 'bid': 5.96}]",77164.79999999702,1669831400418,lox,Grapes,6.17,5.96,-0.20999999999999996,Grapes,592.0,592,592.2000000029802,True,i,78273.09999999404,1108.2999999970198,1669831401526,1108,HRV,HRV_0141,2022-11-30 18:06:14
53,"[{'imgObject': {}, 'id': 'blackbeanswithrice', 'src': '/static/foodstim60/blackbeanswithrice.jpg', 'key': 'u', 'origWidth': 410, 'origHeight': 410, 'width': 410, 'height': 410, 'widthPercent': 0.45, 'rescaleHeight': False, 'trialN': 53, 'loaded': True, 'loadedTime': 3547, 'positionName': 'LEFT', 'positionCoords': [327.28, 227], 'bid': 0.02}, {'imgObject': {}, 'id': 'raisin bran w milk', 'src': '/static/foodstim60/raisin bran w milk.jpg', 'key': 'i', 'origWidth': 411, 'origHeight': 411, 'width': 411, 'height': 411, 'widthPercent': 0.45, 'rescaleHeight': False, 'trialN': 53, 'loaded': True, 'loadedTime': 3616.0999999940395, 'positionName': 'RIGHT', 'positionCoords': [798.72, 226.5], 'bid': 0.26}]",78273.29999999702,1669831401526,blackbeanswithrice,raisin bran w milk,0.02,0.26,0.24000000000000002,raisin bran w milk,650.1000000089407,650,650.4000000059605,True,i,79441.79999999702,1168.5,1669831402695,1169,HRV,HRV_0141,2022-11-30 18:06:14
54,"[{'imgObject': {}, 'id': 'mashed potato', 'src': '/static/foodstim60/mashed potato.jpg', 'key': 'u', 'origWidth': 409, 'origHeight': 409, 'width': 409, 'height': 409, 'widthPercent': 0.45, 'rescaleHeight': False, 'trialN': 54, 'loaded': True, 'loadedTime': 3266.2999999970198, 'positionName': 'LEFT', 'positionCoords': [328.28, 227.5], 'bid': 0.92}, {'imgObject': {}, 'id': 'tacos', 'src': '/static/foodstim60/tacos.jpg', 'key': 'i', 'origWidth': 411, 'origHeight': 411, 'width': 411, 'height': 411, 'widthPercent': 0.45, 'rescaleHeight': False, 'trialN': 54, 'loaded': True, 'loadedTime': 3617.9000000059605, 'positionName': 'RIGHT', 'positionCoords': [798.72, 226.5], 'bid': 0.67}]",79442.09999999404,1669831402695,mashed potato,tacos,0.92,0.67,-0.25,tacos,728.9000000059605,729,729.3000000119209,True,i,80677.90000000596,1235.800000011921,1669831403931,1236,HRV,HRV_0141,2022-11-30 18:06:14
55,"[{'imgObject': {}, 'id': 'hotdog w must', 'src': '/static/foodstim60/hotdog w must.jpg', 'key': 'u', 'origWidth': 409, 'origHeight': 409, 'width': 409, 'height': 409, 'widthPercent': 0.45, 'rescaleHeight': False, 'trialN': 55, 'loaded': True, 'loadedTime': 3273.4000000059605, 'positionName': 'LEFT', 'positionCoords': [328.28, 227.5], 'bid': 2.04}, {'imgObject': {}, 'id': 'rigatoni and sauce', 'src': '/static/foodstim60/rigatoni and sauce.jpg', 'key': 'i', 'origWidth': 410, 'origHeight': 411, 'width': 410, 'height': 411, 'widthPercent': 0.45, 'rescaleHeight': False, 'trialN': 55, 'loaded': True, 'loadedTime': 3623.7000000029802, 'positionName': 'RIGHT', 'positionCoords': [798.72, 226.5], 'bid': 2.03}]",80678.20000000298,1669831403931,hotdog w must,rigatoni and sauce,2.04,2.03,-0.010000000000000231,rigatoni and sauce,751.2000000029802,752,751.8999999910593,True,i,81937.79999999702,1259.5999999940395,1669831405191,1260,HRV,HRV_0141,2022-11-30 18:06:14
56,"[{'imgObject': {}, 'id': 'veggieswithdip', 'src': '/static/foodstim60/veggieswithdip.jpg', 'key': 'u', 'origWidth': 409, 'origHeight': 409, 'width': 409, 'height': 409, 'widthPercent': 0.45, 'rescaleHeight': False, 'trialN': 56, 'loaded': True, 'loadedTime': 3365.0999999940395, 'positionName': 'LEFT', 'positionCoords': [328.28, 227.5], 'bid': 3.98}, {'imgObject': {}, 'id': 'burrito', 'src': '/static/foodstim60/burrito.jpg', 'key': 'i', 'origWidth': 410, 'origHeight': 410, 'width': 410, 'height': 410, 'widthPercent': 0.45, 'rescaleHeight': False, 'trialN': 56, 'loaded': True, 'loadedTime': 3528.0999999940395, 'positionName': 'RIGHT', 'positionCoords': [798.72, 227], 'bid': 3.39}]",81938.0,1669831405191,veggieswithdip,burrito,3.98,3.39,-0.5899999999999999,burrito,789.0999999940395,789,789.5,True,i,83237.29999999702,1299.2999999970198,1669831406496,1305,HRV,HRV_0141,2022-11-30 18:06:14
57,"[{'imgObject': {}, 'id': 'popsicles', 'src': '/static/foodstim60/popsicles.jpg', 'key': 'u', 'origWidth': 410, 'origHeight': 410, 'width': 410, 'height': 410, 'widthPercent': 0.45, 'rescaleHeight': False, 'trialN': 57, 'loaded': True, 'loadedTime': 3630.4000000059605, 'positionName': 'LEFT', 'positionCoords': [327.28, 227], 'bid': 8.97}, {'imgObject': {}, 'id': 'salad w chicken', 'src': '/static/foodstim60/salad w chicken.jpg', 'key': 'i', 'origWidth': 411, 'origHeight': 411, 'width': 411, 'height': 411, 'widthPercent': 0.45, 'rescaleHeight': False, 'trialN': 57, 'loaded': True, 'loadedTime': 3635.2999999970198, 'positionName': 'RIGHT', 'positionCoords': [798.72, 226.5], 'bid': 3.34}]",83237.59999999404,1669831406496,popsicles,salad w chicken,8.97,3.34,-5.630000000000001,popsicles,651.2000000029802,652,651.5,True,u,84397.0,1159.4000000059605,1669831407656,1160,HRV,HRV_0141,2022-11-30 18:06:14
58,"[{'imgObject': {}, 'id': 'fried eggs', 'src': '/static/foodstim60/fried eggs.jpg', 'key': 'u', 'origWidth': 410, 'origHeight': 410, 'width': 410, 'height': 410, 'widthPercent': 0.45, 'rescaleHeight': False, 'trialN': 58, 'loaded': True, 'loadedTime': 3309.4000000059605, 'positionName': 'LEFT', 'positionCoords': [327.28, 227], 'bid': 7.18}, {'imgObject': {}, 'id': 'chickenfingers', 'src': '/static/foodstim60/chickenfingers.jpg', 'key': 'i', 'origWidth': 410, 'origHeight': 410, 'width': 410, 'height': 410, 'widthPercent': 0.45, 'rescaleHeight': False, 'trialN': 58, 'loaded': True, 'loadedTime': 3589.5999999940395, 'positionName': 'RIGHT', 'positionCoords': [798.72, 227], 'bid': 9.19}]",84397.09999999404,1669831407656,fried eggs,chickenfingers,7.18,9.19,2.01,fried eggs,669.4000000059605,670,669.8000000119209,True,u,85578.29999999702,1181.2000000029802,1669831408837,1181,HRV,HRV_0141,2022-11-30 18:06:14
59,"[{'imgObject': {}, 'id': 'chickenfingers', 'src': '/static/foodstim60/chickenfingers.jpg', 'key': 'u', 'origWidth': 410, 'origHeight': 410, 'width': 410, 'height': 410, 'widthPercent': 0.45, 'rescaleHeight': False, 'trialN': 59, 'loaded': True, 'loadedTime': 3589.9000000059605, 'positionName': 'LEFT', 'positionCoords': [327.28, 227], 'bid': 9.19}, {'imgObject': {}, 'id': 'chicken nuggets2', 'src': '/static/foodstim60/chicken nuggets2.jpg', 'key': 'i', 'origWidth': 410, 'origHeight': 409, 'width': 410, 'height': 409, 'widthPercent': 0.45, 'rescaleHeight': False, 'trialN': 59, 'loaded': True, 'loadedTime': 3603.7000000029802, 'positionName': 'RIGHT', 'positionCoords': [798.72, 227.5], 'bid': 7.890000000000001}]",85578.5,1669831408837,chickenfingers,chicken nuggets2,9.19,7.890000000000001,-1.299999999999999,chickenfingers,731.2000000029802,732,731.5999999940395,True,u,86822.20000000298,1243.7000000029802,1669831410081,1244,HRV,HRV_0141,2022-11-30 18:06:14
60,"[{'imgObject': {}, 'id': 'cherries', 'src': '/static/foodstim60/cherries.jpg', 'key': 'u', 'origWidth': 410, 'origHeight': 411, 'width': 410, 'height': 411, 'widthPercent': 0.45, 'rescaleHeight': False, 'trialN': 60, 'loaded': True, 'loadedTime': 3264.9000000059605, 'positionName': 'LEFT', 'positionCoords': [327.28, 226.5], 'bid': 6.3}, {'imgObject': {}, 'id': 'veggieswithdip', 'src': '/static/foodstim60/veggieswithdip.jpg', 'key': 'i', 'origWidth': 409, 'origHeight': 409, 'width': 409, 'height': 409, 'widthPercent': 0.45, 'rescaleHeight': False, 'trialN': 60, 'loaded': True, 'loadedTime': 3365.4000000059605, 'positionName': 'RIGHT', 'positionCoords': [798.72, 227.5], 'bid': 3.98}]",86822.40000000596,1669831410081,cherries,veggieswithdip,6.3,3.98,-2.32,cherries,539.0,540,539.7999999970198,True,u,87866.79999999702,1044.3999999910593,1669831411126,1045,HRV,HRV_0141,2022-11-30 18:06:14
61,"[{'imgObject': {}, 'id': 'turkeysandwich', 'src': '/static/foodstim60/turkeysandwich.jpg', 'key': 'u', 'origWidth': 409, 'origHeight': 409, 'width': 409, 'height': 409, 'widthPercent': 0.45, 'rescaleHeight': False, 'trialN': 61, 'loaded': True, 'loadedTime': 3540.5, 'positionName': 'LEFT', 'positionCoords': [328.28, 227.5], 'bid': 4.19}, {'imgObject': {}, 'id': 'turkey sandwich', 'src': '/static/foodstim60/turkey sandwich.jpg', 'key': 'i', 'origWidth': 409, 'origHeight': 409, 'width': 409, 'height': 409, 'widthPercent': 0.45, 'rescaleHeight': False, 'trialN': 61, 'loaded': True, 'loadedTime': 3220.9000000059605, 'positionName': 'RIGHT', 'positionCoords': [798.72, 227.5], 'bid': 5.05}]",87866.90000000596,1669831411126,turkeysandwich,turkey sandwich,4.19,5.05,0.8599999999999994,turkey sandwich,562.5,563,563.0999999940395,True,i,88943.29999999702,1076.3999999910593,1669831412202,1076,HRV,HRV_0141,2022-11-30 18:06:14
62,"[{'imgObject': {}, 'id': 'banana', 'src': '/static/foodstim60/banana.jpg', 'key': 'u', 'origWidth': 410, 'origHeight': 410, 'width': 410, 'height': 410, 'widthPercent': 0.45, 'rescaleHeight': False, 'trialN': 62, 'loaded': True, 'loadedTime': 3149.2999999970198, 'positionName': 'LEFT', 'positionCoords': [327.28, 227], 'bid': 2.03}, {'imgObject': {}, 'id': 'baked potato', 'src': '/static/foodstim60/baked potato.jpg', 'key': 'i', 'origWidth': 409, 'origHeight': 410, 'width': 409, 'height': 410, 'widthPercent': 0.45, 'rescaleHeight': False, 'trialN': 62, 'loaded': True, 'loadedTime': 3334.7000000029802, 'positionName': 'RIGHT', 'positionCoords': [798.72, 227], 'bid': 1.71}]",88943.5,1669831412202,banana,baked potato,2.03,1.71,-0.31999999999999984,banana,1373.9000000059605,1375,1374.7000000029802,True,u,90823.40000000596,1879.9000000059605,1669831414082,1880,HRV,HRV_0141,2022-11-30 18:06:14
63,"[{'imgObject': {}, 'id': 'mac & cheese', 'src': '/static/foodstim60/mac & cheese.jpg', 'key': 'u', 'origWidth': 410, 'origHeight': 410, 'width': 410, 'height': 410, 'widthPercent': 0.45, 'rescaleHeight': False, 'trialN': 63, 'loaded': True, 'loadedTime': 3411.0999999940395, 'positionName': 'LEFT', 'positionCoords': [327.28, 227], 'bid': 1.14}, {'imgObject': {}, 'id': 'kiwi', 'src': '/static/foodstim60/kiwi.jpg', 'key': 'i', 'origWidth': 410, 'origHeight': 410, 'width': 410, 'height': 410, 'widthPercent': 0.45, 'rescaleHeight': False, 'trialN': 63, 'loaded': True, 'loadedTime': 3365.7999999970198, 'positionName': 'RIGHT', 'positionCoords': [798.72, 227], 'bid': 7}]",90823.59999999404,1669831414082,mac & cheese,kiwi,1.14,7.0,5.86,kiwi,796.0,797,796.5,True,i,92136.0,1312.4000000059605,1669831415395,1313,HRV,HRV_0141,2022-11-30 18:06:14
64,"[{'imgObject': {}, 'id': 'chicken nuggets2', 'src': '/static/foodstim60/chicken nuggets2.jpg', 'key': 'u', 'origWidth': 410, 'origHeight': 409, 'width': 410, 'height': 409, 'widthPercent': 0.45, 'rescaleHeight': False, 'trialN': 64, 'loaded': True, 'loadedTime': 3604.0999999940395, 'positionName': 'LEFT', 'positionCoords': [327.28, 227.5], 'bid': 7.890000000000001}, {'imgObject': {}, 'id': 'lox', 'src': '/static/foodstim60/lox.jpg', 'key': 'i', 'origWidth': 410, 'origHeight': 411, 'width': 410, 'height': 411, 'widthPercent': 0.45, 'rescaleHeight': False, 'trialN': 64, 'loaded': True, 'loadedTime': 3615.5999999940395, 'positionName': 'RIGHT', 'positionCoords': [798.72, 226.5], 'bid': 6.17}]",92136.29999999702,1669831415395,chicken nuggets2,lox,7.890000000000001,6.17,-1.7200000000000006,chicken nuggets2,555.7000000029802,556,555.9000000059605,True,u,93204.40000000596,1068.1000000089407,1669831416463,1068,HRV,HRV_0141,2022-11-30 18:06:14
65,"[{'imgObject': {}, 'id': 'tacos', 'src': '/static/foodstim60/tacos.jpg', 'key': 'u', 'origWidth': 411, 'origHeight': 411, 'width': 411, 'height': 411, 'widthPercent': 0.45, 'rescaleHeight': False, 'trialN': 65, 'loaded': True, 'loadedTime': 3619.2000000029802, 'positionName': 'LEFT', 'positionCoords': [326.28, 226.5], 'bid': 0.67}, {'imgObject': {}, 'id': 'cantaloupe', 'src': '/static/foodstim60/cantaloupe.jpg', 'key': 'i', 'origWidth': 409, 'origHeight': 409, 'width': 409, 'height': 409, 'widthPercent': 0.45, 'rescaleHeight': False, 'trialN': 65, 'loaded': True, 'loadedTime': 3590.9000000059605, 'positionName': 'RIGHT', 'positionCoords': [798.72, 227.5], 'bid': 6.92}]",93204.70000000298,1669831416463,tacos,cantaloupe,0.67,6.92,6.25,cantaloupe,630.3999999910593,631,630.7000000029802,True,i,94350.59999999404,1145.8999999910593,1669831417609,1146,HRV,HRV_0141,2022-11-30 18:06:14
66,"[{'imgObject': {}, 'id': 'steak', 'src': '/static/foodstim60/steak.jpg', 'key': 'u', 'origWidth': 410, 'origHeight': 410, 'width': 410, 'height': 410, 'widthPercent': 0.45, 'rescaleHeight': False, 'trialN': 66, 'loaded': True, 'loadedTime': 3246, 'positionName': 'LEFT', 'positionCoords': [327.28, 227], 'bid': 8.38}, {'imgObject': {}, 'id': 'salmon', 'src': '/static/foodstim60/salmon.jpg', 'key': 'i', 'origWidth': 410, 'origHeight': 409, 'width': 410, 'height': 409, 'widthPercent': 0.45, 'rescaleHeight': False, 'trialN': 66, 'loaded': True, 'loadedTime': 3095.7000000029802, 'positionName': 'RIGHT', 'positionCoords': [798.72, 227.5], 'bid': 9.83}]",94350.90000000596,1669831417610,steak,salmon,8.38,9.83,1.4499999999999993,salmon,515.5,516,515.8999999910593,True,i,95369.20000000298,1018.2999999970198,1669831418628,1018,HRV,HRV_0141,2022-11-30 18:06:14
67,"[{'imgObject': {}, 'id': 'popsicles', 'src': '/static/foodstim60/popsicles.jpg', 'key': 'u', 'origWidth': 410, 'origHeight': 410, 'width': 410, 'height': 410, 'widthPercent': 0.45, 'rescaleHeight': False, 'trialN': 67, 'loaded': True, 'loadedTime': 3627.4000000059605, 'positionName': 'LEFT', 'positionCoords': [327.28, 227], 'bid': 8.97}, {'imgObject': {}, 'id': 'seaweed', 'src': '/static/foodstim60/seaweed.jpg', 'key': 'i', 'origWidth': 410, 'origHeight': 410, 'width': 410, 'height': 410, 'widthPercent': 0.45, 'rescaleHeight': False, 'trialN': 67, 'loaded': True, 'loadedTime': 3544.2999999970198, 'positionName': 'RIGHT', 'positionCoords': [798.72, 227], 'bid': 7.16}]",95369.40000000596,1669831418628,popsicles,seaweed,8.97,7.16,-1.8100000000000005,seaweed,524.0999999940395,525,524.5999999940395,True,i,96398.0,1028.5999999940395,1669831419657,1029,HRV,HRV_0141,2022-11-30 18:06:14
68,"[{'imgObject': {}, 'id': 'raspberries', 'src': '/static/foodstim60/raspberries.jpg', 'key': 'u', 'origWidth': 411, 'origHeight': 411, 'width': 411, 'height': 411, 'widthPercent': 0.45, 'rescaleHeight': False, 'trialN': 68, 'loaded': True, 'loadedTime': 3213.4000000059605, 'positionName': 'LEFT', 'positionCoords': [326.28, 226.5], 'bid': 6.79}, {'imgObject': {}, 'id': 'apple slices', 'src': '/static/foodstim60/apple slices.jpg', 'key': 'i', 'origWidth': 409, 'origHeight': 410, 'width': 409, 'height': 410, 'widthPercent': 0.45, 'rescaleHeight': False, 'trialN': 68, 'loaded': True, 'loadedTime': 3151.5, 'positionName': 'RIGHT', 'positionCoords': [798.72, 227], 'bid': 8.950000000000001}]",96398.20000000298,1669831419657,raspberries,apple slices,6.79,8.950000000000001,2.160000000000001,apple slices,517.8999999910593,518,518.0999999940395,True,i,97423.70000000298,1025.5,1669831420682,1025,HRV,HRV_0141,2022-11-30 18:06:14
69,"[{'imgObject': {}, 'id': 'corn cob', 'src': '/static/foodstim60/corn cob.jpg', 'key': 'u', 'origWidth': 411, 'origHeight': 411, 'width': 411, 'height': 411, 'widthPercent': 0.45, 'rescaleHeight': False, 'trialN': 69, 'loaded': True, 'loadedTime': 3469.5, 'positionName': 'LEFT', 'positionCoords': [326.28, 226.5], 'bid': 5.69}, {'imgObject': {}, 'id': 'eggs', 'src': '/static/foodstim60/eggs.jpg', 'key': 'i', 'origWidth': 409, 'origHeight': 409, 'width': 409, 'height': 409, 'widthPercent': 0.45, 'rescaleHeight': False, 'trialN': 69, 'loaded': True, 'loadedTime': 3339.2000000029802, 'positionName': 'RIGHT', 'positionCoords': [798.72, 227.5], 'bid': 5.79}]",97424.0,1669831420683,corn cob,eggs,5.69,5.79,0.09999999999999964,eggs,548.7999999970198,549,549.0999999940395,True,i,98476.79999999702,1052.7999999970198,1669831421736,1053,HRV,HRV_0141,2022-11-30 18:06:14
70,"[{'imgObject': {}, 'id': 'yogurt no spoon', 'src': '/static/foodstim60/yogurt no spoon.jpg', 'key': 'u', 'origWidth': 411, 'origHeight': 410, 'width': 411, 'height': 410, 'widthPercent': 0.45, 'rescaleHeight': False, 'trialN': 70, 'loaded': True, 'loadedTime': 3591.4000000059605, 'positionName': 'LEFT', 'positionCoords': [326.28, 227], 'bid': 0.53}, {'imgObject': {}, 'id': 'strawberries', 'src': '/static/foodstim60/strawberries.jpg', 'key': 'i', 'origWidth': 410, 'origHeight': 410, 'width': 410, 'height': 410, 'widthPercent': 0.45, 'rescaleHeight': False, 'trialN': 70, 'loaded': True, 'loadedTime': 3578.0999999940395, 'positionName': 'RIGHT', 'positionCoords': [798.72, 227], 'bid': 6.88}]",98477.09999999404,1669831421736,yogurt no spoon,strawberries,0.53,6.88,6.35,strawberries,853.7000000029802,854,853.9000000059605,True,i,99841.09999999404,1364.0,1669831423100,1364,HRV,HRV_0141,2022-11-30 18:06:14
71,"[{'imgObject': {}, 'id': 'bagel and cc', 'src': '/static/foodstim60/bagel and cc.jpg', 'key': 'u', 'origWidth': 410, 'origHeight': 410, 'width': 410, 'height': 410, 'widthPercent': 0.45, 'rescaleHeight': False, 'trialN': 71, 'loaded': True, 'loadedTime': 3525.5, 'positionName': 'LEFT', 'positionCoords': [327.28, 227], 'bid': 0.13}, {'imgObject': {}, 'id': 'eggsalad', 'src': '/static/foodstim60/eggsalad.jpg', 'key': 'i', 'origWidth': 410, 'origHeight': 409, 'width': 410, 'height': 409, 'widthPercent': 0.45, 'rescaleHeight': False, 'trialN': 71, 'loaded': True, 'loadedTime': 3448, 'positionName': 'RIGHT', 'positionCoords': [798.72, 227.5], 'bid': 1.47}]",99841.40000000596,1669831423100,bagel and cc,eggsalad,0.13,1.47,1.3399999999999999,eggsalad,761.7999999970198,762,762.0999999940395,True,i,101118.79999999702,1277.3999999910593,1669831424378,1278,HRV,HRV_0141,2022-11-30 18:06:14
72,"[{'imgObject': {}, 'id': 'eggsalad', 'src': '/static/foodstim60/eggsalad.jpg', 'key': 'u', 'origWidth': 410, 'origHeight': 409, 'width': 410, 'height': 409, 'widthPercent': 0.45, 'rescaleHeight': False, 'trialN': 72, 'loaded': True, 'loadedTime': 3457, 'positionName': 'LEFT', 'positionCoords': [327.28, 227.5], 'bid': 1.47}, {'imgObject': {}, 'id': 'fried eggs', 'src': '/static/foodstim60/fried eggs.jpg', 'key': 'i', 'origWidth': 410, 'origHeight': 410, 'width': 410, 'height': 410, 'widthPercent': 0.45, 'rescaleHeight': False, 'trialN': 72, 'loaded': True, 'loadedTime': 3305.2999999970198, 'positionName': 'RIGHT', 'positionCoords': [798.72, 227], 'bid': 7.18}]",101119.09999999404,1669831424378,eggsalad,fried eggs,1.47,7.18,5.71,fried eggs,481.20000000298023,481,481.5,True,i,102120.59999999404,1001.5,1669831425379,1001,HRV,HRV_0141,2022-11-30 18:06:14
73,"[{'imgObject': {}, 'id': 'raspberries', 'src': '/static/foodstim60/raspberries.jpg', 'key': 'u', 'origWidth': 411, 'origHeight': 411, 'width': 411, 'height': 411, 'widthPercent': 0.45, 'rescaleHeight': False, 'trialN': 73, 'loaded': True, 'loadedTime': 3213.0999999940395, 'positionName': 'LEFT', 'positionCoords': [326.28, 226.5], 'bid': 6.79}, {'imgObject': {}, 'id': 'luckycharms', 'src': '/static/foodstim60/luckycharms.jpg', 'key': 'i', 'origWidth': 410, 'origHeight': 409, 'width': 410, 'height': 409, 'widthPercent': 0.45, 'rescaleHeight': False, 'trialN': 73, 'loaded': True, 'loadedTime': 3457.7000000029802, 'positionName': 'RIGHT', 'positionCoords': [798.72, 227.5], 'bid': 0.36}]",102121.20000000298,1669831425380,raspberries,luckycharms,6.79,0.36,-6.43,raspberries,786.5,787,786.7000000029802,True,u,103433.90000000596,1312.7000000029802,1669831426693,1313,HRV,HRV_0141,2022-11-30 18:06:14
74,"[{'imgObject': {}, 'id': 'tacos', 'src': '/static/foodstim60/tacos.jpg', 'key': 'u', 'origWidth': 411, 'origHeight': 411, 'width': 411, 'height': 411, 'widthPercent': 0.45, 'rescaleHeight': False, 'trialN': 74, 'loaded': True, 'loadedTime': 3619.2999999970198, 'positionName': 'LEFT', 'positionCoords': [326.28, 226.5], 'bid': 0.67}, {'imgObject': {}, 'id': 'omelette', 'src': '/static/foodstim60/omelette.jpg', 'key': 'i', 'origWidth': 410, 'origHeight': 409, 'width': 410, 'height': 409, 'widthPercent': 0.45, 'rescaleHeight': False, 'trialN': 74, 'loaded': True, 'loadedTime': 3421.7000000029802, 'positionName': 'RIGHT', 'positionCoords': [798.72, 227.5], 'bid': 1.51}]",103434.20000000298,1669831426693,tacos,omelette,0.67,1.51,0.84,omelette,611.0999999940395,611,611.5,True,i,104561.70000000298,1127.5,1669831427820,1127,HRV,HRV_0141,2022-11-30 18:06:14
75,"[{'imgObject': {}, 'id': 'edamame', 'src': '/static/foodstim60/edamame.jpg', 'key': 'u', 'origWidth': 409, 'origHeight': 410, 'width': 409, 'height': 410, 'widthPercent': 0.45, 'rescaleHeight': False, 'trialN': 75, 'loaded': True, 'loadedTime': 3474.5999999940395, 'positionName': 'LEFT', 'positionCoords': [328.28, 227], 'bid': 2.04}, {'imgObject': {}, 'id': 'sweetpotato', 'src': '/static/foodstim60/sweetpotato.jpg', 'key': 'i', 'origWidth': 410, 'origHeight': 410, 'width': 410, 'height': 410, 'widthPercent': 0.45, 'rescaleHeight': False, 'trialN': 75, 'loaded': True, 'loadedTime': 3640, 'positionName': 'RIGHT', 'positionCoords': [798.72, 227], 'bid': 2.05}]",104562.0,1669831427821,edamame,sweetpotato,2.04,2.05,0.009999999999999787,sweetpotato,1678.5999999940395,1679,1679.2000000029802,True,i,106749.90000000596,2187.9000000059605,1669831430009,2188,HRV,HRV_0141,2022-11-30 18:06:14
76,"[{'imgObject': {}, 'id': 'blueberries', 'src': '/static/foodstim60/blueberries.jpg', 'key': 'u', 'origWidth': 411, 'origHeight': 411, 'width': 411, 'height': 411, 'widthPercent': 0.45, 'rescaleHeight': False, 'trialN': 76, 'loaded': True, 'loadedTime': 3284.5, 'positionName': 'LEFT', 'positionCoords': [326.28, 226.5], 'bid': 5.53}, {'imgObject': {}, 'id': 'fried eggs', 'src': '/static/foodstim60/fried eggs.jpg', 'key': 'i', 'origWidth': 410, 'origHeight': 410, 'width': 410, 'height': 410, 'widthPercent': 0.45, 'rescaleHeight': False, 'trialN': 76, 'loaded': True, 'loadedTime': 3309.2000000029802, 'positionName': 'RIGHT', 'positionCoords': [798.72, 227], 'bid': 7.18}]",106750.09999999404,1669831430009,blueberries,fried eggs,5.53,7.18,1.6499999999999995,fried eggs,477.40000000596046,477,477.70000000298023,True,i,107733.79999999702,983.7000000029802,1669831430993,984,HRV,HRV_0141,2022-11-30 18:06:14
77,"[{'imgObject': {}, 'id': 'yogurt no spoon', 'src': '/static/foodstim60/yogurt no spoon.jpg', 'key': 'u', 'origWidth': 411, 'origHeight': 410, 'width': 411, 'height': 410, 'widthPercent': 0.45, 'rescaleHeight': False, 'trialN': 77, 'loaded': True, 'loadedTime': 3601.9000000059605, 'positionName': 'LEFT', 'positionCoords': [326.28, 227], 'bid': 0.53}, {'imgObject': {}, 'id': 'salad w chicken', 'src': '/static/foodstim60/salad w chicken.jpg', 'key': 'i', 'origWidth': 411, 'origHeight': 411, 'width': 411, 'height': 411, 'widthPercent': 0.45, 'rescaleHeight': False, 'trialN': 77, 'loaded': True, 'loadedTime': 3635.5, 'positionName': 'RIGHT', 'positionCoords': [798.72, 226.5], 'bid': 3.34}]",107734.0,1669831430993,yogurt no spoon,salad w chicken,0.53,3.34,2.8099999999999996,salad w chicken,560.5,561,561.2000000029802,True,i,108809.29999999702,1075.2999999970198,1669831432068,1075,HRV,HRV_0141,2022-11-30 18:06:14
78,"[{'imgObject': {}, 'id': 'omelette', 'src': '/static/foodstim60/omelette.jpg', 'key': 'u', 'origWidth': 410, 'origHeight': 409, 'width': 410, 'height': 409, 'widthPercent': 0.45, 'rescaleHeight': False, 'trialN': 78, 'loaded': True, 'loadedTime': 3421.7999999970198, 'positionName': 'LEFT', 'positionCoords': [327.28, 227.5], 'bid': 1.51}, {'imgObject': {}, 'id': 'orange slices', 'src': '/static/foodstim60/orange slices.jpg', 'key': 'i', 'origWidth': 409, 'origHeight': 410, 'width': 409, 'height': 410, 'widthPercent': 0.45, 'rescaleHeight': False, 'trialN': 78, 'loaded': True, 'loadedTime': 3082.5999999940395, 'positionName': 'RIGHT', 'positionCoords': [798.72, 227], 'bid': 7.18}]",108809.5,1669831432068,omelette,orange slices,1.51,7.18,5.67,omelette,682.0999999940395,683,682.5,True,u,110006.09999999404,1196.5999999940395,1669831433265,1197,HRV,HRV_0141,2022-11-30 18:06:14
79,"[{'imgObject': {}, 'id': 'sweetpotato', 'src': '/static/foodstim60/sweetpotato.jpg', 'key': 'u', 'origWidth': 410, 'origHeight': 410, 'width': 410, 'height': 410, 'widthPercent': 0.45, 'rescaleHeight': False, 'trialN': 79, 'loaded': True, 'loadedTime': 3640.5, 'positionName': 'LEFT', 'positionCoords': [327.28, 227], 'bid': 2.05}, {'imgObject': {}, 'id': 'eggs', 'src': '/static/foodstim60/eggs.jpg', 'key': 'i', 'origWidth': 409, 'origHeight': 409, 'width': 409, 'height': 409, 'widthPercent': 0.45, 'rescaleHeight': False, 'trialN': 79, 'loaded': True, 'loadedTime': 3338.7999999970198, 'positionName': 'RIGHT', 'positionCoords': [798.72, 227.5], 'bid': 5.79}]",110006.29999999702,1669831433265,sweetpotato,eggs,2.05,5.79,3.74,eggs,687.5,688,687.9000000059605,True,i,111197.59999999404,1191.2999999970198,1669831434456,1191,HRV,HRV_0141,2022-11-30 18:06:14
80,"[{'imgObject': {}, 'id': 'Tribe humus pita', 'src': '/static/foodstim60/Tribe humus pita.jpg', 'key': 'u', 'origWidth': 411, 'origHeight': 411, 'width': 411, 'height': 411, 'widthPercent': 0.45, 'rescaleHeight': False, 'trialN': 80, 'loaded': True, 'loadedTime': 3412.5, 'positionName': 'LEFT', 'positionCoords': [326.28, 226.5], 'bid': 1.26}, {'imgObject': {}, 'id': 'seaweed', 'src': '/static/foodstim60/seaweed.jpg', 'key': 'i', 'origWidth': 410, 'origHeight': 410, 'width': 410, 'height': 410, 'widthPercent': 0.45, 'rescaleHeight': False, 'trialN': 80, 'loaded': True, 'loadedTime': 3542.7000000029802, 'positionName': 'RIGHT', 'positionCoords': [798.72, 227], 'bid': 7.16}]",111197.90000000596,1669831434457,Tribe humus pita,seaweed,1.26,7.16,5.9,seaweed,463.09999999403954,463,463.5,True,i,112164.59999999404,966.6999999880791,1669831435423,966,HRV,HRV_0141,2022-11-30 18:06:14
81,"[{'imgObject': {}, 'id': 'chickenfingers', 'src': '/static/foodstim60/chickenfingers.jpg', 'key': 'u', 'origWidth': 410, 'origHeight': 410, 'width': 410, 'height': 410, 'widthPercent': 0.45, 'rescaleHeight': False, 'trialN': 81, 'loaded': True, 'loadedTime': 3588.2000000029802, 'positionName': 'LEFT', 'positionCoords': [327.28, 227], 'bid': 9.19}, {'imgObject': {}, 'id': 'salmon', 'src': '/static/foodstim60/salmon.jpg', 'key': 'i', 'origWidth': 410, 'origHeight': 409, 'width': 410, 'height': 409, 'widthPercent': 0.45, 'rescaleHeight': False, 'trialN': 81, 'loaded': True, 'loadedTime': 3095.2999999970198, 'positionName': 'RIGHT', 'positionCoords': [798.72, 227.5], 'bid': 9.83}]",112164.79999999702,1669831435424,chickenfingers,salmon,9.19,9.83,0.6400000000000006,salmon,563.4000000059605,563,563.7999999970198,True,i,113245.59999999404,1080.7999999970198,1669831436504,1080,HRV,HRV_0141,2022-11-30 18:06:14
82,"[{'imgObject': {}, 'id': 'eggsalad', 'src': '/static/foodstim60/eggsalad.jpg', 'key': 'u', 'origWidth': 410, 'origHeight': 409, 'width': 410, 'height': 409, 'widthPercent': 0.45, 'rescaleHeight': False, 'trialN': 82, 'loaded': True, 'loadedTime': 3457.2000000029802, 'positionName': 'LEFT', 'positionCoords': [327.28, 227.5], 'bid': 1.47}, {'imgObject': {}, 'id': 'mac & cheese', 'src': '/static/foodstim60/mac & cheese.jpg', 'key': 'i', 'origWidth': 410, 'origHeight': 410, 'width': 410, 'height': 410, 'widthPercent': 0.45, 'rescaleHeight': False, 'trialN': 82, 'loaded': True, 'loadedTime': 3410.7000000029802, 'positionName': 'RIGHT', 'positionCoords': [798.72, 227], 'bid': 1.14}]",113245.79999999702,1669831436505,eggsalad,mac & cheese,1.47,1.14,-0.33000000000000007,eggsalad,971.2000000029802,971,971.7000000029802,True,u,114736.40000000596,1490.6000000089407,1669831437995,1490,HRV,HRV_0141,2022-11-30 18:06:14
83,"[{'imgObject': {}, 'id': 'froot loops w milk', 'src': '/static/foodstim60/froot loops w milk.jpg', 'key': 'u', 'origWidth': 410, 'origHeight': 410, 'width': 410, 'height': 410, 'widthPercent': 0.45, 'rescaleHeight': False, 'trialN': 83, 'loaded': True, 'loadedTime': 3389.2000000029802, 'positionName': 'LEFT', 'positionCoords': [327.28, 227], 'bid': 0.29}, {'imgObject': {}, 'id': 'rigatoni', 'src': '/static/foodstim60/rigatoni.jpg', 'key': 'i', 'origWidth': 411, 'origHeight': 411, 'width': 411, 'height': 411, 'widthPercent': 0.45, 'rescaleHeight': False, 'trialN': 83, 'loaded': True, 'loadedTime': 3234.0999999940395, 'positionName': 'RIGHT', 'positionCoords': [798.72, 226.5], 'bid': 0.14}]",114736.59999999404,1669831437995,froot loops w milk,rigatoni,0.29,0.14,-0.14999999999999997,rigatoni,1233.4000000059605,1234,1233.800000011921,True,i,116476.59999999404,1740.0,1669831439735,1740,HRV,HRV_0141,2022-11-30 18:06:14
84,"[{'imgObject': {}, 'id': 'sushi w_condiments', 'src': '/static/foodstim60/sushi w_condiments.jpg', 'key': 'u', 'origWidth': 410, 'origHeight': 410, 'width': 410, 'height': 410, 'widthPercent': 0.45, 'rescaleHeight': False, 'trialN': 84, 'loaded': True, 'loadedTime': 3173.9000000059605, 'positionName': 'LEFT', 'positionCoords': [327.28, 227], 'bid': 7.26}, {'imgObject': {}, 'id': 'baked potato', 'src': '/static/foodstim60/baked potato.jpg', 'key': 'i', 'origWidth': 409, 'origHeight': 410, 'width': 409, 'height': 410, 'widthPercent': 0.45, 'rescaleHeight': False, 'trialN': 84, 'loaded': True, 'loadedTime': 3334.5, 'positionName': 'RIGHT', 'positionCoords': [798.72, 227], 'bid': 1.71}]",116476.90000000596,1669831439736,sushi w_condiments,baked potato,7.26,1.71,-5.55,sushi w_condiments,802.0,802,802.6999999880791,True,u,117804.5,1327.5999999940395,1669831441063,1327,HRV,HRV_0141,2022-11-30 18:06:14
85,"[{'imgObject': {}, 'id': 'bagel plain', 'src': '/static/foodstim60/bagel plain.jpg', 'key': 'u', 'origWidth': 410, 'origHeight': 410, 'width': 410, 'height': 410, 'widthPercent': 0.45, 'rescaleHeight': False, 'trialN': 85, 'loaded': True, 'loadedTime': 3367.2000000029802, 'positionName': 'LEFT', 'positionCoords': [327.28, 227], 'bid': 0.26}, {'imgObject': {}, 'id': 'hotdog w must', 'src': '/static/foodstim60/hotdog w must.jpg', 'key': 'i', 'origWidth': 409, 'origHeight': 409, 'width': 409, 'height': 409, 'widthPercent': 0.45, 'rescaleHeight': False, 'trialN': 85, 'loaded': True, 'loadedTime': 3282.9000000059605, 'positionName': 'RIGHT', 'positionCoords': [798.72, 227.5], 'bid': 2.04}]",117804.79999999702,1669831441064,bagel plain,hotdog w must,0.26,2.04,1.78,hotdog w must,710.4000000059605,710,710.7000000029802,True,i,119024.20000000298,1219.4000000059605,1669831442283,1219,HRV,HRV_0141,2022-11-30 18:06:14
86,"[{'imgObject': {}, 'id': 'raisin bran w milk', 'src': '/static/foodstim60/raisin bran w milk.jpg', 'key': 'u', 'origWidth': 411, 'origHeight': 411, 'width': 411, 'height': 411, 'widthPercent': 0.45, 'rescaleHeight': False, 'trialN': 86, 'loaded': True, 'loadedTime': 3617.5999999940395, 'positionName': 'LEFT', 'positionCoords': [326.28, 226.5], 'bid': 0.26}, {'imgObject': {}, 'id': 'shreddedwheatwithmilk', 'src': '/static/foodstim60/shreddedwheatwithmilk.jpg', 'key': 'i', 'origWidth': 410, 'origHeight': 410, 'width': 410, 'height': 410, 'widthPercent': 0.45, 'rescaleHeight': False, 'trialN': 86, 'loaded': True, 'loadedTime': 3172.2000000029802, 'positionName': 'RIGHT', 'positionCoords': [798.72, 227], 'bid': 0.18}]",119024.5,1669831442283,raisin bran w milk,shreddedwheatwithmilk,0.26,0.18,-0.08000000000000002,shreddedwheatwithmilk,824.2999999970198,825,824.5999999940395,True,i,120359.0,1334.5,1669831443618,1335,HRV,HRV_0141,2022-11-30 18:06:14
87,"[{'imgObject': {}, 'id': 'avocado', 'src': '/static/foodstim60/avocado.jpg', 'key': 'u', 'origWidth': 409, 'origHeight': 409, 'width': 409, 'height': 409, 'widthPercent': 0.45, 'rescaleHeight': False, 'trialN': 87, 'loaded': True, 'loadedTime': 3604.2999999970198, 'positionName': 'LEFT', 'positionCoords': [328.28, 227.5], 'bid': 0.78}, {'imgObject': {}, 'id': 'rigatoni', 'src': '/static/foodstim60/rigatoni.jpg', 'key': 'i', 'origWidth': 411, 'origHeight': 411, 'width': 411, 'height': 411, 'widthPercent': 0.45, 'rescaleHeight': False, 'trialN': 87, 'loaded': True, 'loadedTime': 3234, 'positionName': 'RIGHT', 'positionCoords': [798.72, 226.5], 'bid': 0.14}]",120359.29999999702,1669831443618,avocado,rigatoni,0.78,0.14,-0.64,avocado,690.7999999970198,691,691.0,True,u,121566.09999999404,1206.7999999970198,1669831444825,1207,HRV,HRV_0141,2022-11-30 18:06:14
88,"[{'imgObject': {}, 'id': 'edamame', 'src': '/static/foodstim60/edamame.jpg', 'key': 'u', 'origWidth': 409, 'origHeight': 410, 'width': 409, 'height': 410, 'widthPercent': 0.45, 'rescaleHeight': False, 'trialN': 88, 'loaded': True, 'loadedTime': 3500, 'positionName': 'LEFT', 'positionCoords': [328.28, 227], 'bid': 2.04}, {'imgObject': {}, 'id': 'hashbrowns', 'src': '/static/foodstim60/hashbrowns.jpg', 'key': 'i', 'origWidth': 411, 'origHeight': 410, 'width': 411, 'height': 410, 'widthPercent': 0.45, 'rescaleHeight': False, 'trialN': 88, 'loaded': True, 'loadedTime': 3606.5, 'positionName': 'RIGHT', 'positionCoords': [798.72, 227], 'bid': 0.28}]",121566.40000000596,1669831444825,edamame,hashbrowns,2.04,0.28,-1.76,hashbrowns,732.0999999940395,733,732.6999999880791,True,i,122818.0,1251.5999999940395,1669831446077,1252,HRV,HRV_0141,2022-11-30 18:06:14
89,"[{'imgObject': {}, 'id': 'strawberries', 'src': '/static/foodstim60/strawberries.jpg', 'key': 'u', 'origWidth': 410, 'origHeight': 410, 'width': 410, 'height': 410, 'widthPercent': 0.45, 'rescaleHeight': False, 'trialN': 89, 'loaded': True, 'loadedTime': 3579.5, 'positionName': 'LEFT', 'positionCoords': [327.28, 227], 'bid': 6.88}, {'imgObject': {}, 'id': 'popsicles', 'src': '/static/foodstim60/popsicles.jpg', 'key': 'i', 'origWidth': 410, 'origHeight': 410, 'width': 410, 'height': 410, 'widthPercent': 0.45, 'rescaleHeight': False, 'trialN': 89, 'loaded': True, 'loadedTime': 3627.7999999970198, 'positionName': 'RIGHT', 'positionCoords': [798.72, 227], 'bid': 8.97}]",122818.20000000298,1669831446077,strawberries,popsicles,6.88,8.97,2.0900000000000007,popsicles,472.09999999403954,473,472.70000000298023,True,i,123805.70000000298,987.5,1669831447064,987,HRV,HRV_0141,2022-11-30 18:06:14
90,"[{'imgObject': {}, 'id': 'yogurt no spoon', 'src': '/static/foodstim60/yogurt no spoon.jpg', 'key': 'u', 'origWidth': 411, 'origHeight': 410, 'width': 411, 'height': 410, 'widthPercent': 0.45, 'rescaleHeight': False, 'trialN': 90, 'loaded': True, 'loadedTime': 3602.2999999970198, 'positionName': 'LEFT', 'positionCoords': [326.28, 227], 'bid': 0.53}, {'imgObject': {}, 'id': 'avocado', 'src': '/static/foodstim60/avocado.jpg', 'key': 'i', 'origWidth': 409, 'origHeight': 409, 'width': 409, 'height': 409, 'widthPercent': 0.45, 'rescaleHeight': False, 'trialN': 90, 'loaded': True, 'loadedTime': 3605.2000000029802, 'positionName': 'RIGHT', 'positionCoords': [798.72, 227.5], 'bid': 0.78}]",126212.40000000596,1669831449471,yogurt no spoon,avocado,0.53,0.78,0.25,avocado,589.8999999910593,590,590.0,True,i,127321.70000000298,1109.2999999970198,1669831450580,1109,HRV,HRV_0141,2022-11-30 18:06:14
91,"[{'imgObject': {}, 'id': 'froot loops w milk', 'src': '/static/foodstim60/froot loops w milk.jpg', 'key': 'u', 'origWidth': 410, 'origHeight': 410, 'width': 410, 'height': 410, 'widthPercent': 0.45, 'rescaleHeight': False, 'trialN': 91, 'loaded': True, 'loadedTime': 3388.2000000029802, 'positionName': 'LEFT', 'positionCoords': [327.28, 227], 'bid': 0.29}, {'imgObject': {}, 'id': 'bagel plain', 'src': '/static/foodstim60/bagel plain.jpg', 'key': 'i', 'origWidth': 410, 'origHeight': 410, 'width': 410, 'height': 410, 'widthPercent': 0.45, 'rescaleHeight': False, 'trialN': 91, 'loaded': True, 'loadedTime': 3379, 'positionName': 'RIGHT', 'positionCoords': [798.72, 227], 'bid': 0.26}]",127321.90000000596,1669831450581,froot loops w milk,bagel plain,0.29,0.26,-0.02999999999999997,froot loops w milk,563.7999999970198,564,564.1999999880791,True,u,128389.20000000298,1067.2999999970198,1669831451648,1067,HRV,HRV_0141,2022-11-30 18:06:14
92,"[{'imgObject': {}, 'id': 'mashed potato', 'src': '/static/foodstim60/mashed potato.jpg', 'key': 'u', 'origWidth': 409, 'origHeight': 409, 'width': 409, 'height': 409, 'widthPercent': 0.45, 'rescaleHeight': False, 'trialN': 92, 'loaded': True, 'loadedTime': 3272.7999999970198, 'positionName': 'LEFT', 'positionCoords': [328.28, 227.5], 'bid': 0.92}, {'imgObject': {}, 'id': 'granola w milk', 'src': '/static/foodstim60/granola w milk.jpg', 'key': 'i', 'origWidth': 410, 'origHeight': 410, 'width': 410, 'height': 410, 'widthPercent': 0.45, 'rescaleHeight': False, 'trialN': 92, 'loaded': True, 'loadedTime': 3379.2000000029802, 'positionName': 'RIGHT', 'positionCoords': [798.72, 227], 'bid': 0.02}]",128389.40000000596,1669831451648,mashed potato,granola w milk,0.92,0.02,-0.9,granola w milk,933.7999999970198,935,934.3999999910593,True,i,129827.70000000298,1438.2999999970198,1669831453086,1438,HRV,HRV_0141,2022-11-30 18:06:14
93,"[{'imgObject': {}, 'id': 'fried eggs', 'src': '/static/foodstim60/fried eggs.jpg', 'key': 'u', 'origWidth': 410, 'origHeight': 410, 'width': 410, 'height': 410, 'widthPercent': 0.45, 'rescaleHeight': False, 'trialN': 93, 'loaded': True, 'loadedTime': 3308.4000000059605, 'positionName': 'LEFT', 'positionCoords': [327.28, 227], 'bid': 7.18}, {'imgObject': {}, 'id': 'mango', 'src': '/static/foodstim60/mango.jpg', 'key': 'i', 'origWidth': 411, 'origHeight': 411, 'width': 411, 'height': 411, 'widthPercent': 0.45, 'rescaleHeight': False, 'trialN': 93, 'loaded': True, 'loadedTime': 3504, 'positionName': 'RIGHT', 'positionCoords': [798.72, 226.5], 'bid': 8.42}]",129827.79999999702,1669831453087,fried eggs,mango,7.18,8.42,1.2400000000000002,mango,722.0,722,722.2999999970198,True,i,131064.09999999404,1236.2999999970198,1669831454323,1236,HRV,HRV_0141,2022-11-30 18:06:14
94,"[{'imgObject': {}, 'id': 'omelette', 'src': '/static/foodstim60/omelette.jpg', 'key': 'u', 'origWidth': 410, 'origHeight': 409, 'width': 410, 'height': 409, 'widthPercent': 0.45, 'rescaleHeight': False, 'trialN': 94, 'loaded': True, 'loadedTime': 3421.5999999940395, 'positionName': 'LEFT', 'positionCoords': [327.28, 227.5], 'bid': 1.51}, {'imgObject': {}, 'id': 'hashbrowns', 'src': '/static/foodstim60/hashbrowns.jpg', 'key': 'i', 'origWidth': 411, 'origHeight': 410, 'width': 411, 'height': 410, 'widthPercent': 0.45, 'rescaleHeight': False, 'trialN': 94, 'loaded': True, 'loadedTime': 3606.5999999940395, 'positionName': 'RIGHT', 'positionCoords': [798.72, 227], 'bid': 0.28}]",131064.40000000596,1669831454323,omelette,hashbrowns,1.51,0.28,-1.23,omelette,963.3999999910593,964,963.7999999970198,True,u,132535.90000000596,1471.5,1669831455795,1472,HRV,HRV_0141,2022-11-30 18:06:14
95,"[{'imgObject': {}, 'id': 'mashed potato', 'src': '/static/foodstim60/mashed potato.jpg', 'key': 'u', 'origWidth': 409, 'origHeight': 409, 'width': 409, 'height': 409, 'widthPercent': 0.45, 'rescaleHeight': False, 'trialN': 95, 'loaded': True, 'loadedTime': 3273.0999999940395, 'positionName': 'LEFT', 'positionCoords': [328.28, 227.5], 'bid': 0.92}, {'imgObject': {}, 'id': 'banana', 'src': '/static/foodstim60/banana.jpg', 'key': 'i', 'origWidth': 410, 'origHeight': 410, 'width': 410, 'height': 410, 'widthPercent': 0.45, 'rescaleHeight': False, 'trialN': 95, 'loaded': True, 'loadedTime': 3102.9000000059605, 'positionName': 'RIGHT', 'positionCoords': [798.72, 227], 'bid': 2.03}]",132536.09999999404,1669831455795,mashed potato,banana,0.92,2.03,1.1099999999999999,mashed potato,539.7000000029802,540,540.3000000119209,True,u,133583.90000000596,1047.800000011921,1669831456843,1048,HRV,HRV_0141,2022-11-30 18:06:14
96,"[{'imgObject': {}, 'id': 'raspberries', 'src': '/static/foodstim60/raspberries.jpg', 'key': 'u', 'origWidth': 411, 'origHeight': 411, 'width': 411, 'height': 411, 'widthPercent': 0.45, 'rescaleHeight': False, 'trialN': 96, 'loaded': True, 'loadedTime': 3212, 'positionName': 'LEFT', 'positionCoords': [326.28, 226.5], 'bid': 6.79}, {'imgObject': {}, 'id': 'seaweed', 'src': '/static/foodstim60/seaweed.jpg', 'key': 'i', 'origWidth': 410, 'origHeight': 410, 'width': 410, 'height': 410, 'widthPercent': 0.45, 'rescaleHeight': False, 'trialN': 96, 'loaded': True, 'loadedTime': 3544.5999999940395, 'positionName': 'RIGHT', 'positionCoords': [798.72, 227], 'bid': 7.16}]",133584.09999999404,1669831456843,raspberries,seaweed,6.79,7.16,0.3700000000000001,seaweed,463.20000000298023,464,463.70000000298023,True,i,134564.5,980.4000000059605,1669831457823,980,HRV,HRV_0141,2022-11-30 18:06:14
97,"[{'imgObject': {}, 'id': 'orange slices', 'src': '/static/foodstim60/orange slices.jpg', 'key': 'u', 'origWidth': 409, 'origHeight': 410, 'width': 409, 'height': 410, 'widthPercent': 0.45, 'rescaleHeight': False, 'trialN': 97, 'loaded': True, 'loadedTime': 3082.7999999970198, 'positionName': 'LEFT', 'positionCoords': [328.28, 227], 'bid': 7.18}, {'imgObject': {}, 'id': 'grilled chicken strips', 'src': '/static/foodstim60/grilled chicken strips.jpg', 'key': 'i', 'origWidth': 410, 'origHeight': 411, 'width': 410, 'height': 411, 'widthPercent': 0.45, 'rescaleHeight': False, 'trialN': 97, 'loaded': True, 'loadedTime': 3201.7999999970198, 'positionName': 'RIGHT', 'positionCoords': [798.72, 226.5], 'bid': 7.5}]",134564.79999999702,1669831457824,orange slices,grilled chicken strips,7.18,7.5,0.3200000000000003,grilled chicken strips,545.0,545,545.6000000089407,True,i,135623.20000000298,1058.4000000059605,1669831458882,1058,HRV,HRV_0141,2022-11-30 18:06:14
98,"[{'imgObject': {}, 'id': 'seaweed', 'src': '/static/foodstim60/seaweed.jpg', 'key': 'u', 'origWidth': 410, 'origHeight': 410, 'width': 410, 'height': 410, 'widthPercent': 0.45, 'rescaleHeight': False, 'trialN': 98, 'loaded': True, 'loadedTime': 3545, 'positionName': 'LEFT', 'positionCoords': [327.28, 227], 'bid': 7.16}, {'imgObject': {}, 'id': 'kiwi', 'src': '/static/foodstim60/kiwi.jpg', 'key': 'i', 'origWidth': 410, 'origHeight': 410, 'width': 410, 'height': 410, 'widthPercent': 0.45, 'rescaleHeight': False, 'trialN': 98, 'loaded': True, 'loadedTime': 3366.9000000059605, 'positionName': 'RIGHT', 'positionCoords': [798.72, 227], 'bid': 7}]",135623.5,1669831458882,seaweed,kiwi,7.16,7.0,-0.16000000000000014,seaweed,1309.4000000059605,1310,1309.7000000029802,True,u,137443.09999999404,1819.5999999940395,1669831460702,1820,HRV,HRV_0141,2022-11-30 18:06:14
99,"[{'imgObject': {}, 'id': 'ice cream sundae 002', 'src': '/static/foodstim60/ice cream sundae 002.jpg', 'key': 'u', 'origWidth': 409, 'origHeight': 409, 'width': 409, 'height': 409, 'widthPercent': 0.45, 'rescaleHeight': False, 'trialN': 99, 'loaded': True, 'loadedTime': 3446.2000000029802, 'positionName': 'LEFT', 'positionCoords': [328.28, 227.5], 'bid': 2.91}, {'imgObject': {}, 'id': 'Grapes', 'src': '/static/foodstim60/Grapes.jpg', 'key': 'i', 'origWidth': 411, 'origHeight': 411, 'width': 411, 'height': 411, 'widthPercent': 0.45, 'rescaleHeight': False, 'trialN': 99, 'loaded': True, 'loadedTime': 3565.2000000029802, 'positionName': 'RIGHT', 'positionCoords': [798.72, 226.5], 'bid': 5.96}]",137443.29999999702,1669831460702,ice cream sundae 002,Grapes,2.91,5.96,3.05,Grapes,668.2999999970198,669,668.9000000059605,True,i,138618.5,1175.2000000029802,1669831461877,1175,HRV,HRV_0141,2022-11-30 18:06:14
100,"[{'imgObject': {}, 'id': 'raisin bran w milk', 'src': '/static/foodstim60/raisin bran w milk.jpg', 'key': 'u', 'origWidth': 411, 'origHeight': 411, 'width': 411, 'height': 411, 'widthPercent': 0.45, 'rescaleHeight': False, 'trialN': 100, 'loaded': True, 'loadedTime': 3617.7999999970198, 'positionName': 'LEFT', 'positionCoords': [326.28, 226.5], 'bid': 0.26}, {'imgObject': {}, 'id': 'cheerios', 'src': '/static/foodstim60/cheerios.jpg', 'key': 'i', 'origWidth': 409, 'origHeight': 410, 'width': 409, 'height': 410, 'widthPercent': 0.45, 'rescaleHeight': False, 'trialN': 100, 'loaded': True, 'loadedTime': 3400.2000000029802, 'positionName': 'RIGHT', 'positionCoords': [798.72, 227], 'bid': 0.2}]",138618.79999999702,1669831461878,raisin bran w milk,cheerios,0.26,0.2,-0.06,raisin bran w milk,1165.2999999970198,1165,1165.7000000029802,True,u,140293.79999999702,1675.0,1669831463553,1675,HRV,HRV_0141,2022-11-30 18:06:14
101,"[{'imgObject': {}, 'id': 'yogurt no spoon', 'src': '/static/foodstim60/yogurt no spoon.jpg', 'key': 'u', 'origWidth': 411, 'origHeight': 410, 'width': 411, 'height': 410, 'widthPercent': 0.45, 'rescaleHeight': False, 'trialN': 101, 'loaded': True, 'loadedTime': 3592.7000000029802, 'positionName': 'LEFT', 'positionCoords': [326.28, 227], 'bid': 0.53}, {'imgObject': {}, 'id': 'olives', 'src': '/static/foodstim60/olives.jpg', 'key': 'i', 'origWidth': 410, 'origHeight': 410, 'width': 410, 'height': 410, 'widthPercent': 0.45, 'rescaleHeight': False, 'trialN': 101, 'loaded': True, 'loadedTime': 3526.5999999940395, 'positionName': 'RIGHT', 'positionCoords': [798.72, 227], 'bid': 0.05}]",140294.09999999404,1669831463553,yogurt no spoon,olives,0.53,0.05,-0.48000000000000004,yogurt no spoon,657.3000000119209,657,657.6000000089407,True,u,141459.0,1164.9000000059605,1669831464718,1165,HRV,HRV_0141,2022-11-30 18:06:14
102,"[{'imgObject': {}, 'id': 'blueberries', 'src': '/static/foodstim60/blueberries.jpg', 'key': 'u', 'origWidth': 411, 'origHeight': 411, 'width': 411, 'height': 411, 'widthPercent': 0.45, 'rescaleHeight': False, 'trialN': 102, 'loaded': True, 'loadedTime': 3284.2999999970198, 'positionName': 'LEFT', 'positionCoords': [326.28, 226.5], 'bid': 5.53}, {'imgObject': {}, 'id': 'eggs', 'src': '/static/foodstim60/eggs.jpg', 'key': 'i', 'origWidth': 409, 'origHeight': 409, 'width': 409, 'height': 409, 'widthPercent': 0.45, 'rescaleHeight': False, 'trialN': 102, 'loaded': True, 'loadedTime': 3336.0999999940395, 'positionName': 'RIGHT', 'positionCoords': [798.72, 227.5], 'bid': 5.79}]",141459.20000000298,1669831464718,blueberries,eggs,5.53,5.79,0.2599999999999998,eggs,499.3999999910593,500,499.70000000298023,True,i,142471.09999999404,1011.8999999910593,1669831465730,1012,HRV,HRV_0141,2022-11-30 18:06:14
103,"[{'imgObject': {}, 'id': 'tacos', 'src': '/static/foodstim60/tacos.jpg', 'key': 'u', 'origWidth': 411, 'origHeight': 411, 'width': 411, 'height': 411, 'widthPercent': 0.45, 'rescaleHeight': False, 'trialN': 103, 'loaded': True, 'loadedTime': 3619.2999999970198, 'positionName': 'LEFT', 'positionCoords': [326.28, 226.5], 'bid': 0.67}, {'imgObject': {}, 'id': 'yogurt no spoon', 'src': '/static/foodstim60/yogurt no spoon.jpg', 'key': 'i', 'origWidth': 411, 'origHeight': 410, 'width': 411, 'height': 410, 'widthPercent': 0.45, 'rescaleHeight': False, 'trialN': 103, 'loaded': True, 'loadedTime': 3592.7999999970198, 'positionName': 'RIGHT', 'positionCoords': [798.72, 227], 'bid': 0.53}]",142471.29999999702,1669831465730,tacos,yogurt no spoon,0.67,0.53,-0.14,yogurt no spoon,1452.2999999970198,1438,1452.6000000089407,True,i,144425.79999999702,1954.5,1669831467670,1940,HRV,HRV_0141,2022-11-30 18:06:14
104,"[{'imgObject': {}, 'id': 'blueberries', 'src': '/static/foodstim60/blueberries.jpg', 'key': 'u', 'origWidth': 411, 'origHeight': 411, 'width': 411, 'height': 411, 'widthPercent': 0.45, 'rescaleHeight': False, 'trialN': 104, 'loaded': True, 'loadedTime': 3284.5, 'positionName': 'LEFT', 'positionCoords': [326.28, 226.5], 'bid': 5.53}, {'imgObject': {}, 'id': 'salad w chicken', 'src': '/static/foodstim60/salad w chicken.jpg', 'key': 'i', 'origWidth': 411, 'origHeight': 411, 'width': 411, 'height': 411, 'widthPercent': 0.45, 'rescaleHeight': False, 'trialN': 104, 'loaded': True, 'loadedTime': 3631.2999999970198, 'positionName': 'RIGHT', 'positionCoords': [798.72, 226.5], 'bid': 3.34}]",144426.20000000298,1669831467670,blueberries,salad w chicken,5.53,3.34,-2.1900000000000004,salad w chicken,744.7000000029802,746,745.2000000029802,True,i,145690.0,1263.7999999970198,1669831468934,1264,HRV,HRV_0141,2022-11-30 18:06:14
105,"[{'imgObject': {}, 'id': 'edamame', 'src': '/static/foodstim60/edamame.jpg', 'key': 'u', 'origWidth': 409, 'origHeight': 410, 'width': 409, 'height': 410, 'widthPercent': 0.45, 'rescaleHeight': False, 'trialN': 105, 'loaded': True, 'loadedTime': 3474, 'positionName': 'LEFT', 'positionCoords': [328.28, 227], 'bid': 2.04}, {'imgObject': {}, 'id': 'ice cream sundae 002', 'src': '/static/foodstim60/ice cream sundae 002.jpg', 'key': 'i', 'origWidth': 409, 'origHeight': 409, 'width': 409, 'height': 409, 'widthPercent': 0.45, 'rescaleHeight': False, 'trialN': 105, 'loaded': True, 'loadedTime': 3446.5999999940395, 'positionName': 'RIGHT', 'positionCoords': [798.72, 227.5], 'bid': 2.91}]",145690.20000000298,1669831468934,edamame,ice cream sundae 002,2.04,2.91,0.8700000000000001,ice cream sundae 002,523.2000000029802,524,523.7999999970198,True,i,146725.40000000596,1035.2000000029802,1669831469970,1036,HRV,HRV_0141,2022-11-30 18:06:14
106,"[{'imgObject': {}, 'id': 'popsicles', 'src': '/static/foodstim60/popsicles.jpg', 'key': 'u', 'origWidth': 410, 'origHeight': 410, 'width': 410, 'height': 410, 'widthPercent': 0.45, 'rescaleHeight': False, 'trialN': 106, 'loaded': True, 'loadedTime': 3630.9000000059605, 'positionName': 'LEFT', 'positionCoords': [327.28, 227], 'bid': 8.97}, {'imgObject': {}, 'id': 'apple slices', 'src': '/static/foodstim60/apple slices.jpg', 'key': 'i', 'origWidth': 409, 'origHeight': 410, 'width': 409, 'height': 410, 'widthPercent': 0.45, 'rescaleHeight': False, 'trialN': 106, 'loaded': True, 'loadedTime': 3163.2000000029802, 'positionName': 'RIGHT', 'positionCoords': [798.72, 227], 'bid': 8.950000000000001}]",146725.59999999404,1669831469970,popsicles,apple slices,8.97,8.950000000000001,-0.019999999999999574,popsicles,590.0,590,590.6000000089407,True,u,147840.29999999702,1114.7000000029802,1669831471085,1115,HRV,HRV_0141,2022-11-30 18:06:14
107,"[{'imgObject': {}, 'id': 'fruitsalad', 'src': '/static/foodstim60/fruitsalad.jpg', 'key': 'u', 'origWidth': 410, 'origHeight': 410, 'width': 410, 'height': 410, 'widthPercent': 0.45, 'rescaleHeight': False, 'trialN': 107, 'loaded': True, 'loadedTime': 3092.2000000029802, 'positionName': 'LEFT', 'positionCoords': [327.28, 227], 'bid': 8.43}, {'imgObject': {}, 'id': 'burger', 'src': '/static/foodstim60/burger.jpg', 'key': 'i', 'origWidth': 409, 'origHeight': 409, 'width': 409, 'height': 409, 'widthPercent': 0.45, 'rescaleHeight': False, 'trialN': 107, 'loaded': True, 'loadedTime': 3263.2999999970198, 'positionName': 'RIGHT', 'positionCoords': [798.72, 227.5], 'bid': 6.5600000000000005}]",147840.5,1669831471085,fruitsalad,burger,8.43,6.5600000000000005,-1.8699999999999992,burger,857.5999999940395,858,857.9000000059605,True,i,149207.70000000298,1367.2000000029802,1669831472452,1367,HRV,HRV_0141,2022-11-30 18:06:14
108,"[{'imgObject': {}, 'id': 'Grapes', 'src': '/static/foodstim60/Grapes.jpg', 'key': 'u', 'origWidth': 411, 'origHeight': 411, 'width': 411, 'height': 411, 'widthPercent': 0.45, 'rescaleHeight': False, 'trialN': 108, 'loaded': True, 'loadedTime': 3563.7999999970198, 'positionName': 'LEFT', 'positionCoords': [326.28, 226.5], 'bid': 5.96}, {'imgObject': {}, 'id': 'grilled chicken strips', 'src': '/static/foodstim60/grilled chicken strips.jpg', 'key': 'i', 'origWidth': 410, 'origHeight': 411, 'width': 410, 'height': 411, 'widthPercent': 0.45, 'rescaleHeight': False, 'trialN': 108, 'loaded': True, 'loadedTime': 3203.4000000059605, 'positionName': 'RIGHT', 'positionCoords': [798.72, 226.5], 'bid': 7.5}]",149208.09999999404,1669831472452,Grapes,grilled chicken strips,5.96,7.5,1.54,Grapes,1113.7000000029802,1115,1114.300000011921,True,u,150830.40000000596,1622.300000011921,1669831474075,1623,HRV,HRV_0141,2022-11-30 18:06:14
