trialN,stimuli,question,trialStartTime,trialStartTime_UNIX,stimulus1,rt,receivedResponse,rating,trialEndTime,trialDuration,stimulus1Loaded,exp,subjectId,date
0,"[{'imgObject': {}, 'id': 'kiwi', 'src': '/static/foodstim60/kiwi.jpg', 'key': 'NaN', 'origWidth': 410, 'origHeight': 410, 'width': 410, 'height': 410, 'widthPercent': 0.8, 'rescaleHeight': True, 'trialN': 0, 'loaded': True, 'loadedTime': 1649.1000000089407, 'positionName': 'CENTER', 'positionCoords': [563, 227]}]",Rate how much you want to eat this food from 0 (least) to 10 (most).,1659.9000000059605,1669831131728,kiwi,1551.0,True,7.0,3210.9000000059605,1551.0,True,HRV,HRV_0141,2022-11-30 18:00:02
1,"[{'imgObject': {}, 'id': 'seaweed', 'src': '/static/foodstim60/seaweed.jpg', 'key': 'NaN', 'origWidth': 410, 'origHeight': 410, 'width': 410, 'height': 410, 'widthPercent': 0.8, 'rescaleHeight': True, 'trialN': 1, 'loaded': True, 'loadedTime': 1649.4000000059605, 'positionName': 'CENTER', 'positionCoords': [563, 227]}]",Rate how much you want to eat this food from 0 (least) to 10 (most).,3212.4000000059605,1669831133280,seaweed,1135.7000000029802,True,7.16,4348.100000008941,1135.7000000029802,True,HRV,HRV_0141,2022-11-30 18:00:02
2,"[{'imgObject': {}, 'id': 'fried eggs', 'src': '/static/foodstim60/fried eggs.jpg', 'key': 'NaN', 'origWidth': 410, 'origHeight': 410, 'width': 410, 'height': 410, 'widthPercent': 0.8, 'rescaleHeight': True, 'trialN': 2, 'loaded': True, 'loadedTime': 1649.5, 'positionName': 'CENTER', 'positionCoords': [563, 227]}]",Rate how much you want to eat this food from 0 (least) to 10 (most).,4349.0,1669831134417,fried eggs,1199.6000000089407,True,7.18,5548.600000008941,1199.6000000089407,True,HRV,HRV_0141,2022-11-30 18:00:02
3,"[{'imgObject': {}, 'id': 'chicken nuggets2', 'src': '/static/foodstim60/chicken nuggets2.jpg', 'key': 'NaN', 'origWidth': 410, 'origHeight': 409, 'width': 410, 'height': 409, 'widthPercent': 0.8, 'rescaleHeight': True, 'trialN': 3, 'loaded': True, 'loadedTime': 1649.6000000089407, 'positionName': 'CENTER', 'positionCoords': [563, 227.5]}]",Rate how much you want to eat this food from 0 (least) to 10 (most).,5549.600000008941,1669831135618,chicken nuggets2,904.0999999940395,True,7.890000000000001,6453.70000000298,904.0999999940395,True,HRV,HRV_0141,2022-11-30 18:00:02
4,"[{'imgObject': {}, 'id': 'bagel and cc', 'src': '/static/foodstim60/bagel and cc.jpg', 'key': 'NaN', 'origWidth': 410, 'origHeight': 410, 'width': 410, 'height': 410, 'widthPercent': 0.8, 'rescaleHeight': True, 'trialN': 4, 'loaded': True, 'loadedTime': 1650.1000000089407, 'positionName': 'CENTER', 'positionCoords': [563, 227]}]",Rate how much you want to eat this food from 0 (least) to 10 (most).,6454.5,1669831136523,bagel and cc,1332.4000000059605,True,0.13,7786.9000000059605,1332.4000000059605,True,HRV,HRV_0141,2022-11-30 18:00:02
5,"[{'imgObject': {}, 'id': 'hotdog w must', 'src': '/static/foodstim60/hotdog w must.jpg', 'key': 'NaN', 'origWidth': 409, 'origHeight': 409, 'width': 409, 'height': 409, 'widthPercent': 0.8, 'rescaleHeight': True, 'trialN': 5, 'loaded': True, 'loadedTime': 1650.5, 'positionName': 'CENTER', 'positionCoords': [563.5, 227.5]}]",Rate how much you want to eat this food from 0 (least) to 10 (most).,7787.9000000059605,1669831137856,hotdog w must,1013.2999999970198,True,2.04,8801.20000000298,1013.2999999970198,True,HRV,HRV_0141,2022-11-30 18:00:02
6,"[{'imgObject': {}, 'id': 'avocado', 'src': '/static/foodstim60/avocado.jpg', 'key': 'NaN', 'origWidth': 409, 'origHeight': 409, 'width': 409, 'height': 409, 'widthPercent': 0.8, 'rescaleHeight': True, 'trialN': 6, 'loaded': True, 'loadedTime': 1650.9000000059605, 'positionName': 'CENTER', 'positionCoords': [563.5, 227.5]}]",Rate how much you want to eat this food from 0 (least) to 10 (most).,8802.20000000298,1669831138870,avocado,1035.7999999970198,True,0.78,9838.0,1035.7999999970198,True,HRV,HRV_0141,2022-11-30 18:00:02
7,"[{'imgObject': {}, 'id': 'turkey sandwich', 'src': '/static/foodstim60/turkey sandwich.jpg', 'key': 'NaN', 'origWidth': 409, 'origHeight': 409, 'width': 409, 'height': 409, 'widthPercent': 0.8, 'rescaleHeight': True, 'trialN': 7, 'loaded': True, 'loadedTime': 1651.300000011921, 'positionName': 'CENTER', 'positionCoords': [563.5, 227.5]}]",Rate how much you want to eat this food from 0 (least) to 10 (most).,9839.0,1669831139907,turkey sandwich,950.4000000059605,True,5.05,10789.40000000596,950.4000000059605,True,HRV,HRV_0141,2022-11-30 18:00:02
8,"[{'imgObject': {}, 'id': 'veggieswithdip', 'src': '/static/foodstim60/veggieswithdip.jpg', 'key': 'NaN', 'origWidth': 409, 'origHeight': 409, 'width': 409, 'height': 409, 'widthPercent': 0.8, 'rescaleHeight': True, 'trialN': 8, 'loaded': True, 'loadedTime': 1651.6000000089407, 'positionName': 'CENTER', 'positionCoords': [563.5, 227.5]}]",Rate how much you want to eat this food from 0 (least) to 10 (most).,10790.40000000596,1669831140858,veggieswithdip,1161.7000000029802,True,3.98,11952.10000000894,1161.7000000029802,True,HRV,HRV_0141,2022-11-30 18:00:02
9,"[{'imgObject': {}, 'id': 'steak', 'src': '/static/foodstim60/steak.jpg', 'key': 'NaN', 'origWidth': 410, 'origHeight': 410, 'width': 410, 'height': 410, 'widthPercent': 0.8, 'rescaleHeight': True, 'trialN': 9, 'loaded': True, 'loadedTime': 1652, 'positionName': 'CENTER', 'positionCoords': [563, 227]}]",Rate how much you want to eat this food from 0 (least) to 10 (most).,11953.10000000894,1669831142021,steak,1763.0,True,8.38,13716.10000000894,1763.0,True,HRV,HRV_0141,2022-11-30 18:00:02
10,"[{'imgObject': {}, 'id': 'Tribe humus pita', 'src': '/static/foodstim60/Tribe humus pita.jpg', 'key': 'NaN', 'origWidth': 411, 'origHeight': 411, 'width': 411, 'height': 411, 'widthPercent': 0.8, 'rescaleHeight': True, 'trialN': 10, 'loaded': True, 'loadedTime': 1652.4000000059605, 'positionName': 'CENTER', 'positionCoords': [562.5, 226.5]}]",Rate how much you want to eat this food from 0 (least) to 10 (most).,13717.0,1669831143785,Tribe humus pita,1354.7000000029802,True,1.26,15071.70000000298,1354.7000000029802,True,HRV,HRV_0141,2022-11-30 18:00:02
11,"[{'imgObject': {}, 'id': 'apple slices', 'src': '/static/foodstim60/apple slices.jpg', 'key': 'NaN', 'origWidth': 409, 'origHeight': 410, 'width': 409, 'height': 410, 'widthPercent': 0.8, 'rescaleHeight': True, 'trialN': 11, 'loaded': True, 'loadedTime': 1652.7000000029802, 'positionName': 'CENTER', 'positionCoords': [563.5, 227]}]",Rate how much you want to eat this food from 0 (least) to 10 (most).,15072.5,1669831145141,apple slices,1143.6000000089407,True,8.950000000000001,16216.10000000894,1143.6000000089407,True,HRV,HRV_0141,2022-11-30 18:00:02
12,"[{'imgObject': {}, 'id': 'chickenfingers', 'src': '/static/foodstim60/chickenfingers.jpg', 'key': 'NaN', 'origWidth': 410, 'origHeight': 410, 'width': 410, 'height': 410, 'widthPercent': 0.8, 'rescaleHeight': True, 'trialN': 12, 'loaded': True, 'loadedTime': 1652.9000000059605, 'positionName': 'CENTER', 'positionCoords': [563, 227]}]",Rate how much you want to eat this food from 0 (least) to 10 (most).,16217.10000000894,1669831146285,chickenfingers,1857.2000000029802,True,9.19,18074.30000001192,1857.2000000029802,True,HRV,HRV_0141,2022-11-30 18:00:02
13,"[{'imgObject': {}, 'id': 'raspberries', 'src': '/static/foodstim60/raspberries.jpg', 'key': 'NaN', 'origWidth': 411, 'origHeight': 411, 'width': 411, 'height': 411, 'widthPercent': 0.8, 'rescaleHeight': True, 'trialN': 13, 'loaded': True, 'loadedTime': 1653.2000000029802, 'positionName': 'CENTER', 'positionCoords': [562.5, 226.5]}]",Rate how much you want to eat this food from 0 (least) to 10 (most).,18076.10000000894,1669831148144,raspberries,1275.7999999970198,True,6.79,19351.90000000596,1275.7999999970198,True,HRV,HRV_0141,2022-11-30 18:00:02
14,"[{'imgObject': {}, 'id': 'eggs', 'src': '/static/foodstim60/eggs.jpg', 'key': 'NaN', 'origWidth': 409, 'origHeight': 409, 'width': 409, 'height': 409, 'widthPercent': 0.8, 'rescaleHeight': True, 'trialN': 14, 'loaded': True, 'loadedTime': 1653.4000000059605, 'positionName': 'CENTER', 'positionCoords': [563.5, 227.5]}]",Rate how much you want to eat this food from 0 (least) to 10 (most).,19353.20000000298,1669831149421,eggs,1044.2000000029802,True,5.79,20397.40000000596,1044.2000000029802,True,HRV,HRV_0141,2022-11-30 18:00:02
15,"[{'imgObject': {}, 'id': 'cocktailshrimp', 'src': '/static/foodstim60/cocktailshrimp.jpg', 'key': 'NaN', 'origWidth': 410, 'origHeight': 410, 'width': 410, 'height': 410, 'widthPercent': 0.8, 'rescaleHeight': True, 'trialN': 15, 'loaded': True, 'loadedTime': 1653.7000000029802, 'positionName': 'CENTER', 'positionCoords': [563, 227]}]",Rate how much you want to eat this food from 0 (least) to 10 (most).,20398.5,1669831150467,cocktailshrimp,927.1000000089407,True,6.92,21325.60000000894,927.1000000089407,True,HRV,HRV_0141,2022-11-30 18:00:02
16,"[{'imgObject': {}, 'id': 'olives', 'src': '/static/foodstim60/olives.jpg', 'key': 'NaN', 'origWidth': 410, 'origHeight': 410, 'width': 410, 'height': 410, 'widthPercent': 0.8, 'rescaleHeight': True, 'trialN': 16, 'loaded': True, 'loadedTime': 1653.9000000059605, 'positionName': 'CENTER', 'positionCoords': [563, 227]}]",Rate how much you want to eat this food from 0 (least) to 10 (most).,21326.5,1669831151395,olives,1603.6000000089407,True,0.05,22930.10000000894,1603.6000000089407,True,HRV,HRV_0141,2022-11-30 18:00:02
17,"[{'imgObject': {}, 'id': 'luckycharms', 'src': '/static/foodstim60/luckycharms.jpg', 'key': 'NaN', 'origWidth': 410, 'origHeight': 409, 'width': 410, 'height': 409, 'widthPercent': 0.8, 'rescaleHeight': True, 'trialN': 17, 'loaded': True, 'loadedTime': 1654.2000000029802, 'positionName': 'CENTER', 'positionCoords': [563, 227.5]}]",Rate how much you want to eat this food from 0 (least) to 10 (most).,22931.0,1669831152999,luckycharms,910.7000000029802,True,0.36,23841.70000000298,910.7000000029802,True,HRV,HRV_0141,2022-11-30 18:00:02
18,"[{'imgObject': {}, 'id': 'banana', 'src': '/static/foodstim60/banana.jpg', 'key': 'NaN', 'origWidth': 410, 'origHeight': 410, 'width': 410, 'height': 410, 'widthPercent': 0.8, 'rescaleHeight': True, 'trialN': 18, 'loaded': True, 'loadedTime': 1654.6000000089407, 'positionName': 'CENTER', 'positionCoords': [563, 227]}]",Rate how much you want to eat this food from 0 (least) to 10 (most).,23842.80000001192,1669831153911,banana,1028.8999999910593,True,2.0300000000000002,24871.70000000298,1028.8999999910593,True,HRV,HRV_0141,2022-11-30 18:00:02
19,"[{'imgObject': {}, 'id': 'bagel plain', 'src': '/static/foodstim60/bagel plain.jpg', 'key': 'NaN', 'origWidth': 410, 'origHeight': 410, 'width': 410, 'height': 410, 'widthPercent': 0.8, 'rescaleHeight': True, 'trialN': 19, 'loaded': True, 'loadedTime': 1654.9000000059605, 'positionName': 'CENTER', 'positionCoords': [563, 227]}]",Rate how much you want to eat this food from 0 (least) to 10 (most).,24872.5,1669831154941,bagel plain,1059.6000000089407,True,0.26,25932.10000000894,1059.6000000089407,True,HRV,HRV_0141,2022-11-30 18:00:02
20,"[{'imgObject': {}, 'id': 'edamame', 'src': '/static/foodstim60/edamame.jpg', 'key': 'NaN', 'origWidth': 409, 'origHeight': 410, 'width': 409, 'height': 410, 'widthPercent': 0.8, 'rescaleHeight': True, 'trialN': 20, 'loaded': True, 'loadedTime': 1655.2000000029802, 'positionName': 'CENTER', 'positionCoords': [563.5, 227]}]",Rate how much you want to eat this food from 0 (least) to 10 (most).,25933.10000000894,1669831156001,edamame,1107.5999999940395,True,2.04,27040.70000000298,1107.5999999940395,True,HRV,HRV_0141,2022-11-30 18:00:02
21,"[{'imgObject': {}, 'id': 'hashbrowns', 'src': '/static/foodstim60/hashbrowns.jpg', 'key': 'NaN', 'origWidth': 411, 'origHeight': 410, 'width': 411, 'height': 410, 'widthPercent': 0.8, 'rescaleHeight': True, 'trialN': 21, 'loaded': True, 'loadedTime': 1655.4000000059605, 'positionName': 'CENTER', 'positionCoords': [562.5, 227]}]",Rate how much you want to eat this food from 0 (least) to 10 (most).,27041.5,1669831157110,hashbrowns,1020.6000000089407,True,0.28,28062.10000000894,1020.6000000089407,True,HRV,HRV_0141,2022-11-30 18:00:02
22,"[{'imgObject': {}, 'id': 'cherries', 'src': '/static/foodstim60/cherries.jpg', 'key': 'NaN', 'origWidth': 410, 'origHeight': 411, 'width': 410, 'height': 411, 'widthPercent': 0.8, 'rescaleHeight': True, 'trialN': 22, 'loaded': True, 'loadedTime': 1655.800000011921, 'positionName': 'CENTER', 'positionCoords': [563, 226.5]}]",Rate how much you want to eat this food from 0 (least) to 10 (most).,28063.10000000894,1669831158131,cherries,1268.5,True,6.3,29331.60000000894,1268.5,True,HRV,HRV_0141,2022-11-30 18:00:02
23,"[{'imgObject': {}, 'id': 'baked potato', 'src': '/static/foodstim60/baked potato.jpg', 'key': 'NaN', 'origWidth': 409, 'origHeight': 410, 'width': 409, 'height': 410, 'widthPercent': 0.8, 'rescaleHeight': True, 'trialN': 23, 'loaded': True, 'loadedTime': 1656, 'positionName': 'CENTER', 'positionCoords': [563.5, 227]}]",Rate how much you want to eat this food from 0 (least) to 10 (most).,29332.70000000298,1669831159401,baked potato,1088.9000000059605,True,1.71,30421.60000000894,1088.9000000059605,True,HRV,HRV_0141,2022-11-30 18:00:02
24,"[{'imgObject': {}, 'id': 'cheerios', 'src': '/static/foodstim60/cheerios.jpg', 'key': 'NaN', 'origWidth': 409, 'origHeight': 410, 'width': 409, 'height': 410, 'widthPercent': 0.8, 'rescaleHeight': True, 'trialN': 24, 'loaded': True, 'loadedTime': 1656.2000000029802, 'positionName': 'CENTER', 'positionCoords': [563.5, 227]}]",Rate how much you want to eat this food from 0 (least) to 10 (most).,30423.10000000894,1669831160491,cheerios,1578.5999999940395,True,0.2,32001.70000000298,1578.5999999940395,True,HRV,HRV_0141,2022-11-30 18:00:02
25,"[{'imgObject': {}, 'id': 'salmon', 'src': '/static/foodstim60/salmon.jpg', 'key': 'NaN', 'origWidth': 410, 'origHeight': 409, 'width': 410, 'height': 409, 'widthPercent': 0.8, 'rescaleHeight': True, 'trialN': 25, 'loaded': True, 'loadedTime': 1656.300000011921, 'positionName': 'CENTER', 'positionCoords': [563, 227.5]}]",Rate how much you want to eat this food from 0 (least) to 10 (most).,32002.70000000298,1669831162071,salmon,1493.4000000059605,True,9.83,33496.10000000894,1493.4000000059605,True,HRV,HRV_0141,2022-11-30 18:00:02
26,"[{'imgObject': {}, 'id': 'strawberries', 'src': '/static/foodstim60/strawberries.jpg', 'key': 'NaN', 'origWidth': 410, 'origHeight': 410, 'width': 410, 'height': 410, 'widthPercent': 0.8, 'rescaleHeight': True, 'trialN': 26, 'loaded': True, 'loadedTime': 1656.4000000059605, 'positionName': 'CENTER', 'positionCoords': [563, 227]}]",Rate how much you want to eat this food from 0 (least) to 10 (most).,33497.20000000298,1669831163565,strawberries,1012.9000000059605,True,6.88,34510.10000000894,1012.9000000059605,True,HRV,HRV_0141,2022-11-30 18:00:02
27,"[{'imgObject': {}, 'id': 'fruitsalad', 'src': '/static/foodstim60/fruitsalad.jpg', 'key': 'NaN', 'origWidth': 410, 'origHeight': 410, 'width': 410, 'height': 410, 'widthPercent': 0.8, 'rescaleHeight': True, 'trialN': 27, 'loaded': True, 'loadedTime': 1656.5, 'positionName': 'CENTER', 'positionCoords': [563, 227]}]",Rate how much you want to eat this food from 0 (least) to 10 (most).,34511.30000001192,1669831164579,fruitsalad,805.7999999970198,True,8.43,35317.10000000894,805.7999999970198,True,HRV,HRV_0141,2022-11-30 18:00:02
28,"[{'imgObject': {}, 'id': 'popsicles', 'src': '/static/foodstim60/popsicles.jpg', 'key': 'NaN', 'origWidth': 410, 'origHeight': 410, 'width': 410, 'height': 410, 'widthPercent': 0.8, 'rescaleHeight': True, 'trialN': 28, 'loaded': True, 'loadedTime': 1656.6000000089407, 'positionName': 'CENTER', 'positionCoords': [563, 227]}]",Rate how much you want to eat this food from 0 (least) to 10 (most).,35318.0,1669831165386,popsicles,925.9000000059605,True,8.97,36243.90000000596,925.9000000059605,True,HRV,HRV_0141,2022-11-30 18:00:02
29,"[{'imgObject': {}, 'id': 'lox', 'src': '/static/foodstim60/lox.jpg', 'key': 'NaN', 'origWidth': 410, 'origHeight': 411, 'width': 410, 'height': 411, 'widthPercent': 0.8, 'rescaleHeight': True, 'trialN': 29, 'loaded': True, 'loadedTime': 1656.800000011921, 'positionName': 'CENTER', 'positionCoords': [563, 226.5]}]",Rate how much you want to eat this food from 0 (least) to 10 (most).,36245.0,1669831166312,lox,1414.800000011921,True,6.17,37659.80000001192,1414.800000011921,True,HRV,HRV_0141,2022-11-30 18:00:02
30,"[{'imgObject': {}, 'id': 'tacos', 'src': '/static/foodstim60/tacos.jpg', 'key': 'NaN', 'origWidth': 411, 'origHeight': 411, 'width': 411, 'height': 411, 'widthPercent': 0.8, 'rescaleHeight': True, 'trialN': 30, 'loaded': True, 'loadedTime': 1656.9000000059605, 'positionName': 'CENTER', 'positionCoords': [562.5, 226.5]}]",Rate how much you want to eat this food from 0 (least) to 10 (most).,37660.80000001192,1669831167728,tacos,1355.2999999970198,True,0.67,39016.10000000894,1355.2999999970198,True,HRV,HRV_0141,2022-11-30 18:00:02
31,"[{'imgObject': {}, 'id': 'grilled chicken strips', 'src': '/static/foodstim60/grilled chicken strips.jpg', 'key': 'NaN', 'origWidth': 410, 'origHeight': 411, 'width': 410, 'height': 411, 'widthPercent': 0.8, 'rescaleHeight': True, 'trialN': 31, 'loaded': True, 'loadedTime': 1657, 'positionName': 'CENTER', 'positionCoords': [563, 226.5]}]",Rate how much you want to eat this food from 0 (least) to 10 (most).,39017.0,1669831169084,grilled chicken strips,1562.7000000029802,True,7.5,40579.70000000298,1562.7000000029802,True,HRV,HRV_0141,2022-11-30 18:00:02
32,"[{'imgObject': {}, 'id': 'blueberries', 'src': '/static/foodstim60/blueberries.jpg', 'key': 'NaN', 'origWidth': 411, 'origHeight': 411, 'width': 411, 'height': 411, 'widthPercent': 0.8, 'rescaleHeight': True, 'trialN': 32, 'loaded': True, 'loadedTime': 1657, 'positionName': 'CENTER', 'positionCoords': [562.5, 226.5]}]",Rate how much you want to eat this food from 0 (least) to 10 (most).,40580.60000000894,1669831170648,blueberries,959.0,True,5.53,41539.60000000894,959.0,True,HRV,HRV_0141,2022-11-30 18:00:02
33,"[{'imgObject': {}, 'id': 'yogurt no spoon', 'src': '/static/foodstim60/yogurt no spoon.jpg', 'key': 'NaN', 'origWidth': 411, 'origHeight': 410, 'width': 411, 'height': 410, 'widthPercent': 0.8, 'rescaleHeight': True, 'trialN': 33, 'loaded': True, 'loadedTime': 1657.2000000029802, 'positionName': 'CENTER', 'positionCoords': [562.5, 227]}]",Rate how much you want to eat this food from 0 (least) to 10 (most).,41540.5,1669831171608,yogurt no spoon,1353.5,True,0.53,42894.0,1353.5,True,HRV,HRV_0141,2022-11-30 18:00:02
34,"[{'imgObject': {}, 'id': 'corn cob', 'src': '/static/foodstim60/corn cob.jpg', 'key': 'NaN', 'origWidth': 411, 'origHeight': 411, 'width': 411, 'height': 411, 'widthPercent': 0.8, 'rescaleHeight': True, 'trialN': 34, 'loaded': True, 'loadedTime': 1657.2000000029802, 'positionName': 'CENTER', 'positionCoords': [562.5, 226.5]}]",Rate how much you want to eat this food from 0 (least) to 10 (most).,42895.0,1669831172962,corn cob,1360.800000011921,True,5.69,44255.80000001192,1360.800000011921,True,HRV,HRV_0141,2022-11-30 18:00:02
35,"[{'imgObject': {}, 'id': 'salad w chicken', 'src': '/static/foodstim60/salad w chicken.jpg', 'key': 'NaN', 'origWidth': 411, 'origHeight': 411, 'width': 411, 'height': 411, 'widthPercent': 0.8, 'rescaleHeight': True, 'trialN': 35, 'loaded': True, 'loadedTime': 1657.300000011921, 'positionName': 'CENTER', 'positionCoords': [562.5, 226.5]}]",Rate how much you want to eat this food from 0 (least) to 10 (most).,44256.90000000596,1669831174324,salad w chicken,1470.9000000059605,True,3.34,45727.80000001192,1470.9000000059605,True,HRV,HRV_0141,2022-11-30 18:00:02
36,"[{'imgObject': {}, 'id': 'eggsalad', 'src': '/static/foodstim60/eggsalad.jpg', 'key': 'NaN', 'origWidth': 410, 'origHeight': 409, 'width': 410, 'height': 409, 'widthPercent': 0.8, 'rescaleHeight': True, 'trialN': 36, 'loaded': True, 'loadedTime': 1657.4000000059605, 'positionName': 'CENTER', 'positionCoords': [563, 227.5]}]",Rate how much you want to eat this food from 0 (least) to 10 (most).,45728.80000001192,1669831175796,eggsalad,935.2999999970198,True,1.47,46664.10000000894,935.2999999970198,True,HRV,HRV_0141,2022-11-30 18:00:02
37,"[{'imgObject': {}, 'id': 'sweetpotato', 'src': '/static/foodstim60/sweetpotato.jpg', 'key': 'NaN', 'origWidth': 410, 'origHeight': 410, 'width': 410, 'height': 410, 'widthPercent': 0.8, 'rescaleHeight': True, 'trialN': 37, 'loaded': True, 'loadedTime': 1657.4000000059605, 'positionName': 'CENTER', 'positionCoords': [563, 227]}]",Rate how much you want to eat this food from 0 (least) to 10 (most).,46665.10000000894,1669831176732,sweetpotato,942.8999999910593,True,2.05,47608.0,942.8999999910593,True,HRV,HRV_0141,2022-11-30 18:00:02
38,"[{'imgObject': {}, 'id': 'turkeysandwich', 'src': '/static/foodstim60/turkeysandwich.jpg', 'key': 'NaN', 'origWidth': 409, 'origHeight': 409, 'width': 409, 'height': 409, 'widthPercent': 0.8, 'rescaleHeight': True, 'trialN': 38, 'loaded': True, 'loadedTime': 1657.6000000089407, 'positionName': 'CENTER', 'positionCoords': [563.5, 227.5]}]",Rate how much you want to eat this food from 0 (least) to 10 (most).,47609.0,1669831177676,turkeysandwich,1029.4000000059605,True,4.19,48638.40000000596,1029.4000000059605,True,HRV,HRV_0141,2022-11-30 18:00:02
39,"[{'imgObject': {}, 'id': 'omelette', 'src': '/static/foodstim60/omelette.jpg', 'key': 'NaN', 'origWidth': 410, 'origHeight': 409, 'width': 410, 'height': 409, 'widthPercent': 0.8, 'rescaleHeight': True, 'trialN': 39, 'loaded': True, 'loadedTime': 1657.6000000089407, 'positionName': 'CENTER', 'positionCoords': [563, 227.5]}]",Rate how much you want to eat this food from 0 (least) to 10 (most).,48639.30000001192,1669831178707,omelette,812.6999999880791,True,1.51,49452.0,812.6999999880791,True,HRV,HRV_0141,2022-11-30 18:00:02
40,"[{'imgObject': {}, 'id': 'rigatoni', 'src': '/static/foodstim60/rigatoni.jpg', 'key': 'NaN', 'origWidth': 411, 'origHeight': 411, 'width': 411, 'height': 411, 'widthPercent': 0.8, 'rescaleHeight': True, 'trialN': 40, 'loaded': True, 'loadedTime': 1657.800000011921, 'positionName': 'CENTER', 'positionCoords': [562.5, 226.5]}]",Rate how much you want to eat this food from 0 (least) to 10 (most).,49453.20000000298,1669831179520,rigatoni,1492.4000000059605,True,0.14,50945.60000000894,1492.4000000059605,True,HRV,HRV_0141,2022-11-30 18:00:02
41,"[{'imgObject': {}, 'id': 'roastedpotatoes', 'src': '/static/foodstim60/roastedpotatoes.jpg', 'key': 'NaN', 'origWidth': 409, 'origHeight': 410, 'width': 409, 'height': 410, 'widthPercent': 0.8, 'rescaleHeight': True, 'trialN': 41, 'loaded': True, 'loadedTime': 1657.800000011921, 'positionName': 'CENTER', 'positionCoords': [563.5, 227]}]",Rate how much you want to eat this food from 0 (least) to 10 (most).,50946.70000000298,1669831181014,roastedpotatoes,1136.7000000029802,True,6.18,52083.40000000596,1136.7000000029802,True,HRV,HRV_0141,2022-11-30 18:00:02
42,"[{'imgObject': {}, 'id': 'sushi w_condiments', 'src': '/static/foodstim60/sushi w_condiments.jpg', 'key': 'NaN', 'origWidth': 410, 'origHeight': 410, 'width': 410, 'height': 410, 'widthPercent': 0.8, 'rescaleHeight': True, 'trialN': 42, 'loaded': True, 'loadedTime': 1658, 'positionName': 'CENTER', 'positionCoords': [563, 227]}]",Rate how much you want to eat this food from 0 (least) to 10 (most).,52084.5,1669831182152,sushi w_condiments,973.6000000089407,True,7.26,53058.10000000894,973.6000000089407,True,HRV,HRV_0141,2022-11-30 18:00:02
43,"[{'imgObject': {}, 'id': 'mashed potato', 'src': '/static/foodstim60/mashed potato.jpg', 'key': 'NaN', 'origWidth': 409, 'origHeight': 409, 'width': 409, 'height': 409, 'widthPercent': 0.8, 'rescaleHeight': True, 'trialN': 43, 'loaded': True, 'loadedTime': 1658.1000000089407, 'positionName': 'CENTER', 'positionCoords': [563.5, 227.5]}]",Rate how much you want to eat this food from 0 (least) to 10 (most).,53059.20000000298,1669831183127,mashed potato,1376.6000000089407,True,0.92,54435.80000001192,1376.6000000089407,True,HRV,HRV_0141,2022-11-30 18:00:02
44,"[{'imgObject': {}, 'id': 'pear', 'src': '/static/foodstim60/pear.jpg', 'key': 'NaN', 'origWidth': 411, 'origHeight': 410, 'width': 411, 'height': 410, 'widthPercent': 0.8, 'rescaleHeight': True, 'trialN': 44, 'loaded': True, 'loadedTime': 1658.2000000029802, 'positionName': 'CENTER', 'positionCoords': [562.5, 227]}]",Rate how much you want to eat this food from 0 (least) to 10 (most).,54437.0,1669831184504,pear,1168.5,True,6.94,55605.5,1168.5,True,HRV,HRV_0141,2022-11-30 18:00:02
45,"[{'imgObject': {}, 'id': 'raisin bran w milk', 'src': '/static/foodstim60/raisin bran w milk.jpg', 'key': 'NaN', 'origWidth': 411, 'origHeight': 411, 'width': 411, 'height': 411, 'widthPercent': 0.8, 'rescaleHeight': True, 'trialN': 45, 'loaded': True, 'loadedTime': 1658.300000011921, 'positionName': 'CENTER', 'positionCoords': [562.5, 226.5]}]",Rate how much you want to eat this food from 0 (least) to 10 (most).,55606.40000000596,1669831185674,raisin bran w milk,1207.0999999940395,True,0.26,56813.5,1207.0999999940395,True,HRV,HRV_0141,2022-11-30 18:00:02
46,"[{'imgObject': {}, 'id': 'rigatoni and sauce', 'src': '/static/foodstim60/rigatoni and sauce.jpg', 'key': 'NaN', 'origWidth': 410, 'origHeight': 411, 'width': 410, 'height': 411, 'widthPercent': 0.8, 'rescaleHeight': True, 'trialN': 46, 'loaded': True, 'loadedTime': 1658.300000011921, 'positionName': 'CENTER', 'positionCoords': [563, 226.5]}]",Rate how much you want to eat this food from 0 (least) to 10 (most).,56814.30000001192,1669831186882,rigatoni and sauce,1021.5,True,2.0300000000000002,57835.80000001192,1021.5,True,HRV,HRV_0141,2022-11-30 18:00:02
47,"[{'imgObject': {}, 'id': 'froot loops w milk', 'src': '/static/foodstim60/froot loops w milk.jpg', 'key': 'NaN', 'origWidth': 410, 'origHeight': 410, 'width': 410, 'height': 410, 'widthPercent': 0.8, 'rescaleHeight': True, 'trialN': 47, 'loaded': True, 'loadedTime': 1658.5, 'positionName': 'CENTER', 'positionCoords': [563, 227]}]",Rate how much you want to eat this food from 0 (least) to 10 (most).,57836.80000001192,1669831187904,froot loops w milk,1237.199999988079,True,0.29,59074.0,1237.199999988079,True,HRV,HRV_0141,2022-11-30 18:00:02
48,"[{'imgObject': {}, 'id': 'mac & cheese', 'src': '/static/foodstim60/mac & cheese.jpg', 'key': 'NaN', 'origWidth': 410, 'origHeight': 410, 'width': 410, 'height': 410, 'widthPercent': 0.8, 'rescaleHeight': True, 'trialN': 48, 'loaded': True, 'loadedTime': 1658.6000000089407, 'positionName': 'CENTER', 'positionCoords': [563, 227]}]",Rate how much you want to eat this food from 0 (least) to 10 (most).,59075.70000000298,1669831189143,mac & cheese,755.7999999970198,True,1.1400000000000001,59831.5,755.7999999970198,True,HRV,HRV_0141,2022-11-30 18:00:02
49,"[{'imgObject': {}, 'id': 'blackbeanswithrice', 'src': '/static/foodstim60/blackbeanswithrice.jpg', 'key': 'NaN', 'origWidth': 410, 'origHeight': 410, 'width': 410, 'height': 410, 'widthPercent': 0.8, 'rescaleHeight': True, 'trialN': 49, 'loaded': True, 'loadedTime': 1658.7000000029802, 'positionName': 'CENTER', 'positionCoords': [563, 227]}]",Rate how much you want to eat this food from 0 (least) to 10 (most).,59832.40000000596,1669831189900,blackbeanswithrice,1525.7000000029802,True,0.02,61358.10000000894,1525.7000000029802,True,HRV,HRV_0141,2022-11-30 18:00:02
50,"[{'imgObject': {}, 'id': 'shreddedwheatwithmilk', 'src': '/static/foodstim60/shreddedwheatwithmilk.jpg', 'key': 'NaN', 'origWidth': 410, 'origHeight': 410, 'width': 410, 'height': 410, 'widthPercent': 0.8, 'rescaleHeight': True, 'trialN': 50, 'loaded': True, 'loadedTime': 1658.800000011921, 'positionName': 'CENTER', 'positionCoords': [563, 227]}]",Rate how much you want to eat this food from 0 (least) to 10 (most).,61359.0,1669831191426,shreddedwheatwithmilk,789.1000000089407,True,0.18,62148.10000000894,789.1000000089407,True,HRV,HRV_0141,2022-11-30 18:00:02
51,"[{'imgObject': {}, 'id': 'burrito', 'src': '/static/foodstim60/burrito.jpg', 'key': 'NaN', 'origWidth': 410, 'origHeight': 410, 'width': 410, 'height': 410, 'widthPercent': 0.8, 'rescaleHeight': True, 'trialN': 51, 'loaded': True, 'loadedTime': 1658.9000000059605, 'positionName': 'CENTER', 'positionCoords': [563, 227]}]",Rate how much you want to eat this food from 0 (least) to 10 (most).,62149.0,1669831192216,burrito,1360.5,True,3.39,63509.5,1360.5,True,HRV,HRV_0141,2022-11-30 18:00:02
52,"[{'imgObject': {}, 'id': 'cantaloupe', 'src': '/static/foodstim60/cantaloupe.jpg', 'key': 'NaN', 'origWidth': 409, 'origHeight': 409, 'width': 409, 'height': 409, 'widthPercent': 0.8, 'rescaleHeight': True, 'trialN': 52, 'loaded': True, 'loadedTime': 1659, 'positionName': 'CENTER', 'positionCoords': [563.5, 227.5]}]",Rate how much you want to eat this food from 0 (least) to 10 (most).,63510.30000001192,1669831193578,cantaloupe,851.7999999970198,True,6.92,64362.10000000894,851.7999999970198,True,HRV,HRV_0141,2022-11-30 18:00:02
53,"[{'imgObject': {}, 'id': 'orange slices', 'src': '/static/foodstim60/orange slices.jpg', 'key': 'NaN', 'origWidth': 409, 'origHeight': 410, 'width': 409, 'height': 410, 'widthPercent': 0.8, 'rescaleHeight': True, 'trialN': 53, 'loaded': True, 'loadedTime': 1659.1000000089407, 'positionName': 'CENTER', 'positionCoords': [563.5, 227]}]",Rate how much you want to eat this food from 0 (least) to 10 (most).,64363.20000000298,1669831194431,orange slices,842.9000000059605,True,7.18,65206.10000000894,842.9000000059605,True,HRV,HRV_0141,2022-11-30 18:00:02
54,"[{'imgObject': {}, 'id': 'burger', 'src': '/static/foodstim60/burger.jpg', 'key': 'NaN', 'origWidth': 409, 'origHeight': 409, 'width': 409, 'height': 409, 'widthPercent': 0.8, 'rescaleHeight': True, 'trialN': 54, 'loaded': True, 'loadedTime': 1659.300000011921, 'positionName': 'CENTER', 'positionCoords': [563.5, 227.5]}]",Rate how much you want to eat this food from 0 (least) to 10 (most).,65207.10000000894,1669831195274,burger,950.7000000029802,True,6.5600000000000005,66157.80000001192,950.7000000029802,True,HRV,HRV_0141,2022-11-30 18:00:02
55,"[{'imgObject': {}, 'id': 'granola w milk', 'src': '/static/foodstim60/granola w milk.jpg', 'key': 'NaN', 'origWidth': 410, 'origHeight': 410, 'width': 410, 'height': 410, 'widthPercent': 0.8, 'rescaleHeight': True, 'trialN': 55, 'loaded': True, 'loadedTime': 1659.300000011921, 'positionName': 'CENTER', 'positionCoords': [563, 227]}]",Rate how much you want to eat this food from 0 (least) to 10 (most).,66158.80000001192,1669831196226,granola w milk,1144.699999988079,True,0.02,67303.5,1144.699999988079,True,HRV,HRV_0141,2022-11-30 18:00:02
56,"[{'imgObject': {}, 'id': 'ice cream sundae 002', 'src': '/static/foodstim60/ice cream sundae 002.jpg', 'key': 'NaN', 'origWidth': 409, 'origHeight': 409, 'width': 409, 'height': 409, 'widthPercent': 0.8, 'rescaleHeight': True, 'trialN': 56, 'loaded': True, 'loadedTime': 1659.4000000059605, 'positionName': 'CENTER', 'positionCoords': [563.5, 227.5]}]",Rate how much you want to eat this food from 0 (least) to 10 (most).,67304.5,1669831197372,ice cream sundae 002,1013.0,True,2.91,68317.5,1013.0,True,HRV,HRV_0141,2022-11-30 18:00:02
57,"[{'imgObject': {}, 'id': 'mango', 'src': '/static/foodstim60/mango.jpg', 'key': 'NaN', 'origWidth': 411, 'origHeight': 411, 'width': 411, 'height': 411, 'widthPercent': 0.8, 'rescaleHeight': True, 'trialN': 57, 'loaded': True, 'loadedTime': 1659.5, 'positionName': 'CENTER', 'positionCoords': [562.5, 226.5]}]",Rate how much you want to eat this food from 0 (least) to 10 (most).,68319.0,1669831198386,mango,889.0,True,8.42,69208.0,889.0,True,HRV,HRV_0141,2022-11-30 18:00:02
58,"[{'imgObject': {}, 'id': 'cherry tomato', 'src': '/static/foodstim60/cherry tomato.jpg', 'key': 'NaN', 'origWidth': 410, 'origHeight': 410, 'width': 410, 'height': 410, 'widthPercent': 0.8, 'rescaleHeight': True, 'trialN': 58, 'loaded': True, 'loadedTime': 1659.5, 'positionName': 'CENTER', 'positionCoords': [563, 227]}]",Rate how much you want to eat this food from 0 (least) to 10 (most).,69209.10000000894,1669831199276,cherry tomato,1322.2999999970198,True,5.5200000000000005,70531.40000000596,1322.2999999970198,True,HRV,HRV_0141,2022-11-30 18:00:02
59,"[{'imgObject': {}, 'id': 'Grapes', 'src': '/static/foodstim60/Grapes.jpg', 'key': 'NaN', 'origWidth': 411, 'origHeight': 411, 'width': 411, 'height': 411, 'widthPercent': 0.8, 'rescaleHeight': True, 'trialN': 59, 'loaded': True, 'loadedTime': 1659.7000000029802, 'positionName': 'CENTER', 'positionCoords': [562.5, 226.5]}]",Rate how much you want to eat this food from 0 (least) to 10 (most).,70532.60000000894,1669831200600,Grapes,1021.0,True,5.96,71553.60000000894,1021.0,True,HRV,HRV_0141,2022-11-30 18:00:02
