success,trial_type,trial_index,time_elapsed,internal_node_id,Block,TrialNumber,TrialTime,trialTimeDiff,FPS_avg,FPS_med,FPS_mode,TrialDur,winResizeTime,rt,block,button_pressed,MotCoh,MotDir,ColCoh,Color,ChoiceKey,Choice,Accuracy,RT,nFrames,FPS,PPD,missTrial,missTrialMsg,onsetDelay,fullScreenExitTime,canvCenter,TrialType,Score,BlockTrial,stimulus,button_labels,exp,subjectId,date
True,fullscreen,0,1478,0.0-0.0,0.0,1.0,,,,,,,,,,,,,,,,,,,,,,,,,,,,,,,,HRV,HRV_0141,2022-11-30 18:15:36
,wl-check-fps,1,6485,0.0-1.0,0.0,2.0,"[2458.5, 2474.9, 2491.5, 2507.9, 2524.6, 2541.3, 2557.9, 2574.5, 2591.1, 2607.9, 2624.5, 2641.4, 2657.8, 2674.5, 2691.3, 2707.9, 2724.6, 2741.2, 2757.9, 2774.6, 2791.3, 2807.8, 2824.6, 2841.2, 2857.8, 2874.7, 2891.2, 2907.9, 2924.6, 2941.2, 2957.8, 2974.5, 2991.3, 3007.8, 3024.6, 3041.2, 3058, 3074.6, 3091.3, 3108, 3124.6, 3141.2, 3157.8, 3174.6, 3191.2, 3207.8, 3224.6, 3241.3, 3257.9, 3274.5, 3291.2, 3308, 3324.5, 3341.2, 3358, 3374.7, 3391.6, 3408.2, 3425, 3441.4, 3458.1, 3474.9, 3491.5, 3508.1, 3524.5, 3541.2, 3557.8, 3574.6, 3591.1, 3607.8, 3624.4, 3641.1, 3658, 3674.5, 3691.2, 3708, 3724.7, 3741.3, 3758, 3774.7, 3791.2, 3808, 3824.6, 3841.3, 3857.8, 3874.5, 3891.1, 3907.8, 3924.5, 3941.6, 3957.9, 3974.5, 3991.2, 4007.7, 4024.5, 4041.1, 4057.8, 4074.5, 4091.2, 4107.8, 4124.5, 4141.2, 4157.9, 4174.4, 4191.2, 4207.7, 4224.4, 4241.1, 4257.8, 4274.5, 4291.1, 4307.8, 4324.5, 4341.2, 4357.8, 4374.9, 4391.4, 4407.9, 4424.9, 4441.3, 4458, 4474.9, 4491.4, 4508, 4524.9, 4541.4, 4558.1, 4574.9, 4591.5, 4608.3, 4625, 4641.4, 4658, 4674.8, 4691.5, 4707.9, 4724.6, 4741.3, 4757.9, 4774.5, 4791.1, 4807.6, 4824.5, 4841.2, 4857.7, 4874.5, 4891.1, 4907.7, 4924.2, 4940.9, 4957.6, 4974.2, 4990.9, 5007.7, 5024.2, 5040.9, 5057.6, 5074.2, 5091, 5107.7, 5124.6, 5141, 5157.7, 5174.3, 5190.9, 5207.6, 5224.3, 5241, 5257.7, 5274.3, 5290.9, 5307.7, 5324.5, 5341.2, 5357.7, 5374.5, 5391.1, 5407.8, 5424.8, 5441.3, 5457.9, 5474.9, 5491.3, 5508, 5524.7, 5541.3, 5557.8, 5574.7, 5591.3, 5608, 5624.7, 5641.3, 5657.8, 5674.7, 5691.1, 5707.7, 5725.6, 5756.2, 5763.6, 5774.3, 5791.4, 5808.2, 5824.6, 5841, 5857.7, 5874.4, 5891, 5907.8, 5924.3, 5940.9, 5957.7, 5974.2, 5991, 6007.7, 6024.4, 6041, 6057.7, 6074.3, 6091, 6107.6, 6124.5, 6141.4, 6159.4, 6174.3, 6191, 6208, 6224.5, 6241.5, 6257.7, 6274.3, 6290.8, 6307.5, 6324.2, 6340.8, 6360.7, 6377.3, 6390.8, 6407.9, 6425.5, 6441, 6457.7, 6474.7, 6491.1, 6508.8, 6524.4, 6541.3, 6558.4, 6574.5, 6591, 6607.7, 6624.2, 6641, 6659.3, 6674.4, 6692.1, 6710.5, 6727, 6741.1, 6757.6, 6774.4, 6791.2, 6808.5, 6824.3, 6840.9, 6857.5, 6874.2, 6891, 6907.8, 6924.1, 6940.7, 6957.4, 6974.6, 6990.7, 7007.9, 7024.1, 7040.8, 7057.5, 7074.3, 7090.8, 7107.4, 7125.2, 7140.8, 7157.5, 7174.1, 7190.8, 7207.5, 7224.2, 7240.9, 7257.3, 7274.2, 7290.8, 7307.5, 7324.2, 7340.9, 7357.9, 7374.3, 7391.3, 7408.3, 7424.4, 7441.1]","[4.8, 16.4, 16.6, 16.4, 16.7, 16.7, 16.6, 16.6, 16.6, 16.8, 16.6, 16.9, 16.4, 16.7, 16.8, 16.6, 16.7, 16.6, 16.7, 16.7, 16.7, 16.5, 16.8, 16.6, 16.6, 16.9, 16.5, 16.7, 16.7, 16.6, 16.6, 16.7, 16.8, 16.5, 16.8, 16.6, 16.8, 16.6, 16.7, 16.7, 16.6, 16.6, 16.6, 16.8, 16.6, 16.6, 16.8, 16.7, 16.6, 16.6, 16.7, 16.8, 16.5, 16.7, 16.8, 16.7, 16.9, 16.6, 16.8, 16.4, 16.7, 16.8, 16.6, 16.6, 16.4, 16.7, 16.6, 16.8, 16.5, 16.7, 16.6, 16.7, 16.9, 16.5, 16.7, 16.8, 16.7, 16.6, 16.7, 16.7, 16.5, 16.8, 16.6, 16.7, 16.5, 16.7, 16.6, 16.7, 16.7, 17.1, 16.3, 16.6, 16.7, 16.5, 16.8, 16.6, 16.7, 16.7, 16.7, 16.6, 16.7, 16.7, 16.7, 16.5, 16.8, 16.5, 16.7, 16.7, 16.7, 16.7, 16.6, 16.7, 16.7, 16.7, 16.6, 17.1, 16.5, 16.5, 17, 16.4, 16.7, 16.9, 16.5, 16.6, 16.9, 16.5, 16.7, 16.8, 16.6, 16.8, 16.7, 16.4, 16.6, 16.8, 16.7, 16.4, 16.7, 16.7, 16.6, 16.6, 16.6, 16.5, 16.9, 16.7, 16.5, 16.8, 16.6, 16.6, 16.5, 16.7, 16.7, 16.6, 16.7, 16.8, 16.5, 16.7, 16.7, 16.6, 16.8, 16.7, 16.9, 16.4, 16.7, 16.6, 16.6, 16.7, 16.7, 16.7, 16.7, 16.6, 16.6, 16.8, 16.8, 16.7, 16.5, 16.8, 16.6, 16.7, 17, 16.5, 16.6, 17, 16.4, 16.7, 16.7, 16.6, 16.5, 16.9, 16.6, 16.7, 16.7, 16.6, 16.5, 16.9, 16.4, 16.6, 17.9, 30.6, 7.4, 10.7, 17.1, 16.8, 16.4, 16.4, 16.7, 16.7, 16.6, 16.8, 16.5, 16.6, 16.8, 16.5, 16.8, 16.7, 16.7, 16.6, 16.7, 16.6, 16.7, 16.6, 16.9, 16.9, 18, 14.9, 16.7, 17, 16.5, 17, 16.2, 16.6, 16.5, 16.7, 16.7, 16.6, 19.9, 16.6, 13.5, 17.1, 17.6, 15.5, 16.7, 17, 16.4, 17.7, 15.6, 16.9, 17.1, 16.1, 16.5, 16.7, 16.5, 16.8, 18.3, 15.1, 17.7, 18.4, 16.5, 14.1, 16.5, 16.8, 16.8, 17.3, 15.8, 16.6, 16.6, 16.7, 16.8, 16.8, 16.3, 16.6, 16.7, 17.2, 16.1, 17.2, 16.2, 16.7, 16.7, 16.8, 16.5, 16.6, 17.8, 15.6, 16.7, 16.6, 16.7, 16.7, 16.7, 16.7, 16.4, 16.9, 16.6, 16.7, 16.7, 16.7, 17, 16.4, 17, 17, 16.1, 16.7]",60.0,60.0,60.0,5004.0,[],,,,,,,,,,,,,,,,,,,,,,,,,HRV,HRV_0141,2022-11-30 18:15:36
,wl-html-keyboard-response,2,15215,0.0-2.0-0.0,0.0,3.0,,,,,,,,6712.0,0.0,0,,,,,,,,,,,,,,,,,,,,,,HRV,HRV_0141,2022-11-30 18:15:36
,wl-rdm,3,21914,0.0-3.0-0.0,0.0,4.0,,,,,,,[],,,,0.0,0.0,87.9,0.0,u,0.0,True,1103.3999999910593,67.0,60.0,40.0,False,,3000.0,[],"[768, 432]",ColorTask_Demo,,,,,HRV,HRV_0141,2022-11-30 18:15:36
,wl-rdm,4,26531,0.0-3.0-1.0,0.0,5.0,,,,,,,[],,,,0.0,0.0,87.9,1.0,i,1.0,True,542.0,33.0,60.0,40.0,False,,2000.0,[],"[768, 432]",ColorTask_Demo,,,,,HRV,HRV_0141,2022-11-30 18:15:36
,wl-html-keyboard-response,5,32154,0.0-3.0-2.0,0.0,6.0,,,,,,,,3611.5,0.0,1,,,,,,,,,,,,,,,,,,,,,,HRV,HRV_0141,2022-11-30 18:15:36
,wl-html-keyboard-response,6,40000,0.0-4.0-0.0,0.0,7.0,,,,,,,,5826.29999999702,0.0,0,,,,,,,,,,,,,,,,,,,,,,HRV,HRV_0141,2022-11-30 18:15:36
,wl-html-keyboard-response,7,48825,0.0-5.0-0.0,0.0,8.0,,,,,,,,6817.9000000059605,0.0,0,,,,,,,,,,,,,,,,,,,,,,HRV,HRV_0141,2022-11-30 18:15:36
,wl-rdm,8,51144,0.0-6.0-0.0,0.0,9.0,,,,,,,[],,,,,,56.4,1.0,i,1.0,True,911.8999999910593,55.0,60.0,40.0,False,,338.50498200172757,[],"[768, 432]",ColorTask,1.0,1.0,,,HRV,HRV_0141,2022-11-30 18:15:36
,wl-rdm,9,53360,0.0-6.1-0.1,0.0,10.0,,,,,,,[],,,,,,50.0,1.0,i,1.0,True,840.1000000089407,51.0,60.0,40.0,False,,289.97768244077946,[],"[768, 432]",ColorTask,2.0,2.0,,,HRV,HRV_0141,2022-11-30 18:15:36
,wl-rdm,10,55577,0.0-6.2-0.2,0.0,11.0,,,,,,,[],,,,,,50.0,1.0,u,0.0,False,810.1000000089407,49.0,60.0,40.0,False,,325.6429066044422,[],"[768, 432]",ColorTask,1.0,3.0,,,HRV,HRV_0141,2022-11-30 18:15:36
,wl-rdm,11,57960,0.0-6.3-0.3,0.0,12.0,,,,,,,[],,,,,,56.4,0.0,i,1.0,False,993.0999999940395,60.0,60.0,40.0,False,,318.4699132602308,[],"[768, 432]",ColorTask,0.0,4.0,,,HRV,HRV_0141,2022-11-30 18:15:36
,wl-rdm,12,60876,0.0-6.4-0.4,0.0,13.0,,,,,,,[],,,,,,56.4,0.0,i,1.0,False,1486.7000000178814,90.0,60.0,40.0,False,,342.16923735172577,[],"[768, 432]",ColorTask,-1.0,5.0,,,HRV,HRV_0141,2022-11-30 18:15:36
,wl-rdm,13,63060,0.0-6.5-0.5,0.0,14.0,,,,,,,[],,,,,,53.2,1.0,i,1.0,True,820.9000000059605,50.0,60.0,40.0,False,,276.55475262567955,[],"[768, 432]",ColorTask,0.0,6.0,,,HRV,HRV_0141,2022-11-30 18:15:36
,wl-rdm,14,65170,0.0-6.6-0.6,0.0,15.0,,,,,,,[],,,,,,73.6,1.0,i,1.0,True,710.7999999821186,43.0,60.0,40.0,False,,319.3512590322964,[],"[768, 432]",ColorTask,1.0,7.0,,,HRV,HRV_0141,2022-11-30 18:15:36
,wl-rdm,15,67187,0.0-6.7-0.7,0.0,16.0,,,,,,,[],,,,,,73.6,0.0,u,0.0,True,658.7000000029802,40.0,60.0,40.0,False,,268.1109852616168,[],"[768, 432]",ColorTask,2.0,8.0,,,HRV,HRV_0141,2022-11-30 18:15:36
,wl-rdm,16,69103,0.0-6.8-0.8,0.0,17.0,,,,,,,[],,,,,,62.5,1.0,i,1.0,True,509.29999999701977,31.0,60.0,40.0,False,,344.1769712444823,[],"[768, 432]",ColorTask,3.0,9.0,,,HRV,HRV_0141,2022-11-30 18:15:36
,wl-rdm,17,71135,0.0-6.9-0.9,0.0,18.0,,,,,,,[],,,,,,73.6,0.0,u,0.0,True,735.5,45.0,60.0,40.0,False,,211.35854640816703,[],"[768, 432]",ColorTask,4.0,10.0,,,HRV,HRV_0141,2022-11-30 18:15:36
,wl-rdm,18,73819,0.0-6.10-0.10,0.0,19.0,,,,,,,[],,,,,,62.5,0.0,i,1.0,False,1299.7000000029802,78.0,60.0,40.0,False,,315.9133108320118,[],"[768, 432]",ColorTask,3.0,11.0,,,HRV,HRV_0141,2022-11-30 18:15:36
,wl-rdm,19,75835,0.0-6.11-0.11,0.0,20.0,,,,,,,[],,,,,,87.9,1.0,i,1.0,True,679.8999999910593,41.0,60.0,40.0,False,,264.89634647552816,[],"[768, 432]",ColorTask,4.0,12.0,,,HRV,HRV_0141,2022-11-30 18:15:36
,wl-rdm,20,78585,0.0-6.12-0.12,0.0,21.0,,,,,,,[],,,,,,56.4,0.0,i,1.0,False,1408.6000000089407,85.0,60.0,40.0,False,,261.1666040819898,[],"[768, 432]",ColorTask,3.0,13.0,,,HRV,HRV_0141,2022-11-30 18:15:36
,wl-rdm,21,80818,0.0-6.13-0.13,0.0,22.0,,,,,,,[],,,,,,50.0,0.0,i,1.0,False,789.2000000029802,48.0,60.0,40.0,False,,350.0527578508354,[],"[768, 432]",ColorTask,2.0,14.0,,,HRV,HRV_0141,2022-11-30 18:15:36
,wl-rdm,22,83217,0.0-6.14-0.14,0.0,23.0,,,,,,,[],,,,,,53.2,0.0,u,0.0,True,1088.7999999970198,66.0,60.0,40.0,False,,229.62157300080872,[],"[768, 432]",ColorTask,3.0,15.0,,,HRV,HRV_0141,2022-11-30 18:15:36
,wl-rdm,23,85284,0.0-6.15-0.15,0.0,24.0,,,,,,,[],,,,,,62.5,0.0,u,0.0,True,658.9999999850988,40.0,60.0,40.0,False,,323.40793400866244,[],"[768, 432]",ColorTask,4.0,16.0,,,HRV,HRV_0141,2022-11-30 18:15:36
,wl-rdm,24,87467,0.0-6.16-0.16,0.0,25.0,,,,,,,[],,,,,,73.6,1.0,i,1.0,True,778.7999999970198,47.0,60.0,40.0,False,,349.30832562223634,[],"[768, 432]",ColorTask,5.0,17.0,,,HRV,HRV_0141,2022-11-30 18:15:36
,wl-rdm,25,89750,0.0-6.17-0.17,0.0,26.0,,,,,,,[],,,,,,53.2,0.0,i,1.0,False,977.5,59.0,60.0,40.0,False,,232.0957087588927,[],"[768, 432]",ColorTask,4.0,18.0,,,HRV,HRV_0141,2022-11-30 18:15:36
,wl-rdm,26,91566,0.0-6.18-0.18,0.0,27.0,,,,,,,[],,,,,,73.6,1.0,i,1.0,True,513.7999999970198,31.0,60.0,40.0,False,,229.3099284998376,[],"[768, 432]",ColorTask,5.0,19.0,,,HRV,HRV_0141,2022-11-30 18:15:36
,wl-rdm,27,93466,0.0-6.19-0.19,0.0,28.0,,,,,,,[],,,,,,50.0,1.0,i,1.0,True,598.6999999880791,36.0,60.0,40.0,False,,239.50497862677003,[],"[768, 432]",ColorTask,6.0,20.0,,,HRV,HRV_0141,2022-11-30 18:15:36
,wl-rdm,28,95449,0.0-6.20-0.20,0.0,29.0,,,,,,,[],,,,,,53.2,0.0,i,1.0,False,542.5999999940395,33.0,60.0,40.0,False,,353.0253996276259,[],"[768, 432]",ColorTask,5.0,21.0,,,HRV,HRV_0141,2022-11-30 18:15:36
,wl-rdm,29,97532,0.0-6.21-0.21,0.0,30.0,,,,,,,[],,,,,,53.2,0.0,u,0.0,True,776.7000000029802,47.0,60.0,40.0,False,,232.1175299770637,[],"[768, 432]",ColorTask,6.0,22.0,,,HRV,HRV_0141,2022-11-30 18:15:36
,wl-rdm,30,99581,0.0-6.22-0.22,0.0,31.0,,,,,,,[],,,,,,50.0,0.0,u,0.0,True,730.7000000029802,44.0,60.0,40.0,False,,235.13221717447192,[],"[768, 432]",ColorTask,7.0,23.0,,,HRV,HRV_0141,2022-11-30 18:15:36
,wl-rdm,31,101665,0.0-6.23-0.23,0.0,32.0,,,,,,,[],,,,,,56.4,0.0,u,0.0,True,609.5000000149012,37.0,60.0,40.0,False,,388.880647327208,[],"[768, 432]",ColorTask,8.0,24.0,,,HRV,HRV_0141,2022-11-30 18:15:36
,wl-rdm,32,104398,0.0-6.24-0.24,0.0,33.0,,,,,,,[],,,,,,56.4,1.0,i,1.0,True,1296.2999999821186,78.0,60.0,40.0,False,,362.05180188841723,[],"[768, 432]",ColorTask,9.0,25.0,,,HRV,HRV_0141,2022-11-30 18:15:36
,wl-rdm,33,106448,0.0-6.25-0.25,0.0,34.0,,,,,,,[],,,,,,73.6,0.0,u,0.0,True,603.6000000089407,37.0,60.0,40.0,False,,351.9836535475708,[],"[768, 432]",ColorTask,10.0,26.0,,,HRV,HRV_0141,2022-11-30 18:15:36
,wl-rdm,34,109198,0.0-6.26-0.26,0.0,35.0,,,,,,,[],,,,,,53.2,0.0,i,1.0,False,1444.1000000089407,87.0,60.0,40.0,False,,249.01108300686516,[],"[768, 432]",ColorTask,9.0,27.0,,,HRV,HRV_0141,2022-11-30 18:15:36
,wl-rdm,35,112314,0.0-6.27-0.27,0.0,36.0,,,,,,,[],,,,,,53.2,0.0,i,1.0,False,1791.2000000029802,108.0,60.0,40.0,False,,238.14501886937185,[],"[768, 432]",ColorTask,8.0,28.0,,,HRV,HRV_0141,2022-11-30 18:15:36
,wl-rdm,36,114796,0.0-6.28-0.28,0.0,37.0,,,,,,,[],,,,,,50.0,1.0,i,1.0,True,1088.5,66.0,60.0,40.0,False,,303.9670146850638,[],"[768, 432]",ColorTask,9.0,29.0,,,HRV,HRV_0141,2022-11-30 18:15:36
,wl-rdm,37,116696,0.0-6.29-0.29,0.0,38.0,,,,,,,[],,,,,,87.9,1.0,i,1.0,True,505.70000000298023,31.0,60.0,40.0,False,,305.7441681933182,[],"[768, 432]",ColorTask,10.0,30.0,,,HRV,HRV_0141,2022-11-30 18:15:36
,wl-rdm,38,118880,0.0-6.30-0.30,0.0,39.0,,,,,,,[],,,,,,73.6,0.0,u,0.0,True,769.0,47.0,60.0,40.0,False,,321.96398456256406,[],"[768, 432]",ColorTask,11.0,31.0,,,HRV,HRV_0141,2022-11-30 18:15:36
,wl-rdm,39,120812,0.0-6.31-0.31,0.0,40.0,,,,,,,[],,,,,,62.5,1.0,i,1.0,True,648.5000000149012,39.0,60.0,40.0,False,,212.83689678803216,[],"[768, 432]",ColorTask,12.0,32.0,,,HRV,HRV_0141,2022-11-30 18:15:36
,wl-rdm,40,123129,0.0-6.32-0.32,0.0,41.0,,,,,,,[],,,,,,50.0,0.0,i,1.0,False,972.8999999910593,59.0,60.0,40.0,False,,274.9733550776093,[],"[768, 432]",ColorTask,11.0,33.0,,,HRV,HRV_0141,2022-11-30 18:15:36
,wl-rdm,41,125116,0.0-6.33-0.33,0.0,42.0,,,,,,,[],,,,,,87.9,0.0,u,0.0,True,637.4000000059605,39.0,60.0,40.0,False,,274.7339671709424,[],"[768, 432]",ColorTask,12.0,34.0,,,HRV,HRV_0141,2022-11-30 18:15:36
,wl-rdm,42,127033,0.0-6.34-0.34,0.0,43.0,,,,,,,[],,,,,,53.2,1.0,i,1.0,True,619.5,38.0,60.0,40.0,False,,210.19205185210214,[],"[768, 432]",ColorTask,13.0,35.0,,,HRV,HRV_0141,2022-11-30 18:15:36
,wl-rdm,43,128882,0.0-6.35-0.35,0.0,44.0,,,,,,,[],,,,,,56.4,1.0,i,1.0,True,556.3000000119209,34.0,60.0,40.0,False,,207.97274058935594,[],"[768, 432]",ColorTask,14.0,36.0,,,HRV,HRV_0141,2022-11-30 18:15:36
,wl-rdm,44,130899,0.0-6.36-0.36,0.0,45.0,,,,,,,[],,,,,,50.0,0.0,i,1.0,False,702.5999999940395,43.0,60.0,40.0,False,,242.26676984983447,[],"[768, 432]",ColorTask,13.0,37.0,,,HRV,HRV_0141,2022-11-30 18:15:36
,wl-rdm,45,132832,0.0-6.37-0.37,0.0,46.0,,,,,,,[],,,,,,73.6,1.0,i,1.0,True,541.5000000149012,33.0,60.0,40.0,False,,331.9635006628338,[],"[768, 432]",ColorTask,14.0,38.0,,,HRV,HRV_0141,2022-11-30 18:15:36
,wl-rdm,46,135112,0.0-6.38-0.38,0.0,47.0,,,,,,,[],,,,,,56.4,0.0,i,1.0,False,853.3000000119209,52.0,60.0,40.0,False,,328.93260435424486,[],"[768, 432]",ColorTask,13.0,39.0,,,HRV,HRV_0141,2022-11-30 18:15:36
,wl-rdm,47,137365,0.0-6.39-0.39,0.0,48.0,,,,,,,[],,,,,,53.2,0.0,u,0.0,True,833.2999999970198,50.0,60.0,40.0,False,,345.91256334242456,[],"[768, 432]",ColorTask,14.0,40.0,,,HRV,HRV_0141,2022-11-30 18:15:36
,wl-rdm,48,139447,0.0-6.40-0.40,0.0,49.0,,,,,,,[],,,,,,87.9,1.0,i,1.0,True,612.4000000059605,37.0,60.0,40.0,False,,388.7347732495152,[],"[768, 432]",ColorTask,15.0,41.0,,,HRV,HRV_0141,2022-11-30 18:15:36
,wl-rdm,49,141397,0.0-6.41-0.41,0.0,50.0,,,,,,,[],,,,,,73.6,1.0,i,1.0,True,572.8999999910593,35.0,60.0,40.0,False,,292.0869630464446,[],"[768, 432]",ColorTask,16.0,42.0,,,HRV,HRV_0141,2022-11-30 18:15:36
,wl-rdm,50,143497,0.0-6.42-0.42,0.0,51.0,,,,,,,[],,,,,,53.2,1.0,i,1.0,True,809.1000000089407,49.0,60.0,40.0,False,,225.6667683802996,[],"[768, 432]",ColorTask,17.0,43.0,,,HRV,HRV_0141,2022-11-30 18:15:36
,wl-rdm,51,145564,0.0-6.43-0.43,0.0,52.0,,,,,,,[],,,,,,56.4,1.0,i,1.0,True,754.2999999970198,46.0,60.0,40.0,False,,218.10721026929227,[],"[768, 432]",ColorTask,18.0,44.0,,,HRV,HRV_0141,2022-11-30 18:15:36
,wl-rdm,52,147447,0.0-6.44-0.44,0.0,53.0,,,,,,,[],,,,,,56.4,0.0,u,0.0,True,593.2999999970198,36.0,60.0,40.0,False,,205.460483575133,[],"[768, 432]",ColorTask,19.0,45.0,,,HRV,HRV_0141,2022-11-30 18:15:36
,wl-rdm,53,149763,0.0-6.45-0.45,0.0,54.0,,,,,,,[],,,,,,73.6,0.0,u,0.0,True,1022.4000000059605,62.0,60.0,40.0,False,,217.78497302110884,[],"[768, 432]",ColorTask,20.0,46.0,,,HRV,HRV_0141,2022-11-30 18:15:36
,wl-rdm,54,151780,0.0-6.46-0.46,0.0,55.0,,,,,,,[],,,,,,53.2,1.0,i,1.0,True,664.8000000119209,40.0,60.0,40.0,False,,268.9925035643966,[],"[768, 432]",ColorTask,21.0,47.0,,,HRV,HRV_0141,2022-11-30 18:15:36
,wl-rdm,55,153796,0.0-6.47-0.47,0.0,56.0,,,,,,,[],,,,,,87.9,1.0,i,1.0,True,703.3000000119209,43.0,60.0,40.0,False,,220.01451047350332,[],"[768, 432]",ColorTask,22.0,48.0,,,HRV,HRV_0141,2022-11-30 18:15:36
,wl-rdm,56,155646,0.0-6.48-0.48,0.0,57.0,,,,,,,[],,,,,,87.9,0.0,u,0.0,True,560.0999999940395,34.0,60.0,40.0,False,,230.08927699681172,[],"[768, 432]",ColorTask,23.0,49.0,,,HRV,HRV_0141,2022-11-30 18:15:36
,wl-rdm,57,157562,0.0-6.49-0.49,0.0,58.0,,,,,,,[],,,,,,87.9,1.0,i,1.0,True,559.9000000059605,34.0,60.0,40.0,False,,280.97478610543266,[],"[768, 432]",ColorTask,24.0,50.0,,,HRV,HRV_0141,2022-11-30 18:15:36
,wl-rdm,58,159712,0.0-6.50-0.50,0.0,59.0,,,,,,,[],,,,,,50.0,1.0,i,1.0,True,873.9000000059605,53.0,60.0,40.0,False,,201.1279398212379,[],"[768, 432]",ColorTask,25.0,51.0,,,HRV,HRV_0141,2022-11-30 18:15:36
,wl-rdm,59,161662,0.0-6.51-0.51,0.0,60.0,,,,,,,[],,,,,,87.9,0.0,u,0.0,True,610.7000000178814,37.0,60.0,40.0,False,,275.21312953561653,[],"[768, 432]",ColorTask,26.0,52.0,,,HRV,HRV_0141,2022-11-30 18:15:36
,wl-rdm,60,163745,0.0-6.52-0.52,0.0,61.0,,,,,,,[],,,,,,73.6,0.0,u,0.0,True,613.8000000119209,37.0,60.0,40.0,False,,398.61952313340976,[],"[768, 432]",ColorTask,27.0,53.0,,,HRV,HRV_0141,2022-11-30 18:15:36
,wl-rdm,61,165911,0.0-6.53-0.53,0.0,62.0,,,,,,,[],,,,,,62.5,0.0,u,0.0,True,803.3000000119209,49.0,60.0,40.0,False,,275.06561172525244,[],"[768, 432]",ColorTask,28.0,54.0,,,HRV,HRV_0141,2022-11-30 18:15:36
,wl-rdm,62,168228,0.0-6.54-0.54,0.0,63.0,,,,,,,[],,,,,,56.4,0.0,i,1.0,False,999.6999999880791,60.0,60.0,40.0,False,,242.07439920594908,[],"[768, 432]",ColorTask,27.0,55.0,,,HRV,HRV_0141,2022-11-30 18:15:36
,wl-rdm,63,170611,0.0-6.55-0.55,0.0,64.0,,,,,,,[],,,,,,50.0,0.0,i,1.0,False,1115.5999999940395,67.0,60.0,40.0,False,,209.0144338971843,[],"[768, 432]",ColorTask,26.0,56.0,,,HRV,HRV_0141,2022-11-30 18:15:36
,wl-rdm,64,173360,0.0-6.56-0.56,0.0,65.0,,,,,,,[],,,,,,50.0,0.0,i,1.0,False,1457.9000000059605,88.0,60.0,40.0,False,,214.99152401422518,[],"[768, 432]",ColorTask,25.0,57.0,,,HRV,HRV_0141,2022-11-30 18:15:36
,wl-rdm,65,175476,0.0-6.57-0.57,0.0,66.0,,,,,,,[],,,,,,62.5,1.0,i,1.0,True,694.0999999940395,42.0,60.0,40.0,False,,348.80916442635885,[],"[768, 432]",ColorTask,26.0,58.0,,,HRV,HRV_0141,2022-11-30 18:15:36
,wl-rdm,66,177710,0.0-6.58-0.58,0.0,67.0,,,,,,,[],,,,,,50.0,1.0,i,1.0,True,792.8999999910593,48.0,60.0,40.0,False,,382.00670041365515,[],"[768, 432]",ColorTask,27.0,59.0,,,HRV,HRV_0141,2022-11-30 18:15:36
,wl-rdm,67,179676,0.0-6.59-0.59,0.0,68.0,,,,,,,[],,,,,,73.6,1.0,i,1.0,True,570.6999999880791,35.0,60.0,40.0,False,,327.80447003068275,[],"[768, 432]",ColorTask,28.0,60.0,,,HRV,HRV_0141,2022-11-30 18:15:36
,wl-rdm,68,181743,0.0-6.60-0.60,0.0,69.0,,,,,,,[],,,,,,87.9,0.0,u,0.0,True,731.3000000119209,44.0,60.0,40.0,False,,267.5949918746624,[],"[768, 432]",ColorTask,29.0,61.0,,,HRV,HRV_0141,2022-11-30 18:15:36
,wl-rdm,69,183709,0.0-6.61-0.61,0.0,70.0,,,,,,,[],,,,,,73.6,1.0,i,1.0,True,690.5,42.0,60.0,40.0,False,,214.64277247244394,[],"[768, 432]",ColorTask,30.0,62.0,,,HRV,HRV_0141,2022-11-30 18:15:36
,wl-rdm,70,185592,0.0-6.62-0.62,0.0,71.0,,,,,,,[],,,,,,87.9,1.0,i,1.0,True,488.59999999403954,30.0,60.0,40.0,False,,308.97839341303086,[],"[768, 432]",ColorTask,31.0,63.0,,,HRV,HRV_0141,2022-11-30 18:15:36
,wl-rdm,71,187391,0.0-6.63-0.63,0.0,72.0,,,,,,,[],,,,,,73.6,1.0,i,1.0,True,492.20000000298023,30.0,60.0,40.0,False,,219.01641154752875,[],"[768, 432]",ColorTask,32.0,64.0,,,HRV,HRV_0141,2022-11-30 18:15:36
,wl-rdm,72,189407,0.0-6.64-0.64,0.0,73.0,,,,,,,[],,,,,,62.5,0.0,u,0.0,True,693.9000000059605,42.0,60.0,40.0,False,,240.51996855331683,[],"[768, 432]",ColorTask,33.0,65.0,,,HRV,HRV_0141,2022-11-30 18:15:36
,wl-rdm,73,191590,0.0-6.65-0.65,0.0,74.0,,,,,,,[],,,,,,62.5,0.0,u,0.0,True,741.5999999940395,45.0,60.0,40.0,False,,354.47280612175416,[],"[768, 432]",ColorTask,34.0,66.0,,,HRV,HRV_0141,2022-11-30 18:15:36
,wl-rdm,74,193440,0.0-6.66-0.66,0.0,75.0,,,,,,,[],,,,,,56.4,1.0,i,1.0,True,499.80000001192093,30.0,60.0,40.0,False,,281.1405593375844,[],"[768, 432]",ColorTask,35.0,67.0,,,HRV,HRV_0141,2022-11-30 18:15:36
,wl-rdm,75,195623,0.0-6.67-0.67,0.0,76.0,,,,,,,[],,,,,,62.5,0.0,u,0.0,True,757.5,46.0,60.0,40.0,False,,346.9227468675849,[],"[768, 432]",ColorTask,36.0,68.0,,,HRV,HRV_0141,2022-11-30 18:15:36
,wl-rdm,76,197573,0.0-6.68-0.68,0.0,77.0,,,,,,,[],,,,,,87.9,0.0,u,0.0,True,656.1999999880791,40.0,60.0,40.0,False,,206.46589938150854,[],"[768, 432]",ColorTask,37.0,69.0,,,HRV,HRV_0141,2022-11-30 18:15:36
,wl-rdm,77,199522,0.0-6.69-0.69,0.0,78.0,,,,,,,[],,,,,,56.4,0.0,u,0.0,True,605.3999999910593,37.0,60.0,40.0,False,,252.56428874958158,[],"[768, 432]",ColorTask,38.0,70.0,,,HRV,HRV_0141,2022-11-30 18:15:36
,wl-rdm,78,201572,0.0-6.70-0.70,0.0,79.0,,,,,,,[],,,,,,53.2,1.0,i,1.0,True,760.1000000089407,46.0,60.0,40.0,False,,211.1743370246572,[],"[768, 432]",ColorTask,39.0,71.0,,,HRV,HRV_0141,2022-11-30 18:15:36
,wl-rdm,79,203555,0.0-6.71-0.71,0.0,80.0,,,,,,,[],,,,,,87.9,0.0,u,0.0,True,623.6000000089407,38.0,60.0,40.0,False,,278.9812679417062,[],"[768, 432]",ColorTask,40.0,72.0,,,HRV,HRV_0141,2022-11-30 18:15:36
,wl-rdm,80,205538,0.0-6.72-0.72,0.0,81.0,,,,,,,[],,,,,,53.2,1.0,i,1.0,True,632.7000000178814,38.0,60.0,40.0,False,,276.8584582591895,[],"[768, 432]",ColorTask,41.0,73.0,,,HRV,HRV_0141,2022-11-30 18:15:36
,wl-rdm,81,208121,0.0-6.73-0.73,0.0,82.0,,,,,,,[],,,,,,50.0,0.0,i,1.0,False,1168.5,71.0,60.0,40.0,False,,321.56263602297315,[],"[768, 432]",ColorTask,40.0,74.0,,,HRV,HRV_0141,2022-11-30 18:15:36
,wl-rdm,82,210421,0.0-6.74-0.74,0.0,83.0,,,,,,,[],,,,,,62.5,0.0,u,0.0,True,979.5,59.0,60.0,40.0,False,,233.92703987226324,[],"[768, 432]",ColorTask,41.0,75.0,,,HRV,HRV_0141,2022-11-30 18:15:36
,wl-rdm,83,212687,0.0-6.75-0.75,0.0,84.0,,,,,,,[],,,,,,62.5,1.0,u,0.0,False,949.2000000029802,57.0,60.0,40.0,False,,260.8480627391011,[],"[768, 432]",ColorTask,40.0,76.0,,,HRV,HRV_0141,2022-11-30 18:15:36
,wl-rdm,84,214754,0.0-6.76-0.76,0.0,85.0,,,,,,,[],,,,,,53.2,0.0,i,1.0,False,719.7999999970198,44.0,60.0,40.0,False,,262.90222501457447,[],"[768, 432]",ColorTask,39.0,77.0,,,HRV,HRV_0141,2022-11-30 18:15:36
,wl-rdm,85,216771,0.0-6.77-0.77,0.0,86.0,,,,,,,[],,,,,,87.9,0.0,u,0.0,True,690.5,42.0,60.0,40.0,False,,249.61546207960993,[],"[768, 432]",ColorTask,40.0,78.0,,,HRV,HRV_0141,2022-11-30 18:15:36
,wl-rdm,86,219503,0.0-6.78-0.78,0.0,87.0,,,,,,,[],,,,,,62.5,1.0,i,1.0,True,1297.7000000029802,78.0,60.0,40.0,False,,360.2850412417408,[],"[768, 432]",ColorTask,41.0,79.0,,,HRV,HRV_0141,2022-11-30 18:15:36
,wl-rdm,87,222053,0.0-6.79-0.79,0.0,88.0,,,,,,,[],,,,,,56.4,0.0,i,1.0,False,1205.5,73.0,60.0,40.0,False,,258.94261979866036,[],"[768, 432]",ColorTask,40.0,80.0,,,HRV,HRV_0141,2022-11-30 18:15:36
,wl-rdm,88,224653,0.0-6.80-0.80,0.0,89.0,,,,,,,[],,,,,,56.4,1.0,i,1.0,True,1254.8999999910593,76.0,60.0,40.0,False,,262.5905460822354,[],"[768, 432]",ColorTask,41.0,81.0,,,HRV,HRV_0141,2022-11-30 18:15:36
,wl-rdm,89,227302,0.0-6.81-0.81,0.0,90.0,,,,,,,[],,,,,,50.0,0.0,i,1.0,False,1285.7999999970198,78.0,60.0,40.0,False,,275.2193415284972,[],"[768, 432]",ColorTask,40.0,82.0,,,HRV,HRV_0141,2022-11-30 18:15:36
,wl-rdm,90,230518,0.0-6.82-0.82,0.0,91.0,,,,,,,[],,,,,,62.5,1.0,u,0.0,False,1881.8999999910593,113.0,60.0,40.0,False,,255.5612814916436,[],"[768, 432]",ColorTask,39.0,83.0,,,HRV,HRV_0141,2022-11-30 18:15:36
,wl-rdm,91,232968,0.0-6.83-0.83,0.0,92.0,,,,,,,[],,,,,,56.4,1.0,i,1.0,True,1141.8999999910593,69.0,60.0,40.0,False,,236.8033379161757,[],"[768, 432]",ColorTask,40.0,84.0,,,HRV,HRV_0141,2022-11-30 18:15:36
,wl-rdm,92,235518,0.0-6.84-0.84,0.0,93.0,,,,,,,[],,,,,,73.6,0.0,u,0.0,True,1077.1000000089407,65.0,60.0,40.0,False,,390.5860344380334,[],"[768, 432]",ColorTask,41.0,85.0,,,HRV,HRV_0141,2022-11-30 18:15:36
,wl-rdm,93,237968,0.0-6.85-0.85,0.0,94.0,,,,,,,[],,,,,,53.2,1.0,u,0.0,False,1099.8999999910593,66.0,60.0,40.0,False,,282.3386444366648,[],"[768, 432]",ColorTask,40.0,86.0,,,HRV,HRV_0141,2022-11-30 18:15:36
,wl-rdm,94,240534,0.0-6.86-0.86,0.0,95.0,,,,,,,[],,,,,,53.2,0.0,i,1.0,False,1208.7999999970198,73.0,60.0,40.0,False,,268.26539951269683,[],"[768, 432]",ColorTask,39.0,87.0,,,HRV,HRV_0141,2022-11-30 18:15:36
,wl-rdm,95,242884,0.0-6.87-0.87,0.0,96.0,,,,,,,[],,,,,,53.2,1.0,u,0.0,False,1046.7999999970198,63.0,60.0,40.0,False,,216.79822982758765,[],"[768, 432]",ColorTask,38.0,88.0,,,HRV,HRV_0141,2022-11-30 18:15:36
,wl-rdm,96,244881,0.0-6.88-0.88,0.0,97.0,,,,,,,[],,,,,,87.9,0.0,u,0.0,True,696.2999999970198,42.0,60.0,40.0,False,,219.40267605466448,[],"[768, 432]",ColorTask,39.0,89.0,,,HRV,HRV_0141,2022-11-30 18:15:36
,wl-rdm,97,246714,0.0-6.89-0.89,0.0,98.0,,,,,,,[],,,,,,87.9,0.0,u,0.0,True,535.5,33.0,60.0,40.0,False,,232.85497638297508,[],"[768, 432]",ColorTask,40.0,90.0,,,HRV,HRV_0141,2022-11-30 18:15:36
,wl-rdm,98,249097,0.0-6.90-0.90,0.0,99.0,,,,,,,[],,,,,,50.0,1.0,i,1.0,True,1069.5999999940395,65.0,60.0,40.0,False,,220.762445384966,[],"[768, 432]",ColorTask,41.0,91.0,,,HRV,HRV_0141,2022-11-30 18:15:36
,wl-rdm,99,251196,0.0-6.91-0.91,0.0,100.0,,,,,,,[],,,,,,62.5,0.0,u,0.0,True,743.1999999880791,45.0,60.0,40.0,False,,273.71535110390295,[],"[768, 432]",ColorTask,42.0,92.0,,,HRV,HRV_0141,2022-11-30 18:15:36
,wl-rdm,100,253963,0.0-6.92-0.92,0.0,101.0,,,,,,,[],,,,,,50.0,1.0,u,0.0,False,1452.5000000149012,88.0,60.0,40.0,False,,239.66611996147924,[],"[768, 432]",ColorTask,41.0,93.0,,,HRV,HRV_0141,2022-11-30 18:15:36
,wl-rdm,101,256363,0.0-6.93-0.93,0.0,102.0,,,,,,,[],,,,,,62.5,1.0,i,1.0,True,1029.0999999940395,62.0,60.0,40.0,False,,284.6982528971146,[],"[768, 432]",ColorTask,42.0,94.0,,,HRV,HRV_0141,2022-11-30 18:15:36
,wl-rdm,102,258246,0.0-6.94-0.94,0.0,103.0,,,,,,,[],,,,,,73.6,0.0,u,0.0,True,597.8000000119209,36.0,60.0,40.0,False,,214.75023296204756,[],"[768, 432]",ColorTask,43.0,95.0,,,HRV,HRV_0141,2022-11-30 18:15:36
,wl-rdm,103,260545,0.0-6.95-0.95,0.0,104.0,,,,,,,[],,,,,,73.6,1.0,i,1.0,True,980.0,59.0,60.0,40.0,False,,243.13594133451676,[],"[768, 432]",ColorTask,44.0,96.0,,,HRV,HRV_0141,2022-11-30 18:15:36
,wl-rdm,104,262578,0.0-6.96-0.96,0.0,105.0,,,,,,,[],,,,,,56.4,1.0,u,0.0,False,713.6000000089407,43.0,60.0,40.0,False,,236.18224516735714,[],"[768, 432]",ColorTask,43.0,97.0,,,HRV,HRV_0141,2022-11-30 18:15:36
,wl-rdm,105,264628,0.0-6.97-0.97,0.0,106.0,,,,,,,[],,,,,,87.9,1.0,i,1.0,True,695.7999999821186,42.0,60.0,40.0,False,,270.34723303452654,[],"[768, 432]",ColorTask,44.0,98.0,,,HRV,HRV_0141,2022-11-30 18:15:36
,wl-rdm,106,266545,0.0-6.98-0.98,0.0,107.0,,,,,,,[],,,,,,73.6,0.0,u,0.0,True,502.19999998807907,31.0,60.0,40.0,False,,317.3316879212327,[],"[768, 432]",ColorTask,45.0,99.0,,,HRV,HRV_0141,2022-11-30 18:15:36
,wl-rdm,107,268861,0.0-6.99-0.99,0.0,108.0,,,,,,,[],,,,,,56.4,1.0,i,1.0,True,1048.8999999910593,63.0,60.0,40.0,False,,202.82732080429713,[],"[768, 432]",ColorTask,46.0,100.0,,,HRV,HRV_0141,2022-11-30 18:15:36
,wl-rdm,108,270978,0.0-6.100-0.100,0.0,109.0,,,,,,,[],,,,,,62.5,1.0,i,1.0,True,768.7000000029802,47.0,60.0,40.0,False,,254.01771051701616,[],"[768, 432]",ColorTask,47.0,101.0,,,HRV,HRV_0141,2022-11-30 18:15:36
,wl-rdm,109,272927,0.0-6.101-0.101,0.0,110.0,,,,,,,[],,,,,,87.9,1.0,i,1.0,True,541.5,33.0,60.0,40.0,False,,334.88788211155475,[],"[768, 432]",ColorTask,48.0,102.0,,,HRV,HRV_0141,2022-11-30 18:15:36
,wl-rdm,110,275744,0.0-6.102-0.102,0.0,111.0,,,,,,,[],,,,,,62.5,1.0,i,1.0,True,1369.2000000029802,83.0,60.0,40.0,False,,367.2507129551983,[],"[768, 432]",ColorTask,49.0,103.0,,,HRV,HRV_0141,2022-11-30 18:15:36
,wl-rdm,111,278043,0.0-6.103-0.103,0.0,112.0,,,,,,,[],,,,,,50.0,1.0,i,1.0,True,925.0000000149012,56.0,60.0,40.0,False,,286.321365118994,[],"[768, 432]",ColorTask,50.0,104.0,,,HRV,HRV_0141,2022-11-30 18:15:36
,wl-rdm,112,280193,0.0-6.104-0.104,0.0,113.0,,,,,,,[],,,,,,53.2,1.0,u,0.0,False,728.5,44.0,60.0,40.0,False,,351.69865583107025,[],"[768, 432]",ColorTask,49.0,105.0,,,HRV,HRV_0141,2022-11-30 18:15:36
,wl-rdm,113,282326,0.0-6.105-0.105,0.0,114.0,,,,,,,[],,,,,,87.9,1.0,i,1.0,True,659.7000000029802,40.0,60.0,40.0,False,,389.9619451633888,[],"[768, 432]",ColorTask,50.0,106.0,,,HRV,HRV_0141,2022-11-30 18:15:36
,wl-rdm,114,284243,0.0-6.106-0.106,0.0,115.0,,,,,,,[],,,,,,62.5,0.0,u,0.0,True,628.7999999970198,38.0,60.0,40.0,False,,202.77105358902244,[],"[768, 432]",ColorTask,51.0,107.0,,,HRV,HRV_0141,2022-11-30 18:15:36
,wl-rdm,115,286842,0.0-6.107-0.107,0.0,116.0,,,,,,,[],,,,,,50.0,0.0,u,0.0,True,1301.9000000059605,79.0,60.0,40.0,False,,210.95201036649797,[],"[768, 432]",ColorTask,52.0,108.0,,,HRV,HRV_0141,2022-11-30 18:15:36
,wl-html-keyboard-response,116,295116,0.0-7.0-0.0,1.0,117.0,,,,,,,,6258.899999991059,1.0,0,,,,,,,,,,,,,,,,,,,,,,HRV,HRV_0141,2022-11-30 18:15:36
,wl-rdm,117,297141,0.0-8.0-0.0,1.0,118.0,,,,,,,[],,,,,,87.9,1.0,i,1.0,True,683.2000000029802,41.0,60.0,40.0,False,,268.83498843323594,[],"[768, 432]",ColorTask,53.0,1.0,,,HRV,HRV_0141,2022-11-30 18:15:36
,wl-rdm,118,299141,0.0-8.1-0.1,1.0,119.0,,,,,,,[],,,,,,56.4,0.0,u,0.0,True,678.0,41.0,60.0,40.0,False,,243.30070917141256,[],"[768, 432]",ColorTask,54.0,2.0,,,HRV,HRV_0141,2022-11-30 18:15:36
,wl-rdm,119,301024,0.0-8.2-0.2,1.0,120.0,,,,,,,[],,,,,,87.9,1.0,i,1.0,True,483.3999999910593,29.0,60.0,40.0,False,,317.5649343811376,[],"[768, 432]",ColorTask,55.0,3.0,,,HRV,HRV_0141,2022-11-30 18:15:36
,wl-rdm,120,302840,0.0-8.3-0.3,1.0,121.0,,,,,,,[],,,,,,73.6,0.0,u,0.0,True,515.2000000029802,31.0,60.0,40.0,False,,243.10501942370257,[],"[768, 432]",ColorTask,56.0,4.0,,,HRV,HRV_0141,2022-11-30 18:15:36
,wl-rdm,121,304707,0.0-8.4-0.4,1.0,122.0,,,,,,,[],,,,,,62.5,0.0,u,0.0,True,559.7999999970198,34.0,60.0,40.0,False,,244.68388521385702,[],"[768, 432]",ColorTask,57.0,5.0,,,HRV,HRV_0141,2022-11-30 18:15:36
,wl-rdm,122,307090,0.0-8.5-0.5,1.0,123.0,,,,,,,[],,,,,,56.4,1.0,u,0.0,False,1052.1000000089407,64.0,60.0,40.0,False,,257.69670618231333,[],"[768, 432]",ColorTask,56.0,6.0,,,HRV,HRV_0141,2022-11-30 18:15:36
,wl-rdm,123,309190,0.0-8.6-0.6,1.0,124.0,,,,,,,[],,,,,,62.5,1.0,u,0.0,False,688.1000000089407,42.0,60.0,40.0,False,,340.58628428066277,[],"[768, 432]",ColorTask,55.0,7.0,,,HRV,HRV_0141,2022-11-30 18:15:36
,wl-rdm,124,311306,0.0-8.7-0.7,1.0,125.0,,,,,,,[],,,,,,50.0,1.0,u,0.0,False,759.5,46.0,60.0,40.0,False,,270.703690759617,[],"[768, 432]",ColorTask,54.0,8.0,,,HRV,HRV_0141,2022-11-30 18:15:36
,wl-rdm,125,313873,0.0-8.8-0.8,1.0,126.0,,,,,,,[],,,,,,50.0,0.0,i,1.0,False,1114.7999999821186,67.0,60.0,40.0,False,,389.0489484166461,[],"[768, 432]",ColorTask,53.0,9.0,,,HRV,HRV_0141,2022-11-30 18:15:36
,wl-rdm,126,317022,0.0-8.9-0.9,1.0,127.0,,,,,,,[],,,,,,50.0,0.0,i,1.0,False,1787.7000000029802,108.0,60.0,40.0,False,,282.3818514283831,[],"[768, 432]",ColorTask,52.0,10.0,,,HRV,HRV_0141,2022-11-30 18:15:36
,wl-rdm,127,319072,0.0-8.10-0.10,1.0,128.0,,,,,,,[],,,,,,62.5,0.0,u,0.0,True,757.5999999940395,46.0,60.0,40.0,False,,211.16283592128713,[],"[768, 432]",ColorTask,53.0,11.0,,,HRV,HRV_0141,2022-11-30 18:15:36
,wl-rdm,128,321639,0.0-8.11-0.11,1.0,129.0,,,,,,,[],,,,,,62.5,1.0,i,1.0,True,1216.2000000029802,73.0,60.0,40.0,False,,268.4332610522397,[],"[768, 432]",ColorTask,54.0,12.0,,,HRV,HRV_0141,2022-11-30 18:15:36
,wl-rdm,129,323622,0.0-8.12-0.12,1.0,130.0,,,,,,,[],,,,,,73.6,0.0,u,0.0,True,597.1999999880791,36.0,60.0,40.0,False,,330.3742982728321,[],"[768, 432]",ColorTask,55.0,13.0,,,HRV,HRV_0141,2022-11-30 18:15:36
,wl-rdm,130,326104,0.0-8.13-0.13,1.0,131.0,,,,,,,[],,,,,,50.0,1.0,u,0.0,False,1013.2000000029802,61.0,60.0,40.0,False,,399.43262781797046,[],"[768, 432]",ColorTask,54.0,14.0,,,HRV,HRV_0141,2022-11-30 18:15:36
,wl-rdm,131,329571,0.0-8.14-0.14,1.0,132.0,,,,,,,[],,,,,,53.2,0.0,i,1.0,False,2054.3999999910593,124.0,60.0,40.0,False,,328.2625715675813,[],"[768, 432]",ColorTask,53.0,15.0,,,HRV,HRV_0141,2022-11-30 18:15:36
,wl-rdm,132,332237,0.0-8.15-0.15,1.0,133.0,,,,,,,[],,,,,,62.5,1.0,u,0.0,False,1270.3999999910593,77.0,60.0,40.0,False,,311.37746860617045,[],"[768, 432]",ColorTask,52.0,16.0,,,HRV,HRV_0141,2022-11-30 18:15:36
,wl-rdm,133,334470,0.0-8.16-0.16,1.0,134.0,,,,,,,[],,,,,,62.5,0.0,u,0.0,True,762.9000000059605,46.0,60.0,40.0,False,,384.01199898974494,[],"[768, 432]",ColorTask,53.0,17.0,,,HRV,HRV_0141,2022-11-30 18:15:36
,wl-rdm,134,336453,0.0-8.17-0.17,1.0,135.0,,,,,,,[],,,,,,73.6,0.0,u,0.0,True,674.6000000089407,41.0,60.0,40.0,False,,220.46776220412016,[],"[768, 432]",ColorTask,54.0,18.0,,,HRV,HRV_0141,2022-11-30 18:15:36
,wl-rdm,135,338486,0.0-8.18-0.18,1.0,136.0,,,,,,,[],,,,,,73.6,0.0,u,0.0,True,762.2999999970198,46.0,60.0,40.0,False,,211.1590978001685,[],"[768, 432]",ColorTask,55.0,19.0,,,HRV,HRV_0141,2022-11-30 18:15:36
,wl-rdm,136,340403,0.0-8.19-0.19,1.0,137.0,,,,,,,[],,,,,,53.2,0.0,u,0.0,True,532.4000000059605,32.0,60.0,40.0,False,,332.0852864497033,[],"[768, 432]",ColorTask,56.0,20.0,,,HRV,HRV_0141,2022-11-30 18:15:36
,wl-rdm,137,343802,0.0-8.20-0.20,1.0,138.0,,,,,,,[],,,,,,50.0,0.0,i,1.0,False,1974.9000000059605,119.0,60.0,40.0,False,,344.68102762327527,[],"[768, 432]",ColorTask,55.0,21.0,,,HRV,HRV_0141,2022-11-30 18:15:36
,wl-rdm,138,345985,0.0-8.21-0.21,1.0,139.0,,,,,,,[],,,,,,73.6,1.0,i,1.0,True,804.2000000029802,49.0,60.0,40.0,False,,288.27509811919697,[],"[768, 432]",ColorTask,56.0,22.0,,,HRV,HRV_0141,2022-11-30 18:15:36
,wl-rdm,139,347835,0.0-8.22-0.22,1.0,140.0,,,,,,,[],,,,,,87.9,1.0,i,1.0,True,536.7000000029802,33.0,60.0,40.0,False,,232.10017604217208,[],"[768, 432]",ColorTask,57.0,23.0,,,HRV,HRV_0141,2022-11-30 18:15:36
,wl-rdm,140,350918,0.0-8.23-0.23,1.0,141.0,,,,,,,[],,,,,,53.2,0.0,i,1.0,False,1739.6000000089407,105.0,60.0,40.0,False,,256.7158698107726,[],"[768, 432]",ColorTask,56.0,24.0,,,HRV,HRV_0141,2022-11-30 18:15:36
,wl-rdm,141,354034,0.0-8.24-0.24,1.0,142.0,,,,,,,[],,,,,,53.2,1.0,i,1.0,True,1743.5999999940395,105.0,60.0,40.0,False,,294.29563129497416,[],"[768, 432]",ColorTask,57.0,25.0,,,HRV,HRV_0141,2022-11-30 18:15:36
,wl-rdm,142,356967,0.0-8.25-0.25,1.0,143.0,,,,,,,[],,,,,,56.4,0.0,i,1.0,False,1619.0,98.0,60.0,40.0,False,,218.46716544116765,[],"[768, 432]",ColorTask,56.0,26.0,,,HRV,HRV_0141,2022-11-30 18:15:36
,wl-rdm,143,359867,0.0-8.26-0.26,1.0,144.0,,,,,,,[],,,,,,53.2,1.0,i,1.0,True,1507.5,91.0,60.0,40.0,False,,300.6963676611666,[],"[768, 432]",ColorTask,57.0,27.0,,,HRV,HRV_0141,2022-11-30 18:15:36
,wl-rdm,144,361767,0.0-8.27-0.27,1.0,145.0,,,,,,,[],,,,,,62.5,1.0,i,1.0,True,617.4000000059605,38.0,60.0,40.0,False,,208.36103385176912,[],"[768, 432]",ColorTask,58.0,28.0,,,HRV,HRV_0141,2022-11-30 18:15:36
,wl-rdm,145,363800,0.0-8.28-0.28,1.0,146.0,,,,,,,[],,,,,,73.6,0.0,u,0.0,True,622.2000000029802,38.0,60.0,40.0,False,,339.2539226537252,[],"[768, 432]",ColorTask,59.0,29.0,,,HRV,HRV_0141,2022-11-30 18:15:36
,wl-rdm,146,365765,0.0-8.29-0.29,1.0,147.0,,,,,,,[],,,,,,87.9,1.0,i,1.0,True,659.7000000029802,40.0,60.0,40.0,False,,218.02384069707065,[],"[768, 432]",ColorTask,60.0,30.0,,,HRV,HRV_0141,2022-11-30 18:15:36
,wl-rdm,147,369314,0.0-8.30-0.30,1.0,148.0,,,,,,,[],,,,,,56.4,1.0,i,1.0,True,2112.2000000029802,127.0,60.0,40.0,False,,351.3277377523798,[],"[768, 432]",ColorTask,61.0,31.0,,,HRV,HRV_0141,2022-11-30 18:15:36
,wl-rdm,148,371264,0.0-8.31-0.31,1.0,149.0,,,,,,,[],,,,,,73.6,0.0,u,0.0,True,616.1999999880791,37.0,60.0,40.0,False,,250.50664747755968,[],"[768, 432]",ColorTask,62.0,32.0,,,HRV,HRV_0141,2022-11-30 18:15:36
,wl-rdm,149,374597,0.0-8.32-0.32,1.0,150.0,,,,,,,[],,,,,,53.2,0.0,u,0.0,True,2045.7000000029802,123.0,60.0,40.0,False,,228.25989884064995,[],"[768, 432]",ColorTask,63.0,33.0,,,HRV,HRV_0141,2022-11-30 18:15:36
,wl-rdm,150,377130,0.0-8.33-0.33,1.0,151.0,,,,,,,[],,,,,,73.6,0.0,u,0.0,True,1121.9000000059605,68.0,60.0,40.0,False,,331.7929532621695,[],"[768, 432]",ColorTask,64.0,34.0,,,HRV,HRV_0141,2022-11-30 18:15:36
,wl-rdm,151,379180,0.0-8.34-0.34,1.0,152.0,,,,,,,[],,,,,,56.4,1.0,u,0.0,False,681.2999999970198,41.0,60.0,40.0,False,,296.54132666309073,[],"[768, 432]",ColorTask,63.0,35.0,,,HRV,HRV_0141,2022-11-30 18:15:36
,wl-rdm,152,381946,0.0-8.35-0.35,1.0,153.0,,,,,,,[],,,,,,56.4,1.0,i,1.0,True,1308.4000000059605,79.0,60.0,40.0,False,,377.2103345911516,[],"[768, 432]",ColorTask,64.0,36.0,,,HRV,HRV_0141,2022-11-30 18:15:36
,wl-rdm,153,384195,0.0-8.36-0.36,1.0,154.0,,,,,,,[],,,,,,56.4,0.0,u,0.0,True,785.3999999910593,48.0,60.0,40.0,False,,395.88456617975214,[],"[768, 432]",ColorTask,65.0,37.0,,,HRV,HRV_0141,2022-11-30 18:15:36
,wl-rdm,154,386078,0.0-8.37-0.37,1.0,155.0,,,,,,,[],,,,,,87.9,0.0,u,0.0,True,521.7999999970198,32.0,60.0,40.0,False,,273.874948132394,[],"[768, 432]",ColorTask,66.0,38.0,,,HRV,HRV_0141,2022-11-30 18:15:36
,wl-rdm,155,388061,0.0-8.38-0.38,1.0,156.0,,,,,,,[],,,,,,73.6,1.0,i,1.0,True,678.2000000029802,41.0,60.0,40.0,False,,234.0906162210929,[],"[768, 432]",ColorTask,67.0,39.0,,,HRV,HRV_0141,2022-11-30 18:15:36
,wl-rdm,156,390695,0.0-8.39-0.39,1.0,157.0,,,,,,,[],,,,,,50.0,1.0,i,1.0,True,1239.4000000059605,75.0,60.0,40.0,False,,300.76496547554177,[],"[768, 432]",ColorTask,68.0,40.0,,,HRV,HRV_0141,2022-11-30 18:15:36
,wl-rdm,157,392861,0.0-8.40-0.40,1.0,158.0,,,,,,,[],,,,,,73.6,1.0,i,1.0,True,761.5000000149012,46.0,60.0,40.0,False,,338.6679028967957,[],"[768, 432]",ColorTask,69.0,41.0,,,HRV,HRV_0141,2022-11-30 18:15:36
,wl-rdm,158,395644,0.0-8.41-0.41,1.0,159.0,,,,,,,[],,,,,,56.4,0.0,u,0.0,True,1343.5,81.0,60.0,40.0,False,,361.33242256302094,[],"[768, 432]",ColorTask,70.0,42.0,,,HRV,HRV_0141,2022-11-30 18:15:36
,wl-rdm,159,397994,0.0-8.42-0.42,1.0,160.0,,,,,,,[],,,,,,56.4,1.0,u,0.0,False,909.0,55.0,60.0,40.0,False,,372.7409245294548,[],"[768, 432]",ColorTask,69.0,43.0,,,HRV,HRV_0141,2022-11-30 18:15:36
,wl-rdm,160,400110,0.0-8.43-0.43,1.0,161.0,,,,,,,[],,,,,,87.9,0.0,u,0.0,True,672.9000000059605,41.0,60.0,40.0,False,,371.13734081236197,[],"[768, 432]",ColorTask,70.0,44.0,,,HRV,HRV_0141,2022-11-30 18:15:36
,wl-rdm,161,403443,0.0-8.44-0.44,1.0,162.0,,,,,,,[],,,,,,53.2,1.0,u,0.0,False,2003.0,121.0,60.0,40.0,False,,245.44501658857152,[],"[768, 432]",ColorTask,69.0,45.0,,,HRV,HRV_0141,2022-11-30 18:15:36
,wl-rdm,162,405759,0.0-8.45-0.45,1.0,163.0,,,,,,,[],,,,,,50.0,0.0,u,0.0,True,864.7000000029802,52.0,60.0,40.0,False,,367.5356967628105,[],"[768, 432]",ColorTask,70.0,46.0,,,HRV,HRV_0141,2022-11-30 18:15:36
,wl-rdm,163,408009,0.0-8.46-0.46,1.0,164.0,,,,,,,[],,,,,,56.4,1.0,i,1.0,True,941.5,57.0,60.0,40.0,False,,242.15980971978072,[],"[768, 432]",ColorTask,71.0,47.0,,,HRV,HRV_0141,2022-11-30 18:15:36
,wl-rdm,164,410925,0.0-8.47-0.47,1.0,165.0,,,,,,,[],,,,,,53.2,0.0,i,1.0,False,1475.1000000089407,89.0,60.0,40.0,False,,362.20191373617183,[],"[768, 432]",ColorTask,70.0,48.0,,,HRV,HRV_0141,2022-11-30 18:15:36
,wl-rdm,165,413025,0.0-8.48-0.48,1.0,166.0,,,,,,,[],,,,,,87.9,0.0,u,0.0,True,707.7000000029802,43.0,60.0,40.0,False,,304.2011703568081,[],"[768, 432]",ColorTask,71.0,49.0,,,HRV,HRV_0141,2022-11-30 18:15:36
,wl-rdm,166,415508,0.0-8.49-0.49,1.0,167.0,,,,,,,[],,,,,,56.4,0.0,u,0.0,True,1187.2000000029802,72.0,60.0,40.0,False,,227.54314345097342,[],"[768, 432]",ColorTask,72.0,50.0,,,HRV,HRV_0141,2022-11-30 18:15:36
,wl-rdm,167,418091,0.0-8.50-0.50,1.0,168.0,,,,,,,[],,,,,,50.0,1.0,i,1.0,True,1295.800000011921,78.0,60.0,40.0,False,,210.0955938649569,[],"[768, 432]",ColorTask,73.0,51.0,,,HRV,HRV_0141,2022-11-30 18:15:36
,wl-rdm,168,420508,0.0-8.51-0.51,1.0,169.0,,,,,,,[],,,,,,50.0,0.0,u,0.0,True,1042.0,63.0,60.0,40.0,False,,307.54829969516044,[],"[768, 432]",ColorTask,74.0,52.0,,,HRV,HRV_0141,2022-11-30 18:15:36
,wl-rdm,169,422624,0.0-8.52-0.52,1.0,170.0,,,,,,,[],,,,,,56.4,1.0,i,1.0,True,671.9999999850988,41.0,60.0,40.0,False,,378.39326372696297,[],"[768, 432]",ColorTask,75.0,53.0,,,HRV,HRV_0141,2022-11-30 18:15:36
,wl-rdm,170,425660,0.0-8.53-0.53,1.0,171.0,,,,,,,[],,,,,,56.4,0.0,i,1.0,False,1585.800000011921,96.0,60.0,40.0,False,,355.92948502749107,[],"[768, 432]",ColorTask,74.0,54.0,,,HRV,HRV_0141,2022-11-30 18:15:36
,wl-rdm,171,427827,0.0-8.54-0.54,1.0,172.0,,,,,,,[],,,,,,87.9,1.0,i,1.0,True,782.0999999940395,47.0,60.0,40.0,False,,327.3665430144117,[],"[768, 432]",ColorTask,75.0,55.0,,,HRV,HRV_0141,2022-11-30 18:15:36
,wl-rdm,172,430426,0.0-8.55-0.55,1.0,173.0,,,,,,,[],,,,,,50.0,1.0,i,1.0,True,1303.0999999940395,79.0,60.0,40.0,False,,221.65106960023746,[],"[768, 432]",ColorTask,76.0,56.0,,,HRV,HRV_0141,2022-11-30 18:15:36
,wl-rdm,173,432426,0.0-8.56-0.56,1.0,174.0,,,,,,,[],,,,,,87.9,0.0,u,0.0,True,652.8999999910593,40.0,60.0,40.0,False,,252.88424596935278,[],"[768, 432]",ColorTask,77.0,57.0,,,HRV,HRV_0141,2022-11-30 18:15:36
,wl-rdm,174,435559,0.0-8.57-0.57,1.0,175.0,,,,,,,[],,,,,,53.2,0.0,i,1.0,False,1803.5999999940395,109.0,60.0,40.0,False,,233.75148032889808,[],"[768, 432]",ColorTask,76.0,58.0,,,HRV,HRV_0141,2022-11-30 18:15:36
,wl-rdm,175,438292,0.0-8.58-0.58,1.0,176.0,,,,,,,[],,,,,,53.2,1.0,i,1.0,True,1307.300000011921,79.0,60.0,40.0,False,,341.7238847480595,[],"[768, 432]",ColorTask,77.0,59.0,,,HRV,HRV_0141,2022-11-30 18:15:36
,wl-rdm,176,440891,0.0-8.59-0.59,1.0,177.0,,,,,,,[],,,,,,50.0,1.0,i,1.0,True,1180.2999999970198,71.0,60.0,40.0,False,,348.7923400671165,[],"[768, 432]",ColorTask,78.0,60.0,,,HRV,HRV_0141,2022-11-30 18:15:36
,wl-rdm,177,443191,0.0-8.60-0.60,1.0,178.0,,,,,,,[],,,,,,53.2,1.0,i,1.0,True,929.4999999850988,56.0,60.0,40.0,False,,296.42323116741875,[],"[768, 432]",ColorTask,79.0,61.0,,,HRV,HRV_0141,2022-11-30 18:15:36
,wl-rdm,178,445558,0.0-8.61-0.61,1.0,179.0,,,,,,,[],,,,,,53.2,0.0,u,0.0,True,1073.5999999940395,65.0,60.0,40.0,False,,213.82349679651952,[],"[768, 432]",ColorTask,80.0,62.0,,,HRV,HRV_0141,2022-11-30 18:15:36
,wl-rdm,179,447907,0.0-8.62-0.62,1.0,180.0,,,,,,,[],,,,,,62.5,1.0,i,1.0,True,1004.7000000029802,61.0,60.0,40.0,False,,272.02951894210605,[],"[768, 432]",ColorTask,81.0,63.0,,,HRV,HRV_0141,2022-11-30 18:15:36
,wl-rdm,180,450590,0.0-8.63-0.63,1.0,181.0,,,,,,,[],,,,,,62.5,0.0,u,0.0,True,1325.0000000149012,80.0,60.0,40.0,False,,270.05264963483125,[],"[768, 432]",ColorTask,82.0,64.0,,,HRV,HRV_0141,2022-11-30 18:15:36
,wl-rdm,181,452640,0.0-8.64-0.64,1.0,182.0,,,,,,,[],,,,,,87.9,1.0,i,1.0,True,679.2000000029802,41.0,60.0,40.0,False,,288.4253118628672,[],"[768, 432]",ColorTask,83.0,65.0,,,HRV,HRV_0141,2022-11-30 18:15:36
,wl-rdm,182,455040,0.0-8.65-0.65,1.0,183.0,,,,,,,[],,,,,,73.6,1.0,i,1.0,True,956.5,58.0,60.0,40.0,False,,361.95485748212013,[],"[768, 432]",ColorTask,84.0,66.0,,,HRV,HRV_0141,2022-11-30 18:15:36
,wl-rdm,183,458206,0.0-8.66-0.66,1.0,184.0,,,,,,,[],,,,,,50.0,0.0,u,0.0,True,1843.699999988079,111.0,60.0,40.0,False,,250.11505566797638,[],"[768, 432]",ColorTask,85.0,67.0,,,HRV,HRV_0141,2022-11-30 18:15:36
,wl-rdm,184,460422,0.0-8.67-0.67,1.0,185.0,,,,,,,[],,,,,,62.5,0.0,u,0.0,True,889.1999999880791,54.0,60.0,40.0,False,,237.63672100536425,[],"[768, 432]",ColorTask,86.0,68.0,,,HRV,HRV_0141,2022-11-30 18:15:36
,wl-rdm,185,462522,0.0-8.68-0.68,1.0,186.0,,,,,,,[],,,,,,53.2,1.0,i,1.0,True,709.5999999940395,43.0,60.0,40.0,False,,302.44506189957957,[],"[768, 432]",ColorTask,87.0,69.0,,,HRV,HRV_0141,2022-11-30 18:15:36
,wl-rdm,186,464472,0.0-8.69-0.69,1.0,187.0,,,,,,,[],,,,,,73.6,0.0,i,1.0,False,662.7000000029802,40.0,60.0,40.0,False,,224.85385898691723,[],"[768, 432]",ColorTask,86.0,70.0,,,HRV,HRV_0141,2022-11-30 18:15:36
,wl-rdm,187,467371,0.0-8.70-0.70,1.0,188.0,,,,,,,[],,,,,,62.5,1.0,i,1.0,True,1538.300000011921,93.0,60.0,40.0,False,,278.09351111076194,[],"[768, 432]",ColorTask,87.0,71.0,,,HRV,HRV_0141,2022-11-30 18:15:36
,wl-rdm,188,469738,0.0-8.71-0.71,1.0,189.0,,,,,,,[],,,,,,53.2,0.0,u,0.0,True,1003.4999999850988,61.0,60.0,40.0,False,,281.38898743766094,[],"[768, 432]",ColorTask,88.0,72.0,,,HRV,HRV_0141,2022-11-30 18:15:36
,wl-rdm,189,471704,0.0-8.72-0.72,1.0,190.0,,,,,,,[],,,,,,62.5,0.0,u,0.0,True,586.3000000119209,36.0,60.0,40.0,False,,290.0497359881221,[],"[768, 432]",ColorTask,89.0,73.0,,,HRV,HRV_0141,2022-11-30 18:15:36
,wl-rdm,190,473804,0.0-8.73-0.73,1.0,191.0,,,,,,,[],,,,,,87.9,1.0,i,1.0,True,743.6000000089407,45.0,60.0,40.0,False,,282.5323209161593,[],"[768, 432]",ColorTask,90.0,74.0,,,HRV,HRV_0141,2022-11-30 18:15:36
,wl-rdm,191,475837,0.0-8.74-0.74,1.0,192.0,,,,,,,[],,,,,,62.5,0.0,u,0.0,True,731.7999999970198,44.0,60.0,40.0,False,,234.06425266262787,[],"[768, 432]",ColorTask,91.0,75.0,,,HRV,HRV_0141,2022-11-30 18:15:36
,wl-rdm,192,477787,0.0-8.75-0.75,1.0,193.0,,,,,,,[],,,,,,73.6,0.0,u,0.0,True,658.2999999970198,40.0,60.0,40.0,False,,226.5430314703359,[],"[768, 432]",ColorTask,92.0,76.0,,,HRV,HRV_0141,2022-11-30 18:15:36
,wl-rdm,193,479803,0.0-8.76-0.76,1.0,194.0,,,,,,,[],,,,,,87.9,0.0,u,0.0,True,632.5,38.0,60.0,40.0,False,,323.6464062651362,[],"[768, 432]",ColorTask,93.0,77.0,,,HRV,HRV_0141,2022-11-30 18:15:36
,wl-rdm,194,481703,0.0-8.77-0.77,1.0,195.0,,,,,,,[],,,,,,87.9,0.0,u,0.0,True,502.6000000089407,31.0,60.0,40.0,False,,302.5927196072808,[],"[768, 432]",ColorTask,94.0,78.0,,,HRV,HRV_0141,2022-11-30 18:15:36
,wl-rdm,195,483969,0.0-8.78-0.78,1.0,196.0,,,,,,,[],,,,,,50.0,1.0,u,0.0,False,959.6000000089407,58.0,60.0,40.0,False,,225.01938836507395,[],"[768, 432]",ColorTask,93.0,79.0,,,HRV,HRV_0141,2022-11-30 18:15:36
,wl-rdm,196,486097,0.0-8.79-0.79,1.0,197.0,,,,,,,[],,,,,,73.6,1.0,i,1.0,True,802.7999999970198,49.0,60.0,40.0,False,,245.09781424661892,[],"[768, 432]",ColorTask,94.0,80.0,,,HRV,HRV_0141,2022-11-30 18:15:36
,wl-rdm,197,488414,0.0-8.80-0.80,1.0,198.0,,,,,,,[],,,,,,62.5,1.0,i,1.0,True,981.0,59.0,60.0,40.0,False,,266.25295190201734,[],"[768, 432]",ColorTask,95.0,81.0,,,HRV,HRV_0141,2022-11-30 18:15:36
,wl-rdm,198,491297,0.0-8.81-0.81,1.0,199.0,,,,,,,[],,,,,,62.5,0.0,u,0.0,True,1577.2000000029802,95.0,60.0,40.0,False,,230.1028827660686,[],"[768, 432]",ColorTask,96.0,82.0,,,HRV,HRV_0141,2022-11-30 18:15:36
,wl-rdm,199,493997,0.0-8.82-0.82,1.0,200.0,,,,,,,[],,,,,,50.0,0.0,i,1.0,False,1348.2000000029802,81.0,60.0,40.0,False,,298.7315114162732,[],"[768, 432]",ColorTask,95.0,83.0,,,HRV,HRV_0141,2022-11-30 18:15:36
,wl-rdm,200,496963,0.0-8.83-0.83,1.0,201.0,,,,,,,[],,,,,,56.4,0.0,i,1.0,False,1623.1000000089407,98.0,60.0,40.0,False,,250.51119515317814,[],"[768, 432]",ColorTask,94.0,84.0,,,HRV,HRV_0141,2022-11-30 18:15:36
,wl-rdm,201,498996,0.0-8.84-0.84,1.0,202.0,,,,,,,[],,,,,,87.9,0.0,u,0.0,True,594.9000000059605,36.0,60.0,40.0,False,,354.1827896694285,[],"[768, 432]",ColorTask,95.0,85.0,,,HRV,HRV_0141,2022-11-30 18:15:36
,wl-rdm,202,501562,0.0-8.85-0.85,1.0,203.0,,,,,,,[],,,,,,56.4,0.0,u,0.0,True,1236.8999999910593,75.0,60.0,40.0,False,,245.57065162677446,[],"[768, 432]",ColorTask,96.0,86.0,,,HRV,HRV_0141,2022-11-30 18:15:36
,wl-rdm,203,503829,0.0-8.86-0.86,1.0,204.0,,,,,,,[],,,,,,62.5,1.0,i,1.0,True,891.8000000119209,54.0,60.0,40.0,False,,286.28482446316343,[],"[768, 432]",ColorTask,97.0,87.0,,,HRV,HRV_0141,2022-11-30 18:15:36
,wl-rdm,204,505945,0.0-8.87-0.87,1.0,205.0,,,,,,,[],,,,,,53.2,1.0,u,0.0,False,666.7000000029802,40.0,60.0,40.0,False,,375.00314556681815,[],"[768, 432]",ColorTask,96.0,88.0,,,HRV,HRV_0141,2022-11-30 18:15:36
,wl-rdm,205,508078,0.0-8.88-0.88,1.0,206.0,,,,,,,[],,,,,,50.0,1.0,i,1.0,True,775.0,47.0,60.0,40.0,False,,268.08805832624796,[],"[768, 432]",ColorTask,97.0,89.0,,,HRV,HRV_0141,2022-11-30 18:15:36
,wl-rdm,206,510177,0.0-8.89-0.89,1.0,207.0,,,,,,,[],,,,,,73.6,1.0,i,1.0,True,723.1999999880791,44.0,60.0,40.0,False,,297.0651441926964,[],"[768, 432]",ColorTask,98.0,90.0,,,HRV,HRV_0141,2022-11-30 18:15:36
,wl-rdm,207,512411,0.0-8.90-0.90,1.0,208.0,,,,,,,[],,,,,,53.2,1.0,u,0.0,False,907.9000000059605,55.0,60.0,40.0,False,,245.09353538725534,[],"[768, 432]",ColorTask,97.0,91.0,,,HRV,HRV_0141,2022-11-30 18:15:36
,wl-rdm,208,514777,0.0-8.91-0.91,1.0,209.0,,,,,,,[],,,,,,53.2,1.0,i,1.0,True,971.1999999880791,59.0,60.0,40.0,False,,325.2385317373355,[],"[768, 432]",ColorTask,98.0,92.0,,,HRV,HRV_0141,2022-11-30 18:15:36
,wl-rdm,209,517443,0.0-8.92-0.92,1.0,210.0,,,,,,,[],,,,,,56.4,1.0,u,0.0,False,1315.2000000178814,79.0,60.0,40.0,False,,272.24295689234697,[],"[768, 432]",ColorTask,97.0,93.0,,,HRV,HRV_0141,2022-11-30 18:15:36
,wl-rdm,210,519543,0.0-8.93-0.93,1.0,211.0,,,,,,,[],,,,,,87.9,0.0,u,0.0,True,635.6000000089407,39.0,60.0,40.0,False,,376.29038634035714,[],"[768, 432]",ColorTask,98.0,94.0,,,HRV,HRV_0141,2022-11-30 18:15:36
,wl-rdm,211,521643,0.0-8.94-0.94,1.0,212.0,,,,,,,[],,,,,,62.5,1.0,i,1.0,True,725.5999999940395,44.0,60.0,40.0,False,,288.5147702556815,[],"[768, 432]",ColorTask,99.0,95.0,,,HRV,HRV_0141,2022-11-30 18:15:36
,wl-rdm,212,523760,0.0-8.95-0.95,1.0,213.0,,,,,,,[],,,,,,73.6,1.0,i,1.0,True,715.1000000089407,43.0,60.0,40.0,False,,334.9604651203404,[],"[768, 432]",ColorTask,100.0,96.0,,,HRV,HRV_0141,2022-11-30 18:15:36
,wl-rdm,213,526093,0.0-8.96-0.96,1.0,214.0,,,,,,,[],,,,,,50.0,1.0,u,0.0,False,1057.0,64.0,60.0,40.0,False,,214.87307391719617,[],"[768, 432]",ColorTask,99.0,97.0,,,HRV,HRV_0141,2022-11-30 18:15:36
,wl-rdm,214,528192,0.0-8.97-0.97,1.0,215.0,,,,,,,[],,,,,,62.5,0.0,u,0.0,True,762.9000000059605,46.0,60.0,40.0,False,,258.90719429182843,[],"[768, 432]",ColorTask,100.0,98.0,,,HRV,HRV_0141,2022-11-30 18:15:36
,wl-rdm,215,530292,0.0-8.98-0.98,1.0,216.0,,,,,,,[],,,,,,56.4,0.0,u,0.0,True,696.7999999970198,42.0,60.0,40.0,False,,321.51467767403915,[],"[768, 432]",ColorTask,101.0,99.0,,,HRV,HRV_0141,2022-11-30 18:15:36
,wl-rdm,216,532575,0.0-8.99-0.99,1.0,217.0,,,,,,,[],,,,,,87.9,0.0,u,0.0,True,964.2999999970198,58.0,60.0,40.0,False,,243.22211699740518,[],"[768, 432]",ColorTask,102.0,100.0,,,HRV,HRV_0141,2022-11-30 18:15:36
,wl-rdm,217,535075,0.0-8.100-0.100,1.0,218.0,,,,,,,[],,,,,,56.4,1.0,i,1.0,True,1137.4000000059605,69.0,60.0,40.0,False,,267.56849977918307,[],"[768, 432]",ColorTask,103.0,101.0,,,HRV,HRV_0141,2022-11-30 18:15:36
,wl-rdm,218,537441,0.0-8.101-0.101,1.0,219.0,,,,,,,[],,,,,,53.2,0.0,u,0.0,True,973.5000000149012,59.0,60.0,40.0,False,,309.2824331367542,[],"[768, 432]",ColorTask,104.0,102.0,,,HRV,HRV_0141,2022-11-30 18:15:36
,wl-rdm,219,539341,0.0-8.102-0.102,1.0,220.0,,,,,,,[],,,,,,50.0,0.0,i,1.0,False,558.8999999910593,34.0,60.0,40.0,False,,273.0081748721351,[],"[768, 432]",ColorTask,103.0,103.0,,,HRV,HRV_0141,2022-11-30 18:15:36
,wl-rdm,220,541290,0.0-8.103-0.103,1.0,221.0,,,,,,,[],,,,,,87.9,1.0,i,1.0,True,476.9000000208616,29.0,60.0,40.0,False,,384.2146220811526,[],"[768, 432]",ColorTask,104.0,104.0,,,HRV,HRV_0141,2022-11-30 18:15:36
,wl-rdm,221,543207,0.0-8.104-0.104,1.0,222.0,,,,,,,[],,,,,,73.6,1.0,i,1.0,True,507.2000000178814,31.0,60.0,40.0,False,,330.78718736486405,[],"[768, 432]",ColorTask,105.0,105.0,,,HRV,HRV_0141,2022-11-30 18:15:36
,wl-rdm,222,545026,0.0-8.105-0.105,1.0,223.0,,,,,,,[],,,,,,73.6,1.0,i,1.0,True,531.0,32.0,60.0,40.0,False,,206.94989461872436,[],"[768, 432]",ColorTask,106.0,106.0,,,HRV,HRV_0141,2022-11-30 18:15:36
,wl-rdm,223,547376,0.0-8.106-0.106,1.0,224.0,,,,,,,[],,,,,,50.0,0.0,i,1.0,False,1057.199999988079,64.0,60.0,40.0,False,,222.0605635285484,[],"[768, 432]",ColorTask,105.0,107.0,,,HRV,HRV_0141,2022-11-30 18:15:36
,wl-rdm,224,549342,0.0-8.107-0.107,1.0,225.0,,,,,,,[],,,,,,87.9,1.0,i,1.0,True,661.6999999880791,40.0,60.0,40.0,False,,219.28080417736788,[],"[768, 432]",ColorTask,106.0,108.0,,,HRV,HRV_0141,2022-11-30 18:15:36
,wl-html-button-response,225,551627,0.0-9.0-0.0,,,,,,,,,,2278.0,,0,,,,,,,,,,,,,,,,,,,,<h3>End of this session. Thank you!</h3><br>,['Close window'],HRV,HRV_0141,2022-11-30 18:15:36
