success,trial_type,trial_index,time_elapsed,internal_node_id,Block,TrialNumber,TrialTime,trialTimeDiff,FPS_avg,FPS_med,FPS_mode,TrialDur,winResizeTime,rt,block,button_pressed,MotCoh,MotDir,ColCoh,Color,ChoiceKey,Choice,Accuracy,RT,nFrames,FPS,PPD,missTrial,missTrialMsg,onsetDelay,fullScreenExitTime,canvCenter,TrialType,Score,BlockTrial,stimulus,button_labels,exp,subjectId,date
True,fullscreen,0,4586,0.0-0.0,0.0,1.0,,,,,,,,,,,,,,,,,,,,,,,,,,,,,,,,HRV,HRV_0311,2022-11-30 22:36:55
,wl-check-fps,1,9596,0.0-1.0,0.0,2.0,"[5480.2, 5495.4, 5512.6, 5529.4, 5545.7, 5562.3, 5579, 5595.6, 5612, 5628.9, 5645.4, 5661.6, 5678.7, 5695.1, 5711.9, 5728.2, 5745.3, 5761.9, 5778.4, 5795.2, 5811.8, 5828.6, 5845.1, 5861.8, 5878.5, 5895.1, 5911.9, 5928.8, 5945.5, 5961.5, 5978.2, 5994.9, 6011.7, 6028.3, 6045.2, 6061.5, 6077.9, 6094.9, 6111.2, 6128.3, 6144.7, 6161.2, 6177.9, 6194.4, 6211.1, 6227.7, 6244.6, 6261.2, 6278.1, 6294.7, 6311.3, 6328, 6344.8, 6361.2, 6378, 6394.6, 6411.3, 6427.9, 6444.8, 6461.2, 6478, 6494.7, 6511, 6527.9, 6544.6, 6561, 6578.1, 6594.6, 6611.3, 6627.9, 6644.8, 6661.1, 6677.8, 6694, 6710.7, 6727.3, 6744, 6760.7, 6777.3, 6794, 6810.8, 6827.7, 6843.9, 6860.8, 6877.7, 6893.8, 6910.8, 6927.2, 6943.9, 6960.5, 6977.1, 6994.1, 7010.7, 7027.3, 7044.1, 7060.4, 7077, 7094, 7110.5, 7127.4, 7143.9, 7160.2, 7177, 7193.9, 7210.2, 7227.2, 7243.5, 7260.3, 7277.1, 7293.7, 7310.2, 7326.8, 7343.9, 7360.2, 7376.8, 7393.4, 7410.1, 7427.1, 7443.8, 7460.1, 7477.1, 7493.7, 7510.1, 7526.7, 7543.6, 7560, 7576.9, 7593.7, 7609.9, 7626.6, 7643.5, 7659.9, 7676.6, 7693.5, 7709.8, 7726.9, 7743.6, 7759.8, 7776.8, 7793.4, 7809.8, 7826.3, 7843.3, 7859.8, 7876.7, 7893.3, 7909.9, 7926.5, 7942.9, 7959.9, 7976.4, 7993.3, 8010, 8026.4, 8043, 8059.7, 8076.1, 8093, 8109.7, 8126.3, 8142.9, 8159.7, 8176.1, 8192.6, 8209.8, 8226.2, 8242.9, 8259.7, 8277.1, 8293, 8309.7, 8326.1, 8342.8, 8359.8, 8376.1, 8392.8, 8409.7, 8426.1, 8442.7, 8459.5, 8476, 8492.7, 8509.1, 8525.7, 8542.5, 8559, 8575.8, 8592.3, 8609, 8625.7, 8642.3, 8659.1, 8675.8, 8692.5, 8709.2, 8725.8, 8742.5, 8759.2, 8775.8, 8792.5, 8809, 8825.9, 8842.6, 8859.5, 8875.9, 8892.9, 8910, 8925.5, 8942.5, 8958.8, 8975.8, 8992, 9008.8, 9025.8, 9042.2, 9059, 9075.7, 9092.2, 9110.9, 9125.6, 9142.5, 9159.5, 9175.7, 9192.5, 9209.7, 9225.7, 9242.2, 9260.3, 9276.2, 9292.2, 9308.9, 9325.6, 9342.2, 9358.9, 9375.5, 9392.3, 9408.6, 9425.5, 9442, 9458.6, 9475.7, 9492.1, 9508.7, 9525.3, 9541.9, 9558.5, 9575.2, 9591.9, 9608.5, 9625.1, 9641.8, 9659.2, 9675.5, 9691.9, 9709.6, 9725.2, 9741.8, 9758.4, 9774.9, 9791.7, 9808.2, 9825.6, 9842, 9858.9, 9875.3, 9892.1, 9908.9, 9926.1, 9941.8, 9958.6, 9975.1, 9991.9, 10008.4, 10025.2, 10042.3, 10058.4, 10075.1, 10091.9, 10108.6, 10125.2, 10141.8, 10158.4, 10175, 10191.6, 10208.3, 10224.8, 10241.4, 10258.5, 10274.8, 10291.1, 10308.4, 10325.1, 10341.6, 10358.2, 10374.9, 10391.4, 10408.5, 10424.7, 10441.5, 10458.1]","[15.9, 15.2, 17.2, 16.8, 16.3, 16.6, 16.7, 16.6, 16.4, 16.9, 16.5, 16.2, 17.1, 16.4, 16.8, 16.3, 17.1, 16.6, 16.5, 16.8, 16.6, 16.8, 16.5, 16.7, 16.7, 16.6, 16.8, 16.9, 16.7, 16, 16.7, 16.7, 16.8, 16.6, 16.9, 16.3, 16.4, 17, 16.3, 17.1, 16.4, 16.5, 16.7, 16.5, 16.7, 16.6, 16.9, 16.6, 16.9, 16.6, 16.6, 16.7, 16.8, 16.4, 16.8, 16.6, 16.7, 16.6, 16.9, 16.4, 16.8, 16.7, 16.3, 16.9, 16.7, 16.4, 17.1, 16.5, 16.7, 16.6, 16.9, 16.3, 16.7, 16.2, 16.7, 16.6, 16.7, 16.7, 16.6, 16.7, 16.8, 16.9, 16.2, 16.9, 16.9, 16.1, 17, 16.4, 16.7, 16.6, 16.6, 17, 16.6, 16.6, 16.8, 16.3, 16.6, 17, 16.5, 16.9, 16.5, 16.3, 16.8, 16.9, 16.3, 17, 16.3, 16.8, 16.8, 16.6, 16.5, 16.6, 17.1, 16.3, 16.6, 16.6, 16.7, 17, 16.7, 16.3, 17, 16.6, 16.4, 16.6, 16.9, 16.4, 16.9, 16.8, 16.2, 16.7, 16.9, 16.4, 16.7, 16.9, 16.3, 17.1, 16.7, 16.2, 17, 16.6, 16.4, 16.5, 17, 16.5, 16.9, 16.6, 16.6, 16.6, 16.4, 17, 16.5, 16.9, 16.7, 16.4, 16.6, 16.7, 16.4, 16.9, 16.7, 16.6, 16.6, 16.8, 16.4, 16.5, 17.2, 16.4, 16.7, 16.8, 17.4, 15.9, 16.7, 16.4, 16.7, 17, 16.3, 16.7, 16.9, 16.4, 16.6, 16.8, 16.5, 16.7, 16.4, 16.6, 16.8, 16.5, 16.8, 16.5, 16.7, 16.7, 16.6, 16.8, 16.7, 16.7, 16.7, 16.6, 16.7, 16.7, 16.6, 16.7, 16.5, 16.9, 16.7, 16.9, 16.4, 17, 17.1, 15.5, 17, 16.3, 17, 16.2, 16.8, 17, 16.4, 16.8, 16.7, 16.5, 18.7, 14.7, 16.9, 17, 16.2, 16.8, 17.2, 16, 16.5, 18.1, 15.9, 16, 16.7, 16.7, 16.6, 16.7, 16.6, 16.8, 16.3, 16.9, 16.5, 16.6, 17.1, 16.4, 16.6, 16.6, 16.6, 16.6, 16.7, 16.7, 16.6, 16.6, 16.7, 17.4, 16.3, 16.4, 17.7, 15.6, 16.6, 16.6, 16.5, 16.8, 16.5, 17.4, 16.4, 16.9, 16.4, 16.8, 16.8, 17.2, 15.7, 16.8, 16.5, 16.8, 16.5, 16.8, 17.1, 16.1, 16.7, 16.8, 16.7, 16.6, 16.6, 16.6, 16.6, 16.6, 16.7, 16.5, 16.6, 17.1, 16.3, 16.3, 17.3, 16.7, 16.5, 16.6, 16.7, 16.5, 17.1, 16.2, 16.8, 16.6]",60.0,60.0,60.0,5010.7,[],,,,,,,,,,,,,,,,,,,,,,,,,HRV,HRV_0311,2022-11-30 22:36:55
,wl-html-keyboard-response,2,32690,0.0-2.0-0.0,0.0,3.0,,,,,,,,21063.200000047684,0.0,0,,,,,,,,,,,,,,,,,,,,,,HRV,HRV_0311,2022-11-30 22:36:55
,wl-rdm,3,41034,0.0-3.0-0.0,0.0,4.0,,,,,,,[],,,,0.0,0.0,87.9,0.0,u,0.0,True,2718.7999999523163,164.0,60.0,40.0,False,,3000.0,[],"[768, 432]",ColorTask_Demo,,,,,HRV,HRV_0311,2022-11-30 22:36:55
,wl-rdm,4,47395,0.0-3.0-1.0,0.0,5.0,,,,,,,[],,,,0.0,0.0,87.9,1.0,i,1.0,True,2268.5,137.0,60.0,40.0,False,,2000.0,[],"[768, 432]",ColorTask_Demo,,,,,HRV,HRV_0311,2022-11-30 22:36:55
,wl-html-keyboard-response,5,226709,0.0-3.0-2.0,0.0,6.0,,,,,,,,177301.69999980927,0.0,1,,,,,,,,,,,,,,,,,,,,,,HRV,HRV_0311,2022-11-30 22:36:55
,wl-html-keyboard-response,6,243160,0.0-4.0-0.0,0.0,7.0,,,,,,,,14440.099999904633,0.0,0,,,,,,,,,,,,,,,,,,,,,,HRV,HRV_0311,2022-11-30 22:36:55
,wl-html-keyboard-response,7,278126,0.0-5.0-0.0,0.0,8.0,,,,,,,,32955.90000009537,0.0,0,,,,,,,,,,,,,,,,,,,,,,HRV,HRV_0311,2022-11-30 22:36:55
,wl-rdm,8,280793,0.0-6.0-0.0,0.0,9.0,,,,,,,[],,,,,,87.9,0.0,u,0.0,True,1343.0,81.0,60.0,40.0,False,,235.08837737926177,[],"[768, 432]",ColorTask,1.0,1.0,,,HRV,HRV_0311,2022-11-30 22:36:55
,wl-rdm,9,284673,0.0-6.1-0.1,0.0,10.0,,,,,,,[],,,,,,73.6,1.0,i,1.0,True,2408.5,145.0,60.0,40.0,False,,395.0939057831501,[],"[768, 432]",ColorTask,2.0,2.0,,,HRV,HRV_0311,2022-11-30 22:36:55
,wl-rdm,10,287337,0.0-6.2-0.2,0.0,11.0,,,,,,,[],,,,,,87.9,0.0,u,0.0,True,1238.9000000953674,75.0,60.0,40.0,False,,346.20851314740435,[],"[768, 432]",ColorTask,3.0,3.0,,,HRV,HRV_0311,2022-11-30 22:36:55
,wl-rdm,11,289718,0.0-6.3-0.3,0.0,12.0,,,,,,,[],,,,,,87.9,1.0,i,1.0,True,1073.1999998092651,65.0,60.0,40.0,False,,224.70312736466653,[],"[768, 432]",ColorTask,4.0,4.0,,,HRV,HRV_0311,2022-11-30 22:36:55
,wl-rdm,12,292050,0.0-6.4-0.4,0.0,13.0,,,,,,,[],,,,,,87.9,1.0,i,1.0,True,969.5,59.0,60.0,40.0,False,,272.811235784604,[],"[768, 432]",ColorTask,5.0,5.0,,,HRV,HRV_0311,2022-11-30 22:36:55
,wl-rdm,13,295464,0.0-6.5-0.5,0.0,14.0,,,,,,,[],,,,,,73.6,1.0,i,1.0,True,2100.399999856949,127.0,60.0,40.0,False,,230.03654811925043,[],"[768, 432]",ColorTask,6.0,6.0,,,HRV,HRV_0311,2022-11-30 22:36:55
,wl-rdm,14,298328,0.0-6.6-0.6,0.0,15.0,,,,,,,[],,,,,,56.4,0.0,u,0.0,True,1566.8999998569489,95.0,60.0,40.0,False,,200.1363566132283,[],"[768, 432]",ColorTask,7.0,7.0,,,HRV,HRV_0311,2022-11-30 22:36:55
,wl-rdm,15,302641,0.0-6.7-0.7,0.0,15.0,,,,,,,[],,,,,,56.4,1.0,,,,,179.0,60.0,40.0,True,RT_timeout ,205.33331993368776,[],"[768, 432]",ColorTask,6.0,8.0,,,HRV,HRV_0311,2022-11-30 22:36:55
,wl-rdm,16,305122,0.0-6.8-0.8,0.0,16.0,,,,,,,[],,,,,,87.9,1.0,i,1.0,True,1190.2000000476837,72.0,60.0,40.0,False,,215.30580591202795,[],"[768, 432]",ColorTask,7.0,9.0,,,HRV,HRV_0311,2022-11-30 22:36:55
,wl-rdm,17,307752,0.0-6.9-0.9,0.0,17.0,,,,,,,[],,,,,,62.5,0.0,u,0.0,True,1297.5000002384186,78.0,60.0,40.0,False,,260.81199327972786,[],"[768, 432]",ColorTask,8.0,10.0,,,HRV,HRV_0311,2022-11-30 22:36:55
,wl-rdm,18,310284,0.0-6.10-0.10,0.0,18.0,,,,,,,[],,,,,,87.9,1.0,i,1.0,True,1168.5,71.0,60.0,40.0,False,,268.23606413737866,[],"[768, 432]",ColorTask,9.0,11.0,,,HRV,HRV_0311,2022-11-30 22:36:55
,wl-rdm,19,313261,0.0-6.11-0.11,0.0,19.0,,,,,,,[],,,,,,56.4,0.0,i,1.0,False,1543.3999998569489,93.0,60.0,40.0,False,,350.4479182826451,[],"[768, 432]",ColorTask,8.0,12.0,,,HRV,HRV_0311,2022-11-30 22:36:55
,wl-rdm,20,316293,0.0-6.12-0.12,0.0,20.0,,,,,,,[],,,,,,62.5,1.0,i,1.0,True,1707.7999999523163,103.0,60.0,40.0,False,,248.0041832109998,[],"[768, 432]",ColorTask,9.0,13.0,,,HRV,HRV_0311,2022-11-30 22:36:55
,wl-rdm,21,319423,0.0-6.13-0.13,0.0,21.0,,,,,,,[],,,,,,56.4,1.0,u,0.0,False,1835.7000000476837,111.0,60.0,40.0,False,,210.30586693375773,[],"[768, 432]",ColorTask,8.0,14.0,,,HRV,HRV_0311,2022-11-30 22:36:55
,wl-rdm,22,323853,0.0-6.14-0.14,0.0,21.0,,,,,,,[],,,,,,50.0,1.0,u,,,3365.399999856949,179.0,60.0,40.0,True,RT_timeout ,327.662050686504,[],"[768, 432]",ColorTask,7.0,15.0,,,HRV,HRV_0311,2022-11-30 22:36:55
,wl-rdm,23,326917,0.0-6.15-0.15,0.0,22.0,,,,,,,[],,,,,,50.0,0.0,u,0.0,True,1714.2000000476837,103.0,60.0,40.0,False,,267.770284185177,[],"[768, 432]",ColorTask,8.0,16.0,,,HRV,HRV_0311,2022-11-30 22:36:55
,wl-rdm,24,329981,0.0-6.16-0.16,0.0,23.0,,,,,,,[],,,,,,73.6,0.0,u,0.0,True,1696.5999999046326,102.0,60.0,40.0,False,,283.81116899721013,[],"[768, 432]",ColorTask,9.0,17.0,,,HRV,HRV_0311,2022-11-30 22:36:55
,wl-rdm,25,333678,0.0-6.17-0.17,0.0,24.0,,,,,,,[],,,,,,53.2,1.0,u,0.0,False,2307.5,139.0,60.0,40.0,False,,305.3072547712422,[],"[768, 432]",ColorTask,8.0,18.0,,,HRV,HRV_0311,2022-11-30 22:36:55
,wl-rdm,26,336891,0.0-6.18-0.18,0.0,25.0,,,,,,,[],,,,,,62.5,1.0,i,1.0,True,1750.3000001907349,106.0,60.0,40.0,False,,370.58647827138464,[],"[768, 432]",ColorTask,9.0,19.0,,,HRV,HRV_0311,2022-11-30 22:36:55
,wl-rdm,27,340172,0.0-6.19-0.19,0.0,26.0,,,,,,,[],,,,,,56.4,1.0,i,1.0,True,1983.7000000476837,120.0,60.0,40.0,False,,208.6316008723085,[],"[768, 432]",ColorTask,10.0,20.0,,,HRV,HRV_0311,2022-11-30 22:36:55
,wl-rdm,28,343103,0.0-6.20-0.20,0.0,27.0,,,,,,,[],,,,,,62.5,1.0,i,1.0,True,1617.5,98.0,60.0,40.0,False,,224.20631431077163,[],"[768, 432]",ColorTask,11.0,21.0,,,HRV,HRV_0311,2022-11-30 22:36:55
,wl-rdm,29,346067,0.0-6.21-0.21,0.0,28.0,,,,,,,[],,,,,,50.0,1.0,u,0.0,False,1613.5,97.0,60.0,40.0,False,,268.06143009322994,[],"[768, 432]",ColorTask,10.0,22.0,,,HRV,HRV_0311,2022-11-30 22:36:55
,wl-rdm,30,349330,0.0-6.22-0.22,0.0,29.0,,,,,,,[],,,,,,56.4,1.0,u,0.0,False,1818.3999998569489,110.0,60.0,40.0,False,,351.6428331113928,[],"[768, 432]",ColorTask,9.0,23.0,,,HRV,HRV_0311,2022-11-30 22:36:55
,wl-rdm,31,352628,0.0-6.23-0.23,0.0,30.0,,,,,,,[],,,,,,50.0,1.0,u,0.0,False,1871.9000000953674,113.0,60.0,40.0,False,,335.9959641132471,[],"[768, 432]",ColorTask,8.0,24.0,,,HRV,HRV_0311,2022-11-30 22:36:55
,wl-rdm,32,355875,0.0-6.24-0.24,0.0,31.0,,,,,,,[],,,,,,62.5,0.0,u,0.0,True,1940.5,117.0,60.0,40.0,False,,221.64478212559897,[],"[768, 432]",ColorTask,9.0,25.0,,,HRV,HRV_0311,2022-11-30 22:36:55
,wl-rdm,33,358989,0.0-6.25-0.25,0.0,32.0,,,,,,,[],,,,,,56.4,1.0,i,1.0,True,1808.8999998569489,109.0,60.0,40.0,False,,228.5700842915605,[],"[768, 432]",ColorTask,10.0,26.0,,,HRV,HRV_0311,2022-11-30 22:36:55
,wl-rdm,34,362336,0.0-6.26-0.26,0.0,33.0,,,,,,,[],,,,,,53.2,0.0,i,1.0,False,1879.4000000953674,113.0,60.0,40.0,False,,398.2198066949211,[],"[768, 432]",ColorTask,9.0,27.0,,,HRV,HRV_0311,2022-11-30 22:36:55
,wl-rdm,35,365200,0.0-6.27-0.27,0.0,34.0,,,,,,,[],,,,,,62.5,0.0,u,0.0,True,1513.5999999046326,91.0,60.0,40.0,False,,271.65060817256744,[],"[768, 432]",ColorTask,10.0,28.0,,,HRV,HRV_0311,2022-11-30 22:36:55
,wl-rdm,36,368597,0.0-6.28-0.28,0.0,35.0,,,,,,,[],,,,,,53.2,1.0,u,0.0,False,2060.5,124.0,60.0,40.0,False,,257.03528161523474,[],"[768, 432]",ColorTask,9.0,29.0,,,HRV,HRV_0311,2022-11-30 22:36:55
,wl-rdm,37,371212,0.0-6.29-0.29,0.0,36.0,,,,,,,[],,,,,,87.9,1.0,i,1.0,True,1281.7000000476837,77.0,60.0,40.0,False,,264.6424246503799,[],"[768, 432]",ColorTask,10.0,30.0,,,HRV,HRV_0311,2022-11-30 22:36:55
,wl-rdm,38,373860,0.0-6.30-0.30,0.0,37.0,,,,,,,[],,,,,,56.4,0.0,u,0.0,True,1344.1999998092651,81.0,60.0,40.0,False,,226.19988746983736,[],"[768, 432]",ColorTask,11.0,31.0,,,HRV,HRV_0311,2022-11-30 22:36:55
,wl-rdm,39,376708,0.0-6.31-0.31,0.0,38.0,,,,,,,[],,,,,,56.4,0.0,u,0.0,True,1540.1000001430511,93.0,60.0,40.0,False,,231.99844417563662,[],"[768, 432]",ColorTask,12.0,32.0,,,HRV,HRV_0311,2022-11-30 22:36:55
,wl-rdm,40,379572,0.0-6.32-0.32,0.0,39.0,,,,,,,[],,,,,,50.0,0.0,u,0.0,True,1567.7000000476837,95.0,60.0,40.0,False,,211.9169951869809,[],"[768, 432]",ColorTask,13.0,33.0,,,HRV,HRV_0311,2022-11-30 22:36:55
,wl-rdm,41,382719,0.0-6.33-0.33,0.0,40.0,,,,,,,[],,,,,,53.2,1.0,i,1.0,True,1857.6000001430511,112.0,60.0,40.0,False,,207.73715740918243,[],"[768, 432]",ColorTask,14.0,34.0,,,HRV,HRV_0311,2022-11-30 22:36:55
,wl-rdm,42,385800,0.0-6.34-0.34,0.0,41.0,,,,,,,[],,,,,,62.5,1.0,i,1.0,True,1793.5,108.0,60.0,40.0,False,,211.49008604822055,[],"[768, 432]",ColorTask,15.0,35.0,,,HRV,HRV_0311,2022-11-30 22:36:55
,wl-rdm,43,388481,0.0-6.35-0.35,0.0,42.0,,,,,,,[],,,,,,73.6,0.0,u,0.0,True,1357.8999998569489,82.0,60.0,40.0,False,,240.45666935598845,[],"[768, 432]",ColorTask,16.0,36.0,,,HRV,HRV_0311,2022-11-30 22:36:55
,wl-rdm,44,391411,0.0-6.36-0.36,0.0,43.0,,,,,,,[],,,,,,53.2,1.0,i,1.0,True,1606.9999997615814,97.0,60.0,40.0,False,,242.82382015914376,[],"[768, 432]",ColorTask,17.0,37.0,,,HRV,HRV_0311,2022-11-30 22:36:55
,wl-rdm,45,393992,0.0-6.37-0.37,0.0,44.0,,,,,,,[],,,,,,73.6,0.0,u,0.0,True,1218.0,74.0,60.0,40.0,False,,279.9795942500546,[],"[768, 432]",ColorTask,18.0,38.0,,,HRV,HRV_0311,2022-11-30 22:36:55
,wl-rdm,46,396423,0.0-6.38-0.38,0.0,45.0,,,,,,,[],,,,,,73.6,0.0,u,0.0,True,993.8999998569489,60.0,60.0,40.0,False,,355.2174018333528,[],"[768, 432]",ColorTask,19.0,39.0,,,HRV,HRV_0311,2022-11-30 22:36:55
,wl-rdm,47,399005,0.0-6.39-0.39,0.0,46.0,,,,,,,[],,,,,,87.9,1.0,i,1.0,True,1209.3000001907349,73.0,60.0,40.0,False,,315.5452606502009,[],"[768, 432]",ColorTask,20.0,40.0,,,HRV,HRV_0311,2022-11-30 22:36:55
,wl-rdm,48,402418,0.0-6.40-0.40,0.0,47.0,,,,,,,[],,,,,,53.2,0.0,i,1.0,False,2016.8000001907349,122.0,60.0,40.0,False,,312.1715156231596,[],"[768, 432]",ColorTask,19.0,41.0,,,HRV,HRV_0311,2022-11-30 22:36:55
,wl-rdm,49,404816,0.0-6.41-0.41,0.0,48.0,,,,,,,[],,,,,,73.6,1.0,i,1.0,True,1102.2000002861023,67.0,60.0,40.0,False,,202.47715812212897,[],"[768, 432]",ColorTask,20.0,42.0,,,HRV,HRV_0311,2022-11-30 22:36:55
,wl-rdm,50,407464,0.0-6.42-0.42,0.0,49.0,,,,,,,[],,,,,,73.6,0.0,u,0.0,True,1167.9999997615814,71.0,60.0,40.0,False,,397.1619125355171,[],"[768, 432]",ColorTask,21.0,43.0,,,HRV,HRV_0311,2022-11-30 22:36:55
,wl-rdm,51,410578,0.0-6.43-0.43,0.0,50.0,,,,,,,[],,,,,,62.5,1.0,i,1.0,True,1727.7999999523163,104.0,60.0,40.0,False,,312.68189657969305,[],"[768, 432]",ColorTask,22.0,44.0,,,HRV,HRV_0311,2022-11-30 22:36:55
,wl-rdm,52,414291,0.0-6.44-0.44,0.0,51.0,,,,,,,[],,,,,,50.0,1.0,u,0.0,False,2377.9000000953674,143.0,60.0,40.0,False,,251.8042668575191,[],"[768, 432]",ColorTask,21.0,45.0,,,HRV,HRV_0311,2022-11-30 22:36:55
,wl-rdm,53,417904,0.0-6.45-0.45,0.0,52.0,,,,,,,[],,,,,,73.6,1.0,i,1.0,True,2151.0,130.0,60.0,40.0,False,,371.1468040047308,[],"[768, 432]",ColorTask,22.0,46.0,,,HRV,HRV_0311,2022-11-30 22:36:55
,wl-rdm,54,420702,0.0-6.46-0.46,0.0,53.0,,,,,,,[],,,,,,50.0,1.0,u,0.0,False,1468.4000000953674,89.0,60.0,40.0,False,,239.84527865825612,[],"[768, 432]",ColorTask,21.0,47.0,,,HRV,HRV_0311,2022-11-30 22:36:55
,wl-rdm,55,424183,0.0-6.47-0.47,0.0,54.0,,,,,,,[],,,,,,56.4,0.0,u,0.0,True,2176.7999999523163,131.0,60.0,40.0,False,,219.98495127512473,[],"[768, 432]",ColorTask,22.0,48.0,,,HRV,HRV_0311,2022-11-30 22:36:55
,wl-rdm,56,427863,0.0-6.48-0.48,0.0,55.0,,,,,,,[],,,,,,56.4,0.0,i,1.0,False,2255.7999999523163,136.0,60.0,40.0,False,,344.8729699459809,[],"[768, 432]",ColorTask,21.0,49.0,,,HRV,HRV_0311,2022-11-30 22:36:55
,wl-rdm,57,430926,0.0-6.49-0.49,0.0,56.0,,,,,,,[],,,,,,73.6,0.0,u,0.0,True,1745.0999999046326,105.0,60.0,40.0,False,,233.39017702599875,[],"[768, 432]",ColorTask,22.0,50.0,,,HRV,HRV_0311,2022-11-30 22:36:55
,wl-rdm,58,434452,0.0-6.50-0.50,0.0,57.0,,,,,,,[],,,,,,50.0,1.0,i,1.0,True,2074.199999809265,125.0,60.0,40.0,False,,376.4272482999571,[],"[768, 432]",ColorTask,23.0,51.0,,,HRV,HRV_0311,2022-11-30 22:36:55
,wl-rdm,59,437700,0.0-6.51-0.51,0.0,58.0,,,,,,,[],,,,,,73.6,1.0,i,1.0,True,1788.5000002384186,108.0,60.0,40.0,False,,392.9803736073547,[],"[768, 432]",ColorTask,24.0,52.0,,,HRV,HRV_0311,2022-11-30 22:36:55
,wl-rdm,60,440564,0.0-6.52-0.52,0.0,59.0,,,,,,,[],,,,,,53.2,1.0,i,1.0,True,1580.0,95.0,60.0,40.0,False,,215.7736457143672,[],"[768, 432]",ColorTask,25.0,53.0,,,HRV,HRV_0311,2022-11-30 22:36:55
,wl-rdm,61,443511,0.0-6.53-0.53,0.0,60.0,,,,,,,[],,,,,,56.4,0.0,u,0.0,True,1494.6999998092651,90.0,60.0,40.0,False,,371.50827051451097,[],"[768, 432]",ColorTask,26.0,54.0,,,HRV,HRV_0311,2022-11-30 22:36:55
,wl-rdm,62,447558,0.0-6.54-0.54,0.0,61.0,,,,,,,[],,,,,,50.0,0.0,i,1.0,False,2593.5,156.0,60.0,40.0,False,,373.82656322297737,[],"[768, 432]",ColorTask,25.0,55.0,,,HRV,HRV_0311,2022-11-30 22:36:55
,wl-rdm,63,451188,0.0-6.55-0.55,0.0,62.0,,,,,,,[],,,,,,62.5,1.0,i,1.0,True,2199.7000000476837,133.0,60.0,40.0,False,,339.2331568146996,[],"[768, 432]",ColorTask,26.0,56.0,,,HRV,HRV_0311,2022-11-30 22:36:55
,wl-rdm,64,454269,0.0-6.56-0.56,0.0,63.0,,,,,,,[],,,,,,87.9,1.0,i,1.0,True,1778.4000000953674,107.0,60.0,40.0,False,,219.48239884951528,[],"[768, 432]",ColorTask,27.0,57.0,,,HRV,HRV_0311,2022-11-30 22:36:55
,wl-rdm,65,456933,0.0-6.57-0.57,0.0,64.0,,,,,,,[],,,,,,73.6,0.0,u,0.0,True,1331.2999999523163,80.0,60.0,40.0,False,,269.5774686193854,[],"[768, 432]",ColorTask,28.0,58.0,,,HRV,HRV_0311,2022-11-30 22:36:55
,wl-rdm,66,460546,0.0-6.58-0.58,0.0,65.0,,,,,,,[],,,,,,53.2,0.0,i,1.0,False,2174.9000000953674,131.0,60.0,40.0,False,,364.2565843508844,[],"[768, 432]",ColorTask,27.0,59.0,,,HRV,HRV_0311,2022-11-30 22:36:55
,wl-rdm,67,463411,0.0-6.59-0.59,0.0,66.0,,,,,,,[],,,,,,62.5,0.0,u,0.0,True,1459.5,88.0,60.0,40.0,False,,331.8826495197927,[],"[768, 432]",ColorTask,28.0,60.0,,,HRV,HRV_0311,2022-11-30 22:36:55
,wl-rdm,68,467091,0.0-6.60-0.60,0.0,67.0,,,,,,,[],,,,,,50.0,0.0,i,1.0,False,2385.399999856949,144.0,60.0,40.0,False,,208.69150256973455,[],"[768, 432]",ColorTask,27.0,61.0,,,HRV,HRV_0311,2022-11-30 22:36:55
,wl-rdm,69,471121,0.0-6.61-0.61,0.0,68.0,,,,,,,[],,,,,,53.2,0.0,u,0.0,True,2702.0999999046326,163.0,60.0,40.0,False,,245.658190855302,[],"[768, 432]",ColorTask,28.0,62.0,,,HRV,HRV_0311,2022-11-30 22:36:55
,wl-rdm,70,474784,0.0-6.62-0.62,0.0,69.0,,,,,,,[],,,,,,56.4,1.0,i,1.0,True,2379.300000190735,143.0,60.0,40.0,False,,201.0642106054157,[],"[768, 432]",ColorTask,29.0,63.0,,,HRV,HRV_0311,2022-11-30 22:36:55
,wl-rdm,71,477865,0.0-6.63-0.63,0.0,70.0,,,,,,,[],,,,,,56.4,1.0,i,1.0,True,1642.2999999523163,99.0,60.0,40.0,False,,352.5173499596066,[],"[768, 432]",ColorTask,30.0,64.0,,,HRV,HRV_0311,2022-11-30 22:36:55
,wl-rdm,72,481129,0.0-6.64-0.64,0.0,71.0,,,,,,,[],,,,,,50.0,1.0,u,0.0,False,1854.3999998569489,112.0,60.0,40.0,False,,321.7341425368415,[],"[768, 432]",ColorTask,29.0,65.0,,,HRV,HRV_0311,2022-11-30 22:36:55
,wl-rdm,73,484026,0.0-6.65-0.65,0.0,72.0,,,,,,,[],,,,,,62.5,1.0,i,1.0,True,1525.2000000476837,92.0,60.0,40.0,False,,297.0937058782692,[],"[768, 432]",ColorTask,30.0,66.0,,,HRV,HRV_0311,2022-11-30 22:36:55
,wl-rdm,74,487157,0.0-6.66-0.66,0.0,73.0,,,,,,,[],,,,,,50.0,0.0,i,1.0,False,1759.2999999523163,106.0,60.0,40.0,False,,286.8517274647893,[],"[768, 432]",ColorTask,29.0,67.0,,,HRV,HRV_0311,2022-11-30 22:36:55
,wl-rdm,75,489521,0.0-6.67-0.67,0.0,74.0,,,,,,,[],,,,,,87.9,0.0,u,0.0,True,1034.4000000953674,63.0,60.0,40.0,False,,249.39903508280202,[],"[768, 432]",ColorTask,30.0,68.0,,,HRV,HRV_0311,2022-11-30 22:36:55
,wl-rdm,76,493941,0.0-6.68-0.68,0.0,75.0,,,,,,,[],,,,,,53.2,1.0,i,1.0,True,3018.0999999046326,179.0,60.0,40.0,False,,315.30150968824256,[],"[768, 432]",ColorTask,31.0,69.0,,,HRV,HRV_0311,2022-11-30 22:36:55
,wl-rdm,77,497288,0.0-6.69-0.69,0.0,76.0,,,,,,,[],,,,,,62.5,0.0,u,0.0,True,1978.2000000476837,119.0,60.0,40.0,False,,292.0115309771587,[],"[768, 432]",ColorTask,32.0,70.0,,,HRV,HRV_0311,2022-11-30 22:36:55
,wl-rdm,78,500985,0.0-6.70-0.70,0.0,77.0,,,,,,,[],,,,,,56.4,1.0,i,1.0,True,2395.2000000476837,144.0,60.0,40.0,False,,225.78002402464224,[],"[768, 432]",ColorTask,33.0,71.0,,,HRV,HRV_0311,2022-11-30 22:36:55
,wl-rdm,79,504315,0.0-6.71-0.71,0.0,78.0,,,,,,,[],,,,,,73.6,1.0,i,1.0,True,1983.2000000476837,120.0,60.0,40.0,False,,265.81656529799477,[],"[768, 432]",ColorTask,34.0,72.0,,,HRV,HRV_0311,2022-11-30 22:36:55
,wl-rdm,80,507196,0.0-6.72-0.72,0.0,79.0,,,,,,,[],,,,,,87.9,0.0,u,0.0,True,1588.5999999046326,96.0,60.0,40.0,False,,213.09075417543374,[],"[768, 432]",ColorTask,35.0,73.0,,,HRV,HRV_0311,2022-11-30 22:36:55
,wl-rdm,81,510477,0.0-6.73-0.73,0.0,80.0,,,,,,,[],,,,,,53.2,0.0,u,0.0,True,1798.9999997615814,109.0,60.0,40.0,False,,390.6078607891528,[],"[768, 432]",ColorTask,36.0,74.0,,,HRV,HRV_0311,2022-11-30 22:36:55
,wl-rdm,82,513590,0.0-6.74-0.74,0.0,81.0,,,,,,,[],,,,,,50.0,1.0,i,1.0,True,1822.9000000953674,110.0,60.0,40.0,False,,215.76581914572338,[],"[768, 432]",ColorTask,37.0,75.0,,,HRV,HRV_0311,2022-11-30 22:36:55
,wl-rdm,83,517387,0.0-6.75-0.75,0.0,82.0,,,,,,,[],,,,,,53.2,1.0,u,0.0,False,2429.5,146.0,60.0,40.0,False,,291.3992750277017,[],"[768, 432]",ColorTask,36.0,76.0,,,HRV,HRV_0311,2022-11-30 22:36:55
,wl-rdm,84,520601,0.0-6.76-0.76,0.0,83.0,,,,,,,[],,,,,,50.0,0.0,i,1.0,False,1846.9000000953674,111.0,60.0,40.0,False,,298.3289091182602,[],"[768, 432]",ColorTask,35.0,77.0,,,HRV,HRV_0311,2022-11-30 22:36:55
,wl-rdm,85,523982,0.0-6.77-0.77,0.0,84.0,,,,,,,[],,,,,,62.5,1.0,u,0.0,False,2024.6000001430511,122.0,60.0,40.0,False,,272.49223796146333,[],"[768, 432]",ColorTask,34.0,78.0,,,HRV,HRV_0311,2022-11-30 22:36:55
,wl-rdm,86,526929,0.0-6.78-0.78,0.0,85.0,,,,,,,[],,,,,,87.9,0.0,u,0.0,True,1540.2000002861023,93.0,60.0,40.0,False,,321.9232831673764,[],"[768, 432]",ColorTask,35.0,79.0,,,HRV,HRV_0311,2022-11-30 22:36:55
,wl-rdm,87,530159,0.0-6.79-0.79,0.0,86.0,,,,,,,[],,,,,,87.9,0.0,u,0.0,True,1866.8999998569489,113.0,60.0,40.0,False,,273.14585192662935,[],"[768, 432]",ColorTask,36.0,80.0,,,HRV,HRV_0311,2022-11-30 22:36:55
,wl-rdm,88,532840,0.0-6.80-0.80,0.0,87.0,,,,,,,[],,,,,,87.9,0.0,u,0.0,True,1321.7999999523163,80.0,60.0,40.0,False,,276.9723558299617,[],"[768, 432]",ColorTask,37.0,81.0,,,HRV,HRV_0311,2022-11-30 22:36:55
,wl-rdm,89,535571,0.0-6.81-0.81,0.0,88.0,,,,,,,[],,,,,,73.6,1.0,i,1.0,True,1410.9000000953674,85.0,60.0,40.0,False,,239.81140941638938,[],"[768, 432]",ColorTask,38.0,82.0,,,HRV,HRV_0311,2022-11-30 22:36:55
,wl-rdm,90,539784,0.0-6.82-0.82,0.0,89.0,,,,,,,[],,,,,,62.5,0.0,u,0.0,True,2912.2999997138977,175.0,60.0,40.0,False,,230.96202634571688,[],"[768, 432]",ColorTask,39.0,83.0,,,HRV,HRV_0311,2022-11-30 22:36:55
,wl-rdm,91,542832,0.0-6.83-0.83,0.0,90.0,,,,,,,[],,,,,,73.6,1.0,i,1.0,True,1688.5,102.0,60.0,40.0,False,,268.44157165173976,[],"[768, 432]",ColorTask,40.0,84.0,,,HRV,HRV_0311,2022-11-30 22:36:55
,wl-rdm,92,545779,0.0-6.84-0.84,0.0,91.0,,,,,,,[],,,,,,73.6,1.0,i,1.0,True,1665.1000001430511,100.0,60.0,40.0,False,,211.3449751873619,[],"[768, 432]",ColorTask,41.0,85.0,,,HRV,HRV_0311,2022-11-30 22:36:55
,wl-rdm,93,548726,0.0-6.85-0.85,0.0,92.0,,,,,,,[],,,,,,56.4,0.0,u,0.0,True,1655.7000000476837,100.0,60.0,40.0,False,,210.34983636291634,[],"[768, 432]",ColorTask,42.0,86.0,,,HRV,HRV_0311,2022-11-30 22:36:55
,wl-rdm,94,551790,0.0-6.86-0.86,0.0,93.0,,,,,,,[],,,,,,87.9,0.0,u,0.0,True,1693.3000001907349,102.0,60.0,40.0,False,,291.42857992416936,[],"[768, 432]",ColorTask,43.0,87.0,,,HRV,HRV_0311,2022-11-30 22:36:55
,wl-rdm,95,554704,0.0-6.87-0.87,0.0,94.0,,,,,,,[],,,,,,62.5,0.0,u,0.0,True,1607.5999999046326,97.0,60.0,40.0,False,,241.76863040275782,[],"[768, 432]",ColorTask,44.0,88.0,,,HRV,HRV_0311,2022-11-30 22:36:55
,wl-rdm,96,557734,0.0-6.88-0.88,0.0,95.0,,,,,,,[],,,,,,50.0,0.0,u,0.0,True,1701.9000000953674,103.0,60.0,40.0,False,,243.64837196152214,[],"[768, 432]",ColorTask,45.0,89.0,,,HRV,HRV_0311,2022-11-30 22:36:55
,wl-rdm,97,560699,0.0-6.89-0.89,0.0,96.0,,,,,,,[],,,,,,53.2,1.0,i,1.0,True,1497.8999998569489,90.0,60.0,40.0,False,,385.1628913049751,[],"[768, 432]",ColorTask,46.0,90.0,,,HRV,HRV_0311,2022-11-30 22:36:55
,wl-rdm,98,563629,0.0-6.90-0.90,0.0,97.0,,,,,,,[],,,,,,56.4,0.0,u,0.0,True,1523.5000002384186,92.0,60.0,40.0,False,,320.0656580882973,[],"[768, 432]",ColorTask,47.0,91.0,,,HRV,HRV_0311,2022-11-30 22:36:55
,wl-rdm,99,566477,0.0-6.91-0.91,0.0,98.0,,,,,,,[],,,,,,62.5,0.0,u,0.0,True,1513.7000000476837,91.0,60.0,40.0,False,,257.5601140173829,[],"[768, 432]",ColorTask,48.0,92.0,,,HRV,HRV_0311,2022-11-30 22:36:55
,wl-rdm,100,570240,0.0-6.92-0.92,0.0,99.0,,,,,,,[],,,,,,73.6,0.0,u,0.0,True,2305.5,139.0,60.0,40.0,False,,380.14392562622,[],"[768, 432]",ColorTask,49.0,93.0,,,HRV,HRV_0311,2022-11-30 22:36:55
,wl-rdm,101,573421,0.0-6.93-0.93,0.0,100.0,,,,,,,[],,,,,,50.0,1.0,i,1.0,True,1809.0999999046326,109.0,60.0,40.0,False,,304.1503102135626,[],"[768, 432]",ColorTask,50.0,94.0,,,HRV,HRV_0311,2022-11-30 22:36:55
,wl-rdm,102,576718,0.0-6.94-0.94,0.0,101.0,,,,,,,[],,,,,,62.5,1.0,i,1.0,True,1946.4000000953674,117.0,60.0,40.0,False,,275.2792381822806,[],"[768, 432]",ColorTask,51.0,95.0,,,HRV,HRV_0311,2022-11-30 22:36:55
,wl-rdm,103,579882,0.0-6.95-0.95,0.0,102.0,,,,,,,[],,,,,,50.0,1.0,i,1.0,True,1683.8999998569489,102.0,60.0,40.0,False,,389.56446701296466,[],"[768, 432]",ColorTask,52.0,96.0,,,HRV,HRV_0311,2022-11-30 22:36:55
,wl-rdm,104,583512,0.0-6.96-0.96,0.0,103.0,,,,,,,[],,,,,,53.2,0.0,i,1.0,False,2299.5,139.0,60.0,40.0,False,,239.71251914361574,[],"[768, 432]",ColorTask,51.0,97.0,,,HRV,HRV_0311,2022-11-30 22:36:55
,wl-rdm,105,587342,0.0-6.97-0.97,0.0,104.0,,,,,,,[],,,,,,50.0,0.0,u,0.0,True,2385.4000000953674,144.0,60.0,40.0,False,,363.83358642748766,[],"[768, 432]",ColorTask,52.0,98.0,,,HRV,HRV_0311,2022-11-30 22:36:55
,wl-rdm,106,590723,0.0-6.98-0.98,0.0,105.0,,,,,,,[],,,,,,53.2,0.0,u,0.0,True,2026.7999999523163,122.0,60.0,40.0,False,,282.62475507332687,[],"[768, 432]",ColorTask,53.0,99.0,,,HRV,HRV_0311,2022-11-30 22:36:55
,wl-rdm,107,594902,0.0-6.99-0.99,0.0,106.0,,,,,,,[],,,,,,56.4,1.0,i,1.0,True,2838.2999999523163,171.0,60.0,40.0,False,,251.01342294054854,[],"[768, 432]",ColorTask,54.0,100.0,,,HRV,HRV_0311,2022-11-30 22:36:55
,wl-rdm,108,598116,0.0-6.100-0.100,0.0,107.0,,,,,,,[],,,,,,53.2,1.0,u,0.0,False,1857.0999999046326,112.0,60.0,40.0,False,,269.3752830024354,[],"[768, 432]",ColorTask,53.0,101.0,,,HRV,HRV_0311,2022-11-30 22:36:55
,wl-rdm,109,601097,0.0-6.101-0.101,0.0,108.0,,,,,,,[],,,,,,53.2,0.0,u,0.0,True,1595.7999999523163,96.0,60.0,40.0,False,,307.84135745763257,[],"[768, 432]",ColorTask,54.0,102.0,,,HRV,HRV_0311,2022-11-30 22:36:55
,wl-rdm,110,605010,0.0-6.102-0.102,0.0,109.0,,,,,,,[],,,,,,56.4,1.0,i,1.0,True,2512.5000002384186,151.0,60.0,40.0,False,,327.1279329056634,[],"[768, 432]",ColorTask,55.0,103.0,,,HRV,HRV_0311,2022-11-30 22:36:55
,wl-rdm,111,608724,0.0-6.103-0.103,0.0,110.0,,,,,,,[],,,,,,50.0,0.0,u,0.0,True,2362.300000190735,142.0,60.0,40.0,False,,272.6573745461429,[],"[768, 432]",ColorTask,56.0,104.0,,,HRV,HRV_0311,2022-11-30 22:36:55
,wl-rdm,112,611801,0.0-6.104-0.104,0.0,111.0,,,,,,,[],,,,,,87.9,1.0,i,1.0,True,1630.8999998569489,98.0,60.0,40.0,False,,367.46361883535343,[],"[768, 432]",ColorTask,57.0,105.0,,,HRV,HRV_0311,2022-11-30 22:36:55
,wl-rdm,113,614432,0.0-6.105-0.105,0.0,112.0,,,,,,,[],,,,,,73.6,0.0,u,0.0,True,1234.4000000953674,75.0,60.0,40.0,False,,303.09137899034835,[],"[768, 432]",ColorTask,58.0,106.0,,,HRV,HRV_0311,2022-11-30 22:36:55
,wl-rdm,114,617479,0.0-6.106-0.106,0.0,113.0,,,,,,,[],,,,,,53.2,0.0,i,1.0,False,1758.2999999523163,106.0,60.0,40.0,False,,215.98821610295997,[],"[768, 432]",ColorTask,57.0,107.0,,,HRV,HRV_0311,2022-11-30 22:36:55
,wl-rdm,115,620343,0.0-6.107-0.107,0.0,114.0,,,,,,,[],,,,,,87.9,0.0,u,0.0,True,1438.9000000953674,87.0,60.0,40.0,False,,341.1816743654749,[],"[768, 432]",ColorTask,58.0,108.0,,,HRV,HRV_0311,2022-11-30 22:36:55
,wl-rdm,116,623291,0.0-6.108-0.108,0.0,115.0,,,,,,,[],,,,,,87.9,1.0,i,1.0,True,1473.6000001430511,89.0,60.0,40.0,False,,389.36963621775135,[],"[768, 432]",ColorTask,59.0,109.0,,,HRV,HRV_0311,2022-11-30 22:36:55
,wl-rdm,117,626105,0.0-6.109-0.109,0.0,116.0,,,,,,,[],,,,,,62.5,0.0,u,0.0,True,1417.5,86.0,60.0,40.0,False,,312.8792579976549,[],"[768, 432]",ColorTask,60.0,110.0,,,HRV,HRV_0311,2022-11-30 22:36:55
,wl-html-keyboard-response,118,710632,0.0-7.0-0.0,1.0,117.0,,,,,,,,82504.10000014305,1.0,0,,,,,,,,,,,,,,,,,,,,,,HRV,HRV_0311,2022-11-30 22:36:55
,wl-rdm,119,714565,0.0-8.0-0.0,1.0,118.0,,,,,,,[],,,,,,50.0,0.0,i,1.0,False,2584.5999999046326,156.0,60.0,40.0,False,,280.9169445627016,[],"[768, 432]",ColorTask,59.0,1.0,,,HRV,HRV_0311,2022-11-30 22:36:55
,wl-rdm,120,717895,0.0-8.1-0.1,1.0,119.0,,,,,,,[],,,,,,56.4,1.0,i,1.0,True,2024.2000000476837,122.0,60.0,40.0,False,,229.4826451963439,[],"[768, 432]",ColorTask,60.0,2.0,,,HRV,HRV_0311,2022-11-30 22:36:55
,wl-rdm,121,721941,0.0-8.2-0.2,1.0,120.0,,,,,,,[],,,,,,50.0,0.0,u,0.0,True,2583.0999999046326,156.0,60.0,40.0,False,,370.86454006351727,[],"[768, 432]",ColorTask,61.0,3.0,,,HRV,HRV_0311,2022-11-30 22:36:55
,wl-rdm,122,725638,0.0-8.3-0.3,1.0,121.0,,,,,,,[],,,,,,56.4,0.0,u,0.0,True,2333.600000143051,141.0,60.0,40.0,False,,294.097502243555,[],"[768, 432]",ColorTask,62.0,4.0,,,HRV,HRV_0311,2022-11-30 22:36:55
,wl-rdm,123,728452,0.0-8.4-0.4,1.0,122.0,,,,,,,[],,,,,,87.9,1.0,i,1.0,True,1523.7999999523163,92.0,60.0,40.0,False,,211.8057770204195,[],"[768, 432]",ColorTask,63.0,5.0,,,HRV,HRV_0311,2022-11-30 22:36:55
,wl-rdm,124,732033,0.0-8.5-0.5,1.0,123.0,,,,,,,[],,,,,,56.4,1.0,i,1.0,True,2236.7999997138977,135.0,60.0,40.0,False,,265.31763003466517,[],"[768, 432]",ColorTask,64.0,6.0,,,HRV,HRV_0311,2022-11-30 22:36:55
,wl-rdm,125,734981,0.0-8.6-0.6,1.0,124.0,,,,,,,[],,,,,,73.6,1.0,i,1.0,True,1600.9000000953674,97.0,60.0,40.0,False,,255.40905215368082,[],"[768, 432]",ColorTask,65.0,7.0,,,HRV,HRV_0311,2022-11-30 22:36:55
,wl-rdm,126,738578,0.0-8.7-0.7,1.0,125.0,,,,,,,[],,,,,,50.0,1.0,u,0.0,False,2273.899999856949,137.0,60.0,40.0,False,,234.73744529641144,[],"[768, 432]",ColorTask,64.0,8.0,,,HRV,HRV_0311,2022-11-30 22:36:55
,wl-rdm,127,742075,0.0-8.8-0.8,1.0,126.0,,,,,,,[],,,,,,56.4,0.0,u,0.0,True,2113.7000000476837,127.0,60.0,40.0,False,,318.8728811845356,[],"[768, 432]",ColorTask,65.0,9.0,,,HRV,HRV_0311,2022-11-30 22:36:55
,wl-rdm,128,745022,0.0-8.9-0.9,1.0,127.0,,,,,,,[],,,,,,73.6,1.0,i,1.0,True,1533.8999998569489,93.0,60.0,40.0,False,,324.05126074706084,[],"[768, 432]",ColorTask,66.0,10.0,,,HRV,HRV_0311,2022-11-30 22:36:55
,wl-rdm,129,749285,0.0-8.10-0.10,1.0,128.0,,,,,,,[],,,,,,53.2,0.0,u,0.0,True,2783.9000000953674,168.0,60.0,40.0,False,,385.1640654803625,[],"[768, 432]",ColorTask,67.0,11.0,,,HRV,HRV_0311,2022-11-30 22:36:55
,wl-rdm,130,752532,0.0-8.11-0.11,1.0,129.0,,,,,,,[],,,,,,50.0,0.0,i,1.0,False,1874.3000001907349,113.0,60.0,40.0,False,,294.36253659124446,[],"[768, 432]",ColorTask,66.0,12.0,,,HRV,HRV_0311,2022-11-30 22:36:55
,wl-rdm,131,755080,0.0-8.12-0.12,1.0,130.0,,,,,,,[],,,,,,56.4,0.0,u,0.0,True,1231.4999997615814,74.0,60.0,40.0,False,,254.87098091122988,[],"[768, 432]",ColorTask,67.0,13.0,,,HRV,HRV_0311,2022-11-30 22:36:55
,wl-rdm,132,757977,0.0-8.13-0.13,1.0,131.0,,,,,,,[],,,,,,73.6,0.0,u,0.0,True,1601.2000000476837,97.0,60.0,40.0,False,,226.7065335509798,[],"[768, 432]",ColorTask,68.0,14.0,,,HRV,HRV_0311,2022-11-30 22:36:55
,wl-rdm,133,762124,0.0-8.14-0.14,1.0,132.0,,,,,,,[],,,,,,50.0,1.0,i,1.0,True,2843.2999999523163,171.0,60.0,40.0,False,,221.89941911634318,[],"[768, 432]",ColorTask,69.0,15.0,,,HRV,HRV_0311,2022-11-30 22:36:55
,wl-rdm,134,765754,0.0-8.15-0.15,1.0,133.0,,,,,,,[],,,,,,53.2,1.0,i,1.0,True,2327.2999999523163,140.0,60.0,40.0,False,,221.363078586172,[],"[768, 432]",ColorTask,70.0,16.0,,,HRV,HRV_0311,2022-11-30 22:36:55
,wl-rdm,135,768635,0.0-8.16-0.16,1.0,134.0,,,,,,,[],,,,,,87.9,0.0,u,0.0,True,1526.2999999523163,92.0,60.0,40.0,False,,268.46704344748537,[],"[768, 432]",ColorTask,71.0,17.0,,,HRV,HRV_0311,2022-11-30 22:36:55
,wl-rdm,136,771632,0.0-8.17-0.17,1.0,135.0,,,,,,,[],,,,,,62.5,0.0,u,0.0,True,1673.400000333786,101.0,60.0,40.0,False,,240.52872913057365,[],"[768, 432]",ColorTask,72.0,18.0,,,HRV,HRV_0311,2022-11-30 22:36:55
,wl-rdm,137,774563,0.0-8.18-0.18,1.0,136.0,,,,,,,[],,,,,,73.6,1.0,i,1.0,True,1584.6999998092651,96.0,60.0,40.0,False,,263.81595726090694,[],"[768, 432]",ColorTask,73.0,19.0,,,HRV,HRV_0311,2022-11-30 22:36:55
,wl-rdm,138,777561,0.0-8.19-0.19,1.0,137.0,,,,,,,[],,,,,,73.6,0.0,u,0.0,True,1594.2999999523163,96.0,60.0,40.0,False,,326.45403717710514,[],"[768, 432]",ColorTask,74.0,20.0,,,HRV,HRV_0311,2022-11-30 22:36:55
,wl-rdm,139,780874,0.0-8.20-0.20,1.0,138.0,,,,,,,[],,,,,,53.2,1.0,i,1.0,True,1927.5999999046326,116.0,60.0,40.0,False,,309.9764336653421,[],"[768, 432]",ColorTask,75.0,21.0,,,HRV,HRV_0311,2022-11-30 22:36:55
,wl-rdm,140,784121,0.0-8.21-0.21,1.0,139.0,,,,,,,[],,,,,,87.9,0.0,u,0.0,True,1954.1000001430511,118.0,60.0,40.0,False,,205.86574166976897,[],"[768, 432]",ColorTask,76.0,22.0,,,HRV,HRV_0311,2022-11-30 22:36:55
,wl-rdm,141,788351,0.0-8.22-0.22,1.0,140.0,,,,,,,[],,,,,,50.0,1.0,i,1.0,True,2865.800000190735,173.0,60.0,40.0,False,,276.12424105264546,[],"[768, 432]",ColorTask,77.0,23.0,,,HRV,HRV_0311,2022-11-30 22:36:55
,wl-rdm,142,792113,0.0-8.23-0.23,1.0,141.0,,,,,,,[],,,,,,50.0,0.0,i,1.0,False,2375.0999999046326,143.0,60.0,40.0,False,,304.2041540291239,[],"[768, 432]",ColorTask,76.0,24.0,,,HRV,HRV_0311,2022-11-30 22:36:55
,wl-rdm,143,795143,0.0-8.24-0.24,1.0,142.0,,,,,,,[],,,,,,87.9,1.0,i,1.0,True,1730.7000000476837,104.0,60.0,40.0,False,,224.79403303607376,[],"[768, 432]",ColorTask,77.0,25.0,,,HRV,HRV_0311,2022-11-30 22:36:55
,wl-rdm,144,798124,0.0-8.25-0.25,1.0,143.0,,,,,,,[],,,,,,73.6,0.0,u,0.0,True,1536.8000001907349,93.0,60.0,40.0,False,,354.1593355262337,[],"[768, 432]",ColorTask,78.0,26.0,,,HRV,HRV_0311,2022-11-30 22:36:55
,wl-rdm,145,801138,0.0-8.26-0.26,1.0,144.0,,,,,,,[],,,,,,62.5,0.0,u,0.0,True,1650.7000002861023,100.0,60.0,40.0,False,,267.40330176892485,[],"[768, 432]",ColorTask,79.0,27.0,,,HRV,HRV_0311,2022-11-30 22:36:55
,wl-rdm,146,804569,0.0-8.27-0.27,1.0,145.0,,,,,,,[],,,,,,56.4,1.0,i,1.0,True,2043.5,123.0,60.0,40.0,False,,308.0410526222498,[],"[768, 432]",ColorTask,80.0,28.0,,,HRV,HRV_0311,2022-11-30 22:36:55
,wl-rdm,147,807615,0.0-8.28-0.28,1.0,146.0,,,,,,,[],,,,,,73.6,1.0,i,1.0,True,1753.0999999046326,106.0,60.0,40.0,False,,213.01839968795989,[],"[768, 432]",ColorTask,81.0,29.0,,,HRV,HRV_0311,2022-11-30 22:36:55
,wl-rdm,148,810946,0.0-8.29-0.29,1.0,147.0,,,,,,,[],,,,,,50.0,0.0,u,0.0,True,2011.1999998092651,121.0,60.0,40.0,False,,235.90127264782413,[],"[768, 432]",ColorTask,82.0,30.0,,,HRV,HRV_0311,2022-11-30 22:36:55
,wl-rdm,149,815259,0.0-8.30-0.30,1.0,147.0,,,,,,,[],,,,,,50.0,1.0,,,,,179.0,60.0,40.0,True,RT_timeout ,205.21580467401938,[],"[768, 432]",ColorTask,81.0,31.0,,,HRV,HRV_0311,2022-11-30 22:36:55
,wl-rdm,150,818106,0.0-8.31-0.31,1.0,148.0,,,,,,,[],,,,,,56.4,0.0,u,0.0,True,1512.2000000476837,91.0,60.0,40.0,False,,252.3086649820352,[],"[768, 432]",ColorTask,82.0,32.0,,,HRV,HRV_0311,2022-11-30 22:36:55
,wl-rdm,151,820854,0.0-8.32-0.32,1.0,149.0,,,,,,,[],,,,,,73.6,1.0,i,1.0,True,1334.4000000953674,81.0,60.0,40.0,False,,322.48429242913653,[],"[768, 432]",ColorTask,83.0,33.0,,,HRV,HRV_0311,2022-11-30 22:36:55
,wl-rdm,152,823935,0.0-8.33-0.33,1.0,150.0,,,,,,,[],,,,,,62.5,0.0,u,0.0,True,1727.7999999523163,104.0,60.0,40.0,False,,267.79024625741107,[],"[768, 432]",ColorTask,84.0,34.0,,,HRV,HRV_0311,2022-11-30 22:36:55
,wl-rdm,153,826633,0.0-8.34-0.34,1.0,151.0,,,,,,,[],,,,,,73.6,1.0,i,1.0,True,1363.5999999046326,82.0,60.0,40.0,False,,260.77444048161476,[],"[768, 432]",ColorTask,85.0,35.0,,,HRV,HRV_0311,2022-11-30 22:36:55
,wl-rdm,154,829597,0.0-8.35-0.35,1.0,152.0,,,,,,,[],,,,,,56.4,1.0,u,0.0,False,1513.4000000953674,91.0,60.0,40.0,False,,371.52264285558635,[],"[768, 432]",ColorTask,84.0,36.0,,,HRV,HRV_0311,2022-11-30 22:36:55
,wl-rdm,155,832444,0.0-8.36-0.36,1.0,153.0,,,,,,,[],,,,,,53.2,0.0,i,1.0,False,1552.2000000476837,94.0,60.0,40.0,False,,203.43015443607985,[],"[768, 432]",ColorTask,83.0,37.0,,,HRV,HRV_0311,2022-11-30 22:36:55
,wl-rdm,156,835025,0.0-8.37-0.37,1.0,154.0,,,,,,,[],,,,,,87.9,0.0,u,0.0,True,1100.5,67.0,60.0,40.0,False,,388.09486738751673,[],"[768, 432]",ColorTask,84.0,38.0,,,HRV,HRV_0311,2022-11-30 22:36:55
,wl-rdm,157,837956,0.0-8.38-0.38,1.0,155.0,,,,,,,[],,,,,,62.5,0.0,u,0.0,True,1647.7000000476837,99.0,60.0,40.0,False,,222.6733818978309,[],"[768, 432]",ColorTask,85.0,39.0,,,HRV,HRV_0311,2022-11-30 22:36:55
,wl-rdm,158,840737,0.0-8.39-0.39,1.0,156.0,,,,,,,[],,,,,,73.6,1.0,i,1.0,True,1412.0,85.0,60.0,40.0,False,,297.620856860398,[],"[768, 432]",ColorTask,86.0,40.0,,,HRV,HRV_0311,2022-11-30 22:36:55
,wl-rdm,159,843618,0.0-8.40-0.40,1.0,157.0,,,,,,,[],,,,,,73.6,1.0,i,1.0,True,1484.4000000953674,90.0,60.0,40.0,False,,303.1267855733851,[],"[768, 432]",ColorTask,87.0,41.0,,,HRV,HRV_0311,2022-11-30 22:36:55
,wl-rdm,160,846898,0.0-8.41-0.41,1.0,158.0,,,,,,,[],,,,,,56.4,0.0,u,0.0,True,1894.3000001907349,114.0,60.0,40.0,False,,303.11085481835835,[],"[768, 432]",ColorTask,88.0,42.0,,,HRV,HRV_0311,2022-11-30 22:36:55
,wl-rdm,161,849879,0.0-8.42-0.42,1.0,159.0,,,,,,,[],,,,,,87.9,0.0,u,0.0,True,1578.2000000476837,95.0,60.0,40.0,False,,319.5939725183386,[],"[768, 432]",ColorTask,89.0,43.0,,,HRV,HRV_0311,2022-11-30 22:36:55
,wl-rdm,162,852894,0.0-8.43-0.43,1.0,160.0,,,,,,,[],,,,,,73.6,0.0,u,0.0,True,1540.5999999046326,93.0,60.0,40.0,False,,397.6346296037609,[],"[768, 432]",ColorTask,90.0,44.0,,,HRV,HRV_0311,2022-11-30 22:36:55
,wl-rdm,163,855892,0.0-8.44-0.44,1.0,161.0,,,,,,,[],,,,,,56.4,0.0,i,1.0,False,1615.2000000476837,97.0,60.0,40.0,False,,306.22502773365073,[],"[768, 432]",ColorTask,89.0,45.0,,,HRV,HRV_0311,2022-11-30 22:36:55
,wl-rdm,164,858722,0.0-8.45-0.45,1.0,162.0,,,,,,,[],,,,,,50.0,1.0,i,1.0,True,1484.2000000476837,90.0,60.0,40.0,False,,264.22996232034427,[],"[768, 432]",ColorTask,90.0,46.0,,,HRV,HRV_0311,2022-11-30 22:36:55
,wl-rdm,165,862469,0.0-8.46-0.46,1.0,163.0,,,,,,,[],,,,,,53.2,1.0,i,1.0,True,2340.9000000953674,141.0,60.0,40.0,False,,325.9450032815417,[],"[768, 432]",ColorTask,91.0,47.0,,,HRV,HRV_0311,2022-11-30 22:36:55
,wl-rdm,166,865250,0.0-8.47-0.47,1.0,164.0,,,,,,,[],,,,,,73.6,0.0,u,0.0,True,1438.2999997138977,87.0,60.0,40.0,False,,255.73525807922178,[],"[768, 432]",ColorTask,92.0,48.0,,,HRV,HRV_0311,2022-11-30 22:36:55
,wl-rdm,167,869213,0.0-8.48-0.48,1.0,165.0,,,,,,,[],,,,,,56.4,0.0,i,1.0,False,2616.2000000476837,158.0,60.0,40.0,False,,256.4750604681957,[],"[768, 432]",ColorTask,91.0,49.0,,,HRV,HRV_0311,2022-11-30 22:36:55
,wl-rdm,168,871744,0.0-8.49-0.49,1.0,166.0,,,,,,,[],,,,,,73.6,0.0,u,0.0,True,1126.0,68.0,60.0,40.0,False,,323.45518310426434,[],"[768, 432]",ColorTask,92.0,50.0,,,HRV,HRV_0311,2022-11-30 22:36:55
,wl-rdm,169,874459,0.0-8.50-0.50,1.0,167.0,,,,,,,[],,,,,,73.6,0.0,u,0.0,True,1334.4999997615814,81.0,60.0,40.0,False,,299.5704727351929,[],"[768, 432]",ColorTask,93.0,51.0,,,HRV,HRV_0311,2022-11-30 22:36:55
,wl-rdm,170,877922,0.0-8.51-0.51,1.0,168.0,,,,,,,[],,,,,,53.2,1.0,i,1.0,True,2108.5,127.0,60.0,40.0,False,,279.4475970603631,[],"[768, 432]",ColorTask,94.0,52.0,,,HRV,HRV_0311,2022-11-30 22:36:55
,wl-rdm,171,881153,0.0-8.52-0.52,1.0,169.0,,,,,,,[],,,,,,87.9,1.0,i,1.0,True,1751.0999999046326,106.0,60.0,40.0,False,,392.7327235563461,[],"[768, 432]",ColorTask,95.0,53.0,,,HRV,HRV_0311,2022-11-30 22:36:55
,wl-rdm,172,884067,0.0-8.53-0.53,1.0,170.0,,,,,,,[],,,,,,73.6,0.0,u,0.0,True,1526.5,92.0,60.0,40.0,False,,312.9214783831219,[],"[768, 432]",ColorTask,96.0,54.0,,,HRV,HRV_0311,2022-11-30 22:36:55
,wl-rdm,173,888180,0.0-8.54-0.54,1.0,171.0,,,,,,,[],,,,,,56.4,1.0,u,0.0,False,2740.100000143051,165.0,60.0,40.0,False,,296.79417289931484,[],"[768, 432]",ColorTask,95.0,55.0,,,HRV,HRV_0311,2022-11-30 22:36:55
,wl-rdm,174,890627,0.0-8.55-0.55,1.0,172.0,,,,,,,[],,,,,,53.2,1.0,i,1.0,True,1154.8999998569489,70.0,60.0,40.0,False,,204.6159302345921,[],"[768, 432]",ColorTask,96.0,56.0,,,HRV,HRV_0311,2022-11-30 22:36:55
,wl-rdm,175,893192,0.0-8.56-0.56,1.0,173.0,,,,,,,[],,,,,,87.9,0.0,u,0.0,True,1167.5,71.0,60.0,40.0,False,,308.12327706851613,[],"[768, 432]",ColorTask,97.0,57.0,,,HRV,HRV_0311,2022-11-30 22:36:55
,wl-rdm,176,897056,0.0-8.57-0.57,1.0,174.0,,,,,,,[],,,,,,53.2,1.0,i,1.0,True,2408.800000190735,145.0,60.0,40.0,False,,371.5303229877613,[],"[768, 432]",ColorTask,98.0,58.0,,,HRV,HRV_0311,2022-11-30 22:36:55
,wl-rdm,177,900969,0.0-8.58-0.58,1.0,175.0,,,,,,,[],,,,,,50.0,1.0,i,1.0,True,2587.5999999046326,156.0,60.0,40.0,False,,238.09383301015055,[],"[768, 432]",ColorTask,99.0,59.0,,,HRV,HRV_0311,2022-11-30 22:36:55
,wl-rdm,178,903750,0.0-8.59-0.59,1.0,176.0,,,,,,,[],,,,,,73.6,0.0,u,0.0,True,1381.1000001430511,83.0,60.0,40.0,False,,344.2512567850084,[],"[768, 432]",ColorTask,100.0,60.0,,,HRV,HRV_0311,2022-11-30 22:36:55
,wl-rdm,179,907130,0.0-8.60-0.60,1.0,177.0,,,,,,,[],,,,,,62.5,0.0,i,1.0,False,2031.0,122.0,60.0,40.0,False,,279.63156032770377,[],"[768, 432]",ColorTask,99.0,61.0,,,HRV,HRV_0311,2022-11-30 22:36:55
,wl-rdm,180,909678,0.0-8.61-0.61,1.0,178.0,,,,,,,[],,,,,,53.2,1.0,i,1.0,True,1198.0999999046326,72.0,60.0,40.0,False,,273.5630601330773,[],"[768, 432]",ColorTask,100.0,62.0,,,HRV,HRV_0311,2022-11-30 22:36:55
,wl-rdm,181,913392,0.0-8.62-0.62,1.0,179.0,,,,,,,[],,,,,,56.4,0.0,u,0.0,True,2268.5,137.0,60.0,40.0,False,,358.5858002748073,[],"[768, 432]",ColorTask,101.0,63.0,,,HRV,HRV_0311,2022-11-30 22:36:55
,wl-rdm,182,916073,0.0-8.63-0.63,1.0,180.0,,,,,,,[],,,,,,87.9,1.0,i,1.0,True,1362.7000000476837,82.0,60.0,40.0,False,,234.87105255596637,[],"[768, 432]",ColorTask,102.0,64.0,,,HRV,HRV_0311,2022-11-30 22:36:55
,wl-rdm,183,919387,0.0-8.64-0.64,1.0,181.0,,,,,,,[],,,,,,62.5,1.0,i,1.0,True,1847.5,111.0,60.0,40.0,False,,390.12470027460245,[],"[768, 432]",ColorTask,103.0,65.0,,,HRV,HRV_0311,2022-11-30 22:36:55
,wl-rdm,184,922268,0.0-8.65-0.65,1.0,182.0,,,,,,,[],,,,,,62.5,1.0,i,1.0,True,1558.7999999523163,94.0,60.0,40.0,False,,237.11472544874488,[],"[768, 432]",ColorTask,104.0,66.0,,,HRV,HRV_0311,2022-11-30 22:36:55
,wl-rdm,185,925199,0.0-8.66-0.66,1.0,183.0,,,,,,,[],,,,,,53.2,0.0,i,1.0,False,1570.1000001430511,95.0,60.0,40.0,False,,270.1980410082458,[],"[768, 432]",ColorTask,103.0,67.0,,,HRV,HRV_0311,2022-11-30 22:36:55
,wl-rdm,186,928995,0.0-8.67-0.67,1.0,184.0,,,,,,,[],,,,,,53.2,0.0,u,0.0,True,2449.7000000476837,148.0,60.0,40.0,False,,265.2309903477842,[],"[768, 432]",ColorTask,104.0,68.0,,,HRV,HRV_0311,2022-11-30 22:36:55
,wl-rdm,187,932042,0.0-8.68-0.68,1.0,185.0,,,,,,,[],,,,,,62.5,1.0,i,1.0,True,1659.2999999523163,100.0,60.0,40.0,False,,303.97206471495497,[],"[768, 432]",ColorTask,105.0,69.0,,,HRV,HRV_0311,2022-11-30 22:36:55
,wl-rdm,188,934724,0.0-8.69-0.69,1.0,186.0,,,,,,,[],,,,,,53.2,0.0,u,0.0,True,1330.4000000953674,80.0,60.0,40.0,False,,279.96411458396153,[],"[768, 432]",ColorTask,106.0,70.0,,,HRV,HRV_0311,2022-11-30 22:36:55
,wl-rdm,189,937604,0.0-8.70-0.70,1.0,187.0,,,,,,,[],,,,,,50.0,1.0,u,0.0,False,1542.7999999523163,93.0,60.0,40.0,False,,265.9045822436292,[],"[768, 432]",ColorTask,105.0,71.0,,,HRV,HRV_0311,2022-11-30 22:36:55
,wl-rdm,190,940702,0.0-8.71-0.71,1.0,188.0,,,,,,,[],,,,,,53.2,0.0,i,1.0,False,1729.3000001907349,104.0,60.0,40.0,False,,292.31735225963394,[],"[768, 432]",ColorTask,104.0,72.0,,,HRV,HRV_0311,2022-11-30 22:36:55
,wl-rdm,191,943566,0.0-8.72-0.72,1.0,189.0,,,,,,,[],,,,,,50.0,0.0,i,1.0,False,1501.2999999523163,91.0,60.0,40.0,False,,269.0676093093714,[],"[768, 432]",ColorTask,103.0,73.0,,,HRV,HRV_0311,2022-11-30 22:36:55
,wl-rdm,192,946114,0.0-8.73-0.73,1.0,190.0,,,,,,,[],,,,,,87.9,1.0,i,1.0,True,1212.9999997615814,73.0,60.0,40.0,False,,258.5060460705597,[],"[768, 432]",ColorTask,104.0,74.0,,,HRV,HRV_0311,2022-11-30 22:36:55
,wl-rdm,193,948761,0.0-8.74-0.74,1.0,191.0,,,,,,,[],,,,,,53.2,0.0,u,0.0,True,1257.7999999523163,76.0,60.0,40.0,False,,303.1482418673647,[],"[768, 432]",ColorTask,105.0,75.0,,,HRV,HRV_0311,2022-11-30 22:36:55
,wl-rdm,194,951459,0.0-8.75-0.75,1.0,192.0,,,,,,,[],,,,,,87.9,1.0,i,1.0,True,1309.5,79.0,60.0,40.0,False,,314.6390299107003,[],"[768, 432]",ColorTask,106.0,76.0,,,HRV,HRV_0311,2022-11-30 22:36:55
,wl-rdm,195,953707,0.0-8.76-0.76,1.0,193.0,,,,,,,[],,,,,,62.5,0.0,u,0.0,True,954.9999997615814,58.0,60.0,40.0,False,,208.84367121197252,[],"[768, 432]",ColorTask,107.0,77.0,,,HRV,HRV_0311,2022-11-30 22:36:55
,wl-rdm,196,958003,0.0-8.77-0.77,1.0,194.0,,,,,,,[],,,,,,53.2,0.0,u,0.0,True,2874.2000000476837,173.0,60.0,40.0,False,,333.98939182614015,[],"[768, 432]",ColorTask,108.0,78.0,,,HRV,HRV_0311,2022-11-30 22:36:55
,wl-rdm,197,960618,0.0-8.78-0.78,1.0,195.0,,,,,,,[],,,,,,87.9,0.0,u,0.0,True,1219.0999999046326,74.0,60.0,40.0,False,,313.2967079790453,[],"[768, 432]",ColorTask,109.0,79.0,,,HRV,HRV_0311,2022-11-30 22:36:55
,wl-rdm,198,963198,0.0-8.79-0.79,1.0,196.0,,,,,,,[],,,,,,87.9,1.0,i,1.0,True,1276.0,77.0,60.0,40.0,False,,222.51724940241866,[],"[768, 432]",ColorTask,110.0,80.0,,,HRV,HRV_0311,2022-11-30 22:36:55
,wl-rdm,199,965746,0.0-8.80-0.80,1.0,197.0,,,,,,,[],,,,,,53.2,0.0,u,0.0,True,1261.2000000476837,76.0,60.0,40.0,False,,216.33067037117036,[],"[768, 432]",ColorTask,111.0,81.0,,,HRV,HRV_0311,2022-11-30 22:36:55
,wl-rdm,200,969160,0.0-8.81-0.81,1.0,198.0,,,,,,,[],,,,,,56.4,1.0,i,1.0,True,2108.5999999046326,127.0,60.0,40.0,False,,230.33456104245016,[],"[768, 432]",ColorTask,112.0,82.0,,,HRV,HRV_0311,2022-11-30 22:36:55
,wl-rdm,201,972470,0.0-8.82-0.82,1.0,199.0,,,,,,,[],,,,,,50.0,1.0,u,0.0,False,1842.9000000953674,111.0,60.0,40.0,False,,395.65742377953995,[],"[768, 432]",ColorTask,111.0,83.0,,,HRV,HRV_0311,2022-11-30 22:36:55
,wl-rdm,202,974751,0.0-8.83-0.83,1.0,200.0,,,,,,,[],,,,,,87.9,0.0,u,0.0,True,976.0999999046326,59.0,60.0,40.0,False,,224.17067041546227,[],"[768, 432]",ColorTask,112.0,84.0,,,HRV,HRV_0311,2022-11-30 22:36:55
,wl-rdm,203,977382,0.0-8.84-0.84,1.0,201.0,,,,,,,[],,,,,,62.5,1.0,i,1.0,True,1296.0,78.0,60.0,40.0,False,,263.3144015518421,[],"[768, 432]",ColorTask,113.0,85.0,,,HRV,HRV_0311,2022-11-30 22:36:55
,wl-rdm,204,980113,0.0-8.85-0.85,1.0,202.0,,,,,,,[],,,,,,62.5,1.0,i,1.0,True,1317.5,80.0,60.0,40.0,False,,326.37306255418184,[],"[768, 432]",ColorTask,114.0,86.0,,,HRV,HRV_0311,2022-11-30 22:36:55
,wl-rdm,205,983493,0.0-8.86-0.86,1.0,203.0,,,,,,,[],,,,,,50.0,0.0,i,1.0,False,2092.5999999046326,126.0,60.0,40.0,False,,212.7609564279886,[],"[768, 432]",ColorTask,113.0,87.0,,,HRV,HRV_0311,2022-11-30 22:36:55
,wl-rdm,206,985758,0.0-8.87-0.87,1.0,204.0,,,,,,,[],,,,,,62.5,0.0,u,0.0,True,870.1999998092651,53.0,60.0,40.0,False,,306.2376159368715,[],"[768, 432]",ColorTask,114.0,88.0,,,HRV,HRV_0311,2022-11-30 22:36:55
,wl-rdm,207,988139,0.0-8.88-0.88,1.0,205.0,,,,,,,[],,,,,,87.9,0.0,u,0.0,True,1035.2000000476837,63.0,60.0,40.0,False,,260.1958490371895,[],"[768, 432]",ColorTask,115.0,89.0,,,HRV,HRV_0311,2022-11-30 22:36:55
,wl-rdm,208,991303,0.0-8.89-0.89,1.0,206.0,,,,,,,[],,,,,,50.0,0.0,u,0.0,True,1773.7999999523163,107.0,60.0,40.0,False,,310.14468343006604,[],"[768, 432]",ColorTask,116.0,90.0,,,HRV,HRV_0311,2022-11-30 22:36:55
,wl-rdm,209,994284,0.0-8.90-0.90,1.0,207.0,,,,,,,[],,,,,,50.0,1.0,u,0.0,False,1633.3999998569489,99.0,60.0,40.0,False,,265.25849759514784,[],"[768, 432]",ColorTask,115.0,91.0,,,HRV,HRV_0311,2022-11-30 22:36:55
,wl-rdm,210,996665,0.0-8.91-0.91,1.0,208.0,,,,,,,[],,,,,,73.6,1.0,i,1.0,True,943.9000000953674,57.0,60.0,40.0,False,,359.7504557585634,[],"[768, 432]",ColorTask,116.0,92.0,,,HRV,HRV_0311,2022-11-30 22:36:55
,wl-rdm,211,1000545,0.0-8.92-0.92,1.0,209.0,,,,,,,[],,,,,,62.5,1.0,u,0.0,False,2493.800000190735,150.0,60.0,40.0,False,,314.5913251355401,[],"[768, 432]",ColorTask,115.0,93.0,,,HRV,HRV_0311,2022-11-30 22:36:55
,wl-rdm,212,1003958,0.0-8.93-0.93,1.0,210.0,,,,,,,[],,,,,,62.5,1.0,i,1.0,True,2066.7000000476837,125.0,60.0,40.0,False,,253.8211488300925,[],"[768, 432]",ColorTask,116.0,94.0,,,HRV,HRV_0311,2022-11-30 22:36:55
,wl-rdm,213,1006440,0.0-8.94-0.94,1.0,211.0,,,,,,,[],,,,,,56.4,0.0,u,0.0,True,1093.8999998569489,66.0,60.0,40.0,False,,303.5551257621088,[],"[768, 432]",ColorTask,117.0,95.0,,,HRV,HRV_0311,2022-11-30 22:36:55
,wl-rdm,214,1009154,0.0-8.95-0.95,1.0,212.0,,,,,,,[],,,,,,62.5,0.0,u,0.0,True,1327.1999998092651,80.0,60.0,40.0,False,,311.3745176045561,[],"[768, 432]",ColorTask,118.0,96.0,,,HRV,HRV_0311,2022-11-30 22:36:55
,wl-rdm,215,1011486,0.0-8.96-0.96,1.0,213.0,,,,,,,[],,,,,,87.9,1.0,i,1.0,True,979.2999999523163,59.0,60.0,40.0,False,,266.3177046652987,[],"[768, 432]",ColorTask,119.0,97.0,,,HRV,HRV_0311,2022-11-30 22:36:55
,wl-rdm,216,1014133,0.0-8.97-0.97,1.0,214.0,,,,,,,[],,,,,,62.5,0.0,u,0.0,True,1288.7999997138977,78.0,60.0,40.0,False,,277.6208324940106,[],"[768, 432]",ColorTask,120.0,98.0,,,HRV,HRV_0311,2022-11-30 22:36:55
,wl-rdm,217,1017064,0.0-8.98-0.98,1.0,215.0,,,,,,,[],,,,,,53.2,1.0,u,0.0,False,1597.4999997615814,96.0,60.0,40.0,False,,271.64198017079127,[],"[768, 432]",ColorTask,119.0,99.0,,,HRV,HRV_0311,2022-11-30 22:36:55
,wl-rdm,218,1020711,0.0-8.99-0.99,1.0,216.0,,,,,,,[],,,,,,56.4,1.0,i,1.0,True,2308.2000000476837,139.0,60.0,40.0,False,,266.0596441341636,[],"[768, 432]",ColorTask,120.0,100.0,,,HRV,HRV_0311,2022-11-30 22:36:55
,wl-rdm,219,1024141,0.0-8.100-0.100,1.0,217.0,,,,,,,[],,,,,,53.2,1.0,i,1.0,True,1966.900000333786,119.0,60.0,40.0,False,,375.74728948396785,[],"[768, 432]",ColorTask,121.0,101.0,,,HRV,HRV_0311,2022-11-30 22:36:55
,wl-rdm,220,1027888,0.0-8.101-0.101,1.0,218.0,,,,,,,[],,,,,,50.0,1.0,i,1.0,True,2325.2999999523163,140.0,60.0,40.0,False,,343.9826712657535,[],"[768, 432]",ColorTask,122.0,102.0,,,HRV,HRV_0311,2022-11-30 22:36:55
,wl-rdm,221,1031085,0.0-8.102-0.102,1.0,219.0,,,,,,,[],,,,,,56.4,1.0,i,1.0,True,1828.5999999046326,110.0,60.0,40.0,False,,292.9060613268639,[],"[768, 432]",ColorTask,123.0,103.0,,,HRV,HRV_0311,2022-11-30 22:36:55
,wl-rdm,222,1034050,0.0-8.103-0.103,1.0,220.0,,,,,,,[],,,,,,56.4,1.0,i,1.0,True,1659.2000000476837,100.0,60.0,40.0,False,,226.8454763704709,[],"[768, 432]",ColorTask,124.0,104.0,,,HRV,HRV_0311,2022-11-30 22:36:55
,wl-rdm,223,1037047,0.0-8.104-0.104,1.0,221.0,,,,,,,[],,,,,,62.5,1.0,i,1.0,True,1543.2999999523163,93.0,60.0,40.0,False,,376.1925599022993,[],"[768, 432]",ColorTask,125.0,105.0,,,HRV,HRV_0311,2022-11-30 22:36:55
,wl-rdm,224,1040062,0.0-8.105-0.105,1.0,222.0,,,,,,,[],,,,,,62.5,1.0,i,1.0,True,1602.0,97.0,60.0,40.0,False,,320.02040275015713,[],"[768, 432]",ColorTask,126.0,106.0,,,HRV,HRV_0311,2022-11-30 22:36:55
,wl-rdm,225,1043159,0.0-8.106-0.106,1.0,223.0,,,,,,,[],,,,,,50.0,0.0,i,1.0,False,1639.7999999523163,99.0,60.0,40.0,False,,378.9753849270861,[],"[768, 432]",ColorTask,125.0,107.0,,,HRV,HRV_0311,2022-11-30 22:36:55
,wl-rdm,226,1045690,0.0-8.107-0.107,1.0,224.0,,,,,,,[],,,,,,87.9,1.0,i,1.0,True,1123.6000001430511,68.0,60.0,40.0,False,,327.7104119930827,[],"[768, 432]",ColorTask,126.0,108.0,,,HRV,HRV_0311,2022-11-30 22:36:55
,wl-rdm,227,1048071,0.0-8.108-0.108,1.0,225.0,,,,,,,[],,,,,,87.9,0.0,u,0.0,True,1079.0,65.0,60.0,40.0,False,,223.64734578445638,[],"[768, 432]",ColorTask,127.0,109.0,,,HRV,HRV_0311,2022-11-30 22:36:55
,wl-html-button-response,228,1052379,0.0-9.0-0.0,,,,,,,,,,4303.0,,0,,,,,,,,,,,,,,,,,,,,<h3>End of this session. Thank you!</h3><br>,['Close window'],HRV,HRV_0311,2022-11-30 22:36:55
