trialN,stimuli,question,trialStartTime,trialStartTime_UNIX,stimulus1,rt,receivedResponse,rating,trialEndTime,trialDuration,stimulus1Loaded,exp,subjectId,date
0,"[{'imgObject': {}, 'id': 'lox', 'src': '/static/foodstim60/lox.jpg', 'key': 'NaN', 'origWidth': 410, 'origHeight': 411, 'width': 410, 'height': 411, 'widthPercent': 0.8, 'rescaleHeight': True, 'trialN': 0, 'loaded': True, 'loadedTime': 3276, 'positionName': 'CENTER', 'positionCoords': [563, 226.5]}]",Rate how much you want to eat this food from 0 (least) to 10 (most).,3637.0,1669845257717,lox,9784.5,True,7.0,13421.5,9784.5,True,HRV,HRV_0311,2022-11-30 21:56:19
1,"[{'imgObject': {}, 'id': 'luckycharms', 'src': '/static/foodstim60/luckycharms.jpg', 'key': 'NaN', 'origWidth': 410, 'origHeight': 409, 'width': 410, 'height': 409, 'widthPercent': 0.8, 'rescaleHeight': True, 'trialN': 1, 'loaded': True, 'loadedTime': 3279.7000000476837, 'positionName': 'CENTER', 'positionCoords': [563, 227.5]}]",Rate how much you want to eat this food from 0 (least) to 10 (most).,13424.900000095367,1669845267505,luckycharms,1952.7000000476837,True,0.75,15377.600000143051,1952.7000000476837,True,HRV,HRV_0311,2022-11-30 21:56:19
2,"[{'imgObject': {}, 'id': 'blueberries', 'src': '/static/foodstim60/blueberries.jpg', 'key': 'NaN', 'origWidth': 411, 'origHeight': 411, 'width': 411, 'height': 411, 'widthPercent': 0.8, 'rescaleHeight': True, 'trialN': 2, 'loaded': True, 'loadedTime': 3283.9000000953674, 'positionName': 'CENTER', 'positionCoords': [562.5, 226.5]}]",Rate how much you want to eat this food from 0 (least) to 10 (most).,15378.700000047684,1669845269459,blueberries,2238.7000000476837,True,8.48,17617.400000095367,2238.7000000476837,True,HRV,HRV_0311,2022-11-30 21:56:19
3,"[{'imgObject': {}, 'id': 'chicken nuggets2', 'src': '/static/foodstim60/chicken nuggets2.jpg', 'key': 'NaN', 'origWidth': 410, 'origHeight': 409, 'width': 410, 'height': 409, 'widthPercent': 0.8, 'rescaleHeight': True, 'trialN': 3, 'loaded': True, 'loadedTime': 3281.300000190735, 'positionName': 'CENTER', 'positionCoords': [563, 227.5]}]",Rate how much you want to eat this food from 0 (least) to 10 (most).,17618.700000047684,1669845271698,chicken nuggets2,2538.7999999523163,True,1.3800000000000001,20157.5,2538.7999999523163,True,HRV,HRV_0311,2022-11-30 21:56:19
4,"[{'imgObject': {}, 'id': 'pear', 'src': '/static/foodstim60/pear.jpg', 'key': 'NaN', 'origWidth': 411, 'origHeight': 410, 'width': 411, 'height': 410, 'widthPercent': 0.8, 'rescaleHeight': True, 'trialN': 4, 'loaded': True, 'loadedTime': 3288.4000000953674, 'positionName': 'CENTER', 'positionCoords': [562.5, 227]}]",Rate how much you want to eat this food from 0 (least) to 10 (most).,20158.700000047684,1669845274239,pear,2174.7999999523163,True,2.17,22333.5,2174.7999999523163,True,HRV,HRV_0311,2022-11-30 21:56:19
5,"[{'imgObject': {}, 'id': 'strawberries', 'src': '/static/foodstim60/strawberries.jpg', 'key': 'NaN', 'origWidth': 410, 'origHeight': 410, 'width': 410, 'height': 410, 'widthPercent': 0.8, 'rescaleHeight': True, 'trialN': 5, 'loaded': True, 'loadedTime': 3302, 'positionName': 'CENTER', 'positionCoords': [563, 227]}]",Rate how much you want to eat this food from 0 (least) to 10 (most).,22334.900000095367,1669845276415,strawberries,1582.5,True,8.950000000000001,23917.400000095367,1582.5,True,HRV,HRV_0311,2022-11-30 21:56:19
6,"[{'imgObject': {}, 'id': 'mashed potato', 'src': '/static/foodstim60/mashed potato.jpg', 'key': 'NaN', 'origWidth': 409, 'origHeight': 409, 'width': 409, 'height': 409, 'widthPercent': 0.8, 'rescaleHeight': True, 'trialN': 6, 'loaded': True, 'loadedTime': 3332.300000190735, 'positionName': 'CENTER', 'positionCoords': [563.5, 227.5]}]",Rate how much you want to eat this food from 0 (least) to 10 (most).,23918.700000047684,1669845277999,mashed potato,1462.6000001430511,True,7.6000000000000005,25381.300000190735,1462.6000001430511,True,HRV,HRV_0311,2022-11-30 21:56:19
7,"[{'imgObject': {}, 'id': 'cocktailshrimp', 'src': '/static/foodstim60/cocktailshrimp.jpg', 'key': 'NaN', 'origWidth': 410, 'origHeight': 410, 'width': 410, 'height': 410, 'widthPercent': 0.8, 'rescaleHeight': True, 'trialN': 7, 'loaded': True, 'loadedTime': 3335.9000000953674, 'positionName': 'CENTER', 'positionCoords': [563, 227]}]",Rate how much you want to eat this food from 0 (least) to 10 (most).,25382.800000190735,1669845279463,cocktailshrimp,1942.5999999046326,True,9.8,27325.400000095367,1942.5999999046326,True,HRV,HRV_0311,2022-11-30 21:56:19
8,"[{'imgObject': {}, 'id': 'cherries', 'src': '/static/foodstim60/cherries.jpg', 'key': 'NaN', 'origWidth': 410, 'origHeight': 411, 'width': 410, 'height': 411, 'widthPercent': 0.8, 'rescaleHeight': True, 'trialN': 8, 'loaded': True, 'loadedTime': 3338.800000190735, 'positionName': 'CENTER', 'positionCoords': [563, 226.5]}]",Rate how much you want to eat this food from 0 (least) to 10 (most).,27326.800000190735,1669845281407,cherries,1338.6999998092651,True,8.07,28665.5,1338.6999998092651,True,HRV,HRV_0311,2022-11-30 21:56:19
9,"[{'imgObject': {}, 'id': 'ice cream sundae 002', 'src': '/static/foodstim60/ice cream sundae 002.jpg', 'key': 'NaN', 'origWidth': 409, 'origHeight': 409, 'width': 409, 'height': 409, 'widthPercent': 0.8, 'rescaleHeight': True, 'trialN': 9, 'loaded': True, 'loadedTime': 3347.7000000476837, 'positionName': 'CENTER', 'positionCoords': [563.5, 227.5]}]",Rate how much you want to eat this food from 0 (least) to 10 (most).,28666.900000095367,1669845282747,ice cream sundae 002,1778.5999999046326,True,6.94,30445.5,1778.5999999046326,True,HRV,HRV_0311,2022-11-30 21:56:19
10,"[{'imgObject': {}, 'id': 'cantaloupe', 'src': '/static/foodstim60/cantaloupe.jpg', 'key': 'NaN', 'origWidth': 409, 'origHeight': 409, 'width': 409, 'height': 409, 'widthPercent': 0.8, 'rescaleHeight': True, 'trialN': 10, 'loaded': True, 'loadedTime': 3356.5, 'positionName': 'CENTER', 'positionCoords': [563.5, 227.5]}]",Rate how much you want to eat this food from 0 (least) to 10 (most).,30447.5,1669845284527,cantaloupe,1634.0,True,7.04,32081.5,1634.0,True,HRV,HRV_0311,2022-11-30 21:56:19
11,"[{'imgObject': {}, 'id': 'rigatoni', 'src': '/static/foodstim60/rigatoni.jpg', 'key': 'NaN', 'origWidth': 411, 'origHeight': 411, 'width': 411, 'height': 411, 'widthPercent': 0.8, 'rescaleHeight': True, 'trialN': 11, 'loaded': True, 'loadedTime': 3358.600000143051, 'positionName': 'CENTER', 'positionCoords': [562.5, 226.5]}]",Rate how much you want to eat this food from 0 (least) to 10 (most).,32082.800000190735,1669845286163,rigatoni,1570.6999998092651,True,2.22,33653.5,1570.6999998092651,True,HRV,HRV_0311,2022-11-30 21:56:19
12,"[{'imgObject': {}, 'id': 'orange slices', 'src': '/static/foodstim60/orange slices.jpg', 'key': 'NaN', 'origWidth': 409, 'origHeight': 410, 'width': 409, 'height': 410, 'widthPercent': 0.8, 'rescaleHeight': True, 'trialN': 12, 'loaded': True, 'loadedTime': 3367.2000000476837, 'positionName': 'CENTER', 'positionCoords': [563.5, 227]}]",Rate how much you want to eat this food from 0 (least) to 10 (most).,33655.200000047684,1669845287735,orange slices,1330.2999999523163,True,5.98,34985.5,1330.2999999523163,True,HRV,HRV_0311,2022-11-30 21:56:19
13,"[{'imgObject': {}, 'id': 'avocado', 'src': '/static/foodstim60/avocado.jpg', 'key': 'NaN', 'origWidth': 409, 'origHeight': 409, 'width': 409, 'height': 409, 'widthPercent': 0.8, 'rescaleHeight': True, 'trialN': 13, 'loaded': True, 'loadedTime': 3370.9000000953674, 'positionName': 'CENTER', 'positionCoords': [563.5, 227.5]}]",Rate how much you want to eat this food from 0 (least) to 10 (most).,34987.10000014305,1669845289067,avocado,2082.2999999523163,True,9.68,37069.40000009537,2082.2999999523163,True,HRV,HRV_0311,2022-11-30 21:56:19
14,"[{'imgObject': {}, 'id': 'kiwi', 'src': '/static/foodstim60/kiwi.jpg', 'key': 'NaN', 'origWidth': 410, 'origHeight': 410, 'width': 410, 'height': 410, 'widthPercent': 0.8, 'rescaleHeight': True, 'trialN': 14, 'loaded': True, 'loadedTime': 3375.600000143051, 'positionName': 'CENTER', 'positionCoords': [563, 227]}]",Rate how much you want to eat this food from 0 (least) to 10 (most).,37071.0,1669845291151,kiwi,1526.5,True,6.3500000000000005,38597.5,1526.5,True,HRV,HRV_0311,2022-11-30 21:56:19
15,"[{'imgObject': {}, 'id': 'roastedpotatoes', 'src': '/static/foodstim60/roastedpotatoes.jpg', 'key': 'NaN', 'origWidth': 409, 'origHeight': 410, 'width': 409, 'height': 410, 'widthPercent': 0.8, 'rescaleHeight': True, 'trialN': 15, 'loaded': True, 'loadedTime': 3383, 'positionName': 'CENTER', 'positionCoords': [563.5, 227]}]",Rate how much you want to eat this food from 0 (least) to 10 (most).,38599.200000047684,1669845292679,roastedpotatoes,1742.2999999523163,True,7.23,40341.5,1742.2999999523163,True,HRV,HRV_0311,2022-11-30 21:56:19
16,"[{'imgObject': {}, 'id': 'apple slices', 'src': '/static/foodstim60/apple slices.jpg', 'key': 'NaN', 'origWidth': 409, 'origHeight': 410, 'width': 409, 'height': 410, 'widthPercent': 0.8, 'rescaleHeight': True, 'trialN': 16, 'loaded': True, 'loadedTime': 3385.7000000476837, 'positionName': 'CENTER', 'positionCoords': [563.5, 227]}]",Rate how much you want to eat this food from 0 (least) to 10 (most).,40343.0,1669845294423,apple slices,1946.4000000953674,True,7.99,42289.40000009537,1946.4000000953674,True,HRV,HRV_0311,2022-11-30 21:56:19
17,"[{'imgObject': {}, 'id': 'popsicles', 'src': '/static/foodstim60/popsicles.jpg', 'key': 'NaN', 'origWidth': 410, 'origHeight': 410, 'width': 410, 'height': 410, 'widthPercent': 0.8, 'rescaleHeight': True, 'trialN': 17, 'loaded': True, 'loadedTime': 3388.600000143051, 'positionName': 'CENTER', 'positionCoords': [563, 227]}]",Rate how much you want to eat this food from 0 (least) to 10 (most).,42290.40000009537,1669845296370,popsicles,1547.2999999523163,True,3.13,43837.700000047684,1547.2999999523163,True,HRV,HRV_0311,2022-11-30 21:56:19
18,"[{'imgObject': {}, 'id': 'steak', 'src': '/static/foodstim60/steak.jpg', 'key': 'NaN', 'origWidth': 410, 'origHeight': 410, 'width': 410, 'height': 410, 'widthPercent': 0.8, 'rescaleHeight': True, 'trialN': 18, 'loaded': True, 'loadedTime': 3402.300000190735, 'positionName': 'CENTER', 'positionCoords': [563, 227]}]",Rate how much you want to eat this food from 0 (least) to 10 (most).,43838.700000047684,1669845297918,steak,1690.2999999523163,True,5.29,45529.0,1690.2999999523163,True,HRV,HRV_0311,2022-11-30 21:56:19
19,"[{'imgObject': {}, 'id': 'blackbeanswithrice', 'src': '/static/foodstim60/blackbeanswithrice.jpg', 'key': 'NaN', 'origWidth': 410, 'origHeight': 410, 'width': 410, 'height': 410, 'widthPercent': 0.8, 'rescaleHeight': True, 'trialN': 19, 'loaded': True, 'loadedTime': 3406.5, 'positionName': 'CENTER', 'positionCoords': [563, 227]}]",Rate how much you want to eat this food from 0 (least) to 10 (most).,45530.10000014305,1669845299610,blackbeanswithrice,1519.2000000476837,True,6.6000000000000005,47049.300000190735,1519.2000000476837,True,HRV,HRV_0311,2022-11-30 21:56:19
20,"[{'imgObject': {}, 'id': 'hashbrowns', 'src': '/static/foodstim60/hashbrowns.jpg', 'key': 'NaN', 'origWidth': 411, 'origHeight': 410, 'width': 411, 'height': 410, 'widthPercent': 0.8, 'rescaleHeight': True, 'trialN': 20, 'loaded': True, 'loadedTime': 3417, 'positionName': 'CENTER', 'positionCoords': [562.5, 227]}]",Rate how much you want to eat this food from 0 (least) to 10 (most).,47050.60000014305,1669845301130,hashbrowns,1762.8999998569489,True,2.6,48813.5,1762.8999998569489,True,HRV,HRV_0311,2022-11-30 21:56:19
21,"[{'imgObject': {}, 'id': 'mango', 'src': '/static/foodstim60/mango.jpg', 'key': 'NaN', 'origWidth': 411, 'origHeight': 411, 'width': 411, 'height': 411, 'widthPercent': 0.8, 'rescaleHeight': True, 'trialN': 21, 'loaded': True, 'loadedTime': 3419.800000190735, 'positionName': 'CENTER', 'positionCoords': [562.5, 226.5]}]",Rate how much you want to eat this food from 0 (least) to 10 (most).,48814.60000014305,1669845302894,mango,1879.8999998569489,True,7.68,50694.5,1879.8999998569489,True,HRV,HRV_0311,2022-11-30 21:56:19
22,"[{'imgObject': {}, 'id': 'mac & cheese', 'src': '/static/foodstim60/mac & cheese.jpg', 'key': 'NaN', 'origWidth': 410, 'origHeight': 410, 'width': 410, 'height': 410, 'widthPercent': 0.8, 'rescaleHeight': True, 'trialN': 22, 'loaded': True, 'loadedTime': 3424.800000190735, 'positionName': 'CENTER', 'positionCoords': [563, 227]}]",Rate how much you want to eat this food from 0 (least) to 10 (most).,50695.700000047684,1669845304776,mac & cheese,1901.5,True,4.47,52597.200000047684,1901.5,True,HRV,HRV_0311,2022-11-30 21:56:19
23,"[{'imgObject': {}, 'id': 'edamame', 'src': '/static/foodstim60/edamame.jpg', 'key': 'NaN', 'origWidth': 409, 'origHeight': 410, 'width': 409, 'height': 410, 'widthPercent': 0.8, 'rescaleHeight': True, 'trialN': 23, 'loaded': True, 'loadedTime': 3427.100000143051, 'positionName': 'CENTER', 'positionCoords': [563.5, 227]}]",Rate how much you want to eat this food from 0 (least) to 10 (most).,52598.40000009537,1669845306678,edamame,1599.2000000476837,True,6.65,54197.60000014305,1599.2000000476837,True,HRV,HRV_0311,2022-11-30 21:56:19
24,"[{'imgObject': {}, 'id': 'shreddedwheatwithmilk', 'src': '/static/foodstim60/shreddedwheatwithmilk.jpg', 'key': 'NaN', 'origWidth': 410, 'origHeight': 410, 'width': 410, 'height': 410, 'widthPercent': 0.8, 'rescaleHeight': True, 'trialN': 24, 'loaded': True, 'loadedTime': 3432.7000000476837, 'positionName': 'CENTER', 'positionCoords': [563, 227]}]",Rate how much you want to eat this food from 0 (least) to 10 (most).,54198.90000009537,1669845308279,shreddedwheatwithmilk,1958.2000000476837,True,0.79,56157.10000014305,1958.2000000476837,True,HRV,HRV_0311,2022-11-30 21:56:19
25,"[{'imgObject': {}, 'id': 'grilled chicken strips', 'src': '/static/foodstim60/grilled chicken strips.jpg', 'key': 'NaN', 'origWidth': 410, 'origHeight': 411, 'width': 410, 'height': 411, 'widthPercent': 0.8, 'rescaleHeight': True, 'trialN': 25, 'loaded': True, 'loadedTime': 3473.9000000953674, 'positionName': 'CENTER', 'positionCoords': [563, 226.5]}]",Rate how much you want to eat this food from 0 (least) to 10 (most).,56158.300000190735,1669845310238,grilled chicken strips,2407.0999999046326,True,4.47,58565.40000009537,2407.0999999046326,True,HRV,HRV_0311,2022-11-30 21:56:19
26,"[{'imgObject': {}, 'id': 'turkey sandwich', 'src': '/static/foodstim60/turkey sandwich.jpg', 'key': 'NaN', 'origWidth': 409, 'origHeight': 409, 'width': 409, 'height': 409, 'widthPercent': 0.8, 'rescaleHeight': True, 'trialN': 26, 'loaded': True, 'loadedTime': 3454.2000000476837, 'positionName': 'CENTER', 'positionCoords': [563.5, 227.5]}]",Rate how much you want to eat this food from 0 (least) to 10 (most).,58566.800000190735,1669845312640,turkey sandwich,1534.6999998092651,True,6.87,60101.5,1534.6999998092651,True,HRV,HRV_0311,2022-11-30 21:56:19
27,"[{'imgObject': {}, 'id': 'sweetpotato', 'src': '/static/foodstim60/sweetpotato.jpg', 'key': 'NaN', 'origWidth': 410, 'origHeight': 410, 'width': 410, 'height': 410, 'widthPercent': 0.8, 'rescaleHeight': True, 'trialN': 27, 'loaded': True, 'loadedTime': 3460, 'positionName': 'CENTER', 'positionCoords': [563, 227]}]",Rate how much you want to eat this food from 0 (least) to 10 (most).,60102.90000009537,1669845314176,sweetpotato,1598.7000000476837,True,6.22,61701.60000014305,1598.7000000476837,True,HRV,HRV_0311,2022-11-30 21:56:19
28,"[{'imgObject': {}, 'id': 'raspberries', 'src': '/static/foodstim60/raspberries.jpg', 'key': 'NaN', 'origWidth': 411, 'origHeight': 411, 'width': 411, 'height': 411, 'widthPercent': 0.8, 'rescaleHeight': True, 'trialN': 28, 'loaded': True, 'loadedTime': 3463.100000143051, 'positionName': 'CENTER', 'positionCoords': [562.5, 226.5]}]",Rate how much you want to eat this food from 0 (least) to 10 (most).,61703.10000014305,1669845315776,raspberries,1834.2999999523163,True,7.09,63537.40000009537,1834.2999999523163,True,HRV,HRV_0311,2022-11-30 21:56:19
29,"[{'imgObject': {}, 'id': 'rigatoni and sauce', 'src': '/static/foodstim60/rigatoni and sauce.jpg', 'key': 'NaN', 'origWidth': 410, 'origHeight': 411, 'width': 410, 'height': 411, 'widthPercent': 0.8, 'rescaleHeight': True, 'trialN': 29, 'loaded': True, 'loadedTime': 3469.9000000953674, 'positionName': 'CENTER', 'positionCoords': [563, 226.5]}]",Rate how much you want to eat this food from 0 (least) to 10 (most).,63539.0,1669845317612,rigatoni and sauce,1834.5,True,3.6,65373.5,1834.5,True,HRV,HRV_0311,2022-11-30 21:56:19
30,"[{'imgObject': {}, 'id': 'omelette', 'src': '/static/foodstim60/omelette.jpg', 'key': 'NaN', 'origWidth': 410, 'origHeight': 409, 'width': 410, 'height': 409, 'widthPercent': 0.8, 'rescaleHeight': True, 'trialN': 30, 'loaded': True, 'loadedTime': 3491.800000190735, 'positionName': 'CENTER', 'positionCoords': [563, 227.5]}]",Rate how much you want to eat this food from 0 (least) to 10 (most).,65375.0,1669845319448,omelette,1946.4000000953674,True,4.98,67321.40000009537,1946.4000000953674,True,HRV,HRV_0311,2022-11-30 21:56:19
31,"[{'imgObject': {}, 'id': 'cherry tomato', 'src': '/static/foodstim60/cherry tomato.jpg', 'key': 'NaN', 'origWidth': 410, 'origHeight': 410, 'width': 410, 'height': 410, 'widthPercent': 0.8, 'rescaleHeight': True, 'trialN': 31, 'loaded': True, 'loadedTime': 3495.5, 'positionName': 'CENTER', 'positionCoords': [563, 227]}]",Rate how much you want to eat this food from 0 (least) to 10 (most).,67322.80000019073,1669845321396,cherry tomato,2958.699999809265,True,4.21,70281.5,2958.699999809265,True,HRV,HRV_0311,2022-11-30 21:56:19
32,"[{'imgObject': {}, 'id': 'hotdog w must', 'src': '/static/foodstim60/hotdog w must.jpg', 'key': 'NaN', 'origWidth': 409, 'origHeight': 409, 'width': 409, 'height': 409, 'widthPercent': 0.8, 'rescaleHeight': True, 'trialN': 32, 'loaded': True, 'loadedTime': 3497.5, 'positionName': 'CENTER', 'positionCoords': [563.5, 227.5]}]",Rate how much you want to eat this food from 0 (least) to 10 (most).,70283.20000004768,1669845324356,hotdog w must,2870.2999999523163,True,4.14,73153.5,2870.2999999523163,True,HRV,HRV_0311,2022-11-30 21:56:19
33,"[{'imgObject': {}, 'id': 'Grapes', 'src': '/static/foodstim60/Grapes.jpg', 'key': 'NaN', 'origWidth': 411, 'origHeight': 411, 'width': 411, 'height': 411, 'widthPercent': 0.8, 'rescaleHeight': True, 'trialN': 33, 'loaded': True, 'loadedTime': 3500.100000143051, 'positionName': 'CENTER', 'positionCoords': [562.5, 226.5]}]",Rate how much you want to eat this food from 0 (least) to 10 (most).,73155.0,1669845327228,Grapes,1693.9000000953674,True,9.41,74848.90000009537,1693.9000000953674,True,HRV,HRV_0311,2022-11-30 21:56:19
34,"[{'imgObject': {}, 'id': 'banana', 'src': '/static/foodstim60/banana.jpg', 'key': 'NaN', 'origWidth': 410, 'origHeight': 410, 'width': 410, 'height': 410, 'widthPercent': 0.8, 'rescaleHeight': True, 'trialN': 34, 'loaded': True, 'loadedTime': 3503, 'positionName': 'CENTER', 'positionCoords': [563, 227]}]",Rate how much you want to eat this food from 0 (least) to 10 (most).,74850.10000014305,1669845328923,banana,1879.2000000476837,True,2.48,76729.30000019073,1879.2000000476837,True,HRV,HRV_0311,2022-11-30 21:56:19
35,"[{'imgObject': {}, 'id': 'turkeysandwich', 'src': '/static/foodstim60/turkeysandwich.jpg', 'key': 'NaN', 'origWidth': 409, 'origHeight': 409, 'width': 409, 'height': 409, 'widthPercent': 0.8, 'rescaleHeight': True, 'trialN': 35, 'loaded': True, 'loadedTime': 3514.300000190735, 'positionName': 'CENTER', 'positionCoords': [563.5, 227.5]}]",Rate how much you want to eat this food from 0 (least) to 10 (most).,76730.40000009537,1669845330804,turkeysandwich,1687.0,True,6.15,78417.40000009537,1687.0,True,HRV,HRV_0311,2022-11-30 21:56:19
36,"[{'imgObject': {}, 'id': 'burger', 'src': '/static/foodstim60/burger.jpg', 'key': 'NaN', 'origWidth': 409, 'origHeight': 409, 'width': 409, 'height': 409, 'widthPercent': 0.8, 'rescaleHeight': True, 'trialN': 36, 'loaded': True, 'loadedTime': 3516.5, 'positionName': 'CENTER', 'positionCoords': [563.5, 227.5]}]",Rate how much you want to eat this food from 0 (least) to 10 (most).,78418.60000014305,1669845332492,burger,2194.7000000476837,True,2.66,80613.30000019073,2194.7000000476837,True,HRV,HRV_0311,2022-11-30 21:56:19
37,"[{'imgObject': {}, 'id': 'baked potato', 'src': '/static/foodstim60/baked potato.jpg', 'key': 'NaN', 'origWidth': 409, 'origHeight': 410, 'width': 409, 'height': 410, 'widthPercent': 0.8, 'rescaleHeight': True, 'trialN': 37, 'loaded': True, 'loadedTime': 3518.5, 'positionName': 'CENTER', 'positionCoords': [563.5, 227]}]",Rate how much you want to eat this food from 0 (least) to 10 (most).,80614.5,1669845334688,baked potato,1930.5,True,3.56,82545.0,1930.5,True,HRV,HRV_0311,2022-11-30 21:56:19
38,"[{'imgObject': {}, 'id': 'veggieswithdip', 'src': '/static/foodstim60/veggieswithdip.jpg', 'key': 'NaN', 'origWidth': 409, 'origHeight': 409, 'width': 409, 'height': 409, 'widthPercent': 0.8, 'rescaleHeight': True, 'trialN': 38, 'loaded': True, 'loadedTime': 3521.4000000953674, 'positionName': 'CENTER', 'positionCoords': [563.5, 227.5]}]",Rate how much you want to eat this food from 0 (least) to 10 (most).,82546.20000004768,1669845336619,veggieswithdip,1691.1000001430511,True,9.5,84237.30000019073,1691.1000001430511,True,HRV,HRV_0311,2022-11-30 21:56:19
39,"[{'imgObject': {}, 'id': 'raisin bran w milk', 'src': '/static/foodstim60/raisin bran w milk.jpg', 'key': 'NaN', 'origWidth': 411, 'origHeight': 411, 'width': 411, 'height': 411, 'widthPercent': 0.8, 'rescaleHeight': True, 'trialN': 39, 'loaded': True, 'loadedTime': 3524.2000000476837, 'positionName': 'CENTER', 'positionCoords': [562.5, 226.5]}]",Rate how much you want to eat this food from 0 (least) to 10 (most).,84238.60000014305,1669845338312,raisin bran w milk,2286.7999999523163,True,0.49,86525.40000009537,2286.7999999523163,True,HRV,HRV_0311,2022-11-30 21:56:19
40,"[{'imgObject': {}, 'id': 'granola w milk', 'src': '/static/foodstim60/granola w milk.jpg', 'key': 'NaN', 'origWidth': 410, 'origHeight': 410, 'width': 410, 'height': 410, 'widthPercent': 0.8, 'rescaleHeight': True, 'trialN': 40, 'loaded': True, 'loadedTime': 3532.100000143051, 'positionName': 'CENTER', 'positionCoords': [563, 227]}]",Rate how much you want to eat this food from 0 (least) to 10 (most).,86526.70000004768,1669845340600,granola w milk,2170.7999999523163,True,0.55,88697.5,2170.7999999523163,True,HRV,HRV_0311,2022-11-30 21:56:19
41,"[{'imgObject': {}, 'id': 'fried eggs', 'src': '/static/foodstim60/fried eggs.jpg', 'key': 'NaN', 'origWidth': 410, 'origHeight': 410, 'width': 410, 'height': 410, 'widthPercent': 0.8, 'rescaleHeight': True, 'trialN': 41, 'loaded': True, 'loadedTime': 3533.9000000953674, 'positionName': 'CENTER', 'positionCoords': [563, 227]}]",Rate how much you want to eat this food from 0 (least) to 10 (most).,88699.0,1669845342772,fried eggs,1646.1000001430511,True,4.04,90345.10000014305,1646.1000001430511,True,HRV,HRV_0311,2022-11-30 21:56:19
42,"[{'imgObject': {}, 'id': 'tacos', 'src': '/static/foodstim60/tacos.jpg', 'key': 'NaN', 'origWidth': 411, 'origHeight': 411, 'width': 411, 'height': 411, 'widthPercent': 0.8, 'rescaleHeight': True, 'trialN': 42, 'loaded': True, 'loadedTime': 3543.300000190735, 'positionName': 'CENTER', 'positionCoords': [562.5, 226.5]}]",Rate how much you want to eat this food from 0 (least) to 10 (most).,90346.5,1669845344420,tacos,1414.9000000953674,True,6.3500000000000005,91761.40000009537,1414.9000000953674,True,HRV,HRV_0311,2022-11-30 21:56:19
43,"[{'imgObject': {}, 'id': 'eggsalad', 'src': '/static/foodstim60/eggsalad.jpg', 'key': 'NaN', 'origWidth': 410, 'origHeight': 409, 'width': 410, 'height': 409, 'widthPercent': 0.8, 'rescaleHeight': True, 'trialN': 43, 'loaded': True, 'loadedTime': 3545.4000000953674, 'positionName': 'CENTER', 'positionCoords': [563, 227.5]}]",Rate how much you want to eat this food from 0 (least) to 10 (most).,91762.90000009537,1669845345836,eggsalad,2238.2000000476837,True,2.0,94001.10000014305,2238.2000000476837,True,HRV,HRV_0311,2022-11-30 21:56:19
44,"[{'imgObject': {}, 'id': 'yogurt no spoon', 'src': '/static/foodstim60/yogurt no spoon.jpg', 'key': 'NaN', 'origWidth': 411, 'origHeight': 410, 'width': 411, 'height': 410, 'widthPercent': 0.8, 'rescaleHeight': True, 'trialN': 44, 'loaded': True, 'loadedTime': 3547.800000190735, 'positionName': 'CENTER', 'positionCoords': [562.5, 227]}]",Rate how much you want to eat this food from 0 (least) to 10 (most).,94002.40000009537,1669845348076,yogurt no spoon,2015.0999999046326,True,9.370000000000001,96017.5,2015.0999999046326,True,HRV,HRV_0311,2022-11-30 21:56:19
45,"[{'imgObject': {}, 'id': 'salmon', 'src': '/static/foodstim60/salmon.jpg', 'key': 'NaN', 'origWidth': 410, 'origHeight': 409, 'width': 410, 'height': 409, 'widthPercent': 0.8, 'rescaleHeight': True, 'trialN': 45, 'loaded': True, 'loadedTime': 3562.800000190735, 'positionName': 'CENTER', 'positionCoords': [563, 227.5]}]",Rate how much you want to eat this food from 0 (least) to 10 (most).,96019.10000014305,1669845350092,salmon,2006.5999999046326,True,3.46,98025.70000004768,2006.5999999046326,True,HRV,HRV_0311,2022-11-30 21:56:19
46,"[{'imgObject': {}, 'id': 'salad w chicken', 'src': '/static/foodstim60/salad w chicken.jpg', 'key': 'NaN', 'origWidth': 411, 'origHeight': 411, 'width': 411, 'height': 411, 'widthPercent': 0.8, 'rescaleHeight': True, 'trialN': 46, 'loaded': True, 'loadedTime': 3566.2000000476837, 'positionName': 'CENTER', 'positionCoords': [562.5, 226.5]}]",Rate how much you want to eat this food from 0 (least) to 10 (most).,98027.10000014305,1669845352100,salad w chicken,1910.0,True,5.37,99937.10000014305,1910.0,True,HRV,HRV_0311,2022-11-30 21:56:19
47,"[{'imgObject': {}, 'id': 'froot loops w milk', 'src': '/static/foodstim60/froot loops w milk.jpg', 'key': 'NaN', 'origWidth': 410, 'origHeight': 410, 'width': 410, 'height': 410, 'widthPercent': 0.8, 'rescaleHeight': True, 'trialN': 47, 'loaded': True, 'loadedTime': 3570.5, 'positionName': 'CENTER', 'positionCoords': [563, 227]}]",Rate how much you want to eat this food from 0 (least) to 10 (most).,99938.20000004768,1669845354011,froot loops w milk,1735.2999999523163,True,0.44,101673.5,1735.2999999523163,True,HRV,HRV_0311,2022-11-30 21:56:19
48,"[{'imgObject': {}, 'id': 'burrito', 'src': '/static/foodstim60/burrito.jpg', 'key': 'NaN', 'origWidth': 410, 'origHeight': 410, 'width': 410, 'height': 410, 'widthPercent': 0.8, 'rescaleHeight': True, 'trialN': 48, 'loaded': True, 'loadedTime': 3577.9000000953674, 'positionName': 'CENTER', 'positionCoords': [563, 227]}]",Rate how much you want to eat this food from 0 (least) to 10 (most).,101674.5,1669845355748,burrito,2490.9000000953674,True,9.02,104165.40000009537,2490.9000000953674,True,HRV,HRV_0311,2022-11-30 21:56:19
49,"[{'imgObject': {}, 'id': 'Tribe humus pita', 'src': '/static/foodstim60/Tribe humus pita.jpg', 'key': 'NaN', 'origWidth': 411, 'origHeight': 411, 'width': 411, 'height': 411, 'widthPercent': 0.8, 'rescaleHeight': True, 'trialN': 49, 'loaded': True, 'loadedTime': 3581.100000143051, 'positionName': 'CENTER', 'positionCoords': [562.5, 226.5]}]",Rate how much you want to eat this food from 0 (least) to 10 (most).,104166.60000014305,1669845358240,Tribe humus pita,1651.0,True,9.81,105817.60000014305,1651.0,True,HRV,HRV_0311,2022-11-30 21:56:19
50,"[{'imgObject': {}, 'id': 'corn cob', 'src': '/static/foodstim60/corn cob.jpg', 'key': 'NaN', 'origWidth': 411, 'origHeight': 411, 'width': 411, 'height': 411, 'widthPercent': 0.8, 'rescaleHeight': True, 'trialN': 50, 'loaded': True, 'loadedTime': 3597.600000143051, 'positionName': 'CENTER', 'positionCoords': [562.5, 226.5]}]",Rate how much you want to eat this food from 0 (least) to 10 (most).,105818.60000014305,1669845359892,corn cob,1710.3999998569489,True,8.15,107529.0,1710.3999998569489,True,HRV,HRV_0311,2022-11-30 21:56:19
51,"[{'imgObject': {}, 'id': 'sushi w_condiments', 'src': '/static/foodstim60/sushi w_condiments.jpg', 'key': 'NaN', 'origWidth': 410, 'origHeight': 410, 'width': 410, 'height': 410, 'widthPercent': 0.8, 'rescaleHeight': True, 'trialN': 51, 'loaded': True, 'loadedTime': 3599.2000000476837, 'positionName': 'CENTER', 'positionCoords': [563, 227]}]",Rate how much you want to eat this food from 0 (least) to 10 (most).,107530.40000009537,1669845361604,sushi w_condiments,1782.9000000953674,True,9.84,109313.30000019073,1782.9000000953674,True,HRV,HRV_0311,2022-11-30 21:56:19
52,"[{'imgObject': {}, 'id': 'fruitsalad', 'src': '/static/foodstim60/fruitsalad.jpg', 'key': 'NaN', 'origWidth': 410, 'origHeight': 410, 'width': 410, 'height': 410, 'widthPercent': 0.8, 'rescaleHeight': True, 'trialN': 52, 'loaded': True, 'loadedTime': 3600.4000000953674, 'positionName': 'CENTER', 'positionCoords': [563, 227]}]",Rate how much you want to eat this food from 0 (least) to 10 (most).,109314.5,1669845363388,fruitsalad,1431.0,True,9.28,110745.5,1431.0,True,HRV,HRV_0311,2022-11-30 21:56:19
53,"[{'imgObject': {}, 'id': 'cheerios', 'src': '/static/foodstim60/cheerios.jpg', 'key': 'NaN', 'origWidth': 409, 'origHeight': 410, 'width': 409, 'height': 410, 'widthPercent': 0.8, 'rescaleHeight': True, 'trialN': 53, 'loaded': True, 'loadedTime': 3602, 'positionName': 'CENTER', 'positionCoords': [563.5, 227]}]",Rate how much you want to eat this food from 0 (least) to 10 (most).,110747.0,1669845364820,cheerios,1902.4000000953674,True,0.8200000000000001,112649.40000009537,1902.4000000953674,True,HRV,HRV_0311,2022-11-30 21:56:19
54,"[{'imgObject': {}, 'id': 'chickenfingers', 'src': '/static/foodstim60/chickenfingers.jpg', 'key': 'NaN', 'origWidth': 410, 'origHeight': 410, 'width': 410, 'height': 410, 'widthPercent': 0.8, 'rescaleHeight': True, 'trialN': 54, 'loaded': True, 'loadedTime': 3609.4000000953674, 'positionName': 'CENTER', 'positionCoords': [563, 227]}]",Rate how much you want to eat this food from 0 (least) to 10 (most).,112650.5,1669845366724,chickenfingers,1914.9000000953674,True,6.54,114565.40000009537,1914.9000000953674,True,HRV,HRV_0311,2022-11-30 21:56:19
55,"[{'imgObject': {}, 'id': 'eggs', 'src': '/static/foodstim60/eggs.jpg', 'key': 'NaN', 'origWidth': 409, 'origHeight': 409, 'width': 409, 'height': 409, 'widthPercent': 0.8, 'rescaleHeight': True, 'trialN': 55, 'loaded': True, 'loadedTime': 3620.4000000953674, 'positionName': 'CENTER', 'positionCoords': [563.5, 227.5]}]",Rate how much you want to eat this food from 0 (least) to 10 (most).,114566.60000014305,1669845368640,eggs,1770.7999999523163,True,1.97,116337.40000009537,1770.7999999523163,True,HRV,HRV_0311,2022-11-30 21:56:19
56,"[{'imgObject': {}, 'id': 'olives', 'src': '/static/foodstim60/olives.jpg', 'key': 'NaN', 'origWidth': 410, 'origHeight': 410, 'width': 410, 'height': 410, 'widthPercent': 0.8, 'rescaleHeight': True, 'trialN': 56, 'loaded': True, 'loadedTime': 3622, 'positionName': 'CENTER', 'positionCoords': [563, 227]}]",Rate how much you want to eat this food from 0 (least) to 10 (most).,116338.80000019073,1669845370412,olives,1858.1999998092651,True,5.88,118197.0,1858.1999998092651,True,HRV,HRV_0311,2022-11-30 21:56:19
57,"[{'imgObject': {}, 'id': 'bagel plain', 'src': '/static/foodstim60/bagel plain.jpg', 'key': 'NaN', 'origWidth': 410, 'origHeight': 410, 'width': 410, 'height': 410, 'widthPercent': 0.8, 'rescaleHeight': True, 'trialN': 57, 'loaded': True, 'loadedTime': 3623.5, 'positionName': 'CENTER', 'positionCoords': [563, 227]}]",Rate how much you want to eat this food from 0 (least) to 10 (most).,118198.30000019073,1669845372276,bagel plain,2139.199999809265,True,0.6900000000000001,120337.5,2139.199999809265,True,HRV,HRV_0311,2022-11-30 21:56:19
58,"[{'imgObject': {}, 'id': 'bagel and cc', 'src': '/static/foodstim60/bagel and cc.jpg', 'key': 'NaN', 'origWidth': 410, 'origHeight': 410, 'width': 410, 'height': 410, 'widthPercent': 0.8, 'rescaleHeight': True, 'trialN': 58, 'loaded': True, 'loadedTime': 3624.9000000953674, 'positionName': 'CENTER', 'positionCoords': [563, 227]}]",Rate how much you want to eat this food from 0 (least) to 10 (most).,120338.90000009537,1669845374417,bagel and cc,2014.2999999523163,True,2.52,122353.20000004768,2014.2999999523163,True,HRV,HRV_0311,2022-11-30 21:56:19
59,"[{'imgObject': {}, 'id': 'seaweed', 'src': '/static/foodstim60/seaweed.jpg', 'key': 'NaN', 'origWidth': 410, 'origHeight': 410, 'width': 410, 'height': 410, 'widthPercent': 0.8, 'rescaleHeight': True, 'trialN': 59, 'loaded': True, 'loadedTime': 3626.7000000476837, 'positionName': 'CENTER', 'positionCoords': [563, 227]}]",Rate how much you want to eat this food from 0 (least) to 10 (most).,122354.60000014305,1669845376432,seaweed,1914.7999999523163,True,4.57,124269.40000009537,1914.7999999523163,True,HRV,HRV_0311,2022-11-30 21:56:19
