trialN,stimuli,trialStartTime,trialStartTime_UNIX,stimulus1,stimulus2,stimulus1Bid,stimulus2Bid,delta,selected,rt,rt_UNIX,rt_perfnow,receivedResponse,rsp,trialEndTime,trialDuration,trialEndTime_UNIX,trialDuration_UNIX,exp,subjectId,date
0,"[{'imgObject': {}, 'id': 'chicken nuggets2', 'src': '/static/foodstim60/chicken nuggets2.jpg', 'key': 'u', 'origWidth': 410, 'origHeight': 409, 'width': 410, 'height': 409, 'widthPercent': 0.45, 'rescaleHeight': False, 'trialN': 0, 'loaded': True, 'loadedTime': 8551, 'positionName': 'LEFT', 'positionCoords': [327.28, 227.5], 'bid': 1.38}, {'imgObject': {}, 'id': 'cherry tomato', 'src': '/static/foodstim60/cherry tomato.jpg', 'key': 'i', 'origWidth': 410, 'origHeight': 410, 'width': 410, 'height': 410, 'widthPercent': 0.45, 'rescaleHeight': False, 'trialN': 0, 'loaded': True, 'loadedTime': 8624.5, 'positionName': 'RIGHT', 'positionCoords': [798.72, 227], 'bid': 4.21}]",9139.5,1669845856659,chicken nuggets2,cherry tomato,1.38,4.21,2.83,cherry tomato,1059.9000000953674,1060,1060.6000001430511,True,i,10711.900000095367,1572.4000000953674,1669845858231,1572,HRV,HRV_0311,2022-11-30 22:19:15
1,"[{'imgObject': {}, 'id': 'cherry tomato', 'src': '/static/foodstim60/cherry tomato.jpg', 'key': 'u', 'origWidth': 410, 'origHeight': 410, 'width': 410, 'height': 410, 'widthPercent': 0.45, 'rescaleHeight': False, 'trialN': 1, 'loaded': True, 'loadedTime': 8623.900000095367, 'positionName': 'LEFT', 'positionCoords': [327.28, 227], 'bid': 4.21}, {'imgObject': {}, 'id': 'grilled chicken strips', 'src': '/static/foodstim60/grilled chicken strips.jpg', 'key': 'i', 'origWidth': 410, 'origHeight': 411, 'width': 410, 'height': 411, 'widthPercent': 0.45, 'rescaleHeight': False, 'trialN': 1, 'loaded': True, 'loadedTime': 8652.900000095367, 'positionName': 'RIGHT', 'positionCoords': [798.72, 226.5], 'bid': 4.47}]",10712.300000190735,1669845858231,cherry tomato,grilled chicken strips,4.21,4.47,0.2599999999999998,grilled chicken strips,1082.6999998092651,1084,1083.1999998092651,True,i,12307.700000047684,1595.3999998569489,1669845859827,1596,HRV,HRV_0311,2022-11-30 22:19:15
2,"[{'imgObject': {}, 'id': 'raspberries', 'src': '/static/foodstim60/raspberries.jpg', 'key': 'u', 'origWidth': 411, 'origHeight': 411, 'width': 411, 'height': 411, 'widthPercent': 0.45, 'rescaleHeight': False, 'trialN': 2, 'loaded': True, 'loadedTime': 8655.900000095367, 'positionName': 'LEFT', 'positionCoords': [326.28, 226.5], 'bid': 7.09}, {'imgObject': {}, 'id': 'blackbeanswithrice', 'src': '/static/foodstim60/blackbeanswithrice.jpg', 'key': 'i', 'origWidth': 410, 'origHeight': 410, 'width': 410, 'height': 410, 'widthPercent': 0.45, 'rescaleHeight': False, 'trialN': 2, 'loaded': True, 'loadedTime': 8685.400000095367, 'positionName': 'RIGHT', 'positionCoords': [798.72, 227], 'bid': 6.6000000000000005}]",12307.900000095367,1669845859827,raspberries,blackbeanswithrice,7.09,6.6000000000000005,-0.4899999999999993,blackbeanswithrice,919.7000000476837,920,920.0,True,i,13734.400000095367,1426.5,1669845861254,1427,HRV,HRV_0311,2022-11-30 22:19:15
3,"[{'imgObject': {}, 'id': 'apple slices', 'src': '/static/foodstim60/apple slices.jpg', 'key': 'u', 'origWidth': 409, 'origHeight': 410, 'width': 409, 'height': 410, 'widthPercent': 0.45, 'rescaleHeight': False, 'trialN': 3, 'loaded': True, 'loadedTime': 8689.100000143051, 'positionName': 'LEFT', 'positionCoords': [328.28, 227], 'bid': 7.99}, {'imgObject': {}, 'id': 'turkeysandwich', 'src': '/static/foodstim60/turkeysandwich.jpg', 'key': 'i', 'origWidth': 409, 'origHeight': 409, 'width': 409, 'height': 409, 'widthPercent': 0.45, 'rescaleHeight': False, 'trialN': 3, 'loaded': True, 'loadedTime': 8619.300000190735, 'positionName': 'RIGHT', 'positionCoords': [798.72, 227.5], 'bid': 6.15}]",13734.900000095367,1669845861254,apple slices,turkeysandwich,7.99,6.15,-1.8399999999999999,apple slices,808.2000000476837,809,808.7000000476837,True,u,15045.300000190735,1310.4000000953674,1669845862564,1310,HRV,HRV_0311,2022-11-30 22:19:15
4,"[{'imgObject': {}, 'id': 'raisin bran w milk', 'src': '/static/foodstim60/raisin bran w milk.jpg', 'key': 'u', 'origWidth': 411, 'origHeight': 411, 'width': 411, 'height': 411, 'widthPercent': 0.45, 'rescaleHeight': False, 'trialN': 4, 'loaded': True, 'loadedTime': 8704.5, 'positionName': 'LEFT', 'positionCoords': [326.28, 226.5], 'bid': 0.49}, {'imgObject': {}, 'id': 'froot loops w milk', 'src': '/static/foodstim60/froot loops w milk.jpg', 'key': 'i', 'origWidth': 410, 'origHeight': 410, 'width': 410, 'height': 410, 'widthPercent': 0.45, 'rescaleHeight': False, 'trialN': 4, 'loaded': True, 'loadedTime': 8726.100000143051, 'positionName': 'RIGHT', 'positionCoords': [798.72, 227], 'bid': 0.44}]",15045.600000143051,1669845862565,raisin bran w milk,froot loops w milk,0.49,0.44,-0.04999999999999999,froot loops w milk,1227.8999998569489,1228,1228.2000000476837,True,i,16787.60000014305,1742.0,1669845864307,1742,HRV,HRV_0311,2022-11-30 22:19:15
5,"[{'imgObject': {}, 'id': 'olives', 'src': '/static/foodstim60/olives.jpg', 'key': 'u', 'origWidth': 410, 'origHeight': 410, 'width': 410, 'height': 410, 'widthPercent': 0.45, 'rescaleHeight': False, 'trialN': 5, 'loaded': True, 'loadedTime': 8727.700000047684, 'positionName': 'LEFT', 'positionCoords': [327.28, 227], 'bid': 5.88}, {'imgObject': {}, 'id': 'sushi w_condiments', 'src': '/static/foodstim60/sushi w_condiments.jpg', 'key': 'i', 'origWidth': 410, 'origHeight': 410, 'width': 410, 'height': 410, 'widthPercent': 0.45, 'rescaleHeight': False, 'trialN': 5, 'loaded': True, 'loadedTime': 8738.5, 'positionName': 'RIGHT', 'positionCoords': [798.72, 227], 'bid': 9.84}]",16787.900000095367,1669845864307,olives,sushi w_condiments,5.88,9.84,3.96,sushi w_condiments,782.7999999523163,783,783.0999999046326,True,i,18076.5,1288.5999999046326,1669845865596,1289,HRV,HRV_0311,2022-11-30 22:19:15
6,"[{'imgObject': {}, 'id': 'blackbeanswithrice', 'src': '/static/foodstim60/blackbeanswithrice.jpg', 'key': 'u', 'origWidth': 410, 'origHeight': 410, 'width': 410, 'height': 410, 'widthPercent': 0.45, 'rescaleHeight': False, 'trialN': 6, 'loaded': True, 'loadedTime': 8687.5, 'positionName': 'LEFT', 'positionCoords': [327.28, 227], 'bid': 6.6000000000000005}, {'imgObject': {}, 'id': 'omelette', 'src': '/static/foodstim60/omelette.jpg', 'key': 'i', 'origWidth': 410, 'origHeight': 409, 'width': 410, 'height': 409, 'widthPercent': 0.45, 'rescaleHeight': False, 'trialN': 6, 'loaded': True, 'loadedTime': 8762.100000143051, 'positionName': 'RIGHT', 'positionCoords': [798.72, 227.5], 'bid': 4.98}]",18077.0,1669845865596,blackbeanswithrice,omelette,6.6000000000000005,4.98,-1.62,blackbeanswithrice,874.1000001430511,874,874.3000001907349,True,u,19464.800000190735,1387.8000001907349,1669845866984,1388,HRV,HRV_0311,2022-11-30 22:19:15
7,"[{'imgObject': {}, 'id': 'rigatoni and sauce', 'src': '/static/foodstim60/rigatoni and sauce.jpg', 'key': 'u', 'origWidth': 410, 'origHeight': 411, 'width': 410, 'height': 411, 'widthPercent': 0.45, 'rescaleHeight': False, 'trialN': 7, 'loaded': True, 'loadedTime': 8775.5, 'positionName': 'LEFT', 'positionCoords': [327.28, 226.5], 'bid': 3.6}, {'imgObject': {}, 'id': 'luckycharms', 'src': '/static/foodstim60/luckycharms.jpg', 'key': 'i', 'origWidth': 410, 'origHeight': 409, 'width': 410, 'height': 409, 'widthPercent': 0.45, 'rescaleHeight': False, 'trialN': 7, 'loaded': True, 'loadedTime': 8788.600000143051, 'positionName': 'RIGHT', 'positionCoords': [798.72, 227.5], 'bid': 0.75}]",19465.10000014305,1669845866984,rigatoni and sauce,luckycharms,3.6,0.75,-2.85,rigatoni and sauce,852.5999999046326,853,852.8999998569489,True,u,20822.900000095367,1357.7999999523163,1669845868342,1358,HRV,HRV_0311,2022-11-30 22:19:15
8,"[{'imgObject': {}, 'id': 'burger', 'src': '/static/foodstim60/burger.jpg', 'key': 'u', 'origWidth': 409, 'origHeight': 409, 'width': 409, 'height': 409, 'widthPercent': 0.45, 'rescaleHeight': False, 'trialN': 8, 'loaded': True, 'loadedTime': 8816.900000095367, 'positionName': 'LEFT', 'positionCoords': [328.28, 227.5], 'bid': 2.66}, {'imgObject': {}, 'id': 'shreddedwheatwithmilk', 'src': '/static/foodstim60/shreddedwheatwithmilk.jpg', 'key': 'i', 'origWidth': 410, 'origHeight': 410, 'width': 410, 'height': 410, 'widthPercent': 0.45, 'rescaleHeight': False, 'trialN': 8, 'loaded': True, 'loadedTime': 8819.700000047684, 'positionName': 'RIGHT', 'positionCoords': [798.72, 227], 'bid': 0.79}]",20823.300000190735,1669845868342,burger,shreddedwheatwithmilk,2.66,0.79,-1.87,burger,905.7999999523163,907,906.0999999046326,True,u,22248.300000190735,1425.0,1669845869767,1425,HRV,HRV_0311,2022-11-30 22:19:15
9,"[{'imgObject': {}, 'id': 'popsicles', 'src': '/static/foodstim60/popsicles.jpg', 'key': 'u', 'origWidth': 410, 'origHeight': 410, 'width': 410, 'height': 410, 'widthPercent': 0.45, 'rescaleHeight': False, 'trialN': 9, 'loaded': True, 'loadedTime': 8830.800000190735, 'positionName': 'LEFT', 'positionCoords': [327.28, 227], 'bid': 3.13}, {'imgObject': {}, 'id': 'cherry tomato', 'src': '/static/foodstim60/cherry tomato.jpg', 'key': 'i', 'origWidth': 410, 'origHeight': 410, 'width': 410, 'height': 410, 'widthPercent': 0.45, 'rescaleHeight': False, 'trialN': 9, 'loaded': True, 'loadedTime': 8634, 'positionName': 'RIGHT', 'positionCoords': [798.72, 227], 'bid': 4.21}]",22248.60000014305,1669845869768,popsicles,cherry tomato,3.13,4.21,1.08,cherry tomato,759.7000000476837,760,759.8999998569489,True,i,23511.800000190735,1263.2000000476837,1669845871031,1263,HRV,HRV_0311,2022-11-30 22:19:15
10,"[{'imgObject': {}, 'id': 'kiwi', 'src': '/static/foodstim60/kiwi.jpg', 'key': 'u', 'origWidth': 410, 'origHeight': 410, 'width': 410, 'height': 410, 'widthPercent': 0.45, 'rescaleHeight': False, 'trialN': 10, 'loaded': True, 'loadedTime': 8839.100000143051, 'positionName': 'LEFT', 'positionCoords': [327.28, 227], 'bid': 6.3500000000000005}, {'imgObject': {}, 'id': 'salad w chicken', 'src': '/static/foodstim60/salad w chicken.jpg', 'key': 'i', 'origWidth': 411, 'origHeight': 411, 'width': 411, 'height': 411, 'widthPercent': 0.45, 'rescaleHeight': False, 'trialN': 10, 'loaded': True, 'loadedTime': 8867.700000047684, 'positionName': 'RIGHT', 'positionCoords': [798.72, 226.5], 'bid': 5.37}]",23512.10000014305,1669845871031,kiwi,salad w chicken,6.3500000000000005,5.37,-0.9800000000000004,salad w chicken,824.0,825,824.3999998569489,True,i,24846.300000190735,1334.2000000476837,1669845872365,1334,HRV,HRV_0311,2022-11-30 22:19:15
11,"[{'imgObject': {}, 'id': 'banana', 'src': '/static/foodstim60/banana.jpg', 'key': 'u', 'origWidth': 410, 'origHeight': 410, 'width': 410, 'height': 410, 'widthPercent': 0.45, 'rescaleHeight': False, 'trialN': 11, 'loaded': True, 'loadedTime': 8891.600000143051, 'positionName': 'LEFT', 'positionCoords': [327.28, 227], 'bid': 2.48}, {'imgObject': {}, 'id': 'raspberries', 'src': '/static/foodstim60/raspberries.jpg', 'key': 'i', 'origWidth': 411, 'origHeight': 411, 'width': 411, 'height': 411, 'widthPercent': 0.45, 'rescaleHeight': False, 'trialN': 11, 'loaded': True, 'loadedTime': 8656.400000095367, 'positionName': 'RIGHT', 'positionCoords': [798.72, 226.5], 'bid': 7.09}]",24846.5,1669845872366,banana,raspberries,2.48,7.09,4.609999999999999,raspberries,911.5,911,911.8000001907349,True,i,26266.0,1419.5,1669845873785,1419,HRV,HRV_0311,2022-11-30 22:19:15
12,"[{'imgObject': {}, 'id': 'Tribe humus pita', 'src': '/static/foodstim60/Tribe humus pita.jpg', 'key': 'u', 'origWidth': 411, 'origHeight': 411, 'width': 411, 'height': 411, 'widthPercent': 0.45, 'rescaleHeight': False, 'trialN': 12, 'loaded': True, 'loadedTime': 8902.700000047684, 'positionName': 'LEFT', 'positionCoords': [326.28, 226.5], 'bid': 9.81}, {'imgObject': {}, 'id': 'roastedpotatoes', 'src': '/static/foodstim60/roastedpotatoes.jpg', 'key': 'i', 'origWidth': 409, 'origHeight': 410, 'width': 409, 'height': 410, 'widthPercent': 0.45, 'rescaleHeight': False, 'trialN': 12, 'loaded': True, 'loadedTime': 8913.700000047684, 'positionName': 'RIGHT', 'positionCoords': [798.72, 227], 'bid': 7.23}]",26266.200000047684,1669845873785,Tribe humus pita,roastedpotatoes,9.81,7.23,-2.58,Tribe humus pita,988.6000001430511,989,988.9000000953674,True,u,27756.700000047684,1490.5,1669845875276,1491,HRV,HRV_0311,2022-11-30 22:19:15
13,"[{'imgObject': {}, 'id': 'raisin bran w milk', 'src': '/static/foodstim60/raisin bran w milk.jpg', 'key': 'u', 'origWidth': 411, 'origHeight': 411, 'width': 411, 'height': 411, 'widthPercent': 0.45, 'rescaleHeight': False, 'trialN': 13, 'loaded': True, 'loadedTime': 8704.200000047684, 'positionName': 'LEFT', 'positionCoords': [326.28, 226.5], 'bid': 0.49}, {'imgObject': {}, 'id': 'turkeysandwich', 'src': '/static/foodstim60/turkeysandwich.jpg', 'key': 'i', 'origWidth': 409, 'origHeight': 409, 'width': 409, 'height': 409, 'widthPercent': 0.45, 'rescaleHeight': False, 'trialN': 13, 'loaded': True, 'loadedTime': 8620.900000095367, 'positionName': 'RIGHT', 'positionCoords': [798.72, 227.5], 'bid': 6.15}]",27757.10000014305,1669845875276,raisin bran w milk,turkeysandwich,0.49,6.15,5.66,turkeysandwich,777.2999999523163,778,777.5999999046326,True,i,29045.0,1287.8999998569489,1669845876564,1288,HRV,HRV_0311,2022-11-30 22:19:15
14,"[{'imgObject': {}, 'id': 'banana', 'src': '/static/foodstim60/banana.jpg', 'key': 'u', 'origWidth': 410, 'origHeight': 410, 'width': 410, 'height': 410, 'widthPercent': 0.45, 'rescaleHeight': False, 'trialN': 14, 'loaded': True, 'loadedTime': 8892, 'positionName': 'LEFT', 'positionCoords': [327.28, 227], 'bid': 2.48}, {'imgObject': {}, 'id': 'steak', 'src': '/static/foodstim60/steak.jpg', 'key': 'i', 'origWidth': 410, 'origHeight': 410, 'width': 410, 'height': 410, 'widthPercent': 0.45, 'rescaleHeight': False, 'trialN': 14, 'loaded': True, 'loadedTime': 8926.400000095367, 'positionName': 'RIGHT', 'positionCoords': [798.72, 227], 'bid': 5.29}]",29045.400000095367,1669845876565,banana,steak,2.48,5.29,2.81,steak,780.4000000953674,780,780.5999999046326,True,i,30342.60000014305,1297.2000000476837,1669845877862,1297,HRV,HRV_0311,2022-11-30 22:19:15
15,"[{'imgObject': {}, 'id': 'edamame', 'src': '/static/foodstim60/edamame.jpg', 'key': 'u', 'origWidth': 409, 'origHeight': 410, 'width': 409, 'height': 410, 'widthPercent': 0.45, 'rescaleHeight': False, 'trialN': 15, 'loaded': True, 'loadedTime': 8939, 'positionName': 'LEFT', 'positionCoords': [328.28, 227], 'bid': 6.65}, {'imgObject': {}, 'id': 'roastedpotatoes', 'src': '/static/foodstim60/roastedpotatoes.jpg', 'key': 'i', 'origWidth': 409, 'origHeight': 410, 'width': 409, 'height': 410, 'widthPercent': 0.45, 'rescaleHeight': False, 'trialN': 15, 'loaded': True, 'loadedTime': 8913.900000095367, 'positionName': 'RIGHT', 'positionCoords': [798.72, 227], 'bid': 7.23}]",30342.900000095367,1669845877862,edamame,roastedpotatoes,6.65,7.23,0.5800000000000001,edamame,882.0999999046326,882,882.4000000953674,True,u,31742.60000014305,1399.7000000476837,1669845879262,1400,HRV,HRV_0311,2022-11-30 22:19:15
16,"[{'imgObject': {}, 'id': 'raisin bran w milk', 'src': '/static/foodstim60/raisin bran w milk.jpg', 'key': 'u', 'origWidth': 411, 'origHeight': 411, 'width': 411, 'height': 411, 'widthPercent': 0.45, 'rescaleHeight': False, 'trialN': 16, 'loaded': True, 'loadedTime': 8704, 'positionName': 'LEFT', 'positionCoords': [326.28, 226.5], 'bid': 0.49}, {'imgObject': {}, 'id': 'chicken nuggets2', 'src': '/static/foodstim60/chicken nuggets2.jpg', 'key': 'i', 'origWidth': 410, 'origHeight': 409, 'width': 410, 'height': 409, 'widthPercent': 0.45, 'rescaleHeight': False, 'trialN': 16, 'loaded': True, 'loadedTime': 8577.100000143051, 'positionName': 'RIGHT', 'positionCoords': [798.72, 227.5], 'bid': 1.38}]",31743.0,1669845879262,raisin bran w milk,chicken nuggets2,0.49,1.38,0.8899999999999999,raisin bran w milk,1125.7000000476837,1126,1126.1000001430511,True,u,33380.0,1637.0,1669845880899,1637,HRV,HRV_0311,2022-11-30 22:19:15
17,"[{'imgObject': {}, 'id': 'cheerios', 'src': '/static/foodstim60/cheerios.jpg', 'key': 'u', 'origWidth': 409, 'origHeight': 410, 'width': 409, 'height': 410, 'widthPercent': 0.45, 'rescaleHeight': False, 'trialN': 17, 'loaded': True, 'loadedTime': 8939.400000095367, 'positionName': 'LEFT', 'positionCoords': [328.28, 227], 'bid': 0.8200000000000001}, {'imgObject': {}, 'id': 'popsicles', 'src': '/static/foodstim60/popsicles.jpg', 'key': 'i', 'origWidth': 410, 'origHeight': 410, 'width': 410, 'height': 410, 'widthPercent': 0.45, 'rescaleHeight': False, 'trialN': 17, 'loaded': True, 'loadedTime': 8833.100000143051, 'positionName': 'RIGHT', 'positionCoords': [798.72, 227], 'bid': 3.13}]",33380.200000047684,1669845880899,cheerios,popsicles,0.8200000000000001,3.13,2.3099999999999996,cheerios,868.9000000953674,870,869.2000000476837,True,u,34756.700000047684,1376.5,1669845882276,1377,HRV,HRV_0311,2022-11-30 22:19:15
18,"[{'imgObject': {}, 'id': 'blueberries', 'src': '/static/foodstim60/blueberries.jpg', 'key': 'u', 'origWidth': 411, 'origHeight': 411, 'width': 411, 'height': 411, 'widthPercent': 0.45, 'rescaleHeight': False, 'trialN': 18, 'loaded': True, 'loadedTime': 8953.200000047684, 'positionName': 'LEFT', 'positionCoords': [326.28, 226.5], 'bid': 8.48}, {'imgObject': {}, 'id': 'rigatoni and sauce', 'src': '/static/foodstim60/rigatoni and sauce.jpg', 'key': 'i', 'origWidth': 410, 'origHeight': 411, 'width': 410, 'height': 411, 'widthPercent': 0.45, 'rescaleHeight': False, 'trialN': 18, 'loaded': True, 'loadedTime': 8772.700000047684, 'positionName': 'RIGHT', 'positionCoords': [798.72, 226.5], 'bid': 3.6}]",34757.0,1669845882276,blueberries,rigatoni and sauce,8.48,3.6,-4.880000000000001,blueberries,994.5,995,994.8000001907349,True,u,36271.700000047684,1514.7000000476837,1669845883791,1515,HRV,HRV_0311,2022-11-30 22:19:15
19,"[{'imgObject': {}, 'id': 'froot loops w milk', 'src': '/static/foodstim60/froot loops w milk.jpg', 'key': 'u', 'origWidth': 410, 'origHeight': 410, 'width': 410, 'height': 410, 'widthPercent': 0.45, 'rescaleHeight': False, 'trialN': 19, 'loaded': True, 'loadedTime': 8726.200000047684, 'positionName': 'LEFT', 'positionCoords': [327.28, 227], 'bid': 0.44}, {'imgObject': {}, 'id': 'burger', 'src': '/static/foodstim60/burger.jpg', 'key': 'i', 'origWidth': 409, 'origHeight': 409, 'width': 409, 'height': 409, 'widthPercent': 0.45, 'rescaleHeight': False, 'trialN': 19, 'loaded': True, 'loadedTime': 8816.600000143051, 'positionName': 'RIGHT', 'positionCoords': [798.72, 227.5], 'bid': 2.66}]",36271.90000009537,1669845883791,froot loops w milk,burger,0.44,2.66,2.22,burger,892.2000000476837,893,892.5,True,i,37676.60000014305,1404.7000000476837,1669845885196,1405,HRV,HRV_0311,2022-11-30 22:19:15
20,"[{'imgObject': {}, 'id': 'froot loops w milk', 'src': '/static/foodstim60/froot loops w milk.jpg', 'key': 'u', 'origWidth': 410, 'origHeight': 410, 'width': 410, 'height': 410, 'widthPercent': 0.45, 'rescaleHeight': False, 'trialN': 20, 'loaded': True, 'loadedTime': 8714.800000190735, 'positionName': 'LEFT', 'positionCoords': [327.28, 227], 'bid': 0.44}, {'imgObject': {}, 'id': 'cheerios', 'src': '/static/foodstim60/cheerios.jpg', 'key': 'i', 'origWidth': 409, 'origHeight': 410, 'width': 409, 'height': 410, 'widthPercent': 0.45, 'rescaleHeight': False, 'trialN': 20, 'loaded': True, 'loadedTime': 8941.700000047684, 'positionName': 'RIGHT', 'positionCoords': [798.72, 227], 'bid': 0.8200000000000001}]",37676.90000009537,1669845885196,froot loops w milk,cheerios,0.44,0.8200000000000001,0.38000000000000006,froot loops w milk,770.5,771,770.9000000953674,True,u,38964.800000190735,1287.9000000953674,1669845886484,1288,HRV,HRV_0311,2022-11-30 22:19:15
21,"[{'imgObject': {}, 'id': 'cantaloupe', 'src': '/static/foodstim60/cantaloupe.jpg', 'key': 'u', 'origWidth': 409, 'origHeight': 409, 'width': 409, 'height': 409, 'widthPercent': 0.45, 'rescaleHeight': False, 'trialN': 21, 'loaded': True, 'loadedTime': 8964.5, 'positionName': 'LEFT', 'positionCoords': [328.28, 227.5], 'bid': 7.04}, {'imgObject': {}, 'id': 'burrito', 'src': '/static/foodstim60/burrito.jpg', 'key': 'i', 'origWidth': 410, 'origHeight': 410, 'width': 410, 'height': 410, 'widthPercent': 0.45, 'rescaleHeight': False, 'trialN': 21, 'loaded': True, 'loadedTime': 8966.100000143051, 'positionName': 'RIGHT', 'positionCoords': [798.72, 227], 'bid': 9.02}]",38965.0,1669845886484,cantaloupe,burrito,7.04,9.02,1.9799999999999995,burrito,1123.9000000953674,1124,1124.2000000476837,True,i,40606.300000190735,1641.3000001907349,1669845888125,1641,HRV,HRV_0311,2022-11-30 22:19:15
22,"[{'imgObject': {}, 'id': 'mashed potato', 'src': '/static/foodstim60/mashed potato.jpg', 'key': 'u', 'origWidth': 409, 'origHeight': 409, 'width': 409, 'height': 409, 'widthPercent': 0.45, 'rescaleHeight': False, 'trialN': 22, 'loaded': True, 'loadedTime': 8966.600000143051, 'positionName': 'LEFT', 'positionCoords': [328.28, 227.5], 'bid': 7.6}, {'imgObject': {}, 'id': 'mango', 'src': '/static/foodstim60/mango.jpg', 'key': 'i', 'origWidth': 411, 'origHeight': 411, 'width': 411, 'height': 411, 'widthPercent': 0.45, 'rescaleHeight': False, 'trialN': 22, 'loaded': True, 'loadedTime': 8989.200000047684, 'positionName': 'RIGHT', 'positionCoords': [798.72, 226.5], 'bid': 7.68}]",40606.5,1669845888126,mashed potato,mango,7.6,7.68,0.08000000000000007,mashed potato,1100.9000000953674,1101,1101.3000001907349,True,u,42224.90000009537,1618.4000000953674,1669845889744,1618,HRV,HRV_0311,2022-11-30 22:19:15
23,"[{'imgObject': {}, 'id': 'burrito', 'src': '/static/foodstim60/burrito.jpg', 'key': 'u', 'origWidth': 410, 'origHeight': 410, 'width': 410, 'height': 410, 'widthPercent': 0.45, 'rescaleHeight': False, 'trialN': 23, 'loaded': True, 'loadedTime': 8966, 'positionName': 'LEFT', 'positionCoords': [327.28, 227], 'bid': 9.02}, {'imgObject': {}, 'id': 'cocktailshrimp', 'src': '/static/foodstim60/cocktailshrimp.jpg', 'key': 'i', 'origWidth': 410, 'origHeight': 410, 'width': 410, 'height': 410, 'widthPercent': 0.45, 'rescaleHeight': False, 'trialN': 23, 'loaded': True, 'loadedTime': 8990.600000143051, 'positionName': 'RIGHT', 'positionCoords': [798.72, 227], 'bid': 9.8}]",42225.40000009537,1669845889745,burrito,cocktailshrimp,9.02,9.8,0.7800000000000011,burrito,836.7000000476837,837,837.0,True,u,43571.700000047684,1346.2999999523163,1669845891091,1346,HRV,HRV_0311,2022-11-30 22:19:15
24,"[{'imgObject': {}, 'id': 'strawberries', 'src': '/static/foodstim60/strawberries.jpg', 'key': 'u', 'origWidth': 410, 'origHeight': 410, 'width': 410, 'height': 410, 'widthPercent': 0.45, 'rescaleHeight': False, 'trialN': 24, 'loaded': True, 'loadedTime': 9002.700000047684, 'positionName': 'LEFT', 'positionCoords': [327.28, 227], 'bid': 8.950000000000001}, {'imgObject': {}, 'id': 'corn cob', 'src': '/static/foodstim60/corn cob.jpg', 'key': 'i', 'origWidth': 411, 'origHeight': 411, 'width': 411, 'height': 411, 'widthPercent': 0.45, 'rescaleHeight': False, 'trialN': 24, 'loaded': True, 'loadedTime': 9005.100000143051, 'positionName': 'RIGHT', 'positionCoords': [798.72, 226.5], 'bid': 8.15}]",43571.90000009537,1669845891091,strawberries,corn cob,8.950000000000001,8.15,-0.8000000000000007,strawberries,935.5999999046326,936,935.9000000953674,True,u,45013.60000014305,1441.7000000476837,1669845892533,1442,HRV,HRV_0311,2022-11-30 22:19:15
25,"[{'imgObject': {}, 'id': 'burrito', 'src': '/static/foodstim60/burrito.jpg', 'key': 'u', 'origWidth': 410, 'origHeight': 410, 'width': 410, 'height': 410, 'widthPercent': 0.45, 'rescaleHeight': False, 'trialN': 25, 'loaded': True, 'loadedTime': 8964.800000190735, 'positionName': 'LEFT', 'positionCoords': [327.28, 227], 'bid': 9.02}, {'imgObject': {}, 'id': 'blueberries', 'src': '/static/foodstim60/blueberries.jpg', 'key': 'i', 'origWidth': 411, 'origHeight': 411, 'width': 411, 'height': 411, 'widthPercent': 0.45, 'rescaleHeight': False, 'trialN': 25, 'loaded': True, 'loadedTime': 8944, 'positionName': 'RIGHT', 'positionCoords': [798.72, 226.5], 'bid': 8.48}]",45013.90000009537,1669845892533,burrito,blueberries,9.02,8.48,-0.5399999999999991,blueberries,912.0,913,912.4000000953674,True,i,46438.10000014305,1424.2000000476837,1669845893957,1424,HRV,HRV_0311,2022-11-30 22:19:15
26,"[{'imgObject': {}, 'id': 'Tribe humus pita', 'src': '/static/foodstim60/Tribe humus pita.jpg', 'key': 'u', 'origWidth': 411, 'origHeight': 411, 'width': 411, 'height': 411, 'widthPercent': 0.45, 'rescaleHeight': False, 'trialN': 26, 'loaded': True, 'loadedTime': 8911.700000047684, 'positionName': 'LEFT', 'positionCoords': [326.28, 226.5], 'bid': 9.81}, {'imgObject': {}, 'id': 'fruitsalad', 'src': '/static/foodstim60/fruitsalad.jpg', 'key': 'i', 'origWidth': 410, 'origHeight': 410, 'width': 410, 'height': 410, 'widthPercent': 0.45, 'rescaleHeight': False, 'trialN': 26, 'loaded': True, 'loadedTime': 9015, 'positionName': 'RIGHT', 'positionCoords': [798.72, 227], 'bid': 9.28}]",46438.40000009537,1669845893958,Tribe humus pita,fruitsalad,9.81,9.28,-0.5300000000000011,Tribe humus pita,811.5,811,811.7999999523163,True,u,47768.200000047684,1329.7999999523163,1669845895287,1329,HRV,HRV_0311,2022-11-30 22:19:15
27,"[{'imgObject': {}, 'id': 'avocado', 'src': '/static/foodstim60/avocado.jpg', 'key': 'u', 'origWidth': 409, 'origHeight': 409, 'width': 409, 'height': 409, 'widthPercent': 0.45, 'rescaleHeight': False, 'trialN': 27, 'loaded': True, 'loadedTime': 9016.300000190735, 'positionName': 'LEFT', 'positionCoords': [328.28, 227.5], 'bid': 9.68}, {'imgObject': {}, 'id': 'omelette', 'src': '/static/foodstim60/omelette.jpg', 'key': 'i', 'origWidth': 410, 'origHeight': 409, 'width': 410, 'height': 409, 'widthPercent': 0.45, 'rescaleHeight': False, 'trialN': 27, 'loaded': True, 'loadedTime': 8762.300000190735, 'positionName': 'RIGHT', 'positionCoords': [798.72, 227.5], 'bid': 4.98}]",47768.5,1669845895288,avocado,omelette,9.68,4.98,-4.699999999999999,avocado,852.7000000476837,853,853.1000001430511,True,u,49132.60000014305,1364.1000001430511,1669845896652,1364,HRV,HRV_0311,2022-11-30 22:19:15
28,"[{'imgObject': {}, 'id': 'burger', 'src': '/static/foodstim60/burger.jpg', 'key': 'u', 'origWidth': 409, 'origHeight': 409, 'width': 409, 'height': 409, 'widthPercent': 0.45, 'rescaleHeight': False, 'trialN': 28, 'loaded': True, 'loadedTime': 8817.100000143051, 'positionName': 'LEFT', 'positionCoords': [328.28, 227.5], 'bid': 2.66}, {'imgObject': {}, 'id': 'hotdog w must', 'src': '/static/foodstim60/hotdog w must.jpg', 'key': 'i', 'origWidth': 409, 'origHeight': 409, 'width': 409, 'height': 409, 'widthPercent': 0.45, 'rescaleHeight': False, 'trialN': 28, 'loaded': True, 'loadedTime': 9028.700000047684, 'positionName': 'RIGHT', 'positionCoords': [798.72, 227.5], 'bid': 4.14}]",49132.800000190735,1669845896652,burger,hotdog w must,2.66,4.14,1.4799999999999995,burger,1216.6999998092651,1217,1217.0999999046326,True,u,50864.5,1731.6999998092651,1669845898384,1732,HRV,HRV_0311,2022-11-30 22:19:15
29,"[{'imgObject': {}, 'id': 'eggs', 'src': '/static/foodstim60/eggs.jpg', 'key': 'u', 'origWidth': 409, 'origHeight': 409, 'width': 409, 'height': 409, 'widthPercent': 0.45, 'rescaleHeight': False, 'trialN': 29, 'loaded': True, 'loadedTime': 9031.200000047684, 'positionName': 'LEFT', 'positionCoords': [328.28, 227.5], 'bid': 1.97}, {'imgObject': {}, 'id': 'granola w milk', 'src': '/static/foodstim60/granola w milk.jpg', 'key': 'i', 'origWidth': 410, 'origHeight': 410, 'width': 410, 'height': 410, 'widthPercent': 0.45, 'rescaleHeight': False, 'trialN': 29, 'loaded': True, 'loadedTime': 9043.900000095367, 'positionName': 'RIGHT', 'positionCoords': [798.72, 227], 'bid': 0.55}]",50864.60000014305,1669845898384,eggs,granola w milk,1.97,0.55,-1.42,granola w milk,987.5999999046326,988,987.8999998569489,True,i,52368.10000014305,1503.5,1669845899887,1503,HRV,HRV_0311,2022-11-30 22:19:15
30,"[{'imgObject': {}, 'id': 'bagel and cc', 'src': '/static/foodstim60/bagel and cc.jpg', 'key': 'u', 'origWidth': 410, 'origHeight': 410, 'width': 410, 'height': 410, 'widthPercent': 0.45, 'rescaleHeight': False, 'trialN': 30, 'loaded': True, 'loadedTime': 9044.5, 'positionName': 'LEFT', 'positionCoords': [327.28, 227], 'bid': 2.52}, {'imgObject': {}, 'id': 'salad w chicken', 'src': '/static/foodstim60/salad w chicken.jpg', 'key': 'i', 'origWidth': 411, 'origHeight': 411, 'width': 411, 'height': 411, 'widthPercent': 0.45, 'rescaleHeight': False, 'trialN': 30, 'loaded': True, 'loadedTime': 8867.400000095367, 'positionName': 'RIGHT', 'positionCoords': [798.72, 226.5], 'bid': 5.37}]",52368.200000047684,1669845899887,bagel and cc,salad w chicken,2.52,5.37,2.85,salad w chicken,932.2000000476837,933,932.7000000476837,True,i,53805.0,1436.7999999523163,1669845901324,1437,HRV,HRV_0311,2022-11-30 22:19:15
31,"[{'imgObject': {}, 'id': 'cherries', 'src': '/static/foodstim60/cherries.jpg', 'key': 'u', 'origWidth': 410, 'origHeight': 411, 'width': 410, 'height': 411, 'widthPercent': 0.45, 'rescaleHeight': False, 'trialN': 31, 'loaded': True, 'loadedTime': 9056.900000095367, 'positionName': 'LEFT', 'positionCoords': [327.28, 226.5], 'bid': 8.07}, {'imgObject': {}, 'id': 'salmon', 'src': '/static/foodstim60/salmon.jpg', 'key': 'i', 'origWidth': 410, 'origHeight': 409, 'width': 410, 'height': 409, 'widthPercent': 0.45, 'rescaleHeight': False, 'trialN': 31, 'loaded': True, 'loadedTime': 9058.700000047684, 'positionName': 'RIGHT', 'positionCoords': [798.72, 227.5], 'bid': 3.46}]",53805.300000190735,1669845901324,cherries,salmon,8.07,3.46,-4.61,cherries,970.8999998569489,972,971.1999998092651,True,u,55288.200000047684,1482.8999998569489,1669845902807,1483,HRV,HRV_0311,2022-11-30 22:19:15
32,"[{'imgObject': {}, 'id': 'Grapes', 'src': '/static/foodstim60/Grapes.jpg', 'key': 'u', 'origWidth': 411, 'origHeight': 411, 'width': 411, 'height': 411, 'widthPercent': 0.45, 'rescaleHeight': False, 'trialN': 32, 'loaded': True, 'loadedTime': 9061.800000190735, 'positionName': 'LEFT', 'positionCoords': [326.28, 226.5], 'bid': 9.41}, {'imgObject': {}, 'id': 'veggieswithdip', 'src': '/static/foodstim60/veggieswithdip.jpg', 'key': 'i', 'origWidth': 409, 'origHeight': 409, 'width': 409, 'height': 409, 'widthPercent': 0.45, 'rescaleHeight': False, 'trialN': 32, 'loaded': True, 'loadedTime': 9071.300000190735, 'positionName': 'RIGHT', 'positionCoords': [798.72, 227.5], 'bid': 9.5}]",55288.5,1669845902808,Grapes,veggieswithdip,9.41,9.5,0.08999999999999986,veggieswithdip,968.3000001907349,968,968.7000000476837,True,i,56768.700000047684,1480.2000000476837,1669845904288,1480,HRV,HRV_0311,2022-11-30 22:19:15
33,"[{'imgObject': {}, 'id': 'rigatoni and sauce', 'src': '/static/foodstim60/rigatoni and sauce.jpg', 'key': 'u', 'origWidth': 410, 'origHeight': 411, 'width': 410, 'height': 411, 'widthPercent': 0.45, 'rescaleHeight': False, 'trialN': 33, 'loaded': True, 'loadedTime': 8784.200000047684, 'positionName': 'LEFT', 'positionCoords': [327.28, 226.5], 'bid': 3.6}, {'imgObject': {}, 'id': 'eggsalad', 'src': '/static/foodstim60/eggsalad.jpg', 'key': 'i', 'origWidth': 410, 'origHeight': 409, 'width': 410, 'height': 409, 'widthPercent': 0.45, 'rescaleHeight': False, 'trialN': 33, 'loaded': True, 'loadedTime': 9072.100000143051, 'positionName': 'RIGHT', 'positionCoords': [798.72, 227.5], 'bid': 2}]",56768.90000009537,1669845904288,rigatoni and sauce,eggsalad,3.6,2.0,-1.6,rigatoni and sauce,824.7999999523163,825,825.2000000476837,True,u,58111.5,1342.5999999046326,1669845905635,1347,HRV,HRV_0311,2022-11-30 22:19:15
34,"[{'imgObject': {}, 'id': 'cherries', 'src': '/static/foodstim60/cherries.jpg', 'key': 'u', 'origWidth': 410, 'origHeight': 411, 'width': 410, 'height': 411, 'widthPercent': 0.45, 'rescaleHeight': False, 'trialN': 34, 'loaded': True, 'loadedTime': 9057.200000047684, 'positionName': 'LEFT', 'positionCoords': [327.28, 226.5], 'bid': 8.07}, {'imgObject': {}, 'id': 'cantaloupe', 'src': '/static/foodstim60/cantaloupe.jpg', 'key': 'i', 'origWidth': 409, 'origHeight': 409, 'width': 409, 'height': 409, 'widthPercent': 0.45, 'rescaleHeight': False, 'trialN': 34, 'loaded': True, 'loadedTime': 8954.900000095367, 'positionName': 'RIGHT', 'positionCoords': [798.72, 227.5], 'bid': 7.04}]",58111.800000190735,1669845905635,cherries,cantaloupe,8.07,7.04,-1.0300000000000002,cantaloupe,854.0,854,854.2999999523163,True,i,59472.300000190735,1360.5,1669845906996,1361,HRV,HRV_0311,2022-11-30 22:19:15
35,"[{'imgObject': {}, 'id': 'mac & cheese', 'src': '/static/foodstim60/mac & cheese.jpg', 'key': 'u', 'origWidth': 410, 'origHeight': 410, 'width': 410, 'height': 410, 'widthPercent': 0.45, 'rescaleHeight': False, 'trialN': 35, 'loaded': True, 'loadedTime': 9085.100000143051, 'positionName': 'LEFT', 'positionCoords': [327.28, 227], 'bid': 4.47}, {'imgObject': {}, 'id': 'omelette', 'src': '/static/foodstim60/omelette.jpg', 'key': 'i', 'origWidth': 410, 'origHeight': 409, 'width': 410, 'height': 409, 'widthPercent': 0.45, 'rescaleHeight': False, 'trialN': 35, 'loaded': True, 'loadedTime': 8760.600000143051, 'positionName': 'RIGHT', 'positionCoords': [798.72, 227.5], 'bid': 4.98}]",59472.60000014305,1669845906996,mac & cheese,omelette,4.47,4.98,0.5100000000000007,mac & cheese,730.2000000476837,731,730.5999999046326,True,u,60717.10000014305,1244.5,1669845908240,1244,HRV,HRV_0311,2022-11-30 22:19:15
36,"[{'imgObject': {}, 'id': 'roastedpotatoes', 'src': '/static/foodstim60/roastedpotatoes.jpg', 'key': 'u', 'origWidth': 409, 'origHeight': 410, 'width': 409, 'height': 410, 'widthPercent': 0.45, 'rescaleHeight': False, 'trialN': 36, 'loaded': True, 'loadedTime': 8923.200000047684, 'positionName': 'LEFT', 'positionCoords': [328.28, 227], 'bid': 7.23}, {'imgObject': {}, 'id': 'cantaloupe', 'src': '/static/foodstim60/cantaloupe.jpg', 'key': 'i', 'origWidth': 409, 'origHeight': 409, 'width': 409, 'height': 409, 'widthPercent': 0.45, 'rescaleHeight': False, 'trialN': 36, 'loaded': True, 'loadedTime': 8963.400000095367, 'positionName': 'RIGHT', 'positionCoords': [798.72, 227.5], 'bid': 7.04}]",60717.300000190735,1669845908241,roastedpotatoes,cantaloupe,7.23,7.04,-0.1900000000000004,roastedpotatoes,1102.0999999046326,1102,1102.5,True,u,62325.700000047684,1608.3999998569489,1669845909849,1608,HRV,HRV_0311,2022-11-30 22:19:15
37,"[{'imgObject': {}, 'id': 'edamame', 'src': '/static/foodstim60/edamame.jpg', 'key': 'u', 'origWidth': 409, 'origHeight': 410, 'width': 409, 'height': 410, 'widthPercent': 0.45, 'rescaleHeight': False, 'trialN': 37, 'loaded': True, 'loadedTime': 8939.100000143051, 'positionName': 'LEFT', 'positionCoords': [328.28, 227], 'bid': 6.65}, {'imgObject': {}, 'id': 'steak', 'src': '/static/foodstim60/steak.jpg', 'key': 'i', 'origWidth': 410, 'origHeight': 410, 'width': 410, 'height': 410, 'widthPercent': 0.45, 'rescaleHeight': False, 'trialN': 37, 'loaded': True, 'loadedTime': 8926.100000143051, 'positionName': 'RIGHT', 'positionCoords': [798.72, 227], 'bid': 5.29}]",62326.0,1669845909849,edamame,steak,6.65,5.29,-1.3600000000000003,edamame,1248.8000001907349,1250,1249.1000001430511,True,u,64087.90000009537,1761.9000000953674,1669845911611,1762,HRV,HRV_0311,2022-11-30 22:19:15
38,"[{'imgObject': {}, 'id': 'lox', 'src': '/static/foodstim60/lox.jpg', 'key': 'u', 'origWidth': 410, 'origHeight': 411, 'width': 410, 'height': 411, 'widthPercent': 0.45, 'rescaleHeight': False, 'trialN': 38, 'loaded': True, 'loadedTime': 9086.900000095367, 'positionName': 'LEFT', 'positionCoords': [327.28, 226.5], 'bid': 7}, {'imgObject': {}, 'id': 'pear', 'src': '/static/foodstim60/pear.jpg', 'key': 'i', 'origWidth': 411, 'origHeight': 410, 'width': 411, 'height': 410, 'widthPercent': 0.45, 'rescaleHeight': False, 'trialN': 38, 'loaded': True, 'loadedTime': 9088.200000047684, 'positionName': 'RIGHT', 'positionCoords': [798.72, 227], 'bid': 2.17}]",64088.200000047684,1669845911612,lox,pear,7.0,2.17,-4.83,lox,1076.0,1076,1076.2999999523163,True,u,65676.20000004768,1588.0,1669845913200,1588,HRV,HRV_0311,2022-11-30 22:19:15
39,"[{'imgObject': {}, 'id': 'chickenfingers', 'src': '/static/foodstim60/chickenfingers.jpg', 'key': 'u', 'origWidth': 410, 'origHeight': 410, 'width': 410, 'height': 410, 'widthPercent': 0.45, 'rescaleHeight': False, 'trialN': 39, 'loaded': True, 'loadedTime': 9099.600000143051, 'positionName': 'LEFT', 'positionCoords': [327.28, 227], 'bid': 6.54}, {'imgObject': {}, 'id': 'kiwi', 'src': '/static/foodstim60/kiwi.jpg', 'key': 'i', 'origWidth': 410, 'origHeight': 410, 'width': 410, 'height': 410, 'widthPercent': 0.45, 'rescaleHeight': False, 'trialN': 39, 'loaded': True, 'loadedTime': 8850.800000190735, 'positionName': 'RIGHT', 'positionCoords': [798.72, 227], 'bid': 6.3500000000000005}]",65676.5,1669845913200,chickenfingers,kiwi,6.54,6.3500000000000005,-0.1899999999999995,chickenfingers,897.3000001907349,897,897.6000001430511,True,u,67088.5,1412.0,1669845914612,1412,HRV,HRV_0311,2022-11-30 22:19:15
40,"[{'imgObject': {}, 'id': 'chickenfingers', 'src': '/static/foodstim60/chickenfingers.jpg', 'key': 'u', 'origWidth': 410, 'origHeight': 410, 'width': 410, 'height': 410, 'widthPercent': 0.45, 'rescaleHeight': False, 'trialN': 40, 'loaded': True, 'loadedTime': 9098, 'positionName': 'LEFT', 'positionCoords': [327.28, 227], 'bid': 6.54}, {'imgObject': {}, 'id': 'tacos', 'src': '/static/foodstim60/tacos.jpg', 'key': 'i', 'origWidth': 411, 'origHeight': 411, 'width': 411, 'height': 411, 'widthPercent': 0.45, 'rescaleHeight': False, 'trialN': 40, 'loaded': True, 'loadedTime': 9101.400000095367, 'positionName': 'RIGHT', 'positionCoords': [798.72, 226.5], 'bid': 6.3500000000000005}]",67088.70000004768,1669845914612,chickenfingers,tacos,6.54,6.3500000000000005,-0.1899999999999995,tacos,964.9000000953674,965,965.2000000476837,True,i,68556.20000004768,1467.5,1669845916080,1468,HRV,HRV_0311,2022-11-30 22:19:15
41,"[{'imgObject': {}, 'id': 'popsicles', 'src': '/static/foodstim60/popsicles.jpg', 'key': 'u', 'origWidth': 410, 'origHeight': 410, 'width': 410, 'height': 410, 'widthPercent': 0.45, 'rescaleHeight': False, 'trialN': 41, 'loaded': True, 'loadedTime': 8836.200000047684, 'positionName': 'LEFT', 'positionCoords': [327.28, 227], 'bid': 3.13}, {'imgObject': {}, 'id': 'apple slices', 'src': '/static/foodstim60/apple slices.jpg', 'key': 'i', 'origWidth': 409, 'origHeight': 410, 'width': 409, 'height': 410, 'widthPercent': 0.45, 'rescaleHeight': False, 'trialN': 41, 'loaded': True, 'loadedTime': 8700.900000095367, 'positionName': 'RIGHT', 'positionCoords': [798.72, 227], 'bid': 7.99}]",68556.40000009537,1669845916080,popsicles,apple slices,3.13,7.99,4.86,apple slices,842.5999999046326,843,843.0,True,i,69902.80000019073,1346.4000000953674,1669845917426,1346,HRV,HRV_0311,2022-11-30 22:19:15
42,"[{'imgObject': {}, 'id': 'baked potato', 'src': '/static/foodstim60/baked potato.jpg', 'key': 'u', 'origWidth': 409, 'origHeight': 410, 'width': 409, 'height': 410, 'widthPercent': 0.45, 'rescaleHeight': False, 'trialN': 42, 'loaded': True, 'loadedTime': 9112.5, 'positionName': 'LEFT', 'positionCoords': [328.28, 227], 'bid': 3.56}, {'imgObject': {}, 'id': 'rigatoni and sauce', 'src': '/static/foodstim60/rigatoni and sauce.jpg', 'key': 'i', 'origWidth': 410, 'origHeight': 411, 'width': 410, 'height': 411, 'widthPercent': 0.45, 'rescaleHeight': False, 'trialN': 42, 'loaded': True, 'loadedTime': 8774.700000047684, 'positionName': 'RIGHT', 'positionCoords': [798.72, 226.5], 'bid': 3.6}]",69903.10000014305,1669845917427,baked potato,rigatoni and sauce,3.56,3.6,0.040000000000000036,baked potato,966.0,966,966.2999999523163,True,u,71383.10000014305,1480.0,1669845918906,1479,HRV,HRV_0311,2022-11-30 22:19:15
43,"[{'imgObject': {}, 'id': 'avocado', 'src': '/static/foodstim60/avocado.jpg', 'key': 'u', 'origWidth': 409, 'origHeight': 409, 'width': 409, 'height': 409, 'widthPercent': 0.45, 'rescaleHeight': False, 'trialN': 43, 'loaded': True, 'loadedTime': 9018.200000047684, 'positionName': 'LEFT', 'positionCoords': [328.28, 227.5], 'bid': 9.68}, {'imgObject': {}, 'id': 'strawberries', 'src': '/static/foodstim60/strawberries.jpg', 'key': 'i', 'origWidth': 410, 'origHeight': 410, 'width': 410, 'height': 410, 'widthPercent': 0.45, 'rescaleHeight': False, 'trialN': 43, 'loaded': True, 'loadedTime': 9001.600000143051, 'positionName': 'RIGHT', 'positionCoords': [798.72, 227], 'bid': 8.950000000000001}]",71383.40000009537,1669845918907,avocado,strawberries,9.68,8.950000000000001,-0.7299999999999986,avocado,793.0999999046326,793,793.4000000953674,True,u,72689.5,1306.0999999046326,1669845920213,1306,HRV,HRV_0311,2022-11-30 22:19:15
44,"[{'imgObject': {}, 'id': 'roastedpotatoes', 'src': '/static/foodstim60/roastedpotatoes.jpg', 'key': 'u', 'origWidth': 409, 'origHeight': 410, 'width': 409, 'height': 410, 'widthPercent': 0.45, 'rescaleHeight': False, 'trialN': 44, 'loaded': True, 'loadedTime': 8914.200000047684, 'positionName': 'LEFT', 'positionCoords': [328.28, 227], 'bid': 7.23}, {'imgObject': {}, 'id': 'bagel and cc', 'src': '/static/foodstim60/bagel and cc.jpg', 'key': 'i', 'origWidth': 410, 'origHeight': 410, 'width': 410, 'height': 410, 'widthPercent': 0.45, 'rescaleHeight': False, 'trialN': 44, 'loaded': True, 'loadedTime': 9045.600000143051, 'positionName': 'RIGHT', 'positionCoords': [798.72, 227], 'bid': 2.52}]",72689.80000019073,1669845920213,roastedpotatoes,bagel and cc,7.23,2.52,-4.710000000000001,roastedpotatoes,899.2999999523163,900,899.5999999046326,True,u,74102.10000014305,1412.2999999523163,1669845921625,1412,HRV,HRV_0311,2022-11-30 22:19:15
45,"[{'imgObject': {}, 'id': 'veggieswithdip', 'src': '/static/foodstim60/veggieswithdip.jpg', 'key': 'u', 'origWidth': 409, 'origHeight': 409, 'width': 409, 'height': 409, 'widthPercent': 0.45, 'rescaleHeight': False, 'trialN': 45, 'loaded': True, 'loadedTime': 9071.5, 'positionName': 'LEFT', 'positionCoords': [328.28, 227.5], 'bid': 9.5}, {'imgObject': {}, 'id': 'mango', 'src': '/static/foodstim60/mango.jpg', 'key': 'i', 'origWidth': 411, 'origHeight': 411, 'width': 411, 'height': 411, 'widthPercent': 0.45, 'rescaleHeight': False, 'trialN': 45, 'loaded': True, 'loadedTime': 8980.400000095367, 'positionName': 'RIGHT', 'positionCoords': [798.72, 226.5], 'bid': 7.68}]",74102.30000019073,1669845921626,veggieswithdip,mango,9.5,7.68,-1.8200000000000003,veggieswithdip,829.0,829,829.5,True,u,75447.60000014305,1345.2999999523163,1669845922971,1345,HRV,HRV_0311,2022-11-30 22:19:15
46,"[{'imgObject': {}, 'id': 'hotdog w must', 'src': '/static/foodstim60/hotdog w must.jpg', 'key': 'u', 'origWidth': 409, 'origHeight': 409, 'width': 409, 'height': 409, 'widthPercent': 0.45, 'rescaleHeight': False, 'trialN': 46, 'loaded': True, 'loadedTime': 9028.100000143051, 'positionName': 'LEFT', 'positionCoords': [328.28, 227.5], 'bid': 4.14}, {'imgObject': {}, 'id': 'turkeysandwich', 'src': '/static/foodstim60/turkeysandwich.jpg', 'key': 'i', 'origWidth': 409, 'origHeight': 409, 'width': 409, 'height': 409, 'widthPercent': 0.45, 'rescaleHeight': False, 'trialN': 46, 'loaded': True, 'loadedTime': 8597.600000143051, 'positionName': 'RIGHT', 'positionCoords': [798.72, 227.5], 'bid': 6.15}]",75448.0,1669845922971,hotdog w must,turkeysandwich,4.14,6.15,2.0100000000000007,turkeysandwich,805.1000001430511,806,805.4000000953674,True,i,76767.20000004768,1319.2000000476837,1669845924291,1320,HRV,HRV_0311,2022-11-30 22:19:15
47,"[{'imgObject': {}, 'id': 'chickenfingers', 'src': '/static/foodstim60/chickenfingers.jpg', 'key': 'u', 'origWidth': 410, 'origHeight': 410, 'width': 410, 'height': 410, 'widthPercent': 0.45, 'rescaleHeight': False, 'trialN': 47, 'loaded': True, 'loadedTime': 9099.800000190735, 'positionName': 'LEFT', 'positionCoords': [327.28, 227], 'bid': 6.54}, {'imgObject': {}, 'id': 'strawberries', 'src': '/static/foodstim60/strawberries.jpg', 'key': 'i', 'origWidth': 410, 'origHeight': 410, 'width': 410, 'height': 410, 'widthPercent': 0.45, 'rescaleHeight': False, 'trialN': 47, 'loaded': True, 'loadedTime': 9003.100000143051, 'positionName': 'RIGHT', 'positionCoords': [798.72, 227], 'bid': 8.950000000000001}]",76767.5,1669845924291,chickenfingers,strawberries,6.54,8.950000000000001,2.410000000000001,chickenfingers,866.9000000953674,867,867.2000000476837,True,u,78150.5,1383.0,1669845925674,1383,HRV,HRV_0311,2022-11-30 22:19:15
48,"[{'imgObject': {}, 'id': 'salmon', 'src': '/static/foodstim60/salmon.jpg', 'key': 'u', 'origWidth': 410, 'origHeight': 409, 'width': 410, 'height': 409, 'widthPercent': 0.45, 'rescaleHeight': False, 'trialN': 48, 'loaded': True, 'loadedTime': 9057.400000095367, 'positionName': 'LEFT', 'positionCoords': [327.28, 227.5], 'bid': 3.46}, {'imgObject': {}, 'id': 'grilled chicken strips', 'src': '/static/foodstim60/grilled chicken strips.jpg', 'key': 'i', 'origWidth': 410, 'origHeight': 411, 'width': 410, 'height': 411, 'widthPercent': 0.45, 'rescaleHeight': False, 'trialN': 48, 'loaded': True, 'loadedTime': 8635.200000047684, 'positionName': 'RIGHT', 'positionCoords': [798.72, 226.5], 'bid': 4.47}]",78150.70000004768,1669845925674,salmon,grilled chicken strips,3.46,4.47,1.0099999999999998,salmon,1141.2000000476837,1142,1141.4000000953674,True,u,79808.70000004768,1658.0,1669845927332,1658,HRV,HRV_0311,2022-11-30 22:19:15
49,"[{'imgObject': {}, 'id': 'salad w chicken', 'src': '/static/foodstim60/salad w chicken.jpg', 'key': 'u', 'origWidth': 411, 'origHeight': 411, 'width': 411, 'height': 411, 'widthPercent': 0.45, 'rescaleHeight': False, 'trialN': 49, 'loaded': True, 'loadedTime': 8851.100000143051, 'positionName': 'LEFT', 'positionCoords': [326.28, 226.5], 'bid': 5.37}, {'imgObject': {}, 'id': 'turkey sandwich', 'src': '/static/foodstim60/turkey sandwich.jpg', 'key': 'i', 'origWidth': 409, 'origHeight': 409, 'width': 409, 'height': 409, 'widthPercent': 0.45, 'rescaleHeight': False, 'trialN': 49, 'loaded': True, 'loadedTime': 9114.300000190735, 'positionName': 'RIGHT', 'positionCoords': [798.72, 227.5], 'bid': 6.87}]",79809.0,1669845927332,salad w chicken,turkey sandwich,5.37,6.87,1.5,turkey sandwich,1003.6000001430511,1004,1003.9000000953674,True,i,81323.80000019073,1514.8000001907349,1669845928847,1515,HRV,HRV_0311,2022-11-30 22:19:15
50,"[{'imgObject': {}, 'id': 'mac & cheese', 'src': '/static/foodstim60/mac & cheese.jpg', 'key': 'u', 'origWidth': 410, 'origHeight': 410, 'width': 410, 'height': 410, 'widthPercent': 0.45, 'rescaleHeight': False, 'trialN': 50, 'loaded': True, 'loadedTime': 9084.600000143051, 'positionName': 'LEFT', 'positionCoords': [327.28, 227], 'bid': 4.47}, {'imgObject': {}, 'id': 'orange slices', 'src': '/static/foodstim60/orange slices.jpg', 'key': 'i', 'origWidth': 409, 'origHeight': 410, 'width': 409, 'height': 410, 'widthPercent': 0.45, 'rescaleHeight': False, 'trialN': 50, 'loaded': True, 'loadedTime': 9117.100000143051, 'positionName': 'RIGHT', 'positionCoords': [798.72, 227], 'bid': 5.98}]",81324.0,1669845928847,mac & cheese,orange slices,4.47,5.98,1.5100000000000007,mac & cheese,798.6000001430511,799,798.8000001907349,True,u,82629.60000014305,1305.6000001430511,1669845930153,1306,HRV,HRV_0311,2022-11-30 22:19:15
51,"[{'imgObject': {}, 'id': 'blackbeanswithrice', 'src': '/static/foodstim60/blackbeanswithrice.jpg', 'key': 'u', 'origWidth': 410, 'origHeight': 410, 'width': 410, 'height': 410, 'widthPercent': 0.45, 'rescaleHeight': False, 'trialN': 51, 'loaded': True, 'loadedTime': 8685.600000143051, 'positionName': 'LEFT', 'positionCoords': [327.28, 227], 'bid': 6.6000000000000005}, {'imgObject': {}, 'id': 'edamame', 'src': '/static/foodstim60/edamame.jpg', 'key': 'i', 'origWidth': 409, 'origHeight': 410, 'width': 409, 'height': 410, 'widthPercent': 0.45, 'rescaleHeight': False, 'trialN': 51, 'loaded': True, 'loadedTime': 8938.800000190735, 'positionName': 'RIGHT', 'positionCoords': [798.72, 227], 'bid': 6.65}]",82629.70000004768,1669845930153,blackbeanswithrice,edamame,6.6000000000000005,6.65,0.04999999999999982,blackbeanswithrice,989.0,989,989.4000000953674,True,u,84128.70000004768,1499.0,1669845931652,1499,HRV,HRV_0311,2022-11-30 22:19:15
52,"[{'imgObject': {}, 'id': 'mango', 'src': '/static/foodstim60/mango.jpg', 'key': 'u', 'origWidth': 411, 'origHeight': 411, 'width': 411, 'height': 411, 'widthPercent': 0.45, 'rescaleHeight': False, 'trialN': 52, 'loaded': True, 'loadedTime': 8989.600000143051, 'positionName': 'LEFT', 'positionCoords': [326.28, 226.5], 'bid': 7.68}, {'imgObject': {}, 'id': 'orange slices', 'src': '/static/foodstim60/orange slices.jpg', 'key': 'i', 'origWidth': 409, 'origHeight': 410, 'width': 409, 'height': 410, 'widthPercent': 0.45, 'rescaleHeight': False, 'trialN': 52, 'loaded': True, 'loadedTime': 9114.800000190735, 'positionName': 'RIGHT', 'positionCoords': [798.72, 227], 'bid': 5.98}]",84128.90000009537,1669845931652,mango,orange slices,7.68,5.98,-1.6999999999999993,mango,1195.4000000953674,1196,1195.7000000476837,True,u,85831.30000019073,1702.4000000953674,1669845933355,1703,HRV,HRV_0311,2022-11-30 22:19:15
53,"[{'imgObject': {}, 'id': 'lox', 'src': '/static/foodstim60/lox.jpg', 'key': 'u', 'origWidth': 410, 'origHeight': 411, 'width': 410, 'height': 411, 'widthPercent': 0.45, 'rescaleHeight': False, 'trialN': 53, 'loaded': True, 'loadedTime': 9087.900000095367, 'positionName': 'LEFT', 'positionCoords': [327.28, 226.5], 'bid': 7}, {'imgObject': {}, 'id': 'cantaloupe', 'src': '/static/foodstim60/cantaloupe.jpg', 'key': 'i', 'origWidth': 409, 'origHeight': 409, 'width': 409, 'height': 409, 'widthPercent': 0.45, 'rescaleHeight': False, 'trialN': 53, 'loaded': True, 'loadedTime': 8955.5, 'positionName': 'RIGHT', 'positionCoords': [798.72, 227.5], 'bid': 7.04}]",85831.80000019073,1669845933355,lox,cantaloupe,7.0,7.04,0.040000000000000036,lox,821.2999999523163,822,821.5999999046326,True,u,87156.10000014305,1324.2999999523163,1669845934680,1325,HRV,HRV_0311,2022-11-30 22:19:15
54,"[{'imgObject': {}, 'id': 'mango', 'src': '/static/foodstim60/mango.jpg', 'key': 'u', 'origWidth': 411, 'origHeight': 411, 'width': 411, 'height': 411, 'widthPercent': 0.45, 'rescaleHeight': False, 'trialN': 54, 'loaded': True, 'loadedTime': 8978.600000143051, 'positionName': 'LEFT', 'positionCoords': [326.28, 226.5], 'bid': 7.68}, {'imgObject': {}, 'id': 'ice cream sundae 002', 'src': '/static/foodstim60/ice cream sundae 002.jpg', 'key': 'i', 'origWidth': 409, 'origHeight': 409, 'width': 409, 'height': 409, 'widthPercent': 0.45, 'rescaleHeight': False, 'trialN': 54, 'loaded': True, 'loadedTime': 9118.900000095367, 'positionName': 'RIGHT', 'positionCoords': [798.72, 227.5], 'bid': 6.94}]",87156.40000009537,1669845934680,mango,ice cream sundae 002,7.68,6.94,-0.7399999999999993,ice cream sundae 002,1047.4000000953674,1048,1047.7000000476837,True,i,88711.40000009537,1555.0,1669845936235,1555,HRV,HRV_0311,2022-11-30 22:19:15
55,"[{'imgObject': {}, 'id': 'cherry tomato', 'src': '/static/foodstim60/cherry tomato.jpg', 'key': 'u', 'origWidth': 410, 'origHeight': 410, 'width': 410, 'height': 410, 'widthPercent': 0.45, 'rescaleHeight': False, 'trialN': 55, 'loaded': True, 'loadedTime': 8621.600000143051, 'positionName': 'LEFT', 'positionCoords': [327.28, 227], 'bid': 4.21}, {'imgObject': {}, 'id': 'sweetpotato', 'src': '/static/foodstim60/sweetpotato.jpg', 'key': 'i', 'origWidth': 410, 'origHeight': 410, 'width': 410, 'height': 410, 'widthPercent': 0.45, 'rescaleHeight': False, 'trialN': 55, 'loaded': True, 'loadedTime': 9120.800000190735, 'positionName': 'RIGHT', 'positionCoords': [798.72, 227], 'bid': 6.22}]",88711.5,1669845936235,cherry tomato,sweetpotato,4.21,6.22,2.01,sweetpotato,1272.3000001907349,1273,1272.7000000476837,True,i,90503.0,1791.5,1669845938026,1791,HRV,HRV_0311,2022-11-30 22:19:15
56,"[{'imgObject': {}, 'id': 'orange slices', 'src': '/static/foodstim60/orange slices.jpg', 'key': 'u', 'origWidth': 409, 'origHeight': 410, 'width': 409, 'height': 410, 'widthPercent': 0.45, 'rescaleHeight': False, 'trialN': 56, 'loaded': True, 'loadedTime': 9116.400000095367, 'positionName': 'LEFT', 'positionCoords': [328.28, 227], 'bid': 5.98}, {'imgObject': {}, 'id': 'fried eggs', 'src': '/static/foodstim60/fried eggs.jpg', 'key': 'i', 'origWidth': 410, 'origHeight': 410, 'width': 410, 'height': 410, 'widthPercent': 0.45, 'rescaleHeight': False, 'trialN': 56, 'loaded': True, 'loadedTime': 9121.100000143051, 'positionName': 'RIGHT', 'positionCoords': [798.72, 227], 'bid': 4.04}]",90503.40000009537,1669845938027,orange slices,fried eggs,5.98,4.04,-1.9400000000000004,fried eggs,1118.2999999523163,1118,1118.5999999046326,True,i,92124.40000009537,1621.0,1669845939648,1621,HRV,HRV_0311,2022-11-30 22:19:15
57,"[{'imgObject': {}, 'id': 'grilled chicken strips', 'src': '/static/foodstim60/grilled chicken strips.jpg', 'key': 'u', 'origWidth': 410, 'origHeight': 411, 'width': 410, 'height': 411, 'widthPercent': 0.45, 'rescaleHeight': False, 'trialN': 57, 'loaded': True, 'loadedTime': 8638.600000143051, 'positionName': 'LEFT', 'positionCoords': [327.28, 226.5], 'bid': 4.47}, {'imgObject': {}, 'id': 'tacos', 'src': '/static/foodstim60/tacos.jpg', 'key': 'i', 'origWidth': 411, 'origHeight': 411, 'width': 411, 'height': 411, 'widthPercent': 0.45, 'rescaleHeight': False, 'trialN': 57, 'loaded': True, 'loadedTime': 9101.5, 'positionName': 'RIGHT', 'positionCoords': [798.72, 226.5], 'bid': 6.3500000000000005}]",92124.60000014305,1669845939648,grilled chicken strips,tacos,4.47,6.3500000000000005,1.8800000000000008,grilled chicken strips,1033.8999998569489,1034,1034.2000000476837,True,u,93670.5,1545.8999998569489,1669845941194,1546,HRV,HRV_0311,2022-11-30 22:19:15
58,"[{'imgObject': {}, 'id': 'cheerios', 'src': '/static/foodstim60/cheerios.jpg', 'key': 'u', 'origWidth': 409, 'origHeight': 410, 'width': 409, 'height': 410, 'widthPercent': 0.45, 'rescaleHeight': False, 'trialN': 58, 'loaded': True, 'loadedTime': 8942.300000190735, 'positionName': 'LEFT', 'positionCoords': [328.28, 227], 'bid': 0.8200000000000001}, {'imgObject': {}, 'id': 'luckycharms', 'src': '/static/foodstim60/luckycharms.jpg', 'key': 'i', 'origWidth': 410, 'origHeight': 409, 'width': 410, 'height': 409, 'widthPercent': 0.45, 'rescaleHeight': False, 'trialN': 58, 'loaded': True, 'loadedTime': 8788.900000095367, 'positionName': 'RIGHT', 'positionCoords': [798.72, 227.5], 'bid': 0.75}]",93670.70000004768,1669845941194,cheerios,luckycharms,0.8200000000000001,0.75,-0.07000000000000006,luckycharms,1082.6000001430511,1083,1082.9000000953674,True,i,95261.30000019073,1590.6000001430511,1669845942785,1591,HRV,HRV_0311,2022-11-30 22:19:15
59,"[{'imgObject': {}, 'id': 'turkey sandwich', 'src': '/static/foodstim60/turkey sandwich.jpg', 'key': 'u', 'origWidth': 409, 'origHeight': 409, 'width': 409, 'height': 409, 'widthPercent': 0.45, 'rescaleHeight': False, 'trialN': 59, 'loaded': True, 'loadedTime': 9114.100000143051, 'positionName': 'LEFT', 'positionCoords': [328.28, 227.5], 'bid': 6.87}, {'imgObject': {}, 'id': 'mashed potato', 'src': '/static/foodstim60/mashed potato.jpg', 'key': 'i', 'origWidth': 409, 'origHeight': 409, 'width': 409, 'height': 409, 'widthPercent': 0.45, 'rescaleHeight': False, 'trialN': 59, 'loaded': True, 'loadedTime': 8977.5, 'positionName': 'RIGHT', 'positionCoords': [798.72, 227.5], 'bid': 7.6}]",95261.60000014305,1669845942785,turkey sandwich,mashed potato,6.87,7.6,0.7299999999999995,turkey sandwich,1059.7000000476837,1060,1060.0,True,u,96836.5,1574.8999998569489,1669845944360,1575,HRV,HRV_0311,2022-11-30 22:19:15
60,"[{'imgObject': {}, 'id': 'lox', 'src': '/static/foodstim60/lox.jpg', 'key': 'u', 'origWidth': 410, 'origHeight': 411, 'width': 410, 'height': 411, 'widthPercent': 0.45, 'rescaleHeight': False, 'trialN': 60, 'loaded': True, 'loadedTime': 9087.400000095367, 'positionName': 'LEFT', 'positionCoords': [327.28, 226.5], 'bid': 7}, {'imgObject': {}, 'id': 'veggieswithdip', 'src': '/static/foodstim60/veggieswithdip.jpg', 'key': 'i', 'origWidth': 409, 'origHeight': 409, 'width': 409, 'height': 409, 'widthPercent': 0.45, 'rescaleHeight': False, 'trialN': 60, 'loaded': True, 'loadedTime': 9062.100000143051, 'positionName': 'RIGHT', 'positionCoords': [798.72, 227.5], 'bid': 9.5}]",96836.80000019073,1669845944360,lox,veggieswithdip,7.0,9.5,2.5,veggieswithdip,882.6999998092651,883,883.0,True,i,98238.10000014305,1401.2999999523163,1669845945762,1402,HRV,HRV_0311,2022-11-30 22:19:15
61,"[{'imgObject': {}, 'id': 'bagel plain', 'src': '/static/foodstim60/bagel plain.jpg', 'key': 'u', 'origWidth': 410, 'origHeight': 410, 'width': 410, 'height': 410, 'widthPercent': 0.45, 'rescaleHeight': False, 'trialN': 61, 'loaded': True, 'loadedTime': 9131.200000047684, 'positionName': 'LEFT', 'positionCoords': [327.28, 227], 'bid': 0.6900000000000001}, {'imgObject': {}, 'id': 'eggsalad', 'src': '/static/foodstim60/eggsalad.jpg', 'key': 'i', 'origWidth': 410, 'origHeight': 409, 'width': 410, 'height': 409, 'widthPercent': 0.45, 'rescaleHeight': False, 'trialN': 61, 'loaded': True, 'loadedTime': 9073.400000095367, 'positionName': 'RIGHT', 'positionCoords': [798.72, 227.5], 'bid': 2}]",98238.40000009537,1669845945762,bagel plain,eggsalad,0.6900000000000001,2.0,1.31,bagel plain,1317.5999999046326,1318,1317.9000000953674,True,u,100062.5,1824.0999999046326,1669845947586,1824,HRV,HRV_0311,2022-11-30 22:19:15
62,"[{'imgObject': {}, 'id': 'olives', 'src': '/static/foodstim60/olives.jpg', 'key': 'u', 'origWidth': 410, 'origHeight': 410, 'width': 410, 'height': 410, 'widthPercent': 0.45, 'rescaleHeight': False, 'trialN': 62, 'loaded': True, 'loadedTime': 8728.100000143051, 'positionName': 'LEFT', 'positionCoords': [327.28, 227], 'bid': 5.88}, {'imgObject': {}, 'id': 'salad w chicken', 'src': '/static/foodstim60/salad w chicken.jpg', 'key': 'i', 'origWidth': 411, 'origHeight': 411, 'width': 411, 'height': 411, 'widthPercent': 0.45, 'rescaleHeight': False, 'trialN': 62, 'loaded': True, 'loadedTime': 8867.5, 'positionName': 'RIGHT', 'positionCoords': [798.72, 226.5], 'bid': 5.37}]",100062.70000004768,1669845947586,olives,salad w chicken,5.88,5.37,-0.5099999999999998,salad w chicken,994.5,995,994.7999999523163,True,i,101568.60000014305,1505.9000000953674,1669845949092,1506,HRV,HRV_0311,2022-11-30 22:19:15
63,"[{'imgObject': {}, 'id': 'seaweed', 'src': '/static/foodstim60/seaweed.jpg', 'key': 'u', 'origWidth': 410, 'origHeight': 410, 'width': 410, 'height': 410, 'widthPercent': 0.45, 'rescaleHeight': False, 'trialN': 63, 'loaded': True, 'loadedTime': 9133.700000047684, 'positionName': 'LEFT', 'positionCoords': [327.28, 227], 'bid': 4.57}, {'imgObject': {}, 'id': 'pear', 'src': '/static/foodstim60/pear.jpg', 'key': 'i', 'origWidth': 411, 'origHeight': 410, 'width': 411, 'height': 410, 'widthPercent': 0.45, 'rescaleHeight': False, 'trialN': 63, 'loaded': True, 'loadedTime': 9097.700000047684, 'positionName': 'RIGHT', 'positionCoords': [798.72, 227], 'bid': 2.17}]",101569.0,1669845949092,seaweed,pear,4.57,2.17,-2.4000000000000004,pear,1146.4000000953674,1147,1146.6000001430511,True,i,103231.5,1662.5,1669845950755,1663,HRV,HRV_0311,2022-11-30 22:19:15
64,"[{'imgObject': {}, 'id': 'blackbeanswithrice', 'src': '/static/foodstim60/blackbeanswithrice.jpg', 'key': 'u', 'origWidth': 410, 'origHeight': 410, 'width': 410, 'height': 410, 'widthPercent': 0.45, 'rescaleHeight': False, 'trialN': 64, 'loaded': True, 'loadedTime': 8670.400000095367, 'positionName': 'LEFT', 'positionCoords': [327.28, 227], 'bid': 6.6000000000000005}, {'imgObject': {}, 'id': 'burrito', 'src': '/static/foodstim60/burrito.jpg', 'key': 'i', 'origWidth': 410, 'origHeight': 410, 'width': 410, 'height': 410, 'widthPercent': 0.45, 'rescaleHeight': False, 'trialN': 64, 'loaded': True, 'loadedTime': 8966.200000047684, 'positionName': 'RIGHT', 'positionCoords': [798.72, 227], 'bid': 9.02}]",103231.80000019073,1669845950755,blackbeanswithrice,burrito,6.6000000000000005,9.02,2.419999999999999,blackbeanswithrice,760.0999999046326,761,760.5,True,u,104502.20000004768,1270.3999998569489,1669845952026,1271,HRV,HRV_0311,2022-11-30 22:19:15
65,"[{'imgObject': {}, 'id': 'cocktailshrimp', 'src': '/static/foodstim60/cocktailshrimp.jpg', 'key': 'u', 'origWidth': 410, 'origHeight': 410, 'width': 410, 'height': 410, 'widthPercent': 0.45, 'rescaleHeight': False, 'trialN': 65, 'loaded': True, 'loadedTime': 8992.400000095367, 'positionName': 'LEFT', 'positionCoords': [327.28, 227], 'bid': 9.8}, {'imgObject': {}, 'id': 'sushi w_condiments', 'src': '/static/foodstim60/sushi w_condiments.jpg', 'key': 'i', 'origWidth': 410, 'origHeight': 410, 'width': 410, 'height': 410, 'widthPercent': 0.45, 'rescaleHeight': False, 'trialN': 65, 'loaded': True, 'loadedTime': 8740.300000190735, 'positionName': 'RIGHT', 'positionCoords': [798.72, 227], 'bid': 9.84}]",104502.60000014305,1669845952026,cocktailshrimp,sushi w_condiments,9.8,9.84,0.03999999999999915,sushi w_condiments,1439.5999999046326,1440,1440.0,True,i,106448.0,1945.3999998569489,1669845953971,1945,HRV,HRV_0311,2022-11-30 22:19:15
66,"[{'imgObject': {}, 'id': 'blackbeanswithrice', 'src': '/static/foodstim60/blackbeanswithrice.jpg', 'key': 'u', 'origWidth': 410, 'origHeight': 410, 'width': 410, 'height': 410, 'widthPercent': 0.45, 'rescaleHeight': False, 'trialN': 66, 'loaded': True, 'loadedTime': 8672.900000095367, 'positionName': 'LEFT', 'positionCoords': [327.28, 227], 'bid': 6.6000000000000005}, {'imgObject': {}, 'id': 'turkey sandwich', 'src': '/static/foodstim60/turkey sandwich.jpg', 'key': 'i', 'origWidth': 409, 'origHeight': 409, 'width': 409, 'height': 409, 'widthPercent': 0.45, 'rescaleHeight': False, 'trialN': 66, 'loaded': True, 'loadedTime': 9114.400000095367, 'positionName': 'RIGHT', 'positionCoords': [798.72, 227.5], 'bid': 6.87}]",106448.10000014305,1669845953972,blackbeanswithrice,turkey sandwich,6.6000000000000005,6.87,0.2699999999999996,blackbeanswithrice,711.8999998569489,712,712.2000000476837,True,u,107677.10000014305,1229.0,1669845955200,1228,HRV,HRV_0311,2022-11-30 22:19:15
67,"[{'imgObject': {}, 'id': 'seaweed', 'src': '/static/foodstim60/seaweed.jpg', 'key': 'u', 'origWidth': 410, 'origHeight': 410, 'width': 410, 'height': 410, 'widthPercent': 0.45, 'rescaleHeight': False, 'trialN': 67, 'loaded': True, 'loadedTime': 9131.800000190735, 'positionName': 'LEFT', 'positionCoords': [327.28, 227], 'bid': 4.57}, {'imgObject': {}, 'id': 'turkeysandwich', 'src': '/static/foodstim60/turkeysandwich.jpg', 'key': 'i', 'origWidth': 409, 'origHeight': 409, 'width': 409, 'height': 409, 'widthPercent': 0.45, 'rescaleHeight': False, 'trialN': 67, 'loaded': True, 'loadedTime': 8599.800000190735, 'positionName': 'RIGHT', 'positionCoords': [798.72, 227.5], 'bid': 6.15}]",107677.40000009537,1669845955201,seaweed,turkeysandwich,4.57,6.15,1.58,turkeysandwich,910.0999999046326,910,910.4000000953674,True,i,109105.80000019073,1428.4000000953674,1669845956629,1428,HRV,HRV_0311,2022-11-30 22:19:15
68,"[{'imgObject': {}, 'id': 'rigatoni', 'src': '/static/foodstim60/rigatoni.jpg', 'key': 'u', 'origWidth': 411, 'origHeight': 411, 'width': 411, 'height': 411, 'widthPercent': 0.45, 'rescaleHeight': False, 'trialN': 68, 'loaded': True, 'loadedTime': 9135.300000190735, 'positionName': 'LEFT', 'positionCoords': [326.28, 226.5], 'bid': 2.22}, {'imgObject': {}, 'id': 'pear', 'src': '/static/foodstim60/pear.jpg', 'key': 'i', 'origWidth': 411, 'origHeight': 410, 'width': 411, 'height': 410, 'widthPercent': 0.45, 'rescaleHeight': False, 'trialN': 68, 'loaded': True, 'loadedTime': 9089.900000095367, 'positionName': 'RIGHT', 'positionCoords': [798.72, 227], 'bid': 2.17}]",109106.20000004768,1669845956630,rigatoni,pear,2.22,2.17,-0.050000000000000266,pear,1175.2000000476837,1175,1175.6000001430511,True,i,110796.70000004768,1690.5,1669845958320,1690,HRV,HRV_0311,2022-11-30 22:19:15
69,"[{'imgObject': {}, 'id': 'roastedpotatoes', 'src': '/static/foodstim60/roastedpotatoes.jpg', 'key': 'u', 'origWidth': 409, 'origHeight': 410, 'width': 409, 'height': 410, 'widthPercent': 0.45, 'rescaleHeight': False, 'trialN': 69, 'loaded': True, 'loadedTime': 8922.600000143051, 'positionName': 'LEFT', 'positionCoords': [328.28, 227], 'bid': 7.23}, {'imgObject': {}, 'id': 'raspberries', 'src': '/static/foodstim60/raspberries.jpg', 'key': 'i', 'origWidth': 411, 'origHeight': 411, 'width': 411, 'height': 411, 'widthPercent': 0.45, 'rescaleHeight': False, 'trialN': 69, 'loaded': True, 'loadedTime': 8669.600000143051, 'positionName': 'RIGHT', 'positionCoords': [798.72, 226.5], 'bid': 7.09}]",110797.20000004768,1669845958321,roastedpotatoes,raspberries,7.23,7.09,-0.14000000000000057,roastedpotatoes,848.2999999523163,848,848.7000000476837,True,u,112157.10000014305,1359.9000000953674,1669845959680,1359,HRV,HRV_0311,2022-11-30 22:19:15
70,"[{'imgObject': {}, 'id': 'rigatoni', 'src': '/static/foodstim60/rigatoni.jpg', 'key': 'u', 'origWidth': 411, 'origHeight': 411, 'width': 411, 'height': 411, 'widthPercent': 0.45, 'rescaleHeight': False, 'trialN': 70, 'loaded': True, 'loadedTime': 9135.5, 'positionName': 'LEFT', 'positionCoords': [326.28, 226.5], 'bid': 2.22}, {'imgObject': {}, 'id': 'omelette', 'src': '/static/foodstim60/omelette.jpg', 'key': 'i', 'origWidth': 410, 'origHeight': 409, 'width': 410, 'height': 409, 'widthPercent': 0.45, 'rescaleHeight': False, 'trialN': 70, 'loaded': True, 'loadedTime': 8762.600000143051, 'positionName': 'RIGHT', 'positionCoords': [798.72, 227.5], 'bid': 4.98}]",112157.40000009537,1669845959681,rigatoni,omelette,2.22,4.98,2.7600000000000002,omelette,1369.9000000953674,1370,1370.2000000476837,True,i,114030.80000019073,1873.4000000953674,1669845961554,1873,HRV,HRV_0311,2022-11-30 22:19:15
71,"[{'imgObject': {}, 'id': 'hashbrowns', 'src': '/static/foodstim60/hashbrowns.jpg', 'key': 'u', 'origWidth': 411, 'origHeight': 410, 'width': 411, 'height': 410, 'widthPercent': 0.45, 'rescaleHeight': False, 'trialN': 71, 'loaded': True, 'loadedTime': 9135.600000143051, 'positionName': 'LEFT', 'positionCoords': [326.28, 227], 'bid': 2.6}, {'imgObject': {}, 'id': 'olives', 'src': '/static/foodstim60/olives.jpg', 'key': 'i', 'origWidth': 410, 'origHeight': 410, 'width': 410, 'height': 410, 'widthPercent': 0.45, 'rescaleHeight': False, 'trialN': 71, 'loaded': True, 'loadedTime': 8737.800000190735, 'positionName': 'RIGHT', 'positionCoords': [798.72, 227], 'bid': 5.88}]",114031.10000014305,1669845961554,hashbrowns,olives,2.6,5.88,3.28,olives,970.7000000476837,972,971.0999999046326,True,i,115516.60000014305,1485.5,1669845963040,1486,HRV,HRV_0311,2022-11-30 22:19:15
72,"[{'imgObject': {}, 'id': 'bagel and cc', 'src': '/static/foodstim60/bagel and cc.jpg', 'key': 'u', 'origWidth': 410, 'origHeight': 410, 'width': 410, 'height': 410, 'widthPercent': 0.45, 'rescaleHeight': False, 'trialN': 72, 'loaded': True, 'loadedTime': 9046.300000190735, 'positionName': 'LEFT', 'positionCoords': [327.28, 227], 'bid': 2.52}, {'imgObject': {}, 'id': 'banana', 'src': '/static/foodstim60/banana.jpg', 'key': 'i', 'origWidth': 410, 'origHeight': 410, 'width': 410, 'height': 410, 'widthPercent': 0.45, 'rescaleHeight': False, 'trialN': 72, 'loaded': True, 'loadedTime': 8880.600000143051, 'positionName': 'RIGHT', 'positionCoords': [798.72, 227], 'bid': 2.48}]",115516.90000009537,1669845963040,bagel and cc,banana,2.52,2.48,-0.040000000000000036,bagel and cc,753.4000000953674,754,753.7000000476837,True,u,116774.40000009537,1257.5,1669845964298,1258,HRV,HRV_0311,2022-11-30 22:19:15
73,"[{'imgObject': {}, 'id': 'raisin bran w milk', 'src': '/static/foodstim60/raisin bran w milk.jpg', 'key': 'u', 'origWidth': 411, 'origHeight': 411, 'width': 411, 'height': 411, 'widthPercent': 0.45, 'rescaleHeight': False, 'trialN': 73, 'loaded': True, 'loadedTime': 8714.100000143051, 'positionName': 'LEFT', 'positionCoords': [326.28, 226.5], 'bid': 0.49}, {'imgObject': {}, 'id': 'popsicles', 'src': '/static/foodstim60/popsicles.jpg', 'key': 'i', 'origWidth': 410, 'origHeight': 410, 'width': 410, 'height': 410, 'widthPercent': 0.45, 'rescaleHeight': False, 'trialN': 73, 'loaded': True, 'loadedTime': 8835.5, 'positionName': 'RIGHT', 'positionCoords': [798.72, 227], 'bid': 3.13}]",116774.70000004768,1669845964298,raisin bran w milk,popsicles,0.49,3.13,2.6399999999999997,raisin bran w milk,627.2999999523163,628,627.6000001430511,True,u,117908.20000004768,1133.5,1669845965432,1134,HRV,HRV_0311,2022-11-30 22:19:15
74,"[{'imgObject': {}, 'id': 'salad w chicken', 'src': '/static/foodstim60/salad w chicken.jpg', 'key': 'u', 'origWidth': 411, 'origHeight': 411, 'width': 411, 'height': 411, 'widthPercent': 0.45, 'rescaleHeight': False, 'trialN': 74, 'loaded': True, 'loadedTime': 8867.800000190735, 'positionName': 'LEFT', 'positionCoords': [326.28, 226.5], 'bid': 5.37}, {'imgObject': {}, 'id': 'Tribe humus pita', 'src': '/static/foodstim60/Tribe humus pita.jpg', 'key': 'i', 'origWidth': 411, 'origHeight': 411, 'width': 411, 'height': 411, 'widthPercent': 0.45, 'rescaleHeight': False, 'trialN': 74, 'loaded': True, 'loadedTime': 8903.900000095367, 'positionName': 'RIGHT', 'positionCoords': [798.72, 226.5], 'bid': 9.81}]",117908.5,1669845965432,salad w chicken,Tribe humus pita,5.37,9.81,4.44,Tribe humus pita,1071.6000001430511,1071,1071.7000000476837,True,i,119493.0,1584.5,1669845967016,1584,HRV,HRV_0311,2022-11-30 22:19:15
75,"[{'imgObject': {}, 'id': 'popsicles', 'src': '/static/foodstim60/popsicles.jpg', 'key': 'u', 'origWidth': 410, 'origHeight': 410, 'width': 410, 'height': 410, 'widthPercent': 0.45, 'rescaleHeight': False, 'trialN': 75, 'loaded': True, 'loadedTime': 8834.700000047684, 'positionName': 'LEFT', 'positionCoords': [327.28, 227], 'bid': 3.13}, {'imgObject': {}, 'id': 'baked potato', 'src': '/static/foodstim60/baked potato.jpg', 'key': 'i', 'origWidth': 409, 'origHeight': 410, 'width': 409, 'height': 410, 'widthPercent': 0.45, 'rescaleHeight': False, 'trialN': 75, 'loaded': True, 'loadedTime': 9110.600000143051, 'positionName': 'RIGHT', 'positionCoords': [798.72, 227], 'bid': 3.56}]",119493.40000009537,1669845967016,popsicles,baked potato,3.13,3.56,0.43000000000000016,baked potato,851.7000000476837,852,852.0,True,i,120864.5,1371.0999999046326,1669845968388,1372,HRV,HRV_0311,2022-11-30 22:19:15
76,"[{'imgObject': {}, 'id': 'blueberries', 'src': '/static/foodstim60/blueberries.jpg', 'key': 'u', 'origWidth': 411, 'origHeight': 411, 'width': 411, 'height': 411, 'widthPercent': 0.45, 'rescaleHeight': False, 'trialN': 76, 'loaded': True, 'loadedTime': 8952.800000190735, 'positionName': 'LEFT', 'positionCoords': [326.28, 226.5], 'bid': 8.48}, {'imgObject': {}, 'id': 'corn cob', 'src': '/static/foodstim60/corn cob.jpg', 'key': 'i', 'origWidth': 411, 'origHeight': 411, 'width': 411, 'height': 411, 'widthPercent': 0.45, 'rescaleHeight': False, 'trialN': 76, 'loaded': True, 'loadedTime': 9005.300000190735, 'positionName': 'RIGHT', 'positionCoords': [798.72, 226.5], 'bid': 8.15}]",120864.90000009537,1669845968388,blueberries,corn cob,8.48,8.15,-0.33000000000000007,blueberries,638.0,638,638.2999999523163,True,u,122008.5,1143.5999999046326,1669845969531,1143,HRV,HRV_0311,2022-11-30 22:19:15
77,"[{'imgObject': {}, 'id': 'sweetpotato', 'src': '/static/foodstim60/sweetpotato.jpg', 'key': 'u', 'origWidth': 410, 'origHeight': 410, 'width': 410, 'height': 410, 'widthPercent': 0.45, 'rescaleHeight': False, 'trialN': 77, 'loaded': True, 'loadedTime': 9119.300000190735, 'positionName': 'LEFT', 'positionCoords': [327.28, 227], 'bid': 6.22}, {'imgObject': {}, 'id': 'omelette', 'src': '/static/foodstim60/omelette.jpg', 'key': 'i', 'origWidth': 410, 'origHeight': 409, 'width': 410, 'height': 409, 'widthPercent': 0.45, 'rescaleHeight': False, 'trialN': 77, 'loaded': True, 'loadedTime': 8772.5, 'positionName': 'RIGHT', 'positionCoords': [798.72, 227.5], 'bid': 4.98}]",122008.70000004768,1669845969532,sweetpotato,omelette,6.22,4.98,-1.2399999999999993,sweetpotato,1081.7000000476837,1082,1082.0,True,u,123607.90000009537,1599.2000000476837,1669845971131,1599,HRV,HRV_0311,2022-11-30 22:19:15
78,"[{'imgObject': {}, 'id': 'avocado', 'src': '/static/foodstim60/avocado.jpg', 'key': 'u', 'origWidth': 409, 'origHeight': 409, 'width': 409, 'height': 409, 'widthPercent': 0.45, 'rescaleHeight': False, 'trialN': 78, 'loaded': True, 'loadedTime': 9017.700000047684, 'positionName': 'LEFT', 'positionCoords': [328.28, 227.5], 'bid': 9.68}, {'imgObject': {}, 'id': 'cantaloupe', 'src': '/static/foodstim60/cantaloupe.jpg', 'key': 'i', 'origWidth': 409, 'origHeight': 409, 'width': 409, 'height': 409, 'widthPercent': 0.45, 'rescaleHeight': False, 'trialN': 78, 'loaded': True, 'loadedTime': 8953.800000190735, 'positionName': 'RIGHT', 'positionCoords': [798.72, 227.5], 'bid': 7.04}]",123608.10000014305,1669845971131,avocado,cantaloupe,9.68,7.04,-2.6399999999999997,avocado,803.3999998569489,804,803.5999999046326,True,u,124928.30000019073,1320.2000000476837,1669845972451,1320,HRV,HRV_0311,2022-11-30 22:19:15
79,"[{'imgObject': {}, 'id': 'bagel plain', 'src': '/static/foodstim60/bagel plain.jpg', 'key': 'u', 'origWidth': 410, 'origHeight': 410, 'width': 410, 'height': 410, 'widthPercent': 0.45, 'rescaleHeight': False, 'trialN': 79, 'loaded': True, 'loadedTime': 9130.100000143051, 'positionName': 'LEFT', 'positionCoords': [327.28, 227], 'bid': 0.6900000000000001}, {'imgObject': {}, 'id': 'baked potato', 'src': '/static/foodstim60/baked potato.jpg', 'key': 'i', 'origWidth': 409, 'origHeight': 410, 'width': 409, 'height': 410, 'widthPercent': 0.45, 'rescaleHeight': False, 'trialN': 79, 'loaded': True, 'loadedTime': 9112, 'positionName': 'RIGHT', 'positionCoords': [798.72, 227], 'bid': 3.56}]",124928.5,1669845972452,bagel plain,baked potato,0.6900000000000001,3.56,2.87,baked potato,924.9000000953674,925,925.2000000476837,True,i,126356.80000019073,1428.3000001907349,1669845973880,1428,HRV,HRV_0311,2022-11-30 22:19:15
80,"[{'imgObject': {}, 'id': 'olives', 'src': '/static/foodstim60/olives.jpg', 'key': 'u', 'origWidth': 410, 'origHeight': 410, 'width': 410, 'height': 410, 'widthPercent': 0.45, 'rescaleHeight': False, 'trialN': 80, 'loaded': True, 'loadedTime': 8726.400000095367, 'positionName': 'LEFT', 'positionCoords': [327.28, 227], 'bid': 5.88}, {'imgObject': {}, 'id': 'turkeysandwich', 'src': '/static/foodstim60/turkeysandwich.jpg', 'key': 'i', 'origWidth': 409, 'origHeight': 409, 'width': 409, 'height': 409, 'widthPercent': 0.45, 'rescaleHeight': False, 'trialN': 80, 'loaded': True, 'loadedTime': 8600.700000047684, 'positionName': 'RIGHT', 'positionCoords': [798.72, 227.5], 'bid': 6.15}]",126357.0,1669845973880,olives,turkeysandwich,5.88,6.15,0.27000000000000046,turkeysandwich,781.2000000476837,782,781.7000000476837,True,i,127645.70000004768,1288.7000000476837,1669845975169,1289,HRV,HRV_0311,2022-11-30 22:19:15
81,"[{'imgObject': {}, 'id': 'grilled chicken strips', 'src': '/static/foodstim60/grilled chicken strips.jpg', 'key': 'u', 'origWidth': 410, 'origHeight': 411, 'width': 410, 'height': 411, 'widthPercent': 0.45, 'rescaleHeight': False, 'trialN': 81, 'loaded': True, 'loadedTime': 8638, 'positionName': 'LEFT', 'positionCoords': [327.28, 226.5], 'bid': 4.47}, {'imgObject': {}, 'id': 'eggs', 'src': '/static/foodstim60/eggs.jpg', 'key': 'i', 'origWidth': 409, 'origHeight': 409, 'width': 409, 'height': 409, 'widthPercent': 0.45, 'rescaleHeight': False, 'trialN': 81, 'loaded': True, 'loadedTime': 9032.200000047684, 'positionName': 'RIGHT', 'positionCoords': [798.72, 227.5], 'bid': 1.97}]",127645.90000009537,1669845975169,grilled chicken strips,eggs,4.47,1.97,-2.5,grilled chicken strips,911.2000000476837,911,911.5,True,u,129070.60000014305,1424.7000000476837,1669845976594,1425,HRV,HRV_0311,2022-11-30 22:19:15
82,"[{'imgObject': {}, 'id': 'burger', 'src': '/static/foodstim60/burger.jpg', 'key': 'u', 'origWidth': 409, 'origHeight': 409, 'width': 409, 'height': 409, 'widthPercent': 0.45, 'rescaleHeight': False, 'trialN': 82, 'loaded': True, 'loadedTime': 8803.5, 'positionName': 'LEFT', 'positionCoords': [328.28, 227.5], 'bid': 2.66}, {'imgObject': {}, 'id': 'bagel and cc', 'src': '/static/foodstim60/bagel and cc.jpg', 'key': 'i', 'origWidth': 410, 'origHeight': 410, 'width': 410, 'height': 410, 'widthPercent': 0.45, 'rescaleHeight': False, 'trialN': 82, 'loaded': True, 'loadedTime': 9046, 'positionName': 'RIGHT', 'positionCoords': [798.72, 227], 'bid': 2.52}]",129070.80000019073,1669845976594,burger,bagel and cc,2.66,2.52,-0.14000000000000012,burger,874.2999999523163,874,874.5999999046326,True,u,130453.90000009537,1383.0999999046326,1669845977977,1383,HRV,HRV_0311,2022-11-30 22:19:15
83,"[{'imgObject': {}, 'id': 'tacos', 'src': '/static/foodstim60/tacos.jpg', 'key': 'u', 'origWidth': 411, 'origHeight': 411, 'width': 411, 'height': 411, 'widthPercent': 0.45, 'rescaleHeight': False, 'trialN': 83, 'loaded': True, 'loadedTime': 9102.100000143051, 'positionName': 'LEFT', 'positionCoords': [326.28, 226.5], 'bid': 6.3500000000000005}, {'imgObject': {}, 'id': 'bagel plain', 'src': '/static/foodstim60/bagel plain.jpg', 'key': 'i', 'origWidth': 410, 'origHeight': 410, 'width': 410, 'height': 410, 'widthPercent': 0.45, 'rescaleHeight': False, 'trialN': 83, 'loaded': True, 'loadedTime': 9131.400000095367, 'positionName': 'RIGHT', 'positionCoords': [798.72, 227], 'bid': 0.6900000000000001}]",130454.20000004768,1669845977977,tacos,bagel plain,6.3500000000000005,0.6900000000000001,-5.66,tacos,1079.7000000476837,1080,1080.1000001430511,True,u,132045.0,1590.7999999523163,1669845979568,1591,HRV,HRV_0311,2022-11-30 22:19:15
84,"[{'imgObject': {}, 'id': 'edamame', 'src': '/static/foodstim60/edamame.jpg', 'key': 'u', 'origWidth': 409, 'origHeight': 410, 'width': 409, 'height': 410, 'widthPercent': 0.45, 'rescaleHeight': False, 'trialN': 84, 'loaded': True, 'loadedTime': 8939.400000095367, 'positionName': 'LEFT', 'positionCoords': [328.28, 227], 'bid': 6.65}, {'imgObject': {}, 'id': 'chicken nuggets2', 'src': '/static/foodstim60/chicken nuggets2.jpg', 'key': 'i', 'origWidth': 410, 'origHeight': 409, 'width': 410, 'height': 409, 'widthPercent': 0.45, 'rescaleHeight': False, 'trialN': 84, 'loaded': True, 'loadedTime': 8551.600000143051, 'positionName': 'RIGHT', 'positionCoords': [798.72, 227.5], 'bid': 1.38}]",132045.30000019073,1669845979568,edamame,chicken nuggets2,6.65,1.38,-5.2700000000000005,edamame,986.0999999046326,987,986.3999998569489,True,u,133542.60000014305,1497.2999999523163,1669845981066,1498,HRV,HRV_0311,2022-11-30 22:19:15
85,"[{'imgObject': {}, 'id': 'corn cob', 'src': '/static/foodstim60/corn cob.jpg', 'key': 'u', 'origWidth': 411, 'origHeight': 411, 'width': 411, 'height': 411, 'widthPercent': 0.45, 'rescaleHeight': False, 'trialN': 85, 'loaded': True, 'loadedTime': 9005.400000095367, 'positionName': 'LEFT', 'positionCoords': [326.28, 226.5], 'bid': 8.15}, {'imgObject': {}, 'id': 'tacos', 'src': '/static/foodstim60/tacos.jpg', 'key': 'i', 'origWidth': 411, 'origHeight': 411, 'width': 411, 'height': 411, 'widthPercent': 0.45, 'rescaleHeight': False, 'trialN': 85, 'loaded': True, 'loadedTime': 9101.700000047684, 'positionName': 'RIGHT', 'positionCoords': [798.72, 226.5], 'bid': 6.3500000000000005}]",133542.90000009537,1669845981066,corn cob,tacos,8.15,6.3500000000000005,-1.7999999999999998,tacos,922.2000000476837,922,922.5,True,i,134982.40000009537,1439.5,1669845982505,1439,HRV,HRV_0311,2022-11-30 22:19:15
86,"[{'imgObject': {}, 'id': 'burrito', 'src': '/static/foodstim60/burrito.jpg', 'key': 'u', 'origWidth': 410, 'origHeight': 410, 'width': 410, 'height': 410, 'widthPercent': 0.45, 'rescaleHeight': False, 'trialN': 86, 'loaded': True, 'loadedTime': 8966.400000095367, 'positionName': 'LEFT', 'positionCoords': [327.28, 227], 'bid': 9.02}, {'imgObject': {}, 'id': 'strawberries', 'src': '/static/foodstim60/strawberries.jpg', 'key': 'i', 'origWidth': 410, 'origHeight': 410, 'width': 410, 'height': 410, 'widthPercent': 0.45, 'rescaleHeight': False, 'trialN': 86, 'loaded': True, 'loadedTime': 9002.200000047684, 'positionName': 'RIGHT', 'positionCoords': [798.72, 227], 'bid': 8.950000000000001}]",134982.70000004768,1669845982506,burrito,strawberries,9.02,8.950000000000001,-0.06999999999999851,burrito,792.6000001430511,793,793.0,True,u,136285.80000019073,1303.1000001430511,1669845983809,1303,HRV,HRV_0311,2022-11-30 22:19:15
87,"[{'imgObject': {}, 'id': 'omelette', 'src': '/static/foodstim60/omelette.jpg', 'key': 'u', 'origWidth': 410, 'origHeight': 409, 'width': 410, 'height': 409, 'widthPercent': 0.45, 'rescaleHeight': False, 'trialN': 87, 'loaded': True, 'loadedTime': 8771.900000095367, 'positionName': 'LEFT', 'positionCoords': [327.28, 227.5], 'bid': 4.98}, {'imgObject': {}, 'id': 'steak', 'src': '/static/foodstim60/steak.jpg', 'key': 'i', 'origWidth': 410, 'origHeight': 410, 'width': 410, 'height': 410, 'widthPercent': 0.45, 'rescaleHeight': False, 'trialN': 87, 'loaded': True, 'loadedTime': 8926.200000047684, 'positionName': 'RIGHT', 'positionCoords': [798.72, 227], 'bid': 5.29}]",136286.10000014305,1669845983809,omelette,steak,4.98,5.29,0.3099999999999996,steak,812.5,813,812.7999999523163,True,i,137604.80000019073,1318.7000000476837,1669845985128,1319,HRV,HRV_0311,2022-11-30 22:19:15
88,"[{'imgObject': {}, 'id': 'seaweed', 'src': '/static/foodstim60/seaweed.jpg', 'key': 'u', 'origWidth': 410, 'origHeight': 410, 'width': 410, 'height': 410, 'widthPercent': 0.45, 'rescaleHeight': False, 'trialN': 88, 'loaded': True, 'loadedTime': 9133.200000047684, 'positionName': 'LEFT', 'positionCoords': [327.28, 227], 'bid': 4.57}, {'imgObject': {}, 'id': 'veggieswithdip', 'src': '/static/foodstim60/veggieswithdip.jpg', 'key': 'i', 'origWidth': 409, 'origHeight': 409, 'width': 409, 'height': 409, 'widthPercent': 0.45, 'rescaleHeight': False, 'trialN': 88, 'loaded': True, 'loadedTime': 9071.700000047684, 'positionName': 'RIGHT', 'positionCoords': [798.72, 227.5], 'bid': 9.5}]",137605.0,1669845985128,seaweed,veggieswithdip,4.57,9.5,4.93,veggieswithdip,968.4000000953674,969,968.8000001907349,True,i,139077.90000009537,1472.9000000953674,1669845986601,1473,HRV,HRV_0311,2022-11-30 22:19:15
89,"[{'imgObject': {}, 'id': 'Tribe humus pita', 'src': '/static/foodstim60/Tribe humus pita.jpg', 'key': 'u', 'origWidth': 411, 'origHeight': 411, 'width': 411, 'height': 411, 'widthPercent': 0.45, 'rescaleHeight': False, 'trialN': 89, 'loaded': True, 'loadedTime': 8904, 'positionName': 'LEFT', 'positionCoords': [326.28, 226.5], 'bid': 9.81}, {'imgObject': {}, 'id': 'sushi w_condiments', 'src': '/static/foodstim60/sushi w_condiments.jpg', 'key': 'i', 'origWidth': 410, 'origHeight': 410, 'width': 410, 'height': 410, 'widthPercent': 0.45, 'rescaleHeight': False, 'trialN': 89, 'loaded': True, 'loadedTime': 8741.300000190735, 'positionName': 'RIGHT', 'positionCoords': [798.72, 227], 'bid': 9.84}]",139078.20000004768,1669845986601,Tribe humus pita,sushi w_condiments,9.81,9.84,0.02999999999999936,Tribe humus pita,1041.7000000476837,1042,1041.9000000953674,True,u,140636.30000019073,1558.1000001430511,1669845988159,1558,HRV,HRV_0311,2022-11-30 22:19:15
90,"[{'imgObject': {}, 'id': 'sushi w_condiments', 'src': '/static/foodstim60/sushi w_condiments.jpg', 'key': 'u', 'origWidth': 410, 'origHeight': 410, 'width': 410, 'height': 410, 'widthPercent': 0.45, 'rescaleHeight': False, 'trialN': 90, 'loaded': True, 'loadedTime': 8760.200000047684, 'positionName': 'LEFT', 'positionCoords': [327.28, 227], 'bid': 9.84}, {'imgObject': {}, 'id': 'mashed potato', 'src': '/static/foodstim60/mashed potato.jpg', 'key': 'i', 'origWidth': 409, 'origHeight': 409, 'width': 409, 'height': 409, 'widthPercent': 0.45, 'rescaleHeight': False, 'trialN': 90, 'loaded': True, 'loadedTime': 8978.100000143051, 'positionName': 'RIGHT', 'positionCoords': [798.72, 227.5], 'bid': 7.6}]",779472.0,1669846626994,sushi w_condiments,mashed potato,9.84,7.6,-2.24,sushi w_condiments,2127.300000190735,2128,2127.800000190735,True,u,782117.2000000477,2645.2000000476837,1669846629640,2646,HRV,HRV_0311,2022-11-30 22:19:15
91,"[{'imgObject': {}, 'id': 'mashed potato', 'src': '/static/foodstim60/mashed potato.jpg', 'key': 'u', 'origWidth': 409, 'origHeight': 409, 'width': 409, 'height': 409, 'widthPercent': 0.45, 'rescaleHeight': False, 'trialN': 91, 'loaded': True, 'loadedTime': 8978.5, 'positionName': 'LEFT', 'positionCoords': [328.28, 227.5], 'bid': 7.6}, {'imgObject': {}, 'id': 'apple slices', 'src': '/static/foodstim60/apple slices.jpg', 'key': 'i', 'origWidth': 409, 'origHeight': 410, 'width': 409, 'height': 410, 'widthPercent': 0.45, 'rescaleHeight': False, 'trialN': 91, 'loaded': True, 'loadedTime': 8692.5, 'positionName': 'RIGHT', 'positionCoords': [798.72, 227], 'bid': 7.99}]",782117.4000000954,1669846629640,mashed potato,apple slices,7.6,7.99,0.39000000000000057,mashed potato,1057.5,1058,1058.0,True,u,783685.100000143,1567.7000000476837,1669846631208,1568,HRV,HRV_0311,2022-11-30 22:19:15
92,"[{'imgObject': {}, 'id': 'mac & cheese', 'src': '/static/foodstim60/mac & cheese.jpg', 'key': 'u', 'origWidth': 410, 'origHeight': 410, 'width': 410, 'height': 410, 'widthPercent': 0.45, 'rescaleHeight': False, 'trialN': 92, 'loaded': True, 'loadedTime': 9084.5, 'positionName': 'LEFT', 'positionCoords': [327.28, 227], 'bid': 4.47}, {'imgObject': {}, 'id': 'eggsalad', 'src': '/static/foodstim60/eggsalad.jpg', 'key': 'i', 'origWidth': 410, 'origHeight': 409, 'width': 410, 'height': 409, 'widthPercent': 0.45, 'rescaleHeight': False, 'trialN': 92, 'loaded': True, 'loadedTime': 9082.900000095367, 'positionName': 'RIGHT', 'positionCoords': [798.72, 227.5], 'bid': 2}]",783685.2000000477,1669846631208,mac & cheese,eggsalad,4.47,2.0,-2.4699999999999998,mac & cheese,1216.7000000476837,1217,1217.0,True,u,785412.5,1727.2999999523163,1669846632935,1727,HRV,HRV_0311,2022-11-30 22:19:15
93,"[{'imgObject': {}, 'id': 'mac & cheese', 'src': '/static/foodstim60/mac & cheese.jpg', 'key': 'u', 'origWidth': 410, 'origHeight': 410, 'width': 410, 'height': 410, 'widthPercent': 0.45, 'rescaleHeight': False, 'trialN': 93, 'loaded': True, 'loadedTime': 9083.200000047684, 'positionName': 'LEFT', 'positionCoords': [327.28, 227], 'bid': 4.47}, {'imgObject': {}, 'id': 'Grapes', 'src': '/static/foodstim60/Grapes.jpg', 'key': 'i', 'origWidth': 411, 'origHeight': 411, 'width': 411, 'height': 411, 'widthPercent': 0.45, 'rescaleHeight': False, 'trialN': 93, 'loaded': True, 'loadedTime': 9060.5, 'positionName': 'RIGHT', 'positionCoords': [798.72, 226.5], 'bid': 9.41}]",785412.7000000477,1669846632935,mac & cheese,Grapes,4.47,9.41,4.94,Grapes,788.6000001430511,789,789.0,True,i,786710.100000143,1297.4000000953674,1669846634233,1298,HRV,HRV_0311,2022-11-30 22:19:15
94,"[{'imgObject': {}, 'id': 'chickenfingers', 'src': '/static/foodstim60/chickenfingers.jpg', 'key': 'u', 'origWidth': 410, 'origHeight': 410, 'width': 410, 'height': 410, 'widthPercent': 0.45, 'rescaleHeight': False, 'trialN': 94, 'loaded': True, 'loadedTime': 9100, 'positionName': 'LEFT', 'positionCoords': [327.28, 227], 'bid': 6.54}, {'imgObject': {}, 'id': 'shreddedwheatwithmilk', 'src': '/static/foodstim60/shreddedwheatwithmilk.jpg', 'key': 'i', 'origWidth': 410, 'origHeight': 410, 'width': 410, 'height': 410, 'widthPercent': 0.45, 'rescaleHeight': False, 'trialN': 94, 'loaded': True, 'loadedTime': 8819.900000095367, 'positionName': 'RIGHT', 'positionCoords': [798.72, 227], 'bid': 0.79}]",786710.3000001907,1669846634233,chickenfingers,shreddedwheatwithmilk,6.54,0.79,-5.75,chickenfingers,977.2999999523163,977,977.6999998092651,True,u,788205.0,1494.6999998092651,1669846635727,1494,HRV,HRV_0311,2022-11-30 22:19:15
95,"[{'imgObject': {}, 'id': 'yogurt no spoon', 'src': '/static/foodstim60/yogurt no spoon.jpg', 'key': 'u', 'origWidth': 411, 'origHeight': 410, 'width': 411, 'height': 410, 'widthPercent': 0.45, 'rescaleHeight': False, 'trialN': 95, 'loaded': True, 'loadedTime': 9138.600000143051, 'positionName': 'LEFT', 'positionCoords': [326.28, 227], 'bid': 9.37}, {'imgObject': {}, 'id': 'roastedpotatoes', 'src': '/static/foodstim60/roastedpotatoes.jpg', 'key': 'i', 'origWidth': 409, 'origHeight': 410, 'width': 409, 'height': 410, 'widthPercent': 0.45, 'rescaleHeight': False, 'trialN': 95, 'loaded': True, 'loadedTime': 8912.300000190735, 'positionName': 'RIGHT', 'positionCoords': [798.72, 227], 'bid': 7.23}]",788205.3000001907,1669846635728,yogurt no spoon,roastedpotatoes,9.37,7.23,-2.139999999999999,yogurt no spoon,872.1999998092651,872,872.5,True,u,789591.4000000954,1386.0999999046326,1669846637114,1386,HRV,HRV_0311,2022-11-30 22:19:15
96,"[{'imgObject': {}, 'id': 'chickenfingers', 'src': '/static/foodstim60/chickenfingers.jpg', 'key': 'u', 'origWidth': 410, 'origHeight': 410, 'width': 410, 'height': 410, 'widthPercent': 0.45, 'rescaleHeight': False, 'trialN': 96, 'loaded': True, 'loadedTime': 9099.300000190735, 'positionName': 'LEFT', 'positionCoords': [327.28, 227], 'bid': 6.54}, {'imgObject': {}, 'id': 'seaweed', 'src': '/static/foodstim60/seaweed.jpg', 'key': 'i', 'origWidth': 410, 'origHeight': 410, 'width': 410, 'height': 410, 'widthPercent': 0.45, 'rescaleHeight': False, 'trialN': 96, 'loaded': True, 'loadedTime': 9133.400000095367, 'positionName': 'RIGHT', 'positionCoords': [798.72, 227], 'bid': 4.57}]",789591.600000143,1669846637114,chickenfingers,seaweed,6.54,4.57,-1.9699999999999998,chickenfingers,938.2999999523163,939,938.7000000476837,True,u,791046.7000000477,1455.0999999046326,1669846638569,1455,HRV,HRV_0311,2022-11-30 22:19:15
97,"[{'imgObject': {}, 'id': 'Tribe humus pita', 'src': '/static/foodstim60/Tribe humus pita.jpg', 'key': 'u', 'origWidth': 411, 'origHeight': 411, 'width': 411, 'height': 411, 'widthPercent': 0.45, 'rescaleHeight': False, 'trialN': 97, 'loaded': True, 'loadedTime': 8912.100000143051, 'positionName': 'LEFT', 'positionCoords': [326.28, 226.5], 'bid': 9.81}, {'imgObject': {}, 'id': 'avocado', 'src': '/static/foodstim60/avocado.jpg', 'key': 'i', 'origWidth': 409, 'origHeight': 409, 'width': 409, 'height': 409, 'widthPercent': 0.45, 'rescaleHeight': False, 'trialN': 97, 'loaded': True, 'loadedTime': 9018, 'positionName': 'RIGHT', 'positionCoords': [798.72, 227.5], 'bid': 9.68}]",791046.9000000954,1669846638569,Tribe humus pita,avocado,9.81,9.68,-0.13000000000000078,avocado,734.2999999523163,735,734.7000000476837,True,i,792288.2000000477,1241.2999999523163,1669846639811,1242,HRV,HRV_0311,2022-11-30 22:19:15
98,"[{'imgObject': {}, 'id': 'hotdog w must', 'src': '/static/foodstim60/hotdog w must.jpg', 'key': 'u', 'origWidth': 409, 'origHeight': 409, 'width': 409, 'height': 409, 'widthPercent': 0.45, 'rescaleHeight': False, 'trialN': 98, 'loaded': True, 'loadedTime': 9027.800000190735, 'positionName': 'LEFT', 'positionCoords': [328.28, 227.5], 'bid': 4.14}, {'imgObject': {}, 'id': 'burrito', 'src': '/static/foodstim60/burrito.jpg', 'key': 'i', 'origWidth': 410, 'origHeight': 410, 'width': 410, 'height': 410, 'widthPercent': 0.45, 'rescaleHeight': False, 'trialN': 98, 'loaded': True, 'loadedTime': 8965.700000047684, 'positionName': 'RIGHT', 'positionCoords': [798.72, 227], 'bid': 9.02}]",792288.600000143,1669846639811,hotdog w must,burrito,4.14,9.02,4.88,burrito,918.7000000476837,919,919.0,True,i,793711.8000001907,1423.2000000476837,1669846641234,1423,HRV,HRV_0311,2022-11-30 22:19:15
99,"[{'imgObject': {}, 'id': 'raspberries', 'src': '/static/foodstim60/raspberries.jpg', 'key': 'u', 'origWidth': 411, 'origHeight': 411, 'width': 411, 'height': 411, 'widthPercent': 0.45, 'rescaleHeight': False, 'trialN': 99, 'loaded': True, 'loadedTime': 8668.600000143051, 'positionName': 'LEFT', 'positionCoords': [326.28, 226.5], 'bid': 7.09}, {'imgObject': {}, 'id': 'fruitsalad', 'src': '/static/foodstim60/fruitsalad.jpg', 'key': 'i', 'origWidth': 410, 'origHeight': 410, 'width': 410, 'height': 410, 'widthPercent': 0.45, 'rescaleHeight': False, 'trialN': 99, 'loaded': True, 'loadedTime': 9016.100000143051, 'positionName': 'RIGHT', 'positionCoords': [798.72, 227], 'bid': 9.28}]",793712.100000143,1669846641235,raspberries,fruitsalad,7.09,9.28,2.1899999999999995,fruitsalad,781.3999998569489,781,781.7999999523163,True,i,794996.7000000477,1284.5999999046326,1669846642519,1284,HRV,HRV_0311,2022-11-30 22:19:15
100,"[{'imgObject': {}, 'id': 'granola w milk', 'src': '/static/foodstim60/granola w milk.jpg', 'key': 'u', 'origWidth': 410, 'origHeight': 410, 'width': 410, 'height': 410, 'widthPercent': 0.45, 'rescaleHeight': False, 'trialN': 100, 'loaded': True, 'loadedTime': 9043.700000047684, 'positionName': 'LEFT', 'positionCoords': [327.28, 227], 'bid': 0.55}, {'imgObject': {}, 'id': 'salmon', 'src': '/static/foodstim60/salmon.jpg', 'key': 'i', 'origWidth': 410, 'origHeight': 409, 'width': 410, 'height': 409, 'widthPercent': 0.45, 'rescaleHeight': False, 'trialN': 100, 'loaded': True, 'loadedTime': 9059, 'positionName': 'RIGHT', 'positionCoords': [798.72, 227.5], 'bid': 3.46}]",794996.9000000954,1669846642519,granola w milk,salmon,0.55,3.46,2.91,granola w milk,966.2999999523163,967,966.5999999046326,True,u,796471.4000000954,1474.5,1669846643994,1475,HRV,HRV_0311,2022-11-30 22:19:15
101,"[{'imgObject': {}, 'id': 'hashbrowns', 'src': '/static/foodstim60/hashbrowns.jpg', 'key': 'u', 'origWidth': 411, 'origHeight': 410, 'width': 411, 'height': 410, 'widthPercent': 0.45, 'rescaleHeight': False, 'trialN': 101, 'loaded': True, 'loadedTime': 9136.700000047684, 'positionName': 'LEFT', 'positionCoords': [326.28, 227], 'bid': 2.6}, {'imgObject': {}, 'id': 'fried eggs', 'src': '/static/foodstim60/fried eggs.jpg', 'key': 'i', 'origWidth': 410, 'origHeight': 410, 'width': 410, 'height': 410, 'widthPercent': 0.45, 'rescaleHeight': False, 'trialN': 101, 'loaded': True, 'loadedTime': 9122.400000095367, 'positionName': 'RIGHT', 'positionCoords': [798.72, 227], 'bid': 4.04}]",796471.600000143,1669846643994,hashbrowns,fried eggs,2.6,4.04,1.44,fried eggs,831.2999999523163,832,831.7999999523163,True,i,797806.8000001907,1335.2000000476837,1669846645329,1335,HRV,HRV_0311,2022-11-30 22:19:15
102,"[{'imgObject': {}, 'id': 'sweetpotato', 'src': '/static/foodstim60/sweetpotato.jpg', 'key': 'u', 'origWidth': 410, 'origHeight': 410, 'width': 410, 'height': 410, 'widthPercent': 0.45, 'rescaleHeight': False, 'trialN': 102, 'loaded': True, 'loadedTime': 9120.5, 'positionName': 'LEFT', 'positionCoords': [327.28, 227], 'bid': 6.22}, {'imgObject': {}, 'id': 'granola w milk', 'src': '/static/foodstim60/granola w milk.jpg', 'key': 'i', 'origWidth': 410, 'origHeight': 410, 'width': 410, 'height': 410, 'widthPercent': 0.45, 'rescaleHeight': False, 'trialN': 102, 'loaded': True, 'loadedTime': 9042.200000047684, 'positionName': 'RIGHT', 'positionCoords': [798.72, 227], 'bid': 0.55}]",797807.100000143,1669846645329,sweetpotato,granola w milk,6.22,0.55,-5.67,sweetpotato,790.5,791,790.7999999523163,True,u,799103.3000001907,1296.2000000476837,1669846646626,1297,HRV,HRV_0311,2022-11-30 22:19:15
103,"[{'imgObject': {}, 'id': 'orange slices', 'src': '/static/foodstim60/orange slices.jpg', 'key': 'u', 'origWidth': 409, 'origHeight': 410, 'width': 409, 'height': 410, 'widthPercent': 0.45, 'rescaleHeight': False, 'trialN': 103, 'loaded': True, 'loadedTime': 9116.100000143051, 'positionName': 'LEFT', 'positionCoords': [328.28, 227], 'bid': 5.98}, {'imgObject': {}, 'id': 'turkeysandwich', 'src': '/static/foodstim60/turkeysandwich.jpg', 'key': 'i', 'origWidth': 409, 'origHeight': 409, 'width': 409, 'height': 409, 'widthPercent': 0.45, 'rescaleHeight': False, 'trialN': 103, 'loaded': True, 'loadedTime': 8601.300000190735, 'positionName': 'RIGHT', 'positionCoords': [798.72, 227.5], 'bid': 6.15}]",799103.600000143,1669846646626,orange slices,turkeysandwich,5.98,6.15,0.16999999999999993,turkeysandwich,970.7000000476837,971,971.0,True,i,800591.600000143,1488.0,1669846648114,1488,HRV,HRV_0311,2022-11-30 22:19:15
104,"[{'imgObject': {}, 'id': 'cherries', 'src': '/static/foodstim60/cherries.jpg', 'key': 'u', 'origWidth': 410, 'origHeight': 411, 'width': 410, 'height': 411, 'widthPercent': 0.45, 'rescaleHeight': False, 'trialN': 104, 'loaded': True, 'loadedTime': 9046.400000095367, 'positionName': 'LEFT', 'positionCoords': [327.28, 226.5], 'bid': 8.07}, {'imgObject': {}, 'id': 'sweetpotato', 'src': '/static/foodstim60/sweetpotato.jpg', 'key': 'i', 'origWidth': 410, 'origHeight': 410, 'width': 410, 'height': 410, 'widthPercent': 0.45, 'rescaleHeight': False, 'trialN': 104, 'loaded': True, 'loadedTime': 9120.800000190735, 'positionName': 'RIGHT', 'positionCoords': [798.72, 227], 'bid': 6.22}]",800591.9000000954,1669846648114,cherries,sweetpotato,8.07,6.22,-1.8500000000000005,cherries,919.9000000953674,921,920.2999999523163,True,u,802024.7000000477,1432.7999999523163,1669846649547,1433,HRV,HRV_0311,2022-11-30 22:19:15
105,"[{'imgObject': {}, 'id': 'luckycharms', 'src': '/static/foodstim60/luckycharms.jpg', 'key': 'u', 'origWidth': 410, 'origHeight': 409, 'width': 410, 'height': 409, 'widthPercent': 0.45, 'rescaleHeight': False, 'trialN': 105, 'loaded': True, 'loadedTime': 8802.5, 'positionName': 'LEFT', 'positionCoords': [327.28, 227.5], 'bid': 0.75}, {'imgObject': {}, 'id': 'shreddedwheatwithmilk', 'src': '/static/foodstim60/shreddedwheatwithmilk.jpg', 'key': 'i', 'origWidth': 410, 'origHeight': 410, 'width': 410, 'height': 410, 'widthPercent': 0.45, 'rescaleHeight': False, 'trialN': 105, 'loaded': True, 'loadedTime': 8828.5, 'positionName': 'RIGHT', 'positionCoords': [798.72, 227], 'bid': 0.79}]",802025.0,1669846649547,luckycharms,shreddedwheatwithmilk,0.75,0.79,0.040000000000000036,luckycharms,989.3000001907349,990,989.6000001430511,True,u,803516.4000000954,1491.4000000953674,1669846651039,1492,HRV,HRV_0311,2022-11-30 22:19:15
106,"[{'imgObject': {}, 'id': 'luckycharms', 'src': '/static/foodstim60/luckycharms.jpg', 'key': 'u', 'origWidth': 410, 'origHeight': 409, 'width': 410, 'height': 409, 'widthPercent': 0.45, 'rescaleHeight': False, 'trialN': 106, 'loaded': True, 'loadedTime': 8786.100000143051, 'positionName': 'LEFT', 'positionCoords': [327.28, 227.5], 'bid': 0.75}, {'imgObject': {}, 'id': 'pear', 'src': '/static/foodstim60/pear.jpg', 'key': 'i', 'origWidth': 411, 'origHeight': 410, 'width': 411, 'height': 410, 'widthPercent': 0.45, 'rescaleHeight': False, 'trialN': 106, 'loaded': True, 'loadedTime': 9089.700000047684, 'positionName': 'RIGHT', 'positionCoords': [798.72, 227], 'bid': 2.17}]",803516.8000001907,1669846651039,luckycharms,pear,0.75,2.17,1.42,pear,716.0,717,716.2999999523163,True,i,804751.2000000477,1234.3999998569489,1669846652274,1235,HRV,HRV_0311,2022-11-30 22:19:15
107,"[{'imgObject': {}, 'id': 'steak', 'src': '/static/foodstim60/steak.jpg', 'key': 'u', 'origWidth': 410, 'origHeight': 410, 'width': 410, 'height': 410, 'widthPercent': 0.45, 'rescaleHeight': False, 'trialN': 107, 'loaded': True, 'loadedTime': 8926.5, 'positionName': 'LEFT', 'positionCoords': [327.28, 227], 'bid': 5.29}, {'imgObject': {}, 'id': 'cocktailshrimp', 'src': '/static/foodstim60/cocktailshrimp.jpg', 'key': 'i', 'origWidth': 410, 'origHeight': 410, 'width': 410, 'height': 410, 'widthPercent': 0.45, 'rescaleHeight': False, 'trialN': 107, 'loaded': True, 'loadedTime': 8992, 'positionName': 'RIGHT', 'positionCoords': [798.72, 227], 'bid': 9.8}]",804751.600000143,1669846652274,steak,cocktailshrimp,5.29,9.8,4.510000000000001,steak,786.5,787,786.7999999523163,True,u,806044.8000001907,1293.2000000476837,1669846653567,1293,HRV,HRV_0311,2022-11-30 22:19:15
108,"[{'imgObject': {}, 'id': 'mac & cheese', 'src': '/static/foodstim60/mac & cheese.jpg', 'key': 'u', 'origWidth': 410, 'origHeight': 410, 'width': 410, 'height': 410, 'widthPercent': 0.45, 'rescaleHeight': False, 'trialN': 108, 'loaded': True, 'loadedTime': 9084.900000095367, 'positionName': 'LEFT', 'positionCoords': [327.28, 227], 'bid': 4.47}, {'imgObject': {}, 'id': 'seaweed', 'src': '/static/foodstim60/seaweed.jpg', 'key': 'i', 'origWidth': 410, 'origHeight': 410, 'width': 410, 'height': 410, 'widthPercent': 0.45, 'rescaleHeight': False, 'trialN': 108, 'loaded': True, 'loadedTime': 9133.5, 'positionName': 'RIGHT', 'positionCoords': [798.72, 227], 'bid': 4.57}]",806045.0,1669846653568,mac & cheese,seaweed,4.47,4.57,0.10000000000000053,seaweed,1307.8000001907349,1308,1308.1000001430511,True,i,807863.8000001907,1818.8000001907349,1669846655386,1818,HRV,HRV_0311,2022-11-30 22:19:15
