trialN,stimuli,trialStartTime,trialStartTime_UNIX,stimulus1,stimulus2,stimulus1Bid,stimulus2Bid,delta,selected,rt,rt_UNIX,rt_perfnow,receivedResponse,rsp,trialEndTime,trialDuration,trialEndTime_UNIX,trialDuration_UNIX,exp,subjectId,date
0,"[{'imgObject': {}, 'id': 'steak', 'src': '/static/foodstim60/steak.jpg', 'key': 'u', 'origWidth': 410, 'origHeight': 410, 'width': 410, 'height': 410, 'widthPercent': 0.45, 'rescaleHeight': False, 'trialN': 0, 'loaded': True, 'loadedTime': 4857, 'positionName': 'LEFT', 'positionCoords': [245.68, 179], 'bid': 6.33}, {'imgObject': {}, 'id': 'popsicles', 'src': '/static/foodstim60/popsicles.jpg', 'key': 'i', 'origWidth': 410, 'origHeight': 410, 'width': 410, 'height': 410, 'widthPercent': 0.45, 'rescaleHeight': False, 'trialN': 0, 'loaded': True, 'loadedTime': 4950, 'positionName': 'RIGHT', 'positionCoords': [710.32, 179], 'bid': 5.39}]",6820,1669834331488,steak,popsicles,6.33,5.39,-0.9400000000000004,steak,2409,2412,2412,True,u,9744,2924,1669834334412,2924,HRV,HRV_0207,2022-11-30 18:58:48
1,"[{'imgObject': {}, 'id': 'turkey sandwich', 'src': '/static/foodstim60/turkey sandwich.jpg', 'key': 'u', 'origWidth': 409, 'origHeight': 409, 'width': 409, 'height': 409, 'widthPercent': 0.45, 'rescaleHeight': False, 'trialN': 1, 'loaded': True, 'loadedTime': 4716, 'positionName': 'LEFT', 'positionCoords': [246.68, 179.5], 'bid': 5.2700000000000005}, {'imgObject': {}, 'id': 'Grapes', 'src': '/static/foodstim60/Grapes.jpg', 'key': 'i', 'origWidth': 411, 'origHeight': 411, 'width': 411, 'height': 411, 'widthPercent': 0.45, 'rescaleHeight': False, 'trialN': 1, 'loaded': True, 'loadedTime': 4747, 'positionName': 'RIGHT', 'positionCoords': [710.32, 178.5], 'bid': 6.5600000000000005}]",9744,1669834334412,turkey sandwich,Grapes,5.2700000000000005,6.5600000000000005,1.29,Grapes,2526,2526,2526,True,i,12802,3058,1669834337470,3058,HRV,HRV_0207,2022-11-30 18:58:48
2,"[{'imgObject': {}, 'id': 'raisin bran w milk', 'src': '/static/foodstim60/raisin bran w milk.jpg', 'key': 'u', 'origWidth': 411, 'origHeight': 411, 'width': 411, 'height': 411, 'widthPercent': 0.45, 'rescaleHeight': False, 'trialN': 2, 'loaded': True, 'loadedTime': 4779, 'positionName': 'LEFT', 'positionCoords': [244.68, 178.5], 'bid': 7.26}, {'imgObject': {}, 'id': 'roastedpotatoes', 'src': '/static/foodstim60/roastedpotatoes.jpg', 'key': 'i', 'origWidth': 409, 'origHeight': 410, 'width': 409, 'height': 410, 'widthPercent': 0.45, 'rescaleHeight': False, 'trialN': 2, 'loaded': True, 'loadedTime': 4841, 'positionName': 'RIGHT', 'positionCoords': [710.32, 179], 'bid': 7.28}]",12802,1669834337470,raisin bran w milk,roastedpotatoes,7.26,7.28,0.020000000000000462,roastedpotatoes,3095,3095,3095,True,i,16408,3606,1669834341076,3606,HRV,HRV_0207,2022-11-30 18:58:48
3,"[{'imgObject': {}, 'id': 'turkey sandwich', 'src': '/static/foodstim60/turkey sandwich.jpg', 'key': 'u', 'origWidth': 409, 'origHeight': 409, 'width': 409, 'height': 409, 'widthPercent': 0.45, 'rescaleHeight': False, 'trialN': 3, 'loaded': True, 'loadedTime': 4685, 'positionName': 'LEFT', 'positionCoords': [246.68, 179.5], 'bid': 5.2700000000000005}, {'imgObject': {}, 'id': 'strawberries', 'src': '/static/foodstim60/strawberries.jpg', 'key': 'i', 'origWidth': 410, 'origHeight': 410, 'width': 410, 'height': 410, 'widthPercent': 0.45, 'rescaleHeight': False, 'trialN': 3, 'loaded': True, 'loadedTime': 4997, 'positionName': 'RIGHT', 'positionCoords': [710.32, 179], 'bid': 5.92}]",16410,1669834341078,turkey sandwich,strawberries,5.2700000000000005,5.92,0.6499999999999995,strawberries,1736,1736,1736,True,i,18660,2250,1669834343328,2250,HRV,HRV_0207,2022-11-30 18:58:48
4,"[{'imgObject': {}, 'id': 'pear', 'src': '/static/foodstim60/pear.jpg', 'key': 'u', 'origWidth': 411, 'origHeight': 410, 'width': 411, 'height': 410, 'widthPercent': 0.45, 'rescaleHeight': False, 'trialN': 4, 'loaded': True, 'loadedTime': 5013, 'positionName': 'LEFT', 'positionCoords': [244.68, 179], 'bid': 6.21}, {'imgObject': {}, 'id': 'Tribe humus pita', 'src': '/static/foodstim60/Tribe humus pita.jpg', 'key': 'i', 'origWidth': 411, 'origHeight': 411, 'width': 411, 'height': 411, 'widthPercent': 0.45, 'rescaleHeight': False, 'trialN': 4, 'loaded': True, 'loadedTime': 5060, 'positionName': 'RIGHT', 'positionCoords': [710.32, 178.5], 'bid': 6.8500000000000005}]",18661,1669834343329,pear,Tribe humus pita,6.21,6.8500000000000005,0.6400000000000006,pear,2406,2406,2406,True,u,21617,2956,1669834346285,2956,HRV,HRV_0207,2022-11-30 18:58:48
5,"[{'imgObject': {}, 'id': 'chicken nuggets2', 'src': '/static/foodstim60/chicken nuggets2.jpg', 'key': 'u', 'origWidth': 410, 'origHeight': 409, 'width': 410, 'height': 409, 'widthPercent': 0.45, 'rescaleHeight': False, 'trialN': 5, 'loaded': True, 'loadedTime': 5060, 'positionName': 'LEFT', 'positionCoords': [245.68, 179.5], 'bid': 7.53}, {'imgObject': {}, 'id': 'burrito', 'src': '/static/foodstim60/burrito.jpg', 'key': 'i', 'origWidth': 410, 'origHeight': 410, 'width': 410, 'height': 410, 'widthPercent': 0.45, 'rescaleHeight': False, 'trialN': 5, 'loaded': True, 'loadedTime': 5075, 'positionName': 'RIGHT', 'positionCoords': [710.32, 179], 'bid': 7.35}]",21629,1669834346297,chicken nuggets2,burrito,7.53,7.35,-0.1800000000000006,burrito,1922,1922,1922,True,i,24078,2449,1669834348746,2449,HRV,HRV_0207,2022-11-30 18:58:48
6,"[{'imgObject': {}, 'id': 'olives', 'src': '/static/foodstim60/olives.jpg', 'key': 'u', 'origWidth': 410, 'origHeight': 410, 'width': 410, 'height': 410, 'widthPercent': 0.45, 'rescaleHeight': False, 'trialN': 6, 'loaded': True, 'loadedTime': 5154, 'positionName': 'LEFT', 'positionCoords': [245.68, 179], 'bid': 7.45}, {'imgObject': {}, 'id': 'mac & cheese', 'src': '/static/foodstim60/mac & cheese.jpg', 'key': 'i', 'origWidth': 410, 'origHeight': 410, 'width': 410, 'height': 410, 'widthPercent': 0.45, 'rescaleHeight': False, 'trialN': 6, 'loaded': True, 'loadedTime': 5169, 'positionName': 'RIGHT', 'positionCoords': [710.32, 179], 'bid': 7.31}]",24078,1669834348746,olives,mac & cheese,7.45,7.31,-0.14000000000000057,olives,2535,2535,2535,True,u,27130,3052,1669834351798,3052,HRV,HRV_0207,2022-11-30 18:58:48
7,"[{'imgObject': {}, 'id': 'banana', 'src': '/static/foodstim60/banana.jpg', 'key': 'u', 'origWidth': 410, 'origHeight': 410, 'width': 410, 'height': 410, 'widthPercent': 0.45, 'rescaleHeight': False, 'trialN': 7, 'loaded': True, 'loadedTime': 5200, 'positionName': 'LEFT', 'positionCoords': [245.68, 179], 'bid': 6.0600000000000005}, {'imgObject': {}, 'id': 'cheerios', 'src': '/static/foodstim60/cheerios.jpg', 'key': 'i', 'origWidth': 409, 'origHeight': 410, 'width': 409, 'height': 410, 'widthPercent': 0.45, 'rescaleHeight': False, 'trialN': 7, 'loaded': True, 'loadedTime': 5247, 'positionName': 'RIGHT', 'positionCoords': [710.32, 179], 'bid': 5.36}]",27131,1669834351799,banana,cheerios,6.0600000000000005,5.36,-0.7000000000000002,banana,2482,2498,2498,True,u,30141,3010,1669834354809,3010,HRV,HRV_0207,2022-11-30 18:58:48
8,"[{'imgObject': {}, 'id': 'shreddedwheatwithmilk', 'src': '/static/foodstim60/shreddedwheatwithmilk.jpg', 'key': 'u', 'origWidth': 410, 'origHeight': 410, 'width': 410, 'height': 410, 'widthPercent': 0.45, 'rescaleHeight': False, 'trialN': 8, 'loaded': True, 'loadedTime': 5310, 'positionName': 'LEFT', 'positionCoords': [245.68, 179], 'bid': 6.74}, {'imgObject': {}, 'id': 'bagel plain', 'src': '/static/foodstim60/bagel plain.jpg', 'key': 'i', 'origWidth': 410, 'origHeight': 410, 'width': 410, 'height': 410, 'widthPercent': 0.45, 'rescaleHeight': False, 'trialN': 8, 'loaded': True, 'loadedTime': 5357, 'positionName': 'RIGHT', 'positionCoords': [710.32, 179], 'bid': 7.19}]",30141,1669834354809,shreddedwheatwithmilk,bagel plain,6.74,7.19,0.4500000000000002,shreddedwheatwithmilk,1958,1958,1958,True,u,32607,2466,1669834357275,2466,HRV,HRV_0207,2022-11-30 18:58:48
9,"[{'imgObject': {}, 'id': 'bagel plain', 'src': '/static/foodstim60/bagel plain.jpg', 'key': 'u', 'origWidth': 410, 'origHeight': 410, 'width': 410, 'height': 410, 'widthPercent': 0.45, 'rescaleHeight': False, 'trialN': 9, 'loaded': True, 'loadedTime': 5357, 'positionName': 'LEFT', 'positionCoords': [245.68, 179], 'bid': 7.19}, {'imgObject': {}, 'id': 'eggs', 'src': '/static/foodstim60/eggs.jpg', 'key': 'i', 'origWidth': 409, 'origHeight': 409, 'width': 409, 'height': 409, 'widthPercent': 0.45, 'rescaleHeight': False, 'trialN': 9, 'loaded': True, 'loadedTime': 5622, 'positionName': 'RIGHT', 'positionCoords': [710.32, 179.5], 'bid': 7.07}]",32607,1669834357275,bagel plain,eggs,7.19,7.07,-0.1200000000000001,eggs,1692,1708,1708,True,i,34816,2209,1669834359484,2209,HRV,HRV_0207,2022-11-30 18:58:48
10,"[{'imgObject': {}, 'id': 'fried eggs', 'src': '/static/foodstim60/fried eggs.jpg', 'key': 'u', 'origWidth': 410, 'origHeight': 410, 'width': 410, 'height': 410, 'widthPercent': 0.45, 'rescaleHeight': False, 'trialN': 10, 'loaded': True, 'loadedTime': 5638, 'positionName': 'LEFT', 'positionCoords': [245.68, 179], 'bid': 7.43}, {'imgObject': {}, 'id': 'olives', 'src': '/static/foodstim60/olives.jpg', 'key': 'i', 'origWidth': 410, 'origHeight': 410, 'width': 410, 'height': 410, 'widthPercent': 0.45, 'rescaleHeight': False, 'trialN': 10, 'loaded': True, 'loadedTime': 5169, 'positionName': 'RIGHT', 'positionCoords': [710.32, 179], 'bid': 7.45}]",34817,1669834359485,fried eggs,olives,7.43,7.45,0.020000000000000462,fried eggs,1547,1547,1547,True,u,36873,2056,1669834361541,2056,HRV,HRV_0207,2022-11-30 18:58:48
11,"[{'imgObject': {}, 'id': 'luckycharms', 'src': '/static/foodstim60/luckycharms.jpg', 'key': 'u', 'origWidth': 410, 'origHeight': 409, 'width': 410, 'height': 409, 'widthPercent': 0.45, 'rescaleHeight': False, 'trialN': 11, 'loaded': True, 'loadedTime': 5655, 'positionName': 'LEFT', 'positionCoords': [245.68, 179.5], 'bid': 5.83}, {'imgObject': {}, 'id': 'sweetpotato', 'src': '/static/foodstim60/sweetpotato.jpg', 'key': 'i', 'origWidth': 410, 'origHeight': 410, 'width': 410, 'height': 410, 'widthPercent': 0.45, 'rescaleHeight': False, 'trialN': 11, 'loaded': True, 'loadedTime': 5747, 'positionName': 'RIGHT', 'positionCoords': [710.32, 179], 'bid': 4.91}]",36873,1669834361541,luckycharms,sweetpotato,5.83,4.91,-0.9199999999999999,sweetpotato,2054,2054,2054,True,i,39443,2570,1669834364111,2570,HRV,HRV_0207,2022-11-30 18:58:48
12,"[{'imgObject': {}, 'id': 'sushi w_condiments', 'src': '/static/foodstim60/sushi w_condiments.jpg', 'key': 'u', 'origWidth': 410, 'origHeight': 410, 'width': 410, 'height': 410, 'widthPercent': 0.45, 'rescaleHeight': False, 'trialN': 12, 'loaded': True, 'loadedTime': 5810, 'positionName': 'LEFT', 'positionCoords': [245.68, 179], 'bid': 7.38}, {'imgObject': {}, 'id': 'steak', 'src': '/static/foodstim60/steak.jpg', 'key': 'i', 'origWidth': 410, 'origHeight': 410, 'width': 410, 'height': 410, 'widthPercent': 0.45, 'rescaleHeight': False, 'trialN': 12, 'loaded': True, 'loadedTime': 4904, 'positionName': 'RIGHT', 'positionCoords': [710.32, 179], 'bid': 6.33}]",39443,1669834364111,sushi w_condiments,steak,7.38,6.33,-1.0499999999999998,steak,1530,1530,1530,True,i,41494,2051,1669834366162,2051,HRV,HRV_0207,2022-11-30 18:58:48
13,"[{'imgObject': {}, 'id': 'mashed potato', 'src': '/static/foodstim60/mashed potato.jpg', 'key': 'u', 'origWidth': 409, 'origHeight': 409, 'width': 409, 'height': 409, 'widthPercent': 0.45, 'rescaleHeight': False, 'trialN': 13, 'loaded': True, 'loadedTime': 5810, 'positionName': 'LEFT', 'positionCoords': [246.68, 179.5], 'bid': 6.69}, {'imgObject': {}, 'id': 'chicken nuggets2', 'src': '/static/foodstim60/chicken nuggets2.jpg', 'key': 'i', 'origWidth': 410, 'origHeight': 409, 'width': 410, 'height': 409, 'widthPercent': 0.45, 'rescaleHeight': False, 'trialN': 13, 'loaded': True, 'loadedTime': 5060, 'positionName': 'RIGHT', 'positionCoords': [710.32, 179.5], 'bid': 7.53}]",41495,1669834366163,mashed potato,chicken nuggets2,6.69,7.53,0.8399999999999999,mashed potato,2945,2960,2961,True,u,44962,3467,1669834369629,3466,HRV,HRV_0207,2022-11-30 18:58:48
14,"[{'imgObject': {}, 'id': 'ice cream sundae 002', 'src': '/static/foodstim60/ice cream sundae 002.jpg', 'key': 'u', 'origWidth': 409, 'origHeight': 409, 'width': 409, 'height': 409, 'widthPercent': 0.45, 'rescaleHeight': False, 'trialN': 14, 'loaded': True, 'loadedTime': 5903, 'positionName': 'LEFT', 'positionCoords': [246.68, 179.5], 'bid': 6.78}, {'imgObject': {}, 'id': 'cocktailshrimp', 'src': '/static/foodstim60/cocktailshrimp.jpg', 'key': 'i', 'origWidth': 410, 'origHeight': 410, 'width': 410, 'height': 410, 'widthPercent': 0.45, 'rescaleHeight': False, 'trialN': 14, 'loaded': True, 'loadedTime': 5935, 'positionName': 'RIGHT', 'positionCoords': [710.32, 179], 'bid': 6.83}]",44962,1669834369629,ice cream sundae 002,cocktailshrimp,6.78,6.83,0.04999999999999982,cocktailshrimp,2509,2509,2509,True,i,47995,3033,1669834372662,3033,HRV,HRV_0207,2022-11-30 18:58:48
15,"[{'imgObject': {}, 'id': 'salmon', 'src': '/static/foodstim60/salmon.jpg', 'key': 'u', 'origWidth': 410, 'origHeight': 409, 'width': 410, 'height': 409, 'widthPercent': 0.45, 'rescaleHeight': False, 'trialN': 15, 'loaded': True, 'loadedTime': 5966, 'positionName': 'LEFT', 'positionCoords': [245.68, 179.5], 'bid': 6.91}, {'imgObject': {}, 'id': 'sushi w_condiments', 'src': '/static/foodstim60/sushi w_condiments.jpg', 'key': 'i', 'origWidth': 410, 'origHeight': 410, 'width': 410, 'height': 410, 'widthPercent': 0.45, 'rescaleHeight': False, 'trialN': 15, 'loaded': True, 'loadedTime': 5794, 'positionName': 'RIGHT', 'positionCoords': [710.32, 179], 'bid': 7.38}]",47995,1669834372662,salmon,sushi w_condiments,6.91,7.38,0.46999999999999975,salmon,1711,1711,1711,True,u,50224,2229,1669834374891,2229,HRV,HRV_0207,2022-11-30 18:58:48
16,"[{'imgObject': {}, 'id': 'Grapes', 'src': '/static/foodstim60/Grapes.jpg', 'key': 'u', 'origWidth': 411, 'origHeight': 411, 'width': 411, 'height': 411, 'widthPercent': 0.45, 'rescaleHeight': False, 'trialN': 16, 'loaded': True, 'loadedTime': 4732, 'positionName': 'LEFT', 'positionCoords': [244.68, 178.5], 'bid': 6.5600000000000005}, {'imgObject': {}, 'id': 'hashbrowns', 'src': '/static/foodstim60/hashbrowns.jpg', 'key': 'i', 'origWidth': 411, 'origHeight': 410, 'width': 411, 'height': 410, 'widthPercent': 0.45, 'rescaleHeight': False, 'trialN': 16, 'loaded': True, 'loadedTime': 5982, 'positionName': 'RIGHT', 'positionCoords': [710.32, 179], 'bid': 6.15}]",50244,1669834374911,Grapes,hashbrowns,6.5600000000000005,6.15,-0.41000000000000014,Grapes,1883,1883,1883,True,u,52641,2397,1669834377308,2397,HRV,HRV_0207,2022-11-30 18:58:48
17,"[{'imgObject': {}, 'id': 'Grapes', 'src': '/static/foodstim60/Grapes.jpg', 'key': 'u', 'origWidth': 411, 'origHeight': 411, 'width': 411, 'height': 411, 'widthPercent': 0.45, 'rescaleHeight': False, 'trialN': 17, 'loaded': True, 'loadedTime': 4747, 'positionName': 'LEFT', 'positionCoords': [244.68, 178.5], 'bid': 6.5600000000000005}, {'imgObject': {}, 'id': 'fried eggs', 'src': '/static/foodstim60/fried eggs.jpg', 'key': 'i', 'origWidth': 410, 'origHeight': 410, 'width': 410, 'height': 410, 'widthPercent': 0.45, 'rescaleHeight': False, 'trialN': 17, 'loaded': True, 'loadedTime': 5638, 'positionName': 'RIGHT', 'positionCoords': [710.32, 179], 'bid': 7.43}]",52641,1669834377308,Grapes,fried eggs,6.5600000000000005,7.43,0.8699999999999992,fried eggs,1769,1769,1769,True,i,54931,2290,1669834379598,2290,HRV,HRV_0207,2022-11-30 18:58:48
18,"[{'imgObject': {}, 'id': 'burrito', 'src': '/static/foodstim60/burrito.jpg', 'key': 'u', 'origWidth': 410, 'origHeight': 410, 'width': 410, 'height': 410, 'widthPercent': 0.45, 'rescaleHeight': False, 'trialN': 18, 'loaded': True, 'loadedTime': 5107, 'positionName': 'LEFT', 'positionCoords': [245.68, 179], 'bid': 7.35}, {'imgObject': {}, 'id': 'hashbrowns', 'src': '/static/foodstim60/hashbrowns.jpg', 'key': 'i', 'origWidth': 411, 'origHeight': 410, 'width': 411, 'height': 410, 'widthPercent': 0.45, 'rescaleHeight': False, 'trialN': 18, 'loaded': True, 'loadedTime': 5982, 'positionName': 'RIGHT', 'positionCoords': [710.32, 179], 'bid': 6.15}]",54931,1669834379598,burrito,hashbrowns,7.35,6.15,-1.1999999999999993,hashbrowns,1588,1588,1588,True,i,57035,2104,1669834381702,2104,HRV,HRV_0207,2022-11-30 18:58:48
19,"[{'imgObject': {}, 'id': 'popsicles', 'src': '/static/foodstim60/popsicles.jpg', 'key': 'u', 'origWidth': 410, 'origHeight': 410, 'width': 410, 'height': 410, 'widthPercent': 0.45, 'rescaleHeight': False, 'trialN': 19, 'loaded': True, 'loadedTime': 4935, 'positionName': 'LEFT', 'positionCoords': [245.68, 179], 'bid': 5.39}, {'imgObject': {}, 'id': 'bagel plain', 'src': '/static/foodstim60/bagel plain.jpg', 'key': 'i', 'origWidth': 410, 'origHeight': 410, 'width': 410, 'height': 410, 'widthPercent': 0.45, 'rescaleHeight': False, 'trialN': 19, 'loaded': True, 'loadedTime': 5357, 'positionName': 'RIGHT', 'positionCoords': [710.32, 179], 'bid': 7.19}]",57035,1669834381702,popsicles,bagel plain,5.39,7.19,1.8000000000000007,popsicles,1639,1655,1655,True,u,59205,2170,1669834383872,2170,HRV,HRV_0207,2022-11-30 18:58:48
20,"[{'imgObject': {}, 'id': 'yogurt no spoon', 'src': '/static/foodstim60/yogurt no spoon.jpg', 'key': 'u', 'origWidth': 411, 'origHeight': 410, 'width': 411, 'height': 410, 'widthPercent': 0.45, 'rescaleHeight': False, 'trialN': 20, 'loaded': True, 'loadedTime': 6013, 'positionName': 'LEFT', 'positionCoords': [244.68, 179], 'bid': 7.22}, {'imgObject': {}, 'id': 'burrito', 'src': '/static/foodstim60/burrito.jpg', 'key': 'i', 'origWidth': 410, 'origHeight': 410, 'width': 410, 'height': 410, 'widthPercent': 0.45, 'rescaleHeight': False, 'trialN': 20, 'loaded': True, 'loadedTime': 5091, 'positionName': 'RIGHT', 'positionCoords': [710.32, 179], 'bid': 7.35}]",59205,1669834383872,yogurt no spoon,burrito,7.22,7.35,0.1299999999999999,yogurt no spoon,2064,2064,2064,True,u,61787,2582,1669834386454,2582,HRV,HRV_0207,2022-11-30 18:58:48
21,"[{'imgObject': {}, 'id': 'cheerios', 'src': '/static/foodstim60/cheerios.jpg', 'key': 'u', 'origWidth': 409, 'origHeight': 410, 'width': 409, 'height': 410, 'widthPercent': 0.45, 'rescaleHeight': False, 'trialN': 21, 'loaded': True, 'loadedTime': 5232, 'positionName': 'LEFT', 'positionCoords': [246.68, 179], 'bid': 5.36}, {'imgObject': {}, 'id': 'popsicles', 'src': '/static/foodstim60/popsicles.jpg', 'key': 'i', 'origWidth': 410, 'origHeight': 410, 'width': 410, 'height': 410, 'widthPercent': 0.45, 'rescaleHeight': False, 'trialN': 21, 'loaded': True, 'loadedTime': 4919, 'positionName': 'RIGHT', 'positionCoords': [710.32, 179], 'bid': 5.39}]",61788,1669834386455,cheerios,popsicles,5.36,5.39,0.02999999999999936,popsicles,2182,2182,2182,True,i,64488,2700,1669834389155,2700,HRV,HRV_0207,2022-11-30 18:58:48
22,"[{'imgObject': {}, 'id': 'froot loops w milk', 'src': '/static/foodstim60/froot loops w milk.jpg', 'key': 'u', 'origWidth': 410, 'origHeight': 410, 'width': 410, 'height': 410, 'widthPercent': 0.45, 'rescaleHeight': False, 'trialN': 22, 'loaded': True, 'loadedTime': 6091, 'positionName': 'LEFT', 'positionCoords': [245.68, 179], 'bid': 6.11}, {'imgObject': {}, 'id': 'sweetpotato', 'src': '/static/foodstim60/sweetpotato.jpg', 'key': 'i', 'origWidth': 410, 'origHeight': 410, 'width': 410, 'height': 410, 'widthPercent': 0.45, 'rescaleHeight': False, 'trialN': 22, 'loaded': True, 'loadedTime': 5763, 'positionName': 'RIGHT', 'positionCoords': [710.32, 179], 'bid': 4.91}]",64488,1669834389155,froot loops w milk,sweetpotato,6.11,4.91,-1.2000000000000002,froot loops w milk,1717,1717,1717,True,u,66721,2233,1669834391388,2233,HRV,HRV_0207,2022-11-30 18:58:48
23,"[{'imgObject': {}, 'id': 'grilled chicken strips', 'src': '/static/foodstim60/grilled chicken strips.jpg', 'key': 'u', 'origWidth': 410, 'origHeight': 411, 'width': 410, 'height': 411, 'widthPercent': 0.45, 'rescaleHeight': False, 'trialN': 23, 'loaded': True, 'loadedTime': 6091, 'positionName': 'LEFT', 'positionCoords': [245.68, 178.5], 'bid': 6.63}, {'imgObject': {}, 'id': 'mashed potato', 'src': '/static/foodstim60/mashed potato.jpg', 'key': 'i', 'origWidth': 409, 'origHeight': 409, 'width': 409, 'height': 409, 'widthPercent': 0.45, 'rescaleHeight': False, 'trialN': 23, 'loaded': True, 'loadedTime': 5825, 'positionName': 'RIGHT', 'positionCoords': [710.32, 179.5], 'bid': 6.69}]",66722,1669834391389,grilled chicken strips,mashed potato,6.63,6.69,0.0600000000000005,mashed potato,1858,1858,1858,True,i,69105,2383,1669834393772,2383,HRV,HRV_0207,2022-11-30 18:58:48
24,"[{'imgObject': {}, 'id': 'eggsalad', 'src': '/static/foodstim60/eggsalad.jpg', 'key': 'u', 'origWidth': 410, 'origHeight': 409, 'width': 410, 'height': 409, 'widthPercent': 0.45, 'rescaleHeight': False, 'trialN': 24, 'loaded': True, 'loadedTime': 6169, 'positionName': 'LEFT', 'positionCoords': [245.68, 179.5], 'bid': 7.44}, {'imgObject': {}, 'id': 'rigatoni and sauce', 'src': '/static/foodstim60/rigatoni and sauce.jpg', 'key': 'i', 'origWidth': 410, 'origHeight': 411, 'width': 410, 'height': 411, 'widthPercent': 0.45, 'rescaleHeight': False, 'trialN': 24, 'loaded': True, 'loadedTime': 6216, 'positionName': 'RIGHT', 'positionCoords': [710.32, 178.5], 'bid': 7.5}]",69105,1669834393772,eggsalad,rigatoni and sauce,7.44,7.5,0.05999999999999961,rigatoni and sauce,1820,1820,1820,True,i,71441,2336,1669834396108,2336,HRV,HRV_0207,2022-11-30 18:58:48
25,"[{'imgObject': {}, 'id': 'eggsalad', 'src': '/static/foodstim60/eggsalad.jpg', 'key': 'u', 'origWidth': 410, 'origHeight': 409, 'width': 410, 'height': 409, 'widthPercent': 0.45, 'rescaleHeight': False, 'trialN': 25, 'loaded': True, 'loadedTime': 6169, 'positionName': 'LEFT', 'positionCoords': [245.68, 179.5], 'bid': 7.44}, {'imgObject': {}, 'id': 'fried eggs', 'src': '/static/foodstim60/fried eggs.jpg', 'key': 'i', 'origWidth': 410, 'origHeight': 410, 'width': 410, 'height': 410, 'widthPercent': 0.45, 'rescaleHeight': False, 'trialN': 25, 'loaded': True, 'loadedTime': 5638, 'positionName': 'RIGHT', 'positionCoords': [710.32, 179], 'bid': 7.43}]",71441,1669834396108,eggsalad,fried eggs,7.44,7.43,-0.010000000000000675,fried eggs,1200,1200,1200,True,i,73156,1715,1669834397823,1715,HRV,HRV_0207,2022-11-30 18:58:48
26,"[{'imgObject': {}, 'id': 'popsicles', 'src': '/static/foodstim60/popsicles.jpg', 'key': 'u', 'origWidth': 410, 'origHeight': 410, 'width': 410, 'height': 410, 'widthPercent': 0.45, 'rescaleHeight': False, 'trialN': 26, 'loaded': True, 'loadedTime': 4919, 'positionName': 'LEFT', 'positionCoords': [245.68, 179], 'bid': 5.39}, {'imgObject': {}, 'id': 'luckycharms', 'src': '/static/foodstim60/luckycharms.jpg', 'key': 'i', 'origWidth': 410, 'origHeight': 409, 'width': 410, 'height': 409, 'widthPercent': 0.45, 'rescaleHeight': False, 'trialN': 26, 'loaded': True, 'loadedTime': 5716, 'positionName': 'RIGHT', 'positionCoords': [710.32, 179.5], 'bid': 5.83}]",73156,1669834397823,popsicles,luckycharms,5.39,5.83,0.4400000000000004,popsicles,1215,1230,1230,True,u,74906,1750,1669834399573,1750,HRV,HRV_0207,2022-11-30 18:58:48
27,"[{'imgObject': {}, 'id': 'froot loops w milk', 'src': '/static/foodstim60/froot loops w milk.jpg', 'key': 'u', 'origWidth': 410, 'origHeight': 410, 'width': 410, 'height': 410, 'widthPercent': 0.45, 'rescaleHeight': False, 'trialN': 27, 'loaded': True, 'loadedTime': 6091, 'positionName': 'LEFT', 'positionCoords': [245.68, 179], 'bid': 6.11}, {'imgObject': {}, 'id': 'popsicles', 'src': '/static/foodstim60/popsicles.jpg', 'key': 'i', 'origWidth': 410, 'origHeight': 410, 'width': 410, 'height': 410, 'widthPercent': 0.45, 'rescaleHeight': False, 'trialN': 27, 'loaded': True, 'loadedTime': 4935, 'positionName': 'RIGHT', 'positionCoords': [710.32, 179], 'bid': 5.39}]",74907,1669834399574,froot loops w milk,popsicles,6.11,5.39,-0.7200000000000006,popsicles,1424,1424,1424,True,i,76851,1944,1669834401518,1944,HRV,HRV_0207,2022-11-30 18:58:48
28,"[{'imgObject': {}, 'id': 'mango', 'src': '/static/foodstim60/mango.jpg', 'key': 'u', 'origWidth': 411, 'origHeight': 411, 'width': 411, 'height': 411, 'widthPercent': 0.45, 'rescaleHeight': False, 'trialN': 28, 'loaded': True, 'loadedTime': 6247, 'positionName': 'LEFT', 'positionCoords': [244.68, 178.5], 'bid': 8.64}, {'imgObject': {}, 'id': 'kiwi', 'src': '/static/foodstim60/kiwi.jpg', 'key': 'i', 'origWidth': 410, 'origHeight': 410, 'width': 410, 'height': 410, 'widthPercent': 0.45, 'rescaleHeight': False, 'trialN': 28, 'loaded': True, 'loadedTime': 6325, 'positionName': 'RIGHT', 'positionCoords': [710.32, 179], 'bid': 8.2}]",76851,1669834401518,mango,kiwi,8.64,8.2,-0.4400000000000013,mango,1739,1739,1739,True,u,79097,2246,1669834403764,2246,HRV,HRV_0207,2022-11-30 18:58:48
29,"[{'imgObject': {}, 'id': 'bagel and cc', 'src': '/static/foodstim60/bagel and cc.jpg', 'key': 'u', 'origWidth': 410, 'origHeight': 410, 'width': 410, 'height': 410, 'widthPercent': 0.45, 'rescaleHeight': False, 'trialN': 29, 'loaded': True, 'loadedTime': 6357, 'positionName': 'LEFT', 'positionCoords': [245.68, 179], 'bid': 7}, {'imgObject': {}, 'id': 'cherry tomato', 'src': '/static/foodstim60/cherry tomato.jpg', 'key': 'i', 'origWidth': 410, 'origHeight': 410, 'width': 410, 'height': 410, 'widthPercent': 0.45, 'rescaleHeight': False, 'trialN': 29, 'loaded': True, 'loadedTime': 6379, 'positionName': 'RIGHT', 'positionCoords': [710.32, 179], 'bid': 7.15}]",79098,1669834403765,bagel and cc,cherry tomato,7.0,7.15,0.15000000000000036,cherry tomato,1273,1273,1273,True,i,80894,1796,1669834405561,1796,HRV,HRV_0207,2022-11-30 18:58:48
30,"[{'imgObject': {}, 'id': 'sweetpotato', 'src': '/static/foodstim60/sweetpotato.jpg', 'key': 'u', 'origWidth': 410, 'origHeight': 410, 'width': 410, 'height': 410, 'widthPercent': 0.45, 'rescaleHeight': False, 'trialN': 30, 'loaded': True, 'loadedTime': 5763, 'positionName': 'LEFT', 'positionCoords': [245.68, 179], 'bid': 4.91}, {'imgObject': {}, 'id': 'fruitsalad', 'src': '/static/foodstim60/fruitsalad.jpg', 'key': 'i', 'origWidth': 410, 'origHeight': 410, 'width': 410, 'height': 410, 'widthPercent': 0.45, 'rescaleHeight': False, 'trialN': 30, 'loaded': True, 'loadedTime': 6409, 'positionName': 'RIGHT', 'positionCoords': [710.32, 179], 'bid': 6.33}]",80894,1669834405561,sweetpotato,fruitsalad,4.91,6.33,1.42,fruitsalad,1841,1841,1841,True,i,83255,2361,1669834407922,2361,HRV,HRV_0207,2022-11-30 18:58:48
31,"[{'imgObject': {}, 'id': 'fruitsalad', 'src': '/static/foodstim60/fruitsalad.jpg', 'key': 'u', 'origWidth': 410, 'origHeight': 410, 'width': 410, 'height': 410, 'widthPercent': 0.45, 'rescaleHeight': False, 'trialN': 31, 'loaded': True, 'loadedTime': 6410, 'positionName': 'LEFT', 'positionCoords': [245.68, 179], 'bid': 6.33}, {'imgObject': {}, 'id': 'Grapes', 'src': '/static/foodstim60/Grapes.jpg', 'key': 'i', 'origWidth': 411, 'origHeight': 411, 'width': 411, 'height': 411, 'widthPercent': 0.45, 'rescaleHeight': False, 'trialN': 31, 'loaded': True, 'loadedTime': 4732, 'positionName': 'RIGHT', 'positionCoords': [710.32, 178.5], 'bid': 6.5600000000000005}]",83255,1669834407922,fruitsalad,Grapes,6.33,6.5600000000000005,0.23000000000000043,Grapes,3153,3153,3153,True,i,86923,3668,1669834411590,3668,HRV,HRV_0207,2022-11-30 18:58:48
32,"[{'imgObject': {}, 'id': 'seaweed', 'src': '/static/foodstim60/seaweed.jpg', 'key': 'u', 'origWidth': 410, 'origHeight': 410, 'width': 410, 'height': 410, 'widthPercent': 0.45, 'rescaleHeight': False, 'trialN': 32, 'loaded': True, 'loadedTime': 6422, 'positionName': 'LEFT', 'positionCoords': [245.68, 179], 'bid': 7.59}, {'imgObject': {}, 'id': 'edamame', 'src': '/static/foodstim60/edamame.jpg', 'key': 'i', 'origWidth': 409, 'origHeight': 410, 'width': 409, 'height': 410, 'widthPercent': 0.45, 'rescaleHeight': False, 'trialN': 32, 'loaded': True, 'loadedTime': 6488, 'positionName': 'RIGHT', 'positionCoords': [710.32, 179], 'bid': 6.71}]",86925,1669834411592,seaweed,edamame,7.59,6.71,-0.8799999999999999,edamame,2427,2427,2427,True,i,89873,2948,1669834414540,2948,HRV,HRV_0207,2022-11-30 18:58:48
33,"[{'imgObject': {}, 'id': 'orange slices', 'src': '/static/foodstim60/orange slices.jpg', 'key': 'u', 'origWidth': 409, 'origHeight': 410, 'width': 409, 'height': 410, 'widthPercent': 0.45, 'rescaleHeight': False, 'trialN': 33, 'loaded': True, 'loadedTime': 6551, 'positionName': 'LEFT', 'positionCoords': [246.68, 179], 'bid': 7.38}, {'imgObject': {}, 'id': 'blueberries', 'src': '/static/foodstim60/blueberries.jpg', 'key': 'i', 'origWidth': 411, 'origHeight': 411, 'width': 411, 'height': 411, 'widthPercent': 0.45, 'rescaleHeight': False, 'trialN': 33, 'loaded': True, 'loadedTime': 6582, 'positionName': 'RIGHT', 'positionCoords': [710.32, 178.5], 'bid': 7.75}]",89874,1669834414541,orange slices,blueberries,7.38,7.75,0.3700000000000001,orange slices,1320,1320,1320,True,u,91706,1832,1669834416373,1832,HRV,HRV_0207,2022-11-30 18:58:48
34,"[{'imgObject': {}, 'id': 'lox', 'src': '/static/foodstim60/lox.jpg', 'key': 'u', 'origWidth': 410, 'origHeight': 411, 'width': 410, 'height': 411, 'widthPercent': 0.45, 'rescaleHeight': False, 'trialN': 34, 'loaded': True, 'loadedTime': 6598, 'positionName': 'LEFT', 'positionCoords': [245.68, 178.5], 'bid': 8.13}, {'imgObject': {}, 'id': 'cocktailshrimp', 'src': '/static/foodstim60/cocktailshrimp.jpg', 'key': 'i', 'origWidth': 410, 'origHeight': 410, 'width': 410, 'height': 410, 'widthPercent': 0.45, 'rescaleHeight': False, 'trialN': 34, 'loaded': True, 'loadedTime': 5935, 'positionName': 'RIGHT', 'positionCoords': [710.32, 179], 'bid': 6.83}]",91706,1669834416373,lox,cocktailshrimp,8.13,6.83,-1.3000000000000007,cocktailshrimp,1266,1266,1266,True,i,93491,1785,1669834418158,1785,HRV,HRV_0207,2022-11-30 18:58:48
35,"[{'imgObject': {}, 'id': 'rigatoni', 'src': '/static/foodstim60/rigatoni.jpg', 'key': 'u', 'origWidth': 411, 'origHeight': 411, 'width': 411, 'height': 411, 'widthPercent': 0.45, 'rescaleHeight': False, 'trialN': 35, 'loaded': True, 'loadedTime': 6613, 'positionName': 'LEFT', 'positionCoords': [244.68, 178.5], 'bid': 7.38}, {'imgObject': {}, 'id': 'raspberries', 'src': '/static/foodstim60/raspberries.jpg', 'key': 'i', 'origWidth': 411, 'origHeight': 411, 'width': 411, 'height': 411, 'widthPercent': 0.45, 'rescaleHeight': False, 'trialN': 35, 'loaded': True, 'loadedTime': 6629, 'positionName': 'RIGHT', 'positionCoords': [710.32, 178.5], 'bid': 6.3}]",93491,1669834418158,rigatoni,raspberries,7.38,6.3,-1.08,raspberries,2182,2198,2198,True,i,96220,2729,1669834420887,2729,HRV,HRV_0207,2022-11-30 18:58:48
36,"[{'imgObject': {}, 'id': 'chicken nuggets2', 'src': '/static/foodstim60/chicken nuggets2.jpg', 'key': 'u', 'origWidth': 410, 'origHeight': 409, 'width': 410, 'height': 409, 'widthPercent': 0.45, 'rescaleHeight': False, 'trialN': 36, 'loaded': True, 'loadedTime': 5075, 'positionName': 'LEFT', 'positionCoords': [245.68, 179.5], 'bid': 7.53}, {'imgObject': {}, 'id': 'seaweed', 'src': '/static/foodstim60/seaweed.jpg', 'key': 'i', 'origWidth': 410, 'origHeight': 410, 'width': 410, 'height': 410, 'widthPercent': 0.45, 'rescaleHeight': False, 'trialN': 36, 'loaded': True, 'loadedTime': 6479, 'positionName': 'RIGHT', 'positionCoords': [710.32, 179], 'bid': 7.59}]",96220,1669834420887,chicken nuggets2,seaweed,7.53,7.59,0.05999999999999961,chicken nuggets2,1501,1501,1501,True,u,98241,2021,1669834422908,2021,HRV,HRV_0207,2022-11-30 18:58:48
37,"[{'imgObject': {}, 'id': 'rigatoni and sauce', 'src': '/static/foodstim60/rigatoni and sauce.jpg', 'key': 'u', 'origWidth': 410, 'origHeight': 411, 'width': 410, 'height': 411, 'widthPercent': 0.45, 'rescaleHeight': False, 'trialN': 37, 'loaded': True, 'loadedTime': 6185, 'positionName': 'LEFT', 'positionCoords': [245.68, 178.5], 'bid': 7.5}, {'imgObject': {}, 'id': 'lox', 'src': '/static/foodstim60/lox.jpg', 'key': 'i', 'origWidth': 410, 'origHeight': 411, 'width': 410, 'height': 411, 'widthPercent': 0.45, 'rescaleHeight': False, 'trialN': 37, 'loaded': True, 'loadedTime': 6582, 'positionName': 'RIGHT', 'positionCoords': [710.32, 178.5], 'bid': 8.13}]",98241,1669834422908,rigatoni and sauce,lox,7.5,8.13,0.6300000000000008,lox,1652,1668,1668,True,i,100421,2180,1669834425088,2180,HRV,HRV_0207,2022-11-30 18:58:48
38,"[{'imgObject': {}, 'id': 'eggs', 'src': '/static/foodstim60/eggs.jpg', 'key': 'u', 'origWidth': 409, 'origHeight': 409, 'width': 409, 'height': 409, 'widthPercent': 0.45, 'rescaleHeight': False, 'trialN': 38, 'loaded': True, 'loadedTime': 5529, 'positionName': 'LEFT', 'positionCoords': [246.68, 179.5], 'bid': 7.07}, {'imgObject': {}, 'id': 'fried eggs', 'src': '/static/foodstim60/fried eggs.jpg', 'key': 'i', 'origWidth': 410, 'origHeight': 410, 'width': 410, 'height': 410, 'widthPercent': 0.45, 'rescaleHeight': False, 'trialN': 38, 'loaded': True, 'loadedTime': 5638, 'positionName': 'RIGHT', 'positionCoords': [710.32, 179], 'bid': 7.43}]",100421,1669834425088,eggs,fried eggs,7.07,7.43,0.35999999999999943,fried eggs,1331,1331,1331,True,i,102271,1850,1669834426938,1850,HRV,HRV_0207,2022-11-30 18:58:48
39,"[{'imgObject': {}, 'id': 'strawberries', 'src': '/static/foodstim60/strawberries.jpg', 'key': 'u', 'origWidth': 410, 'origHeight': 410, 'width': 410, 'height': 410, 'widthPercent': 0.45, 'rescaleHeight': False, 'trialN': 39, 'loaded': True, 'loadedTime': 4982, 'positionName': 'LEFT', 'positionCoords': [245.68, 179], 'bid': 5.92}, {'imgObject': {}, 'id': 'avocado', 'src': '/static/foodstim60/avocado.jpg', 'key': 'i', 'origWidth': 409, 'origHeight': 409, 'width': 409, 'height': 409, 'widthPercent': 0.45, 'rescaleHeight': False, 'trialN': 39, 'loaded': True, 'loadedTime': 6645, 'positionName': 'RIGHT', 'positionCoords': [710.32, 179.5], 'bid': 6.59}]",102271,1669834426938,strawberries,avocado,5.92,6.59,0.6699999999999999,strawberries,1293,1309,1309,True,u,104088,1817,1669834428755,1817,HRV,HRV_0207,2022-11-30 18:58:48
40,"[{'imgObject': {}, 'id': 'shreddedwheatwithmilk', 'src': '/static/foodstim60/shreddedwheatwithmilk.jpg', 'key': 'u', 'origWidth': 410, 'origHeight': 410, 'width': 410, 'height': 410, 'widthPercent': 0.45, 'rescaleHeight': False, 'trialN': 40, 'loaded': True, 'loadedTime': 5325, 'positionName': 'LEFT', 'positionCoords': [245.68, 179], 'bid': 6.74}, {'imgObject': {}, 'id': 'cocktailshrimp', 'src': '/static/foodstim60/cocktailshrimp.jpg', 'key': 'i', 'origWidth': 410, 'origHeight': 410, 'width': 410, 'height': 410, 'widthPercent': 0.45, 'rescaleHeight': False, 'trialN': 40, 'loaded': True, 'loadedTime': 5935, 'positionName': 'RIGHT', 'positionCoords': [710.32, 179], 'bid': 6.83}]",104090,1669834428757,shreddedwheatwithmilk,cocktailshrimp,6.74,6.83,0.08999999999999986,cocktailshrimp,1864,1880,1880,True,i,106473,2383,1669834431140,2383,HRV,HRV_0207,2022-11-30 18:58:48
41,"[{'imgObject': {}, 'id': 'tacos', 'src': '/static/foodstim60/tacos.jpg', 'key': 'u', 'origWidth': 411, 'origHeight': 411, 'width': 411, 'height': 411, 'widthPercent': 0.45, 'rescaleHeight': False, 'trialN': 41, 'loaded': True, 'loadedTime': 6660, 'positionName': 'LEFT', 'positionCoords': [244.68, 178.5], 'bid': 4.97}, {'imgObject': {}, 'id': 'hashbrowns', 'src': '/static/foodstim60/hashbrowns.jpg', 'key': 'i', 'origWidth': 411, 'origHeight': 410, 'width': 411, 'height': 410, 'widthPercent': 0.45, 'rescaleHeight': False, 'trialN': 41, 'loaded': True, 'loadedTime': 5982, 'positionName': 'RIGHT', 'positionCoords': [710.32, 179], 'bid': 6.15}]",106473,1669834431140,tacos,hashbrowns,4.97,6.15,1.1800000000000006,tacos,1842,1842,1842,True,u,108831,2358,1669834433498,2358,HRV,HRV_0207,2022-11-30 18:58:48
42,"[{'imgObject': {}, 'id': 'omelette', 'src': '/static/foodstim60/omelette.jpg', 'key': 'u', 'origWidth': 410, 'origHeight': 409, 'width': 410, 'height': 409, 'widthPercent': 0.45, 'rescaleHeight': False, 'trialN': 42, 'loaded': True, 'loadedTime': 6660, 'positionName': 'LEFT', 'positionCoords': [245.68, 179.5], 'bid': 5.87}, {'imgObject': {}, 'id': 'banana', 'src': '/static/foodstim60/banana.jpg', 'key': 'i', 'origWidth': 410, 'origHeight': 410, 'width': 410, 'height': 410, 'widthPercent': 0.45, 'rescaleHeight': False, 'trialN': 42, 'loaded': True, 'loadedTime': 5185, 'positionName': 'RIGHT', 'positionCoords': [710.32, 179], 'bid': 6.0600000000000005}]",108832,1669834433499,omelette,banana,5.87,6.0600000000000005,0.1900000000000004,banana,1382,1398,1398,True,i,110747,1915,1669834435414,1915,HRV,HRV_0207,2022-11-30 18:58:48
43,"[{'imgObject': {}, 'id': 'olives', 'src': '/static/foodstim60/olives.jpg', 'key': 'u', 'origWidth': 410, 'origHeight': 410, 'width': 410, 'height': 410, 'widthPercent': 0.45, 'rescaleHeight': False, 'trialN': 43, 'loaded': True, 'loadedTime': 5122, 'positionName': 'LEFT', 'positionCoords': [245.68, 179], 'bid': 7.45}, {'imgObject': {}, 'id': 'grilled chicken strips', 'src': '/static/foodstim60/grilled chicken strips.jpg', 'key': 'i', 'origWidth': 410, 'origHeight': 411, 'width': 410, 'height': 411, 'widthPercent': 0.45, 'rescaleHeight': False, 'trialN': 43, 'loaded': True, 'loadedTime': 6122, 'positionName': 'RIGHT', 'positionCoords': [710.32, 178.5], 'bid': 6.63}]",110748,1669834435415,olives,grilled chicken strips,7.45,6.63,-0.8200000000000003,grilled chicken strips,2111,2111,2111,True,i,113388,2640,1669834438055,2640,HRV,HRV_0207,2022-11-30 18:58:48
44,"[{'imgObject': {}, 'id': 'chickenfingers', 'src': '/static/foodstim60/chickenfingers.jpg', 'key': 'u', 'origWidth': 410, 'origHeight': 410, 'width': 410, 'height': 410, 'widthPercent': 0.45, 'rescaleHeight': False, 'trialN': 44, 'loaded': True, 'loadedTime': 6707, 'positionName': 'LEFT', 'positionCoords': [245.68, 179], 'bid': 7.66}, {'imgObject': {}, 'id': 'sushi w_condiments', 'src': '/static/foodstim60/sushi w_condiments.jpg', 'key': 'i', 'origWidth': 410, 'origHeight': 410, 'width': 410, 'height': 410, 'widthPercent': 0.45, 'rescaleHeight': False, 'trialN': 44, 'loaded': True, 'loadedTime': 5763, 'positionName': 'RIGHT', 'positionCoords': [710.32, 179], 'bid': 7.38}]",113388,1669834438055,chickenfingers,sushi w_condiments,7.66,7.38,-0.28000000000000025,chickenfingers,1456,1456,1456,True,u,115420,2032,1669834440087,2032,HRV,HRV_0207,2022-11-30 18:58:48
45,"[{'imgObject': {}, 'id': 'salad w chicken', 'src': '/static/foodstim60/salad w chicken.jpg', 'key': 'u', 'origWidth': 411, 'origHeight': 411, 'width': 411, 'height': 411, 'widthPercent': 0.45, 'rescaleHeight': False, 'trialN': 45, 'loaded': True, 'loadedTime': 6723, 'positionName': 'LEFT', 'positionCoords': [244.68, 178.5], 'bid': 7.41}, {'imgObject': {}, 'id': 'cherries', 'src': '/static/foodstim60/cherries.jpg', 'key': 'i', 'origWidth': 410, 'origHeight': 411, 'width': 410, 'height': 411, 'widthPercent': 0.45, 'rescaleHeight': False, 'trialN': 45, 'loaded': True, 'loadedTime': 6723, 'positionName': 'RIGHT', 'positionCoords': [710.32, 178.5], 'bid': 6.34}]",115420,1669834440087,salad w chicken,cherries,7.41,6.34,-1.0700000000000003,cherries,3019,3019,3019,True,i,118954,3534,1669834443621,3534,HRV,HRV_0207,2022-11-30 18:58:48
46,"[{'imgObject': {}, 'id': 'blueberries', 'src': '/static/foodstim60/blueberries.jpg', 'key': 'u', 'origWidth': 411, 'origHeight': 411, 'width': 411, 'height': 411, 'widthPercent': 0.45, 'rescaleHeight': False, 'trialN': 46, 'loaded': True, 'loadedTime': 6566, 'positionName': 'LEFT', 'positionCoords': [244.68, 178.5], 'bid': 7.75}, {'imgObject': {}, 'id': 'kiwi', 'src': '/static/foodstim60/kiwi.jpg', 'key': 'i', 'origWidth': 410, 'origHeight': 410, 'width': 410, 'height': 410, 'widthPercent': 0.45, 'rescaleHeight': False, 'trialN': 46, 'loaded': True, 'loadedTime': 6325, 'positionName': 'RIGHT', 'positionCoords': [710.32, 179], 'bid': 8.2}]",118954,1669834443621,blueberries,kiwi,7.75,8.2,0.4499999999999993,kiwi,1214,1214,1214,True,i,120714,1760,1669834445381,1760,HRV,HRV_0207,2022-11-30 18:58:48
47,"[{'imgObject': {}, 'id': 'roastedpotatoes', 'src': '/static/foodstim60/roastedpotatoes.jpg', 'key': 'u', 'origWidth': 409, 'origHeight': 410, 'width': 409, 'height': 410, 'widthPercent': 0.45, 'rescaleHeight': False, 'trialN': 47, 'loaded': True, 'loadedTime': 4825, 'positionName': 'LEFT', 'positionCoords': [246.68, 179], 'bid': 7.28}, {'imgObject': {}, 'id': 'burger', 'src': '/static/foodstim60/burger.jpg', 'key': 'i', 'origWidth': 409, 'origHeight': 409, 'width': 409, 'height': 409, 'widthPercent': 0.45, 'rescaleHeight': False, 'trialN': 47, 'loaded': True, 'loadedTime': 6738, 'positionName': 'RIGHT', 'positionCoords': [710.32, 179.5], 'bid': 6.91}]",120714,1669834445381,roastedpotatoes,burger,7.28,6.91,-0.3700000000000001,burger,2716,2716,2716,True,i,123942,3228,1669834448609,3228,HRV,HRV_0207,2022-11-30 18:58:48
48,"[{'imgObject': {}, 'id': 'granola w milk', 'src': '/static/foodstim60/granola w milk.jpg', 'key': 'u', 'origWidth': 410, 'origHeight': 410, 'width': 410, 'height': 410, 'widthPercent': 0.45, 'rescaleHeight': False, 'trialN': 48, 'loaded': True, 'loadedTime': 6738, 'positionName': 'LEFT', 'positionCoords': [245.68, 179], 'bid': 6.72}, {'imgObject': {}, 'id': 'shreddedwheatwithmilk', 'src': '/static/foodstim60/shreddedwheatwithmilk.jpg', 'key': 'i', 'origWidth': 410, 'origHeight': 410, 'width': 410, 'height': 410, 'widthPercent': 0.45, 'rescaleHeight': False, 'trialN': 48, 'loaded': True, 'loadedTime': 5310, 'positionName': 'RIGHT', 'positionCoords': [710.32, 179], 'bid': 6.74}]",123942,1669834448609,granola w milk,shreddedwheatwithmilk,6.72,6.74,0.020000000000000462,granola w milk,1387,1387,1387,True,u,125846,1904,1669834450513,1904,HRV,HRV_0207,2022-11-30 18:58:48
49,"[{'imgObject': {}, 'id': 'turkey sandwich', 'src': '/static/foodstim60/turkey sandwich.jpg', 'key': 'u', 'origWidth': 409, 'origHeight': 409, 'width': 409, 'height': 409, 'widthPercent': 0.45, 'rescaleHeight': False, 'trialN': 49, 'loaded': True, 'loadedTime': 4700, 'positionName': 'LEFT', 'positionCoords': [246.68, 179.5], 'bid': 5.2700000000000005}, {'imgObject': {}, 'id': 'pear', 'src': '/static/foodstim60/pear.jpg', 'key': 'i', 'origWidth': 411, 'origHeight': 410, 'width': 411, 'height': 410, 'widthPercent': 0.45, 'rescaleHeight': False, 'trialN': 49, 'loaded': True, 'loadedTime': 4997, 'positionName': 'RIGHT', 'positionCoords': [710.32, 179], 'bid': 6.21}]",125846,1669834450513,turkey sandwich,pear,5.2700000000000005,6.21,0.9399999999999995,pear,1139,1139,1139,True,i,127506,1660,1669834452173,1660,HRV,HRV_0207,2022-11-30 18:58:48
50,"[{'imgObject': {}, 'id': 'cheerios', 'src': '/static/foodstim60/cheerios.jpg', 'key': 'u', 'origWidth': 409, 'origHeight': 410, 'width': 409, 'height': 410, 'widthPercent': 0.45, 'rescaleHeight': False, 'trialN': 50, 'loaded': True, 'loadedTime': 5247, 'positionName': 'LEFT', 'positionCoords': [246.68, 179], 'bid': 5.36}, {'imgObject': {}, 'id': 'raspberries', 'src': '/static/foodstim60/raspberries.jpg', 'key': 'i', 'origWidth': 411, 'origHeight': 411, 'width': 411, 'height': 411, 'widthPercent': 0.45, 'rescaleHeight': False, 'trialN': 50, 'loaded': True, 'loadedTime': 6613, 'positionName': 'RIGHT', 'positionCoords': [710.32, 178.5], 'bid': 6.3}]",127507,1669834452174,cheerios,raspberries,5.36,6.3,0.9399999999999995,raspberries,1199,1199,1199,True,i,129220,1713,1669834453887,1713,HRV,HRV_0207,2022-11-30 18:58:48
51,"[{'imgObject': {}, 'id': 'grilled chicken strips', 'src': '/static/foodstim60/grilled chicken strips.jpg', 'key': 'u', 'origWidth': 410, 'origHeight': 411, 'width': 410, 'height': 411, 'widthPercent': 0.45, 'rescaleHeight': False, 'trialN': 51, 'loaded': True, 'loadedTime': 6091, 'positionName': 'LEFT', 'positionCoords': [245.68, 178.5], 'bid': 6.63}, {'imgObject': {}, 'id': 'raspberries', 'src': '/static/foodstim60/raspberries.jpg', 'key': 'i', 'origWidth': 411, 'origHeight': 411, 'width': 411, 'height': 411, 'widthPercent': 0.45, 'rescaleHeight': False, 'trialN': 51, 'loaded': True, 'loadedTime': 6613, 'positionName': 'RIGHT', 'positionCoords': [710.32, 178.5], 'bid': 6.3}]",129220,1669834453887,grilled chicken strips,raspberries,6.63,6.3,-0.33000000000000007,raspberries,2042,2042,2042,True,i,131782,2562,1669834456449,2562,HRV,HRV_0207,2022-11-30 18:58:48
52,"[{'imgObject': {}, 'id': 'kiwi', 'src': '/static/foodstim60/kiwi.jpg', 'key': 'u', 'origWidth': 410, 'origHeight': 410, 'width': 410, 'height': 410, 'widthPercent': 0.45, 'rescaleHeight': False, 'trialN': 52, 'loaded': True, 'loadedTime': 6325, 'positionName': 'LEFT', 'positionCoords': [245.68, 179], 'bid': 8.2}, {'imgObject': {}, 'id': 'apple slices', 'src': '/static/foodstim60/apple slices.jpg', 'key': 'i', 'origWidth': 409, 'origHeight': 410, 'width': 409, 'height': 410, 'widthPercent': 0.45, 'rescaleHeight': False, 'trialN': 52, 'loaded': True, 'loadedTime': 6754, 'positionName': 'RIGHT', 'positionCoords': [710.32, 179], 'bid': 7.37}]",131784,1669834456451,kiwi,apple slices,8.2,7.37,-0.8299999999999992,apple slices,1372,1372,1372,True,i,133668,1884,1669834458335,1884,HRV,HRV_0207,2022-11-30 18:58:48
53,"[{'imgObject': {}, 'id': 'Tribe humus pita', 'src': '/static/foodstim60/Tribe humus pita.jpg', 'key': 'u', 'origWidth': 411, 'origHeight': 411, 'width': 411, 'height': 411, 'widthPercent': 0.45, 'rescaleHeight': False, 'trialN': 53, 'loaded': True, 'loadedTime': 5013, 'positionName': 'LEFT', 'positionCoords': [244.68, 178.5], 'bid': 6.8500000000000005}, {'imgObject': {}, 'id': 'cherry tomato', 'src': '/static/foodstim60/cherry tomato.jpg', 'key': 'i', 'origWidth': 410, 'origHeight': 410, 'width': 410, 'height': 410, 'widthPercent': 0.45, 'rescaleHeight': False, 'trialN': 53, 'loaded': True, 'loadedTime': 6394, 'positionName': 'RIGHT', 'positionCoords': [710.32, 179], 'bid': 7.15}]",133669,1669834458336,Tribe humus pita,cherry tomato,6.8500000000000005,7.15,0.2999999999999998,cherry tomato,2620,2620,2620,True,i,136796,3127,1669834461463,3127,HRV,HRV_0207,2022-11-30 18:58:48
54,"[{'imgObject': {}, 'id': 'mashed potato', 'src': '/static/foodstim60/mashed potato.jpg', 'key': 'u', 'origWidth': 409, 'origHeight': 409, 'width': 409, 'height': 409, 'widthPercent': 0.45, 'rescaleHeight': False, 'trialN': 54, 'loaded': True, 'loadedTime': 5825, 'positionName': 'LEFT', 'positionCoords': [246.68, 179.5], 'bid': 6.69}, {'imgObject': {}, 'id': 'edamame', 'src': '/static/foodstim60/edamame.jpg', 'key': 'i', 'origWidth': 409, 'origHeight': 410, 'width': 409, 'height': 410, 'widthPercent': 0.45, 'rescaleHeight': False, 'trialN': 54, 'loaded': True, 'loadedTime': 6483, 'positionName': 'RIGHT', 'positionCoords': [710.32, 179], 'bid': 6.71}]",136796,1669834461463,mashed potato,edamame,6.69,6.71,0.019999999999999574,edamame,1766,1766,1766,True,i,139132,2336,1669834463799,2336,HRV,HRV_0207,2022-11-30 18:58:48
55,"[{'imgObject': {}, 'id': 'fruitsalad', 'src': '/static/foodstim60/fruitsalad.jpg', 'key': 'u', 'origWidth': 410, 'origHeight': 410, 'width': 410, 'height': 410, 'widthPercent': 0.45, 'rescaleHeight': False, 'trialN': 55, 'loaded': True, 'loadedTime': 6409, 'positionName': 'LEFT', 'positionCoords': [245.68, 179], 'bid': 6.33}, {'imgObject': {}, 'id': 'mashed potato', 'src': '/static/foodstim60/mashed potato.jpg', 'key': 'i', 'origWidth': 409, 'origHeight': 409, 'width': 409, 'height': 409, 'widthPercent': 0.45, 'rescaleHeight': False, 'trialN': 55, 'loaded': True, 'loadedTime': 5810, 'positionName': 'RIGHT', 'positionCoords': [710.32, 179.5], 'bid': 6.69}]",139138,1669834463805,fruitsalad,mashed potato,6.33,6.69,0.3600000000000003,fruitsalad,1351,1351,1351,True,u,141048,1910,1669834465715,1910,HRV,HRV_0207,2022-11-30 18:58:48
56,"[{'imgObject': {}, 'id': 'burrito', 'src': '/static/foodstim60/burrito.jpg', 'key': 'u', 'origWidth': 410, 'origHeight': 410, 'width': 410, 'height': 410, 'widthPercent': 0.45, 'rescaleHeight': False, 'trialN': 56, 'loaded': True, 'loadedTime': 5091, 'positionName': 'LEFT', 'positionCoords': [245.68, 179], 'bid': 7.35}, {'imgObject': {}, 'id': 'lox', 'src': '/static/foodstim60/lox.jpg', 'key': 'i', 'origWidth': 410, 'origHeight': 411, 'width': 410, 'height': 411, 'widthPercent': 0.45, 'rescaleHeight': False, 'trialN': 56, 'loaded': True, 'loadedTime': 6582, 'positionName': 'RIGHT', 'positionCoords': [710.32, 178.5], 'bid': 8.13}]",141048,1669834465715,burrito,lox,7.35,8.13,0.7800000000000011,lox,1218,1218,1218,True,i,142783,1735,1669834467450,1735,HRV,HRV_0207,2022-11-30 18:58:48
57,"[{'imgObject': {}, 'id': 'omelette', 'src': '/static/foodstim60/omelette.jpg', 'key': 'u', 'origWidth': 410, 'origHeight': 409, 'width': 410, 'height': 409, 'widthPercent': 0.45, 'rescaleHeight': False, 'trialN': 57, 'loaded': True, 'loadedTime': 6692, 'positionName': 'LEFT', 'positionCoords': [245.68, 179.5], 'bid': 5.87}, {'imgObject': {}, 'id': 'strawberries', 'src': '/static/foodstim60/strawberries.jpg', 'key': 'i', 'origWidth': 410, 'origHeight': 410, 'width': 410, 'height': 410, 'widthPercent': 0.45, 'rescaleHeight': False, 'trialN': 57, 'loaded': True, 'loadedTime': 4997, 'positionName': 'RIGHT', 'positionCoords': [710.32, 179], 'bid': 5.92}]",142783,1669834467450,omelette,strawberries,5.87,5.92,0.04999999999999982,strawberries,1278,1278,1278,True,i,144578,1795,1669834469245,1795,HRV,HRV_0207,2022-11-30 18:58:48
58,"[{'imgObject': {}, 'id': 'apple slices', 'src': '/static/foodstim60/apple slices.jpg', 'key': 'u', 'origWidth': 409, 'origHeight': 410, 'width': 409, 'height': 410, 'widthPercent': 0.45, 'rescaleHeight': False, 'trialN': 58, 'loaded': True, 'loadedTime': 6754, 'positionName': 'LEFT', 'positionCoords': [246.68, 179], 'bid': 7.37}, {'imgObject': {}, 'id': 'seaweed', 'src': '/static/foodstim60/seaweed.jpg', 'key': 'i', 'origWidth': 410, 'origHeight': 410, 'width': 410, 'height': 410, 'widthPercent': 0.45, 'rescaleHeight': False, 'trialN': 58, 'loaded': True, 'loadedTime': 6469, 'positionName': 'RIGHT', 'positionCoords': [710.32, 179], 'bid': 7.59}]",144578,1669834469245,apple slices,seaweed,7.37,7.59,0.21999999999999975,apple slices,1156,1156,1156,True,u,146254,1676,1669834470921,1676,HRV,HRV_0207,2022-11-30 18:58:48
59,"[{'imgObject': {}, 'id': 'omelette', 'src': '/static/foodstim60/omelette.jpg', 'key': 'u', 'origWidth': 410, 'origHeight': 409, 'width': 410, 'height': 409, 'widthPercent': 0.45, 'rescaleHeight': False, 'trialN': 59, 'loaded': True, 'loadedTime': 6660, 'positionName': 'LEFT', 'positionCoords': [245.68, 179.5], 'bid': 5.87}, {'imgObject': {}, 'id': 'turkeysandwich', 'src': '/static/foodstim60/turkeysandwich.jpg', 'key': 'i', 'origWidth': 409, 'origHeight': 409, 'width': 409, 'height': 409, 'widthPercent': 0.45, 'rescaleHeight': False, 'trialN': 59, 'loaded': True, 'loadedTime': 6754, 'positionName': 'RIGHT', 'positionCoords': [710.32, 179.5], 'bid': 7.28}]",146254,1669834470921,omelette,turkeysandwich,5.87,7.28,1.4100000000000001,turkeysandwich,1956,1956,1956,True,i,148779,2525,1669834473446,2525,HRV,HRV_0207,2022-11-30 18:58:48
60,"[{'imgObject': {}, 'id': 'apple slices', 'src': '/static/foodstim60/apple slices.jpg', 'key': 'u', 'origWidth': 409, 'origHeight': 410, 'width': 409, 'height': 410, 'widthPercent': 0.45, 'rescaleHeight': False, 'trialN': 60, 'loaded': True, 'loadedTime': 6754, 'positionName': 'LEFT', 'positionCoords': [246.68, 179], 'bid': 7.37}, {'imgObject': {}, 'id': 'burrito', 'src': '/static/foodstim60/burrito.jpg', 'key': 'i', 'origWidth': 410, 'origHeight': 410, 'width': 410, 'height': 410, 'widthPercent': 0.45, 'rescaleHeight': False, 'trialN': 60, 'loaded': True, 'loadedTime': 5091, 'positionName': 'RIGHT', 'positionCoords': [710.32, 179], 'bid': 7.35}]",148779,1669834473446,apple slices,burrito,7.37,7.35,-0.020000000000000462,apple slices,1116,1131,1131,True,u,150592,1813,1669834475259,1813,HRV,HRV_0207,2022-11-30 18:58:48
61,"[{'imgObject': {}, 'id': 'avocado', 'src': '/static/foodstim60/avocado.jpg', 'key': 'u', 'origWidth': 409, 'origHeight': 409, 'width': 409, 'height': 409, 'widthPercent': 0.45, 'rescaleHeight': False, 'trialN': 61, 'loaded': True, 'loadedTime': 6629, 'positionName': 'LEFT', 'positionCoords': [246.68, 179.5], 'bid': 6.59}, {'imgObject': {}, 'id': 'eggsalad', 'src': '/static/foodstim60/eggsalad.jpg', 'key': 'i', 'origWidth': 410, 'origHeight': 409, 'width': 410, 'height': 409, 'widthPercent': 0.45, 'rescaleHeight': False, 'trialN': 61, 'loaded': True, 'loadedTime': 6154, 'positionName': 'RIGHT', 'positionCoords': [710.32, 179.5], 'bid': 7.44}]",150592,1669834475259,avocado,eggsalad,6.59,7.44,0.8500000000000005,avocado,2688,2688,2688,True,u,153796,3204,1669834478463,3204,HRV,HRV_0207,2022-11-30 18:58:48
62,"[{'imgObject': {}, 'id': 'sweetpotato', 'src': '/static/foodstim60/sweetpotato.jpg', 'key': 'u', 'origWidth': 410, 'origHeight': 410, 'width': 410, 'height': 410, 'widthPercent': 0.45, 'rescaleHeight': False, 'trialN': 62, 'loaded': True, 'loadedTime': 5732, 'positionName': 'LEFT', 'positionCoords': [245.68, 179], 'bid': 4.91}, {'imgObject': {}, 'id': 'hotdog w must', 'src': '/static/foodstim60/hotdog w must.jpg', 'key': 'i', 'origWidth': 409, 'origHeight': 409, 'width': 409, 'height': 409, 'widthPercent': 0.45, 'rescaleHeight': False, 'trialN': 62, 'loaded': True, 'loadedTime': 6754, 'positionName': 'RIGHT', 'positionCoords': [710.32, 179.5], 'bid': 6.97}]",153797,1669834478464,sweetpotato,hotdog w must,4.91,6.97,2.0599999999999996,sweetpotato,1866,1866,1866,True,u,156187,2390,1669834480854,2390,HRV,HRV_0207,2022-11-30 18:58:48
63,"[{'imgObject': {}, 'id': 'mango', 'src': '/static/foodstim60/mango.jpg', 'key': 'u', 'origWidth': 411, 'origHeight': 411, 'width': 411, 'height': 411, 'widthPercent': 0.45, 'rescaleHeight': False, 'trialN': 63, 'loaded': True, 'loadedTime': 6279, 'positionName': 'LEFT', 'positionCoords': [244.68, 178.5], 'bid': 8.64}, {'imgObject': {}, 'id': 'burger', 'src': '/static/foodstim60/burger.jpg', 'key': 'i', 'origWidth': 409, 'origHeight': 409, 'width': 409, 'height': 409, 'widthPercent': 0.45, 'rescaleHeight': False, 'trialN': 63, 'loaded': True, 'loadedTime': 6723, 'positionName': 'RIGHT', 'positionCoords': [710.32, 179.5], 'bid': 6.91}]",156187,1669834480854,mango,burger,8.64,6.91,-1.7300000000000004,mango,1437,1453,1453,True,u,158140,1953,1669834482807,1953,HRV,HRV_0207,2022-11-30 18:58:48
64,"[{'imgObject': {}, 'id': 'hotdog w must', 'src': '/static/foodstim60/hotdog w must.jpg', 'key': 'u', 'origWidth': 409, 'origHeight': 409, 'width': 409, 'height': 409, 'widthPercent': 0.45, 'rescaleHeight': False, 'trialN': 64, 'loaded': True, 'loadedTime': 6770, 'positionName': 'LEFT', 'positionCoords': [246.68, 179.5], 'bid': 6.97}, {'imgObject': {}, 'id': 'baked potato', 'src': '/static/foodstim60/baked potato.jpg', 'key': 'i', 'origWidth': 409, 'origHeight': 410, 'width': 409, 'height': 410, 'widthPercent': 0.45, 'rescaleHeight': False, 'trialN': 64, 'loaded': True, 'loadedTime': 6785, 'positionName': 'RIGHT', 'positionCoords': [710.32, 179], 'bid': 6.65}]",158141,1669834482808,hotdog w must,baked potato,6.97,6.65,-0.3199999999999994,baked potato,1844,1844,1844,True,i,160503,2362,1669834485170,2362,HRV,HRV_0207,2022-11-30 18:58:48
65,"[{'imgObject': {}, 'id': 'mac & cheese', 'src': '/static/foodstim60/mac & cheese.jpg', 'key': 'u', 'origWidth': 410, 'origHeight': 410, 'width': 410, 'height': 410, 'widthPercent': 0.45, 'rescaleHeight': False, 'trialN': 65, 'loaded': True, 'loadedTime': 5169, 'positionName': 'LEFT', 'positionCoords': [245.68, 179], 'bid': 7.31}, {'imgObject': {}, 'id': 'burrito', 'src': '/static/foodstim60/burrito.jpg', 'key': 'i', 'origWidth': 410, 'origHeight': 410, 'width': 410, 'height': 410, 'widthPercent': 0.45, 'rescaleHeight': False, 'trialN': 65, 'loaded': True, 'loadedTime': 5075, 'positionName': 'RIGHT', 'positionCoords': [710.32, 179], 'bid': 7.35}]",160503,1669834485170,mac & cheese,burrito,7.31,7.35,0.040000000000000036,mac & cheese,1277,1277,1277,True,u,162286,1783,1669834486953,1783,HRV,HRV_0207,2022-11-30 18:58:48
66,"[{'imgObject': {}, 'id': 'cherries', 'src': '/static/foodstim60/cherries.jpg', 'key': 'u', 'origWidth': 410, 'origHeight': 411, 'width': 410, 'height': 411, 'widthPercent': 0.45, 'rescaleHeight': False, 'trialN': 66, 'loaded': True, 'loadedTime': 6723, 'positionName': 'LEFT', 'positionCoords': [245.68, 178.5], 'bid': 6.34}, {'imgObject': {}, 'id': 'luckycharms', 'src': '/static/foodstim60/luckycharms.jpg', 'key': 'i', 'origWidth': 410, 'origHeight': 409, 'width': 410, 'height': 409, 'widthPercent': 0.45, 'rescaleHeight': False, 'trialN': 66, 'loaded': True, 'loadedTime': 5700, 'positionName': 'RIGHT', 'positionCoords': [710.32, 179.5], 'bid': 5.83}]",162286,1669834486953,cherries,luckycharms,6.34,5.83,-0.5099999999999998,cherries,1603,1603,1603,True,u,164402,2116,1669834489069,2116,HRV,HRV_0207,2022-11-30 18:58:48
67,"[{'imgObject': {}, 'id': 'veggieswithdip', 'src': '/static/foodstim60/veggieswithdip.jpg', 'key': 'u', 'origWidth': 409, 'origHeight': 409, 'width': 409, 'height': 409, 'widthPercent': 0.45, 'rescaleHeight': False, 'trialN': 67, 'loaded': True, 'loadedTime': 6785, 'positionName': 'LEFT', 'positionCoords': [246.68, 179.5], 'bid': 4.07}, {'imgObject': {}, 'id': 'salmon', 'src': '/static/foodstim60/salmon.jpg', 'key': 'i', 'origWidth': 410, 'origHeight': 409, 'width': 410, 'height': 409, 'widthPercent': 0.45, 'rescaleHeight': False, 'trialN': 67, 'loaded': True, 'loadedTime': 5935, 'positionName': 'RIGHT', 'positionCoords': [710.32, 179.5], 'bid': 6.91}]",164402,1669834489069,veggieswithdip,salmon,4.07,6.91,2.84,salmon,1685,1685,1685,True,i,166603,2201,1669834491270,2201,HRV,HRV_0207,2022-11-30 18:58:48
68,"[{'imgObject': {}, 'id': 'orange slices', 'src': '/static/foodstim60/orange slices.jpg', 'key': 'u', 'origWidth': 409, 'origHeight': 410, 'width': 409, 'height': 410, 'widthPercent': 0.45, 'rescaleHeight': False, 'trialN': 68, 'loaded': True, 'loadedTime': 6551, 'positionName': 'LEFT', 'positionCoords': [246.68, 179], 'bid': 7.38}, {'imgObject': {}, 'id': 'mac & cheese', 'src': '/static/foodstim60/mac & cheese.jpg', 'key': 'i', 'origWidth': 410, 'origHeight': 410, 'width': 410, 'height': 410, 'widthPercent': 0.45, 'rescaleHeight': False, 'trialN': 68, 'loaded': True, 'loadedTime': 5185, 'positionName': 'RIGHT', 'positionCoords': [710.32, 179], 'bid': 7.31}]",166603,1669834491270,orange slices,mac & cheese,7.38,7.31,-0.07000000000000028,orange slices,1116,1116,1116,True,u,168234,1631,1669834492901,1631,HRV,HRV_0207,2022-11-30 18:58:48
69,"[{'imgObject': {}, 'id': 'pear', 'src': '/static/foodstim60/pear.jpg', 'key': 'u', 'origWidth': 411, 'origHeight': 410, 'width': 411, 'height': 410, 'widthPercent': 0.45, 'rescaleHeight': False, 'trialN': 69, 'loaded': True, 'loadedTime': 5013, 'positionName': 'LEFT', 'positionCoords': [244.68, 179], 'bid': 6.21}, {'imgObject': {}, 'id': 'steak', 'src': '/static/foodstim60/steak.jpg', 'key': 'i', 'origWidth': 410, 'origHeight': 410, 'width': 410, 'height': 410, 'widthPercent': 0.45, 'rescaleHeight': False, 'trialN': 69, 'loaded': True, 'loadedTime': 4872, 'positionName': 'RIGHT', 'positionCoords': [710.32, 179], 'bid': 6.33}]",168234,1669834492901,pear,steak,6.21,6.33,0.1200000000000001,pear,1541,1541,1541,True,u,170286,2052,1669834494953,2052,HRV,HRV_0207,2022-11-30 18:58:48
70,"[{'imgObject': {}, 'id': 'roastedpotatoes', 'src': '/static/foodstim60/roastedpotatoes.jpg', 'key': 'u', 'origWidth': 409, 'origHeight': 410, 'width': 409, 'height': 410, 'widthPercent': 0.45, 'rescaleHeight': False, 'trialN': 70, 'loaded': True, 'loadedTime': 4841, 'positionName': 'LEFT', 'positionCoords': [246.68, 179], 'bid': 7.28}, {'imgObject': {}, 'id': 'sushi w_condiments', 'src': '/static/foodstim60/sushi w_condiments.jpg', 'key': 'i', 'origWidth': 410, 'origHeight': 410, 'width': 410, 'height': 410, 'widthPercent': 0.45, 'rescaleHeight': False, 'trialN': 70, 'loaded': True, 'loadedTime': 5810, 'positionName': 'RIGHT', 'positionCoords': [710.32, 179], 'bid': 7.38}]",170286,1669834494953,roastedpotatoes,sushi w_condiments,7.28,7.38,0.09999999999999964,sushi w_condiments,1651,1651,1651,True,i,172452,2166,1669834497119,2166,HRV,HRV_0207,2022-11-30 18:58:48
71,"[{'imgObject': {}, 'id': 'omelette', 'src': '/static/foodstim60/omelette.jpg', 'key': 'u', 'origWidth': 410, 'origHeight': 409, 'width': 410, 'height': 409, 'widthPercent': 0.45, 'rescaleHeight': False, 'trialN': 71, 'loaded': True, 'loadedTime': 6660, 'positionName': 'LEFT', 'positionCoords': [245.68, 179.5], 'bid': 5.87}, {'imgObject': {}, 'id': 'Grapes', 'src': '/static/foodstim60/Grapes.jpg', 'key': 'i', 'origWidth': 411, 'origHeight': 411, 'width': 411, 'height': 411, 'widthPercent': 0.45, 'rescaleHeight': False, 'trialN': 71, 'loaded': True, 'loadedTime': 4747, 'positionName': 'RIGHT', 'positionCoords': [710.32, 178.5], 'bid': 6.5600000000000005}]",172452,1669834497119,omelette,Grapes,5.87,6.5600000000000005,0.6900000000000004,Grapes,1282,1282,1282,True,i,174454,2002,1669834499121,2002,HRV,HRV_0207,2022-11-30 18:58:48
72,"[{'imgObject': {}, 'id': 'rigatoni', 'src': '/static/foodstim60/rigatoni.jpg', 'key': 'u', 'origWidth': 411, 'origHeight': 411, 'width': 411, 'height': 411, 'widthPercent': 0.45, 'rescaleHeight': False, 'trialN': 72, 'loaded': True, 'loadedTime': 6598, 'positionName': 'LEFT', 'positionCoords': [244.68, 178.5], 'bid': 7.38}, {'imgObject': {}, 'id': 'mango', 'src': '/static/foodstim60/mango.jpg', 'key': 'i', 'origWidth': 411, 'origHeight': 411, 'width': 411, 'height': 411, 'widthPercent': 0.45, 'rescaleHeight': False, 'trialN': 72, 'loaded': True, 'loadedTime': 6232, 'positionName': 'RIGHT', 'positionCoords': [710.32, 178.5], 'bid': 8.64}]",174466,1669834499133,rigatoni,mango,7.38,8.64,1.2600000000000007,mango,1338,1338,1338,True,i,176330,1864,1669834500997,1864,HRV,HRV_0207,2022-11-30 18:58:48
73,"[{'imgObject': {}, 'id': 'popsicles', 'src': '/static/foodstim60/popsicles.jpg', 'key': 'u', 'origWidth': 410, 'origHeight': 410, 'width': 410, 'height': 410, 'widthPercent': 0.45, 'rescaleHeight': False, 'trialN': 73, 'loaded': True, 'loadedTime': 4919, 'positionName': 'LEFT', 'positionCoords': [245.68, 179], 'bid': 5.39}, {'imgObject': {}, 'id': 'grilled chicken strips', 'src': '/static/foodstim60/grilled chicken strips.jpg', 'key': 'i', 'origWidth': 410, 'origHeight': 411, 'width': 410, 'height': 411, 'widthPercent': 0.45, 'rescaleHeight': False, 'trialN': 73, 'loaded': True, 'loadedTime': 6122, 'positionName': 'RIGHT', 'positionCoords': [710.32, 178.5], 'bid': 6.63}]",176330,1669834500997,popsicles,grilled chicken strips,5.39,6.63,1.2400000000000002,grilled chicken strips,2037,2053,2053,True,i,178906,2576,1669834503573,2576,HRV,HRV_0207,2022-11-30 18:58:48
74,"[{'imgObject': {}, 'id': 'banana', 'src': '/static/foodstim60/banana.jpg', 'key': 'u', 'origWidth': 410, 'origHeight': 410, 'width': 410, 'height': 410, 'widthPercent': 0.45, 'rescaleHeight': False, 'trialN': 74, 'loaded': True, 'loadedTime': 5216, 'positionName': 'LEFT', 'positionCoords': [245.68, 179], 'bid': 6.0600000000000005}, {'imgObject': {}, 'id': 'mac & cheese', 'src': '/static/foodstim60/mac & cheese.jpg', 'key': 'i', 'origWidth': 410, 'origHeight': 410, 'width': 410, 'height': 410, 'widthPercent': 0.45, 'rescaleHeight': False, 'trialN': 74, 'loaded': True, 'loadedTime': 5185, 'positionName': 'RIGHT', 'positionCoords': [710.32, 179], 'bid': 7.31}]",178906,1669834503573,banana,mac & cheese,6.0600000000000005,7.31,1.2499999999999991,banana,1248,1248,1248,True,u,180671,1765,1669834505338,1765,HRV,HRV_0207,2022-11-30 18:58:48
75,"[{'imgObject': {}, 'id': 'lox', 'src': '/static/foodstim60/lox.jpg', 'key': 'u', 'origWidth': 410, 'origHeight': 411, 'width': 410, 'height': 411, 'widthPercent': 0.45, 'rescaleHeight': False, 'trialN': 75, 'loaded': True, 'loadedTime': 6582, 'positionName': 'LEFT', 'positionCoords': [245.68, 178.5], 'bid': 8.13}, {'imgObject': {}, 'id': 'blueberries', 'src': '/static/foodstim60/blueberries.jpg', 'key': 'i', 'origWidth': 411, 'origHeight': 411, 'width': 411, 'height': 411, 'widthPercent': 0.45, 'rescaleHeight': False, 'trialN': 75, 'loaded': True, 'loadedTime': 6582, 'positionName': 'RIGHT', 'positionCoords': [710.32, 178.5], 'bid': 7.75}]",180671,1669834505338,lox,blueberries,8.13,7.75,-0.3800000000000008,blueberries,1885,1901,1901,True,i,183085,2414,1669834507752,2414,HRV,HRV_0207,2022-11-30 18:58:48
76,"[{'imgObject': {}, 'id': 'hotdog w must', 'src': '/static/foodstim60/hotdog w must.jpg', 'key': 'u', 'origWidth': 409, 'origHeight': 409, 'width': 409, 'height': 409, 'widthPercent': 0.45, 'rescaleHeight': False, 'trialN': 76, 'loaded': True, 'loadedTime': 6770, 'positionName': 'LEFT', 'positionCoords': [246.68, 179.5], 'bid': 6.97}, {'imgObject': {}, 'id': 'salmon', 'src': '/static/foodstim60/salmon.jpg', 'key': 'i', 'origWidth': 410, 'origHeight': 409, 'width': 410, 'height': 409, 'widthPercent': 0.45, 'rescaleHeight': False, 'trialN': 76, 'loaded': True, 'loadedTime': 5950, 'positionName': 'RIGHT', 'positionCoords': [710.32, 179.5], 'bid': 6.91}]",183086,1669834507753,hotdog w must,salmon,6.97,6.91,-0.05999999999999961,hotdog w must,1443,1443,1443,True,u,185051,1965,1669834509718,1965,HRV,HRV_0207,2022-11-30 18:58:48
77,"[{'imgObject': {}, 'id': 'cherries', 'src': '/static/foodstim60/cherries.jpg', 'key': 'u', 'origWidth': 410, 'origHeight': 411, 'width': 410, 'height': 411, 'widthPercent': 0.45, 'rescaleHeight': False, 'trialN': 77, 'loaded': True, 'loadedTime': 6723, 'positionName': 'LEFT', 'positionCoords': [245.68, 178.5], 'bid': 6.34}, {'imgObject': {}, 'id': 'fruitsalad', 'src': '/static/foodstim60/fruitsalad.jpg', 'key': 'i', 'origWidth': 410, 'origHeight': 410, 'width': 410, 'height': 410, 'widthPercent': 0.45, 'rescaleHeight': False, 'trialN': 77, 'loaded': True, 'loadedTime': 6422, 'positionName': 'RIGHT', 'positionCoords': [710.32, 179], 'bid': 6.33}]",185051,1669834509718,cherries,fruitsalad,6.34,6.33,-0.009999999999999787,cherries,1369,1369,1369,True,u,186936,1885,1669834511603,1885,HRV,HRV_0207,2022-11-30 18:58:48
78,"[{'imgObject': {}, 'id': 'omelette', 'src': '/static/foodstim60/omelette.jpg', 'key': 'u', 'origWidth': 410, 'origHeight': 409, 'width': 410, 'height': 409, 'widthPercent': 0.45, 'rescaleHeight': False, 'trialN': 78, 'loaded': True, 'loadedTime': 6692, 'positionName': 'LEFT', 'positionCoords': [245.68, 179.5], 'bid': 5.87}, {'imgObject': {}, 'id': 'tacos', 'src': '/static/foodstim60/tacos.jpg', 'key': 'i', 'origWidth': 411, 'origHeight': 411, 'width': 411, 'height': 411, 'widthPercent': 0.45, 'rescaleHeight': False, 'trialN': 78, 'loaded': True, 'loadedTime': 6645, 'positionName': 'RIGHT', 'positionCoords': [710.32, 178.5], 'bid': 4.97}]",186936,1669834511603,omelette,tacos,5.87,4.97,-0.9000000000000004,tacos,1405,1405,1405,True,i,188867,1931,1669834513534,1931,HRV,HRV_0207,2022-11-30 18:58:48
79,"[{'imgObject': {}, 'id': 'granola w milk', 'src': '/static/foodstim60/granola w milk.jpg', 'key': 'u', 'origWidth': 410, 'origHeight': 410, 'width': 410, 'height': 410, 'widthPercent': 0.45, 'rescaleHeight': False, 'trialN': 79, 'loaded': True, 'loadedTime': 6738, 'positionName': 'LEFT', 'positionCoords': [245.68, 179], 'bid': 6.72}, {'imgObject': {}, 'id': 'strawberries', 'src': '/static/foodstim60/strawberries.jpg', 'key': 'i', 'origWidth': 410, 'origHeight': 410, 'width': 410, 'height': 410, 'widthPercent': 0.45, 'rescaleHeight': False, 'trialN': 79, 'loaded': True, 'loadedTime': 4982, 'positionName': 'RIGHT', 'positionCoords': [710.32, 179], 'bid': 5.92}]",188867,1669834513534,granola w milk,strawberries,6.72,5.92,-0.7999999999999998,strawberries,1067,1067,1067,True,i,190518,1651,1669834515185,1651,HRV,HRV_0207,2022-11-30 18:58:48
80,"[{'imgObject': {}, 'id': 'ice cream sundae 002', 'src': '/static/foodstim60/ice cream sundae 002.jpg', 'key': 'u', 'origWidth': 409, 'origHeight': 409, 'width': 409, 'height': 409, 'widthPercent': 0.45, 'rescaleHeight': False, 'trialN': 80, 'loaded': True, 'loadedTime': 5841, 'positionName': 'LEFT', 'positionCoords': [246.68, 179.5], 'bid': 6.78}, {'imgObject': {}, 'id': 'bagel and cc', 'src': '/static/foodstim60/bagel and cc.jpg', 'key': 'i', 'origWidth': 410, 'origHeight': 410, 'width': 410, 'height': 410, 'widthPercent': 0.45, 'rescaleHeight': False, 'trialN': 80, 'loaded': True, 'loadedTime': 6357, 'positionName': 'RIGHT', 'positionCoords': [710.32, 179], 'bid': 7}]",190518,1669834515185,ice cream sundae 002,bagel and cc,6.78,7.0,0.21999999999999975,ice cream sundae 002,1294,1294,1294,True,u,192324,1806,1669834516991,1806,HRV,HRV_0207,2022-11-30 18:58:48
81,"[{'imgObject': {}, 'id': 'mac & cheese', 'src': '/static/foodstim60/mac & cheese.jpg', 'key': 'u', 'origWidth': 410, 'origHeight': 410, 'width': 410, 'height': 410, 'widthPercent': 0.45, 'rescaleHeight': False, 'trialN': 81, 'loaded': True, 'loadedTime': 5185, 'positionName': 'LEFT', 'positionCoords': [245.68, 179], 'bid': 7.31}, {'imgObject': {}, 'id': 'chickenfingers', 'src': '/static/foodstim60/chickenfingers.jpg', 'key': 'i', 'origWidth': 410, 'origHeight': 410, 'width': 410, 'height': 410, 'widthPercent': 0.45, 'rescaleHeight': False, 'trialN': 81, 'loaded': True, 'loadedTime': 6707, 'positionName': 'RIGHT', 'positionCoords': [710.32, 179], 'bid': 7.66}]",192324,1669834516991,mac & cheese,chickenfingers,7.31,7.66,0.35000000000000053,chickenfingers,1276,1276,1276,True,i,194108,1784,1669834518775,1784,HRV,HRV_0207,2022-11-30 18:58:48
82,"[{'imgObject': {}, 'id': 'mac & cheese', 'src': '/static/foodstim60/mac & cheese.jpg', 'key': 'u', 'origWidth': 410, 'origHeight': 410, 'width': 410, 'height': 410, 'widthPercent': 0.45, 'rescaleHeight': False, 'trialN': 82, 'loaded': True, 'loadedTime': 5169, 'positionName': 'LEFT', 'positionCoords': [245.68, 179], 'bid': 7.31}, {'imgObject': {}, 'id': 'cantaloupe', 'src': '/static/foodstim60/cantaloupe.jpg', 'key': 'i', 'origWidth': 409, 'origHeight': 409, 'width': 409, 'height': 409, 'widthPercent': 0.45, 'rescaleHeight': False, 'trialN': 82, 'loaded': True, 'loadedTime': 6785, 'positionName': 'RIGHT', 'positionCoords': [710.32, 179.5], 'bid': 7.34}]",194108,1669834518775,mac & cheese,cantaloupe,7.31,7.34,0.03000000000000025,cantaloupe,1311,1311,1311,True,i,195937,1829,1669834520604,1829,HRV,HRV_0207,2022-11-30 18:58:48
83,"[{'imgObject': {}, 'id': 'veggieswithdip', 'src': '/static/foodstim60/veggieswithdip.jpg', 'key': 'u', 'origWidth': 409, 'origHeight': 409, 'width': 409, 'height': 409, 'widthPercent': 0.45, 'rescaleHeight': False, 'trialN': 83, 'loaded': True, 'loadedTime': 6785, 'positionName': 'LEFT', 'positionCoords': [246.68, 179.5], 'bid': 4.07}, {'imgObject': {}, 'id': 'tacos', 'src': '/static/foodstim60/tacos.jpg', 'key': 'i', 'origWidth': 411, 'origHeight': 411, 'width': 411, 'height': 411, 'widthPercent': 0.45, 'rescaleHeight': False, 'trialN': 83, 'loaded': True, 'loadedTime': 6645, 'positionName': 'RIGHT', 'positionCoords': [710.32, 178.5], 'bid': 4.97}]",195938,1669834520605,veggieswithdip,tacos,4.07,4.97,0.8999999999999995,tacos,2246,2246,2246,True,i,198708,2770,1669834523375,2770,HRV,HRV_0207,2022-11-30 18:58:48
84,"[{'imgObject': {}, 'id': 'cheerios', 'src': '/static/foodstim60/cheerios.jpg', 'key': 'u', 'origWidth': 409, 'origHeight': 410, 'width': 409, 'height': 410, 'widthPercent': 0.45, 'rescaleHeight': False, 'trialN': 84, 'loaded': True, 'loadedTime': 5232, 'positionName': 'LEFT', 'positionCoords': [246.68, 179], 'bid': 5.36}, {'imgObject': {}, 'id': 'avocado', 'src': '/static/foodstim60/avocado.jpg', 'key': 'i', 'origWidth': 409, 'origHeight': 409, 'width': 409, 'height': 409, 'widthPercent': 0.45, 'rescaleHeight': False, 'trialN': 84, 'loaded': True, 'loadedTime': 6645, 'positionName': 'RIGHT', 'positionCoords': [710.32, 179.5], 'bid': 6.59}]",198708,1669834523375,cheerios,avocado,5.36,6.59,1.2299999999999995,cheerios,1277,1277,1277,True,u,200501,1793,1669834525168,1793,HRV,HRV_0207,2022-11-30 18:58:48
85,"[{'imgObject': {}, 'id': 'cheerios', 'src': '/static/foodstim60/cheerios.jpg', 'key': 'u', 'origWidth': 409, 'origHeight': 410, 'width': 409, 'height': 410, 'widthPercent': 0.45, 'rescaleHeight': False, 'trialN': 85, 'loaded': True, 'loadedTime': 5232, 'positionName': 'LEFT', 'positionCoords': [246.68, 179], 'bid': 5.36}, {'imgObject': {}, 'id': 'cherry tomato', 'src': '/static/foodstim60/cherry tomato.jpg', 'key': 'i', 'origWidth': 410, 'origHeight': 410, 'width': 410, 'height': 410, 'widthPercent': 0.45, 'rescaleHeight': False, 'trialN': 85, 'loaded': True, 'loadedTime': 6395, 'positionName': 'RIGHT', 'positionCoords': [710.32, 179], 'bid': 7.15}]",200501,1669834525168,cheerios,cherry tomato,5.36,7.15,1.79,cherry tomato,1261,1261,1261,True,i,202269,1768,1669834526936,1768,HRV,HRV_0207,2022-11-30 18:58:48
86,"[{'imgObject': {}, 'id': 'granola w milk', 'src': '/static/foodstim60/granola w milk.jpg', 'key': 'u', 'origWidth': 410, 'origHeight': 410, 'width': 410, 'height': 410, 'widthPercent': 0.45, 'rescaleHeight': False, 'trialN': 86, 'loaded': True, 'loadedTime': 6738, 'positionName': 'LEFT', 'positionCoords': [245.68, 179], 'bid': 6.72}, {'imgObject': {}, 'id': 'ice cream sundae 002', 'src': '/static/foodstim60/ice cream sundae 002.jpg', 'key': 'i', 'origWidth': 409, 'origHeight': 409, 'width': 409, 'height': 409, 'widthPercent': 0.45, 'rescaleHeight': False, 'trialN': 86, 'loaded': True, 'loadedTime': 5903, 'positionName': 'RIGHT', 'positionCoords': [710.32, 179.5], 'bid': 6.78}]",202269,1669834526936,granola w milk,ice cream sundae 002,6.72,6.78,0.0600000000000005,ice cream sundae 002,1417,1417,1417,True,i,204200,1931,1669834528867,1931,HRV,HRV_0207,2022-11-30 18:58:48
87,"[{'imgObject': {}, 'id': 'raspberries', 'src': '/static/foodstim60/raspberries.jpg', 'key': 'u', 'origWidth': 411, 'origHeight': 411, 'width': 411, 'height': 411, 'widthPercent': 0.45, 'rescaleHeight': False, 'trialN': 87, 'loaded': True, 'loadedTime': 6629, 'positionName': 'LEFT', 'positionCoords': [244.68, 178.5], 'bid': 6.3}, {'imgObject': {}, 'id': 'steak', 'src': '/static/foodstim60/steak.jpg', 'key': 'i', 'origWidth': 410, 'origHeight': 410, 'width': 410, 'height': 410, 'widthPercent': 0.45, 'rescaleHeight': False, 'trialN': 87, 'loaded': True, 'loadedTime': 4857, 'positionName': 'RIGHT', 'positionCoords': [710.32, 179], 'bid': 6.33}]",204202,1669834528869,raspberries,steak,6.3,6.33,0.03000000000000025,steak,1233,1233,1233,True,i,205952,1750,1669834530619,1750,HRV,HRV_0207,2022-11-30 18:58:48
88,"[{'imgObject': {}, 'id': 'froot loops w milk', 'src': '/static/foodstim60/froot loops w milk.jpg', 'key': 'u', 'origWidth': 410, 'origHeight': 410, 'width': 410, 'height': 410, 'widthPercent': 0.45, 'rescaleHeight': False, 'trialN': 88, 'loaded': True, 'loadedTime': 6075, 'positionName': 'LEFT', 'positionCoords': [245.68, 179], 'bid': 6.11}, {'imgObject': {}, 'id': 'ice cream sundae 002', 'src': '/static/foodstim60/ice cream sundae 002.jpg', 'key': 'i', 'origWidth': 409, 'origHeight': 409, 'width': 409, 'height': 409, 'widthPercent': 0.45, 'rescaleHeight': False, 'trialN': 88, 'loaded': True, 'loadedTime': 5888, 'positionName': 'RIGHT', 'positionCoords': [710.32, 179.5], 'bid': 6.78}]",205952,1669834530619,froot loops w milk,ice cream sundae 002,6.11,6.78,0.6699999999999999,ice cream sundae 002,1734,1734,1734,True,i,208201,2249,1669834532868,2249,HRV,HRV_0207,2022-11-30 18:58:48
89,"[{'imgObject': {}, 'id': 'cantaloupe', 'src': '/static/foodstim60/cantaloupe.jpg', 'key': 'u', 'origWidth': 409, 'origHeight': 409, 'width': 409, 'height': 409, 'widthPercent': 0.45, 'rescaleHeight': False, 'trialN': 89, 'loaded': True, 'loadedTime': 6801, 'positionName': 'LEFT', 'positionCoords': [246.68, 179.5], 'bid': 7.34}, {'imgObject': {}, 'id': 'rigatoni and sauce', 'src': '/static/foodstim60/rigatoni and sauce.jpg', 'key': 'i', 'origWidth': 410, 'origHeight': 411, 'width': 410, 'height': 411, 'widthPercent': 0.45, 'rescaleHeight': False, 'trialN': 89, 'loaded': True, 'loadedTime': 6200, 'positionName': 'RIGHT', 'positionCoords': [710.32, 178.5], 'bid': 7.5}]",208201,1669834532868,cantaloupe,rigatoni and sauce,7.34,7.5,0.16000000000000014,cantaloupe,1526,1526,1526,True,u,210256,2055,1669834534923,2055,HRV,HRV_0207,2022-11-30 18:58:48
90,"[{'imgObject': {}, 'id': 'hotdog w must', 'src': '/static/foodstim60/hotdog w must.jpg', 'key': 'u', 'origWidth': 409, 'origHeight': 409, 'width': 409, 'height': 409, 'widthPercent': 0.45, 'rescaleHeight': False, 'trialN': 90, 'loaded': True, 'loadedTime': 6770, 'positionName': 'LEFT', 'positionCoords': [246.68, 179.5], 'bid': 6.97}, {'imgObject': {}, 'id': 'orange slices', 'src': '/static/foodstim60/orange slices.jpg', 'key': 'i', 'origWidth': 409, 'origHeight': 410, 'width': 409, 'height': 410, 'widthPercent': 0.45, 'rescaleHeight': False, 'trialN': 90, 'loaded': True, 'loadedTime': 6535, 'positionName': 'RIGHT', 'positionCoords': [710.32, 179], 'bid': 7.38}]",222113,1669834546780,hotdog w must,orange slices,6.97,7.38,0.41000000000000014,orange slices,2780,2796,2796,True,i,225417,3304,1669834550084,3304,HRV,HRV_0207,2022-11-30 18:58:48
91,"[{'imgObject': {}, 'id': 'turkeysandwich', 'src': '/static/foodstim60/turkeysandwich.jpg', 'key': 'u', 'origWidth': 409, 'origHeight': 409, 'width': 409, 'height': 409, 'widthPercent': 0.45, 'rescaleHeight': False, 'trialN': 91, 'loaded': True, 'loadedTime': 6754, 'positionName': 'LEFT', 'positionCoords': [246.68, 179.5], 'bid': 7.28}, {'imgObject': {}, 'id': 'yogurt no spoon', 'src': '/static/foodstim60/yogurt no spoon.jpg', 'key': 'i', 'origWidth': 411, 'origHeight': 410, 'width': 411, 'height': 410, 'widthPercent': 0.45, 'rescaleHeight': False, 'trialN': 91, 'loaded': True, 'loadedTime': 6013, 'positionName': 'RIGHT', 'positionCoords': [710.32, 179], 'bid': 7.22}]",225417,1669834550084,turkeysandwich,yogurt no spoon,7.28,7.22,-0.0600000000000005,yogurt no spoon,1549,1549,1549,True,i,227481,2064,1669834552148,2064,HRV,HRV_0207,2022-11-30 18:58:48
92,"[{'imgObject': {}, 'id': 'corn cob', 'src': '/static/foodstim60/corn cob.jpg', 'key': 'u', 'origWidth': 411, 'origHeight': 411, 'width': 411, 'height': 411, 'widthPercent': 0.45, 'rescaleHeight': False, 'trialN': 92, 'loaded': True, 'loadedTime': 6801, 'positionName': 'LEFT', 'positionCoords': [244.68, 178.5], 'bid': 7.65}, {'imgObject': {}, 'id': 'granola w milk', 'src': '/static/foodstim60/granola w milk.jpg', 'key': 'i', 'origWidth': 410, 'origHeight': 410, 'width': 410, 'height': 410, 'widthPercent': 0.45, 'rescaleHeight': False, 'trialN': 92, 'loaded': True, 'loadedTime': 6738, 'positionName': 'RIGHT', 'positionCoords': [710.32, 179], 'bid': 6.72}]",227481,1669834552148,corn cob,granola w milk,7.65,6.72,-0.9300000000000006,corn cob,1437,1437,1437,True,u,229433,1952,1669834554100,1952,HRV,HRV_0207,2022-11-30 18:58:48
93,"[{'imgObject': {}, 'id': 'corn cob', 'src': '/static/foodstim60/corn cob.jpg', 'key': 'u', 'origWidth': 411, 'origHeight': 411, 'width': 411, 'height': 411, 'widthPercent': 0.45, 'rescaleHeight': False, 'trialN': 93, 'loaded': True, 'loadedTime': 6801, 'positionName': 'LEFT', 'positionCoords': [244.68, 178.5], 'bid': 7.65}, {'imgObject': {}, 'id': 'roastedpotatoes', 'src': '/static/foodstim60/roastedpotatoes.jpg', 'key': 'i', 'origWidth': 409, 'origHeight': 410, 'width': 409, 'height': 410, 'widthPercent': 0.45, 'rescaleHeight': False, 'trialN': 93, 'loaded': True, 'loadedTime': 4825, 'positionName': 'RIGHT', 'positionCoords': [710.32, 179], 'bid': 7.28}]",229434,1669834554101,corn cob,roastedpotatoes,7.65,7.28,-0.3700000000000001,corn cob,1627,1643,1643,True,u,231584,2150,1669834556251,2150,HRV,HRV_0207,2022-11-30 18:58:48
94,"[{'imgObject': {}, 'id': 'turkeysandwich', 'src': '/static/foodstim60/turkeysandwich.jpg', 'key': 'u', 'origWidth': 409, 'origHeight': 409, 'width': 409, 'height': 409, 'widthPercent': 0.45, 'rescaleHeight': False, 'trialN': 94, 'loaded': True, 'loadedTime': 6754, 'positionName': 'LEFT', 'positionCoords': [246.68, 179.5], 'bid': 7.28}, {'imgObject': {}, 'id': 'Tribe humus pita', 'src': '/static/foodstim60/Tribe humus pita.jpg', 'key': 'i', 'origWidth': 411, 'origHeight': 411, 'width': 411, 'height': 411, 'widthPercent': 0.45, 'rescaleHeight': False, 'trialN': 94, 'loaded': True, 'loadedTime': 5029, 'positionName': 'RIGHT', 'positionCoords': [710.32, 178.5], 'bid': 6.8500000000000005}]",231584,1669834556251,turkeysandwich,Tribe humus pita,7.28,6.8500000000000005,-0.4299999999999997,Tribe humus pita,1093,1093,1093,True,i,233185,1601,1669834557852,1601,HRV,HRV_0207,2022-11-30 18:58:48
95,"[{'imgObject': {}, 'id': 'grilled chicken strips', 'src': '/static/foodstim60/grilled chicken strips.jpg', 'key': 'u', 'origWidth': 410, 'origHeight': 411, 'width': 410, 'height': 411, 'widthPercent': 0.45, 'rescaleHeight': False, 'trialN': 95, 'loaded': True, 'loadedTime': 6122, 'positionName': 'LEFT', 'positionCoords': [245.68, 178.5], 'bid': 6.63}, {'imgObject': {}, 'id': 'salmon', 'src': '/static/foodstim60/salmon.jpg', 'key': 'i', 'origWidth': 410, 'origHeight': 409, 'width': 410, 'height': 409, 'widthPercent': 0.45, 'rescaleHeight': False, 'trialN': 95, 'loaded': True, 'loadedTime': 5966, 'positionName': 'RIGHT', 'positionCoords': [710.32, 179.5], 'bid': 6.91}]",233185,1669834557852,grilled chicken strips,salmon,6.63,6.91,0.28000000000000025,grilled chicken strips,1240,1240,1240,True,u,234937,1752,1669834559604,1752,HRV,HRV_0207,2022-11-30 18:58:48
96,"[{'imgObject': {}, 'id': 'blackbeanswithrice', 'src': '/static/foodstim60/blackbeanswithrice.jpg', 'key': 'u', 'origWidth': 410, 'origHeight': 410, 'width': 410, 'height': 410, 'widthPercent': 0.45, 'rescaleHeight': False, 'trialN': 96, 'loaded': True, 'loadedTime': 6801, 'positionName': 'LEFT', 'positionCoords': [245.68, 179], 'bid': 5.79}, {'imgObject': {}, 'id': 'luckycharms', 'src': '/static/foodstim60/luckycharms.jpg', 'key': 'i', 'origWidth': 410, 'origHeight': 409, 'width': 410, 'height': 409, 'widthPercent': 0.45, 'rescaleHeight': False, 'trialN': 96, 'loaded': True, 'loadedTime': 5716, 'positionName': 'RIGHT', 'positionCoords': [710.32, 179.5], 'bid': 5.83}]",234949,1669834559616,blackbeanswithrice,luckycharms,5.79,5.83,0.040000000000000036,blackbeanswithrice,1422,1422,1422,True,u,236882,1933,1669834561549,1933,HRV,HRV_0207,2022-11-30 18:58:48
97,"[{'imgObject': {}, 'id': 'salad w chicken', 'src': '/static/foodstim60/salad w chicken.jpg', 'key': 'u', 'origWidth': 411, 'origHeight': 411, 'width': 411, 'height': 411, 'widthPercent': 0.45, 'rescaleHeight': False, 'trialN': 97, 'loaded': True, 'loadedTime': 6723, 'positionName': 'LEFT', 'positionCoords': [244.68, 178.5], 'bid': 7.41}, {'imgObject': {}, 'id': 'sushi w_condiments', 'src': '/static/foodstim60/sushi w_condiments.jpg', 'key': 'i', 'origWidth': 410, 'origHeight': 410, 'width': 410, 'height': 410, 'widthPercent': 0.45, 'rescaleHeight': False, 'trialN': 97, 'loaded': True, 'loadedTime': 5794, 'positionName': 'RIGHT', 'positionCoords': [710.32, 179], 'bid': 7.38}]",236882,1669834561549,salad w chicken,sushi w_condiments,7.41,7.38,-0.03000000000000025,salad w chicken,1283,1283,1283,True,u,238674,1792,1669834563341,1792,HRV,HRV_0207,2022-11-30 18:58:48
98,"[{'imgObject': {}, 'id': 'orange slices', 'src': '/static/foodstim60/orange slices.jpg', 'key': 'u', 'origWidth': 409, 'origHeight': 410, 'width': 409, 'height': 410, 'widthPercent': 0.45, 'rescaleHeight': False, 'trialN': 98, 'loaded': True, 'loadedTime': 6551, 'positionName': 'LEFT', 'positionCoords': [246.68, 179], 'bid': 7.38}, {'imgObject': {}, 'id': 'fruitsalad', 'src': '/static/foodstim60/fruitsalad.jpg', 'key': 'i', 'origWidth': 410, 'origHeight': 410, 'width': 410, 'height': 410, 'widthPercent': 0.45, 'rescaleHeight': False, 'trialN': 98, 'loaded': True, 'loadedTime': 6410, 'positionName': 'RIGHT', 'positionCoords': [710.32, 179], 'bid': 6.33}]",238674,1669834563341,orange slices,fruitsalad,7.38,6.33,-1.0499999999999998,fruitsalad,1680,1680,1680,True,i,240879,2205,1669834565546,2205,HRV,HRV_0207,2022-11-30 18:58:48
99,"[{'imgObject': {}, 'id': 'strawberries', 'src': '/static/foodstim60/strawberries.jpg', 'key': 'u', 'origWidth': 410, 'origHeight': 410, 'width': 410, 'height': 410, 'widthPercent': 0.45, 'rescaleHeight': False, 'trialN': 99, 'loaded': True, 'loadedTime': 4997, 'positionName': 'LEFT', 'positionCoords': [245.68, 179], 'bid': 5.92}, {'imgObject': {}, 'id': 'froot loops w milk', 'src': '/static/foodstim60/froot loops w milk.jpg', 'key': 'i', 'origWidth': 410, 'origHeight': 410, 'width': 410, 'height': 410, 'widthPercent': 0.45, 'rescaleHeight': False, 'trialN': 99, 'loaded': True, 'loadedTime': 6091, 'positionName': 'RIGHT', 'positionCoords': [710.32, 179], 'bid': 6.11}]",240879,1669834565546,strawberries,froot loops w milk,5.92,6.11,0.1900000000000004,strawberries,1286,1286,1286,True,u,242687,1808,1669834567354,1808,HRV,HRV_0207,2022-11-30 18:58:48
100,"[{'imgObject': {}, 'id': 'rigatoni', 'src': '/static/foodstim60/rigatoni.jpg', 'key': 'u', 'origWidth': 411, 'origHeight': 411, 'width': 411, 'height': 411, 'widthPercent': 0.45, 'rescaleHeight': False, 'trialN': 100, 'loaded': True, 'loadedTime': 6613, 'positionName': 'LEFT', 'positionCoords': [244.68, 178.5], 'bid': 7.38}, {'imgObject': {}, 'id': 'orange slices', 'src': '/static/foodstim60/orange slices.jpg', 'key': 'i', 'origWidth': 409, 'origHeight': 410, 'width': 409, 'height': 410, 'widthPercent': 0.45, 'rescaleHeight': False, 'trialN': 100, 'loaded': True, 'loadedTime': 6551, 'positionName': 'RIGHT', 'positionCoords': [710.32, 179], 'bid': 7.38}]",242687,1669834567354,rigatoni,orange slices,7.38,7.38,0.0,orange slices,1279,1279,1279,True,i,244484,1797,1669834569151,1797,HRV,HRV_0207,2022-11-30 18:58:48
101,"[{'imgObject': {}, 'id': 'blackbeanswithrice', 'src': '/static/foodstim60/blackbeanswithrice.jpg', 'key': 'u', 'origWidth': 410, 'origHeight': 410, 'width': 410, 'height': 410, 'widthPercent': 0.45, 'rescaleHeight': False, 'trialN': 101, 'loaded': True, 'loadedTime': 6801, 'positionName': 'LEFT', 'positionCoords': [245.68, 179], 'bid': 5.79}, {'imgObject': {}, 'id': 'veggieswithdip', 'src': '/static/foodstim60/veggieswithdip.jpg', 'key': 'i', 'origWidth': 409, 'origHeight': 409, 'width': 409, 'height': 409, 'widthPercent': 0.45, 'rescaleHeight': False, 'trialN': 101, 'loaded': True, 'loadedTime': 6785, 'positionName': 'RIGHT', 'positionCoords': [710.32, 179.5], 'bid': 4.07}]",244485,1669834569152,blackbeanswithrice,veggieswithdip,5.79,4.07,-1.7199999999999998,veggieswithdip,2884,2884,2884,True,i,247881,3396,1669834572548,3396,HRV,HRV_0207,2022-11-30 18:58:48
102,"[{'imgObject': {}, 'id': 'salad w chicken', 'src': '/static/foodstim60/salad w chicken.jpg', 'key': 'u', 'origWidth': 411, 'origHeight': 411, 'width': 411, 'height': 411, 'widthPercent': 0.45, 'rescaleHeight': False, 'trialN': 102, 'loaded': True, 'loadedTime': 6723, 'positionName': 'LEFT', 'positionCoords': [244.68, 178.5], 'bid': 7.41}, {'imgObject': {}, 'id': 'bagel and cc', 'src': '/static/foodstim60/bagel and cc.jpg', 'key': 'i', 'origWidth': 410, 'origHeight': 410, 'width': 410, 'height': 410, 'widthPercent': 0.45, 'rescaleHeight': False, 'trialN': 102, 'loaded': True, 'loadedTime': 6341, 'positionName': 'RIGHT', 'positionCoords': [710.32, 179], 'bid': 7}]",247883,1669834572550,salad w chicken,bagel and cc,7.41,7.0,-0.41000000000000014,salad w chicken,1285,1285,1285,True,u,249682,1799,1669834574349,1799,HRV,HRV_0207,2022-11-30 18:58:48
103,"[{'imgObject': {}, 'id': 'roastedpotatoes', 'src': '/static/foodstim60/roastedpotatoes.jpg', 'key': 'u', 'origWidth': 409, 'origHeight': 410, 'width': 409, 'height': 410, 'widthPercent': 0.45, 'rescaleHeight': False, 'trialN': 103, 'loaded': True, 'loadedTime': 4841, 'positionName': 'LEFT', 'positionCoords': [246.68, 179], 'bid': 7.28}, {'imgObject': {}, 'id': 'strawberries', 'src': '/static/foodstim60/strawberries.jpg', 'key': 'i', 'origWidth': 410, 'origHeight': 410, 'width': 410, 'height': 410, 'widthPercent': 0.45, 'rescaleHeight': False, 'trialN': 103, 'loaded': True, 'loadedTime': 4982, 'positionName': 'RIGHT', 'positionCoords': [710.32, 179], 'bid': 5.92}]",249683,1669834574350,roastedpotatoes,strawberries,7.28,5.92,-1.3600000000000003,strawberries,1047,1048,1048,True,i,251261,1578,1669834575928,1578,HRV,HRV_0207,2022-11-30 18:58:48
104,"[{'imgObject': {}, 'id': 'blueberries', 'src': '/static/foodstim60/blueberries.jpg', 'key': 'u', 'origWidth': 411, 'origHeight': 411, 'width': 411, 'height': 411, 'widthPercent': 0.45, 'rescaleHeight': False, 'trialN': 104, 'loaded': True, 'loadedTime': 6566, 'positionName': 'LEFT', 'positionCoords': [244.68, 178.5], 'bid': 7.75}, {'imgObject': {}, 'id': 'cantaloupe', 'src': '/static/foodstim60/cantaloupe.jpg', 'key': 'i', 'origWidth': 409, 'origHeight': 409, 'width': 409, 'height': 409, 'widthPercent': 0.45, 'rescaleHeight': False, 'trialN': 104, 'loaded': True, 'loadedTime': 6785, 'positionName': 'RIGHT', 'positionCoords': [710.32, 179.5], 'bid': 7.34}]",251261,1669834575928,blueberries,cantaloupe,7.75,7.34,-0.41000000000000014,cantaloupe,1687,1687,1687,True,i,253451,2190,1669834578118,2190,HRV,HRV_0207,2022-11-30 18:58:48
105,"[{'imgObject': {}, 'id': 'lox', 'src': '/static/foodstim60/lox.jpg', 'key': 'u', 'origWidth': 410, 'origHeight': 411, 'width': 410, 'height': 411, 'widthPercent': 0.45, 'rescaleHeight': False, 'trialN': 105, 'loaded': True, 'loadedTime': 6582, 'positionName': 'LEFT', 'positionCoords': [245.68, 178.5], 'bid': 8.13}, {'imgObject': {}, 'id': 'mango', 'src': '/static/foodstim60/mango.jpg', 'key': 'i', 'origWidth': 411, 'origHeight': 411, 'width': 411, 'height': 411, 'widthPercent': 0.45, 'rescaleHeight': False, 'trialN': 105, 'loaded': True, 'loadedTime': 6247, 'positionName': 'RIGHT', 'positionCoords': [710.32, 178.5], 'bid': 8.64}]",253451,1669834578118,lox,mango,8.13,8.64,0.5099999999999998,mango,1125,1141,1141,True,i,255129,1678,1669834579796,1678,HRV,HRV_0207,2022-11-30 18:58:48
106,"[{'imgObject': {}, 'id': 'veggieswithdip', 'src': '/static/foodstim60/veggieswithdip.jpg', 'key': 'u', 'origWidth': 409, 'origHeight': 409, 'width': 409, 'height': 409, 'widthPercent': 0.45, 'rescaleHeight': False, 'trialN': 106, 'loaded': True, 'loadedTime': 6785, 'positionName': 'LEFT', 'positionCoords': [246.68, 179.5], 'bid': 4.07}, {'imgObject': {}, 'id': 'sweetpotato', 'src': '/static/foodstim60/sweetpotato.jpg', 'key': 'i', 'origWidth': 410, 'origHeight': 410, 'width': 410, 'height': 410, 'widthPercent': 0.45, 'rescaleHeight': False, 'trialN': 106, 'loaded': True, 'loadedTime': 5732, 'positionName': 'RIGHT', 'positionCoords': [710.32, 179], 'bid': 4.91}]",255129,1669834579796,veggieswithdip,sweetpotato,4.07,4.91,0.8399999999999999,veggieswithdip,1270,1270,1270,True,u,256929,1800,1669834581596,1800,HRV,HRV_0207,2022-11-30 18:58:48
107,"[{'imgObject': {}, 'id': 'raisin bran w milk', 'src': '/static/foodstim60/raisin bran w milk.jpg', 'key': 'u', 'origWidth': 411, 'origHeight': 411, 'width': 411, 'height': 411, 'widthPercent': 0.45, 'rescaleHeight': False, 'trialN': 107, 'loaded': True, 'loadedTime': 4794, 'positionName': 'LEFT', 'positionCoords': [244.68, 178.5], 'bid': 7.26}, {'imgObject': {}, 'id': 'cocktailshrimp', 'src': '/static/foodstim60/cocktailshrimp.jpg', 'key': 'i', 'origWidth': 410, 'origHeight': 410, 'width': 410, 'height': 410, 'widthPercent': 0.45, 'rescaleHeight': False, 'trialN': 107, 'loaded': True, 'loadedTime': 5935, 'positionName': 'RIGHT', 'positionCoords': [710.32, 179], 'bid': 6.83}]",256929,1669834581596,raisin bran w milk,cocktailshrimp,7.26,6.83,-0.4299999999999997,cocktailshrimp,1284,1284,1284,True,i,258720,1791,1669834583387,1791,HRV,HRV_0207,2022-11-30 18:58:48
108,"[{'imgObject': {}, 'id': 'baked potato', 'src': '/static/foodstim60/baked potato.jpg', 'key': 'u', 'origWidth': 409, 'origHeight': 410, 'width': 409, 'height': 410, 'widthPercent': 0.45, 'rescaleHeight': False, 'trialN': 108, 'loaded': True, 'loadedTime': 6785, 'positionName': 'LEFT', 'positionCoords': [246.68, 179], 'bid': 6.65}, {'imgObject': {}, 'id': 'edamame', 'src': '/static/foodstim60/edamame.jpg', 'key': 'i', 'origWidth': 409, 'origHeight': 410, 'width': 409, 'height': 410, 'widthPercent': 0.45, 'rescaleHeight': False, 'trialN': 108, 'loaded': True, 'loadedTime': 6488, 'positionName': 'RIGHT', 'positionCoords': [710.32, 179], 'bid': 6.71}]",258720,1669834583387,baked potato,edamame,6.65,6.71,0.05999999999999961,edamame,1496,1496,1496,True,i,260776,2056,1669834585443,2056,HRV,HRV_0207,2022-11-30 18:58:48
109,"[{'imgObject': {}, 'id': 'roastedpotatoes', 'src': '/static/foodstim60/roastedpotatoes.jpg', 'key': 'u', 'origWidth': 409, 'origHeight': 410, 'width': 409, 'height': 410, 'widthPercent': 0.45, 'rescaleHeight': False, 'trialN': 109, 'loaded': True, 'loadedTime': 4825, 'positionName': 'LEFT', 'positionCoords': [246.68, 179], 'bid': 7.28}, {'imgObject': {}, 'id': 'turkeysandwich', 'src': '/static/foodstim60/turkeysandwich.jpg', 'key': 'i', 'origWidth': 409, 'origHeight': 409, 'width': 409, 'height': 409, 'widthPercent': 0.45, 'rescaleHeight': False, 'trialN': 109, 'loaded': True, 'loadedTime': 6754, 'positionName': 'RIGHT', 'positionCoords': [710.32, 179.5], 'bid': 7.28}]",260790,1669834585457,roastedpotatoes,turkeysandwich,7.28,7.28,0.0,turkeysandwich,1174,1174,1174,True,i,262482,1692,1669834587149,1692,HRV,HRV_0207,2022-11-30 18:58:48
110,"[{'imgObject': {}, 'id': 'blackbeanswithrice', 'src': '/static/foodstim60/blackbeanswithrice.jpg', 'key': 'u', 'origWidth': 410, 'origHeight': 410, 'width': 410, 'height': 410, 'widthPercent': 0.45, 'rescaleHeight': False, 'trialN': 110, 'loaded': True, 'loadedTime': 6801, 'positionName': 'LEFT', 'positionCoords': [245.68, 179], 'bid': 5.79}, {'imgObject': {}, 'id': 'baked potato', 'src': '/static/foodstim60/baked potato.jpg', 'key': 'i', 'origWidth': 409, 'origHeight': 410, 'width': 409, 'height': 410, 'widthPercent': 0.45, 'rescaleHeight': False, 'trialN': 110, 'loaded': True, 'loadedTime': 6770, 'positionName': 'RIGHT', 'positionCoords': [710.32, 179], 'bid': 6.65}]",262482,1669834587149,blackbeanswithrice,baked potato,5.79,6.65,0.8600000000000003,baked potato,1043,1043,1043,True,i,264047,1565,1669834588714,1565,HRV,HRV_0207,2022-11-30 18:58:48
111,"[{'imgObject': {}, 'id': 'sushi w_condiments', 'src': '/static/foodstim60/sushi w_condiments.jpg', 'key': 'u', 'origWidth': 410, 'origHeight': 410, 'width': 410, 'height': 410, 'widthPercent': 0.45, 'rescaleHeight': False, 'trialN': 111, 'loaded': True, 'loadedTime': 5810, 'positionName': 'LEFT', 'positionCoords': [245.68, 179], 'bid': 7.38}, {'imgObject': {}, 'id': 'rigatoni', 'src': '/static/foodstim60/rigatoni.jpg', 'key': 'i', 'origWidth': 411, 'origHeight': 411, 'width': 411, 'height': 411, 'widthPercent': 0.45, 'rescaleHeight': False, 'trialN': 111, 'loaded': True, 'loadedTime': 6598, 'positionName': 'RIGHT', 'positionCoords': [710.32, 178.5], 'bid': 7.38}]",264048,1669834588715,sushi w_condiments,rigatoni,7.38,7.38,0.0,sushi w_condiments,1711,1711,1711,True,u,266481,2433,1669834591148,2433,HRV,HRV_0207,2022-11-30 18:58:48
112,"[{'imgObject': {}, 'id': 'chickenfingers', 'src': '/static/foodstim60/chickenfingers.jpg', 'key': 'u', 'origWidth': 410, 'origHeight': 410, 'width': 410, 'height': 410, 'widthPercent': 0.45, 'rescaleHeight': False, 'trialN': 112, 'loaded': True, 'loadedTime': 6707, 'positionName': 'LEFT', 'positionCoords': [245.68, 179], 'bid': 7.66}, {'imgObject': {}, 'id': 'shreddedwheatwithmilk', 'src': '/static/foodstim60/shreddedwheatwithmilk.jpg', 'key': 'i', 'origWidth': 410, 'origHeight': 410, 'width': 410, 'height': 410, 'widthPercent': 0.45, 'rescaleHeight': False, 'trialN': 112, 'loaded': True, 'loadedTime': 5325, 'positionName': 'RIGHT', 'positionCoords': [710.32, 179], 'bid': 6.74}]",266481,1669834591148,chickenfingers,shreddedwheatwithmilk,7.66,6.74,-0.9199999999999999,chickenfingers,1695,1710,1710,True,u,268699,2218,1669834593366,2218,HRV,HRV_0207,2022-11-30 18:58:48
113,"[{'imgObject': {}, 'id': 'cherries', 'src': '/static/foodstim60/cherries.jpg', 'key': 'u', 'origWidth': 410, 'origHeight': 411, 'width': 410, 'height': 411, 'widthPercent': 0.45, 'rescaleHeight': False, 'trialN': 113, 'loaded': True, 'loadedTime': 6723, 'positionName': 'LEFT', 'positionCoords': [245.68, 178.5], 'bid': 6.34}, {'imgObject': {}, 'id': 'edamame', 'src': '/static/foodstim60/edamame.jpg', 'key': 'i', 'origWidth': 409, 'origHeight': 410, 'width': 409, 'height': 410, 'widthPercent': 0.45, 'rescaleHeight': False, 'trialN': 113, 'loaded': True, 'loadedTime': 6483, 'positionName': 'RIGHT', 'positionCoords': [710.32, 179], 'bid': 6.71}]",268699,1669834593366,cherries,edamame,6.34,6.71,0.3700000000000001,cherries,1359,1359,1359,True,u,270565,1866,1669834595232,1866,HRV,HRV_0207,2022-11-30 18:58:48
114,"[{'imgObject': {}, 'id': 'luckycharms', 'src': '/static/foodstim60/luckycharms.jpg', 'key': 'u', 'origWidth': 410, 'origHeight': 409, 'width': 410, 'height': 409, 'widthPercent': 0.45, 'rescaleHeight': False, 'trialN': 114, 'loaded': True, 'loadedTime': 5716, 'positionName': 'LEFT', 'positionCoords': [245.68, 179.5], 'bid': 5.83}, {'imgObject': {}, 'id': 'mashed potato', 'src': '/static/foodstim60/mashed potato.jpg', 'key': 'i', 'origWidth': 409, 'origHeight': 409, 'width': 409, 'height': 409, 'widthPercent': 0.45, 'rescaleHeight': False, 'trialN': 114, 'loaded': True, 'loadedTime': 5825, 'positionName': 'RIGHT', 'positionCoords': [710.32, 179.5], 'bid': 6.69}]",270566,1669834595233,luckycharms,mashed potato,5.83,6.69,0.8600000000000003,mashed potato,1258,1258,1258,True,i,272350,1784,1669834597017,1784,HRV,HRV_0207,2022-11-30 18:58:48
115,"[{'imgObject': {}, 'id': 'granola w milk', 'src': '/static/foodstim60/granola w milk.jpg', 'key': 'u', 'origWidth': 410, 'origHeight': 410, 'width': 410, 'height': 410, 'widthPercent': 0.45, 'rescaleHeight': False, 'trialN': 115, 'loaded': True, 'loadedTime': 6754, 'positionName': 'LEFT', 'positionCoords': [245.68, 179], 'bid': 6.72}, {'imgObject': {}, 'id': 'salmon', 'src': '/static/foodstim60/salmon.jpg', 'key': 'i', 'origWidth': 410, 'origHeight': 409, 'width': 410, 'height': 409, 'widthPercent': 0.45, 'rescaleHeight': False, 'trialN': 115, 'loaded': True, 'loadedTime': 5966, 'positionName': 'RIGHT', 'positionCoords': [710.32, 179.5], 'bid': 6.91}]",272350,1669834597017,granola w milk,salmon,6.72,6.91,0.1900000000000004,salmon,1569,1569,1569,True,i,274431,2081,1669834599098,2081,HRV,HRV_0207,2022-11-30 18:58:48
116,"[{'imgObject': {}, 'id': 'shreddedwheatwithmilk', 'src': '/static/foodstim60/shreddedwheatwithmilk.jpg', 'key': 'u', 'origWidth': 410, 'origHeight': 410, 'width': 410, 'height': 410, 'widthPercent': 0.45, 'rescaleHeight': False, 'trialN': 116, 'loaded': True, 'loadedTime': 5341, 'positionName': 'LEFT', 'positionCoords': [245.68, 179], 'bid': 6.74}, {'imgObject': {}, 'id': 'hotdog w must', 'src': '/static/foodstim60/hotdog w must.jpg', 'key': 'i', 'origWidth': 409, 'origHeight': 409, 'width': 409, 'height': 409, 'widthPercent': 0.45, 'rescaleHeight': False, 'trialN': 116, 'loaded': True, 'loadedTime': 6770, 'positionName': 'RIGHT', 'positionCoords': [710.32, 179.5], 'bid': 6.97}]",274431,1669834599098,shreddedwheatwithmilk,hotdog w must,6.74,6.97,0.22999999999999954,hotdog w must,2130,2130,2130,True,i,277077,2646,1669834601744,2646,HRV,HRV_0207,2022-11-30 18:58:48
117,"[{'imgObject': {}, 'id': 'chickenfingers', 'src': '/static/foodstim60/chickenfingers.jpg', 'key': 'u', 'origWidth': 410, 'origHeight': 410, 'width': 410, 'height': 410, 'widthPercent': 0.45, 'rescaleHeight': False, 'trialN': 117, 'loaded': True, 'loadedTime': 6692, 'positionName': 'LEFT', 'positionCoords': [245.68, 179], 'bid': 7.66}, {'imgObject': {}, 'id': 'corn cob', 'src': '/static/foodstim60/corn cob.jpg', 'key': 'i', 'origWidth': 411, 'origHeight': 411, 'width': 411, 'height': 411, 'widthPercent': 0.45, 'rescaleHeight': False, 'trialN': 117, 'loaded': True, 'loadedTime': 6801, 'positionName': 'RIGHT', 'positionCoords': [710.32, 178.5], 'bid': 7.65}]",277077,1669834601744,chickenfingers,corn cob,7.66,7.65,-0.009999999999999787,corn cob,1105,1105,1105,True,i,278746,1669,1669834603413,1669,HRV,HRV_0207,2022-11-30 18:58:48
