success,trial_type,trial_index,time_elapsed,internal_node_id,Block,TrialNumber,TrialTime,trialTimeDiff,FPS_avg,FPS_med,FPS_mode,TrialDur,winResizeTime,rt,block,button_pressed,MotCoh,MotDir,ColCoh,Color,ChoiceKey,Choice,Accuracy,RT,nFrames,FPS,PPD,missTrial,missTrialMsg,onsetDelay,fullScreenExitTime,canvCenter,TrialType,Score,BlockTrial,stimulus,button_labels,exp,subjectId,date
True,fullscreen,0,4231,0.0-0.0,0.0,1.0,,,,,,,,,,,,,,,,,,,,,,,,,,,,,,,,HRV,HRV_0207,2022-11-30 19:13:27
,wl-check-fps,1,11248,0.0-1.0,0.0,2.0,"[5473, 5505, 5538, 5564, 5586, 5603, 5639, 5653, 5665, 5681, 5699, 5715, 5731, 5747, 5773, 5780, 5802, 5814, 5836, 5848, 5864, 5881, 5897, 5915, 5930, 5947, 5965, 5984, 5997, 6020, 6032, 6048, 6064, 6081, 6097, 6115, 6140, 6153, 6173, 6191, 6239, 6253, 6277, 6304, 6329, 6371, 6393, 6405, 6417, 6435, 6467, 6489, 6502, 6523, 6554, 6576, 6589, 6605, 6627, 6656, 6684, 6707, 6737, 6767, 6805, 6833, 6870, 6889, 6913, 6934, 6963, 6986, 7017, 7039, 7060, 7115, 7141, 7178, 7205, 7220, 7232, 7252, 7265, 7280, 7298, 7318, 7330, 7350, 7365, 7381, 7413, 7425, 7436, 7447, 7470, 7482, 7502, 7515, 7533, 7549, 7566, 7580, 7601, 7615, 7632, 7652, 7666, 7685, 7699, 7717, 7731, 7751, 7764, 7780, 7797, 7815, 7831, 7847, 7869, 7880, 7901, 7916, 7936, 7952, 7969, 7985, 8010, 8072, 8084, 8103, 8126, 8137, 8159, 8171, 8195, 8212, 8227, 8245, 8260, 8285, 8328, 8349, 8361, 8376, 8389, 8413, 8440, 8461, 8477, 8530, 8564, 8589, 8626, 8650, 8686, 8706, 8725, 8753, 8803, 8818, 8842, 8866, 8886, 8902, 8939, 9017, 9057, 9101, 9169, 9223, 9304, 9336, 9377, 9394, 9470, 9497, 9517, 9544, 9556, 9574, 9586, 9606, 9617, 9636, 9650, 9671, 9689, 9704, 9717, 9733, 9750, 9767, 9781, 9801, 9818, 9832, 9853, 9865, 9884, 9899, 9916, 9931, 9950, 9965, 9983, 10005, 10018, 10037, 10049, 10069, 10090, 10105, 10116, 10134, 10149, 10166, 10182, 10201, 10220, 10232, 10257, 10293, 10596, 10608, 10624, 10636, 10659, 10671, 10695, 10717, 10730, 10748, 10759, 10773, 10782, 10804, 10817, 10896, 10907, 10917, 10932, 10952, 10969, 10981, 11010, 11054, 11079, 11094, 11118, 11135, 11164, 11199, 11216, 11240, 11271, 11316, 11337, 11364, 11407, 11447, 11476, 11514, 11569, 11597, 11617, 11631, 11649, 11668, 11682, 11701, 11716, 11734, 11749, 11765, 11781, 11800, 11816, 11832, 11848, 11866, 11884, 11899, 11918, 11932, 11950, 11966, 11982, 11999, 12015, 12031, 12054, 12075, 12089, 12106, 12373, 12392, 12403, 12424, 12435, 12456]","[10, 32, 33, 26, 22, 17, 36, 14, 12, 16, 18, 16, 16, 16, 26, 7, 22, 12, 22, 12, 16, 17, 16, 18, 15, 17, 18, 19, 13, 23, 12, 16, 16, 17, 16, 18, 25, 13, 20, 18, 48, 14, 24, 27, 25, 42, 22, 12, 12, 18, 32, 22, 13, 21, 31, 22, 13, 16, 22, 29, 28, 23, 30, 30, 38, 28, 37, 19, 24, 21, 29, 23, 31, 22, 21, 55, 26, 37, 27, 15, 12, 20, 13, 15, 18, 20, 12, 20, 15, 16, 32, 12, 11, 11, 23, 12, 20, 13, 18, 16, 17, 14, 21, 14, 17, 20, 14, 19, 14, 18, 14, 20, 13, 16, 17, 18, 16, 16, 22, 11, 21, 15, 20, 16, 17, 16, 25, 62, 12, 19, 23, 11, 22, 12, 24, 17, 15, 18, 15, 25, 43, 21, 12, 15, 13, 24, 27, 21, 16, 53, 34, 25, 37, 24, 36, 20, 19, 28, 50, 15, 24, 24, 20, 16, 37, 78, 40, 44, 68, 54, 81, 32, 41, 17, 76, 27, 20, 27, 12, 18, 12, 20, 11, 19, 14, 21, 18, 15, 13, 16, 17, 17, 14, 20, 17, 14, 21, 12, 19, 15, 17, 15, 19, 15, 18, 22, 13, 19, 12, 20, 21, 15, 11, 18, 15, 17, 16, 19, 19, 12, 25, 36, 303, 12, 16, 12, 23, 12, 24, 22, 13, 18, 11, 14, 9, 22, 13, 79, 11, 10, 15, 20, 17, 12, 29, 44, 25, 15, 24, 17, 29, 35, 17, 24, 31, 45, 21, 27, 43, 40, 29, 38, 55, 28, 20, 14, 18, 19, 14, 19, 15, 18, 15, 16, 16, 19, 16, 16, 16, 18, 18, 15, 19, 14, 18, 16, 16, 17, 16, 16, 23, 21, 14, 17, 267, 19, 11, 21, 11, 21]",43.0,23.0,63.0,7012.0,[],,,,,,,,,,,,,,,,,,,,,,,,,HRV,HRV_0207,2022-11-30 19:13:27
,wl-html-keyboard-response,2,42386,0.0-2.0-0.0,0.0,3.0,,,,,,,,29118.0,0.0,0,,,,,,,,,,,,,,,,,,,,,,HRV,HRV_0207,2022-11-30 19:13:27
,wl-rdm,3,51932,0.0-3.0-0.0,0.0,4.0,,,,,,,[],,,,0.0,0.0,87.9,0.0,u,0.0,True,3961.0,186.0,63.0,40.0,False,,3000.0,[],"[683, 384]",ColorTask_Demo,,,,,HRV,HRV_0207,2022-11-30 19:13:27
,wl-rdm,4,58058,0.0-3.0-1.0,0.0,5.0,,,,,,,[],,,,0.0,0.0,87.9,1.0,i,1.0,True,1979.0,43.0,63.0,40.0,False,,2000.0,[],"[683, 384]",ColorTask_Demo,,,,,HRV,HRV_0207,2022-11-30 19:13:27
,wl-html-keyboard-response,5,73296,0.0-3.0-2.0,0.0,6.0,,,,,,,,13217.0,0.0,1,,,,,,,,,,,,,,,,,,,,,,HRV,HRV_0207,2022-11-30 19:13:27
,wl-html-keyboard-response,6,93308,0.0-4.0-0.0,0.0,7.0,,,,,,,,18005.0,0.0,0,,,,,,,,,,,,,,,,,,,,,,HRV,HRV_0207,2022-11-30 19:13:27
,wl-html-keyboard-response,7,100897,0.0-5.0-0.0,0.0,8.0,,,,,,,,5564.0,0.0,0,,,,,,,,,,,,,,,,,,,,,,HRV,HRV_0207,2022-11-30 19:13:27
,wl-rdm,8,105308,0.0-6.0-0.0,0.0,8.0,,,,,,,[],,,,,,53.2,0.0,i,,,3273.0,88.0,63.0,40.0,True,RT_timeout ,280.4503400843353,[],"[683, 384]",ColorTask,-1.0,1.0,,,HRV,HRV_0207,2022-11-30 19:13:27
,wl-rdm,9,109532,0.0-6.1-0.1,0.0,9.0,,,,,,,[],,,,,,50.0,0.0,u,0.0,True,2798.0,106.0,63.0,40.0,False,,329.5791230226141,[],"[683, 384]",ColorTask,0.0,2.0,,,HRV,HRV_0207,2022-11-30 19:13:27
,wl-rdm,10,112787,0.0-6.2-0.2,0.0,10.0,,,,,,,[],,,,,,62.5,0.0,u,0.0,True,1320.0,58.0,63.0,40.0,False,,274.7305097173485,[],"[683, 384]",ColorTask,1.0,3.0,,,HRV,HRV_0207,2022-11-30 19:13:27
,wl-rdm,11,115531,0.0-6.3-0.3,0.0,11.0,,,,,,,[],,,,,,50.0,1.0,u,0.0,False,1405.0,65.0,63.0,40.0,False,,260.8405519546846,[],"[683, 384]",ColorTask,0.0,4.0,,,HRV,HRV_0207,2022-11-30 19:13:27
,wl-rdm,12,120119,0.0-6.4-0.4,0.0,12.0,,,,,,,[],,,,,,53.2,0.0,i,1.0,False,3029.0,117.0,63.0,40.0,False,,305.5929420409087,[],"[683, 384]",ColorTask,-1.0,5.0,,,HRV,HRV_0207,2022-11-30 19:13:27
,wl-rdm,13,123387,0.0-6.5-0.5,0.0,13.0,,,,,,,[],,,,,,50.0,0.0,i,1.0,False,1821.0,50.0,63.0,40.0,False,,338.1942366332629,[],"[683, 384]",ColorTask,-2.0,6.0,,,HRV,HRV_0207,2022-11-30 19:13:27
,wl-rdm,14,124503,0.0-6.6-0.6,0.0,13.0,,,,,,,[],,,,,,62.5,1.0,u,,,155.0,0.0,63.0,40.0,True,too_early ,311.82365748820934,[],"[683, 384]",ColorTask,-3.0,7.0,,,HRV,HRV_0207,2022-11-30 19:13:27
,wl-rdm,15,128218,0.0-6.7-0.7,0.0,14.0,,,,,,,[],,,,,,53.2,0.0,i,1.0,False,2282.0,78.0,63.0,40.0,False,,306.139971842983,[],"[683, 384]",ColorTask,-4.0,8.0,,,HRV,HRV_0207,2022-11-30 19:13:27
,wl-rdm,16,130844,0.0-6.8-0.8,0.0,15.0,,,,,,,[],,,,,,62.5,0.0,u,0.0,True,1222.0,39.0,63.0,40.0,False,,327.5912877474193,[],"[683, 384]",ColorTask,-3.0,9.0,,,HRV,HRV_0207,2022-11-30 19:13:27
,wl-rdm,17,133819,0.0-6.9-0.9,0.0,16.0,,,,,,,[],,,,,,87.9,0.0,u,0.0,True,1522.0,48.0,63.0,40.0,False,,362.0553585165315,[],"[683, 384]",ColorTask,-2.0,10.0,,,HRV,HRV_0207,2022-11-30 19:13:27
,wl-rdm,18,136862,0.0-6.10-0.10,0.0,17.0,,,,,,,[],,,,,,62.5,0.0,u,0.0,True,1636.0,74.0,63.0,40.0,False,,300.78903464111806,[],"[683, 384]",ColorTask,-1.0,11.0,,,HRV,HRV_0207,2022-11-30 19:13:27
,wl-rdm,19,139561,0.0-6.11-0.11,0.0,18.0,,,,,,,[],,,,,,53.2,1.0,i,1.0,True,1213.0,63.0,63.0,40.0,False,,368.53194850473653,[],"[683, 384]",ColorTask,0.0,12.0,,,HRV,HRV_0207,2022-11-30 19:13:27
,wl-rdm,20,142580,0.0-6.12-0.12,0.0,19.0,,,,,,,[],,,,,,56.4,0.0,i,1.0,False,1664.0,64.0,63.0,40.0,False,,244.97225380586343,[],"[683, 384]",ColorTask,-1.0,13.0,,,HRV,HRV_0207,2022-11-30 19:13:27
,wl-rdm,21,145455,0.0-6.13-0.13,0.0,20.0,,,,,,,[],,,,,,87.9,1.0,i,1.0,True,1280.0,44.0,63.0,40.0,False,,229.9957993957464,[],"[683, 384]",ColorTask,0.0,14.0,,,HRV,HRV_0207,2022-11-30 19:13:27
,wl-rdm,22,149538,0.0-6.14-0.14,0.0,21.0,,,,,,,[],,,,,,56.4,1.0,i,1.0,True,2618.0,117.0,63.0,40.0,False,,356.4018304927624,[],"[683, 384]",ColorTask,1.0,15.0,,,HRV,HRV_0207,2022-11-30 19:13:27
,wl-rdm,23,152380,0.0-6.15-0.15,0.0,22.0,,,,,,,[],,,,,,56.4,1.0,i,1.0,True,1486.0,57.0,63.0,40.0,False,,291.5221848202183,[],"[683, 384]",ColorTask,2.0,16.0,,,HRV,HRV_0207,2022-11-30 19:13:27
,wl-rdm,24,154797,0.0-6.16-0.16,0.0,23.0,,,,,,,[],,,,,,73.6,1.0,i,1.0,True,1131.0,35.0,63.0,40.0,False,,227.49738363285107,[],"[683, 384]",ColorTask,3.0,17.0,,,HRV,HRV_0207,2022-11-30 19:13:27
,wl-rdm,25,157835,0.0-6.17-0.17,0.0,24.0,,,,,,,[],,,,,,73.6,0.0,u,0.0,True,1679.0,63.0,63.0,40.0,False,,225.14357104762044,[],"[683, 384]",ColorTask,4.0,18.0,,,HRV,HRV_0207,2022-11-30 19:13:27
,wl-rdm,26,160401,0.0-6.18-0.18,0.0,25.0,,,,,,,[],,,,,,50.0,1.0,u,0.0,False,1102.0,52.0,63.0,40.0,False,,372.0209617089529,[],"[683, 384]",ColorTask,3.0,19.0,,,HRV,HRV_0207,2022-11-30 19:13:27
,wl-rdm,27,164374,0.0-6.19-0.19,0.0,26.0,,,,,,,[],,,,,,62.5,1.0,i,1.0,True,2608.0,103.0,63.0,40.0,False,,276.1857431569332,[],"[683, 384]",ColorTask,4.0,20.0,,,HRV,HRV_0207,2022-11-30 19:13:27
,wl-rdm,28,168196,0.0-6.20-0.20,0.0,27.0,,,,,,,[],,,,,,73.6,0.0,u,0.0,True,2507.0,102.0,63.0,40.0,False,,248.98865137434217,[],"[683, 384]",ColorTask,5.0,21.0,,,HRV,HRV_0207,2022-11-30 19:13:27
,wl-rdm,29,172297,0.0-6.21-0.21,0.0,28.0,,,,,,,[],,,,,,53.2,0.0,u,0.0,True,2525.0,90.0,63.0,40.0,False,,201.91013092946773,[],"[683, 384]",ColorTask,6.0,22.0,,,HRV,HRV_0207,2022-11-30 19:13:27
,wl-rdm,30,175773,0.0-6.22-0.22,0.0,29.0,,,,,,,[],,,,,,53.2,1.0,u,0.0,False,2015.0,52.0,63.0,40.0,False,,325.70693615275127,[],"[683, 384]",ColorTask,5.0,23.0,,,HRV,HRV_0207,2022-11-30 19:13:27
,wl-rdm,31,179100,0.0-6.23-0.23,0.0,30.0,,,,,,,[],,,,,,50.0,1.0,i,1.0,True,1787.0,62.0,63.0,40.0,False,,381.4221801007361,[],"[683, 384]",ColorTask,6.0,24.0,,,HRV,HRV_0207,2022-11-30 19:13:27
,wl-rdm,32,182843,0.0-6.24-0.24,0.0,31.0,,,,,,,[],,,,,,53.2,1.0,i,1.0,True,2324.0,82.0,63.0,40.0,False,,347.3685059960198,[],"[683, 384]",ColorTask,7.0,25.0,,,HRV,HRV_0207,2022-11-30 19:13:27
,wl-rdm,33,186509,0.0-6.25-0.25,0.0,32.0,,,,,,,[],,,,,,50.0,0.0,i,1.0,False,2128.0,64.0,63.0,40.0,False,,210.76793295352155,[],"[683, 384]",ColorTask,6.0,26.0,,,HRV,HRV_0207,2022-11-30 19:13:27
,wl-rdm,34,189616,0.0-6.26-0.26,0.0,33.0,,,,,,,[],,,,,,62.5,0.0,u,0.0,True,1671.0,53.0,63.0,40.0,False,,338.8002273987761,[],"[683, 384]",ColorTask,7.0,27.0,,,HRV,HRV_0207,2022-11-30 19:13:27
,wl-rdm,35,192028,0.0-6.27-0.27,0.0,34.0,,,,,,,[],,,,,,87.9,0.0,u,0.0,True,1017.0,45.0,63.0,40.0,False,,321.986089191328,[],"[683, 384]",ColorTask,8.0,28.0,,,HRV,HRV_0207,2022-11-30 19:13:27
,wl-rdm,36,194715,0.0-6.28-0.28,0.0,35.0,,,,,,,[],,,,,,56.4,0.0,i,1.0,False,1375.0,40.0,63.0,40.0,False,,233.6715403377632,[],"[683, 384]",ColorTask,7.0,29.0,,,HRV,HRV_0207,2022-11-30 19:13:27
,wl-rdm,37,199211,0.0-6.29-0.29,0.0,36.0,,,,,,,[],,,,,,56.4,1.0,i,1.0,True,3008.0,119.0,63.0,40.0,False,,360.6563453603119,[],"[683, 384]",ColorTask,8.0,30.0,,,HRV,HRV_0207,2022-11-30 19:13:27
,wl-rdm,38,202579,0.0-6.30-0.30,0.0,37.0,,,,,,,[],,,,,,56.4,0.0,u,0.0,True,1993.0,61.0,63.0,40.0,False,,314.91436887446025,[],"[683, 384]",ColorTask,9.0,31.0,,,HRV,HRV_0207,2022-11-30 19:13:27
,wl-rdm,39,206312,0.0-6.31-0.31,0.0,38.0,,,,,,,[],,,,,,62.5,1.0,i,1.0,True,2392.0,89.0,63.0,40.0,False,,209.31571632129467,[],"[683, 384]",ColorTask,10.0,32.0,,,HRV,HRV_0207,2022-11-30 19:13:27
,wl-rdm,40,209612,0.0-6.32-0.32,0.0,39.0,,,,,,,[],,,,,,73.6,1.0,i,1.0,True,1966.0,59.0,63.0,40.0,False,,226.53828673105804,[],"[683, 384]",ColorTask,11.0,33.0,,,HRV,HRV_0207,2022-11-30 19:13:27
,wl-rdm,41,212749,0.0-6.33-0.33,0.0,40.0,,,,,,,[],,,,,,73.6,1.0,i,1.0,True,1693.0,64.0,63.0,40.0,False,,323.63974002726775,[],"[683, 384]",ColorTask,12.0,34.0,,,HRV,HRV_0207,2022-11-30 19:13:27
,wl-rdm,42,216281,0.0-6.34-0.34,0.0,41.0,,,,,,,[],,,,,,50.0,1.0,u,0.0,False,2229.0,66.0,63.0,40.0,False,,208.56530652134995,[],"[683, 384]",ColorTask,11.0,35.0,,,HRV,HRV_0207,2022-11-30 19:13:27
,wl-rdm,43,220679,0.0-6.35-0.35,0.0,42.0,,,,,,,[],,,,,,53.2,0.0,u,0.0,True,2912.0,108.0,63.0,40.0,False,,248.02243568084018,[],"[683, 384]",ColorTask,12.0,36.0,,,HRV,HRV_0207,2022-11-30 19:13:27
,wl-rdm,44,223631,0.0-6.36-0.36,0.0,43.0,,,,,,,[],,,,,,87.9,0.0,u,0.0,True,1541.0,48.0,63.0,40.0,False,,359.3914011715006,[],"[683, 384]",ColorTask,13.0,37.0,,,HRV,HRV_0207,2022-11-30 19:13:27
,wl-rdm,45,226353,0.0-6.37-0.37,0.0,44.0,,,,,,,[],,,,,,62.5,1.0,i,1.0,True,1287.0,59.0,63.0,40.0,False,,342.5689478559751,[],"[683, 384]",ColorTask,14.0,38.0,,,HRV,HRV_0207,2022-11-30 19:13:27
,wl-rdm,46,229036,0.0-6.38-0.38,0.0,45.0,,,,,,,[],,,,,,87.9,0.0,u,0.0,True,1350.0,41.0,63.0,40.0,False,,226.19323426201078,[],"[683, 384]",ColorTask,15.0,39.0,,,HRV,HRV_0207,2022-11-30 19:13:27
,wl-rdm,47,232135,0.0-6.39-0.39,0.0,46.0,,,,,,,[],,,,,,87.9,1.0,i,1.0,True,1749.0,65.0,63.0,40.0,False,,281.4581252849702,[],"[683, 384]",ColorTask,16.0,40.0,,,HRV,HRV_0207,2022-11-30 19:13:27
,wl-rdm,48,236079,0.0-6.40-0.40,0.0,47.0,,,,,,,[],,,,,,50.0,0.0,i,1.0,False,2658.0,116.0,63.0,40.0,False,,219.42896780049904,[],"[683, 384]",ColorTask,15.0,41.0,,,HRV,HRV_0207,2022-11-30 19:13:27
,wl-rdm,49,238858,0.0-6.41-0.41,0.0,48.0,,,,,,,[],,,,,,73.6,0.0,u,0.0,True,1344.0,39.0,63.0,40.0,False,,228.2753509017248,[],"[683, 384]",ColorTask,16.0,42.0,,,HRV,HRV_0207,2022-11-30 19:13:27
,wl-rdm,50,242892,0.0-6.42-0.42,0.0,49.0,,,,,,,[],,,,,,53.2,1.0,i,1.0,True,2700.0,87.0,63.0,40.0,False,,242.1366247479807,[],"[683, 384]",ColorTask,17.0,43.0,,,HRV,HRV_0207,2022-11-30 19:13:27
,wl-rdm,51,247495,0.0-6.43-0.43,0.0,49.0,,,,,,,[],,,,,,50.0,1.0,i,,,3300.0,121.0,63.0,40.0,True,RT_timeout ,214.1099952544499,[],"[683, 384]",ColorTask,16.0,44.0,,,HRV,HRV_0207,2022-11-30 19:13:27
,wl-rdm,52,251054,0.0-6.44-0.44,0.0,50.0,,,,,,,[],,,,,,56.4,0.0,u,0.0,True,2252.0,82.0,63.0,40.0,False,,208.5963062025954,[],"[683, 384]",ColorTask,17.0,45.0,,,HRV,HRV_0207,2022-11-30 19:13:27
,wl-rdm,53,255336,0.0-6.45-0.45,0.0,51.0,,,,,,,[],,,,,,50.0,0.0,u,0.0,True,2941.0,86.0,63.0,40.0,False,,257.7775572843164,[],"[683, 384]",ColorTask,18.0,46.0,,,HRV,HRV_0207,2022-11-30 19:13:27
,wl-rdm,54,259538,0.0-6.46-0.46,0.0,52.0,,,,,,,[],,,,,,56.4,1.0,u,0.0,False,2724.0,122.0,63.0,40.0,False,,335.00361121921117,[],"[683, 384]",ColorTask,17.0,47.0,,,HRV,HRV_0207,2022-11-30 19:13:27
,wl-rdm,55,263086,0.0-6.47-0.47,0.0,53.0,,,,,,,[],,,,,,62.5,0.0,u,0.0,True,1949.0,63.0,63.0,40.0,False,,310.47718159434794,[],"[683, 384]",ColorTask,18.0,48.0,,,HRV,HRV_0207,2022-11-30 19:13:27
,wl-rdm,56,266783,0.0-6.48-0.48,0.0,54.0,,,,,,,[],,,,,,50.0,1.0,i,1.0,True,2244.0,83.0,63.0,40.0,False,,347.7541298756709,[],"[683, 384]",ColorTask,19.0,49.0,,,HRV,HRV_0207,2022-11-30 19:13:27
,wl-rdm,57,270360,0.0-6.49-0.49,0.0,55.0,,,,,,,[],,,,,,53.2,1.0,i,1.0,True,2264.0,80.0,63.0,40.0,False,,248.21227315116968,[],"[683, 384]",ColorTask,20.0,50.0,,,HRV,HRV_0207,2022-11-30 19:13:27
,wl-rdm,58,273032,0.0-6.50-0.50,0.0,56.0,,,,,,,[],,,,,,87.9,0.0,u,0.0,True,1371.0,54.0,63.0,40.0,False,,231.75231966522688,[],"[683, 384]",ColorTask,21.0,51.0,,,HRV,HRV_0207,2022-11-30 19:13:27
,wl-rdm,59,276518,0.0-6.51-0.51,0.0,57.0,,,,,,,[],,,,,,73.6,1.0,i,1.0,True,2078.0,92.0,63.0,40.0,False,,214.5840441430854,[],"[683, 384]",ColorTask,22.0,52.0,,,HRV,HRV_0207,2022-11-30 19:13:27
,wl-rdm,60,280720,0.0-6.52-0.52,0.0,58.0,,,,,,,[],,,,,,50.0,0.0,u,0.0,True,2775.0,98.0,63.0,40.0,False,,224.357690069815,[],"[683, 384]",ColorTask,23.0,53.0,,,HRV,HRV_0207,2022-11-30 19:13:27
,wl-rdm,61,284129,0.0-6.53-0.53,0.0,59.0,,,,,,,[],,,,,,62.5,0.0,u,0.0,True,1896.0,86.0,63.0,40.0,False,,243.04723518650232,[],"[683, 384]",ColorTask,24.0,54.0,,,HRV,HRV_0207,2022-11-30 19:13:27
,wl-rdm,62,287969,0.0-6.54-0.54,0.0,60.0,,,,,,,[],,,,,,53.2,0.0,i,1.0,False,2514.0,95.0,63.0,40.0,False,,251.56356299886835,[],"[683, 384]",ColorTask,23.0,55.0,,,HRV,HRV_0207,2022-11-30 19:13:27
,wl-rdm,63,290844,0.0-6.55-0.55,0.0,61.0,,,,,,,[],,,,,,73.6,1.0,i,1.0,True,1572.0,65.0,63.0,40.0,False,,202.2298862220029,[],"[683, 384]",ColorTask,24.0,56.0,,,HRV,HRV_0207,2022-11-30 19:13:27
,wl-rdm,64,295020,0.0-6.56-0.56,0.0,62.0,,,,,,,[],,,,,,73.6,0.0,i,1.0,False,2703.0,99.0,63.0,40.0,False,,391.6470709363914,[],"[683, 384]",ColorTask,23.0,57.0,,,HRV,HRV_0207,2022-11-30 19:13:27
,wl-rdm,65,299314,0.0-6.57-0.57,0.0,63.0,,,,,,,[],,,,,,56.4,1.0,i,1.0,True,2904.0,94.0,63.0,40.0,False,,232.2497922740695,[],"[683, 384]",ColorTask,24.0,58.0,,,HRV,HRV_0207,2022-11-30 19:13:27
,wl-rdm,66,302188,0.0-6.58-0.58,0.0,64.0,,,,,,,[],,,,,,50.0,1.0,u,0.0,False,1501.0,40.0,63.0,40.0,False,,286.9891141778736,[],"[683, 384]",ColorTask,23.0,59.0,,,HRV,HRV_0207,2022-11-30 19:13:27
,wl-rdm,67,305651,0.0-6.59-0.59,0.0,65.0,,,,,,,[],,,,,,62.5,1.0,i,1.0,True,2088.0,71.0,63.0,40.0,False,,303.43230668187175,[],"[683, 384]",ColorTask,24.0,60.0,,,HRV,HRV_0207,2022-11-30 19:13:27
,wl-rdm,68,308234,0.0-6.60-0.60,0.0,66.0,,,,,,,[],,,,,,87.9,1.0,i,1.0,True,1221.0,49.0,63.0,40.0,False,,267.1462959719156,[],"[683, 384]",ColorTask,25.0,61.0,,,HRV,HRV_0207,2022-11-30 19:13:27
,wl-rdm,69,311326,0.0-6.61-0.61,0.0,67.0,,,,,,,[],,,,,,62.5,1.0,i,1.0,True,1786.0,59.0,63.0,40.0,False,,219.97975974259134,[],"[683, 384]",ColorTask,26.0,62.0,,,HRV,HRV_0207,2022-11-30 19:13:27
,wl-rdm,70,313984,0.0-6.62-0.62,0.0,68.0,,,,,,,[],,,,,,87.9,0.0,u,0.0,True,858.0,42.0,63.0,40.0,False,,259.8437314379361,[],"[683, 384]",ColorTask,27.0,63.0,,,HRV,HRV_0207,2022-11-30 19:13:27
,wl-rdm,71,317720,0.0-6.63-0.63,0.0,69.0,,,,,,,[],,,,,,53.2,0.0,u,0.0,True,2383.0,92.0,63.0,40.0,False,,254.9483451518846,[],"[683, 384]",ColorTask,28.0,64.0,,,HRV,HRV_0207,2022-11-30 19:13:27
,wl-rdm,72,321017,0.0-6.64-0.64,0.0,70.0,,,,,,,[],,,,,,62.5,1.0,i,1.0,True,2012.0,63.0,63.0,40.0,False,,207.48704091926166,[],"[683, 384]",ColorTask,29.0,65.0,,,HRV,HRV_0207,2022-11-30 19:13:27
,wl-rdm,73,323848,0.0-6.65-0.65,0.0,71.0,,,,,,,[],,,,,,50.0,1.0,u,0.0,False,1354.0,42.0,63.0,40.0,False,,385.00460102425035,[],"[683, 384]",ColorTask,28.0,66.0,,,HRV,HRV_0207,2022-11-30 19:13:27
,wl-rdm,74,327044,0.0-6.66-0.66,0.0,72.0,,,,,,,[],,,,,,73.6,1.0,i,1.0,True,1576.0,55.0,63.0,40.0,False,,370.73952181976824,[],"[683, 384]",ColorTask,29.0,67.0,,,HRV,HRV_0207,2022-11-30 19:13:27
,wl-rdm,75,331380,0.0-6.67-0.67,0.0,72.0,,,,,,,[],,,,,,56.4,1.0,u,,,3476.0,116.0,63.0,40.0,True,RT_timeout ,234.93282203387813,[],"[683, 384]",ColorTask,28.0,68.0,,,HRV,HRV_0207,2022-11-30 19:13:27
,wl-rdm,76,333893,0.0-6.68-0.68,0.0,73.0,,,,,,,[],,,,,,73.6,0.0,i,1.0,False,1078.0,39.0,63.0,40.0,False,,329.26893382741343,[],"[683, 384]",ColorTask,27.0,69.0,,,HRV,HRV_0207,2022-11-30 19:13:27
,wl-rdm,77,334990,0.0-6.69-0.69,0.0,73.0,,,,,,,[],,,,,,62.5,0.0,u,,,100.0,0.0,63.0,40.0,True,too_early ,270.05742555635896,[],"[683, 384]",ColorTask,26.0,70.0,,,HRV,HRV_0207,2022-11-30 19:13:27
,wl-rdm,78,338204,0.0-6.70-0.70,0.0,74.0,,,,,,,[],,,,,,87.9,1.0,i,1.0,True,1871.0,45.0,63.0,40.0,False,,256.20072607100127,[],"[683, 384]",ColorTask,27.0,71.0,,,HRV,HRV_0207,2022-11-30 19:13:27
,wl-rdm,79,340631,0.0-6.71-0.71,0.0,75.0,,,,,,,[],,,,,,56.4,0.0,u,0.0,True,1077.0,30.0,63.0,40.0,False,,239.89576367996935,[],"[683, 384]",ColorTask,28.0,72.0,,,HRV,HRV_0207,2022-11-30 19:13:27
,wl-rdm,80,344834,0.0-6.72-0.72,0.0,76.0,,,,,,,[],,,,,,56.4,1.0,i,1.0,True,2755.0,90.0,63.0,40.0,False,,278.35689383332635,[],"[683, 384]",ColorTask,29.0,73.0,,,HRV,HRV_0207,2022-11-30 19:13:27
,wl-rdm,81,347890,0.0-6.73-0.73,0.0,77.0,,,,,,,[],,,,,,50.0,1.0,u,0.0,False,1740.0,73.0,63.0,40.0,False,,229.01831052951658,[],"[683, 384]",ColorTask,28.0,74.0,,,HRV,HRV_0207,2022-11-30 19:13:27
,wl-rdm,82,351271,0.0-6.74-0.74,0.0,78.0,,,,,,,[],,,,,,53.2,0.0,u,0.0,True,1965.0,60.0,63.0,40.0,False,,326.5453236071865,[],"[683, 384]",ColorTask,29.0,75.0,,,HRV,HRV_0207,2022-11-30 19:13:27
,wl-rdm,83,354106,0.0-6.75-0.75,0.0,79.0,,,,,,,[],,,,,,73.6,0.0,u,0.0,True,1412.0,62.0,63.0,40.0,False,,222.96465531004128,[],"[683, 384]",ColorTask,30.0,76.0,,,HRV,HRV_0207,2022-11-30 19:13:27
,wl-rdm,84,356762,0.0-6.76-0.76,0.0,80.0,,,,,,,[],,,,,,73.6,0.0,u,0.0,True,1325.0,53.0,63.0,40.0,False,,220.8954781008435,[],"[683, 384]",ColorTask,31.0,77.0,,,HRV,HRV_0207,2022-11-30 19:13:27
,wl-rdm,85,359098,0.0-6.77-0.77,0.0,81.0,,,,,,,[],,,,,,50.0,0.0,u,0.0,True,1016.0,30.0,63.0,40.0,False,,211.5634804487565,[],"[683, 384]",ColorTask,32.0,78.0,,,HRV,HRV_0207,2022-11-30 19:13:27
,wl-rdm,86,363570,0.0-6.78-0.78,0.0,81.0,,,,,,,[],,,,,,62.5,1.0,i,,,3343.0,131.0,63.0,40.0,True,RT_timeout ,225.55140878203468,[],"[683, 384]",ColorTask,31.0,79.0,,,HRV,HRV_0207,2022-11-30 19:13:27
,wl-rdm,87,365812,0.0-6.79-0.79,0.0,82.0,,,,,,,[],,,,,,73.6,1.0,u,0.0,False,896.0,52.0,63.0,40.0,False,,295.53574970844426,[],"[683, 384]",ColorTask,30.0,80.0,,,HRV,HRV_0207,2022-11-30 19:13:27
,wl-rdm,88,369463,0.0-6.80-0.80,0.0,83.0,,,,,,,[],,,,,,53.2,0.0,i,1.0,False,2285.0,110.0,63.0,40.0,False,,259.5917190153966,[],"[683, 384]",ColorTask,29.0,81.0,,,HRV,HRV_0207,2022-11-30 19:13:27
,wl-rdm,89,372430,0.0-6.81-0.81,0.0,84.0,,,,,,,[],,,,,,87.9,0.0,u,0.0,True,1534.0,63.0,63.0,40.0,False,,312.75576348076913,[],"[683, 384]",ColorTask,30.0,82.0,,,HRV,HRV_0207,2022-11-30 19:13:27
,wl-rdm,90,376861,0.0-6.82-0.82,0.0,84.0,,,,,,,[],,,,,,50.0,1.0,i,,,3260.0,104.0,63.0,40.0,True,RT_timeout ,302.95542287742455,[],"[683, 384]",ColorTask,29.0,83.0,,,HRV,HRV_0207,2022-11-30 19:13:27
,wl-rdm,91,379631,0.0-6.83-0.83,0.0,85.0,,,,,,,[],,,,,,56.4,0.0,u,0.0,True,1445.0,50.0,63.0,40.0,False,,250.766078870118,[],"[683, 384]",ColorTask,30.0,84.0,,,HRV,HRV_0207,2022-11-30 19:13:27
,wl-rdm,92,383694,0.0-6.84-0.84,0.0,86.0,,,,,,,[],,,,,,62.5,1.0,i,1.0,True,2447.0,64.0,63.0,40.0,False,,226.88003478189194,[],"[683, 384]",ColorTask,31.0,85.0,,,HRV,HRV_0207,2022-11-30 19:13:27
,wl-rdm,93,386068,0.0-6.85-0.85,0.0,87.0,,,,,,,[],,,,,,87.9,1.0,i,1.0,True,1056.0,38.0,63.0,40.0,False,,218.91890844421198,[],"[683, 384]",ColorTask,32.0,86.0,,,HRV,HRV_0207,2022-11-30 19:13:27
,wl-rdm,94,389742,0.0-6.86-0.86,0.0,88.0,,,,,,,[],,,,,,62.5,0.0,u,0.0,True,2207.0,80.0,63.0,40.0,False,,276.58187680479267,[],"[683, 384]",ColorTask,33.0,87.0,,,HRV,HRV_0207,2022-11-30 19:13:27
,wl-rdm,95,392694,0.0-6.87-0.87,0.0,89.0,,,,,,,[],,,,,,62.5,0.0,u,0.0,True,1456.0,65.0,63.0,40.0,False,,386.96187518231875,[],"[683, 384]",ColorTask,34.0,88.0,,,HRV,HRV_0207,2022-11-30 19:13:27
,wl-rdm,96,396818,0.0-6.88-0.88,0.0,90.0,,,,,,,[],,,,,,73.6,1.0,i,1.0,True,2837.0,122.0,63.0,40.0,False,,212.41138831422222,[],"[683, 384]",ColorTask,35.0,89.0,,,HRV,HRV_0207,2022-11-30 19:13:27
,wl-rdm,97,400456,0.0-6.89-0.89,0.0,91.0,,,,,,,[],,,,,,73.6,1.0,i,1.0,True,2164.0,53.0,63.0,40.0,False,,237.29347337290625,[],"[683, 384]",ColorTask,36.0,90.0,,,HRV,HRV_0207,2022-11-30 19:13:27
,wl-rdm,98,403742,0.0-6.90-0.90,0.0,92.0,,,,,,,[],,,,,,56.4,1.0,u,0.0,False,1626.0,60.0,63.0,40.0,False,,273.6617793536462,[],"[683, 384]",ColorTask,35.0,91.0,,,HRV,HRV_0207,2022-11-30 19:13:27
,wl-rdm,99,406163,0.0-6.91-0.91,0.0,93.0,,,,,,,[],,,,,,53.2,0.0,i,1.0,False,1121.0,48.0,63.0,40.0,False,,225.32920398807755,[],"[683, 384]",ColorTask,34.0,92.0,,,HRV,HRV_0207,2022-11-30 19:13:27
,wl-rdm,100,408239,0.0-6.92-0.92,0.0,94.0,,,,,,,[],,,,,,56.4,0.0,u,0.0,True,706.0,22.0,63.0,40.0,False,,311.0626215516797,[],"[683, 384]",ColorTask,35.0,93.0,,,HRV,HRV_0207,2022-11-30 19:13:27
,wl-rdm,101,411075,0.0-6.93-0.93,0.0,95.0,,,,,,,[],,,,,,73.6,0.0,u,0.0,True,1399.0,46.0,63.0,40.0,False,,335.3027304576326,[],"[683, 384]",ColorTask,36.0,94.0,,,HRV,HRV_0207,2022-11-30 19:13:27
,wl-rdm,102,414206,0.0-6.94-0.94,0.0,96.0,,,,,,,[],,,,,,56.4,0.0,i,1.0,False,1798.0,52.0,63.0,40.0,False,,259.0279859912572,[],"[683, 384]",ColorTask,35.0,95.0,,,HRV,HRV_0207,2022-11-30 19:13:27
,wl-rdm,103,418149,0.0-6.95-0.95,0.0,97.0,,,,,,,[],,,,,,53.2,1.0,i,1.0,True,2503.0,88.0,63.0,40.0,False,,340.4259670140172,[],"[683, 384]",ColorTask,36.0,96.0,,,HRV,HRV_0207,2022-11-30 19:13:27
,wl-rdm,104,421528,0.0-6.96-0.96,0.0,98.0,,,,,,,[],,,,,,53.2,1.0,u,0.0,False,1983.0,72.0,63.0,40.0,False,,319.2427994689623,[],"[683, 384]",ColorTask,35.0,97.0,,,HRV,HRV_0207,2022-11-30 19:13:27
,wl-rdm,105,425313,0.0-6.97-0.97,0.0,99.0,,,,,,,[],,,,,,56.4,1.0,i,1.0,True,2350.0,65.0,63.0,40.0,False,,316.17624410061967,[],"[683, 384]",ColorTask,36.0,98.0,,,HRV,HRV_0207,2022-11-30 19:13:27
,wl-rdm,106,428043,0.0-6.98-0.98,0.0,100.0,,,,,,,[],,,,,,73.6,0.0,u,0.0,True,1352.0,52.0,63.0,40.0,False,,262.3505369324285,[],"[683, 384]",ColorTask,37.0,99.0,,,HRV,HRV_0207,2022-11-30 19:13:27
,wl-rdm,107,431257,0.0-6.99-0.99,0.0,101.0,,,,,,,[],,,,,,53.2,1.0,u,0.0,False,1822.0,59.0,63.0,40.0,False,,309.83916456926113,[],"[683, 384]",ColorTask,36.0,100.0,,,HRV,HRV_0207,2022-11-30 19:13:27
,wl-rdm,108,434098,0.0-6.100-0.100,0.0,102.0,,,,,,,[],,,,,,87.9,1.0,i,1.0,True,1316.0,56.0,63.0,40.0,False,,343.8665273194523,[],"[683, 384]",ColorTask,37.0,101.0,,,HRV,HRV_0207,2022-11-30 19:13:27
,wl-rdm,109,436898,0.0-6.101-0.101,0.0,103.0,,,,,,,[],,,,,,50.0,0.0,u,0.0,True,1450.0,60.0,63.0,40.0,False,,261.1354466900037,[],"[683, 384]",ColorTask,38.0,102.0,,,HRV,HRV_0207,2022-11-30 19:13:27
,wl-rdm,110,439882,0.0-6.102-0.102,0.0,104.0,,,,,,,[],,,,,,87.9,1.0,i,1.0,True,1698.0,74.0,63.0,40.0,False,,205.57113447391606,[],"[683, 384]",ColorTask,39.0,103.0,,,HRV,HRV_0207,2022-11-30 19:13:27
,wl-rdm,111,444240,0.0-6.103-0.103,0.0,104.0,,,,,,,[],,,,,,87.9,0.0,,,,,114.0,63.0,40.0,True,RT_timeout ,252.41207380384174,[],"[683, 384]",ColorTask,38.0,104.0,,,HRV,HRV_0207,2022-11-30 19:13:27
,wl-rdm,112,445345,0.0-6.104-0.104,0.0,104.0,,,,,,,[],,,,,,56.4,0.0,u,,,350.0,0.0,63.0,40.0,True,too_early ,287.27228555891435,[],"[683, 384]",ColorTask,37.0,105.0,,,HRV,HRV_0207,2022-11-30 19:13:27
,wl-rdm,113,449708,0.0-6.105-0.105,0.0,104.0,,,,,,,[],,,,,,56.4,1.0,i,,,3428.0,91.0,63.0,40.0,True,RT_timeout ,258.6213707909005,[],"[683, 384]",ColorTask,36.0,106.0,,,HRV,HRV_0207,2022-11-30 19:13:27
,wl-rdm,114,452858,0.0-6.106-0.106,0.0,105.0,,,,,,,[],,,,,,62.5,0.0,u,0.0,True,1753.0,72.0,63.0,40.0,False,,244.5442776369726,[],"[683, 384]",ColorTask,37.0,107.0,,,HRV,HRV_0207,2022-11-30 19:13:27
,wl-rdm,115,456193,0.0-6.107-0.107,0.0,106.0,,,,,,,[],,,,,,50.0,1.0,u,0.0,False,2039.0,68.0,63.0,40.0,False,,233.0948055563572,[],"[683, 384]",ColorTask,36.0,108.0,,,HRV,HRV_0207,2022-11-30 19:13:27
,wl-rdm,116,459142,0.0-6.108-0.108,0.0,107.0,,,,,,,[],,,,,,87.9,1.0,i,1.0,True,1528.0,68.0,63.0,40.0,False,,299.3631287152636,[],"[683, 384]",ColorTask,37.0,109.0,,,HRV,HRV_0207,2022-11-30 19:13:27
,wl-rdm,117,461854,0.0-6.109-0.109,0.0,108.0,,,,,,,[],,,,,,62.5,1.0,u,0.0,False,1394.0,36.0,63.0,40.0,False,,227.95133244935514,[],"[683, 384]",ColorTask,36.0,110.0,,,HRV,HRV_0207,2022-11-30 19:13:27
,wl-rdm,118,464710,0.0-6.110-0.110,0.0,109.0,,,,,,,[],,,,,,87.9,1.0,i,1.0,True,1515.0,46.0,63.0,40.0,False,,278.74329123647567,[],"[683, 384]",ColorTask,37.0,111.0,,,HRV,HRV_0207,2022-11-30 19:13:27
,wl-rdm,119,469084,0.0-6.111-0.111,0.0,109.0,,,,,,,[],,,,,,62.5,1.0,,,,,125.0,63.0,40.0,True,RT_timeout ,212.9730594535084,[],"[683, 384]",ColorTask,36.0,112.0,,,HRV,HRV_0207,2022-11-30 19:13:27
,wl-rdm,120,470442,0.0-6.112-0.112,0.0,109.0,,,,,,,[],,,,,,53.2,1.0,i,,,287.0,0.0,63.0,40.0,True,too_early ,304.63066230608763,[],"[683, 384]",ColorTask,35.0,113.0,,,HRV,HRV_0207,2022-11-30 19:13:27
,wl-rdm,121,473912,0.0-6.113-0.113,0.0,110.0,,,,,,,[],,,,,,50.0,0.0,i,1.0,False,2169.0,110.0,63.0,40.0,False,,206.91553623941826,[],"[683, 384]",ColorTask,34.0,114.0,,,HRV,HRV_0207,2022-11-30 19:13:27
,wl-rdm,122,476003,0.0-6.114-0.114,0.0,111.0,,,,,,,[],,,,,,87.9,0.0,u,0.0,True,745.0,13.0,63.0,40.0,False,,258.52691875809194,[],"[683, 384]",ColorTask,35.0,115.0,,,HRV,HRV_0207,2022-11-30 19:13:27
,wl-rdm,123,479869,0.0-6.115-0.115,0.0,112.0,,,,,,,[],,,,,,56.4,0.0,u,0.0,True,2454.0,69.0,63.0,40.0,False,,275.15441570068276,[],"[683, 384]",ColorTask,36.0,116.0,,,HRV,HRV_0207,2022-11-30 19:13:27
,wl-rdm,124,483237,0.0-6.116-0.116,0.0,113.0,,,,,,,[],,,,,,62.5,1.0,u,0.0,False,1892.0,74.0,63.0,40.0,False,,373.7676158145661,[],"[683, 384]",ColorTask,35.0,117.0,,,HRV,HRV_0207,2022-11-30 19:13:27
,wl-rdm,125,485992,0.0-6.117-0.117,0.0,114.0,,,,,,,[],,,,,,53.2,1.0,i,1.0,True,1068.0,44.0,63.0,40.0,False,,229.63449461785635,[],"[683, 384]",ColorTask,36.0,118.0,,,HRV,HRV_0207,2022-11-30 19:13:27
,wl-rdm,126,488490,0.0-6.118-0.118,0.0,115.0,,,,,,,[],,,,,,87.9,0.0,u,0.0,True,1102.0,33.0,63.0,40.0,False,,237.6062397509981,[],"[683, 384]",ColorTask,37.0,119.0,,,HRV,HRV_0207,2022-11-30 19:13:27
,wl-rdm,127,492017,0.0-6.119-0.119,0.0,116.0,,,,,,,[],,,,,,56.4,1.0,i,1.0,True,2163.0,68.0,63.0,40.0,False,,224.35026325850043,[],"[683, 384]",ColorTask,38.0,120.0,,,HRV,HRV_0207,2022-11-30 19:13:27
,wl-html-keyboard-response,128,501742,0.0-7.0-0.0,1.0,117.0,,,,,,,,7709.0,1.0,0,,,,,,,,,,,,,,,,,,,,,,HRV,HRV_0207,2022-11-30 19:13:27
,wl-rdm,129,505192,0.0-8.0-0.0,1.0,118.0,,,,,,,[],,,,,,73.6,1.0,i,1.0,True,2066.0,72.0,63.0,40.0,False,,221.59676685033028,[],"[683, 384]",ColorTask,39.0,1.0,,,HRV,HRV_0207,2022-11-30 19:13:27
,wl-rdm,130,507720,0.0-8.1-0.1,1.0,119.0,,,,,,,[],,,,,,53.2,0.0,i,1.0,False,1236.0,39.0,63.0,40.0,False,,219.2519157270377,[],"[683, 384]",ColorTask,38.0,2.0,,,HRV,HRV_0207,2022-11-30 19:13:27
,wl-rdm,131,511292,0.0-8.2-0.2,1.0,120.0,,,,,,,[],,,,,,56.4,1.0,i,1.0,True,1963.0,87.0,63.0,40.0,False,,323.7909409948394,[],"[683, 384]",ColorTask,39.0,3.0,,,HRV,HRV_0207,2022-11-30 19:13:27
,wl-rdm,132,515058,0.0-8.3-0.3,1.0,121.0,,,,,,,[],,,,,,56.4,1.0,i,1.0,True,2465.0,65.0,63.0,40.0,False,,219.44367846628387,[],"[683, 384]",ColorTask,40.0,4.0,,,HRV,HRV_0207,2022-11-30 19:13:27
,wl-rdm,133,518257,0.0-8.4-0.4,1.0,122.0,,,,,,,[],,,,,,62.5,1.0,i,1.0,True,1522.0,73.0,63.0,40.0,False,,339.5294008868026,[],"[683, 384]",ColorTask,41.0,5.0,,,HRV,HRV_0207,2022-11-30 19:13:27
,wl-rdm,134,522669,0.0-8.5-0.5,1.0,122.0,,,,,,,[],,,,,,50.0,1.0,i,,,3151.0,127.0,63.0,40.0,True,RT_timeout ,240.78851780956276,[],"[683, 384]",ColorTask,40.0,6.0,,,HRV,HRV_0207,2022-11-30 19:13:27
,wl-rdm,135,525267,0.0-8.6-0.6,1.0,123.0,,,,,,,[],,,,,,87.9,1.0,i,1.0,True,1220.0,60.0,63.0,40.0,False,,314.01024064777846,[],"[683, 384]",ColorTask,41.0,7.0,,,HRV,HRV_0207,2022-11-30 19:13:27
,wl-rdm,136,528386,0.0-8.7-0.7,1.0,124.0,,,,,,,[],,,,,,62.5,1.0,i,1.0,True,1780.0,85.0,63.0,40.0,False,,228.3347442562959,[],"[683, 384]",ColorTask,42.0,8.0,,,HRV,HRV_0207,2022-11-30 19:13:27
,wl-rdm,137,531072,0.0-8.8-0.8,1.0,125.0,,,,,,,[],,,,,,56.4,0.0,i,1.0,False,1391.0,34.0,63.0,40.0,False,,216.7633818197751,[],"[683, 384]",ColorTask,41.0,9.0,,,HRV,HRV_0207,2022-11-30 19:13:27
,wl-rdm,138,534499,0.0-8.9-0.9,1.0,126.0,,,,,,,[],,,,,,53.2,1.0,i,1.0,True,1778.0,50.0,63.0,40.0,False,,350.3171529825014,[],"[683, 384]",ColorTask,42.0,10.0,,,HRV,HRV_0207,2022-11-30 19:13:27
,wl-rdm,139,537405,0.0-8.10-0.10,1.0,127.0,,,,,,,[],,,,,,56.4,0.0,u,0.0,True,1496.0,57.0,63.0,40.0,False,,277.1549665136376,[],"[683, 384]",ColorTask,43.0,11.0,,,HRV,HRV_0207,2022-11-30 19:13:27
,wl-rdm,140,541036,0.0-8.11-0.11,1.0,128.0,,,,,,,[],,,,,,73.6,1.0,i,1.0,True,2184.0,66.0,63.0,40.0,False,,363.90867582754277,[],"[683, 384]",ColorTask,44.0,12.0,,,HRV,HRV_0207,2022-11-30 19:13:27
,wl-rdm,141,543865,0.0-8.12-0.12,1.0,129.0,,,,,,,[],,,,,,87.9,0.0,u,0.0,True,1461.0,49.0,63.0,40.0,False,,216.57751945948218,[],"[683, 384]",ColorTask,45.0,13.0,,,HRV,HRV_0207,2022-11-30 19:13:27
,wl-rdm,142,547529,0.0-8.13-0.13,1.0,130.0,,,,,,,[],,,,,,73.6,0.0,i,1.0,False,2205.0,76.0,63.0,40.0,False,,370.2132541685369,[],"[683, 384]",ColorTask,44.0,14.0,,,HRV,HRV_0207,2022-11-30 19:13:27
,wl-rdm,143,550589,0.0-8.14-0.14,1.0,131.0,,,,,,,[],,,,,,56.4,0.0,u,0.0,True,1648.0,56.0,63.0,40.0,False,,298.91408782440277,[],"[683, 384]",ColorTask,45.0,15.0,,,HRV,HRV_0207,2022-11-30 19:13:27
,wl-rdm,144,553509,0.0-8.15-0.15,1.0,132.0,,,,,,,[],,,,,,62.5,0.0,u,0.0,True,1313.0,48.0,63.0,40.0,False,,236.39620362932644,[],"[683, 384]",ColorTask,46.0,16.0,,,HRV,HRV_0207,2022-11-30 19:13:27
,wl-rdm,145,556832,0.0-8.16-0.16,1.0,133.0,,,,,,,[],,,,,,56.4,1.0,i,1.0,True,1985.0,72.0,63.0,40.0,False,,210.06739306455714,[],"[683, 384]",ColorTask,47.0,17.0,,,HRV,HRV_0207,2022-11-30 19:13:27
,wl-rdm,146,560915,0.0-8.17-0.17,1.0,134.0,,,,,,,[],,,,,,62.5,1.0,u,0.0,False,2474.0,101.0,63.0,40.0,False,,335.4191464885674,[],"[683, 384]",ColorTask,46.0,18.0,,,HRV,HRV_0207,2022-11-30 19:13:27
,wl-rdm,147,564105,0.0-8.18-0.18,1.0,135.0,,,,,,,[],,,,,,56.4,0.0,u,0.0,True,1539.0,42.0,63.0,40.0,False,,356.7180326490587,[],"[683, 384]",ColorTask,47.0,19.0,,,HRV,HRV_0207,2022-11-30 19:13:27
,wl-rdm,148,567087,0.0-8.19-0.19,1.0,136.0,,,,,,,[],,,,,,73.6,1.0,u,0.0,False,1648.0,44.0,63.0,40.0,False,,244.37737673522534,[],"[683, 384]",ColorTask,46.0,20.0,,,HRV,HRV_0207,2022-11-30 19:13:27
,wl-rdm,149,569827,0.0-8.20-0.20,1.0,137.0,,,,,,,[],,,,,,50.0,1.0,u,0.0,False,1256.0,55.0,63.0,40.0,False,,221.47378941604137,[],"[683, 384]",ColorTask,45.0,21.0,,,HRV,HRV_0207,2022-11-30 19:13:27
,wl-rdm,150,573370,0.0-8.21-0.21,1.0,138.0,,,,,,,[],,,,,,50.0,0.0,i,1.0,False,2089.0,77.0,63.0,40.0,False,,395.8208303398526,[],"[683, 384]",ColorTask,44.0,22.0,,,HRV,HRV_0207,2022-11-30 19:13:27
,wl-rdm,151,575998,0.0-8.22-0.22,1.0,139.0,,,,,,,[],,,,,,87.9,0.0,u,0.0,True,1246.0,52.0,63.0,40.0,False,,221.71701134214467,[],"[683, 384]",ColorTask,45.0,23.0,,,HRV,HRV_0207,2022-11-30 19:13:27
,wl-rdm,152,579320,0.0-8.23-0.23,1.0,140.0,,,,,,,[],,,,,,50.0,0.0,u,0.0,True,1885.0,65.0,63.0,40.0,False,,339.8055032783698,[],"[683, 384]",ColorTask,46.0,24.0,,,HRV,HRV_0207,2022-11-30 19:13:27
,wl-rdm,153,582361,0.0-8.24-0.24,1.0,141.0,,,,,,,[],,,,,,62.5,1.0,i,1.0,True,1595.0,52.0,63.0,40.0,False,,231.9251074923372,[],"[683, 384]",ColorTask,47.0,25.0,,,HRV,HRV_0207,2022-11-30 19:13:27
,wl-rdm,154,585353,0.0-8.25-0.25,1.0,142.0,,,,,,,[],,,,,,62.5,1.0,i,1.0,True,1733.0,71.0,63.0,40.0,False,,208.17216501361452,[],"[683, 384]",ColorTask,48.0,26.0,,,HRV,HRV_0207,2022-11-30 19:13:27
,wl-rdm,155,588875,0.0-8.26-0.26,1.0,143.0,,,,,,,[],,,,,,50.0,0.0,i,1.0,False,2085.0,65.0,63.0,40.0,False,,250.56316017064398,[],"[683, 384]",ColorTask,47.0,27.0,,,HRV,HRV_0207,2022-11-30 19:13:27
,wl-rdm,156,591843,0.0-8.27-0.27,1.0,144.0,,,,,,,[],,,,,,73.6,1.0,i,1.0,True,1477.0,50.0,63.0,40.0,False,,291.03023963757664,[],"[683, 384]",ColorTask,48.0,28.0,,,HRV,HRV_0207,2022-11-30 19:13:27
,wl-rdm,157,595148,0.0-8.28-0.28,1.0,145.0,,,,,,,[],,,,,,56.4,1.0,i,1.0,True,1865.0,58.0,63.0,40.0,False,,340.20515346860736,[],"[683, 384]",ColorTask,49.0,29.0,,,HRV,HRV_0207,2022-11-30 19:13:27
,wl-rdm,158,597540,0.0-8.29-0.29,1.0,146.0,,,,,,,[],,,,,,62.5,0.0,u,0.0,True,1079.0,59.0,63.0,40.0,False,,260.0484285805156,[],"[683, 384]",ColorTask,50.0,30.0,,,HRV,HRV_0207,2022-11-30 19:13:27
,wl-rdm,159,600515,0.0-8.30-0.30,1.0,147.0,,,,,,,[],,,,,,53.2,0.0,u,0.0,True,1568.0,84.0,63.0,40.0,False,,336.8037923246095,[],"[683, 384]",ColorTask,51.0,31.0,,,HRV,HRV_0207,2022-11-30 19:13:27
,wl-rdm,160,603580,0.0-8.31-0.31,1.0,148.0,,,,,,,[],,,,,,73.6,1.0,i,1.0,True,1532.0,35.0,63.0,40.0,False,,360.01518216516297,[],"[683, 384]",ColorTask,52.0,32.0,,,HRV,HRV_0207,2022-11-30 19:13:27
,wl-rdm,161,606994,0.0-8.32-0.32,1.0,149.0,,,,,,,[],,,,,,73.6,0.0,u,0.0,True,1953.0,49.0,63.0,40.0,False,,368.75145531972635,[],"[683, 384]",ColorTask,53.0,33.0,,,HRV,HRV_0207,2022-11-30 19:13:27
,wl-rdm,162,611397,0.0-8.33-0.33,1.0,149.0,,,,,,,[],,,,,,53.2,1.0,i,,,3124.0,117.0,63.0,40.0,True,RT_timeout ,267.93785797543705,[],"[683, 384]",ColorTask,52.0,34.0,,,HRV,HRV_0207,2022-11-30 19:13:27
,wl-rdm,163,614665,0.0-8.34-0.34,1.0,150.0,,,,,,,[],,,,,,50.0,1.0,i,1.0,True,1848.0,77.0,63.0,40.0,False,,233.48159571691303,[],"[683, 384]",ColorTask,53.0,35.0,,,HRV,HRV_0207,2022-11-30 19:13:27
,wl-rdm,164,618246,0.0-8.35-0.35,1.0,151.0,,,,,,,[],,,,,,50.0,1.0,u,0.0,False,2201.0,68.0,63.0,40.0,False,,257.3774090374932,[],"[683, 384]",ColorTask,52.0,36.0,,,HRV,HRV_0207,2022-11-30 19:13:27
,wl-rdm,165,621297,0.0-8.36-0.36,1.0,152.0,,,,,,,[],,,,,,73.6,1.0,i,1.0,True,1682.0,68.0,63.0,40.0,False,,244.29839570775545,[],"[683, 384]",ColorTask,53.0,37.0,,,HRV,HRV_0207,2022-11-30 19:13:27
,wl-rdm,166,624449,0.0-8.37-0.37,1.0,153.0,,,,,,,[],,,,,,53.2,0.0,i,1.0,False,1808.0,42.0,63.0,40.0,False,,261.2710491705545,[],"[683, 384]",ColorTask,52.0,38.0,,,HRV,HRV_0207,2022-11-30 19:13:27
,wl-rdm,167,627620,0.0-8.38-0.38,1.0,154.0,,,,,,,[],,,,,,53.2,1.0,i,1.0,True,1847.0,73.0,63.0,40.0,False,,259.9852682263263,[],"[683, 384]",ColorTask,53.0,39.0,,,HRV,HRV_0207,2022-11-30 19:13:27
,wl-rdm,168,630841,0.0-8.39-0.39,1.0,155.0,,,,,,,[],,,,,,73.6,1.0,i,1.0,True,1364.0,48.0,63.0,40.0,False,,312.87575612614796,[],"[683, 384]",ColorTask,54.0,40.0,,,HRV,HRV_0207,2022-11-30 19:13:27
,wl-rdm,169,633267,0.0-8.40-0.40,1.0,156.0,,,,,,,[],,,,,,87.9,0.0,u,0.0,True,994.0,28.0,63.0,40.0,False,,360.65089844216226,[],"[683, 384]",ColorTask,55.0,41.0,,,HRV,HRV_0207,2022-11-30 19:13:27
,wl-rdm,170,636363,0.0-8.41-0.41,1.0,157.0,,,,,,,[],,,,,,50.0,0.0,u,0.0,True,1810.0,74.0,63.0,40.0,False,,203.3586573423496,[],"[683, 384]",ColorTask,56.0,42.0,,,HRV,HRV_0207,2022-11-30 19:13:27
,wl-rdm,171,639013,0.0-8.42-0.42,1.0,158.0,,,,,,,[],,,,,,73.6,0.0,u,0.0,True,1175.0,47.0,63.0,40.0,False,,380.94583080650375,[],"[683, 384]",ColorTask,57.0,43.0,,,HRV,HRV_0207,2022-11-30 19:13:27
,wl-rdm,172,642531,0.0-8.43-0.43,1.0,159.0,,,,,,,[],,,,,,62.5,0.0,u,0.0,True,2008.0,84.0,63.0,40.0,False,,365.7969381686822,[],"[683, 384]",ColorTask,58.0,44.0,,,HRV,HRV_0207,2022-11-30 19:13:27
,wl-rdm,173,646020,0.0-8.44-0.44,1.0,160.0,,,,,,,[],,,,,,53.2,1.0,i,1.0,True,2044.0,69.0,63.0,40.0,False,,280.07611090857574,[],"[683, 384]",ColorTask,59.0,45.0,,,HRV,HRV_0207,2022-11-30 19:13:27
,wl-rdm,174,648595,0.0-8.45-0.45,1.0,161.0,,,,,,,[],,,,,,87.9,0.0,u,0.0,True,1275.0,57.0,63.0,40.0,False,,238.52622877291225,[],"[683, 384]",ColorTask,60.0,46.0,,,HRV,HRV_0207,2022-11-30 19:13:27
,wl-rdm,175,650992,0.0-8.46-0.46,1.0,162.0,,,,,,,[],,,,,,87.9,0.0,u,0.0,True,1042.0,35.0,63.0,40.0,False,,247.1760844576839,[],"[683, 384]",ColorTask,61.0,47.0,,,HRV,HRV_0207,2022-11-30 19:13:27
,wl-rdm,176,653965,0.0-8.47-0.47,1.0,163.0,,,,,,,[],,,,,,87.9,1.0,i,1.0,True,1464.0,48.0,63.0,40.0,False,,326.7007695711332,[],"[683, 384]",ColorTask,62.0,48.0,,,HRV,HRV_0207,2022-11-30 19:13:27
,wl-rdm,177,657162,0.0-8.48-0.48,1.0,164.0,,,,,,,[],,,,,,62.5,0.0,u,0.0,True,1804.0,57.0,63.0,40.0,False,,327.17397409907056,[],"[683, 384]",ColorTask,63.0,49.0,,,HRV,HRV_0207,2022-11-30 19:13:27
,wl-rdm,178,659698,0.0-8.49-0.49,1.0,165.0,,,,,,,[],,,,,,73.6,0.0,u,0.0,True,1203.0,40.0,63.0,40.0,False,,248.6351895077101,[],"[683, 384]",ColorTask,64.0,50.0,,,HRV,HRV_0207,2022-11-30 19:13:27
,wl-rdm,179,662314,0.0-8.50-0.50,1.0,166.0,,,,,,,[],,,,,,87.9,0.0,u,0.0,True,1246.0,64.0,63.0,40.0,False,,292.94635902354355,[],"[683, 384]",ColorTask,65.0,51.0,,,HRV,HRV_0207,2022-11-30 19:13:27
,wl-rdm,180,664686,0.0-8.51-0.51,1.0,167.0,,,,,,,[],,,,,,56.4,0.0,u,0.0,True,1016.0,51.0,63.0,40.0,False,,279.5164829399947,[],"[683, 384]",ColorTask,66.0,52.0,,,HRV,HRV_0207,2022-11-30 19:13:27
,wl-rdm,181,667927,0.0-8.52-0.52,1.0,168.0,,,,,,,[],,,,,,53.2,1.0,i,1.0,True,1848.0,56.0,63.0,40.0,False,,310.53413565675146,[],"[683, 384]",ColorTask,67.0,53.0,,,HRV,HRV_0207,2022-11-30 19:13:27
,wl-rdm,182,670447,0.0-8.53-0.53,1.0,169.0,,,,,,,[],,,,,,53.2,1.0,i,1.0,True,1164.0,45.0,63.0,40.0,False,,268.47793469818373,[],"[683, 384]",ColorTask,68.0,54.0,,,HRV,HRV_0207,2022-11-30 19:13:27
,wl-rdm,183,673677,0.0-8.54-0.54,1.0,170.0,,,,,,,[],,,,,,73.6,1.0,i,1.0,True,1813.0,59.0,63.0,40.0,False,,325.4369257239275,[],"[683, 384]",ColorTask,69.0,55.0,,,HRV,HRV_0207,2022-11-30 19:13:27
,wl-rdm,184,676477,0.0-8.55-0.55,1.0,171.0,,,,,,,[],,,,,,62.5,1.0,u,0.0,False,1409.0,44.0,63.0,40.0,False,,271.50996217386705,[],"[683, 384]",ColorTask,68.0,56.0,,,HRV,HRV_0207,2022-11-30 19:13:27
,wl-rdm,185,679020,0.0-8.56-0.56,1.0,172.0,,,,,,,[],,,,,,62.5,1.0,i,1.0,True,1132.0,42.0,63.0,40.0,False,,288.96052749797747,[],"[683, 384]",ColorTask,69.0,57.0,,,HRV,HRV_0207,2022-11-30 19:13:27
,wl-rdm,186,681737,0.0-8.57-0.57,1.0,173.0,,,,,,,[],,,,,,50.0,1.0,i,1.0,True,1224.0,58.0,63.0,40.0,False,,302.6237918071159,[],"[683, 384]",ColorTask,70.0,58.0,,,HRV,HRV_0207,2022-11-30 19:13:27
,wl-rdm,187,684504,0.0-8.58-0.58,1.0,174.0,,,,,,,[],,,,,,62.5,0.0,u,0.0,True,1243.0,32.0,63.0,40.0,False,,342.1642543232582,[],"[683, 384]",ColorTask,71.0,59.0,,,HRV,HRV_0207,2022-11-30 19:13:27
,wl-rdm,188,687520,0.0-8.59-0.59,1.0,175.0,,,,,,,[],,,,,,50.0,0.0,i,1.0,False,1654.0,60.0,63.0,40.0,False,,267.0300654402552,[],"[683, 384]",ColorTask,70.0,60.0,,,HRV,HRV_0207,2022-11-30 19:13:27
,wl-rdm,189,690524,0.0-8.60-0.60,1.0,176.0,,,,,,,[],,,,,,56.4,1.0,i,1.0,True,1654.0,59.0,63.0,40.0,False,,283.2859213929987,[],"[683, 384]",ColorTask,71.0,61.0,,,HRV,HRV_0207,2022-11-30 19:13:27
,wl-rdm,190,693143,0.0-8.61-0.61,1.0,177.0,,,,,,,[],,,,,,53.2,0.0,u,0.0,True,1316.0,46.0,63.0,40.0,False,,212.75807325008438,[],"[683, 384]",ColorTask,72.0,62.0,,,HRV,HRV_0207,2022-11-30 19:13:27
,wl-rdm,191,696078,0.0-8.62-0.62,1.0,178.0,,,,,,,[],,,,,,50.0,1.0,u,0.0,False,1475.0,39.0,63.0,40.0,False,,269.37220336255416,[],"[683, 384]",ColorTask,71.0,63.0,,,HRV,HRV_0207,2022-11-30 19:13:27
,wl-rdm,192,699847,0.0-8.63-0.63,1.0,179.0,,,,,,,[],,,,,,53.2,0.0,i,1.0,False,2334.0,72.0,63.0,40.0,False,,329.30196520001795,[],"[683, 384]",ColorTask,70.0,64.0,,,HRV,HRV_0207,2022-11-30 19:13:27
,wl-rdm,193,702170,0.0-8.64-0.64,1.0,180.0,,,,,,,[],,,,,,87.9,0.0,u,0.0,True,939.0,32.0,63.0,40.0,False,,320.9400699303881,[],"[683, 384]",ColorTask,71.0,65.0,,,HRV,HRV_0207,2022-11-30 19:13:27
,wl-rdm,194,705811,0.0-8.65-0.65,1.0,181.0,,,,,,,[],,,,,,56.4,0.0,u,0.0,True,2254.0,76.0,63.0,40.0,False,,304.06670134275083,[],"[683, 384]",ColorTask,72.0,66.0,,,HRV,HRV_0207,2022-11-30 19:13:27
,wl-rdm,195,708760,0.0-8.66-0.66,1.0,182.0,,,,,,,[],,,,,,87.9,1.0,i,1.0,True,1466.0,58.0,63.0,40.0,False,,202.94831924292748,[],"[683, 384]",ColorTask,73.0,67.0,,,HRV,HRV_0207,2022-11-30 19:13:27
,wl-rdm,196,711248,0.0-8.67-0.67,1.0,183.0,,,,,,,[],,,,,,87.9,0.0,u,0.0,True,1181.0,51.0,63.0,40.0,False,,230.904850198239,[],"[683, 384]",ColorTask,74.0,68.0,,,HRV,HRV_0207,2022-11-30 19:13:27
,wl-rdm,197,714009,0.0-8.68-0.68,1.0,184.0,,,,,,,[],,,,,,73.6,0.0,u,0.0,True,1433.0,59.0,63.0,40.0,False,,215.31277667215278,[],"[683, 384]",ColorTask,75.0,69.0,,,HRV,HRV_0207,2022-11-30 19:13:27
,wl-rdm,198,717498,0.0-8.69-0.69,1.0,185.0,,,,,,,[],,,,,,50.0,1.0,i,1.0,True,2096.0,87.0,63.0,40.0,False,,205.44004041965073,[],"[683, 384]",ColorTask,76.0,70.0,,,HRV,HRV_0207,2022-11-30 19:13:27
,wl-rdm,199,721094,0.0-8.70-0.70,1.0,186.0,,,,,,,[],,,,,,53.2,1.0,i,1.0,True,2329.0,75.0,63.0,40.0,False,,207.29958496228284,[],"[683, 384]",ColorTask,77.0,71.0,,,HRV,HRV_0207,2022-11-30 19:13:27
,wl-rdm,200,724785,0.0-8.71-0.71,1.0,187.0,,,,,,,[],,,,,,50.0,1.0,i,1.0,True,2193.0,70.0,63.0,40.0,False,,238.7209641190456,[],"[683, 384]",ColorTask,78.0,72.0,,,HRV,HRV_0207,2022-11-30 19:13:27
,wl-rdm,201,727206,0.0-8.72-0.72,1.0,188.0,,,,,,,[],,,,,,50.0,0.0,i,1.0,False,1045.0,35.0,63.0,40.0,False,,226.54688612875398,[],"[683, 384]",ColorTask,77.0,73.0,,,HRV,HRV_0207,2022-11-30 19:13:27
,wl-rdm,202,730044,0.0-8.73-0.73,1.0,189.0,,,,,,,[],,,,,,62.5,0.0,u,0.0,True,1532.0,30.0,63.0,40.0,False,,218.52523074407722,[],"[683, 384]",ColorTask,78.0,74.0,,,HRV,HRV_0207,2022-11-30 19:13:27
,wl-rdm,203,732576,0.0-8.74-0.74,1.0,190.0,,,,,,,[],,,,,,62.5,1.0,u,0.0,False,1168.0,40.0,63.0,40.0,False,,282.8027444074368,[],"[683, 384]",ColorTask,77.0,75.0,,,HRV,HRV_0207,2022-11-30 19:13:27
,wl-rdm,204,734971,0.0-8.75-0.75,1.0,191.0,,,,,,,[],,,,,,87.9,1.0,i,1.0,True,1050.0,46.0,63.0,40.0,False,,207.77972454704513,[],"[683, 384]",ColorTask,78.0,76.0,,,HRV,HRV_0207,2022-11-30 19:13:27
,wl-rdm,205,737619,0.0-8.76-0.76,1.0,192.0,,,,,,,[],,,,,,56.4,0.0,u,0.0,True,1038.0,57.0,63.0,40.0,False,,329.8809390153398,[],"[683, 384]",ColorTask,79.0,77.0,,,HRV,HRV_0207,2022-11-30 19:13:27
,wl-rdm,206,740867,0.0-8.77-0.77,1.0,193.0,,,,,,,[],,,,,,53.2,0.0,u,0.0,True,1882.0,64.0,63.0,40.0,False,,293.5058283382065,[],"[683, 384]",ColorTask,80.0,78.0,,,HRV,HRV_0207,2022-11-30 19:13:27
,wl-rdm,207,743498,0.0-8.78-0.78,1.0,194.0,,,,,,,[],,,,,,56.4,0.0,u,0.0,True,1295.0,66.0,63.0,40.0,False,,279.41869857268864,[],"[683, 384]",ColorTask,81.0,79.0,,,HRV,HRV_0207,2022-11-30 19:13:27
,wl-rdm,208,746261,0.0-8.79-0.79,1.0,195.0,,,,,,,[],,,,,,62.5,1.0,u,0.0,False,1437.0,55.0,63.0,40.0,False,,269.5741262982423,[],"[683, 384]",ColorTask,80.0,80.0,,,HRV,HRV_0207,2022-11-30 19:13:27
,wl-rdm,209,749010,0.0-8.80-0.80,1.0,196.0,,,,,,,[],,,,,,53.2,0.0,i,1.0,False,1340.0,38.0,63.0,40.0,False,,328.95227107864537,[],"[683, 384]",ColorTask,79.0,81.0,,,HRV,HRV_0207,2022-11-30 19:13:27
,wl-rdm,210,752394,0.0-8.81-0.81,1.0,197.0,,,,,,,[],,,,,,50.0,1.0,u,0.0,False,2073.0,70.0,63.0,40.0,False,,230.7029379908053,[],"[683, 384]",ColorTask,78.0,82.0,,,HRV,HRV_0207,2022-11-30 19:13:27
,wl-rdm,211,755161,0.0-8.82-0.82,1.0,198.0,,,,,,,[],,,,,,62.5,0.0,i,1.0,False,1376.0,65.0,63.0,40.0,False,,283.57746082361615,[],"[683, 384]",ColorTask,77.0,83.0,,,HRV,HRV_0207,2022-11-30 19:13:27
,wl-rdm,212,757780,0.0-8.83-0.83,1.0,199.0,,,,,,,[],,,,,,87.9,1.0,i,1.0,True,1339.0,38.0,63.0,40.0,False,,202.82437932753626,[],"[683, 384]",ColorTask,78.0,84.0,,,HRV,HRV_0207,2022-11-30 19:13:27
,wl-rdm,213,760462,0.0-8.84-0.84,1.0,200.0,,,,,,,[],,,,,,73.6,0.0,u,0.0,True,1313.0,51.0,63.0,40.0,False,,235.7544928630912,[],"[683, 384]",ColorTask,79.0,85.0,,,HRV,HRV_0207,2022-11-30 19:13:27
,wl-rdm,214,763326,0.0-8.85-0.85,1.0,201.0,,,,,,,[],,,,,,73.6,1.0,i,1.0,True,1379.0,49.0,63.0,40.0,False,,388.36081175090726,[],"[683, 384]",ColorTask,80.0,86.0,,,HRV,HRV_0207,2022-11-30 19:13:27
,wl-rdm,215,766537,0.0-8.86-0.86,1.0,202.0,,,,,,,[],,,,,,56.4,1.0,i,1.0,True,1820.0,65.0,63.0,40.0,False,,294.7712426846198,[],"[683, 384]",ColorTask,81.0,87.0,,,HRV,HRV_0207,2022-11-30 19:13:27
,wl-rdm,216,769681,0.0-8.87-0.87,1.0,203.0,,,,,,,[],,,,,,53.2,0.0,i,1.0,False,1773.0,67.0,63.0,40.0,False,,288.71802696170306,[],"[683, 384]",ColorTask,80.0,88.0,,,HRV,HRV_0207,2022-11-30 19:13:27
,wl-rdm,217,772783,0.0-8.88-0.88,1.0,204.0,,,,,,,[],,,,,,53.2,1.0,u,0.0,False,1663.0,63.0,63.0,40.0,False,,345.02402550393947,[],"[683, 384]",ColorTask,79.0,89.0,,,HRV,HRV_0207,2022-11-30 19:13:27
,wl-rdm,218,775634,0.0-8.89-0.89,1.0,205.0,,,,,,,[],,,,,,73.6,0.0,u,0.0,True,1485.0,66.0,63.0,40.0,False,,223.89658494678167,[],"[683, 384]",ColorTask,80.0,90.0,,,HRV,HRV_0207,2022-11-30 19:13:27
,wl-rdm,219,778725,0.0-8.90-0.90,1.0,206.0,,,,,,,[],,,,,,53.2,1.0,i,1.0,True,1705.0,56.0,63.0,40.0,False,,306.9535601577189,[],"[683, 384]",ColorTask,81.0,91.0,,,HRV,HRV_0207,2022-11-30 19:13:27
,wl-rdm,220,781466,0.0-8.91-0.91,1.0,207.0,,,,,,,[],,,,,,56.4,1.0,u,0.0,False,1448.0,46.0,63.0,40.0,False,,244.88357491362177,[],"[683, 384]",ColorTask,80.0,92.0,,,HRV,HRV_0207,2022-11-30 19:13:27
,wl-rdm,221,784408,0.0-8.92-0.92,1.0,208.0,,,,,,,[],,,,,,62.5,0.0,u,0.0,True,1452.0,42.0,63.0,40.0,False,,373.3204181927904,[],"[683, 384]",ColorTask,81.0,93.0,,,HRV,HRV_0207,2022-11-30 19:13:27
,wl-rdm,222,787153,0.0-8.93-0.93,1.0,209.0,,,,,,,[],,,,,,53.2,0.0,u,0.0,True,1166.0,30.0,63.0,40.0,False,,227.4214983232435,[],"[683, 384]",ColorTask,82.0,94.0,,,HRV,HRV_0207,2022-11-30 19:13:27
,wl-rdm,223,789713,0.0-8.94-0.94,1.0,210.0,,,,,,,[],,,,,,50.0,0.0,i,1.0,False,1126.0,34.0,63.0,40.0,False,,328.8544951268077,[],"[683, 384]",ColorTask,81.0,95.0,,,HRV,HRV_0207,2022-11-30 19:13:27
,wl-rdm,224,794089,0.0-8.95-0.95,1.0,211.0,,,,,,,[],,,,,,50.0,0.0,i,1.0,False,2979.0,103.0,63.0,40.0,False,,316.665330197801,[],"[683, 384]",ColorTask,80.0,96.0,,,HRV,HRV_0207,2022-11-30 19:13:27
,wl-rdm,225,796214,0.0-8.96-0.96,1.0,212.0,,,,,,,[],,,,,,50.0,1.0,u,0.0,False,835.0,16.0,63.0,40.0,False,,235.51601459747377,[],"[683, 384]",ColorTask,79.0,97.0,,,HRV,HRV_0207,2022-11-30 19:13:27
,wl-rdm,226,798703,0.0-8.97-0.97,1.0,213.0,,,,,,,[],,,,,,87.9,1.0,i,1.0,True,815.0,37.0,63.0,40.0,False,,239.2536723071956,[],"[683, 384]",ColorTask,80.0,98.0,,,HRV,HRV_0207,2022-11-30 19:13:27
,wl-rdm,227,802187,0.0-8.98-0.98,1.0,214.0,,,,,,,[],,,,,,53.2,1.0,u,0.0,False,2048.0,66.0,63.0,40.0,False,,269.5138698870189,[],"[683, 384]",ColorTask,79.0,99.0,,,HRV,HRV_0207,2022-11-30 19:13:27
,wl-rdm,228,805062,0.0-8.99-0.99,1.0,215.0,,,,,,,[],,,,,,62.5,0.0,u,0.0,True,1483.0,54.0,63.0,40.0,False,,268.2051407794169,[],"[683, 384]",ColorTask,80.0,100.0,,,HRV,HRV_0207,2022-11-30 19:13:27
,wl-rdm,229,807693,0.0-8.100-0.100,1.0,216.0,,,,,,,[],,,,,,73.6,0.0,u,0.0,True,1318.0,58.0,63.0,40.0,False,,222.57485380136416,[],"[683, 384]",ColorTask,81.0,101.0,,,HRV,HRV_0207,2022-11-30 19:13:27
,wl-rdm,230,811081,0.0-8.101-0.101,1.0,217.0,,,,,,,[],,,,,,56.4,1.0,i,1.0,True,1975.0,76.0,63.0,40.0,False,,299.9394884116697,[],"[683, 384]",ColorTask,82.0,102.0,,,HRV,HRV_0207,2022-11-30 19:13:27
,wl-rdm,231,813955,0.0-8.102-0.102,1.0,218.0,,,,,,,[],,,,,,87.9,1.0,i,1.0,True,1338.0,52.0,63.0,40.0,False,,257.85775335276105,[],"[683, 384]",ColorTask,83.0,103.0,,,HRV,HRV_0207,2022-11-30 19:13:27
,wl-rdm,232,816552,0.0-8.103-0.103,1.0,219.0,,,,,,,[],,,,,,87.9,1.0,i,1.0,True,1135.0,40.0,63.0,40.0,False,,338.06999521222525,[],"[683, 384]",ColorTask,84.0,104.0,,,HRV,HRV_0207,2022-11-30 19:13:27
,wl-rdm,233,820525,0.0-8.104-0.104,1.0,220.0,,,,,,,[],,,,,,56.4,0.0,u,0.0,True,2599.0,109.0,63.0,40.0,False,,285.3350164689219,[],"[683, 384]",ColorTask,85.0,105.0,,,HRV,HRV_0207,2022-11-30 19:13:27
,wl-rdm,234,823203,0.0-8.105-0.105,1.0,221.0,,,,,,,[],,,,,,87.9,0.0,u,0.0,True,1287.0,43.0,63.0,40.0,False,,266.77528216167184,[],"[683, 384]",ColorTask,86.0,106.0,,,HRV,HRV_0207,2022-11-30 19:13:27
,wl-rdm,235,826424,0.0-8.106-0.106,1.0,222.0,,,,,,,[],,,,,,56.4,1.0,i,1.0,True,1898.0,77.0,63.0,40.0,False,,253.49556208179297,[],"[683, 384]",ColorTask,87.0,107.0,,,HRV,HRV_0207,2022-11-30 19:13:27
,wl-rdm,236,829139,0.0-8.107-0.107,1.0,223.0,,,,,,,[],,,,,,73.6,0.0,u,0.0,True,1330.0,32.0,63.0,40.0,False,,314.23161127092544,[],"[683, 384]",ColorTask,88.0,108.0,,,HRV,HRV_0207,2022-11-30 19:13:27
,wl-rdm,237,832769,0.0-8.108-0.108,1.0,224.0,,,,,,,[],,,,,,50.0,0.0,u,0.0,True,2304.0,83.0,63.0,40.0,False,,225.5751695706875,[],"[683, 384]",ColorTask,89.0,109.0,,,HRV,HRV_0207,2022-11-30 19:13:27
,wl-rdm,238,835356,0.0-8.109-0.109,1.0,225.0,,,,,,,[],,,,,,87.9,1.0,i,1.0,True,1178.0,32.0,63.0,40.0,False,,301.4900074595352,[],"[683, 384]",ColorTask,90.0,110.0,,,HRV,HRV_0207,2022-11-30 19:13:27
,wl-html-button-response,239,859427,0.0-9.0-0.0,,,,,,,,,,24065.0,,0,,,,,,,,,,,,,,,,,,,,<h3>End of this session. Thank you!</h3><br>,['Close window'],HRV,HRV_0207,2022-11-30 19:13:27
