Answer,C_Pay,Question,QuestionNum,jitter,C_Trial,C_QPresent,rsp,C_SWK,C_SWK_rt,C_TrialEnd,C_AnswerPresent,C_WorthPresent,C_Worth,C_Worth_rt,exp,subjectId,date
Quotations ,6,What did the letter Q originally stand for in NASDAQ?  ,165,0.752,0,2838,q,S,4595,8715,,,,,HRV,HRV_0207,2022-11-30 18:43:19
Canada,4,What's the only country to have hosted a Summer Olympics in which it didn't win a single medal?   ,308,1.755,1,8715,t,W,7302,27231,18671.0,22720.0,,,HRV,HRV_0207,2022-11-30 18:43:19
Rechargeable batteries,4,"Three quarters of the cadmium mined annually is used, with nickel, to make what household items?",117,1.661,2,27231,t,W,3687,41996,33448.0,37473.0,5,2336.0,HRV,HRV_0207,2022-11-30 18:43:19
Cockroach,5,What animal can live up to a week without its head?,131,1.287,3,41996,p,K,4374,48205,,,,,HRV,HRV_0207,2022-11-30 18:43:19
Cayenne pepper ,2,What spice is named for the capital of French Guiana? ,409,1.731,4,48205,q,S,1541,52426,,,,,HRV,HRV_0207,2022-11-30 18:43:19
Bamboo ,7,What were the first modern Olympic pole vaulters' poles made of? ,296,1.47,5,52426,t,W,4537,68816,59496.0,63522.0,4,3190.0,HRV,HRV_0207,2022-11-30 18:43:19
Tuesday,7,Greeks consider which day of the week the unluckiest because it is the day that Constantinople fell in 1453? ,43,1.765,6,68816,q,S,2109,73213,,,,,HRV,HRV_0207,2022-11-30 18:43:19
Teeth,1,"One in every 2,000 babies is born with what? ",77,1.482,7,73213,t,W,3656,87655,79451.0,83486.0,4,2069.0,HRV,HRV_0207,2022-11-30 18:43:19
Shenandoah Valley,2,What area changed hands 72 times during the Civil War? ,139,1.945,8,87655,p,K,4448,94572,,,,,HRV,HRV_0207,2022-11-30 18:43:19
The dodo,5,"What is believed to have received its name from the Portuguese word for ""simpleton""? ",199,1.811,9,94572,t,W,2187,107741,99289.0,103341.0,3,2056.0,HRV,HRV_0207,2022-11-30 18:43:19
There was a pound of every ingredient in the original reciipe. ,7,How did the pound cake get its name?,460,1.371,10,107743,q,S,2998,112635,,,,,HRV,HRV_0207,2022-11-30 18:43:19
Phosphorus,4,"What element did alchemist Hennig Brand discover in 1669 when, boiling his own urine in the hopes of making gold, he observed glowing fumes?",169,1.867,11,112640,t,W,2383,126485,117565.0,121577.0,4,2532.0,HRV,HRV_0207,2022-11-30 18:43:19
Giant squid,1,Which animal can have eyes that are a foot in diameter? ,324,0.662,12,126485,p,K,2359,130302,,,,,HRV,HRV_0207,2022-11-30 18:43:19
Tea leaves,6,Tasseomancy is a method of fortune telling that primarily uses what? ,418,1.814,13,130303,t,W,3173,145014,136000.0,140030.0,5,2648.0,HRV,HRV_0207,2022-11-30 18:43:19
World War I,7,"During which war was ""The African Queen"" set?",34,1.716,14,145014,t,W,2281,158336,149947.0,153964.0,3,2134.0,HRV,HRV_0207,2022-11-30 18:43:19
George Washington,2,Who is pictured on a US Purple Heart medal? ,368,0.594,15,158336,q,S,1720,161185,,,,,HRV,HRV_0207,2022-11-30 18:43:19
spiced ham,2,What two words were combined to make the word Spam?,426,1.029,16,161185,p,K,2399,165287,,,,,HRV,HRV_0207,2022-11-30 18:43:19
The Mona Lisa,3,Pablo Picasso was one of the suspects questioned when what item was stolen in Paris in 1911? ,78,0.564,17,165296,t,W,1873,177319,169691.0,173720.0,4,2508.0,HRV,HRV_0207,2022-11-30 18:43:19
Mice,2,"After humans, what's the worlds most abundant mammal species?",16,1.676,18,177319,q,S,2186,181727,,,,,HRV,HRV_0207,2022-11-30 18:43:19
Latex. This is known as the latex-fruit syndrome. ,1,Allergy to which material is associated with allergy to fruit such as papaya and banana? ,462,0.666,19,181727,t,W,2950,194913,187210.0,191234.0,4,2457.0,HRV,HRV_0207,2022-11-30 18:43:19
Tim McGraw,3,"At age 11, who accidentally discovered the true identity of his baseball pitcher father while searching his mother's closet for hidden Christmas presents? ",24,1.616,20,194913,p,K,2452,199528,,,,,HRV,HRV_0207,2022-11-30 18:43:19
Oliver!,1,What's the only Best Picture Oscar winner whose title ends with an exclamation point?  ,306,0.812,21,199528,q,S,1821,202676,,,,,HRV,HRV_0207,2022-11-30 18:43:19
Thrust,7,What term for a rocket's propulsive force is calculated by multiplying its exhaust velocity by the burn rate of its fuel?,265,1.324,22,202676,t,W,2156,215881,207363.0,211390.0,3,2630.0,HRV,HRV_0207,2022-11-30 18:43:19
Bed ,1,"Shakespeare mentioned his wife only once in his will, making her the odd bequest of his ""second best"" what? ",82,0.809,23,215881,t,W,2965,228970,221379.0,225401.0,3,2197.0,HRV,HRV_0207,2022-11-30 18:43:19
PayPal,4,YouTube.com is the brainchild of three former employees of what other major website? ,396,0.716,24,228970,p,K,2237,232508,,,,,HRV,HRV_0207,2022-11-30 18:43:19
Avocados have twice the amount of potassium as bananas. ,2,Which fruit has more potassium than bananas?,455,1.823,25,232508,q,S,2528,237377,,,,,HRV,HRV_0207,2022-11-30 18:43:19
"Puffer fish, if they are prepared incorrectly thheir poison could kill the eater. ",7,Cooking which food requires over two years of training?,461,1.463,26,237377,t,W,3487,252724,243395.0,247415.0,4,3306.0,HRV,HRV_0207,2022-11-30 18:43:19
"Gail Borden, Jr. ",7,Who invented condensed milk in 1856? ,414,0.607,27,252724,q,S,2014,255897,,,,,HRV,HRV_0207,2022-11-30 18:43:19
Cheetah,6,Which is the only cat that cannot retract its claws? ,344,1.884,28,255897,t,W,3120,269361,261552.0,265573.0,3,1389.0,HRV,HRV_0207,2022-11-30 18:43:19
cheese ,7,What item of food holds the world record for being the most stolen item of food in the world?,444,1.344,29,269361,p,K,1760,272980,,,,,HRV,HRV_0207,2022-11-30 18:43:19
Haricot beans,1,Baked beans are made from what type of bean?,443,0.909,30,272982,q,S,2598,277020,,,,,HRV,HRV_0207,2022-11-30 18:43:19
Matches,6,"Which accidentally invented household items were first marketed as ""friction lights""? ",322,0.979,31,277021,t,W,2980,290304,282638.0,286662.0,4,2137.0,HRV,HRV_0207,2022-11-30 18:43:19
Chitty Chitty Bang Bang ,7,What was the only children's story ever published by James Bond creator Ian Fleming? ,292,0.817,32,290304,q,S,1649,293300,,,,,HRV,HRV_0207,2022-11-30 18:43:19
chickpeas,1,What is used to make hummus?,424,0.646,33,293300,t,W,3483,306526,299438.0,303460.0,5,1899.0,HRV,HRV_0207,2022-11-30 18:43:19
Matches,4,John Walker invented what common household item having accidentally mixed potassium chlorate and antimony sulfide the previous year?,72,1.413,34,306526,q,S,2520,310991,,,,,HRV,HRV_0207,2022-11-30 18:43:19
On a Jell-O box,7,"Where would you see the consumer warning ""Do not use fresh or frozen pineapple, kiwi, ginger-root, papaya, figs, or guava""?",411,1.216,35,310991,t,W,1806,323282,315331.0,319366.0,3,2166.0,HRV,HRV_0207,2022-11-30 18:43:19
Green Eggs and Ham,5,What 1960 classic originated when Bennett Cerf bet one of his authors that he couldn't write a book using only fifty words?,419,1.184,36,323283,p,K,1996,327008,,,,,HRV,HRV_0207,2022-11-30 18:43:19
A Galapagos giant tortoise ,6,"What kind of animal was Hariet, who died at the Queensland Zoo in 2006 and was claimed to have belonged to Charles Darwin?",223,1.141,37,327008,q,S,2214,330891,,,,,HRV,HRV_0207,2022-11-30 18:43:19
popscicle,3,What food was invented by an 11 year old in 1905?,450,1.986,38,330891,t,W,3843,345067,337280.0,341441.0,3,1123.0,HRV,HRV_0207,2022-11-30 18:43:19
Gerald Ford ,4,What president was shot while walking to California Governor Jerry Brown's office?  ,247,1.742,39,345067,t,W,1807,357736,349531.0,353559.0,2,1924.0,HRV,HRV_0207,2022-11-30 18:43:19
Pumpkin,6,Whittaker Chambers hid Alger Hiss's purloined State Department documents in a hollowed-out what?,360,1.602,40,357736,p,K,1793,361669,,,,,HRV,HRV_0207,2022-11-30 18:43:19
A castrated rooster,6,What is a capon?  ,193,0.908,41,361669,t,W,3329,374951,367529.0,371537.0,3,1944.0,HRV,HRV_0207,2022-11-30 18:43:19
Untethered space walk,3,Challenger Astronaut Bruce McCandless II became Earth's first human to ever do what?,31,1.912,42,374952,q,S,1562,378969,,,,,HRV,HRV_0207,2022-11-30 18:43:19
Sweden,1,What nation's dyslexic king Carl XVI Gustaf misspelled his own name on the accession document that gave him the throne?,237,1.962,43,378969,t,W,1514,391324,382997.0,387018.0,2,1818.0,HRV,HRV_0207,2022-11-30 18:43:19
The bishop,5,Which chess piece was originally called 'the elephant'? ,334,0.549,44,391324,p,K,3065,395478,,,,,HRV,HRV_0207,2022-11-30 18:43:19
Cell,1,Robert Hooke coined what scientific term after looking at a piece of cork under a microscope?,81,1.008,45,395478,q,S,2519,399537,,,,,HRV,HRV_0207,2022-11-30 18:43:19
Owl,5,"Which animal has tubular shaped eyeballs, which therefore cannot move?  ",325,1.469,46,399537,t,W,2646,412635,404720.0,408738.0,4,1836.0,HRV,HRV_0207,2022-11-30 18:43:19
Radioactivity,7,What is measured in becquerels? ,201,1.422,47,412635,t,W,2624,426843,417779.0,421793.0,5,3095.0,HRV,HRV_0207,2022-11-30 18:43:19
Asparagus,7,what vegetable loses its flavour the quickest?,451,0.911,48,426843,q,S,2325,430634,,,,,HRV,HRV_0207,2022-11-30 18:43:19
Spiro Agnew ,3,"What vice president referred to his critics as the ""nattering nabobs of negativism""? ",274,1.967,49,430634,p,K,2333,435467,,,,,HRV,HRV_0207,2022-11-30 18:43:19
Death,2,"In ancient Egypt, what was the penalty for killing a cat?",58,1.004,50,435467,t,W,1654,447048,439656.0,443677.0,4,1819.0,HRV,HRV_0207,2022-11-30 18:43:19
It causes sour foods subsequently consumed to taste sweet. ,4,Why is the Synsepalum dulcificum berry called the miracle fruit?,464,0.621,51,447048,t,W,1584,458320,451156.0,455173.0,3,1993.0,HRV,HRV_0207,2022-11-30 18:43:19
Captain Cook ,6,"Who christened Hawaii ""the Sandwich Islands"" in 1778?  ",363,1.778,52,458320,t,W,3783,472652,464671.0,468686.0,4,1667.0,HRV,HRV_0207,2022-11-30 18:43:19
Great Britain,4,"Of the world's seven most populous islands, what's the only one not in Asia? ",76,0.915,53,472652,p,K,2622,476720,,,,,HRV,HRV_0207,2022-11-30 18:43:19
Teapot Dome scandal,3,Albert Fall became the first US cabinet officer to serve jail time for his part in what scandal? ,19,1.744,54,476720,q,S,1993,480979,,,,,HRV,HRV_0207,2022-11-30 18:43:19
The Discovery,7,Which space shuttle is named for the ship on which Robert Scott first sailed to Antarctica? ,352,1.82,55,480981,t,W,2857,494462,486369.0,490395.0,3,1723.0,HRV,HRV_0207,2022-11-30 18:43:19
The Missouri River ,2,"What forms the only part of the Kansas border, a seventy-five mile stretch, that's not drawn with a straight edge?",179,0.789,56,494462,t,W,3157,507402,500151.0,504179.0,2,1909.0,HRV,HRV_0207,2022-11-30 18:43:19
Mountain Dew,2,"What was first marketed with hillbilly-themed advertising, since its name is a euphemism for moonshine?",421,1.493,57,507402,p,K,2644,512067,,,,,HRV,HRV_0207,2022-11-30 18:43:19
Dragees,1,"What are the sugared almonds, traditionally thrown over the bride and groom at a wedding, called?",430,0.896,58,512067,t,W,2691,524700,517289.0,521297.0,5,1991.0,HRV,HRV_0207,2022-11-30 18:43:19
Haddock,4,"If you ordered an Omelet Arnold Bennett, what fish would you find in it?",429,0.626,59,524700,q,S,2073,527951,,,,,HRV,HRV_0207,2022-11-30 18:43:19
honey,4,Which is the only food that can never go off or go bad?,442,1.453,60,527951,t,W,2252,540382,532714.0,536734.0,4,1664.0,HRV,HRV_0207,2022-11-30 18:43:19
Holy Roman Emperor Henry IV ,7,Who did Pope Gregory VII leave in the snow outside of his castle gates for three full days?  ,365,1.14,61,540382,t,W,2969,553400,545903.0,549939.0,3,1786.0,HRV,HRV_0207,2022-11-30 18:43:19
cooking,1,"If you suffer from Mageirocophobia, what are you scared of?",438,1.144,62,553400,p,K,3205,558257,,,,,HRV,HRV_0207,2022-11-30 18:43:19
A glacial ridge,3,What is an esker? ,198,0.639,63,558257,t,W,2458,570291,563324.0,567352.0,4,1763.0,HRV,HRV_0207,2022-11-30 18:43:19
American Pie,6,What was the name of the plane Buddy Holly died in?  ,289,1.424,64,570291,q,S,2405,574634,,,,,HRV,HRV_0207,2022-11-30 18:43:19
Martin Luther King Jr. ,6,Who won the Nobel Peace Prize in 1964? ,386,1.894,65,574634,p,K,1732,578787,,,,,HRV,HRV_0207,2022-11-30 18:43:19
The evacuation of Saigon,4,"""White Christmas"" playing on Armed Forces Radio was the secret signal for what event on April 30, 1975?",6,1.219,66,578787,t,W,2202,590777,583583.0,587615.0,3,1299.0,HRV,HRV_0207,2022-11-30 18:43:19
Sic semper tyrannis ,1,What state motto of Virginia did John Wilkes Booth shout as he jumped from Lincoln's box to the stage of Ford's Theatre? ,262,1.126,67,590777,t,W,1650,601485,595057.0,599076.0,3,750.0,HRV,HRV_0207,2022-11-30 18:43:19
