success,trial_type,trial_index,time_elapsed,internal_node_id,Block,TrialNumber,TrialTime,trialTimeDiff,FPS_avg,FPS_med,FPS_mode,TrialDur,winResizeTime,rt,block,button_pressed,MotCoh,MotDir,ColCoh,Color,ChoiceKey,Choice,Accuracy,RT,nFrames,FPS,PPD,missTrial,missTrialMsg,onsetDelay,fullScreenExitTime,canvCenter,TrialType,Score,BlockTrial,stimulus,button_labels,exp,subjectId,date
True,fullscreen,0,3504,0.0-0.0,0.0,1.0,,,,,,,,,,,,,,,,,,,,,,,,,,,,,,,,HRV,HRV_0110,2022-11-30 18:06:24
,wl-check-fps,1,8493,0.0-1.0,0.0,2.0,"[3916.3, 3917.1, 3929.8, 3946.5, 3963.3, 3980.1, 3996.7, 4013.4, 4030.4, 4047, 4063.5, 4080.2, 4097.3, 4113.6, 4130.2, 4147, 4163.4, 4180.2, 4196.8, 4213.6, 4230.2, 4247.2, 4263.6, 4280.3, 4297, 4313.5, 4330.1, 4347, 4363.5, 4380.2, 4396.8, 4413.5, 4430.2, 4446.9, 4463.6, 4480, 4496.9, 4513.5, 4530.1, 4546.8, 4563.5, 4580.3, 4596.8, 4613.5, 4630.1, 4646.8, 4663.4, 4680.2, 4696.8, 4713.6, 4730.2, 4746.8, 4763.6, 4780.4, 4796.8, 4813.4, 4830.2, 4846.5, 4863.2, 4880, 4896.4, 4913.3, 4930.1, 4946.5, 4963, 4979.8, 4996.8, 5013.2, 5029.7, 5046.3, 5063, 5079.8, 5096.5, 5113.3, 5130, 5146.7, 5163.4, 5180.1, 5196.4, 5213.3, 5230, 5246.8, 5263.3, 5280.2, 5296.9, 5313.5, 5330, 5346.8, 5363.6, 5380.2, 5396.8, 5413.6, 5430.3, 5446.7, 5463.2, 5480.1, 5496.7, 5513.2, 5530.1, 5546.9, 5563.4, 5580.2, 5596.9, 5613.4, 5630.3, 5646.9, 5663.5, 5680.3, 5697, 5713.5, 5730.2, 5747.4, 5763.3, 5780.2, 5796.8, 5813.5, 5830.4, 5847, 5863.5, 5880.2, 5896.8, 5913.5, 5930.2, 5946.8, 5963.7, 5980.2, 5996.9, 6013.4, 6030.4, 6046.9, 6063.4, 6080.1, 6096.6, 6113.4, 6130.2, 6146.9, 6163.4, 6180.1, 6196.7, 6213.6, 6230.1, 6246.8, 6263.6, 6280.2, 6296.8, 6313.4, 6330.2, 6347.1, 6363.4, 6380.2, 6396.9, 6413.4, 6429.9, 6446.6, 6463.4, 6480, 6496.9, 6513.4, 6530.2, 6546.9, 6563.7, 6580.2, 6596.8, 6613.3, 6630.1, 6646.9, 6663.4, 6680.1, 6697.3, 6713.5, 6730.2, 6746.9, 6763.6, 6780.1, 6796.8, 6813.7, 6830.1, 6846.7, 6863.2, 6880.1, 6896.9, 6913.4, 6930.3, 6946.8, 6963.5, 6980.3, 6996.8, 7013.5, 7030.2, 7046.9, 7063.5, 7079.9, 7096.6, 7113.3, 7130.1, 7146.8, 7163.4, 7180, 7196.9, 7213.5, 7230.3, 7246.9, 7263.4, 7280.2, 7296.7, 7313.4, 7330.1, 7346.8, 7363.2, 7380.2, 7396.8, 7414.5, 7430.3, 7446.8, 7463.5, 7480.2, 7496.7, 7513.5, 7530.2, 7546.9, 7563.2, 7580.2, 7596.9, 7613.4, 7630.2, 7646.8, 7663.4, 7680.3, 7697, 7713.5, 7730.1, 7747.1, 7763.4, 7780, 7796.8, 7813.4, 7830, 7846.7, 7863.3, 7880, 7896.7, 7913.3, 7930, 7946.5, 7963.2, 7979.8, 7996.6, 8013.2, 8029.9, 8046.5, 8063.1, 8079.8, 8096.6, 8113.1, 8129.7, 8146.7, 8163.2, 8179.7, 8196.6, 8213.7, 8230.2, 8246.6, 8263.3, 8280.2, 8296.9, 8313.5, 8330.3, 8346.9, 8363.5, 8380.2, 8396.7, 8414.8, 8430.3, 8446.9, 8463.5, 8479.9, 8496.6, 8513.2, 8530.4, 8546.8, 8563.4, 8580.2, 8596.8, 8613.3, 8630.1, 8646.9, 8663.5, 8680.2, 8697, 8713.3, 8730.3, 8746.7, 8763.5, 8780.1, 8796.8, 8813.5, 8830.1, 8847.2, 8863.3, 8880]","[3.8, 0.8, 12.7, 16.7, 16.8, 16.8, 16.6, 16.7, 17, 16.6, 16.5, 16.7, 17.1, 16.3, 16.6, 16.8, 16.4, 16.8, 16.6, 16.8, 16.6, 17, 16.4, 16.7, 16.7, 16.5, 16.6, 16.9, 16.5, 16.7, 16.6, 16.7, 16.7, 16.7, 16.7, 16.4, 16.9, 16.6, 16.6, 16.7, 16.7, 16.8, 16.5, 16.7, 16.6, 16.7, 16.6, 16.8, 16.6, 16.8, 16.6, 16.6, 16.8, 16.8, 16.4, 16.6, 16.8, 16.3, 16.7, 16.8, 16.4, 16.9, 16.8, 16.4, 16.5, 16.8, 17, 16.4, 16.5, 16.6, 16.7, 16.8, 16.7, 16.8, 16.7, 16.7, 16.7, 16.7, 16.3, 16.9, 16.7, 16.8, 16.5, 16.9, 16.7, 16.6, 16.5, 16.8, 16.8, 16.6, 16.6, 16.8, 16.7, 16.4, 16.5, 16.9, 16.6, 16.5, 16.9, 16.8, 16.5, 16.8, 16.7, 16.5, 16.9, 16.6, 16.6, 16.8, 16.7, 16.5, 16.7, 17.2, 15.9, 16.9, 16.6, 16.7, 16.9, 16.6, 16.5, 16.7, 16.6, 16.7, 16.7, 16.6, 16.9, 16.5, 16.7, 16.5, 17, 16.5, 16.5, 16.7, 16.5, 16.8, 16.8, 16.7, 16.5, 16.7, 16.6, 16.9, 16.5, 16.7, 16.8, 16.6, 16.6, 16.6, 16.8, 16.9, 16.3, 16.8, 16.7, 16.5, 16.5, 16.7, 16.8, 16.6, 16.9, 16.5, 16.8, 16.7, 16.8, 16.5, 16.6, 16.5, 16.8, 16.8, 16.5, 16.7, 17.2, 16.2, 16.7, 16.7, 16.7, 16.5, 16.7, 16.9, 16.4, 16.6, 16.5, 16.9, 16.8, 16.5, 16.9, 16.5, 16.7, 16.8, 16.5, 16.7, 16.7, 16.7, 16.6, 16.4, 16.7, 16.7, 16.8, 16.7, 16.6, 16.6, 16.9, 16.6, 16.8, 16.6, 16.5, 16.8, 16.5, 16.7, 16.7, 16.7, 16.4, 17, 16.6, 17.7, 15.8, 16.5, 16.7, 16.7, 16.5, 16.8, 16.7, 16.7, 16.3, 17, 16.7, 16.5, 16.8, 16.6, 16.6, 16.9, 16.7, 16.5, 16.6, 17, 16.3, 16.6, 16.8, 16.6, 16.6, 16.7, 16.6, 16.7, 16.7, 16.6, 16.7, 16.5, 16.7, 16.6, 16.8, 16.6, 16.7, 16.6, 16.6, 16.7, 16.8, 16.5, 16.6, 17, 16.5, 16.5, 16.9, 17.1, 16.5, 16.4, 16.7, 16.9, 16.7, 16.6, 16.8, 16.6, 16.6, 16.7, 16.5, 18.1, 15.5, 16.6, 16.6, 16.4, 16.7, 16.6, 17.2, 16.4, 16.6, 16.8, 16.6, 16.5, 16.8, 16.8, 16.6, 16.7, 16.8, 16.3, 17, 16.4, 16.8, 16.6, 16.7, 16.7, 16.6, 17.1, 16.1, 16.7]",60.0,60.0,60.0,4984.2,[],,,,,,,,,,,,,,,,,,,,,,,,,HRV,HRV_0110,2022-11-30 18:06:24
,wl-html-keyboard-response,2,26278,0.0-2.0-0.0,0.0,3.0,,,,,,,,15776.59999999404,0.0,0,,,,,,,,,,,,,,,,,,,,,,HRV,HRV_0110,2022-11-30 18:06:24
,wl-rdm,3,35292,0.0-3.0-0.0,0.0,4.0,,,,,,,[],,,,0.0,0.0,87.9,0.0,u,0.0,True,3438.0999999940395,207.0,60.0,40.0,False,,3000.0,[],"[960, 540]",ColorTask_Demo,,,,,HRV,HRV_0110,2022-11-30 18:06:24
,wl-rdm,4,41359,0.0-3.0-1.0,0.0,5.0,,,,,,,[],,,,0.0,0.0,87.9,1.0,i,1.0,True,1980.800000011921,119.0,60.0,40.0,False,,2000.0,[],"[960, 540]",ColorTask_Demo,,,,,HRV,HRV_0110,2022-11-30 18:06:24
,wl-html-keyboard-response,5,47837,0.0-3.0-2.0,0.0,6.0,,,,,,,,4468.5,0.0,1,,,,,,,,,,,,,,,,,,,,,,HRV,HRV_0110,2022-11-30 18:06:24
,wl-html-keyboard-response,6,57598,0.0-4.0-0.0,0.0,7.0,,,,,,,,7749.600000008941,0.0,0,,,,,,,,,,,,,,,,,,,,,,HRV,HRV_0110,2022-11-30 18:06:24
,wl-html-keyboard-response,7,67579,0.0-5.0-0.0,0.0,8.0,,,,,,,,7966.5,0.0,0,,,,,,,,,,,,,,,,,,,,,,HRV,HRV_0110,2022-11-30 18:06:24
,wl-rdm,8,70458,0.0-6.0-0.0,0.0,9.0,,,,,,,[],,,,,,50.0,1.0,i,1.0,True,1509.7000000029802,91.0,60.0,40.0,False,,290.5576328518908,[],"[960, 540]",ColorTask,1.0,1.0,,,HRV,HRV_0110,2022-11-30 18:06:24
,wl-rdm,9,72975,0.0-6.1-0.1,0.0,10.0,,,,,,,[],,,,,,50.0,1.0,i,1.0,True,1087.1000000089407,66.0,60.0,40.0,False,,353.2638339578631,[],"[960, 540]",ColorTask,2.0,2.0,,,HRV,HRV_0110,2022-11-30 18:06:24
,wl-rdm,10,75676,0.0-6.2-0.2,0.0,11.0,,,,,,,[],,,,,,62.5,0.0,i,1.0,False,1401.9000000059605,85.0,60.0,40.0,False,,205.37129152093163,[],"[960, 540]",ColorTask,1.0,3.0,,,HRV,HRV_0110,2022-11-30 18:06:24
,wl-rdm,11,78092,0.0-6.3-0.3,0.0,12.0,,,,,,,[],,,,,,56.4,1.0,i,1.0,True,1034.7000000029802,63.0,60.0,40.0,False,,296.8160738683197,[],"[960, 540]",ColorTask,2.0,4.0,,,HRV,HRV_0110,2022-11-30 18:06:24
,wl-rdm,12,80292,0.0-6.4-0.4,0.0,13.0,,,,,,,[],,,,,,56.4,1.0,i,1.0,True,914.9000000059605,55.0,60.0,40.0,False,,217.09703958338966,[],"[960, 540]",ColorTask,3.0,5.0,,,HRV,HRV_0110,2022-11-30 18:06:24
,wl-rdm,13,82708,0.0-6.5-0.5,0.0,14.0,,,,,,,[],,,,,,62.5,1.0,u,0.0,False,991.0000000149012,60.0,60.0,40.0,False,,334.8133747350346,[],"[960, 540]",ColorTask,2.0,6.0,,,HRV,HRV_0110,2022-11-30 18:06:24
,wl-rdm,14,85142,0.0-6.6-0.6,0.0,15.0,,,,,,,[],,,,,,62.5,1.0,u,0.0,False,1097.7999999970198,66.0,60.0,40.0,False,,251.9336416951138,[],"[960, 540]",ColorTask,1.0,7.0,,,HRV,HRV_0110,2022-11-30 18:06:24
,wl-rdm,15,87192,0.0-6.7-0.7,0.0,16.0,,,,,,,[],,,,,,87.9,1.0,i,1.0,True,761.7000000029802,46.0,60.0,40.0,False,,227.29606887649334,[],"[960, 540]",ColorTask,2.0,8.0,,,HRV,HRV_0110,2022-11-30 18:06:24
,wl-rdm,16,89309,0.0-6.8-0.8,0.0,17.0,,,,,,,[],,,,,,87.9,0.0,u,0.0,True,649.5,39.0,60.0,40.0,False,,392.6831771524413,[],"[960, 540]",ColorTask,3.0,9.0,,,HRV,HRV_0110,2022-11-30 18:06:24
,wl-rdm,17,91309,0.0-6.9-0.9,0.0,18.0,,,,,,,[],,,,,,87.9,0.0,u,0.0,True,723.7000000029802,44.0,60.0,40.0,False,,211.0642302636903,[],"[960, 540]",ColorTask,4.0,10.0,,,HRV,HRV_0110,2022-11-30 18:06:24
,wl-rdm,18,93242,0.0-6.10-0.10,0.0,19.0,,,,,,,[],,,,,,62.5,0.0,u,0.0,True,560.2000000029802,34.0,60.0,40.0,False,,292.03579656976143,[],"[960, 540]",ColorTask,5.0,11.0,,,HRV,HRV_0110,2022-11-30 18:06:24
,wl-rdm,19,95509,0.0-6.11-0.11,0.0,20.0,,,,,,,[],,,,,,56.4,1.0,i,1.0,True,873.7999999970198,53.0,60.0,40.0,False,,319.96875375756923,[],"[960, 540]",ColorTask,6.0,12.0,,,HRV,HRV_0110,2022-11-30 18:06:24
,wl-rdm,20,97742,0.0-6.12-0.12,0.0,21.0,,,,,,,[],,,,,,62.5,0.0,u,0.0,True,831.1000000089407,50.0,60.0,40.0,False,,317.3507737930855,[],"[960, 540]",ColorTask,7.0,13.0,,,HRV,HRV_0110,2022-11-30 18:06:24
,wl-rdm,21,99726,0.0-6.13-0.13,0.0,22.0,,,,,,,[],,,,,,87.9,0.0,u,0.0,True,639.1999999880791,39.0,60.0,40.0,False,,274.30240459509645,[],"[960, 540]",ColorTask,8.0,14.0,,,HRV,HRV_0110,2022-11-30 18:06:24
,wl-rdm,22,101692,0.0-6.14-0.14,0.0,23.0,,,,,,,[],,,,,,73.6,1.0,i,1.0,True,649.0999999940395,39.0,60.0,40.0,False,,254.1416069059748,[],"[960, 540]",ColorTask,9.0,15.0,,,HRV,HRV_0110,2022-11-30 18:06:24
,wl-rdm,23,103742,0.0-6.15-0.15,0.0,24.0,,,,,,,[],,,,,,56.4,0.0,u,0.0,True,730.9000000059605,44.0,60.0,40.0,False,,239.93046788051348,[],"[960, 540]",ColorTask,10.0,16.0,,,HRV,HRV_0110,2022-11-30 18:06:24
,wl-rdm,24,105675,0.0-6.16-0.16,0.0,25.0,,,,,,,[],,,,,,53.2,1.0,i,1.0,True,568.0000000149012,35.0,60.0,40.0,False,,284.9481065617706,[],"[960, 540]",ColorTask,11.0,17.0,,,HRV,HRV_0110,2022-11-30 18:06:24
,wl-rdm,25,107992,0.0-6.17-0.17,0.0,26.0,,,,,,,[],,,,,,73.6,0.0,u,0.0,True,869.2999999970198,53.0,60.0,40.0,False,,373.5993368117538,[],"[960, 540]",ColorTask,12.0,18.0,,,HRV,HRV_0110,2022-11-30 18:06:24
,wl-rdm,26,110209,0.0-6.18-0.18,0.0,27.0,,,,,,,[],,,,,,62.5,0.0,u,0.0,True,828.0,50.0,60.0,40.0,False,,327.147012175497,[],"[960, 540]",ColorTask,13.0,19.0,,,HRV,HRV_0110,2022-11-30 18:06:24
,wl-rdm,27,112392,0.0-6.19-0.19,0.0,28.0,,,,,,,[],,,,,,50.0,0.0,i,1.0,False,762.5,46.0,60.0,40.0,False,,348.2209375898122,[],"[960, 540]",ColorTask,12.0,20.0,,,HRV,HRV_0110,2022-11-30 18:06:24
,wl-rdm,28,114492,0.0-6.20-0.20,0.0,29.0,,,,,,,[],,,,,,73.6,1.0,i,1.0,True,640.9000000059605,39.0,60.0,40.0,False,,393.97648311674493,[],"[960, 540]",ColorTask,13.0,21.0,,,HRV,HRV_0110,2022-11-30 18:06:24
,wl-rdm,29,116576,0.0-6.21-0.21,0.0,30.0,,,,,,,[],,,,,,73.6,0.0,u,0.0,True,803.5,49.0,60.0,40.0,False,,208.88947838467377,[],"[960, 540]",ColorTask,14.0,22.0,,,HRV,HRV_0110,2022-11-30 18:06:24
,wl-rdm,30,118725,0.0-6.22-0.22,0.0,31.0,,,,,,,[],,,,,,56.4,1.0,i,1.0,True,731.7999999970198,44.0,60.0,40.0,False,,335.407037703481,[],"[960, 540]",ColorTask,15.0,23.0,,,HRV,HRV_0110,2022-11-30 18:06:24
,wl-rdm,31,121075,0.0-6.23-0.23,0.0,32.0,,,,,,,[],,,,,,62.5,1.0,i,1.0,True,1018.5,62.0,60.0,40.0,False,,249.45772569659368,[],"[960, 540]",ColorTask,16.0,24.0,,,HRV,HRV_0110,2022-11-30 18:06:24
,wl-rdm,32,123125,0.0-6.24-0.24,0.0,33.0,,,,,,,[],,,,,,87.9,1.0,i,1.0,True,598.7000000029802,36.0,60.0,40.0,False,,372.35089806580913,[],"[960, 540]",ColorTask,17.0,25.0,,,HRV,HRV_0110,2022-11-30 18:06:24
,wl-rdm,33,125242,0.0-6.25-0.25,0.0,34.0,,,,,,,[],,,,,,87.9,1.0,i,1.0,True,667.5,41.0,60.0,40.0,False,,380.4430002681576,[],"[960, 540]",ColorTask,18.0,26.0,,,HRV,HRV_0110,2022-11-30 18:06:24
,wl-rdm,34,127575,0.0-6.26-0.26,0.0,35.0,,,,,,,[],,,,,,53.2,1.0,u,0.0,False,904.7999999970198,55.0,60.0,40.0,False,,334.57670256083344,[],"[960, 540]",ColorTask,17.0,27.0,,,HRV,HRV_0110,2022-11-30 18:06:24
,wl-rdm,35,129659,0.0-6.27-0.27,0.0,36.0,,,,,,,[],,,,,,50.0,0.0,i,1.0,False,668.5,41.0,60.0,40.0,False,,324.5324941846088,[],"[960, 540]",ColorTask,16.0,28.0,,,HRV,HRV_0110,2022-11-30 18:06:24
,wl-rdm,36,131792,0.0-6.28-0.28,0.0,37.0,,,,,,,[],,,,,,62.5,0.0,u,0.0,True,679.2000000029802,41.0,60.0,40.0,False,,368.99114693879,[],"[960, 540]",ColorTask,17.0,29.0,,,HRV,HRV_0110,2022-11-30 18:06:24
,wl-rdm,37,133758,0.0-6.29-0.29,0.0,38.0,,,,,,,[],,,,,,62.5,0.0,u,0.0,True,646.7999999970198,39.0,60.0,40.0,False,,242.05241074274255,[],"[960, 540]",ColorTask,18.0,30.0,,,HRV,HRV_0110,2022-11-30 18:06:24
,wl-rdm,38,135875,0.0-6.30-0.30,0.0,39.0,,,,,,,[],,,,,,53.2,1.0,i,1.0,True,808.6000000089407,49.0,60.0,40.0,False,,245.28535125446075,[],"[960, 540]",ColorTask,19.0,31.0,,,HRV,HRV_0110,2022-11-30 18:06:24
,wl-rdm,39,138175,0.0-6.31-0.31,0.0,40.0,,,,,,,[],,,,,,73.6,1.0,i,1.0,True,946.2000000029802,57.0,60.0,40.0,False,,298.806853426029,[],"[960, 540]",ColorTask,20.0,32.0,,,HRV,HRV_0110,2022-11-30 18:06:24
,wl-rdm,40,140342,0.0-6.32-0.32,0.0,41.0,,,,,,,[],,,,,,73.6,0.0,u,0.0,True,872.0,53.0,60.0,40.0,False,,233.3391365440685,[],"[960, 540]",ColorTask,21.0,33.0,,,HRV,HRV_0110,2022-11-30 18:06:24
,wl-rdm,41,143275,0.0-6.33-0.33,0.0,42.0,,,,,,,[],,,,,,56.4,0.0,u,0.0,True,1559.2000000029802,94.0,60.0,40.0,False,,299.1573206370714,[],"[960, 540]",ColorTask,22.0,34.0,,,HRV,HRV_0110,2022-11-30 18:06:24
,wl-rdm,42,145275,0.0-6.34-0.34,0.0,43.0,,,,,,,[],,,,,,73.6,1.0,i,1.0,True,574.9000000059605,35.0,60.0,40.0,False,,356.2461407521183,[],"[960, 540]",ColorTask,23.0,35.0,,,HRV,HRV_0110,2022-11-30 18:06:24
,wl-rdm,43,147425,0.0-6.35-0.35,0.0,44.0,,,,,,,[],,,,,,56.4,1.0,i,1.0,True,719.6999999880791,44.0,60.0,40.0,False,,335.417779900242,[],"[960, 540]",ColorTask,24.0,36.0,,,HRV,HRV_0110,2022-11-30 18:06:24
,wl-rdm,44,149625,0.0-6.36-0.36,0.0,45.0,,,,,,,[],,,,,,56.4,0.0,u,0.0,True,777.4999999850988,47.0,60.0,40.0,False,,344.6044130737325,[],"[960, 540]",ColorTask,25.0,37.0,,,HRV,HRV_0110,2022-11-30 18:06:24
,wl-rdm,45,151625,0.0-6.37-0.37,0.0,46.0,,,,,,,[],,,,,,73.6,0.0,u,0.0,True,544.2000000029802,33.0,60.0,40.0,False,,370.37657574319127,[],"[960, 540]",ColorTask,26.0,38.0,,,HRV,HRV_0110,2022-11-30 18:06:24
,wl-rdm,46,153675,0.0-6.38-0.38,0.0,47.0,,,,,,,[],,,,,,53.2,1.0,i,1.0,True,774.7999999970198,47.0,60.0,40.0,False,,207.91723217925428,[],"[960, 540]",ColorTask,27.0,39.0,,,HRV,HRV_0110,2022-11-30 18:06:24
,wl-rdm,47,155692,0.0-6.39-0.39,0.0,48.0,,,,,,,[],,,,,,87.9,1.0,u,0.0,False,723.7999999970198,44.0,60.0,40.0,False,,218.17286927212444,[],"[960, 540]",ColorTask,26.0,40.0,,,HRV,HRV_0110,2022-11-30 18:06:24
,wl-rdm,48,157758,0.0-6.40-0.40,0.0,49.0,,,,,,,[],,,,,,62.5,0.0,u,0.0,True,746.5,45.0,60.0,40.0,False,,244.80706129977733,[],"[960, 540]",ColorTask,27.0,41.0,,,HRV,HRV_0110,2022-11-30 18:06:24
,wl-rdm,49,159759,0.0-6.41-0.41,0.0,50.0,,,,,,,[],,,,,,87.9,0.0,u,0.0,True,705.0999999940395,43.0,60.0,40.0,False,,210.0632647862118,[],"[960, 540]",ColorTask,28.0,42.0,,,HRV,HRV_0110,2022-11-30 18:06:24
,wl-rdm,50,161892,0.0-6.42-0.42,0.0,51.0,,,,,,,[],,,,,,73.6,0.0,u,0.0,True,785.0999999940395,48.0,60.0,40.0,False,,258.2566862978754,[],"[960, 540]",ColorTask,29.0,43.0,,,HRV,HRV_0110,2022-11-30 18:06:24
,wl-rdm,51,163775,0.0-6.43-0.43,0.0,52.0,,,,,,,[],,,,,,62.5,1.0,i,1.0,True,596.7999999970198,36.0,60.0,40.0,False,,201.71685878188558,[],"[960, 540]",ColorTask,30.0,44.0,,,HRV,HRV_0110,2022-11-30 18:06:24
,wl-rdm,52,165609,0.0-6.44-0.44,0.0,53.0,,,,,,,[],,,,,,50.0,0.0,i,1.0,False,527.6999999880791,32.0,60.0,40.0,False,,238.84532004376564,[],"[960, 540]",ColorTask,29.0,45.0,,,HRV,HRV_0110,2022-11-30 18:06:24
,wl-rdm,53,168009,0.0-6.45-0.45,0.0,54.0,,,,,,,[],,,,,,56.4,1.0,u,0.0,False,920.7000000029802,56.0,60.0,40.0,False,,388.8273478456192,[],"[960, 540]",ColorTask,28.0,46.0,,,HRV,HRV_0110,2022-11-30 18:06:24
,wl-rdm,54,170275,0.0-6.46-0.46,0.0,55.0,,,,,,,[],,,,,,53.2,1.0,i,1.0,True,883.5,53.0,60.0,40.0,False,,313.50294676693846,[],"[960, 540]",ColorTask,29.0,47.0,,,HRV,HRV_0110,2022-11-30 18:06:24
,wl-rdm,55,172208,0.0-6.47-0.47,0.0,56.0,,,,,,,[],,,,,,56.4,1.0,i,1.0,True,637.3999999910593,39.0,60.0,40.0,False,,200.60269433842072,[],"[960, 540]",ColorTask,30.0,48.0,,,HRV,HRV_0110,2022-11-30 18:06:24
,wl-rdm,56,174675,0.0-6.48-0.48,0.0,57.0,,,,,,,[],,,,,,53.2,0.0,u,0.0,True,1158.5999999940395,70.0,60.0,40.0,False,,221.04776734008163,[],"[960, 540]",ColorTask,31.0,49.0,,,HRV,HRV_0110,2022-11-30 18:06:24
,wl-rdm,57,176959,0.0-6.49-0.49,0.0,58.0,,,,,,,[],,,,,,50.0,0.0,u,0.0,True,822.4000000059605,50.0,60.0,40.0,False,,378.9714795388693,[],"[960, 540]",ColorTask,32.0,50.0,,,HRV,HRV_0110,2022-11-30 18:06:24
,wl-rdm,58,179459,0.0-6.50-0.50,0.0,59.0,,,,,,,[],,,,,,50.0,1.0,i,1.0,True,1133.4999999850988,69.0,60.0,40.0,False,,283.82797701735876,[],"[960, 540]",ColorTask,33.0,51.0,,,HRV,HRV_0110,2022-11-30 18:06:24
,wl-rdm,59,181575,0.0-6.51-0.51,0.0,60.0,,,,,,,[],,,,,,53.2,1.0,i,1.0,True,829.6999999880791,50.0,60.0,40.0,False,,214.5784256477183,[],"[960, 540]",ColorTask,34.0,52.0,,,HRV,HRV_0110,2022-11-30 18:06:24
,wl-rdm,60,184009,0.0-6.52-0.52,0.0,61.0,,,,,,,[],,,,,,50.0,1.0,i,1.0,True,1111.5,67.0,60.0,40.0,False,,244.54286126797808,[],"[960, 540]",ColorTask,35.0,53.0,,,HRV,HRV_0110,2022-11-30 18:06:24
,wl-rdm,61,185975,0.0-6.53-0.53,0.0,62.0,,,,,,,[],,,,,,87.9,1.0,i,1.0,True,572.1000000089407,35.0,60.0,40.0,False,,307.91434682795455,[],"[960, 540]",ColorTask,36.0,54.0,,,HRV,HRV_0110,2022-11-30 18:06:24
,wl-rdm,62,187975,0.0-6.54-0.54,0.0,63.0,,,,,,,[],,,,,,73.6,0.0,u,0.0,True,613.5999999940395,37.0,60.0,40.0,False,,301.6523104647265,[],"[960, 540]",ColorTask,37.0,55.0,,,HRV,HRV_0110,2022-11-30 18:06:24
,wl-rdm,63,190009,0.0-6.55-0.55,0.0,64.0,,,,,,,[],,,,,,53.2,0.0,i,1.0,False,570.6000000089407,35.0,60.0,40.0,False,,373.5612128580848,[],"[960, 540]",ColorTask,36.0,56.0,,,HRV,HRV_0110,2022-11-30 18:06:24
,wl-rdm,64,191975,0.0-6.56-0.56,0.0,65.0,,,,,,,[],,,,,,50.0,1.0,i,1.0,True,554.6000000089407,34.0,60.0,40.0,False,,323.2864603363164,[],"[960, 540]",ColorTask,37.0,57.0,,,HRV,HRV_0110,2022-11-30 18:06:24
,wl-rdm,65,194242,0.0-6.57-0.57,0.0,66.0,,,,,,,[],,,,,,62.5,0.0,u,0.0,True,902.6000000089407,55.0,60.0,40.0,False,,296.6117726688922,[],"[960, 540]",ColorTask,38.0,58.0,,,HRV,HRV_0110,2022-11-30 18:06:24
,wl-rdm,66,196359,0.0-6.58-0.58,0.0,67.0,,,,,,,[],,,,,,73.6,0.0,i,1.0,False,787.9000000059605,48.0,60.0,40.0,False,,257.12777694510726,[],"[960, 540]",ColorTask,37.0,59.0,,,HRV,HRV_0110,2022-11-30 18:06:24
,wl-rdm,67,199042,0.0-6.59-0.59,0.0,68.0,,,,,,,[],,,,,,50.0,0.0,u,0.0,True,1226.2999999970198,74.0,60.0,40.0,False,,392.73704063613854,[],"[960, 540]",ColorTask,38.0,60.0,,,HRV,HRV_0110,2022-11-30 18:06:24
,wl-rdm,68,201625,0.0-6.60-0.60,0.0,69.0,,,,,,,[],,,,,,56.4,0.0,u,0.0,True,1169.300000011921,71.0,60.0,40.0,False,,316.75562911710307,[],"[960, 540]",ColorTask,39.0,61.0,,,HRV,HRV_0110,2022-11-30 18:06:24
,wl-rdm,69,204092,0.0-6.61-0.61,0.0,70.0,,,,,,,[],,,,,,50.0,1.0,i,1.0,True,1040.3999999910593,63.0,60.0,40.0,False,,366.03263228365176,[],"[960, 540]",ColorTask,40.0,62.0,,,HRV,HRV_0110,2022-11-30 18:06:24
,wl-rdm,70,206459,0.0-6.62-0.62,0.0,71.0,,,,,,,[],,,,,,73.6,0.0,u,0.0,True,1009.7999999970198,61.0,60.0,40.0,False,,271.38420610935736,[],"[960, 540]",ColorTask,41.0,63.0,,,HRV,HRV_0110,2022-11-30 18:06:24
,wl-rdm,71,208559,0.0-6.63-0.63,0.0,72.0,,,,,,,[],,,,,,53.2,0.0,u,0.0,True,796.5999999940395,48.0,60.0,40.0,False,,217.8386712385653,[],"[960, 540]",ColorTask,42.0,64.0,,,HRV,HRV_0110,2022-11-30 18:06:24
,wl-rdm,72,210759,0.0-6.64-0.64,0.0,73.0,,,,,,,[],,,,,,73.6,1.0,i,1.0,True,822.4999999850988,50.0,60.0,40.0,False,,287.3675847240591,[],"[960, 540]",ColorTask,43.0,65.0,,,HRV,HRV_0110,2022-11-30 18:06:24
,wl-rdm,73,212792,0.0-6.65-0.65,0.0,74.0,,,,,,,[],,,,,,56.4,0.0,u,0.0,True,745.7999999970198,45.0,60.0,40.0,False,,205.86248877015854,[],"[960, 540]",ColorTask,44.0,66.0,,,HRV,HRV_0110,2022-11-30 18:06:24
,wl-rdm,74,215059,0.0-6.66-0.66,0.0,75.0,,,,,,,[],,,,,,87.9,0.0,u,0.0,True,942.5999999940395,57.0,60.0,40.0,False,,257.31859006270065,[],"[960, 540]",ColorTask,45.0,67.0,,,HRV,HRV_0110,2022-11-30 18:06:24
,wl-rdm,75,217225,0.0-6.67-0.67,0.0,76.0,,,,,,,[],,,,,,53.2,0.0,i,1.0,False,803.2999999970198,49.0,60.0,40.0,False,,267.92602377117555,[],"[960, 540]",ColorTask,44.0,68.0,,,HRV,HRV_0110,2022-11-30 18:06:24
,wl-rdm,76,219309,0.0-6.68-0.68,0.0,77.0,,,,,,,[],,,,,,56.4,1.0,i,1.0,True,806.3000000119209,49.0,60.0,40.0,False,,212.04232812874352,[],"[960, 540]",ColorTask,45.0,69.0,,,HRV,HRV_0110,2022-11-30 18:06:24
,wl-rdm,77,221491,0.0-6.69-0.69,0.0,78.0,,,,,,,[],,,,,,56.4,0.0,u,0.0,True,806.7000000029802,49.0,60.0,40.0,False,,286.6779236976678,[],"[960, 540]",ColorTask,46.0,70.0,,,HRV,HRV_0110,2022-11-30 18:06:24
,wl-rdm,78,223575,0.0-6.70-0.70,0.0,79.0,,,,,,,[],,,,,,50.0,1.0,i,1.0,True,721.7000000029802,44.0,60.0,40.0,False,,272.9280115265838,[],"[960, 540]",ColorTask,47.0,71.0,,,HRV,HRV_0110,2022-11-30 18:06:24
,wl-rdm,79,225625,0.0-6.71-0.71,0.0,80.0,,,,,,,[],,,,,,53.2,0.0,i,1.0,False,585.5999999940395,36.0,60.0,40.0,False,,382.63423240780855,[],"[960, 540]",ColorTask,46.0,72.0,,,HRV,HRV_0110,2022-11-30 18:06:24
,wl-rdm,80,227691,0.0-6.72-0.72,0.0,81.0,,,,,,,[],,,,,,56.4,1.0,i,1.0,True,708.6999999880791,43.0,60.0,40.0,False,,272.4806225761187,[],"[960, 540]",ColorTask,47.0,73.0,,,HRV,HRV_0110,2022-11-30 18:06:24
,wl-rdm,81,229792,0.0-6.73-0.73,0.0,82.0,,,,,,,[],,,,,,56.4,0.0,u,0.0,True,762.5999999791384,46.0,60.0,40.0,False,,262.0937805888175,[],"[960, 540]",ColorTask,48.0,74.0,,,HRV,HRV_0110,2022-11-30 18:06:24
,wl-rdm,82,232092,0.0-6.74-0.74,0.0,83.0,,,,,,,[],,,,,,62.5,1.0,i,1.0,True,968.4999999850988,59.0,60.0,40.0,False,,246.56197070672948,[],"[960, 540]",ColorTask,49.0,75.0,,,HRV,HRV_0110,2022-11-30 18:06:24
,wl-rdm,83,234125,0.0-6.75-0.75,0.0,84.0,,,,,,,[],,,,,,73.6,1.0,i,1.0,True,731.8000000119209,44.0,60.0,40.0,False,,226.75745169011387,[],"[960, 540]",ColorTask,50.0,76.0,,,HRV,HRV_0110,2022-11-30 18:06:24
,wl-rdm,84,236292,0.0-6.76-0.76,0.0,85.0,,,,,,,[],,,,,,62.5,1.0,i,1.0,True,775.2999999970198,47.0,60.0,40.0,False,,309.8208832281115,[],"[960, 540]",ColorTask,51.0,77.0,,,HRV,HRV_0110,2022-11-30 18:06:24
,wl-rdm,85,238992,0.0-6.77-0.77,0.0,86.0,,,,,,,[],,,,,,50.0,0.0,u,0.0,True,1354.7000000178814,82.0,60.0,40.0,False,,251.99001402484745,[],"[960, 540]",ColorTask,52.0,78.0,,,HRV,HRV_0110,2022-11-30 18:06:24
,wl-rdm,86,240942,0.0-6.78-0.78,0.0,87.0,,,,,,,[],,,,,,87.9,0.0,u,0.0,True,623.5000000149012,38.0,60.0,40.0,False,,237.48704496343925,[],"[960, 540]",ColorTask,53.0,79.0,,,HRV,HRV_0110,2022-11-30 18:06:24
,wl-rdm,87,243242,0.0-6.79-0.79,0.0,88.0,,,,,,,[],,,,,,56.4,0.0,u,0.0,True,908.7000000029802,55.0,60.0,40.0,False,,317.2649594948539,[],"[960, 540]",ColorTask,54.0,80.0,,,HRV,HRV_0110,2022-11-30 18:06:24
,wl-rdm,88,245909,0.0-6.80-0.80,0.0,89.0,,,,,,,[],,,,,,50.0,1.0,i,1.0,True,1315.7999999970198,79.0,60.0,40.0,False,,270.1519827603172,[],"[960, 540]",ColorTask,55.0,81.0,,,HRV,HRV_0110,2022-11-30 18:06:24
,wl-rdm,89,248042,0.0-6.81-0.81,0.0,90.0,,,,,,,[],,,,,,50.0,0.0,u,0.0,True,742.7999999970198,45.0,60.0,40.0,False,,330.3653238472074,[],"[960, 540]",ColorTask,56.0,82.0,,,HRV,HRV_0110,2022-11-30 18:06:24
,wl-rdm,90,250075,0.0-6.82-0.82,0.0,91.0,,,,,,,[],,,,,,56.4,0.0,u,0.0,True,718.4000000059605,44.0,60.0,40.0,False,,232.55456960143658,[],"[960, 540]",ColorTask,57.0,83.0,,,HRV,HRV_0110,2022-11-30 18:06:24
,wl-rdm,91,251992,0.0-6.83-0.83,0.0,92.0,,,,,,,[],,,,,,73.6,0.0,u,0.0,True,571.3000000119209,35.0,60.0,40.0,False,,254.95162241399578,[],"[960, 540]",ColorTask,58.0,84.0,,,HRV,HRV_0110,2022-11-30 18:06:24
,wl-rdm,92,254142,0.0-6.84-0.84,0.0,93.0,,,,,,,[],,,,,,73.6,1.0,i,1.0,True,822.8000000119209,50.0,60.0,40.0,False,,248.86271423002765,[],"[960, 540]",ColorTask,59.0,85.0,,,HRV,HRV_0110,2022-11-30 18:06:24
,wl-rdm,93,256259,0.0-6.85-0.85,0.0,94.0,,,,,,,[],,,,,,53.2,0.0,u,0.0,True,784.8000000119209,48.0,60.0,40.0,False,,255.86606923411898,[],"[960, 540]",ColorTask,60.0,86.0,,,HRV,HRV_0110,2022-11-30 18:06:24
,wl-rdm,94,258492,0.0-6.86-0.86,0.0,95.0,,,,,,,[],,,,,,62.5,1.0,i,1.0,True,806.7000000029802,49.0,60.0,40.0,False,,354.1047250434319,[],"[960, 540]",ColorTask,61.0,87.0,,,HRV,HRV_0110,2022-11-30 18:06:24
,wl-rdm,95,260525,0.0-6.87-0.87,0.0,96.0,,,,,,,[],,,,,,62.5,1.0,i,1.0,True,698.6000000089407,42.0,60.0,40.0,False,,265.47487219060633,[],"[960, 540]",ColorTask,62.0,88.0,,,HRV,HRV_0110,2022-11-30 18:06:24
,wl-rdm,96,262575,0.0-6.88-0.88,0.0,97.0,,,,,,,[],,,,,,73.6,1.0,i,1.0,True,671.5,41.0,60.0,40.0,False,,288.77304453660497,[],"[960, 540]",ColorTask,63.0,89.0,,,HRV,HRV_0110,2022-11-30 18:06:24
,wl-rdm,97,264825,0.0-6.89-0.89,0.0,98.0,,,,,,,[],,,,,,53.2,0.0,u,0.0,True,968.8000000119209,59.0,60.0,40.0,False,,208.58837815368312,[],"[960, 540]",ColorTask,64.0,90.0,,,HRV,HRV_0110,2022-11-30 18:06:24
,wl-rdm,98,266842,0.0-6.90-0.90,0.0,99.0,,,,,,,[],,,,,,87.9,1.0,i,1.0,True,693.7999999821186,42.0,60.0,40.0,False,,242.9588006113591,[],"[960, 540]",ColorTask,65.0,91.0,,,HRV,HRV_0110,2022-11-30 18:06:24
,wl-rdm,99,269259,0.0-6.91-0.91,0.0,100.0,,,,,,,[],,,,,,53.2,0.0,u,0.0,True,1002.1000000089407,61.0,60.0,40.0,False,,330.06406168699743,[],"[960, 540]",ColorTask,66.0,92.0,,,HRV,HRV_0110,2022-11-30 18:06:24
,wl-rdm,100,271659,0.0-6.92-0.92,0.0,101.0,,,,,,,[],,,,,,62.5,1.0,i,1.0,True,993.0999999940395,60.0,60.0,40.0,False,,328.0113257115444,[],"[960, 540]",ColorTask,67.0,93.0,,,HRV,HRV_0110,2022-11-30 18:06:24
,wl-rdm,101,273910,0.0-6.93-0.93,0.0,102.0,,,,,,,[],,,,,,50.0,1.0,i,1.0,True,815.5999999940395,49.0,60.0,40.0,False,,352.86139784692466,[],"[960, 540]",ColorTask,68.0,94.0,,,HRV,HRV_0110,2022-11-30 18:06:24
,wl-rdm,102,276076,0.0-6.94-0.94,0.0,103.0,,,,,,,[],,,,,,50.0,0.0,i,1.0,False,708.1999999880791,43.0,60.0,40.0,False,,387.55380314426327,[],"[960, 540]",ColorTask,67.0,95.0,,,HRV,HRV_0110,2022-11-30 18:06:24
,wl-rdm,103,278026,0.0-6.95-0.95,0.0,104.0,,,,,,,[],,,,,,87.9,0.0,u,0.0,True,635.5,39.0,60.0,40.0,False,,245.24596932338048,[],"[960, 540]",ColorTask,68.0,96.0,,,HRV,HRV_0110,2022-11-30 18:06:24
,wl-rdm,104,280193,0.0-6.96-0.96,0.0,105.0,,,,,,,[],,,,,,87.9,1.0,i,1.0,True,854.7999999970198,52.0,60.0,40.0,False,,228.1992749067682,[],"[960, 540]",ColorTask,69.0,97.0,,,HRV,HRV_0110,2022-11-30 18:06:24
,wl-rdm,105,282476,0.0-6.97-0.97,0.0,106.0,,,,,,,[],,,,,,87.9,1.0,i,1.0,True,874.0000000149012,53.0,60.0,40.0,False,,334.79414689019916,[],"[960, 540]",ColorTask,70.0,98.0,,,HRV,HRV_0110,2022-11-30 18:06:24
,wl-rdm,106,284659,0.0-6.98-0.98,0.0,107.0,,,,,,,[],,,,,,53.2,0.0,u,0.0,True,825.7999999970198,50.0,60.0,40.0,False,,282.13243828685904,[],"[960, 540]",ColorTask,71.0,99.0,,,HRV,HRV_0110,2022-11-30 18:06:24
,wl-rdm,107,286876,0.0-6.99-0.99,0.0,108.0,,,,,,,[],,,,,,62.5,0.0,u,0.0,True,808.9000000059605,49.0,60.0,40.0,False,,323.13976125916764,[],"[960, 540]",ColorTask,72.0,100.0,,,HRV,HRV_0110,2022-11-30 18:06:24
,wl-rdm,108,289143,0.0-6.100-0.100,0.0,109.0,,,,,,,[],,,,,,53.2,1.0,i,1.0,True,972.1999999880791,59.0,60.0,40.0,False,,228.13873623811003,[],"[960, 540]",ColorTask,73.0,101.0,,,HRV,HRV_0110,2022-11-30 18:06:24
,wl-rdm,109,291309,0.0-6.101-0.101,0.0,110.0,,,,,,,[],,,,,,87.9,0.0,u,0.0,True,789.4000000059605,48.0,60.0,40.0,False,,307.67126457190284,[],"[960, 540]",ColorTask,74.0,102.0,,,HRV,HRV_0110,2022-11-30 18:06:24
,wl-rdm,110,293692,0.0-6.102-0.102,0.0,111.0,,,,,,,[],,,,,,87.9,1.0,i,1.0,True,1051.2999999970198,64.0,60.0,40.0,False,,246.7232800874884,[],"[960, 540]",ColorTask,75.0,103.0,,,HRV,HRV_0110,2022-11-30 18:06:24
,wl-rdm,111,296176,0.0-6.103-0.103,0.0,112.0,,,,,,,[],,,,,,73.6,1.0,u,0.0,False,1112.6000000089407,67.0,60.0,40.0,False,,283.15676733915166,[],"[960, 540]",ColorTask,74.0,104.0,,,HRV,HRV_0110,2022-11-30 18:06:24
,wl-rdm,112,298293,0.0-6.104-0.104,0.0,113.0,,,,,,,[],,,,,,87.9,0.0,u,0.0,True,808.2000000029802,49.0,60.0,40.0,False,,220.89474133331035,[],"[960, 540]",ColorTask,75.0,105.0,,,HRV,HRV_0110,2022-11-30 18:06:24
,wl-rdm,113,300476,0.0-6.105-0.105,0.0,114.0,,,,,,,[],,,,,,53.2,1.0,i,1.0,True,801.5,49.0,60.0,40.0,False,,303.67065914888354,[],"[960, 540]",ColorTask,76.0,106.0,,,HRV,HRV_0110,2022-11-30 18:06:24
,wl-rdm,114,303510,0.0-6.106-0.106,0.0,115.0,,,,,,,[],,,,,,53.2,1.0,u,0.0,False,1697.5,102.0,60.0,40.0,False,,277.53022627874753,[],"[960, 540]",ColorTask,75.0,107.0,,,HRV,HRV_0110,2022-11-30 18:06:24
,wl-rdm,115,305676,0.0-6.107-0.107,0.0,116.0,,,,,,,[],,,,,,50.0,0.0,i,1.0,False,868.3999999910593,53.0,60.0,40.0,False,,205.9490790908975,[],"[960, 540]",ColorTask,74.0,108.0,,,HRV,HRV_0110,2022-11-30 18:06:24
,wl-html-keyboard-response,116,322135,0.0-7.0-0.0,1.0,117.0,,,,,,,,14446.20000000298,1.0,0,,,,,,,,,,,,,,,,,,,,,,HRV,HRV_0110,2022-11-30 18:06:24
,wl-rdm,117,324360,0.0-8.0-0.0,1.0,118.0,,,,,,,[],,,,,,73.6,1.0,i,1.0,True,929.6000000089407,56.0,60.0,40.0,False,,247.51842723743277,[],"[960, 540]",ColorTask,75.0,1.0,,,HRV,HRV_0110,2022-11-30 18:06:24
,wl-rdm,118,326293,0.0-8.1-0.1,1.0,119.0,,,,,,,[],,,,,,62.5,1.0,i,1.0,True,475.0,29.0,60.0,40.0,False,,368.2473267601966,[],"[960, 540]",ColorTask,76.0,2.0,,,HRV,HRV_0110,2022-11-30 18:06:24
,wl-rdm,119,328143,0.0-8.2-0.2,1.0,120.0,,,,,,,[],,,,,,53.2,1.0,i,1.0,True,505.0,31.0,60.0,40.0,False,,281.41927761735485,[],"[960, 540]",ColorTask,77.0,3.0,,,HRV,HRV_0110,2022-11-30 18:06:24
,wl-rdm,120,330259,0.0-8.3-0.3,1.0,121.0,,,,,,,[],,,,,,73.6,0.0,u,0.0,True,749.3999999761581,45.0,60.0,40.0,False,,309.14995334397724,[],"[960, 540]",ColorTask,78.0,4.0,,,HRV,HRV_0110,2022-11-30 18:06:24
,wl-rdm,121,332309,0.0-8.4-0.4,1.0,122.0,,,,,,,[],,,,,,56.4,0.0,i,1.0,False,780.2000000029802,47.0,60.0,40.0,False,,202.64741967711214,[],"[960, 540]",ColorTask,77.0,5.0,,,HRV,HRV_0110,2022-11-30 18:06:24
,wl-rdm,122,334276,0.0-8.5-0.5,1.0,123.0,,,,,,,[],,,,,,56.4,0.0,u,0.0,True,659.4999999850988,40.0,60.0,40.0,False,,228.30175241682724,[],"[960, 540]",ColorTask,78.0,6.0,,,HRV,HRV_0110,2022-11-30 18:06:24
,wl-rdm,123,336342,0.0-8.6-0.6,1.0,124.0,,,,,,,[],,,,,,50.0,1.0,i,1.0,True,763.7999999970198,46.0,60.0,40.0,False,,242.4581642811606,[],"[960, 540]",ColorTask,79.0,7.0,,,HRV,HRV_0110,2022-11-30 18:06:24
,wl-rdm,124,338608,0.0-8.7-0.7,1.0,125.0,,,,,,,[],,,,,,56.4,1.0,i,1.0,True,886.8999999910593,54.0,60.0,40.0,False,,289.52330769180844,[],"[960, 540]",ColorTask,80.0,8.0,,,HRV,HRV_0110,2022-11-30 18:06:24
,wl-rdm,125,340742,0.0-8.8-0.8,1.0,126.0,,,,,,,[],,,,,,50.0,0.0,u,0.0,True,738.7999999970198,45.0,60.0,40.0,False,,329.1001955303949,[],"[960, 540]",ColorTask,81.0,9.0,,,HRV,HRV_0110,2022-11-30 18:06:24
,wl-rdm,126,342675,0.0-8.9-0.9,1.0,127.0,,,,,,,[],,,,,,53.2,1.0,i,1.0,True,657.5999999940395,40.0,60.0,40.0,False,,210.74124456108166,[],"[960, 540]",ColorTask,82.0,10.0,,,HRV,HRV_0110,2022-11-30 18:06:24
,wl-rdm,127,344725,0.0-8.10-0.10,1.0,128.0,,,,,,,[],,,,,,87.9,0.0,u,0.0,True,607.0,37.0,60.0,40.0,False,,350.65025289396897,[],"[960, 540]",ColorTask,83.0,11.0,,,HRV,HRV_0110,2022-11-30 18:06:24
,wl-rdm,128,346592,0.0-8.11-0.11,1.0,129.0,,,,,,,[],,,,,,73.6,1.0,i,1.0,True,503.20000000298023,31.0,60.0,40.0,False,,283.55052638818813,[],"[960, 540]",ColorTask,84.0,12.0,,,HRV,HRV_0110,2022-11-30 18:06:24
,wl-rdm,129,348692,0.0-8.12-0.12,1.0,130.0,,,,,,,[],,,,,,73.6,1.0,i,1.0,True,735.1000000089407,45.0,60.0,40.0,False,,270.23384654113323,[],"[960, 540]",ColorTask,85.0,13.0,,,HRV,HRV_0110,2022-11-30 18:06:24
,wl-rdm,130,351209,0.0-8.13-0.13,1.0,131.0,,,,,,,[],,,,,,50.0,1.0,i,1.0,True,1186.5,72.0,60.0,40.0,False,,240.79221913643153,[],"[960, 540]",ColorTask,86.0,14.0,,,HRV,HRV_0110,2022-11-30 18:06:24
,wl-rdm,131,353242,0.0-8.14-0.14,1.0,132.0,,,,,,,[],,,,,,53.2,0.0,i,1.0,False,719.0,44.0,60.0,40.0,False,,220.36299944326905,[],"[960, 540]",ColorTask,85.0,15.0,,,HRV,HRV_0110,2022-11-30 18:06:24
,wl-rdm,132,355359,0.0-8.15-0.15,1.0,133.0,,,,,,,[],,,,,,73.6,0.0,u,0.0,True,787.7000000029802,48.0,60.0,40.0,False,,266.5504029257035,[],"[960, 540]",ColorTask,86.0,16.0,,,HRV,HRV_0110,2022-11-30 18:06:24
,wl-rdm,133,357558,0.0-8.16-0.16,1.0,134.0,,,,,,,[],,,,,,87.9,1.0,i,1.0,True,763.2000000029802,46.0,60.0,40.0,False,,351.88386432776605,[],"[960, 540]",ColorTask,87.0,17.0,,,HRV,HRV_0110,2022-11-30 18:06:24
,wl-rdm,134,359659,0.0-8.17-0.17,1.0,135.0,,,,,,,[],,,,,,53.2,0.0,u,0.0,True,792.0999999940395,48.0,60.0,40.0,False,,237.21209341386265,[],"[960, 540]",ColorTask,88.0,18.0,,,HRV,HRV_0110,2022-11-30 18:06:24
,wl-rdm,135,361642,0.0-8.18-0.18,1.0,136.0,,,,,,,[],,,,,,50.0,1.0,i,1.0,True,684.2000000029802,42.0,60.0,40.0,False,,229.7380735330577,[],"[960, 540]",ColorTask,89.0,19.0,,,HRV,HRV_0110,2022-11-30 18:06:24
,wl-rdm,136,363825,0.0-8.19-0.19,1.0,137.0,,,,,,,[],,,,,,50.0,0.0,u,0.0,True,877.2999999970198,53.0,60.0,40.0,False,,249.8275620916492,[],"[960, 540]",ColorTask,90.0,20.0,,,HRV,HRV_0110,2022-11-30 18:06:24
,wl-rdm,137,365809,0.0-8.20-0.20,1.0,138.0,,,,,,,[],,,,,,73.6,1.0,i,1.0,True,677.1999999880791,41.0,60.0,40.0,False,,234.82893492177993,[],"[960, 540]",ColorTask,91.0,21.0,,,HRV,HRV_0110,2022-11-30 18:06:24
,wl-rdm,138,367959,0.0-8.21-0.21,1.0,139.0,,,,,,,[],,,,,,53.2,1.0,u,0.0,False,730.7000000029802,44.0,60.0,40.0,False,,336.6684735059822,[],"[960, 540]",ColorTask,90.0,22.0,,,HRV,HRV_0110,2022-11-30 18:06:24
,wl-rdm,139,370075,0.0-8.22-0.22,1.0,140.0,,,,,,,[],,,,,,56.4,1.0,i,1.0,True,832.0999999940395,50.0,60.0,40.0,False,,220.23412692596904,[],"[960, 540]",ColorTask,91.0,23.0,,,HRV,HRV_0110,2022-11-30 18:06:24
,wl-rdm,140,372175,0.0-8.23-0.23,1.0,141.0,,,,,,,[],,,,,,62.5,0.0,i,1.0,False,703.6000000089407,43.0,60.0,40.0,False,,328.01902029894705,[],"[960, 540]",ColorTask,90.0,24.0,,,HRV,HRV_0110,2022-11-30 18:06:24
,wl-rdm,141,374142,0.0-8.24-0.24,1.0,142.0,,,,,,,[],,,,,,50.0,1.0,u,0.0,False,696.1999999880791,42.0,60.0,40.0,False,,206.34640484470202,[],"[960, 540]",ColorTask,89.0,25.0,,,HRV,HRV_0110,2022-11-30 18:06:24
,wl-rdm,142,376409,0.0-8.25-0.25,1.0,143.0,,,,,,,[],,,,,,56.4,1.0,u,0.0,False,945.0,57.0,60.0,40.0,False,,247.2445710009672,[],"[960, 540]",ColorTask,88.0,26.0,,,HRV,HRV_0110,2022-11-30 18:06:24
,wl-rdm,143,378259,0.0-8.26-0.26,1.0,144.0,,,,,,,[],,,,,,87.9,1.0,i,1.0,True,542.4000000059605,33.0,60.0,40.0,False,,237.40181200132216,[],"[960, 540]",ColorTask,89.0,27.0,,,HRV,HRV_0110,2022-11-30 18:06:24
,wl-rdm,144,380125,0.0-8.27-0.27,1.0,145.0,,,,,,,[],,,,,,73.6,1.0,i,1.0,True,431.29999999701977,26.0,60.0,40.0,False,,365.47905303283414,[],"[960, 540]",ColorTask,90.0,28.0,,,HRV,HRV_0110,2022-11-30 18:06:24
,wl-rdm,145,382158,0.0-8.28-0.28,1.0,146.0,,,,,,,[],,,,,,87.9,0.0,u,0.0,True,613.4999999850988,37.0,60.0,40.0,False,,334.73599629946534,[],"[960, 540]",ColorTask,91.0,29.0,,,HRV,HRV_0110,2022-11-30 18:06:24
,wl-rdm,146,384175,0.0-8.29-0.29,1.0,147.0,,,,,,,[],,,,,,87.9,0.0,u,0.0,True,604.8999999910593,37.0,60.0,40.0,False,,331.58035066635375,[],"[960, 540]",ColorTask,92.0,30.0,,,HRV,HRV_0110,2022-11-30 18:06:24
,wl-rdm,147,386175,0.0-8.30-0.30,1.0,148.0,,,,,,,[],,,,,,53.2,0.0,i,1.0,False,545.7999999970198,33.0,60.0,40.0,False,,383.5651492596411,[],"[960, 540]",ColorTask,91.0,31.0,,,HRV,HRV_0110,2022-11-30 18:06:24
,wl-rdm,148,388359,0.0-8.31-0.31,1.0,149.0,,,,,,,[],,,,,,50.0,1.0,i,1.0,True,896.7000000029802,54.0,60.0,40.0,False,,229.9251870088403,[],"[960, 540]",ColorTask,92.0,32.0,,,HRV,HRV_0110,2022-11-30 18:06:24
,wl-rdm,149,390526,0.0-8.32-0.32,1.0,150.0,,,,,,,[],,,,,,62.5,0.0,u,0.0,True,746.5,45.0,60.0,40.0,False,,358.14825214346735,[],"[960, 540]",ColorTask,93.0,33.0,,,HRV,HRV_0110,2022-11-30 18:06:24
,wl-rdm,150,392909,0.0-8.33-0.33,1.0,151.0,,,,,,,[],,,,,,50.0,1.0,i,1.0,True,1064.4000000208616,64.0,60.0,40.0,False,,254.49393393105817,[],"[960, 540]",ColorTask,94.0,34.0,,,HRV,HRV_0110,2022-11-30 18:06:24
,wl-rdm,151,395409,0.0-8.34-0.34,1.0,152.0,,,,,,,[],,,,,,62.5,0.0,u,0.0,True,1077.5999999940395,65.0,60.0,40.0,False,,349.826990554969,[],"[960, 540]",ColorTask,95.0,35.0,,,HRV,HRV_0110,2022-11-30 18:06:24
,wl-rdm,152,397659,0.0-8.35-0.35,1.0,153.0,,,,,,,[],,,,,,62.5,1.0,i,1.0,True,859.8000000119209,52.0,60.0,40.0,False,,303.5058914371956,[],"[960, 540]",ColorTask,96.0,36.0,,,HRV,HRV_0110,2022-11-30 18:06:24
,wl-rdm,153,399459,0.0-8.36-0.36,1.0,154.0,,,,,,,[],,,,,,73.6,1.0,i,1.0,True,524.7999999970198,32.0,60.0,40.0,False,,201.46923521137563,[],"[960, 540]",ColorTask,97.0,37.0,,,HRV,HRV_0110,2022-11-30 18:06:24
,wl-rdm,154,401559,0.0-8.37-0.37,1.0,155.0,,,,,,,[],,,,,,62.5,0.0,u,0.0,True,695.3999999910593,42.0,60.0,40.0,False,,344.88770528143834,[],"[960, 540]",ColorTask,98.0,38.0,,,HRV,HRV_0110,2022-11-30 18:06:24
,wl-rdm,155,403593,0.0-8.38-0.38,1.0,156.0,,,,,,,[],,,,,,73.6,0.0,u,0.0,True,753.6000000089407,46.0,60.0,40.0,False,,204.01508688046965,[],"[960, 540]",ColorTask,99.0,39.0,,,HRV,HRV_0110,2022-11-30 18:06:24
,wl-rdm,156,405493,0.0-8.39-0.39,1.0,157.0,,,,,,,[],,,,,,53.2,1.0,i,1.0,True,592.0,36.0,60.0,40.0,False,,225.44134687099015,[],"[960, 540]",ColorTask,100.0,40.0,,,HRV,HRV_0110,2022-11-30 18:06:24
,wl-rdm,157,407576,0.0-8.40-0.40,1.0,158.0,,,,,,,[],,,,,,50.0,0.0,u,0.0,True,796.0,48.0,60.0,40.0,False,,200.83467376144367,[],"[960, 540]",ColorTask,101.0,41.0,,,HRV,HRV_0110,2022-11-30 18:06:24
,wl-rdm,158,409642,0.0-8.41-0.41,1.0,159.0,,,,,,,[],,,,,,73.6,0.0,u,0.0,True,685.7999999970198,42.0,60.0,40.0,False,,290.9147118886684,[],"[960, 540]",ColorTask,102.0,42.0,,,HRV,HRV_0110,2022-11-30 18:06:24
,wl-rdm,159,411559,0.0-8.42-0.42,1.0,160.0,,,,,,,[],,,,,,73.6,1.0,i,1.0,True,621.4000000208616,38.0,60.0,40.0,False,,232.52493625683584,[],"[960, 540]",ColorTask,103.0,43.0,,,HRV,HRV_0110,2022-11-30 18:06:24
,wl-rdm,160,413459,0.0-8.43-0.43,1.0,161.0,,,,,,,[],,,,,,50.0,0.0,i,1.0,False,501.90000000596046,31.0,60.0,40.0,False,,307.98787681505996,[],"[960, 540]",ColorTask,102.0,44.0,,,HRV,HRV_0110,2022-11-30 18:06:24
,wl-rdm,161,415609,0.0-8.44-0.44,1.0,162.0,,,,,,,[],,,,,,56.4,1.0,i,1.0,True,711.6999999880791,43.0,60.0,40.0,False,,352.57453686666213,[],"[960, 540]",ColorTask,103.0,45.0,,,HRV,HRV_0110,2022-11-30 18:06:24
,wl-rdm,162,417593,0.0-8.45-0.45,1.0,163.0,,,,,,,[],,,,,,50.0,1.0,i,1.0,True,544.7000000178814,33.0,60.0,40.0,False,,377.3112471998421,[],"[960, 540]",ColorTask,104.0,46.0,,,HRV,HRV_0110,2022-11-30 18:06:24
,wl-rdm,163,419859,0.0-8.46-0.46,1.0,164.0,,,,,,,[],,,,,,50.0,0.0,u,0.0,True,834.0,51.0,60.0,40.0,False,,347.39930790056087,[],"[960, 540]",ColorTask,105.0,47.0,,,HRV,HRV_0110,2022-11-30 18:06:24
,wl-rdm,164,421776,0.0-8.47-0.47,1.0,165.0,,,,,,,[],,,,,,56.4,0.0,i,1.0,False,562.3000000119209,34.0,60.0,40.0,False,,299.3944904347215,[],"[960, 540]",ColorTask,104.0,48.0,,,HRV,HRV_0110,2022-11-30 18:06:24
,wl-rdm,165,424076,0.0-8.48-0.48,1.0,166.0,,,,,,,[],,,,,,73.6,0.0,u,0.0,True,901.6999999880791,55.0,60.0,40.0,False,,307.7907989506765,[],"[960, 540]",ColorTask,105.0,49.0,,,HRV,HRV_0110,2022-11-30 18:06:24
,wl-rdm,166,426292,0.0-8.49-0.49,1.0,167.0,,,,,,,[],,,,,,62.5,0.0,i,1.0,False,874.8000000119209,53.0,60.0,40.0,False,,257.60535853998726,[],"[960, 540]",ColorTask,104.0,50.0,,,HRV,HRV_0110,2022-11-30 18:06:24
,wl-rdm,167,428409,0.0-8.50-0.50,1.0,168.0,,,,,,,[],,,,,,87.9,1.0,i,1.0,True,686.9000000059605,42.0,60.0,40.0,False,,337.0599248331978,[],"[960, 540]",ColorTask,105.0,51.0,,,HRV,HRV_0110,2022-11-30 18:06:24
,wl-rdm,168,430393,0.0-8.51-0.51,1.0,169.0,,,,,,,[],,,,,,62.5,1.0,i,1.0,True,670.7999999970198,41.0,60.0,40.0,False,,239.0979313569689,[],"[960, 540]",ColorTask,106.0,52.0,,,HRV,HRV_0110,2022-11-30 18:06:24
,wl-rdm,169,432325,0.0-8.52-0.52,1.0,170.0,,,,,,,[],,,,,,62.5,1.0,i,1.0,True,539.2999999821186,33.0,60.0,40.0,False,,320.14967029242905,[],"[960, 540]",ColorTask,107.0,53.0,,,HRV,HRV_0110,2022-11-30 18:06:24
,wl-rdm,170,434343,0.0-8.53-0.53,1.0,171.0,,,,,,,[],,,,,,73.6,0.0,u,0.0,True,597.6000000089407,36.0,60.0,40.0,False,,337.29370842836147,[],"[960, 540]",ColorTask,108.0,54.0,,,HRV,HRV_0110,2022-11-30 18:06:24
,wl-rdm,171,436442,0.0-8.54-0.54,1.0,172.0,,,,,,,[],,,,,,56.4,0.0,u,0.0,True,702.9000000059605,43.0,60.0,40.0,False,,325.8624208622796,[],"[960, 540]",ColorTask,109.0,55.0,,,HRV,HRV_0110,2022-11-30 18:06:24
,wl-rdm,172,438526,0.0-8.55-0.55,1.0,173.0,,,,,,,[],,,,,,56.4,0.0,u,0.0,True,796.8000000119209,48.0,60.0,40.0,False,,226.88341968417967,[],"[960, 540]",ColorTask,110.0,56.0,,,HRV,HRV_0110,2022-11-30 18:06:24
,wl-rdm,173,440409,0.0-8.56-0.56,1.0,174.0,,,,,,,[],,,,,,53.2,0.0,i,1.0,False,511.59999999403954,31.0,60.0,40.0,False,,285.8056473543665,[],"[960, 540]",ColorTask,109.0,57.0,,,HRV,HRV_0110,2022-11-30 18:06:24
,wl-rdm,174,442576,0.0-8.57-0.57,1.0,175.0,,,,,,,[],,,,,,53.2,0.0,u,0.0,True,754.7999999970198,46.0,60.0,40.0,False,,325.9853796482138,[],"[960, 540]",ColorTask,110.0,58.0,,,HRV,HRV_0110,2022-11-30 18:06:24
,wl-rdm,175,444709,0.0-8.58-0.58,1.0,176.0,,,,,,,[],,,,,,87.9,1.0,i,1.0,True,789.2999999970198,48.0,60.0,40.0,False,,276.5155142555486,[],"[960, 540]",ColorTask,111.0,59.0,,,HRV,HRV_0110,2022-11-30 18:06:24
,wl-rdm,176,446976,0.0-8.59-0.59,1.0,177.0,,,,,,,[],,,,,,56.4,0.0,u,0.0,True,904.2000000029802,55.0,60.0,40.0,False,,278.18331228792533,[],"[960, 540]",ColorTask,112.0,60.0,,,HRV,HRV_0110,2022-11-30 18:06:24
,wl-rdm,177,449643,0.0-8.60-0.60,1.0,178.0,,,,,,,[],,,,,,50.0,0.0,i,1.0,False,1335.2999999970198,81.0,60.0,40.0,False,,246.67397918725342,[],"[960, 540]",ColorTask,111.0,61.0,,,HRV,HRV_0110,2022-11-30 18:06:24
,wl-rdm,178,451676,0.0-8.61-0.61,1.0,179.0,,,,,,,[],,,,,,53.2,0.0,u,0.0,True,733.4999999850988,44.0,60.0,40.0,False,,233.3783885596203,[],"[960, 540]",ColorTask,112.0,62.0,,,HRV,HRV_0110,2022-11-30 18:06:24
,wl-rdm,179,453493,0.0-8.62-0.62,1.0,180.0,,,,,,,[],,,,,,62.5,1.0,i,1.0,True,533.0999999940395,32.0,60.0,40.0,False,,206.69129306885026,[],"[960, 540]",ColorTask,113.0,63.0,,,HRV,HRV_0110,2022-11-30 18:06:24
,wl-rdm,180,455426,0.0-8.63-0.63,1.0,181.0,,,,,,,[],,,,,,50.0,1.0,u,0.0,False,660.0999999940395,40.0,60.0,40.0,False,,203.48324522797816,[],"[960, 540]",ColorTask,112.0,64.0,,,HRV,HRV_0110,2022-11-30 18:06:24
,wl-rdm,181,457293,0.0-8.64-0.64,1.0,182.0,,,,,,,[],,,,,,62.5,1.0,i,1.0,True,535.0999999940395,33.0,60.0,40.0,False,,236.27525474808363,[],"[960, 540]",ColorTask,113.0,65.0,,,HRV,HRV_0110,2022-11-30 18:06:24
,wl-rdm,182,459026,0.0-8.65-0.65,1.0,183.0,,,,,,,[],,,,,,53.2,1.0,i,1.0,True,417.90000000596046,26.0,60.0,40.0,False,,243.0513013353184,[],"[960, 540]",ColorTask,114.0,66.0,,,HRV,HRV_0110,2022-11-30 18:06:24
,wl-rdm,183,461093,0.0-8.66-0.66,1.0,184.0,,,,,,,[],,,,,,62.5,0.0,u,0.0,True,732.8000000119209,44.0,60.0,40.0,False,,263.31049129434206,[],"[960, 540]",ColorTask,115.0,67.0,,,HRV,HRV_0110,2022-11-30 18:06:24
,wl-rdm,184,463093,0.0-8.67-0.67,1.0,185.0,,,,,,,[],,,,,,56.4,1.0,i,1.0,True,525.4000000059605,32.0,60.0,40.0,False,,396.34032286959473,[],"[960, 540]",ColorTask,116.0,68.0,,,HRV,HRV_0110,2022-11-30 18:06:24
,wl-rdm,185,465059,0.0-8.68-0.68,1.0,186.0,,,,,,,[],,,,,,62.5,0.0,u,0.0,True,668.1000000089407,41.0,60.0,40.0,False,,228.94183099292513,[],"[960, 540]",ColorTask,117.0,69.0,,,HRV,HRV_0110,2022-11-30 18:06:24
,wl-rdm,186,467026,0.0-8.69-0.69,1.0,187.0,,,,,,,[],,,,,,62.5,1.0,i,1.0,True,585.2000000029802,36.0,60.0,40.0,False,,309.31082227503924,[],"[960, 540]",ColorTask,118.0,70.0,,,HRV,HRV_0110,2022-11-30 18:06:24
,wl-rdm,187,469092,0.0-8.70-0.70,1.0,188.0,,,,,,,[],,,,,,53.2,0.0,u,0.0,True,782.2999999821186,47.0,60.0,40.0,False,,231.07751027500612,[],"[960, 540]",ColorTask,119.0,71.0,,,HRV,HRV_0110,2022-11-30 18:06:24
,wl-rdm,188,471626,0.0-8.71-0.71,1.0,189.0,,,,,,,[],,,,,,56.4,0.0,i,1.0,False,1086.0999999940395,66.0,60.0,40.0,False,,355.13232092931116,[],"[960, 540]",ColorTask,118.0,72.0,,,HRV,HRV_0110,2022-11-30 18:06:24
,wl-rdm,189,473559,0.0-8.72-0.72,1.0,190.0,,,,,,,[],,,,,,62.5,1.0,i,1.0,True,561.9000000059605,34.0,60.0,40.0,False,,302.9053984418989,[],"[960, 540]",ColorTask,119.0,73.0,,,HRV,HRV_0110,2022-11-30 18:06:24
,wl-rdm,190,475493,0.0-8.73-0.73,1.0,191.0,,,,,,,[],,,,,,62.5,0.0,i,1.0,False,491.40000000596046,30.0,60.0,40.0,False,,359.51185802519205,[],"[960, 540]",ColorTask,118.0,74.0,,,HRV,HRV_0110,2022-11-30 18:06:24
,wl-rdm,191,477476,0.0-8.74-0.74,1.0,192.0,,,,,,,[],,,,,,87.9,1.0,i,1.0,True,518.2999999970198,32.0,60.0,40.0,False,,372.2587640681321,[],"[960, 540]",ColorTask,119.0,75.0,,,HRV,HRV_0110,2022-11-30 18:06:24
,wl-rdm,192,479526,0.0-8.75-0.75,1.0,193.0,,,,,,,[],,,,,,73.6,1.0,i,1.0,True,706.7999999970198,43.0,60.0,40.0,False,,249.485966700708,[],"[960, 540]",ColorTask,120.0,76.0,,,HRV,HRV_0110,2022-11-30 18:06:24
,wl-rdm,193,481509,0.0-8.76-0.76,1.0,194.0,,,,,,,[],,,,,,87.9,0.0,u,0.0,True,607.2999999970198,37.0,60.0,40.0,False,,286.43955539280955,[],"[960, 540]",ColorTask,121.0,77.0,,,HRV,HRV_0110,2022-11-30 18:06:24
,wl-rdm,194,483426,0.0-8.77-0.77,1.0,195.0,,,,,,,[],,,,,,62.5,1.0,i,1.0,True,560.7999999970198,34.0,60.0,40.0,False,,299.07857095595926,[],"[960, 540]",ColorTask,122.0,78.0,,,HRV,HRV_0110,2022-11-30 18:06:24
,wl-rdm,195,485176,0.0-8.78-0.78,1.0,196.0,,,,,,,[],,,,,,56.4,1.0,i,1.0,True,429.59999999403954,26.0,60.0,40.0,False,,266.4793563736001,[],"[960, 540]",ColorTask,123.0,79.0,,,HRV,HRV_0110,2022-11-30 18:06:24
,wl-rdm,196,487026,0.0-8.79-0.79,1.0,197.0,,,,,,,[],,,,,,87.9,1.0,i,1.0,True,551.6999999880791,34.0,60.0,40.0,False,,228.12027231990953,[],"[960, 540]",ColorTask,124.0,80.0,,,HRV,HRV_0110,2022-11-30 18:06:24
,wl-rdm,197,489043,0.0-8.80-0.80,1.0,198.0,,,,,,,[],,,,,,87.9,0.0,u,0.0,True,650.6999999880791,40.0,60.0,40.0,False,,295.11004376423796,[],"[960, 540]",ColorTask,125.0,81.0,,,HRV,HRV_0110,2022-11-30 18:06:24
,wl-rdm,198,491093,0.0-8.81-0.81,1.0,199.0,,,,,,,[],,,,,,50.0,0.0,i,1.0,False,615.3999999910593,37.0,60.0,40.0,False,,378.95419641876947,[],"[960, 540]",ColorTask,124.0,82.0,,,HRV,HRV_0110,2022-11-30 18:06:24
,wl-rdm,199,493226,0.0-8.82-0.82,1.0,200.0,,,,,,,[],,,,,,56.4,1.0,u,0.0,False,685.9999999850988,42.0,60.0,40.0,False,,377.47235193834575,[],"[960, 540]",ColorTask,123.0,83.0,,,HRV,HRV_0110,2022-11-30 18:06:24
,wl-rdm,200,495160,0.0-8.83-0.83,1.0,201.0,,,,,,,[],,,,,,87.9,0.0,u,0.0,True,638.1000000089407,39.0,60.0,40.0,False,,217.07386645438243,[],"[960, 540]",ColorTask,124.0,84.0,,,HRV,HRV_0110,2022-11-30 18:06:24
,wl-rdm,201,497110,0.0-8.84-0.84,1.0,202.0,,,,,,,[],,,,,,53.2,0.0,i,1.0,False,591.1000000089407,36.0,60.0,40.0,False,,266.8753824600591,[],"[960, 540]",ColorTask,123.0,85.0,,,HRV,HRV_0110,2022-11-30 18:06:24
,wl-rdm,202,499026,0.0-8.85-0.85,1.0,203.0,,,,,,,[],,,,,,87.9,1.0,i,1.0,True,536.0000000149012,33.0,60.0,40.0,False,,285.1977178026633,[],"[960, 540]",ColorTask,124.0,86.0,,,HRV,HRV_0110,2022-11-30 18:06:24
,wl-rdm,203,500943,0.0-8.86-0.86,1.0,204.0,,,,,,,[],,,,,,87.9,1.0,i,1.0,True,547.5,33.0,60.0,40.0,False,,284.30029162849553,[],"[960, 540]",ColorTask,125.0,87.0,,,HRV,HRV_0110,2022-11-30 18:06:24
,wl-rdm,204,503410,0.0-8.87-0.87,1.0,205.0,,,,,,,[],,,,,,56.4,0.0,u,0.0,True,1061.3999999910593,64.0,60.0,40.0,False,,328.38130402166894,[],"[960, 540]",ColorTask,126.0,88.0,,,HRV,HRV_0110,2022-11-30 18:06:24
,wl-rdm,205,505376,0.0-8.88-0.88,1.0,206.0,,,,,,,[],,,,,,87.9,0.0,u,0.0,True,612.2000000029802,37.0,60.0,40.0,False,,284.09734909225745,[],"[960, 540]",ColorTask,127.0,89.0,,,HRV,HRV_0110,2022-11-30 18:06:24
,wl-rdm,206,507676,0.0-8.89-0.89,1.0,207.0,,,,,,,[],,,,,,87.9,0.0,u,0.0,True,866.7000000029802,53.0,60.0,40.0,False,,343.67774244699365,[],"[960, 540]",ColorTask,128.0,90.0,,,HRV,HRV_0110,2022-11-30 18:06:24
,wl-rdm,207,509575,0.0-8.90-0.90,1.0,208.0,,,,,,,[],,,,,,73.6,0.0,u,0.0,True,554.6999999880791,34.0,60.0,40.0,False,,254.87587551951486,[],"[960, 540]",ColorTask,129.0,91.0,,,HRV,HRV_0110,2022-11-30 18:06:24
,wl-rdm,208,511659,0.0-8.91-0.91,1.0,209.0,,,,,,,[],,,,,,56.4,1.0,i,1.0,True,708.5,43.0,60.0,40.0,False,,306.4950467862027,[],"[960, 540]",ColorTask,130.0,92.0,,,HRV,HRV_0110,2022-11-30 18:06:24
,wl-rdm,209,513926,0.0-8.92-0.92,1.0,210.0,,,,,,,[],,,,,,50.0,1.0,u,0.0,False,831.7999999970198,50.0,60.0,40.0,False,,356.24137839921764,[],"[960, 540]",ColorTask,129.0,93.0,,,HRV,HRV_0110,2022-11-30 18:06:24
,wl-rdm,210,515875,0.0-8.93-0.93,1.0,211.0,,,,,,,[],,,,,,87.9,0.0,u,0.0,True,608.6999999880791,37.0,60.0,40.0,False,,266.47527026320586,[],"[960, 540]",ColorTask,130.0,94.0,,,HRV,HRV_0110,2022-11-30 18:06:24
,wl-rdm,211,518026,0.0-8.94-0.94,1.0,212.0,,,,,,,[],,,,,,53.2,1.0,i,1.0,True,818.8999999910593,50.0,60.0,40.0,False,,263.01468218539196,[],"[960, 540]",ColorTask,131.0,95.0,,,HRV,HRV_0110,2022-11-30 18:06:24
,wl-rdm,212,519892,0.0-8.95-0.95,1.0,213.0,,,,,,,[],,,,,,50.0,0.0,i,1.0,False,574.5999999940395,35.0,60.0,40.0,False,,217.58141404097103,[],"[960, 540]",ColorTask,130.0,96.0,,,HRV,HRV_0110,2022-11-30 18:06:24
,wl-rdm,213,522058,0.0-8.96-0.96,1.0,214.0,,,,,,,[],,,,,,53.2,1.0,u,0.0,False,740.9000000059605,45.0,60.0,40.0,False,,351.95080969081073,[],"[960, 540]",ColorTask,129.0,97.0,,,HRV,HRV_0110,2022-11-30 18:06:24
,wl-rdm,214,524176,0.0-8.97-0.97,1.0,215.0,,,,,,,[],,,,,,53.2,1.0,u,0.0,False,704.7999999821186,43.0,60.0,40.0,False,,332.75470865563625,[],"[960, 540]",ColorTask,128.0,98.0,,,HRV,HRV_0110,2022-11-30 18:06:24
,wl-rdm,215,526942,0.0-8.98-0.98,1.0,216.0,,,,,,,[],,,,,,56.4,0.0,u,0.0,True,1297.4000000059605,78.0,60.0,40.0,False,,388.11932597021405,[],"[960, 540]",ColorTask,129.0,99.0,,,HRV,HRV_0110,2022-11-30 18:06:24
,wl-rdm,216,529158,0.0-8.99-0.99,1.0,217.0,,,,,,,[],,,,,,87.9,1.0,i,1.0,True,747.3999999910593,45.0,60.0,40.0,False,,386.0068843624532,[],"[960, 540]",ColorTask,130.0,100.0,,,HRV,HRV_0110,2022-11-30 18:06:24
,wl-rdm,217,531392,0.0-8.100-0.100,1.0,218.0,,,,,,,[],,,,,,56.4,1.0,i,1.0,True,910.2000000029802,55.0,60.0,40.0,False,,263.35397325335094,[],"[960, 540]",ColorTask,131.0,101.0,,,HRV,HRV_0110,2022-11-30 18:06:24
,wl-rdm,218,533808,0.0-8.101-0.101,1.0,219.0,,,,,,,[],,,,,,50.0,0.0,i,1.0,False,944.7000000029802,57.0,60.0,40.0,False,,394.8953338805029,[],"[960, 540]",ColorTask,130.0,102.0,,,HRV,HRV_0110,2022-11-30 18:06:24
,wl-rdm,219,535909,0.0-8.102-0.102,1.0,220.0,,,,,,,[],,,,,,53.2,0.0,u,0.0,True,807.2000000029802,49.0,60.0,40.0,False,,213.6569232956231,[],"[960, 540]",ColorTask,131.0,103.0,,,HRV,HRV_0110,2022-11-30 18:06:24
,wl-rdm,220,537992,0.0-8.103-0.103,1.0,221.0,,,,,,,[],,,,,,73.6,0.0,u,0.0,True,753.6999999880791,46.0,60.0,40.0,False,,265.73240742894166,[],"[960, 540]",ColorTask,132.0,104.0,,,HRV,HRV_0110,2022-11-30 18:06:24
,wl-rdm,221,540092,0.0-8.104-0.104,1.0,222.0,,,,,,,[],,,,,,73.6,0.0,u,0.0,True,682.4000000059605,41.0,60.0,40.0,False,,360.45185198257724,[],"[960, 540]",ColorTask,133.0,105.0,,,HRV,HRV_0110,2022-11-30 18:06:24
,wl-rdm,222,542025,0.0-8.105-0.105,1.0,223.0,,,,,,,[],,,,,,62.5,0.0,i,1.0,False,627.1000000089407,38.0,60.0,40.0,False,,246.44550119756278,[],"[960, 540]",ColorTask,132.0,106.0,,,HRV,HRV_0110,2022-11-30 18:06:24
,wl-rdm,223,544025,0.0-8.106-0.106,1.0,224.0,,,,,,,[],,,,,,53.2,1.0,u,0.0,False,535.2000000029802,33.0,60.0,40.0,False,,396.9749581882144,[],"[960, 540]",ColorTask,131.0,107.0,,,HRV,HRV_0110,2022-11-30 18:06:24
,wl-rdm,224,546192,0.0-8.107-0.107,1.0,225.0,,,,,,,[],,,,,,73.6,1.0,u,0.0,False,702.5999999940395,43.0,60.0,40.0,False,,391.3962874214451,[],"[960, 540]",ColorTask,130.0,108.0,,,HRV,HRV_0110,2022-11-30 18:06:24
,wl-html-button-response,225,548842,0.0-9.0-0.0,,,,,,,,,,2645.7000000029802,,0,,,,,,,,,,,,,,,,,,,,<h3>End of this session. Thank you!</h3><br>,['Close window'],HRV,HRV_0110,2022-11-30 18:06:24
