trialN,stimuli,trialStartTime,trialStartTime_UNIX,stimulus1,stimulus2,stimulus1Bid,stimulus2Bid,delta,selected,rt,rt_UNIX,rt_perfnow,receivedResponse,rsp,trialEndTime,trialDuration,trialEndTime_UNIX,trialDuration_UNIX,exp,subjectId,date
0,"[{'imgObject': {}, 'id': 'avocado', 'src': '/static/foodstim60/avocado.jpg', 'key': 'u', 'origWidth': 409, 'origHeight': 409, 'width': 409, 'height': 409, 'widthPercent': 0.45, 'rescaleHeight': False, 'trialN': 0, 'loaded': True, 'loadedTime': 1808, 'positionName': 'LEFT', 'positionCoords': [512.6, 335.5], 'bid': 0.59}, {'imgObject': {}, 'id': 'seaweed', 'src': '/static/foodstim60/seaweed.jpg', 'key': 'i', 'origWidth': 410, 'origHeight': 410, 'width': 410, 'height': 410, 'widthPercent': 0.45, 'rescaleHeight': False, 'trialN': 0, 'loaded': True, 'loadedTime': 1808, 'positionName': 'RIGHT', 'positionCoords': [998.4, 335], 'bid': 0.46}]",1878,1669829928504,avocado,seaweed,0.59,0.46,-0.12999999999999995,avocado,1670,1678,1678,True,u,4058,2180,1669829930684,2180,HRV,HRV_0110,2022-11-30 17:43:27
1,"[{'imgObject': {}, 'id': 'rigatoni', 'src': '/static/foodstim60/rigatoni.jpg', 'key': 'u', 'origWidth': 411, 'origHeight': 411, 'width': 411, 'height': 411, 'widthPercent': 0.45, 'rescaleHeight': False, 'trialN': 1, 'loaded': True, 'loadedTime': 1810, 'positionName': 'LEFT', 'positionCoords': [510.6, 334.5], 'bid': 4.6000000000000005}, {'imgObject': {}, 'id': 'raspberries', 'src': '/static/foodstim60/raspberries.jpg', 'key': 'i', 'origWidth': 411, 'origHeight': 411, 'width': 411, 'height': 411, 'widthPercent': 0.45, 'rescaleHeight': False, 'trialN': 1, 'loaded': True, 'loadedTime': 1810, 'positionName': 'RIGHT', 'positionCoords': [998.4, 334.5], 'bid': 4.66}]",4058,1669829930684,rigatoni,raspberries,4.6000000000000005,4.66,0.05999999999999961,rigatoni,1053,1059,1059,True,u,5631,1573,1669829932257,1573,HRV,HRV_0110,2022-11-30 17:43:27
2,"[{'imgObject': {}, 'id': 'salmon', 'src': '/static/foodstim60/salmon.jpg', 'key': 'u', 'origWidth': 410, 'origHeight': 409, 'width': 410, 'height': 409, 'widthPercent': 0.45, 'rescaleHeight': False, 'trialN': 2, 'loaded': True, 'loadedTime': 1811, 'positionName': 'LEFT', 'positionCoords': [511.6, 335.5], 'bid': 3.84}, {'imgObject': {}, 'id': 'omelette', 'src': '/static/foodstim60/omelette.jpg', 'key': 'i', 'origWidth': 410, 'origHeight': 409, 'width': 410, 'height': 409, 'widthPercent': 0.45, 'rescaleHeight': False, 'trialN': 2, 'loaded': True, 'loadedTime': 1811, 'positionName': 'RIGHT', 'positionCoords': [998.4, 335.5], 'bid': 3.73}]",5632,1669829932258,salmon,omelette,3.84,3.73,-0.10999999999999988,omelette,1119,1124,1125,True,i,7272,1640,1669829933898,1640,HRV,HRV_0110,2022-11-30 17:43:27
3,"[{'imgObject': {}, 'id': 'bagel plain', 'src': '/static/foodstim60/bagel plain.jpg', 'key': 'u', 'origWidth': 410, 'origHeight': 410, 'width': 410, 'height': 410, 'widthPercent': 0.45, 'rescaleHeight': False, 'trialN': 3, 'loaded': True, 'loadedTime': 1812, 'positionName': 'LEFT', 'positionCoords': [511.6, 335], 'bid': 5.13}, {'imgObject': {}, 'id': 'pear', 'src': '/static/foodstim60/pear.jpg', 'key': 'i', 'origWidth': 411, 'origHeight': 410, 'width': 411, 'height': 410, 'widthPercent': 0.45, 'rescaleHeight': False, 'trialN': 3, 'loaded': True, 'loadedTime': 1814, 'positionName': 'RIGHT', 'positionCoords': [998.4, 335], 'bid': 5.15}]",7273,1669829933899,bagel plain,pear,5.13,5.15,0.020000000000000462,bagel plain,1244,1250,1249,True,u,9033,1760,1669829935659,1760,HRV,HRV_0110,2022-11-30 17:43:27
4,"[{'imgObject': {}, 'id': 'eggs', 'src': '/static/foodstim60/eggs.jpg', 'key': 'u', 'origWidth': 409, 'origHeight': 409, 'width': 409, 'height': 409, 'widthPercent': 0.45, 'rescaleHeight': False, 'trialN': 4, 'loaded': True, 'loadedTime': 1814, 'positionName': 'LEFT', 'positionCoords': [512.6, 335.5], 'bid': 1.36}, {'imgObject': {}, 'id': 'turkeysandwich', 'src': '/static/foodstim60/turkeysandwich.jpg', 'key': 'i', 'origWidth': 409, 'origHeight': 409, 'width': 409, 'height': 409, 'widthPercent': 0.45, 'rescaleHeight': False, 'trialN': 4, 'loaded': True, 'loadedTime': 1814, 'positionName': 'RIGHT', 'positionCoords': [998.4, 335.5], 'bid': 5.47}]",9033,1669829935660,eggs,turkeysandwich,1.36,5.47,4.109999999999999,turkeysandwich,953,963,963,True,i,10502,1469,1669829937128,1468,HRV,HRV_0110,2022-11-30 17:43:27
5,"[{'imgObject': {}, 'id': 'rigatoni', 'src': '/static/foodstim60/rigatoni.jpg', 'key': 'u', 'origWidth': 411, 'origHeight': 411, 'width': 411, 'height': 411, 'widthPercent': 0.45, 'rescaleHeight': False, 'trialN': 5, 'loaded': True, 'loadedTime': 1810, 'positionName': 'LEFT', 'positionCoords': [510.6, 334.5], 'bid': 4.6000000000000005}, {'imgObject': {}, 'id': 'banana', 'src': '/static/foodstim60/banana.jpg', 'key': 'i', 'origWidth': 410, 'origHeight': 410, 'width': 410, 'height': 410, 'widthPercent': 0.45, 'rescaleHeight': False, 'trialN': 5, 'loaded': True, 'loadedTime': 1815, 'positionName': 'RIGHT', 'positionCoords': [998.4, 335], 'bid': 5.11}]",10502,1669829937128,rigatoni,banana,4.6000000000000005,5.11,0.5099999999999998,rigatoni,812,823,823,True,u,11828,1326,1669829938454,1326,HRV,HRV_0110,2022-11-30 17:43:27
6,"[{'imgObject': {}, 'id': 'Tribe humus pita', 'src': '/static/foodstim60/Tribe humus pita.jpg', 'key': 'u', 'origWidth': 411, 'origHeight': 411, 'width': 411, 'height': 411, 'widthPercent': 0.45, 'rescaleHeight': False, 'trialN': 6, 'loaded': True, 'loadedTime': 1816, 'positionName': 'LEFT', 'positionCoords': [510.6, 334.5], 'bid': 4.89}, {'imgObject': {}, 'id': 'burger', 'src': '/static/foodstim60/burger.jpg', 'key': 'i', 'origWidth': 409, 'origHeight': 409, 'width': 409, 'height': 409, 'widthPercent': 0.45, 'rescaleHeight': False, 'trialN': 6, 'loaded': True, 'loadedTime': 1817, 'positionName': 'RIGHT', 'positionCoords': [998.4, 335.5], 'bid': 4.08}]",11828,1669829938454,Tribe humus pita,burger,4.89,4.08,-0.8099999999999996,Tribe humus pita,2048,2054,2055,True,u,14390,2562,1669829941016,2562,HRV,HRV_0110,2022-11-30 17:43:27
7,"[{'imgObject': {}, 'id': 'baked potato', 'src': '/static/foodstim60/baked potato.jpg', 'key': 'u', 'origWidth': 409, 'origHeight': 410, 'width': 409, 'height': 410, 'widthPercent': 0.45, 'rescaleHeight': False, 'trialN': 7, 'loaded': True, 'loadedTime': 1817, 'positionName': 'LEFT', 'positionCoords': [512.6, 335], 'bid': 7.69}, {'imgObject': {}, 'id': 'turkeysandwich', 'src': '/static/foodstim60/turkeysandwich.jpg', 'key': 'i', 'origWidth': 409, 'origHeight': 409, 'width': 409, 'height': 409, 'widthPercent': 0.45, 'rescaleHeight': False, 'trialN': 7, 'loaded': True, 'loadedTime': 1815, 'positionName': 'RIGHT', 'positionCoords': [998.4, 335.5], 'bid': 5.47}]",14390,1669829941016,baked potato,turkeysandwich,7.69,5.47,-2.2200000000000006,baked potato,940,958,959,True,u,15856,1466,1669829942482,1466,HRV,HRV_0110,2022-11-30 17:43:27
8,"[{'imgObject': {}, 'id': 'mashed potato', 'src': '/static/foodstim60/mashed potato.jpg', 'key': 'u', 'origWidth': 409, 'origHeight': 409, 'width': 409, 'height': 409, 'widthPercent': 0.45, 'rescaleHeight': False, 'trialN': 8, 'loaded': True, 'loadedTime': 1818, 'positionName': 'LEFT', 'positionCoords': [512.6, 335.5], 'bid': 1.92}, {'imgObject': {}, 'id': 'salmon', 'src': '/static/foodstim60/salmon.jpg', 'key': 'i', 'origWidth': 410, 'origHeight': 409, 'width': 410, 'height': 409, 'widthPercent': 0.45, 'rescaleHeight': False, 'trialN': 8, 'loaded': True, 'loadedTime': 1811, 'positionName': 'RIGHT', 'positionCoords': [998.4, 335.5], 'bid': 3.84}]",15857,1669829942482,mashed potato,salmon,1.92,3.84,1.92,salmon,1301,1317,1316,True,i,17678,1821,1669829944303,1821,HRV,HRV_0110,2022-11-30 17:43:27
9,"[{'imgObject': {}, 'id': 'cherries', 'src': '/static/foodstim60/cherries.jpg', 'key': 'u', 'origWidth': 410, 'origHeight': 411, 'width': 410, 'height': 411, 'widthPercent': 0.45, 'rescaleHeight': False, 'trialN': 9, 'loaded': True, 'loadedTime': 1819, 'positionName': 'LEFT', 'positionCoords': [511.6, 334.5], 'bid': 6.62}, {'imgObject': {}, 'id': 'bagel plain', 'src': '/static/foodstim60/bagel plain.jpg', 'key': 'i', 'origWidth': 410, 'origHeight': 410, 'width': 410, 'height': 410, 'widthPercent': 0.45, 'rescaleHeight': False, 'trialN': 9, 'loaded': True, 'loadedTime': 1814, 'positionName': 'RIGHT', 'positionCoords': [998.4, 335], 'bid': 5.13}]",17678,1669829944304,cherries,bagel plain,6.62,5.13,-1.4900000000000002,bagel plain,1636,1663,1663,True,i,19847,2169,1669829946473,2169,HRV,HRV_0110,2022-11-30 17:43:27
10,"[{'imgObject': {}, 'id': 'grilled chicken strips', 'src': '/static/foodstim60/grilled chicken strips.jpg', 'key': 'u', 'origWidth': 410, 'origHeight': 411, 'width': 410, 'height': 411, 'widthPercent': 0.45, 'rescaleHeight': False, 'trialN': 10, 'loaded': True, 'loadedTime': 1820, 'positionName': 'LEFT', 'positionCoords': [511.6, 334.5], 'bid': 4.29}, {'imgObject': {}, 'id': 'shreddedwheatwithmilk', 'src': '/static/foodstim60/shreddedwheatwithmilk.jpg', 'key': 'i', 'origWidth': 410, 'origHeight': 410, 'width': 410, 'height': 410, 'widthPercent': 0.45, 'rescaleHeight': False, 'trialN': 10, 'loaded': True, 'loadedTime': 1821, 'positionName': 'RIGHT', 'positionCoords': [998.4, 335], 'bid': 2.11}]",19848,1669829946474,grilled chicken strips,shreddedwheatwithmilk,4.29,2.11,-2.18,grilled chicken strips,1778,1785,1786,True,u,22145,2297,1669829948771,2297,HRV,HRV_0110,2022-11-30 17:43:27
11,"[{'imgObject': {}, 'id': 'salad w chicken', 'src': '/static/foodstim60/salad w chicken.jpg', 'key': 'u', 'origWidth': 411, 'origHeight': 411, 'width': 411, 'height': 411, 'widthPercent': 0.45, 'rescaleHeight': False, 'trialN': 11, 'loaded': True, 'loadedTime': 1821, 'positionName': 'LEFT', 'positionCoords': [510.6, 334.5], 'bid': 6.05}, {'imgObject': {}, 'id': 'ice cream sundae 002', 'src': '/static/foodstim60/ice cream sundae 002.jpg', 'key': 'i', 'origWidth': 409, 'origHeight': 409, 'width': 409, 'height': 409, 'widthPercent': 0.45, 'rescaleHeight': False, 'trialN': 11, 'loaded': True, 'loadedTime': 1822, 'positionName': 'RIGHT', 'positionCoords': [998.4, 335.5], 'bid': 5.54}]",22146,1669829948771,salad w chicken,ice cream sundae 002,6.05,5.54,-0.5099999999999998,salad w chicken,1762,1768,1767,True,u,24416,2270,1669829951041,2270,HRV,HRV_0110,2022-11-30 17:43:27
12,"[{'imgObject': {}, 'id': 'raspberries', 'src': '/static/foodstim60/raspberries.jpg', 'key': 'u', 'origWidth': 411, 'origHeight': 411, 'width': 411, 'height': 411, 'widthPercent': 0.45, 'rescaleHeight': False, 'trialN': 12, 'loaded': True, 'loadedTime': 1811, 'positionName': 'LEFT', 'positionCoords': [510.6, 334.5], 'bid': 4.66}, {'imgObject': {}, 'id': 'pear', 'src': '/static/foodstim60/pear.jpg', 'key': 'i', 'origWidth': 411, 'origHeight': 410, 'width': 411, 'height': 410, 'widthPercent': 0.45, 'rescaleHeight': False, 'trialN': 12, 'loaded': True, 'loadedTime': 1814, 'positionName': 'RIGHT', 'positionCoords': [998.4, 335], 'bid': 5.15}]",24416,1669829951042,raspberries,pear,4.66,5.15,0.4900000000000002,pear,1070,1074,1074,True,i,25995,1579,1669829952620,1578,HRV,HRV_0110,2022-11-30 17:43:27
13,"[{'imgObject': {}, 'id': 'blueberries', 'src': '/static/foodstim60/blueberries.jpg', 'key': 'u', 'origWidth': 411, 'origHeight': 411, 'width': 411, 'height': 411, 'widthPercent': 0.45, 'rescaleHeight': False, 'trialN': 13, 'loaded': True, 'loadedTime': 1823, 'positionName': 'LEFT', 'positionCoords': [510.6, 334.5], 'bid': 3.39}, {'imgObject': {}, 'id': 'hotdog w must', 'src': '/static/foodstim60/hotdog w must.jpg', 'key': 'i', 'origWidth': 409, 'origHeight': 409, 'width': 409, 'height': 409, 'widthPercent': 0.45, 'rescaleHeight': False, 'trialN': 13, 'loaded': True, 'loadedTime': 1824, 'positionName': 'RIGHT', 'positionCoords': [998.4, 335.5], 'bid': 4.03}]",25995,1669829952620,blueberries,hotdog w must,3.39,4.03,0.6400000000000001,hotdog w must,1413,1418,1418,True,i,27926,1931,1669829954552,1932,HRV,HRV_0110,2022-11-30 17:43:27
14,"[{'imgObject': {}, 'id': 'hashbrowns', 'src': '/static/foodstim60/hashbrowns.jpg', 'key': 'u', 'origWidth': 411, 'origHeight': 410, 'width': 411, 'height': 410, 'widthPercent': 0.45, 'rescaleHeight': False, 'trialN': 14, 'loaded': True, 'loadedTime': 1824, 'positionName': 'LEFT', 'positionCoords': [510.6, 335], 'bid': 4.12}, {'imgObject': {}, 'id': 'mashed potato', 'src': '/static/foodstim60/mashed potato.jpg', 'key': 'i', 'origWidth': 409, 'origHeight': 409, 'width': 409, 'height': 409, 'widthPercent': 0.45, 'rescaleHeight': False, 'trialN': 14, 'loaded': True, 'loadedTime': 1818, 'positionName': 'RIGHT', 'positionCoords': [998.4, 335.5], 'bid': 1.92}]",27926,1669829954552,hashbrowns,mashed potato,4.12,1.92,-2.2,hashbrowns,2013,2023,2023,True,u,30458,2532,1669829957084,2532,HRV,HRV_0110,2022-11-30 17:43:27
15,"[{'imgObject': {}, 'id': 'luckycharms', 'src': '/static/foodstim60/luckycharms.jpg', 'key': 'u', 'origWidth': 410, 'origHeight': 409, 'width': 410, 'height': 409, 'widthPercent': 0.45, 'rescaleHeight': False, 'trialN': 15, 'loaded': True, 'loadedTime': 1825, 'positionName': 'LEFT', 'positionCoords': [511.6, 335.5], 'bid': 3.12}, {'imgObject': {}, 'id': 'edamame', 'src': '/static/foodstim60/edamame.jpg', 'key': 'i', 'origWidth': 409, 'origHeight': 410, 'width': 409, 'height': 410, 'widthPercent': 0.45, 'rescaleHeight': False, 'trialN': 15, 'loaded': True, 'loadedTime': 1826, 'positionName': 'RIGHT', 'positionCoords': [998.4, 335], 'bid': 3.47}]",30458,1669829957084,luckycharms,edamame,3.12,3.47,0.3500000000000001,edamame,949,961,962,True,i,31923,1465,1669829958550,1466,HRV,HRV_0110,2022-11-30 17:43:27
16,"[{'imgObject': {}, 'id': 'hashbrowns', 'src': '/static/foodstim60/hashbrowns.jpg', 'key': 'u', 'origWidth': 411, 'origHeight': 410, 'width': 411, 'height': 410, 'widthPercent': 0.45, 'rescaleHeight': False, 'trialN': 16, 'loaded': True, 'loadedTime': 1825, 'positionName': 'LEFT', 'positionCoords': [510.6, 335], 'bid': 4.12}, {'imgObject': {}, 'id': 'roastedpotatoes', 'src': '/static/foodstim60/roastedpotatoes.jpg', 'key': 'i', 'origWidth': 409, 'origHeight': 410, 'width': 409, 'height': 410, 'widthPercent': 0.45, 'rescaleHeight': False, 'trialN': 16, 'loaded': True, 'loadedTime': 1827, 'positionName': 'RIGHT', 'positionCoords': [998.4, 335], 'bid': 7.88}]",31924,1669829958550,hashbrowns,roastedpotatoes,4.12,7.88,3.76,roastedpotatoes,936,944,945,True,i,33373,1449,1669829959999,1449,HRV,HRV_0110,2022-11-30 17:43:27
17,"[{'imgObject': {}, 'id': 'Tribe humus pita', 'src': '/static/foodstim60/Tribe humus pita.jpg', 'key': 'u', 'origWidth': 411, 'origHeight': 411, 'width': 411, 'height': 411, 'widthPercent': 0.45, 'rescaleHeight': False, 'trialN': 17, 'loaded': True, 'loadedTime': 1816, 'positionName': 'LEFT', 'positionCoords': [510.6, 334.5], 'bid': 4.89}, {'imgObject': {}, 'id': 'banana', 'src': '/static/foodstim60/banana.jpg', 'key': 'i', 'origWidth': 410, 'origHeight': 410, 'width': 410, 'height': 410, 'widthPercent': 0.45, 'rescaleHeight': False, 'trialN': 17, 'loaded': True, 'loadedTime': 1816, 'positionName': 'RIGHT', 'positionCoords': [998.4, 335], 'bid': 5.11}]",33373,1669829959999,Tribe humus pita,banana,4.89,5.11,0.22000000000000064,banana,1394,1397,1397,True,i,35275,1902,1669829961901,1902,HRV,HRV_0110,2022-11-30 17:43:27
18,"[{'imgObject': {}, 'id': 'raspberries', 'src': '/static/foodstim60/raspberries.jpg', 'key': 'u', 'origWidth': 411, 'origHeight': 411, 'width': 411, 'height': 411, 'widthPercent': 0.45, 'rescaleHeight': False, 'trialN': 18, 'loaded': True, 'loadedTime': 1811, 'positionName': 'LEFT', 'positionCoords': [510.6, 334.5], 'bid': 4.66}, {'imgObject': {}, 'id': 'luckycharms', 'src': '/static/foodstim60/luckycharms.jpg', 'key': 'i', 'origWidth': 410, 'origHeight': 409, 'width': 410, 'height': 409, 'widthPercent': 0.45, 'rescaleHeight': False, 'trialN': 18, 'loaded': True, 'loadedTime': 1826, 'positionName': 'RIGHT', 'positionCoords': [998.4, 335.5], 'bid': 3.12}]",35275,1669829961901,raspberries,luckycharms,4.66,3.12,-1.54,raspberries,1492,1506,1506,True,u,37284,2009,1669829963910,2009,HRV,HRV_0110,2022-11-30 17:43:27
19,"[{'imgObject': {}, 'id': 'hashbrowns', 'src': '/static/foodstim60/hashbrowns.jpg', 'key': 'u', 'origWidth': 411, 'origHeight': 410, 'width': 411, 'height': 410, 'widthPercent': 0.45, 'rescaleHeight': False, 'trialN': 19, 'loaded': True, 'loadedTime': 1825, 'positionName': 'LEFT', 'positionCoords': [510.6, 335], 'bid': 4.12}, {'imgObject': {}, 'id': 'omelette', 'src': '/static/foodstim60/omelette.jpg', 'key': 'i', 'origWidth': 410, 'origHeight': 409, 'width': 410, 'height': 409, 'widthPercent': 0.45, 'rescaleHeight': False, 'trialN': 19, 'loaded': True, 'loadedTime': 1812, 'positionName': 'RIGHT', 'positionCoords': [998.4, 335.5], 'bid': 3.73}]",37284,1669829963910,hashbrowns,omelette,4.12,3.73,-0.3900000000000001,omelette,857,873,873,True,i,38669,1385,1669829965296,1386,HRV,HRV_0110,2022-11-30 17:43:27
20,"[{'imgObject': {}, 'id': 'ice cream sundae 002', 'src': '/static/foodstim60/ice cream sundae 002.jpg', 'key': 'u', 'origWidth': 409, 'origHeight': 409, 'width': 409, 'height': 409, 'widthPercent': 0.45, 'rescaleHeight': False, 'trialN': 20, 'loaded': True, 'loadedTime': 1823, 'positionName': 'LEFT', 'positionCoords': [512.6, 335.5], 'bid': 5.54}, {'imgObject': {}, 'id': 'raspberries', 'src': '/static/foodstim60/raspberries.jpg', 'key': 'i', 'origWidth': 411, 'origHeight': 411, 'width': 411, 'height': 411, 'widthPercent': 0.45, 'rescaleHeight': False, 'trialN': 20, 'loaded': True, 'loadedTime': 1811, 'positionName': 'RIGHT', 'positionCoords': [998.4, 334.5], 'bid': 4.66}]",38670,1669829965296,ice cream sundae 002,raspberries,5.54,4.66,-0.8799999999999999,ice cream sundae 002,1410,1422,1423,True,u,40599,1929,1669829967225,1929,HRV,HRV_0110,2022-11-30 17:43:27
21,"[{'imgObject': {}, 'id': 'banana', 'src': '/static/foodstim60/banana.jpg', 'key': 'u', 'origWidth': 410, 'origHeight': 410, 'width': 410, 'height': 410, 'widthPercent': 0.45, 'rescaleHeight': False, 'trialN': 21, 'loaded': True, 'loadedTime': 1816, 'positionName': 'LEFT', 'positionCoords': [511.6, 335], 'bid': 5.11}, {'imgObject': {}, 'id': 'cheerios', 'src': '/static/foodstim60/cheerios.jpg', 'key': 'i', 'origWidth': 409, 'origHeight': 410, 'width': 409, 'height': 410, 'widthPercent': 0.45, 'rescaleHeight': False, 'trialN': 21, 'loaded': True, 'loadedTime': 1827, 'positionName': 'RIGHT', 'positionCoords': [998.4, 335], 'bid': 6.55}]",40600,1669829967226,banana,cheerios,5.11,6.55,1.4399999999999995,cheerios,1339,1349,1349,True,i,42451,1851,1669829969077,1851,HRV,HRV_0110,2022-11-30 17:43:27
22,"[{'imgObject': {}, 'id': 'burrito', 'src': '/static/foodstim60/burrito.jpg', 'key': 'u', 'origWidth': 410, 'origHeight': 410, 'width': 410, 'height': 410, 'widthPercent': 0.45, 'rescaleHeight': False, 'trialN': 22, 'loaded': True, 'loadedTime': 1828, 'positionName': 'LEFT', 'positionCoords': [511.6, 335], 'bid': 4.87}, {'imgObject': {}, 'id': 'edamame', 'src': '/static/foodstim60/edamame.jpg', 'key': 'i', 'origWidth': 409, 'origHeight': 410, 'width': 409, 'height': 410, 'widthPercent': 0.45, 'rescaleHeight': False, 'trialN': 22, 'loaded': True, 'loadedTime': 1827, 'positionName': 'RIGHT', 'positionCoords': [998.4, 335], 'bid': 3.47}]",42451,1669829969077,burrito,edamame,4.87,3.47,-1.4,burrito,1565,1582,1582,True,u,44544,2093,1669829971169,2092,HRV,HRV_0110,2022-11-30 17:43:27
23,"[{'imgObject': {}, 'id': 'hotdog w must', 'src': '/static/foodstim60/hotdog w must.jpg', 'key': 'u', 'origWidth': 409, 'origHeight': 409, 'width': 409, 'height': 409, 'widthPercent': 0.45, 'rescaleHeight': False, 'trialN': 23, 'loaded': True, 'loadedTime': 1824, 'positionName': 'LEFT', 'positionCoords': [512.6, 335.5], 'bid': 4.03}, {'imgObject': {}, 'id': 'eggsalad', 'src': '/static/foodstim60/eggsalad.jpg', 'key': 'i', 'origWidth': 410, 'origHeight': 409, 'width': 410, 'height': 409, 'widthPercent': 0.45, 'rescaleHeight': False, 'trialN': 23, 'loaded': True, 'loadedTime': 1829, 'positionName': 'RIGHT', 'positionCoords': [998.4, 335.5], 'bid': 0.79}]",44544,1669829971169,hotdog w must,eggsalad,4.03,0.79,-3.24,hotdog w must,1395,1406,1405,True,u,46461,1917,1669829973087,1918,HRV,HRV_0110,2022-11-30 17:43:27
24,"[{'imgObject': {}, 'id': 'cocktailshrimp', 'src': '/static/foodstim60/cocktailshrimp.jpg', 'key': 'u', 'origWidth': 410, 'origHeight': 410, 'width': 410, 'height': 410, 'widthPercent': 0.45, 'rescaleHeight': False, 'trialN': 24, 'loaded': True, 'loadedTime': 1829, 'positionName': 'LEFT', 'positionCoords': [511.6, 335], 'bid': 5.97}, {'imgObject': {}, 'id': 'cherries', 'src': '/static/foodstim60/cherries.jpg', 'key': 'i', 'origWidth': 410, 'origHeight': 411, 'width': 410, 'height': 411, 'widthPercent': 0.45, 'rescaleHeight': False, 'trialN': 24, 'loaded': True, 'loadedTime': 1820, 'positionName': 'RIGHT', 'positionCoords': [998.4, 334.5], 'bid': 6.62}]",46461,1669829973087,cocktailshrimp,cherries,5.97,6.62,0.6500000000000004,cocktailshrimp,1087,1103,1103,True,u,48078,1617,1669829974704,1617,HRV,HRV_0110,2022-11-30 17:43:27
25,"[{'imgObject': {}, 'id': 'steak', 'src': '/static/foodstim60/steak.jpg', 'key': 'u', 'origWidth': 410, 'origHeight': 410, 'width': 410, 'height': 410, 'widthPercent': 0.45, 'rescaleHeight': False, 'trialN': 25, 'loaded': True, 'loadedTime': 1830, 'positionName': 'LEFT', 'positionCoords': [511.6, 335], 'bid': 9.69}, {'imgObject': {}, 'id': 'froot loops w milk', 'src': '/static/foodstim60/froot loops w milk.jpg', 'key': 'i', 'origWidth': 410, 'origHeight': 410, 'width': 410, 'height': 410, 'widthPercent': 0.45, 'rescaleHeight': False, 'trialN': 25, 'loaded': True, 'loadedTime': 1831, 'positionName': 'RIGHT', 'positionCoords': [998.4, 335], 'bid': 8.09}]",48078,1669829974704,steak,froot loops w milk,9.69,8.09,-1.5999999999999996,steak,877,892,892,True,u,49484,1406,1669829976111,1407,HRV,HRV_0110,2022-11-30 17:43:27
26,"[{'imgObject': {}, 'id': 'sushi w_condiments', 'src': '/static/foodstim60/sushi w_condiments.jpg', 'key': 'u', 'origWidth': 410, 'origHeight': 410, 'width': 410, 'height': 410, 'widthPercent': 0.45, 'rescaleHeight': False, 'trialN': 26, 'loaded': True, 'loadedTime': 1832, 'positionName': 'LEFT', 'positionCoords': [511.6, 335], 'bid': 5.62}, {'imgObject': {}, 'id': 'turkeysandwich', 'src': '/static/foodstim60/turkeysandwich.jpg', 'key': 'i', 'origWidth': 409, 'origHeight': 409, 'width': 409, 'height': 409, 'widthPercent': 0.45, 'rescaleHeight': False, 'trialN': 26, 'loaded': True, 'loadedTime': 1815, 'positionName': 'RIGHT', 'positionCoords': [998.4, 335.5], 'bid': 5.47}]",49484,1669829976111,sushi w_condiments,turkeysandwich,5.62,5.47,-0.15000000000000036,sushi w_condiments,908,919,920,True,u,50917,1433,1669829977543,1432,HRV,HRV_0110,2022-11-30 17:43:27
27,"[{'imgObject': {}, 'id': 'edamame', 'src': '/static/foodstim60/edamame.jpg', 'key': 'u', 'origWidth': 409, 'origHeight': 410, 'width': 409, 'height': 410, 'widthPercent': 0.45, 'rescaleHeight': False, 'trialN': 27, 'loaded': True, 'loadedTime': 1827, 'positionName': 'LEFT', 'positionCoords': [512.6, 335], 'bid': 3.47}, {'imgObject': {}, 'id': 'eggsalad', 'src': '/static/foodstim60/eggsalad.jpg', 'key': 'i', 'origWidth': 410, 'origHeight': 409, 'width': 410, 'height': 409, 'widthPercent': 0.45, 'rescaleHeight': False, 'trialN': 27, 'loaded': True, 'loadedTime': 1829, 'positionName': 'RIGHT', 'positionCoords': [998.4, 335.5], 'bid': 0.79}]",50917,1669829977543,edamame,eggsalad,3.47,0.79,-2.68,edamame,1491,1503,1503,True,u,52925,2008,1669829979550,2007,HRV,HRV_0110,2022-11-30 17:43:27
28,"[{'imgObject': {}, 'id': 'tacos', 'src': '/static/foodstim60/tacos.jpg', 'key': 'u', 'origWidth': 411, 'origHeight': 411, 'width': 411, 'height': 411, 'widthPercent': 0.45, 'rescaleHeight': False, 'trialN': 28, 'loaded': True, 'loadedTime': 1832, 'positionName': 'LEFT', 'positionCoords': [510.6, 334.5], 'bid': 4.57}, {'imgObject': {}, 'id': 'rigatoni', 'src': '/static/foodstim60/rigatoni.jpg', 'key': 'i', 'origWidth': 411, 'origHeight': 411, 'width': 411, 'height': 411, 'widthPercent': 0.45, 'rescaleHeight': False, 'trialN': 28, 'loaded': True, 'loadedTime': 1810, 'positionName': 'RIGHT', 'positionCoords': [998.4, 334.5], 'bid': 4.6000000000000005}]",52925,1669829979550,tacos,rigatoni,4.57,4.6000000000000005,0.03000000000000025,rigatoni,686,705,705,True,i,54137,1212,1669829980763,1213,HRV,HRV_0110,2022-11-30 17:43:27
29,"[{'imgObject': {}, 'id': 'baked potato', 'src': '/static/foodstim60/baked potato.jpg', 'key': 'u', 'origWidth': 409, 'origHeight': 410, 'width': 409, 'height': 410, 'widthPercent': 0.45, 'rescaleHeight': False, 'trialN': 29, 'loaded': True, 'loadedTime': 1818, 'positionName': 'LEFT', 'positionCoords': [512.6, 335], 'bid': 7.69}, {'imgObject': {}, 'id': 'Grapes', 'src': '/static/foodstim60/Grapes.jpg', 'key': 'i', 'origWidth': 411, 'origHeight': 411, 'width': 411, 'height': 411, 'widthPercent': 0.45, 'rescaleHeight': False, 'trialN': 29, 'loaded': True, 'loadedTime': 1833, 'positionName': 'RIGHT', 'positionCoords': [998.4, 334.5], 'bid': 7.6}]",54138,1669829980763,baked potato,Grapes,7.69,7.6,-0.09000000000000075,baked potato,784,794,793,True,u,55442,1304,1669829982068,1305,HRV,HRV_0110,2022-11-30 17:43:27
30,"[{'imgObject': {}, 'id': 'cheerios', 'src': '/static/foodstim60/cheerios.jpg', 'key': 'u', 'origWidth': 409, 'origHeight': 410, 'width': 409, 'height': 410, 'widthPercent': 0.45, 'rescaleHeight': False, 'trialN': 30, 'loaded': True, 'loadedTime': 1828, 'positionName': 'LEFT', 'positionCoords': [512.6, 335], 'bid': 6.55}, {'imgObject': {}, 'id': 'orange slices', 'src': '/static/foodstim60/orange slices.jpg', 'key': 'i', 'origWidth': 409, 'origHeight': 410, 'width': 409, 'height': 410, 'widthPercent': 0.45, 'rescaleHeight': False, 'trialN': 30, 'loaded': True, 'loadedTime': 1834, 'positionName': 'RIGHT', 'positionCoords': [998.4, 335], 'bid': 9.13}]",55442,1669829982068,cheerios,orange slices,6.55,9.13,2.580000000000001,orange slices,1341,1346,1346,True,i,57299,1857,1669829983925,1857,HRV,HRV_0110,2022-11-30 17:43:27
31,"[{'imgObject': {}, 'id': 'bagel and cc', 'src': '/static/foodstim60/bagel and cc.jpg', 'key': 'u', 'origWidth': 410, 'origHeight': 410, 'width': 410, 'height': 410, 'widthPercent': 0.45, 'rescaleHeight': False, 'trialN': 31, 'loaded': True, 'loadedTime': 1834, 'positionName': 'LEFT', 'positionCoords': [511.6, 335], 'bid': 7.11}, {'imgObject': {}, 'id': 'Grapes', 'src': '/static/foodstim60/Grapes.jpg', 'key': 'i', 'origWidth': 411, 'origHeight': 411, 'width': 411, 'height': 411, 'widthPercent': 0.45, 'rescaleHeight': False, 'trialN': 31, 'loaded': True, 'loadedTime': 1834, 'positionName': 'RIGHT', 'positionCoords': [998.4, 334.5], 'bid': 7.6}]",57299,1669829983925,bagel and cc,Grapes,7.11,7.6,0.4899999999999993,bagel and cc,1312,1319,1318,True,u,59121,1822,1669829985747,1822,HRV,HRV_0110,2022-11-30 17:43:27
32,"[{'imgObject': {}, 'id': 'cheerios', 'src': '/static/foodstim60/cheerios.jpg', 'key': 'u', 'origWidth': 409, 'origHeight': 410, 'width': 409, 'height': 410, 'widthPercent': 0.45, 'rescaleHeight': False, 'trialN': 32, 'loaded': True, 'loadedTime': 1828, 'positionName': 'LEFT', 'positionCoords': [512.6, 335], 'bid': 6.55}, {'imgObject': {}, 'id': 'cherries', 'src': '/static/foodstim60/cherries.jpg', 'key': 'i', 'origWidth': 410, 'origHeight': 411, 'width': 410, 'height': 411, 'widthPercent': 0.45, 'rescaleHeight': False, 'trialN': 32, 'loaded': True, 'loadedTime': 1820, 'positionName': 'RIGHT', 'positionCoords': [998.4, 334.5], 'bid': 6.62}]",59121,1669829985747,cheerios,cherries,6.55,6.62,0.07000000000000028,cheerios,943,953,953,True,u,60577,1456,1669829987204,1457,HRV,HRV_0110,2022-11-30 17:43:27
33,"[{'imgObject': {}, 'id': 'pear', 'src': '/static/foodstim60/pear.jpg', 'key': 'u', 'origWidth': 411, 'origHeight': 410, 'width': 411, 'height': 410, 'widthPercent': 0.45, 'rescaleHeight': False, 'trialN': 33, 'loaded': True, 'loadedTime': 1814, 'positionName': 'LEFT', 'positionCoords': [510.6, 335], 'bid': 5.15}, {'imgObject': {}, 'id': 'bagel and cc', 'src': '/static/foodstim60/bagel and cc.jpg', 'key': 'i', 'origWidth': 410, 'origHeight': 410, 'width': 410, 'height': 410, 'widthPercent': 0.45, 'rescaleHeight': False, 'trialN': 33, 'loaded': True, 'loadedTime': 1835, 'positionName': 'RIGHT', 'positionCoords': [998.4, 335], 'bid': 7.11}]",60578,1669829987204,pear,bagel and cc,5.15,7.11,1.96,pear,891,895,896,True,u,61981,1403,1669829988607,1403,HRV,HRV_0110,2022-11-30 17:43:27
34,"[{'imgObject': {}, 'id': 'orange slices', 'src': '/static/foodstim60/orange slices.jpg', 'key': 'u', 'origWidth': 409, 'origHeight': 410, 'width': 409, 'height': 410, 'widthPercent': 0.45, 'rescaleHeight': False, 'trialN': 34, 'loaded': True, 'loadedTime': 1834, 'positionName': 'LEFT', 'positionCoords': [512.6, 335], 'bid': 9.13}, {'imgObject': {}, 'id': 'chickenfingers', 'src': '/static/foodstim60/chickenfingers.jpg', 'key': 'i', 'origWidth': 410, 'origHeight': 410, 'width': 410, 'height': 410, 'widthPercent': 0.45, 'rescaleHeight': False, 'trialN': 34, 'loaded': True, 'loadedTime': 1835, 'positionName': 'RIGHT', 'positionCoords': [998.4, 335], 'bid': 9.67}]",61982,1669829988608,orange slices,chickenfingers,9.13,9.67,0.5399999999999991,orange slices,660,678,677,True,u,63159,1177,1669829989786,1178,HRV,HRV_0110,2022-11-30 17:43:27
35,"[{'imgObject': {}, 'id': 'fruitsalad', 'src': '/static/foodstim60/fruitsalad.jpg', 'key': 'u', 'origWidth': 410, 'origHeight': 410, 'width': 410, 'height': 410, 'widthPercent': 0.45, 'rescaleHeight': False, 'trialN': 35, 'loaded': True, 'loadedTime': 1836, 'positionName': 'LEFT', 'positionCoords': [511.6, 335], 'bid': 3.86}, {'imgObject': {}, 'id': 'shreddedwheatwithmilk', 'src': '/static/foodstim60/shreddedwheatwithmilk.jpg', 'key': 'i', 'origWidth': 410, 'origHeight': 410, 'width': 410, 'height': 410, 'widthPercent': 0.45, 'rescaleHeight': False, 'trialN': 35, 'loaded': True, 'loadedTime': 1821, 'positionName': 'RIGHT', 'positionCoords': [998.4, 335], 'bid': 2.11}]",63159,1669829989786,fruitsalad,shreddedwheatwithmilk,3.86,2.11,-1.75,fruitsalad,1452,1457,1459,True,u,65126,1967,1669829991752,1966,HRV,HRV_0110,2022-11-30 17:43:27
36,"[{'imgObject': {}, 'id': 'yogurt no spoon', 'src': '/static/foodstim60/yogurt no spoon.jpg', 'key': 'u', 'origWidth': 411, 'origHeight': 410, 'width': 411, 'height': 410, 'widthPercent': 0.45, 'rescaleHeight': False, 'trialN': 36, 'loaded': True, 'loadedTime': 1837, 'positionName': 'LEFT', 'positionCoords': [510.6, 335], 'bid': 8.68}, {'imgObject': {}, 'id': 'rigatoni', 'src': '/static/foodstim60/rigatoni.jpg', 'key': 'i', 'origWidth': 411, 'origHeight': 411, 'width': 411, 'height': 411, 'widthPercent': 0.45, 'rescaleHeight': False, 'trialN': 36, 'loaded': True, 'loadedTime': 1810, 'positionName': 'RIGHT', 'positionCoords': [998.4, 334.5], 'bid': 4.6000000000000005}]",65127,1669829991753,yogurt no spoon,rigatoni,8.68,4.6000000000000005,-4.079999999999999,rigatoni,968,975,975,True,i,66603,1476,1669829993230,1477,HRV,HRV_0110,2022-11-30 17:43:27
37,"[{'imgObject': {}, 'id': 'chicken nuggets2', 'src': '/static/foodstim60/chicken nuggets2.jpg', 'key': 'u', 'origWidth': 410, 'origHeight': 409, 'width': 410, 'height': 409, 'widthPercent': 0.45, 'rescaleHeight': False, 'trialN': 37, 'loaded': True, 'loadedTime': 1837, 'positionName': 'LEFT', 'positionCoords': [511.6, 335.5], 'bid': 8.2}, {'imgObject': {}, 'id': 'sweetpotato', 'src': '/static/foodstim60/sweetpotato.jpg', 'key': 'i', 'origWidth': 410, 'origHeight': 410, 'width': 410, 'height': 410, 'widthPercent': 0.45, 'rescaleHeight': False, 'trialN': 37, 'loaded': True, 'loadedTime': 1838, 'positionName': 'RIGHT', 'positionCoords': [998.4, 335], 'bid': 6.09}]",66603,1669829993230,chicken nuggets2,sweetpotato,8.2,6.09,-2.1099999999999994,chicken nuggets2,633,647,648,True,u,67755,1152,1669829994381,1151,HRV,HRV_0110,2022-11-30 17:43:27
38,"[{'imgObject': {}, 'id': 'sweetpotato', 'src': '/static/foodstim60/sweetpotato.jpg', 'key': 'u', 'origWidth': 410, 'origHeight': 410, 'width': 410, 'height': 410, 'widthPercent': 0.45, 'rescaleHeight': False, 'trialN': 38, 'loaded': True, 'loadedTime': 1839, 'positionName': 'LEFT', 'positionCoords': [511.6, 335], 'bid': 6.09}, {'imgObject': {}, 'id': 'cheerios', 'src': '/static/foodstim60/cheerios.jpg', 'key': 'i', 'origWidth': 409, 'origHeight': 410, 'width': 409, 'height': 410, 'widthPercent': 0.45, 'rescaleHeight': False, 'trialN': 38, 'loaded': True, 'loadedTime': 1828, 'positionName': 'RIGHT', 'positionCoords': [998.4, 335], 'bid': 6.55}]",67756,1669829994381,sweetpotato,cheerios,6.09,6.55,0.45999999999999996,cheerios,1699,1704,1704,True,i,69967,2211,1669829996593,2212,HRV,HRV_0110,2022-11-30 17:43:27
39,"[{'imgObject': {}, 'id': 'cherries', 'src': '/static/foodstim60/cherries.jpg', 'key': 'u', 'origWidth': 410, 'origHeight': 411, 'width': 410, 'height': 411, 'widthPercent': 0.45, 'rescaleHeight': False, 'trialN': 39, 'loaded': True, 'loadedTime': 1820, 'positionName': 'LEFT', 'positionCoords': [511.6, 334.5], 'bid': 6.62}, {'imgObject': {}, 'id': 'rigatoni and sauce', 'src': '/static/foodstim60/rigatoni and sauce.jpg', 'key': 'i', 'origWidth': 410, 'origHeight': 411, 'width': 410, 'height': 411, 'widthPercent': 0.45, 'rescaleHeight': False, 'trialN': 39, 'loaded': True, 'loadedTime': 1839, 'positionName': 'RIGHT', 'positionCoords': [998.4, 334.5], 'bid': 6.17}]",69968,1669829996593,cherries,rigatoni and sauce,6.62,6.17,-0.4500000000000002,rigatoni and sauce,877,882,882,True,i,71355,1387,1669829997981,1388,HRV,HRV_0110,2022-11-30 17:43:27
40,"[{'imgObject': {}, 'id': 'kiwi', 'src': '/static/foodstim60/kiwi.jpg', 'key': 'u', 'origWidth': 410, 'origHeight': 410, 'width': 410, 'height': 410, 'widthPercent': 0.45, 'rescaleHeight': False, 'trialN': 40, 'loaded': True, 'loadedTime': 1840, 'positionName': 'LEFT', 'positionCoords': [511.6, 335], 'bid': 2.31}, {'imgObject': {}, 'id': 'tacos', 'src': '/static/foodstim60/tacos.jpg', 'key': 'i', 'origWidth': 411, 'origHeight': 411, 'width': 411, 'height': 411, 'widthPercent': 0.45, 'rescaleHeight': False, 'trialN': 40, 'loaded': True, 'loadedTime': 1833, 'positionName': 'RIGHT', 'positionCoords': [998.4, 334.5], 'bid': 4.57}]",71355,1669829997981,kiwi,tacos,2.31,4.57,2.2600000000000002,tacos,896,914,914,True,i,72772,1417,1669829999398,1417,HRV,HRV_0110,2022-11-30 17:43:27
41,"[{'imgObject': {}, 'id': 'edamame', 'src': '/static/foodstim60/edamame.jpg', 'key': 'u', 'origWidth': 409, 'origHeight': 410, 'width': 409, 'height': 410, 'widthPercent': 0.45, 'rescaleHeight': False, 'trialN': 41, 'loaded': True, 'loadedTime': 1827, 'positionName': 'LEFT', 'positionCoords': [512.6, 335], 'bid': 3.47}, {'imgObject': {}, 'id': 'burger', 'src': '/static/foodstim60/burger.jpg', 'key': 'i', 'origWidth': 409, 'origHeight': 409, 'width': 409, 'height': 409, 'widthPercent': 0.45, 'rescaleHeight': False, 'trialN': 41, 'loaded': True, 'loadedTime': 1817, 'positionName': 'RIGHT', 'positionCoords': [998.4, 335.5], 'bid': 4.08}]",72772,1669829999398,edamame,burger,3.47,4.08,0.6099999999999999,edamame,1026,1037,1037,True,u,74316,1544,1669830000942,1544,HRV,HRV_0110,2022-11-30 17:43:27
42,"[{'imgObject': {}, 'id': 'omelette', 'src': '/static/foodstim60/omelette.jpg', 'key': 'u', 'origWidth': 410, 'origHeight': 409, 'width': 410, 'height': 409, 'widthPercent': 0.45, 'rescaleHeight': False, 'trialN': 42, 'loaded': True, 'loadedTime': 1812, 'positionName': 'LEFT', 'positionCoords': [511.6, 335.5], 'bid': 3.73}, {'imgObject': {}, 'id': 'eggs', 'src': '/static/foodstim60/eggs.jpg', 'key': 'i', 'origWidth': 409, 'origHeight': 409, 'width': 409, 'height': 409, 'widthPercent': 0.45, 'rescaleHeight': False, 'trialN': 42, 'loaded': True, 'loadedTime': 1814, 'positionName': 'RIGHT', 'positionCoords': [998.4, 335.5], 'bid': 1.36}]",74316,1669830000942,omelette,eggs,3.73,1.36,-2.37,omelette,982,985,986,True,u,75810,1494,1669830002437,1495,HRV,HRV_0110,2022-11-30 17:43:27
43,"[{'imgObject': {}, 'id': 'roastedpotatoes', 'src': '/static/foodstim60/roastedpotatoes.jpg', 'key': 'u', 'origWidth': 409, 'origHeight': 410, 'width': 409, 'height': 410, 'widthPercent': 0.45, 'rescaleHeight': False, 'trialN': 43, 'loaded': True, 'loadedTime': 1827, 'positionName': 'LEFT', 'positionCoords': [512.6, 335], 'bid': 7.88}, {'imgObject': {}, 'id': 'popsicles', 'src': '/static/foodstim60/popsicles.jpg', 'key': 'i', 'origWidth': 410, 'origHeight': 410, 'width': 410, 'height': 410, 'widthPercent': 0.45, 'rescaleHeight': False, 'trialN': 43, 'loaded': True, 'loadedTime': 1841, 'positionName': 'RIGHT', 'positionCoords': [998.4, 335], 'bid': 5.98}]",75811,1669830002437,roastedpotatoes,popsicles,7.88,5.98,-1.8999999999999995,roastedpotatoes,722,738,738,True,u,77059,1248,1669830003685,1248,HRV,HRV_0110,2022-11-30 17:43:27
44,"[{'imgObject': {}, 'id': 'veggieswithdip', 'src': '/static/foodstim60/veggieswithdip.jpg', 'key': 'u', 'origWidth': 409, 'origHeight': 409, 'width': 409, 'height': 409, 'widthPercent': 0.45, 'rescaleHeight': False, 'trialN': 44, 'loaded': True, 'loadedTime': 1842, 'positionName': 'LEFT', 'positionCoords': [512.6, 335.5], 'bid': 3.58}, {'imgObject': {}, 'id': 'olives', 'src': '/static/foodstim60/olives.jpg', 'key': 'i', 'origWidth': 410, 'origHeight': 410, 'width': 410, 'height': 410, 'widthPercent': 0.45, 'rescaleHeight': False, 'trialN': 44, 'loaded': True, 'loadedTime': 1842, 'positionName': 'RIGHT', 'positionCoords': [998.4, 335], 'bid': 0.11}]",77059,1669830003685,veggieswithdip,olives,3.58,0.11,-3.47,veggieswithdip,1052,1062,1062,True,u,78630,1571,1669830005256,1571,HRV,HRV_0110,2022-11-30 17:43:27
45,"[{'imgObject': {}, 'id': 'pear', 'src': '/static/foodstim60/pear.jpg', 'key': 'u', 'origWidth': 411, 'origHeight': 410, 'width': 411, 'height': 410, 'widthPercent': 0.45, 'rescaleHeight': False, 'trialN': 45, 'loaded': True, 'loadedTime': 1814, 'positionName': 'LEFT', 'positionCoords': [510.6, 335], 'bid': 5.15}, {'imgObject': {}, 'id': 'avocado', 'src': '/static/foodstim60/avocado.jpg', 'key': 'i', 'origWidth': 409, 'origHeight': 409, 'width': 409, 'height': 409, 'widthPercent': 0.45, 'rescaleHeight': False, 'trialN': 45, 'loaded': True, 'loadedTime': 1808, 'positionName': 'RIGHT', 'positionCoords': [998.4, 335.5], 'bid': 0.59}]",78630,1669830005256,pear,avocado,5.15,0.59,-4.5600000000000005,pear,1215,1229,1229,True,u,80367,1737,1669830006993,1737,HRV,HRV_0110,2022-11-30 17:43:27
46,"[{'imgObject': {}, 'id': 'salad w chicken', 'src': '/static/foodstim60/salad w chicken.jpg', 'key': 'u', 'origWidth': 411, 'origHeight': 411, 'width': 411, 'height': 411, 'widthPercent': 0.45, 'rescaleHeight': False, 'trialN': 46, 'loaded': True, 'loadedTime': 1822, 'positionName': 'LEFT', 'positionCoords': [510.6, 334.5], 'bid': 6.05}, {'imgObject': {}, 'id': 'froot loops w milk', 'src': '/static/foodstim60/froot loops w milk.jpg', 'key': 'i', 'origWidth': 410, 'origHeight': 410, 'width': 410, 'height': 410, 'widthPercent': 0.45, 'rescaleHeight': False, 'trialN': 46, 'loaded': True, 'loadedTime': 1832, 'positionName': 'RIGHT', 'positionCoords': [998.4, 335], 'bid': 8.09}]",80367,1669830006993,salad w chicken,froot loops w milk,6.05,8.09,2.04,froot loops w milk,1197,1214,1214,True,i,82081,1714,1669830008707,1714,HRV,HRV_0110,2022-11-30 17:43:27
47,"[{'imgObject': {}, 'id': 'fruitsalad', 'src': '/static/foodstim60/fruitsalad.jpg', 'key': 'u', 'origWidth': 410, 'origHeight': 410, 'width': 410, 'height': 410, 'widthPercent': 0.45, 'rescaleHeight': False, 'trialN': 47, 'loaded': True, 'loadedTime': 1837, 'positionName': 'LEFT', 'positionCoords': [511.6, 335], 'bid': 3.86}, {'imgObject': {}, 'id': 'omelette', 'src': '/static/foodstim60/omelette.jpg', 'key': 'i', 'origWidth': 410, 'origHeight': 409, 'width': 410, 'height': 409, 'widthPercent': 0.45, 'rescaleHeight': False, 'trialN': 47, 'loaded': True, 'loadedTime': 1812, 'positionName': 'RIGHT', 'positionCoords': [998.4, 335.5], 'bid': 3.73}]",82082,1669830008707,fruitsalad,omelette,3.86,3.73,-0.1299999999999999,omelette,1419,1428,1427,True,i,84010,1928,1669830010636,1929,HRV,HRV_0110,2022-11-30 17:43:27
48,"[{'imgObject': {}, 'id': 'cherry tomato', 'src': '/static/foodstim60/cherry tomato.jpg', 'key': 'u', 'origWidth': 410, 'origHeight': 410, 'width': 410, 'height': 410, 'widthPercent': 0.45, 'rescaleHeight': False, 'trialN': 48, 'loaded': True, 'loadedTime': 1843, 'positionName': 'LEFT', 'positionCoords': [511.6, 335], 'bid': 0.88}, {'imgObject': {}, 'id': 'corn cob', 'src': '/static/foodstim60/corn cob.jpg', 'key': 'i', 'origWidth': 411, 'origHeight': 411, 'width': 411, 'height': 411, 'widthPercent': 0.45, 'rescaleHeight': False, 'trialN': 48, 'loaded': True, 'loadedTime': 1844, 'positionName': 'RIGHT', 'positionCoords': [998.4, 334.5], 'bid': 5.45}]",84010,1669830010636,cherry tomato,corn cob,0.88,5.45,4.57,corn cob,960,969,969,True,i,85492,1482,1669830012118,1482,HRV,HRV_0110,2022-11-30 17:43:27
49,"[{'imgObject': {}, 'id': 'mango', 'src': '/static/foodstim60/mango.jpg', 'key': 'u', 'origWidth': 411, 'origHeight': 411, 'width': 411, 'height': 411, 'widthPercent': 0.45, 'rescaleHeight': False, 'trialN': 49, 'loaded': True, 'loadedTime': 1844, 'positionName': 'LEFT', 'positionCoords': [510.6, 334.5], 'bid': 4.75}, {'imgObject': {}, 'id': 'blueberries', 'src': '/static/foodstim60/blueberries.jpg', 'key': 'i', 'origWidth': 411, 'origHeight': 411, 'width': 411, 'height': 411, 'widthPercent': 0.45, 'rescaleHeight': False, 'trialN': 49, 'loaded': True, 'loadedTime': 1824, 'positionName': 'RIGHT', 'positionCoords': [998.4, 334.5], 'bid': 3.39}]",85492,1669830012118,mango,blueberries,4.75,3.39,-1.3599999999999999,mango,1416,1434,1434,True,u,87427,1935,1669830014053,1935,HRV,HRV_0110,2022-11-30 17:43:27
50,"[{'imgObject': {}, 'id': 'sweetpotato', 'src': '/static/foodstim60/sweetpotato.jpg', 'key': 'u', 'origWidth': 410, 'origHeight': 410, 'width': 410, 'height': 410, 'widthPercent': 0.45, 'rescaleHeight': False, 'trialN': 50, 'loaded': True, 'loadedTime': 1839, 'positionName': 'LEFT', 'positionCoords': [511.6, 335], 'bid': 6.09}, {'imgObject': {}, 'id': 'sushi w_condiments', 'src': '/static/foodstim60/sushi w_condiments.jpg', 'key': 'i', 'origWidth': 410, 'origHeight': 410, 'width': 410, 'height': 410, 'widthPercent': 0.45, 'rescaleHeight': False, 'trialN': 50, 'loaded': True, 'loadedTime': 1832, 'positionName': 'RIGHT', 'positionCoords': [998.4, 335], 'bid': 5.62}]",87427,1669830014053,sweetpotato,sushi w_condiments,6.09,5.62,-0.46999999999999975,sweetpotato,948,963,963,True,u,88892,1465,1669830015518,1465,HRV,HRV_0110,2022-11-30 17:43:27
51,"[{'imgObject': {}, 'id': 'eggsalad', 'src': '/static/foodstim60/eggsalad.jpg', 'key': 'u', 'origWidth': 410, 'origHeight': 409, 'width': 410, 'height': 409, 'widthPercent': 0.45, 'rescaleHeight': False, 'trialN': 51, 'loaded': True, 'loadedTime': 1829, 'positionName': 'LEFT', 'positionCoords': [511.6, 335.5], 'bid': 0.79}, {'imgObject': {}, 'id': 'eggs', 'src': '/static/foodstim60/eggs.jpg', 'key': 'i', 'origWidth': 409, 'origHeight': 409, 'width': 409, 'height': 409, 'widthPercent': 0.45, 'rescaleHeight': False, 'trialN': 51, 'loaded': True, 'loadedTime': 1814, 'positionName': 'RIGHT', 'positionCoords': [998.4, 335.5], 'bid': 1.36}]",88892,1669830015519,eggsalad,eggs,0.79,1.36,0.5700000000000001,eggs,1922,1928,1929,True,i,91328,2436,1669830017954,2435,HRV,HRV_0110,2022-11-30 17:43:27
52,"[{'imgObject': {}, 'id': 'luckycharms', 'src': '/static/foodstim60/luckycharms.jpg', 'key': 'u', 'origWidth': 410, 'origHeight': 409, 'width': 410, 'height': 409, 'widthPercent': 0.45, 'rescaleHeight': False, 'trialN': 52, 'loaded': True, 'loadedTime': 1826, 'positionName': 'LEFT', 'positionCoords': [511.6, 335.5], 'bid': 3.12}, {'imgObject': {}, 'id': 'fruitsalad', 'src': '/static/foodstim60/fruitsalad.jpg', 'key': 'i', 'origWidth': 410, 'origHeight': 410, 'width': 410, 'height': 410, 'widthPercent': 0.45, 'rescaleHeight': False, 'trialN': 52, 'loaded': True, 'loadedTime': 1837, 'positionName': 'RIGHT', 'positionCoords': [998.4, 335], 'bid': 3.86}]",91328,1669830017954,luckycharms,fruitsalad,3.12,3.86,0.7399999999999998,luckycharms,736,745,746,True,u,92576,1248,1669830019201,1247,HRV,HRV_0110,2022-11-30 17:43:27
53,"[{'imgObject': {}, 'id': 'shreddedwheatwithmilk', 'src': '/static/foodstim60/shreddedwheatwithmilk.jpg', 'key': 'u', 'origWidth': 410, 'origHeight': 410, 'width': 410, 'height': 410, 'widthPercent': 0.45, 'rescaleHeight': False, 'trialN': 53, 'loaded': True, 'loadedTime': 1821, 'positionName': 'LEFT', 'positionCoords': [511.6, 335], 'bid': 2.11}, {'imgObject': {}, 'id': 'blackbeanswithrice', 'src': '/static/foodstim60/blackbeanswithrice.jpg', 'key': 'i', 'origWidth': 410, 'origHeight': 410, 'width': 410, 'height': 410, 'widthPercent': 0.45, 'rescaleHeight': False, 'trialN': 53, 'loaded': True, 'loadedTime': 1845, 'positionName': 'RIGHT', 'positionCoords': [998.4, 335], 'bid': 2.35}]",92576,1669830019201,shreddedwheatwithmilk,blackbeanswithrice,2.11,2.35,0.2400000000000002,shreddedwheatwithmilk,1144,1158,1158,True,u,94243,1667,1669830020870,1669,HRV,HRV_0110,2022-11-30 17:43:27
54,"[{'imgObject': {}, 'id': 'burger', 'src': '/static/foodstim60/burger.jpg', 'key': 'u', 'origWidth': 409, 'origHeight': 409, 'width': 409, 'height': 409, 'widthPercent': 0.45, 'rescaleHeight': False, 'trialN': 54, 'loaded': True, 'loadedTime': 1817, 'positionName': 'LEFT', 'positionCoords': [512.6, 335.5], 'bid': 4.08}, {'imgObject': {}, 'id': 'hashbrowns', 'src': '/static/foodstim60/hashbrowns.jpg', 'key': 'i', 'origWidth': 411, 'origHeight': 410, 'width': 411, 'height': 410, 'widthPercent': 0.45, 'rescaleHeight': False, 'trialN': 54, 'loaded': True, 'loadedTime': 1825, 'positionName': 'RIGHT', 'positionCoords': [998.4, 335], 'bid': 4.12}]",94244,1669830020870,burger,hashbrowns,4.08,4.12,0.040000000000000036,hashbrowns,945,949,949,True,i,95696,1452,1669830022322,1452,HRV,HRV_0110,2022-11-30 17:43:27
55,"[{'imgObject': {}, 'id': 'strawberries', 'src': '/static/foodstim60/strawberries.jpg', 'key': 'u', 'origWidth': 410, 'origHeight': 410, 'width': 410, 'height': 410, 'widthPercent': 0.45, 'rescaleHeight': False, 'trialN': 55, 'loaded': True, 'loadedTime': 1845, 'positionName': 'LEFT', 'positionCoords': [511.6, 335], 'bid': 5.16}, {'imgObject': {}, 'id': 'mango', 'src': '/static/foodstim60/mango.jpg', 'key': 'i', 'origWidth': 411, 'origHeight': 411, 'width': 411, 'height': 411, 'widthPercent': 0.45, 'rescaleHeight': False, 'trialN': 55, 'loaded': True, 'loadedTime': 1845, 'positionName': 'RIGHT', 'positionCoords': [998.4, 334.5], 'bid': 4.75}]",95696,1669830022322,strawberries,mango,5.16,4.75,-0.41000000000000014,strawberries,977,989,989,True,u,97191,1495,1669830023816,1494,HRV,HRV_0110,2022-11-30 17:43:27
56,"[{'imgObject': {}, 'id': 'mac & cheese', 'src': '/static/foodstim60/mac & cheese.jpg', 'key': 'u', 'origWidth': 410, 'origHeight': 410, 'width': 410, 'height': 410, 'widthPercent': 0.45, 'rescaleHeight': False, 'trialN': 56, 'loaded': True, 'loadedTime': 1846, 'positionName': 'LEFT', 'positionCoords': [511.6, 335], 'bid': 9.38}, {'imgObject': {}, 'id': 'baked potato', 'src': '/static/foodstim60/baked potato.jpg', 'key': 'i', 'origWidth': 409, 'origHeight': 410, 'width': 409, 'height': 410, 'widthPercent': 0.45, 'rescaleHeight': False, 'trialN': 56, 'loaded': True, 'loadedTime': 1818, 'positionName': 'RIGHT', 'positionCoords': [998.4, 335], 'bid': 7.69}]",97191,1669830023816,mac & cheese,baked potato,9.38,7.69,-1.6900000000000004,mac & cheese,639,651,650,True,u,98342,1151,1669830024968,1152,HRV,HRV_0110,2022-11-30 17:43:27
57,"[{'imgObject': {}, 'id': 'granola w milk', 'src': '/static/foodstim60/granola w milk.jpg', 'key': 'u', 'origWidth': 410, 'origHeight': 410, 'width': 410, 'height': 410, 'widthPercent': 0.45, 'rescaleHeight': False, 'trialN': 57, 'loaded': True, 'loadedTime': 1861, 'positionName': 'LEFT', 'positionCoords': [511.6, 335], 'bid': 2.97}, {'imgObject': {}, 'id': 'fried eggs', 'src': '/static/foodstim60/fried eggs.jpg', 'key': 'i', 'origWidth': 410, 'origHeight': 410, 'width': 410, 'height': 410, 'widthPercent': 0.45, 'rescaleHeight': False, 'trialN': 57, 'loaded': True, 'loadedTime': 1863, 'positionName': 'RIGHT', 'positionCoords': [998.4, 335], 'bid': 4.61}]",98342,1669830024968,granola w milk,fried eggs,2.97,4.61,1.6400000000000001,granola w milk,972,982,982,True,u,99828,1486,1669830026453,1485,HRV,HRV_0110,2022-11-30 17:43:27
58,"[{'imgObject': {}, 'id': 'chickenfingers', 'src': '/static/foodstim60/chickenfingers.jpg', 'key': 'u', 'origWidth': 410, 'origHeight': 410, 'width': 410, 'height': 410, 'widthPercent': 0.45, 'rescaleHeight': False, 'trialN': 58, 'loaded': True, 'loadedTime': 1836, 'positionName': 'LEFT', 'positionCoords': [511.6, 335], 'bid': 9.67}, {'imgObject': {}, 'id': 'steak', 'src': '/static/foodstim60/steak.jpg', 'key': 'i', 'origWidth': 410, 'origHeight': 410, 'width': 410, 'height': 410, 'widthPercent': 0.45, 'rescaleHeight': False, 'trialN': 58, 'loaded': True, 'loadedTime': 1831, 'positionName': 'RIGHT', 'positionCoords': [998.4, 335], 'bid': 9.69}]",99828,1669830026453,chickenfingers,steak,9.67,9.69,0.019999999999999574,chickenfingers,1720,1726,1726,True,u,102058,2230,1669830028684,2231,HRV,HRV_0110,2022-11-30 17:43:27
59,"[{'imgObject': {}, 'id': 'kiwi', 'src': '/static/foodstim60/kiwi.jpg', 'key': 'u', 'origWidth': 410, 'origHeight': 410, 'width': 410, 'height': 410, 'widthPercent': 0.45, 'rescaleHeight': False, 'trialN': 59, 'loaded': True, 'loadedTime': 1841, 'positionName': 'LEFT', 'positionCoords': [511.6, 335], 'bid': 2.31}, {'imgObject': {}, 'id': 'apple slices', 'src': '/static/foodstim60/apple slices.jpg', 'key': 'i', 'origWidth': 409, 'origHeight': 410, 'width': 409, 'height': 410, 'widthPercent': 0.45, 'rescaleHeight': False, 'trialN': 59, 'loaded': True, 'loadedTime': 1864, 'positionName': 'RIGHT', 'positionCoords': [998.4, 335], 'bid': 5.72}]",102058,1669830028684,kiwi,apple slices,2.31,5.72,3.4099999999999997,apple slices,990,993,993,True,i,103559,1501,1669830030185,1501,HRV,HRV_0110,2022-11-30 17:43:27
60,"[{'imgObject': {}, 'id': 'hashbrowns', 'src': '/static/foodstim60/hashbrowns.jpg', 'key': 'u', 'origWidth': 411, 'origHeight': 410, 'width': 411, 'height': 410, 'widthPercent': 0.45, 'rescaleHeight': False, 'trialN': 60, 'loaded': True, 'loadedTime': 1825, 'positionName': 'LEFT', 'positionCoords': [510.6, 335], 'bid': 4.12}, {'imgObject': {}, 'id': 'bagel plain', 'src': '/static/foodstim60/bagel plain.jpg', 'key': 'i', 'origWidth': 410, 'origHeight': 410, 'width': 410, 'height': 410, 'widthPercent': 0.45, 'rescaleHeight': False, 'trialN': 60, 'loaded': True, 'loadedTime': 1814, 'positionName': 'RIGHT', 'positionCoords': [998.4, 335], 'bid': 5.13}]",103559,1669830030185,hashbrowns,bagel plain,4.12,5.13,1.0099999999999998,bagel plain,1021,1029,1030,True,i,105103,1544,1669830031728,1543,HRV,HRV_0110,2022-11-30 17:43:27
61,"[{'imgObject': {}, 'id': 'salad w chicken', 'src': '/static/foodstim60/salad w chicken.jpg', 'key': 'u', 'origWidth': 411, 'origHeight': 411, 'width': 411, 'height': 411, 'widthPercent': 0.45, 'rescaleHeight': False, 'trialN': 61, 'loaded': True, 'loadedTime': 1822, 'positionName': 'LEFT', 'positionCoords': [510.6, 334.5], 'bid': 6.05}, {'imgObject': {}, 'id': 'cocktailshrimp', 'src': '/static/foodstim60/cocktailshrimp.jpg', 'key': 'i', 'origWidth': 410, 'origHeight': 410, 'width': 410, 'height': 410, 'widthPercent': 0.45, 'rescaleHeight': False, 'trialN': 61, 'loaded': True, 'loadedTime': 1830, 'positionName': 'RIGHT', 'positionCoords': [998.4, 335], 'bid': 5.97}]",105103,1669830031728,salad w chicken,cocktailshrimp,6.05,5.97,-0.08000000000000007,salad w chicken,836,854,854,True,u,106471,1368,1669830033098,1370,HRV,HRV_0110,2022-11-30 17:43:27
62,"[{'imgObject': {}, 'id': 'burrito', 'src': '/static/foodstim60/burrito.jpg', 'key': 'u', 'origWidth': 410, 'origHeight': 410, 'width': 410, 'height': 410, 'widthPercent': 0.45, 'rescaleHeight': False, 'trialN': 62, 'loaded': True, 'loadedTime': 1829, 'positionName': 'LEFT', 'positionCoords': [511.6, 335], 'bid': 4.87}, {'imgObject': {}, 'id': 'steak', 'src': '/static/foodstim60/steak.jpg', 'key': 'i', 'origWidth': 410, 'origHeight': 410, 'width': 410, 'height': 410, 'widthPercent': 0.45, 'rescaleHeight': False, 'trialN': 62, 'loaded': True, 'loadedTime': 1831, 'positionName': 'RIGHT', 'positionCoords': [998.4, 335], 'bid': 9.69}]",106471,1669830033098,burrito,steak,4.87,9.69,4.819999999999999,steak,702,716,718,True,i,107704,1233,1669830034329,1231,HRV,HRV_0110,2022-11-30 17:43:27
63,"[{'imgObject': {}, 'id': 'granola w milk', 'src': '/static/foodstim60/granola w milk.jpg', 'key': 'u', 'origWidth': 410, 'origHeight': 410, 'width': 410, 'height': 410, 'widthPercent': 0.45, 'rescaleHeight': False, 'trialN': 63, 'loaded': True, 'loadedTime': 1862, 'positionName': 'LEFT', 'positionCoords': [511.6, 335], 'bid': 2.97}, {'imgObject': {}, 'id': 'kiwi', 'src': '/static/foodstim60/kiwi.jpg', 'key': 'i', 'origWidth': 410, 'origHeight': 410, 'width': 410, 'height': 410, 'widthPercent': 0.45, 'rescaleHeight': False, 'trialN': 63, 'loaded': True, 'loadedTime': 1841, 'positionName': 'RIGHT', 'positionCoords': [998.4, 335], 'bid': 2.31}]",107704,1669830034329,granola w milk,kiwi,2.97,2.31,-0.6600000000000001,kiwi,1328,1346,1346,True,i,109558,1854,1669830036184,1855,HRV,HRV_0110,2022-11-30 17:43:27
64,"[{'imgObject': {}, 'id': 'sweetpotato', 'src': '/static/foodstim60/sweetpotato.jpg', 'key': 'u', 'origWidth': 410, 'origHeight': 410, 'width': 410, 'height': 410, 'widthPercent': 0.45, 'rescaleHeight': False, 'trialN': 64, 'loaded': True, 'loadedTime': 1839, 'positionName': 'LEFT', 'positionCoords': [511.6, 335], 'bid': 6.09}, {'imgObject': {}, 'id': 'rigatoni and sauce', 'src': '/static/foodstim60/rigatoni and sauce.jpg', 'key': 'i', 'origWidth': 410, 'origHeight': 411, 'width': 410, 'height': 411, 'widthPercent': 0.45, 'rescaleHeight': False, 'trialN': 64, 'loaded': True, 'loadedTime': 1840, 'positionName': 'RIGHT', 'positionCoords': [998.4, 334.5], 'bid': 6.17}]",109558,1669830036184,sweetpotato,rigatoni and sauce,6.09,6.17,0.08000000000000007,rigatoni and sauce,1147,1159,1159,True,i,111231,1673,1669830037857,1673,HRV,HRV_0110,2022-11-30 17:43:27
65,"[{'imgObject': {}, 'id': 'chicken nuggets2', 'src': '/static/foodstim60/chicken nuggets2.jpg', 'key': 'u', 'origWidth': 410, 'origHeight': 409, 'width': 410, 'height': 409, 'widthPercent': 0.45, 'rescaleHeight': False, 'trialN': 65, 'loaded': True, 'loadedTime': 1838, 'positionName': 'LEFT', 'positionCoords': [511.6, 335.5], 'bid': 8.2}, {'imgObject': {}, 'id': 'apple slices', 'src': '/static/foodstim60/apple slices.jpg', 'key': 'i', 'origWidth': 409, 'origHeight': 410, 'width': 409, 'height': 410, 'widthPercent': 0.45, 'rescaleHeight': False, 'trialN': 65, 'loaded': True, 'loadedTime': 1864, 'positionName': 'RIGHT', 'positionCoords': [998.4, 335], 'bid': 5.72}]",111232,1669830037857,chicken nuggets2,apple slices,8.2,5.72,-2.4799999999999995,chicken nuggets2,644,653,653,True,u,112387,1155,1669830039012,1155,HRV,HRV_0110,2022-11-30 17:43:27
66,"[{'imgObject': {}, 'id': 'mac & cheese', 'src': '/static/foodstim60/mac & cheese.jpg', 'key': 'u', 'origWidth': 410, 'origHeight': 410, 'width': 410, 'height': 410, 'widthPercent': 0.45, 'rescaleHeight': False, 'trialN': 66, 'loaded': True, 'loadedTime': 1847, 'positionName': 'LEFT', 'positionCoords': [511.6, 335], 'bid': 9.38}, {'imgObject': {}, 'id': 'orange slices', 'src': '/static/foodstim60/orange slices.jpg', 'key': 'i', 'origWidth': 409, 'origHeight': 410, 'width': 409, 'height': 410, 'widthPercent': 0.45, 'rescaleHeight': False, 'trialN': 66, 'loaded': True, 'loadedTime': 1834, 'positionName': 'RIGHT', 'positionCoords': [998.4, 335], 'bid': 9.13}]",112387,1669830039012,mac & cheese,orange slices,9.38,9.13,-0.25,orange slices,693,695,694,True,i,113588,1201,1669830040215,1203,HRV,HRV_0110,2022-11-30 17:43:27
67,"[{'imgObject': {}, 'id': 'baked potato', 'src': '/static/foodstim60/baked potato.jpg', 'key': 'u', 'origWidth': 409, 'origHeight': 410, 'width': 409, 'height': 410, 'widthPercent': 0.45, 'rescaleHeight': False, 'trialN': 67, 'loaded': True, 'loadedTime': 1818, 'positionName': 'LEFT', 'positionCoords': [512.6, 335], 'bid': 7.69}, {'imgObject': {}, 'id': 'raisin bran w milk', 'src': '/static/foodstim60/raisin bran w milk.jpg', 'key': 'i', 'origWidth': 411, 'origHeight': 411, 'width': 411, 'height': 411, 'widthPercent': 0.45, 'rescaleHeight': False, 'trialN': 67, 'loaded': True, 'loadedTime': 1865, 'positionName': 'RIGHT', 'positionCoords': [998.4, 334.5], 'bid': 4.09}]",113589,1669830040215,baked potato,raisin bran w milk,7.69,4.09,-3.6000000000000005,baked potato,850,855,855,True,u,114957,1368,1669830041583,1368,HRV,HRV_0110,2022-11-30 17:43:27
68,"[{'imgObject': {}, 'id': 'hotdog w must', 'src': '/static/foodstim60/hotdog w must.jpg', 'key': 'u', 'origWidth': 409, 'origHeight': 409, 'width': 409, 'height': 409, 'widthPercent': 0.45, 'rescaleHeight': False, 'trialN': 68, 'loaded': True, 'loadedTime': 1824, 'positionName': 'LEFT', 'positionCoords': [512.6, 335.5], 'bid': 4.03}, {'imgObject': {}, 'id': 'kiwi', 'src': '/static/foodstim60/kiwi.jpg', 'key': 'i', 'origWidth': 410, 'origHeight': 410, 'width': 410, 'height': 410, 'widthPercent': 0.45, 'rescaleHeight': False, 'trialN': 68, 'loaded': True, 'loadedTime': 1841, 'positionName': 'RIGHT', 'positionCoords': [998.4, 335], 'bid': 2.31}]",114957,1669830041583,hotdog w must,kiwi,4.03,2.31,-1.7200000000000002,hotdog w must,841,844,844,True,u,116312,1355,1669830042938,1355,HRV,HRV_0110,2022-11-30 17:43:27
69,"[{'imgObject': {}, 'id': 'blackbeanswithrice', 'src': '/static/foodstim60/blackbeanswithrice.jpg', 'key': 'u', 'origWidth': 410, 'origHeight': 410, 'width': 410, 'height': 410, 'widthPercent': 0.45, 'rescaleHeight': False, 'trialN': 69, 'loaded': True, 'loadedTime': 1845, 'positionName': 'LEFT', 'positionCoords': [511.6, 335], 'bid': 2.35}, {'imgObject': {}, 'id': 'lox', 'src': '/static/foodstim60/lox.jpg', 'key': 'i', 'origWidth': 410, 'origHeight': 411, 'width': 410, 'height': 411, 'widthPercent': 0.45, 'rescaleHeight': False, 'trialN': 69, 'loaded': True, 'loadedTime': 1866, 'positionName': 'RIGHT', 'positionCoords': [998.4, 334.5], 'bid': 5.86}]",116312,1669830042938,blackbeanswithrice,lox,2.35,5.86,3.5100000000000002,lox,1018,1026,1026,True,i,117839,1527,1669830044465,1527,HRV,HRV_0110,2022-11-30 17:43:27
70,"[{'imgObject': {}, 'id': 'bagel and cc', 'src': '/static/foodstim60/bagel and cc.jpg', 'key': 'u', 'origWidth': 410, 'origHeight': 410, 'width': 410, 'height': 410, 'widthPercent': 0.45, 'rescaleHeight': False, 'trialN': 70, 'loaded': True, 'loadedTime': 1835, 'positionName': 'LEFT', 'positionCoords': [511.6, 335], 'bid': 7.11}, {'imgObject': {}, 'id': 'chickenfingers', 'src': '/static/foodstim60/chickenfingers.jpg', 'key': 'i', 'origWidth': 410, 'origHeight': 410, 'width': 410, 'height': 410, 'widthPercent': 0.45, 'rescaleHeight': False, 'trialN': 70, 'loaded': True, 'loadedTime': 1836, 'positionName': 'RIGHT', 'positionCoords': [998.4, 335], 'bid': 9.67}]",117840,1669830044466,bagel and cc,chickenfingers,7.11,9.67,2.5599999999999996,chickenfingers,849,868,868,True,i,119213,1373,1669830045839,1373,HRV,HRV_0110,2022-11-30 17:43:27
71,"[{'imgObject': {}, 'id': 'popsicles', 'src': '/static/foodstim60/popsicles.jpg', 'key': 'u', 'origWidth': 410, 'origHeight': 410, 'width': 410, 'height': 410, 'widthPercent': 0.45, 'rescaleHeight': False, 'trialN': 71, 'loaded': True, 'loadedTime': 1842, 'positionName': 'LEFT', 'positionCoords': [511.6, 335], 'bid': 5.98}, {'imgObject': {}, 'id': 'salad w chicken', 'src': '/static/foodstim60/salad w chicken.jpg', 'key': 'i', 'origWidth': 411, 'origHeight': 411, 'width': 411, 'height': 411, 'widthPercent': 0.45, 'rescaleHeight': False, 'trialN': 71, 'loaded': True, 'loadedTime': 1822, 'positionName': 'RIGHT', 'positionCoords': [998.4, 334.5], 'bid': 6.05}]",119213,1669830045839,popsicles,salad w chicken,5.98,6.05,0.0699999999999994,salad w chicken,1007,1023,1023,True,i,120749,1536,1669830047375,1536,HRV,HRV_0110,2022-11-30 17:43:27
72,"[{'imgObject': {}, 'id': 'Grapes', 'src': '/static/foodstim60/Grapes.jpg', 'key': 'u', 'origWidth': 411, 'origHeight': 411, 'width': 411, 'height': 411, 'widthPercent': 0.45, 'rescaleHeight': False, 'trialN': 72, 'loaded': True, 'loadedTime': 1834, 'positionName': 'LEFT', 'positionCoords': [510.6, 334.5], 'bid': 7.6}, {'imgObject': {}, 'id': 'lox', 'src': '/static/foodstim60/lox.jpg', 'key': 'i', 'origWidth': 410, 'origHeight': 411, 'width': 410, 'height': 411, 'widthPercent': 0.45, 'rescaleHeight': False, 'trialN': 72, 'loaded': True, 'loadedTime': 1867, 'positionName': 'RIGHT', 'positionCoords': [998.4, 334.5], 'bid': 5.86}]",120749,1669830047375,Grapes,lox,7.6,5.86,-1.7399999999999993,Grapes,1643,1661,1660,True,u,122919,2170,1669830049545,2170,HRV,HRV_0110,2022-11-30 17:43:27
73,"[{'imgObject': {}, 'id': 'blackbeanswithrice', 'src': '/static/foodstim60/blackbeanswithrice.jpg', 'key': 'u', 'origWidth': 410, 'origHeight': 410, 'width': 410, 'height': 410, 'widthPercent': 0.45, 'rescaleHeight': False, 'trialN': 73, 'loaded': True, 'loadedTime': 1845, 'positionName': 'LEFT', 'positionCoords': [511.6, 335], 'bid': 2.35}, {'imgObject': {}, 'id': 'rigatoni', 'src': '/static/foodstim60/rigatoni.jpg', 'key': 'i', 'origWidth': 411, 'origHeight': 411, 'width': 411, 'height': 411, 'widthPercent': 0.45, 'rescaleHeight': False, 'trialN': 73, 'loaded': True, 'loadedTime': 1810, 'positionName': 'RIGHT', 'positionCoords': [998.4, 334.5], 'bid': 4.6000000000000005}]",122919,1669830049545,blackbeanswithrice,rigatoni,2.35,4.6000000000000005,2.2500000000000004,rigatoni,926,941,941,True,i,124371,1452,1669830050997,1452,HRV,HRV_0110,2022-11-30 17:43:27
74,"[{'imgObject': {}, 'id': 'cantaloupe', 'src': '/static/foodstim60/cantaloupe.jpg', 'key': 'u', 'origWidth': 409, 'origHeight': 409, 'width': 409, 'height': 409, 'widthPercent': 0.45, 'rescaleHeight': False, 'trialN': 74, 'loaded': True, 'loadedTime': 1867, 'positionName': 'LEFT', 'positionCoords': [512.6, 335.5], 'bid': 0.45}, {'imgObject': {}, 'id': 'banana', 'src': '/static/foodstim60/banana.jpg', 'key': 'i', 'origWidth': 410, 'origHeight': 410, 'width': 410, 'height': 410, 'widthPercent': 0.45, 'rescaleHeight': False, 'trialN': 74, 'loaded': True, 'loadedTime': 1816, 'positionName': 'RIGHT', 'positionCoords': [998.4, 335], 'bid': 5.11}]",124371,1669830050997,cantaloupe,banana,0.45,5.11,4.66,banana,912,930,929,True,i,125805,1434,1669830052431,1434,HRV,HRV_0110,2022-11-30 17:43:27
75,"[{'imgObject': {}, 'id': 'burrito', 'src': '/static/foodstim60/burrito.jpg', 'key': 'u', 'origWidth': 410, 'origHeight': 410, 'width': 410, 'height': 410, 'widthPercent': 0.45, 'rescaleHeight': False, 'trialN': 75, 'loaded': True, 'loadedTime': 1829, 'positionName': 'LEFT', 'positionCoords': [511.6, 335], 'bid': 4.87}, {'imgObject': {}, 'id': 'banana', 'src': '/static/foodstim60/banana.jpg', 'key': 'i', 'origWidth': 410, 'origHeight': 410, 'width': 410, 'height': 410, 'widthPercent': 0.45, 'rescaleHeight': False, 'trialN': 75, 'loaded': True, 'loadedTime': 1816, 'positionName': 'RIGHT', 'positionCoords': [998.4, 335], 'bid': 5.11}]",125805,1669830052431,burrito,banana,4.87,5.11,0.2400000000000002,banana,681,694,694,True,i,127006,1201,1669830053632,1201,HRV,HRV_0110,2022-11-30 17:43:27
76,"[{'imgObject': {}, 'id': 'granola w milk', 'src': '/static/foodstim60/granola w milk.jpg', 'key': 'u', 'origWidth': 410, 'origHeight': 410, 'width': 410, 'height': 410, 'widthPercent': 0.45, 'rescaleHeight': False, 'trialN': 76, 'loaded': True, 'loadedTime': 1862, 'positionName': 'LEFT', 'positionCoords': [511.6, 335], 'bid': 2.97}, {'imgObject': {}, 'id': 'cherry tomato', 'src': '/static/foodstim60/cherry tomato.jpg', 'key': 'i', 'origWidth': 410, 'origHeight': 410, 'width': 410, 'height': 410, 'widthPercent': 0.45, 'rescaleHeight': False, 'trialN': 76, 'loaded': True, 'loadedTime': 1843, 'positionName': 'RIGHT', 'positionCoords': [998.4, 335], 'bid': 0.88}]",127006,1669830053632,granola w milk,cherry tomato,2.97,0.88,-2.0900000000000003,granola w milk,1089,1102,1103,True,u,128609,1603,1669830055235,1603,HRV,HRV_0110,2022-11-30 17:43:27
77,"[{'imgObject': {}, 'id': 'cherry tomato', 'src': '/static/foodstim60/cherry tomato.jpg', 'key': 'u', 'origWidth': 410, 'origHeight': 410, 'width': 410, 'height': 410, 'widthPercent': 0.45, 'rescaleHeight': False, 'trialN': 77, 'loaded': True, 'loadedTime': 1843, 'positionName': 'LEFT', 'positionCoords': [511.6, 335], 'bid': 0.88}, {'imgObject': {}, 'id': 'veggieswithdip', 'src': '/static/foodstim60/veggieswithdip.jpg', 'key': 'i', 'origWidth': 409, 'origHeight': 409, 'width': 409, 'height': 409, 'widthPercent': 0.45, 'rescaleHeight': False, 'trialN': 77, 'loaded': True, 'loadedTime': 1842, 'positionName': 'RIGHT', 'positionCoords': [998.4, 335.5], 'bid': 3.58}]",128609,1669830055235,cherry tomato,veggieswithdip,0.88,3.58,2.7,veggieswithdip,939,948,948,True,i,130065,1456,1669830056691,1456,HRV,HRV_0110,2022-11-30 17:43:27
78,"[{'imgObject': {}, 'id': 'turkey sandwich', 'src': '/static/foodstim60/turkey sandwich.jpg', 'key': 'u', 'origWidth': 409, 'origHeight': 409, 'width': 409, 'height': 409, 'widthPercent': 0.45, 'rescaleHeight': False, 'trialN': 78, 'loaded': True, 'loadedTime': 1877, 'positionName': 'LEFT', 'positionCoords': [512.6, 335.5], 'bid': 7.12}, {'imgObject': {}, 'id': 'strawberries', 'src': '/static/foodstim60/strawberries.jpg', 'key': 'i', 'origWidth': 410, 'origHeight': 410, 'width': 410, 'height': 410, 'widthPercent': 0.45, 'rescaleHeight': False, 'trialN': 78, 'loaded': True, 'loadedTime': 1846, 'positionName': 'RIGHT', 'positionCoords': [998.4, 335], 'bid': 5.16}]",130065,1669830056691,turkey sandwich,strawberries,7.12,5.16,-1.96,turkey sandwich,1265,1274,1275,True,u,131853,1788,1669830058479,1788,HRV,HRV_0110,2022-11-30 17:43:27
79,"[{'imgObject': {}, 'id': 'Tribe humus pita', 'src': '/static/foodstim60/Tribe humus pita.jpg', 'key': 'u', 'origWidth': 411, 'origHeight': 411, 'width': 411, 'height': 411, 'widthPercent': 0.45, 'rescaleHeight': False, 'trialN': 79, 'loaded': True, 'loadedTime': 1816, 'positionName': 'LEFT', 'positionCoords': [510.6, 334.5], 'bid': 4.89}, {'imgObject': {}, 'id': 'mango', 'src': '/static/foodstim60/mango.jpg', 'key': 'i', 'origWidth': 411, 'origHeight': 411, 'width': 411, 'height': 411, 'widthPercent': 0.45, 'rescaleHeight': False, 'trialN': 79, 'loaded': True, 'loadedTime': 1845, 'positionName': 'RIGHT', 'positionCoords': [998.4, 334.5], 'bid': 4.75}]",131853,1669830058479,Tribe humus pita,mango,4.89,4.75,-0.13999999999999968,Tribe humus pita,1461,1479,1479,True,u,133848,1995,1669830060474,1995,HRV,HRV_0110,2022-11-30 17:43:27
80,"[{'imgObject': {}, 'id': 'Tribe humus pita', 'src': '/static/foodstim60/Tribe humus pita.jpg', 'key': 'u', 'origWidth': 411, 'origHeight': 411, 'width': 411, 'height': 411, 'widthPercent': 0.45, 'rescaleHeight': False, 'trialN': 80, 'loaded': True, 'loadedTime': 1817, 'positionName': 'LEFT', 'positionCoords': [510.6, 334.5], 'bid': 4.89}, {'imgObject': {}, 'id': 'tacos', 'src': '/static/foodstim60/tacos.jpg', 'key': 'i', 'origWidth': 411, 'origHeight': 411, 'width': 411, 'height': 411, 'widthPercent': 0.45, 'rescaleHeight': False, 'trialN': 80, 'loaded': True, 'loadedTime': 1833, 'positionName': 'RIGHT', 'positionCoords': [998.4, 334.5], 'bid': 4.57}]",133848,1669830060474,Tribe humus pita,tacos,4.89,4.57,-0.3199999999999994,Tribe humus pita,778,797,797,True,u,135153,1305,1669830061778,1304,HRV,HRV_0110,2022-11-30 17:43:27
81,"[{'imgObject': {}, 'id': 'popsicles', 'src': '/static/foodstim60/popsicles.jpg', 'key': 'u', 'origWidth': 410, 'origHeight': 410, 'width': 410, 'height': 410, 'widthPercent': 0.45, 'rescaleHeight': False, 'trialN': 81, 'loaded': True, 'loadedTime': 1842, 'positionName': 'LEFT', 'positionCoords': [511.6, 335], 'bid': 5.98}, {'imgObject': {}, 'id': 'luckycharms', 'src': '/static/foodstim60/luckycharms.jpg', 'key': 'i', 'origWidth': 410, 'origHeight': 409, 'width': 410, 'height': 409, 'widthPercent': 0.45, 'rescaleHeight': False, 'trialN': 81, 'loaded': True, 'loadedTime': 1826, 'positionName': 'RIGHT', 'positionCoords': [998.4, 335.5], 'bid': 3.12}]",135153,1669830061778,popsicles,luckycharms,5.98,3.12,-2.8600000000000003,popsicles,911,924,923,True,u,136584,1431,1669830063210,1432,HRV,HRV_0110,2022-11-30 17:43:27
82,"[{'imgObject': {}, 'id': 'olives', 'src': '/static/foodstim60/olives.jpg', 'key': 'u', 'origWidth': 410, 'origHeight': 410, 'width': 410, 'height': 410, 'widthPercent': 0.45, 'rescaleHeight': False, 'trialN': 82, 'loaded': True, 'loadedTime': 1843, 'positionName': 'LEFT', 'positionCoords': [511.6, 335], 'bid': 0.11}, {'imgObject': {}, 'id': 'cantaloupe', 'src': '/static/foodstim60/cantaloupe.jpg', 'key': 'i', 'origWidth': 409, 'origHeight': 409, 'width': 409, 'height': 409, 'widthPercent': 0.45, 'rescaleHeight': False, 'trialN': 82, 'loaded': True, 'loadedTime': 1876, 'positionName': 'RIGHT', 'positionCoords': [998.4, 335.5], 'bid': 0.45}]",136584,1669830063210,olives,cantaloupe,0.11,0.45,0.34,olives,1371,1378,1379,True,u,138467,1883,1669830065092,1882,HRV,HRV_0110,2022-11-30 17:43:27
83,"[{'imgObject': {}, 'id': 'cantaloupe', 'src': '/static/foodstim60/cantaloupe.jpg', 'key': 'u', 'origWidth': 409, 'origHeight': 409, 'width': 409, 'height': 409, 'widthPercent': 0.45, 'rescaleHeight': False, 'trialN': 83, 'loaded': True, 'loadedTime': 1876, 'positionName': 'LEFT', 'positionCoords': [512.6, 335.5], 'bid': 0.45}, {'imgObject': {}, 'id': 'mashed potato', 'src': '/static/foodstim60/mashed potato.jpg', 'key': 'i', 'origWidth': 409, 'origHeight': 409, 'width': 409, 'height': 409, 'widthPercent': 0.45, 'rescaleHeight': False, 'trialN': 83, 'loaded': True, 'loadedTime': 1819, 'positionName': 'RIGHT', 'positionCoords': [998.4, 335.5], 'bid': 1.92}]",138467,1669830065092,cantaloupe,mashed potato,0.45,1.92,1.47,mashed potato,1378,1385,1385,True,i,140362,1895,1669830066989,1897,HRV,HRV_0110,2022-11-30 17:43:27
84,"[{'imgObject': {}, 'id': 'sushi w_condiments', 'src': '/static/foodstim60/sushi w_condiments.jpg', 'key': 'u', 'origWidth': 410, 'origHeight': 410, 'width': 410, 'height': 410, 'widthPercent': 0.45, 'rescaleHeight': False, 'trialN': 84, 'loaded': True, 'loadedTime': 1832, 'positionName': 'LEFT', 'positionCoords': [511.6, 335], 'bid': 5.62}, {'imgObject': {}, 'id': 'apple slices', 'src': '/static/foodstim60/apple slices.jpg', 'key': 'i', 'origWidth': 409, 'origHeight': 410, 'width': 409, 'height': 410, 'widthPercent': 0.45, 'rescaleHeight': False, 'trialN': 84, 'loaded': True, 'loadedTime': 1864, 'positionName': 'RIGHT', 'positionCoords': [998.4, 335], 'bid': 5.72}]",140362,1669830066989,sushi w_condiments,apple slices,5.62,5.72,0.09999999999999964,sushi w_condiments,905,921,922,True,u,141785,1423,1669830068411,1422,HRV,HRV_0110,2022-11-30 17:43:27
85,"[{'imgObject': {}, 'id': 'burrito', 'src': '/static/foodstim60/burrito.jpg', 'key': 'u', 'origWidth': 410, 'origHeight': 410, 'width': 410, 'height': 410, 'widthPercent': 0.45, 'rescaleHeight': False, 'trialN': 85, 'loaded': True, 'loadedTime': 1829, 'positionName': 'LEFT', 'positionCoords': [511.6, 335], 'bid': 4.87}, {'imgObject': {}, 'id': 'corn cob', 'src': '/static/foodstim60/corn cob.jpg', 'key': 'i', 'origWidth': 411, 'origHeight': 411, 'width': 411, 'height': 411, 'widthPercent': 0.45, 'rescaleHeight': False, 'trialN': 85, 'loaded': True, 'loadedTime': 1844, 'positionName': 'RIGHT', 'positionCoords': [998.4, 334.5], 'bid': 5.45}]",141786,1669830068411,burrito,corn cob,4.87,5.45,0.5800000000000001,burrito,762,771,770,True,u,143061,1275,1669830069687,1276,HRV,HRV_0110,2022-11-30 17:43:27
86,"[{'imgObject': {}, 'id': 'grilled chicken strips', 'src': '/static/foodstim60/grilled chicken strips.jpg', 'key': 'u', 'origWidth': 410, 'origHeight': 411, 'width': 410, 'height': 411, 'widthPercent': 0.45, 'rescaleHeight': False, 'trialN': 86, 'loaded': True, 'loadedTime': 1821, 'positionName': 'LEFT', 'positionCoords': [511.6, 334.5], 'bid': 4.29}, {'imgObject': {}, 'id': 'hashbrowns', 'src': '/static/foodstim60/hashbrowns.jpg', 'key': 'i', 'origWidth': 411, 'origHeight': 410, 'width': 411, 'height': 410, 'widthPercent': 0.45, 'rescaleHeight': False, 'trialN': 86, 'loaded': True, 'loadedTime': 1825, 'positionName': 'RIGHT', 'positionCoords': [998.4, 335], 'bid': 4.12}]",143062,1669830069687,grilled chicken strips,hashbrowns,4.29,4.12,-0.16999999999999993,grilled chicken strips,924,940,940,True,u,144513,1451,1669830071139,1452,HRV,HRV_0110,2022-11-30 17:43:27
87,"[{'imgObject': {}, 'id': 'fruitsalad', 'src': '/static/foodstim60/fruitsalad.jpg', 'key': 'u', 'origWidth': 410, 'origHeight': 410, 'width': 410, 'height': 410, 'widthPercent': 0.45, 'rescaleHeight': False, 'trialN': 87, 'loaded': True, 'loadedTime': 1837, 'positionName': 'LEFT', 'positionCoords': [511.6, 335], 'bid': 3.86}, {'imgObject': {}, 'id': 'hotdog w must', 'src': '/static/foodstim60/hotdog w must.jpg', 'key': 'i', 'origWidth': 409, 'origHeight': 409, 'width': 409, 'height': 409, 'widthPercent': 0.45, 'rescaleHeight': False, 'trialN': 87, 'loaded': True, 'loadedTime': 1824, 'positionName': 'RIGHT', 'positionCoords': [998.4, 335.5], 'bid': 4.03}]",144513,1669830071140,fruitsalad,hotdog w must,3.86,4.03,0.17000000000000037,hotdog w must,988,995,995,True,i,146011,1498,1669830072637,1497,HRV,HRV_0110,2022-11-30 17:43:27
88,"[{'imgObject': {}, 'id': 'froot loops w milk', 'src': '/static/foodstim60/froot loops w milk.jpg', 'key': 'u', 'origWidth': 410, 'origHeight': 410, 'width': 410, 'height': 410, 'widthPercent': 0.45, 'rescaleHeight': False, 'trialN': 88, 'loaded': True, 'loadedTime': 1832, 'positionName': 'LEFT', 'positionCoords': [511.6, 335], 'bid': 8.09}, {'imgObject': {}, 'id': 'sushi w_condiments', 'src': '/static/foodstim60/sushi w_condiments.jpg', 'key': 'i', 'origWidth': 410, 'origHeight': 410, 'width': 410, 'height': 410, 'widthPercent': 0.45, 'rescaleHeight': False, 'trialN': 88, 'loaded': True, 'loadedTime': 1832, 'positionName': 'RIGHT', 'positionCoords': [998.4, 335], 'bid': 5.62}]",146011,1669830072637,froot loops w milk,sushi w_condiments,8.09,5.62,-2.4699999999999998,froot loops w milk,631,649,649,True,u,147161,1150,1669830073787,1150,HRV,HRV_0110,2022-11-30 17:43:27
89,"[{'imgObject': {}, 'id': 'corn cob', 'src': '/static/foodstim60/corn cob.jpg', 'key': 'u', 'origWidth': 411, 'origHeight': 411, 'width': 411, 'height': 411, 'widthPercent': 0.45, 'rescaleHeight': False, 'trialN': 89, 'loaded': True, 'loadedTime': 1844, 'positionName': 'LEFT', 'positionCoords': [510.6, 334.5], 'bid': 5.45}, {'imgObject': {}, 'id': 'rigatoni', 'src': '/static/foodstim60/rigatoni.jpg', 'key': 'i', 'origWidth': 411, 'origHeight': 411, 'width': 411, 'height': 411, 'widthPercent': 0.45, 'rescaleHeight': False, 'trialN': 89, 'loaded': True, 'loadedTime': 1810, 'positionName': 'RIGHT', 'positionCoords': [998.4, 334.5], 'bid': 4.6000000000000005}]",147162,1669830073788,corn cob,rigatoni,5.45,4.6000000000000005,-0.8499999999999996,rigatoni,839,851,851,True,i,148519,1357,1669830075145,1357,HRV,HRV_0110,2022-11-30 17:43:27
90,"[{'imgObject': {}, 'id': 'mac & cheese', 'src': '/static/foodstim60/mac & cheese.jpg', 'key': 'u', 'origWidth': 410, 'origHeight': 410, 'width': 410, 'height': 410, 'widthPercent': 0.45, 'rescaleHeight': False, 'trialN': 90, 'loaded': True, 'loadedTime': 1847, 'positionName': 'LEFT', 'positionCoords': [511.6, 335], 'bid': 9.38}, {'imgObject': {}, 'id': 'raspberries', 'src': '/static/foodstim60/raspberries.jpg', 'key': 'i', 'origWidth': 411, 'origHeight': 411, 'width': 411, 'height': 411, 'widthPercent': 0.45, 'rescaleHeight': False, 'trialN': 90, 'loaded': True, 'loadedTime': 1811, 'positionName': 'RIGHT', 'positionCoords': [998.4, 334.5], 'bid': 4.66}]",151793,1669830078419,mac & cheese,raspberries,9.38,4.66,-4.720000000000001,mac & cheese,2474,2483,2482,True,u,154785,2992,1669830081411,2992,HRV,HRV_0110,2022-11-30 17:43:27
91,"[{'imgObject': {}, 'id': 'ice cream sundae 002', 'src': '/static/foodstim60/ice cream sundae 002.jpg', 'key': 'u', 'origWidth': 409, 'origHeight': 409, 'width': 409, 'height': 409, 'widthPercent': 0.45, 'rescaleHeight': False, 'trialN': 91, 'loaded': True, 'loadedTime': 1823, 'positionName': 'LEFT', 'positionCoords': [512.6, 335.5], 'bid': 5.54}, {'imgObject': {}, 'id': 'mashed potato', 'src': '/static/foodstim60/mashed potato.jpg', 'key': 'i', 'origWidth': 409, 'origHeight': 409, 'width': 409, 'height': 409, 'widthPercent': 0.45, 'rescaleHeight': False, 'trialN': 91, 'loaded': True, 'loadedTime': 1819, 'positionName': 'RIGHT', 'positionCoords': [998.4, 335.5], 'bid': 1.92}]",154785,1669830081411,ice cream sundae 002,mashed potato,5.54,1.92,-3.62,ice cream sundae 002,1591,1595,1596,True,u,156886,2101,1669830083512,2101,HRV,HRV_0110,2022-11-30 17:43:27
92,"[{'imgObject': {}, 'id': 'rigatoni and sauce', 'src': '/static/foodstim60/rigatoni and sauce.jpg', 'key': 'u', 'origWidth': 410, 'origHeight': 411, 'width': 410, 'height': 411, 'widthPercent': 0.45, 'rescaleHeight': False, 'trialN': 92, 'loaded': True, 'loadedTime': 1840, 'positionName': 'LEFT', 'positionCoords': [511.6, 334.5], 'bid': 6.17}, {'imgObject': {}, 'id': 'apple slices', 'src': '/static/foodstim60/apple slices.jpg', 'key': 'i', 'origWidth': 409, 'origHeight': 410, 'width': 409, 'height': 410, 'widthPercent': 0.45, 'rescaleHeight': False, 'trialN': 92, 'loaded': True, 'loadedTime': 1864, 'positionName': 'RIGHT', 'positionCoords': [998.4, 335], 'bid': 5.72}]",156886,1669830083513,rigatoni and sauce,apple slices,6.17,5.72,-0.4500000000000002,rigatoni and sauce,912,917,919,True,u,158319,1433,1669830084946,1433,HRV,HRV_0110,2022-11-30 17:43:27
93,"[{'imgObject': {}, 'id': 'blackbeanswithrice', 'src': '/static/foodstim60/blackbeanswithrice.jpg', 'key': 'u', 'origWidth': 410, 'origHeight': 410, 'width': 410, 'height': 410, 'widthPercent': 0.45, 'rescaleHeight': False, 'trialN': 93, 'loaded': True, 'loadedTime': 1845, 'positionName': 'LEFT', 'positionCoords': [511.6, 335], 'bid': 2.35}, {'imgObject': {}, 'id': 'olives', 'src': '/static/foodstim60/olives.jpg', 'key': 'i', 'origWidth': 410, 'origHeight': 410, 'width': 410, 'height': 410, 'widthPercent': 0.45, 'rescaleHeight': False, 'trialN': 93, 'loaded': True, 'loadedTime': 1843, 'positionName': 'RIGHT', 'positionCoords': [998.4, 335], 'bid': 0.11}]",158320,1669830084946,blackbeanswithrice,olives,2.35,0.11,-2.24,blackbeanswithrice,931,945,945,True,u,159767,1447,1669830086393,1447,HRV,HRV_0110,2022-11-30 17:43:27
94,"[{'imgObject': {}, 'id': 'avocado', 'src': '/static/foodstim60/avocado.jpg', 'key': 'u', 'origWidth': 409, 'origHeight': 409, 'width': 409, 'height': 409, 'widthPercent': 0.45, 'rescaleHeight': False, 'trialN': 94, 'loaded': True, 'loadedTime': 1808, 'positionName': 'LEFT', 'positionCoords': [512.6, 335.5], 'bid': 0.59}, {'imgObject': {}, 'id': 'cantaloupe', 'src': '/static/foodstim60/cantaloupe.jpg', 'key': 'i', 'origWidth': 409, 'origHeight': 409, 'width': 409, 'height': 409, 'widthPercent': 0.45, 'rescaleHeight': False, 'trialN': 94, 'loaded': True, 'loadedTime': 1876, 'positionName': 'RIGHT', 'positionCoords': [998.4, 335.5], 'bid': 0.45}]",159767,1669830086393,avocado,cantaloupe,0.59,0.45,-0.13999999999999996,cantaloupe,984,1014,1014,True,i,161283,1516,1669830087908,1515,HRV,HRV_0110,2022-11-30 17:43:27
95,"[{'imgObject': {}, 'id': 'chicken nuggets2', 'src': '/static/foodstim60/chicken nuggets2.jpg', 'key': 'u', 'origWidth': 410, 'origHeight': 409, 'width': 410, 'height': 409, 'widthPercent': 0.45, 'rescaleHeight': False, 'trialN': 95, 'loaded': True, 'loadedTime': 1838, 'positionName': 'LEFT', 'positionCoords': [511.6, 335.5], 'bid': 8.2}, {'imgObject': {}, 'id': 'yogurt no spoon', 'src': '/static/foodstim60/yogurt no spoon.jpg', 'key': 'i', 'origWidth': 411, 'origHeight': 410, 'width': 411, 'height': 410, 'widthPercent': 0.45, 'rescaleHeight': False, 'trialN': 95, 'loaded': True, 'loadedTime': 1837, 'positionName': 'RIGHT', 'positionCoords': [998.4, 335], 'bid': 8.68}]",161283,1669830087908,chicken nuggets2,yogurt no spoon,8.2,8.68,0.4800000000000004,chicken nuggets2,672,691,690,True,u,162483,1200,1669830089109,1201,HRV,HRV_0110,2022-11-30 17:43:27
96,"[{'imgObject': {}, 'id': 'ice cream sundae 002', 'src': '/static/foodstim60/ice cream sundae 002.jpg', 'key': 'u', 'origWidth': 409, 'origHeight': 409, 'width': 409, 'height': 409, 'widthPercent': 0.45, 'rescaleHeight': False, 'trialN': 96, 'loaded': True, 'loadedTime': 1823, 'positionName': 'LEFT', 'positionCoords': [512.6, 335.5], 'bid': 5.54}, {'imgObject': {}, 'id': 'roastedpotatoes', 'src': '/static/foodstim60/roastedpotatoes.jpg', 'key': 'i', 'origWidth': 409, 'origHeight': 410, 'width': 409, 'height': 410, 'widthPercent': 0.45, 'rescaleHeight': False, 'trialN': 96, 'loaded': True, 'loadedTime': 1827, 'positionName': 'RIGHT', 'positionCoords': [998.4, 335], 'bid': 7.88}]",162483,1669830089109,ice cream sundae 002,roastedpotatoes,5.54,7.88,2.34,roastedpotatoes,940,942,943,True,i,163936,1453,1669830090562,1453,HRV,HRV_0110,2022-11-30 17:43:27
97,"[{'imgObject': {}, 'id': 'cherry tomato', 'src': '/static/foodstim60/cherry tomato.jpg', 'key': 'u', 'origWidth': 410, 'origHeight': 410, 'width': 410, 'height': 410, 'widthPercent': 0.45, 'rescaleHeight': False, 'trialN': 97, 'loaded': True, 'loadedTime': 1843, 'positionName': 'LEFT', 'positionCoords': [511.6, 335], 'bid': 0.88}, {'imgObject': {}, 'id': 'burger', 'src': '/static/foodstim60/burger.jpg', 'key': 'i', 'origWidth': 409, 'origHeight': 409, 'width': 409, 'height': 409, 'widthPercent': 0.45, 'rescaleHeight': False, 'trialN': 97, 'loaded': True, 'loadedTime': 1817, 'positionName': 'RIGHT', 'positionCoords': [998.4, 335.5], 'bid': 4.08}]",163936,1669830090562,cherry tomato,burger,0.88,4.08,3.2,burger,784,794,795,True,i,165238,1302,1669830091864,1302,HRV,HRV_0110,2022-11-30 17:43:27
98,"[{'imgObject': {}, 'id': 'cantaloupe', 'src': '/static/foodstim60/cantaloupe.jpg', 'key': 'u', 'origWidth': 409, 'origHeight': 409, 'width': 409, 'height': 409, 'widthPercent': 0.45, 'rescaleHeight': False, 'trialN': 98, 'loaded': True, 'loadedTime': 1876, 'positionName': 'LEFT', 'positionCoords': [512.6, 335.5], 'bid': 0.45}, {'imgObject': {}, 'id': 'omelette', 'src': '/static/foodstim60/omelette.jpg', 'key': 'i', 'origWidth': 410, 'origHeight': 409, 'width': 410, 'height': 409, 'widthPercent': 0.45, 'rescaleHeight': False, 'trialN': 98, 'loaded': True, 'loadedTime': 1812, 'positionName': 'RIGHT', 'positionCoords': [998.4, 335.5], 'bid': 3.73}]",165238,1669830091864,cantaloupe,omelette,0.45,3.73,3.28,omelette,982,996,996,True,i,166748,1510,1669830093373,1509,HRV,HRV_0110,2022-11-30 17:43:27
99,"[{'imgObject': {}, 'id': 'salad w chicken', 'src': '/static/foodstim60/salad w chicken.jpg', 'key': 'u', 'origWidth': 411, 'origHeight': 411, 'width': 411, 'height': 411, 'widthPercent': 0.45, 'rescaleHeight': False, 'trialN': 99, 'loaded': True, 'loadedTime': 1822, 'positionName': 'LEFT', 'positionCoords': [510.6, 334.5], 'bid': 6.05}, {'imgObject': {}, 'id': 'blueberries', 'src': '/static/foodstim60/blueberries.jpg', 'key': 'i', 'origWidth': 411, 'origHeight': 411, 'width': 411, 'height': 411, 'widthPercent': 0.45, 'rescaleHeight': False, 'trialN': 99, 'loaded': True, 'loadedTime': 1824, 'positionName': 'RIGHT', 'positionCoords': [998.4, 334.5], 'bid': 3.39}]",166748,1669830093374,salad w chicken,blueberries,6.05,3.39,-2.6599999999999997,salad w chicken,722,727,727,True,u,167991,1243,1669830094616,1242,HRV,HRV_0110,2022-11-30 17:43:27
100,"[{'imgObject': {}, 'id': 'raisin bran w milk', 'src': '/static/foodstim60/raisin bran w milk.jpg', 'key': 'u', 'origWidth': 411, 'origHeight': 411, 'width': 411, 'height': 411, 'widthPercent': 0.45, 'rescaleHeight': False, 'trialN': 100, 'loaded': True, 'loadedTime': 1866, 'positionName': 'LEFT', 'positionCoords': [510.6, 334.5], 'bid': 4.09}, {'imgObject': {}, 'id': 'grilled chicken strips', 'src': '/static/foodstim60/grilled chicken strips.jpg', 'key': 'i', 'origWidth': 410, 'origHeight': 411, 'width': 410, 'height': 411, 'widthPercent': 0.45, 'rescaleHeight': False, 'trialN': 100, 'loaded': True, 'loadedTime': 1821, 'positionName': 'RIGHT', 'positionCoords': [998.4, 334.5], 'bid': 4.29}]",167991,1669830094616,raisin bran w milk,grilled chicken strips,4.09,4.29,0.20000000000000018,grilled chicken strips,792,799,799,True,i,169300,1309,1669830095925,1309,HRV,HRV_0110,2022-11-30 17:43:27
101,"[{'imgObject': {}, 'id': 'rigatoni and sauce', 'src': '/static/foodstim60/rigatoni and sauce.jpg', 'key': 'u', 'origWidth': 410, 'origHeight': 411, 'width': 410, 'height': 411, 'widthPercent': 0.45, 'rescaleHeight': False, 'trialN': 101, 'loaded': True, 'loadedTime': 1840, 'positionName': 'LEFT', 'positionCoords': [511.6, 334.5], 'bid': 6.17}, {'imgObject': {}, 'id': 'Tribe humus pita', 'src': '/static/foodstim60/Tribe humus pita.jpg', 'key': 'i', 'origWidth': 411, 'origHeight': 411, 'width': 411, 'height': 411, 'widthPercent': 0.45, 'rescaleHeight': False, 'trialN': 101, 'loaded': True, 'loadedTime': 1817, 'positionName': 'RIGHT', 'positionCoords': [998.4, 334.5], 'bid': 4.89}]",169300,1669830095925,rigatoni and sauce,Tribe humus pita,6.17,4.89,-1.2800000000000002,rigatoni and sauce,623,630,629,True,u,170434,1134,1669830097060,1135,HRV,HRV_0110,2022-11-30 17:43:27
102,"[{'imgObject': {}, 'id': 'salmon', 'src': '/static/foodstim60/salmon.jpg', 'key': 'u', 'origWidth': 410, 'origHeight': 409, 'width': 410, 'height': 409, 'widthPercent': 0.45, 'rescaleHeight': False, 'trialN': 102, 'loaded': True, 'loadedTime': 1811, 'positionName': 'LEFT', 'positionCoords': [511.6, 335.5], 'bid': 3.84}, {'imgObject': {}, 'id': 'hotdog w must', 'src': '/static/foodstim60/hotdog w must.jpg', 'key': 'i', 'origWidth': 409, 'origHeight': 409, 'width': 409, 'height': 409, 'widthPercent': 0.45, 'rescaleHeight': False, 'trialN': 102, 'loaded': True, 'loadedTime': 1824, 'positionName': 'RIGHT', 'positionCoords': [998.4, 335.5], 'bid': 4.03}]",170434,1669830097060,salmon,hotdog w must,3.84,4.03,0.1900000000000004,salmon,880,897,897,True,u,171846,1412,1669830098471,1411,HRV,HRV_0110,2022-11-30 17:43:27
103,"[{'imgObject': {}, 'id': 'cherry tomato', 'src': '/static/foodstim60/cherry tomato.jpg', 'key': 'u', 'origWidth': 410, 'origHeight': 410, 'width': 410, 'height': 410, 'widthPercent': 0.45, 'rescaleHeight': False, 'trialN': 103, 'loaded': True, 'loadedTime': 1844, 'positionName': 'LEFT', 'positionCoords': [511.6, 335], 'bid': 0.88}, {'imgObject': {}, 'id': 'eggsalad', 'src': '/static/foodstim60/eggsalad.jpg', 'key': 'i', 'origWidth': 410, 'origHeight': 409, 'width': 410, 'height': 409, 'widthPercent': 0.45, 'rescaleHeight': False, 'trialN': 103, 'loaded': True, 'loadedTime': 1829, 'positionName': 'RIGHT', 'positionCoords': [998.4, 335.5], 'bid': 0.79}]",171846,1669830098471,cherry tomato,eggsalad,0.88,0.79,-0.08999999999999997,eggsalad,765,784,783,True,i,173139,1293,1669830099766,1295,HRV,HRV_0110,2022-11-30 17:43:27
104,"[{'imgObject': {}, 'id': 'sushi w_condiments', 'src': '/static/foodstim60/sushi w_condiments.jpg', 'key': 'u', 'origWidth': 410, 'origHeight': 410, 'width': 410, 'height': 410, 'widthPercent': 0.45, 'rescaleHeight': False, 'trialN': 104, 'loaded': True, 'loadedTime': 1832, 'positionName': 'LEFT', 'positionCoords': [511.6, 335], 'bid': 5.62}, {'imgObject': {}, 'id': 'shreddedwheatwithmilk', 'src': '/static/foodstim60/shreddedwheatwithmilk.jpg', 'key': 'i', 'origWidth': 410, 'origHeight': 410, 'width': 410, 'height': 410, 'widthPercent': 0.45, 'rescaleHeight': False, 'trialN': 104, 'loaded': True, 'loadedTime': 1821, 'positionName': 'RIGHT', 'positionCoords': [998.4, 335], 'bid': 2.11}]",173139,1669830099766,sushi w_condiments,shreddedwheatwithmilk,5.62,2.11,-3.5100000000000002,sushi w_condiments,862,872,872,True,u,174523,1384,1669830101149,1383,HRV,HRV_0110,2022-11-30 17:43:27
105,"[{'imgObject': {}, 'id': 'turkeysandwich', 'src': '/static/foodstim60/turkeysandwich.jpg', 'key': 'u', 'origWidth': 409, 'origHeight': 409, 'width': 409, 'height': 409, 'widthPercent': 0.45, 'rescaleHeight': False, 'trialN': 105, 'loaded': True, 'loadedTime': 1815, 'positionName': 'LEFT', 'positionCoords': [512.6, 335.5], 'bid': 5.47}, {'imgObject': {}, 'id': 'ice cream sundae 002', 'src': '/static/foodstim60/ice cream sundae 002.jpg', 'key': 'i', 'origWidth': 409, 'origHeight': 409, 'width': 409, 'height': 409, 'widthPercent': 0.45, 'rescaleHeight': False, 'trialN': 105, 'loaded': True, 'loadedTime': 1823, 'positionName': 'RIGHT', 'positionCoords': [998.4, 335.5], 'bid': 5.54}]",174523,1669830101149,turkeysandwich,ice cream sundae 002,5.47,5.54,0.07000000000000028,turkeysandwich,932,937,938,True,u,175969,1446,1669830102594,1445,HRV,HRV_0110,2022-11-30 17:43:27
106,"[{'imgObject': {}, 'id': 'mango', 'src': '/static/foodstim60/mango.jpg', 'key': 'u', 'origWidth': 411, 'origHeight': 411, 'width': 411, 'height': 411, 'widthPercent': 0.45, 'rescaleHeight': False, 'trialN': 106, 'loaded': True, 'loadedTime': 1845, 'positionName': 'LEFT', 'positionCoords': [510.6, 334.5], 'bid': 4.75}, {'imgObject': {}, 'id': 'chickenfingers', 'src': '/static/foodstim60/chickenfingers.jpg', 'key': 'i', 'origWidth': 410, 'origHeight': 410, 'width': 410, 'height': 410, 'widthPercent': 0.45, 'rescaleHeight': False, 'trialN': 106, 'loaded': True, 'loadedTime': 1836, 'positionName': 'RIGHT', 'positionCoords': [998.4, 335], 'bid': 9.67}]",175969,1669830102595,mango,chickenfingers,4.75,9.67,4.92,chickenfingers,986,996,996,True,i,177478,1509,1669830104103,1508,HRV,HRV_0110,2022-11-30 17:43:27
107,"[{'imgObject': {}, 'id': 'orange slices', 'src': '/static/foodstim60/orange slices.jpg', 'key': 'u', 'origWidth': 409, 'origHeight': 410, 'width': 409, 'height': 410, 'widthPercent': 0.45, 'rescaleHeight': False, 'trialN': 107, 'loaded': True, 'loadedTime': 1834, 'positionName': 'LEFT', 'positionCoords': [512.6, 335], 'bid': 9.13}, {'imgObject': {}, 'id': 'cocktailshrimp', 'src': '/static/foodstim60/cocktailshrimp.jpg', 'key': 'i', 'origWidth': 410, 'origHeight': 410, 'width': 410, 'height': 410, 'widthPercent': 0.45, 'rescaleHeight': False, 'trialN': 107, 'loaded': True, 'loadedTime': 1830, 'positionName': 'RIGHT', 'positionCoords': [998.4, 335], 'bid': 5.97}]",177478,1669830104103,orange slices,cocktailshrimp,9.13,5.97,-3.160000000000001,orange slices,741,751,751,True,u,178741,1263,1669830105367,1264,HRV,HRV_0110,2022-11-30 17:43:27
108,"[{'imgObject': {}, 'id': 'seaweed', 'src': '/static/foodstim60/seaweed.jpg', 'key': 'u', 'origWidth': 410, 'origHeight': 410, 'width': 410, 'height': 410, 'widthPercent': 0.45, 'rescaleHeight': False, 'trialN': 108, 'loaded': True, 'loadedTime': 1809, 'positionName': 'LEFT', 'positionCoords': [511.6, 335], 'bid': 0.46}, {'imgObject': {}, 'id': 'salmon', 'src': '/static/foodstim60/salmon.jpg', 'key': 'i', 'origWidth': 410, 'origHeight': 409, 'width': 410, 'height': 409, 'widthPercent': 0.45, 'rescaleHeight': False, 'trialN': 108, 'loaded': True, 'loadedTime': 1811, 'positionName': 'RIGHT', 'positionCoords': [998.4, 335.5], 'bid': 3.84}]",178742,1669830105367,seaweed,salmon,0.46,3.84,3.38,salmon,1150,1166,1166,True,i,180414,1672,1669830107039,1672,HRV,HRV_0110,2022-11-30 17:43:27
109,"[{'imgObject': {}, 'id': 'raisin bran w milk', 'src': '/static/foodstim60/raisin bran w milk.jpg', 'key': 'u', 'origWidth': 411, 'origHeight': 411, 'width': 411, 'height': 411, 'widthPercent': 0.45, 'rescaleHeight': False, 'trialN': 109, 'loaded': True, 'loadedTime': 1866, 'positionName': 'LEFT', 'positionCoords': [510.6, 334.5], 'bid': 4.09}, {'imgObject': {}, 'id': 'banana', 'src': '/static/foodstim60/banana.jpg', 'key': 'i', 'origWidth': 410, 'origHeight': 410, 'width': 410, 'height': 410, 'widthPercent': 0.45, 'rescaleHeight': False, 'trialN': 109, 'loaded': True, 'loadedTime': 1816, 'positionName': 'RIGHT', 'positionCoords': [998.4, 335], 'bid': 5.11}]",180414,1669830107040,raisin bran w milk,banana,4.09,5.11,1.0200000000000005,banana,775,791,791,True,i,181708,1294,1669830108335,1295,HRV,HRV_0110,2022-11-30 17:43:27
110,"[{'imgObject': {}, 'id': 'chickenfingers', 'src': '/static/foodstim60/chickenfingers.jpg', 'key': 'u', 'origWidth': 410, 'origHeight': 410, 'width': 410, 'height': 410, 'widthPercent': 0.45, 'rescaleHeight': False, 'trialN': 110, 'loaded': True, 'loadedTime': 1836, 'positionName': 'LEFT', 'positionCoords': [511.6, 335], 'bid': 9.67}, {'imgObject': {}, 'id': 'roastedpotatoes', 'src': '/static/foodstim60/roastedpotatoes.jpg', 'key': 'i', 'origWidth': 409, 'origHeight': 410, 'width': 409, 'height': 410, 'widthPercent': 0.45, 'rescaleHeight': False, 'trialN': 110, 'loaded': True, 'loadedTime': 1827, 'positionName': 'RIGHT', 'positionCoords': [998.4, 335], 'bid': 7.88}]",181708,1669830108335,chickenfingers,roastedpotatoes,9.67,7.88,-1.79,chickenfingers,668,680,681,True,u,182894,1186,1669830109520,1185,HRV,HRV_0110,2022-11-30 17:43:27
111,"[{'imgObject': {}, 'id': 'burrito', 'src': '/static/foodstim60/burrito.jpg', 'key': 'u', 'origWidth': 410, 'origHeight': 410, 'width': 410, 'height': 410, 'widthPercent': 0.45, 'rescaleHeight': False, 'trialN': 111, 'loaded': True, 'loadedTime': 1829, 'positionName': 'LEFT', 'positionCoords': [511.6, 335], 'bid': 4.87}, {'imgObject': {}, 'id': 'mango', 'src': '/static/foodstim60/mango.jpg', 'key': 'i', 'origWidth': 411, 'origHeight': 411, 'width': 411, 'height': 411, 'widthPercent': 0.45, 'rescaleHeight': False, 'trialN': 111, 'loaded': True, 'loadedTime': 1845, 'positionName': 'RIGHT', 'positionCoords': [998.4, 334.5], 'bid': 4.75}]",182894,1669830109520,burrito,mango,4.87,4.75,-0.1200000000000001,burrito,764,782,782,True,u,184183,1289,1669830110810,1290,HRV,HRV_0110,2022-11-30 17:43:27
112,"[{'imgObject': {}, 'id': 'sweetpotato', 'src': '/static/foodstim60/sweetpotato.jpg', 'key': 'u', 'origWidth': 410, 'origHeight': 410, 'width': 410, 'height': 410, 'widthPercent': 0.45, 'rescaleHeight': False, 'trialN': 112, 'loaded': True, 'loadedTime': 1839, 'positionName': 'LEFT', 'positionCoords': [511.6, 335], 'bid': 6.09}, {'imgObject': {}, 'id': 'edamame', 'src': '/static/foodstim60/edamame.jpg', 'key': 'i', 'origWidth': 409, 'origHeight': 410, 'width': 409, 'height': 410, 'widthPercent': 0.45, 'rescaleHeight': False, 'trialN': 112, 'loaded': True, 'loadedTime': 1827, 'positionName': 'RIGHT', 'positionCoords': [998.4, 335], 'bid': 3.47}]",184184,1669830110810,sweetpotato,edamame,6.09,3.47,-2.6199999999999997,sweetpotato,707,721,720,True,u,185414,1230,1669830112040,1230,HRV,HRV_0110,2022-11-30 17:43:27
113,"[{'imgObject': {}, 'id': 'rigatoni and sauce', 'src': '/static/foodstim60/rigatoni and sauce.jpg', 'key': 'u', 'origWidth': 410, 'origHeight': 411, 'width': 410, 'height': 411, 'widthPercent': 0.45, 'rescaleHeight': False, 'trialN': 113, 'loaded': True, 'loadedTime': 1840, 'positionName': 'LEFT', 'positionCoords': [511.6, 334.5], 'bid': 6.17}, {'imgObject': {}, 'id': 'veggieswithdip', 'src': '/static/foodstim60/veggieswithdip.jpg', 'key': 'i', 'origWidth': 409, 'origHeight': 409, 'width': 409, 'height': 409, 'widthPercent': 0.45, 'rescaleHeight': False, 'trialN': 113, 'loaded': True, 'loadedTime': 1842, 'positionName': 'RIGHT', 'positionCoords': [998.4, 335.5], 'bid': 3.58}]",185414,1669830112040,rigatoni and sauce,veggieswithdip,6.17,3.58,-2.59,rigatoni and sauce,541,550,551,True,u,186472,1058,1669830113098,1058,HRV,HRV_0110,2022-11-30 17:43:27
114,"[{'imgObject': {}, 'id': 'veggieswithdip', 'src': '/static/foodstim60/veggieswithdip.jpg', 'key': 'u', 'origWidth': 409, 'origHeight': 409, 'width': 409, 'height': 409, 'widthPercent': 0.45, 'rescaleHeight': False, 'trialN': 114, 'loaded': True, 'loadedTime': 1842, 'positionName': 'LEFT', 'positionCoords': [512.6, 335.5], 'bid': 3.58}, {'imgObject': {}, 'id': 'blueberries', 'src': '/static/foodstim60/blueberries.jpg', 'key': 'i', 'origWidth': 411, 'origHeight': 411, 'width': 411, 'height': 411, 'widthPercent': 0.45, 'rescaleHeight': False, 'trialN': 114, 'loaded': True, 'loadedTime': 1824, 'positionName': 'RIGHT', 'positionCoords': [998.4, 334.5], 'bid': 3.39}]",186473,1669830113098,veggieswithdip,blueberries,3.58,3.39,-0.18999999999999995,veggieswithdip,997,1013,1012,True,u,187985,1512,1669830114611,1513,HRV,HRV_0110,2022-11-30 17:43:27
115,"[{'imgObject': {}, 'id': 'corn cob', 'src': '/static/foodstim60/corn cob.jpg', 'key': 'u', 'origWidth': 411, 'origHeight': 411, 'width': 411, 'height': 411, 'widthPercent': 0.45, 'rescaleHeight': False, 'trialN': 115, 'loaded': True, 'loadedTime': 1844, 'positionName': 'LEFT', 'positionCoords': [510.6, 334.5], 'bid': 5.45}, {'imgObject': {}, 'id': 'Grapes', 'src': '/static/foodstim60/Grapes.jpg', 'key': 'i', 'origWidth': 411, 'origHeight': 411, 'width': 411, 'height': 411, 'widthPercent': 0.45, 'rescaleHeight': False, 'trialN': 115, 'loaded': True, 'loadedTime': 1834, 'positionName': 'RIGHT', 'positionCoords': [998.4, 334.5], 'bid': 7.6}]",187985,1669830114611,corn cob,Grapes,5.45,7.6,2.1499999999999995,corn cob,891,900,900,True,u,189388,1403,1669830116014,1403,HRV,HRV_0110,2022-11-30 17:43:27
116,"[{'imgObject': {}, 'id': 'bagel plain', 'src': '/static/foodstim60/bagel plain.jpg', 'key': 'u', 'origWidth': 410, 'origHeight': 410, 'width': 410, 'height': 410, 'widthPercent': 0.45, 'rescaleHeight': False, 'trialN': 116, 'loaded': True, 'loadedTime': 1814, 'positionName': 'LEFT', 'positionCoords': [511.6, 335], 'bid': 5.13}, {'imgObject': {}, 'id': 'strawberries', 'src': '/static/foodstim60/strawberries.jpg', 'key': 'i', 'origWidth': 410, 'origHeight': 410, 'width': 410, 'height': 410, 'widthPercent': 0.45, 'rescaleHeight': False, 'trialN': 116, 'loaded': True, 'loadedTime': 1846, 'positionName': 'RIGHT', 'positionCoords': [998.4, 335], 'bid': 5.16}]",189388,1669830116014,bagel plain,strawberries,5.13,5.16,0.03000000000000025,bagel plain,660,672,672,True,u,190568,1180,1669830117194,1180,HRV,HRV_0110,2022-11-30 17:43:27
117,"[{'imgObject': {}, 'id': 'seaweed', 'src': '/static/foodstim60/seaweed.jpg', 'key': 'u', 'origWidth': 410, 'origHeight': 410, 'width': 410, 'height': 410, 'widthPercent': 0.45, 'rescaleHeight': False, 'trialN': 117, 'loaded': True, 'loadedTime': 1809, 'positionName': 'LEFT', 'positionCoords': [511.6, 335], 'bid': 0.46}, {'imgObject': {}, 'id': 'olives', 'src': '/static/foodstim60/olives.jpg', 'key': 'i', 'origWidth': 410, 'origHeight': 410, 'width': 410, 'height': 410, 'widthPercent': 0.45, 'rescaleHeight': False, 'trialN': 117, 'loaded': True, 'loadedTime': 1843, 'positionName': 'RIGHT', 'positionCoords': [998.4, 335], 'bid': 0.11}]",190568,1669830117194,seaweed,olives,0.46,0.11,-0.35000000000000003,seaweed,1137,1139,1140,True,u,192222,1654,1669830118848,1654,HRV,HRV_0110,2022-11-30 17:43:27
118,"[{'imgObject': {}, 'id': 'turkey sandwich', 'src': '/static/foodstim60/turkey sandwich.jpg', 'key': 'u', 'origWidth': 409, 'origHeight': 409, 'width': 409, 'height': 409, 'widthPercent': 0.45, 'rescaleHeight': False, 'trialN': 118, 'loaded': True, 'loadedTime': 1878, 'positionName': 'LEFT', 'positionCoords': [512.6, 335.5], 'bid': 7.12}, {'imgObject': {}, 'id': 'bagel and cc', 'src': '/static/foodstim60/bagel and cc.jpg', 'key': 'i', 'origWidth': 410, 'origHeight': 410, 'width': 410, 'height': 410, 'widthPercent': 0.45, 'rescaleHeight': False, 'trialN': 118, 'loaded': True, 'loadedTime': 1835, 'positionName': 'RIGHT', 'positionCoords': [998.4, 335], 'bid': 7.11}]",192222,1669830118848,turkey sandwich,bagel and cc,7.12,7.11,-0.009999999999999787,turkey sandwich,842,855,855,True,u,193588,1366,1669830120215,1367,HRV,HRV_0110,2022-11-30 17:43:27
