trialN,stimuli,trialStartTime,trialStartTime_UNIX,stimulus1,stimulus2,stimulus1Bid,stimulus2Bid,delta,selected,rt,rt_UNIX,rt_perfnow,receivedResponse,rsp,trialEndTime,trialDuration,trialEndTime_UNIX,trialDuration_UNIX,exp,subjectId,date
0,"[{'imgObject': {}, 'id': 'burger', 'src': '/static/foodstim60/burger.jpg', 'key': 'u', 'origWidth': 409, 'origHeight': 409, 'width': 409, 'height': 409, 'widthPercent': 0.45, 'rescaleHeight': False, 'trialN': 0, 'loaded': True, 'loadedTime': 2393.9000000953674, 'positionName': 'LEFT', 'positionCoords': [512.6, 335.5], 'bid': 4.18}, {'imgObject': {}, 'id': 'eggs', 'src': '/static/foodstim60/eggs.jpg', 'key': 'i', 'origWidth': 409, 'origHeight': 409, 'width': 409, 'height': 409, 'widthPercent': 0.45, 'rescaleHeight': False, 'trialN': 0, 'loaded': True, 'loadedTime': 2416.7999999523163, 'positionName': 'RIGHT', 'positionCoords': [998.4, 335.5], 'bid': 3.14}]",2709.4000000953674,1669831249497,burger,eggs,4.18,3.14,-1.0399999999999996,eggs,2131.0999999046326,2132,2131.699999809265,True,i,5349.5,2640.0999999046326,1669831252137,2640,HRV,HRV_0121,2022-11-30 18:06:59
1,"[{'imgObject': {}, 'id': 'bagel and cc', 'src': '/static/foodstim60/bagel and cc.jpg', 'key': 'u', 'origWidth': 410, 'origHeight': 410, 'width': 410, 'height': 410, 'widthPercent': 0.45, 'rescaleHeight': False, 'trialN': 1, 'loaded': True, 'loadedTime': 2422.7999999523163, 'positionName': 'LEFT', 'positionCoords': [511.6, 335], 'bid': 7.18}, {'imgObject': {}, 'id': 'rigatoni and sauce', 'src': '/static/foodstim60/rigatoni and sauce.jpg', 'key': 'i', 'origWidth': 410, 'origHeight': 411, 'width': 410, 'height': 411, 'widthPercent': 0.45, 'rescaleHeight': False, 'trialN': 1, 'loaded': True, 'loadedTime': 2427.5999999046326, 'positionName': 'RIGHT', 'positionCoords': [998.4, 334.5], 'bid': 6.2}]",5349.900000095367,1669831252138,bagel and cc,rigatoni and sauce,7.18,6.2,-0.9799999999999995,bagel and cc,1099.0,1099,1099.2999999523163,True,u,6957.599999904633,1607.6999998092651,1669831253745,1607,HRV,HRV_0121,2022-11-30 18:06:59
2,"[{'imgObject': {}, 'id': 'fried eggs', 'src': '/static/foodstim60/fried eggs.jpg', 'key': 'u', 'origWidth': 410, 'origHeight': 410, 'width': 410, 'height': 410, 'widthPercent': 0.45, 'rescaleHeight': False, 'trialN': 2, 'loaded': True, 'loadedTime': 2440, 'positionName': 'LEFT', 'positionCoords': [511.6, 335], 'bid': 2.88}, {'imgObject': {}, 'id': 'ice cream sundae 002', 'src': '/static/foodstim60/ice cream sundae 002.jpg', 'key': 'i', 'origWidth': 409, 'origHeight': 409, 'width': 409, 'height': 409, 'widthPercent': 0.45, 'rescaleHeight': False, 'trialN': 2, 'loaded': True, 'loadedTime': 2464.4000000953674, 'positionName': 'RIGHT', 'positionCoords': [998.4, 335.5], 'bid': 2.84}]",6957.700000047684,1669831253746,fried eggs,ice cream sundae 002,2.88,2.84,-0.040000000000000036,ice cream sundae 002,1963.3999998569489,1963,1963.7000000476837,True,i,9432.599999904633,2474.899999856949,1669831256220,2474,HRV,HRV_0121,2022-11-30 18:06:59
3,"[{'imgObject': {}, 'id': 'steak', 'src': '/static/foodstim60/steak.jpg', 'key': 'u', 'origWidth': 410, 'origHeight': 410, 'width': 410, 'height': 410, 'widthPercent': 0.45, 'rescaleHeight': False, 'trialN': 3, 'loaded': True, 'loadedTime': 2469.7999999523163, 'positionName': 'LEFT', 'positionCoords': [511.6, 335], 'bid': 6.76}, {'imgObject': {}, 'id': 'banana', 'src': '/static/foodstim60/banana.jpg', 'key': 'i', 'origWidth': 410, 'origHeight': 410, 'width': 410, 'height': 410, 'widthPercent': 0.45, 'rescaleHeight': False, 'trialN': 3, 'loaded': True, 'loadedTime': 2479, 'positionName': 'RIGHT', 'positionCoords': [998.4, 335], 'bid': 3.54}]",9432.799999952316,1669831256221,steak,banana,6.76,3.54,-3.2199999999999998,steak,1736.4000000953674,1736,1736.7000000476837,True,u,11683.799999952316,2251.0,1669831258472,2251,HRV,HRV_0121,2022-11-30 18:06:59
4,"[{'imgObject': {}, 'id': 'mango', 'src': '/static/foodstim60/mango.jpg', 'key': 'u', 'origWidth': 411, 'origHeight': 411, 'width': 411, 'height': 411, 'widthPercent': 0.45, 'rescaleHeight': False, 'trialN': 4, 'loaded': True, 'loadedTime': 2483.4000000953674, 'positionName': 'LEFT', 'positionCoords': [510.6, 334.5], 'bid': 6.38}, {'imgObject': {}, 'id': 'mac & cheese', 'src': '/static/foodstim60/mac & cheese.jpg', 'key': 'i', 'origWidth': 410, 'origHeight': 410, 'width': 410, 'height': 410, 'widthPercent': 0.45, 'rescaleHeight': False, 'trialN': 4, 'loaded': True, 'loadedTime': 2493.2999999523163, 'positionName': 'RIGHT', 'positionCoords': [998.4, 335], 'bid': 6.36}]",11684.099999904633,1669831258472,mango,mac & cheese,6.38,6.36,-0.019999999999999574,mac & cheese,1349.1000001430511,1349,1349.4000000953674,True,i,13549.299999952316,1865.2000000476837,1669831260337,1865,HRV,HRV_0121,2022-11-30 18:06:59
5,"[{'imgObject': {}, 'id': 'kiwi', 'src': '/static/foodstim60/kiwi.jpg', 'key': 'u', 'origWidth': 410, 'origHeight': 410, 'width': 410, 'height': 410, 'widthPercent': 0.45, 'rescaleHeight': False, 'trialN': 5, 'loaded': True, 'loadedTime': 2504, 'positionName': 'LEFT', 'positionCoords': [511.6, 335], 'bid': 1.35}, {'imgObject': {}, 'id': 'lox', 'src': '/static/foodstim60/lox.jpg', 'key': 'i', 'origWidth': 410, 'origHeight': 411, 'width': 410, 'height': 411, 'widthPercent': 0.45, 'rescaleHeight': False, 'trialN': 5, 'loaded': True, 'loadedTime': 2512.2999999523163, 'positionName': 'RIGHT', 'positionCoords': [998.4, 334.5], 'bid': 0.12}]",13549.599999904633,1669831260337,kiwi,lox,1.35,0.12,-1.23,kiwi,1507.3000001907349,1508,1507.7000000476837,True,u,15564.900000095367,2015.3000001907349,1669831262353,2016,HRV,HRV_0121,2022-11-30 18:06:59
6,"[{'imgObject': {}, 'id': 'veggieswithdip', 'src': '/static/foodstim60/veggieswithdip.jpg', 'key': 'u', 'origWidth': 409, 'origHeight': 409, 'width': 409, 'height': 409, 'widthPercent': 0.45, 'rescaleHeight': False, 'trialN': 6, 'loaded': True, 'loadedTime': 2517.0999999046326, 'positionName': 'LEFT', 'positionCoords': [512.6, 335.5], 'bid': 7.2}, {'imgObject': {}, 'id': 'shreddedwheatwithmilk', 'src': '/static/foodstim60/shreddedwheatwithmilk.jpg', 'key': 'i', 'origWidth': 410, 'origHeight': 410, 'width': 410, 'height': 410, 'widthPercent': 0.45, 'rescaleHeight': False, 'trialN': 6, 'loaded': True, 'loadedTime': 2517.0999999046326, 'positionName': 'RIGHT', 'positionCoords': [998.4, 335], 'bid': 4.38}]",15565.200000047684,1669831262353,veggieswithdip,shreddedwheatwithmilk,7.2,4.38,-2.8200000000000003,veggieswithdip,1131.7999999523163,1132,1132.0999999046326,True,u,17201.599999904633,1636.3999998569489,1669831263989,1636,HRV,HRV_0121,2022-11-30 18:06:59
7,"[{'imgObject': {}, 'id': 'cocktailshrimp', 'src': '/static/foodstim60/cocktailshrimp.jpg', 'key': 'u', 'origWidth': 410, 'origHeight': 410, 'width': 410, 'height': 410, 'widthPercent': 0.45, 'rescaleHeight': False, 'trialN': 7, 'loaded': True, 'loadedTime': 2455.5, 'positionName': 'LEFT', 'positionCoords': [511.6, 335], 'bid': 6.76}, {'imgObject': {}, 'id': 'tacos', 'src': '/static/foodstim60/tacos.jpg', 'key': 'i', 'origWidth': 411, 'origHeight': 411, 'width': 411, 'height': 411, 'widthPercent': 0.45, 'rescaleHeight': False, 'trialN': 7, 'loaded': True, 'loadedTime': 2526.2000000476837, 'positionName': 'RIGHT', 'positionCoords': [998.4, 334.5], 'bid': 8.61}]",17201.799999952316,1669831263990,cocktailshrimp,tacos,6.76,8.61,1.8499999999999996,tacos,1079.1000001430511,1079,1079.4000000953674,True,i,18784.900000095367,1583.1000001430511,1669831265573,1583,HRV,HRV_0121,2022-11-30 18:06:59
8,"[{'imgObject': {}, 'id': 'omelette', 'src': '/static/foodstim60/omelette.jpg', 'key': 'u', 'origWidth': 410, 'origHeight': 409, 'width': 410, 'height': 409, 'widthPercent': 0.45, 'rescaleHeight': False, 'trialN': 8, 'loaded': True, 'loadedTime': 2530.9000000953674, 'positionName': 'LEFT', 'positionCoords': [511.6, 335.5], 'bid': 1.98}, {'imgObject': {}, 'id': 'salad w chicken', 'src': '/static/foodstim60/salad w chicken.jpg', 'key': 'i', 'origWidth': 411, 'origHeight': 411, 'width': 411, 'height': 411, 'widthPercent': 0.45, 'rescaleHeight': False, 'trialN': 8, 'loaded': True, 'loadedTime': 2545.2000000476837, 'positionName': 'RIGHT', 'positionCoords': [998.4, 334.5], 'bid': 4.11}]",18785.099999904633,1669831265573,omelette,salad w chicken,1.98,4.11,2.1300000000000003,salad w chicken,1479.5,1480,1479.8000001907349,True,i,20767.099999904633,1982.0,1669831267555,1982,HRV,HRV_0121,2022-11-30 18:06:59
9,"[{'imgObject': {}, 'id': 'avocado', 'src': '/static/foodstim60/avocado.jpg', 'key': 'u', 'origWidth': 409, 'origHeight': 409, 'width': 409, 'height': 409, 'widthPercent': 0.45, 'rescaleHeight': False, 'trialN': 9, 'loaded': True, 'loadedTime': 2546.2999999523163, 'positionName': 'LEFT', 'positionCoords': [512.6, 335.5], 'bid': 0.19}, {'imgObject': {}, 'id': 'seaweed', 'src': '/static/foodstim60/seaweed.jpg', 'key': 'i', 'origWidth': 410, 'origHeight': 410, 'width': 410, 'height': 410, 'widthPercent': 0.45, 'rescaleHeight': False, 'trialN': 9, 'loaded': True, 'loadedTime': 2551.2999999523163, 'positionName': 'RIGHT', 'positionCoords': [998.4, 335], 'bid': 1.39}]",20767.299999952316,1669831267555,avocado,seaweed,0.19,1.39,1.2,seaweed,1665.9000000953674,1666,1666.2000000476837,True,i,22936.599999904633,2169.2999999523163,1669831269724,2169,HRV,HRV_0121,2022-11-30 18:06:59
10,"[{'imgObject': {}, 'id': 'rigatoni', 'src': '/static/foodstim60/rigatoni.jpg', 'key': 'u', 'origWidth': 411, 'origHeight': 411, 'width': 411, 'height': 411, 'widthPercent': 0.45, 'rescaleHeight': False, 'trialN': 10, 'loaded': True, 'loadedTime': 2555.2000000476837, 'positionName': 'LEFT', 'positionCoords': [510.6, 334.5], 'bid': 5.18}, {'imgObject': {}, 'id': 'edamame', 'src': '/static/foodstim60/edamame.jpg', 'key': 'i', 'origWidth': 409, 'origHeight': 410, 'width': 409, 'height': 410, 'widthPercent': 0.45, 'rescaleHeight': False, 'trialN': 10, 'loaded': True, 'loadedTime': 2559, 'positionName': 'RIGHT', 'positionCoords': [998.4, 335], 'bid': 5.47}]",22936.799999952316,1669831269725,rigatoni,edamame,5.18,5.47,0.29000000000000004,edamame,2272.100000143051,2272,2272.5,True,i,25716.200000047684,2779.4000000953674,1669831272504,2779,HRV,HRV_0121,2022-11-30 18:06:59
11,"[{'imgObject': {}, 'id': 'orange slices', 'src': '/static/foodstim60/orange slices.jpg', 'key': 'u', 'origWidth': 409, 'origHeight': 410, 'width': 409, 'height': 410, 'widthPercent': 0.45, 'rescaleHeight': False, 'trialN': 11, 'loaded': True, 'loadedTime': 2564.7000000476837, 'positionName': 'LEFT', 'positionCoords': [512.6, 335], 'bid': 6.01}, {'imgObject': {}, 'id': 'roastedpotatoes', 'src': '/static/foodstim60/roastedpotatoes.jpg', 'key': 'i', 'origWidth': 409, 'origHeight': 410, 'width': 409, 'height': 410, 'widthPercent': 0.45, 'rescaleHeight': False, 'trialN': 11, 'loaded': True, 'loadedTime': 2568.5, 'positionName': 'RIGHT', 'positionCoords': [998.4, 335], 'bid': 5.0200000000000005}]",25716.400000095367,1669831272504,orange slices,roastedpotatoes,6.01,5.0200000000000005,-0.9899999999999993,roastedpotatoes,1996.5,1997,1996.8999998569489,True,i,28216.299999952316,2499.899999856949,1669831275004,2500,HRV,HRV_0121,2022-11-30 18:06:59
12,"[{'imgObject': {}, 'id': 'apple slices', 'src': '/static/foodstim60/apple slices.jpg', 'key': 'u', 'origWidth': 409, 'origHeight': 410, 'width': 409, 'height': 410, 'widthPercent': 0.45, 'rescaleHeight': False, 'trialN': 12, 'loaded': True, 'loadedTime': 2574.5999999046326, 'positionName': 'LEFT', 'positionCoords': [512.6, 335], 'bid': 6.65}, {'imgObject': {}, 'id': 'steak', 'src': '/static/foodstim60/steak.jpg', 'key': 'i', 'origWidth': 410, 'origHeight': 410, 'width': 410, 'height': 410, 'widthPercent': 0.45, 'rescaleHeight': False, 'trialN': 12, 'loaded': True, 'loadedTime': 2464.5, 'positionName': 'RIGHT', 'positionCoords': [998.4, 335], 'bid': 6.76}]",28216.599999904633,1669831275004,apple slices,steak,6.65,6.76,0.10999999999999943,apple slices,2112.4000000953674,2111,2112.600000143051,True,u,30835.700000047684,2619.100000143051,1669831277621,2617,HRV,HRV_0121,2022-11-30 18:06:59
13,"[{'imgObject': {}, 'id': 'seaweed', 'src': '/static/foodstim60/seaweed.jpg', 'key': 'u', 'origWidth': 410, 'origHeight': 410, 'width': 410, 'height': 410, 'widthPercent': 0.45, 'rescaleHeight': False, 'trialN': 13, 'loaded': True, 'loadedTime': 2551.2000000476837, 'positionName': 'LEFT', 'positionCoords': [511.6, 335], 'bid': 1.39}, {'imgObject': {}, 'id': 'mango', 'src': '/static/foodstim60/mango.jpg', 'key': 'i', 'origWidth': 411, 'origHeight': 411, 'width': 411, 'height': 411, 'widthPercent': 0.45, 'rescaleHeight': False, 'trialN': 13, 'loaded': True, 'loadedTime': 2484.2000000476837, 'positionName': 'RIGHT', 'positionCoords': [998.4, 334.5], 'bid': 6.38}]",30835.900000095367,1669831277621,seaweed,mango,1.39,6.38,4.99,mango,2133.199999809265,2134,2133.5999999046326,True,i,33483.700000047684,2647.7999999523163,1669831280269,2648,HRV,HRV_0121,2022-11-30 18:06:59
14,"[{'imgObject': {}, 'id': 'orange slices', 'src': '/static/foodstim60/orange slices.jpg', 'key': 'u', 'origWidth': 409, 'origHeight': 410, 'width': 409, 'height': 410, 'widthPercent': 0.45, 'rescaleHeight': False, 'trialN': 14, 'loaded': True, 'loadedTime': 2563.7999999523163, 'positionName': 'LEFT', 'positionCoords': [512.6, 335], 'bid': 6.01}, {'imgObject': {}, 'id': 'blueberries', 'src': '/static/foodstim60/blueberries.jpg', 'key': 'i', 'origWidth': 411, 'origHeight': 411, 'width': 411, 'height': 411, 'widthPercent': 0.45, 'rescaleHeight': False, 'trialN': 14, 'loaded': True, 'loadedTime': 2586.7000000476837, 'positionName': 'RIGHT', 'positionCoords': [998.4, 334.5], 'bid': 5.86}]",33483.90000009537,1669831280269,orange slices,blueberries,6.01,5.86,-0.14999999999999947,blueberries,2021.0,2022,2021.2999999523163,True,i,36012.299999952316,2528.399999856949,1669831282798,2529,HRV,HRV_0121,2022-11-30 18:06:59
15,"[{'imgObject': {}, 'id': 'blueberries', 'src': '/static/foodstim60/blueberries.jpg', 'key': 'u', 'origWidth': 411, 'origHeight': 411, 'width': 411, 'height': 411, 'widthPercent': 0.45, 'rescaleHeight': False, 'trialN': 15, 'loaded': True, 'loadedTime': 2582.9000000953674, 'positionName': 'LEFT', 'positionCoords': [510.6, 334.5], 'bid': 5.86}, {'imgObject': {}, 'id': 'steak', 'src': '/static/foodstim60/steak.jpg', 'key': 'i', 'origWidth': 410, 'origHeight': 410, 'width': 410, 'height': 410, 'widthPercent': 0.45, 'rescaleHeight': False, 'trialN': 15, 'loaded': True, 'loadedTime': 2465.2000000476837, 'positionName': 'RIGHT', 'positionCoords': [998.4, 335], 'bid': 6.76}]",36012.5,1669831282798,blueberries,steak,5.86,6.76,0.8999999999999995,steak,1460.0999999046326,1460,1460.5,True,i,37983.299999952316,1970.7999999523163,1669831284769,1971,HRV,HRV_0121,2022-11-30 18:06:59
16,"[{'imgObject': {}, 'id': 'mango', 'src': '/static/foodstim60/mango.jpg', 'key': 'u', 'origWidth': 411, 'origHeight': 411, 'width': 411, 'height': 411, 'widthPercent': 0.45, 'rescaleHeight': False, 'trialN': 16, 'loaded': True, 'loadedTime': 2487.5999999046326, 'positionName': 'LEFT', 'positionCoords': [510.6, 334.5], 'bid': 6.38}, {'imgObject': {}, 'id': 'yogurt no spoon', 'src': '/static/foodstim60/yogurt no spoon.jpg', 'key': 'i', 'origWidth': 411, 'origHeight': 410, 'width': 411, 'height': 410, 'widthPercent': 0.45, 'rescaleHeight': False, 'trialN': 16, 'loaded': True, 'loadedTime': 2590.9000000953674, 'positionName': 'RIGHT', 'positionCoords': [998.4, 335], 'bid': 7.27}]",37983.59999990463,1669831284769,mango,yogurt no spoon,6.38,7.27,0.8899999999999997,yogurt no spoon,1209.3000001907349,1210,1209.6000001430511,True,i,39698.200000047684,1714.6000001430511,1669831286484,1715,HRV,HRV_0121,2022-11-30 18:06:59
17,"[{'imgObject': {}, 'id': 'salad w chicken', 'src': '/static/foodstim60/salad w chicken.jpg', 'key': 'u', 'origWidth': 411, 'origHeight': 411, 'width': 411, 'height': 411, 'widthPercent': 0.45, 'rescaleHeight': False, 'trialN': 17, 'loaded': True, 'loadedTime': 2541.5999999046326, 'positionName': 'LEFT', 'positionCoords': [510.6, 334.5], 'bid': 4.11}, {'imgObject': {}, 'id': 'fried eggs', 'src': '/static/foodstim60/fried eggs.jpg', 'key': 'i', 'origWidth': 410, 'origHeight': 410, 'width': 410, 'height': 410, 'widthPercent': 0.45, 'rescaleHeight': False, 'trialN': 17, 'loaded': True, 'loadedTime': 2443.9000000953674, 'positionName': 'RIGHT', 'positionCoords': [998.4, 335], 'bid': 2.88}]",39698.5,1669831286484,salad w chicken,fried eggs,4.11,2.88,-1.2300000000000004,salad w chicken,1510.4000000953674,1511,1510.7000000476837,True,u,41714.90000009537,2016.4000000953674,1669831288500,2016,HRV,HRV_0121,2022-11-30 18:06:59
18,"[{'imgObject': {}, 'id': 'grilled chicken strips', 'src': '/static/foodstim60/grilled chicken strips.jpg', 'key': 'u', 'origWidth': 410, 'origHeight': 411, 'width': 410, 'height': 411, 'widthPercent': 0.45, 'rescaleHeight': False, 'trialN': 18, 'loaded': True, 'loadedTime': 2599.2999999523163, 'positionName': 'LEFT', 'positionCoords': [511.6, 334.5], 'bid': 6.48}, {'imgObject': {}, 'id': 'bagel and cc', 'src': '/static/foodstim60/bagel and cc.jpg', 'key': 'i', 'origWidth': 410, 'origHeight': 410, 'width': 410, 'height': 410, 'widthPercent': 0.45, 'rescaleHeight': False, 'trialN': 18, 'loaded': True, 'loadedTime': 2427.4000000953674, 'positionName': 'RIGHT', 'positionCoords': [998.4, 335], 'bid': 7.18}]",41715.200000047684,1669831288501,grilled chicken strips,bagel and cc,6.48,7.18,0.6999999999999993,grilled chicken strips,2430.0,2430,2430.2999999523163,True,u,44651.59999990463,2936.399999856949,1669831291437,2936,HRV,HRV_0121,2022-11-30 18:06:59
19,"[{'imgObject': {}, 'id': 'sushi w_condiments', 'src': '/static/foodstim60/sushi w_condiments.jpg', 'key': 'u', 'origWidth': 410, 'origHeight': 410, 'width': 410, 'height': 410, 'widthPercent': 0.45, 'rescaleHeight': False, 'trialN': 19, 'loaded': True, 'loadedTime': 2604.9000000953674, 'positionName': 'LEFT', 'positionCoords': [511.6, 335], 'bid': 0.05}, {'imgObject': {}, 'id': 'eggsalad', 'src': '/static/foodstim60/eggsalad.jpg', 'key': 'i', 'origWidth': 410, 'origHeight': 409, 'width': 410, 'height': 409, 'widthPercent': 0.45, 'rescaleHeight': False, 'trialN': 19, 'loaded': True, 'loadedTime': 2605.0999999046326, 'positionName': 'RIGHT', 'positionCoords': [998.4, 335.5], 'bid': 1.65}]",44651.799999952316,1669831291437,sushi w_condiments,eggsalad,0.05,1.65,1.5999999999999999,eggsalad,1293.1000001430511,1294,1293.5,True,i,46451.59999990463,1799.7999999523163,1669831293237,1800,HRV,HRV_0121,2022-11-30 18:06:59
20,"[{'imgObject': {}, 'id': 'corn cob', 'src': '/static/foodstim60/corn cob.jpg', 'key': 'u', 'origWidth': 411, 'origHeight': 411, 'width': 411, 'height': 411, 'widthPercent': 0.45, 'rescaleHeight': False, 'trialN': 20, 'loaded': True, 'loadedTime': 2614.7000000476837, 'positionName': 'LEFT', 'positionCoords': [510.6, 334.5], 'bid': 6.13}, {'imgObject': {}, 'id': 'blueberries', 'src': '/static/foodstim60/blueberries.jpg', 'key': 'i', 'origWidth': 411, 'origHeight': 411, 'width': 411, 'height': 411, 'widthPercent': 0.45, 'rescaleHeight': False, 'trialN': 20, 'loaded': True, 'loadedTime': 2586.4000000953674, 'positionName': 'RIGHT', 'positionCoords': [998.4, 334.5], 'bid': 5.86}]",46451.799999952316,1669831293237,corn cob,blueberries,6.13,5.86,-0.2699999999999996,blueberries,1637.1000001430511,1638,1637.6000001430511,True,i,48599.799999952316,2148.0,1669831295385,2148,HRV,HRV_0121,2022-11-30 18:06:59
21,"[{'imgObject': {}, 'id': 'cherry tomato', 'src': '/static/foodstim60/cherry tomato.jpg', 'key': 'u', 'origWidth': 410, 'origHeight': 410, 'width': 410, 'height': 410, 'widthPercent': 0.45, 'rescaleHeight': False, 'trialN': 21, 'loaded': True, 'loadedTime': 2619.2999999523163, 'positionName': 'LEFT', 'positionCoords': [511.6, 335], 'bid': 5}, {'imgObject': {}, 'id': 'raspberries', 'src': '/static/foodstim60/raspberries.jpg', 'key': 'i', 'origWidth': 411, 'origHeight': 411, 'width': 411, 'height': 411, 'widthPercent': 0.45, 'rescaleHeight': False, 'trialN': 21, 'loaded': True, 'loadedTime': 2619.7000000476837, 'positionName': 'RIGHT', 'positionCoords': [998.4, 334.5], 'bid': 5.8100000000000005}]",48600.09999990463,1669831295386,cherry tomato,raspberries,5.0,5.8100000000000005,0.8100000000000005,raspberries,1128.8000001907349,1129,1129.1000001430511,True,i,50231.59999990463,1631.5,1669831297017,1631,HRV,HRV_0121,2022-11-30 18:06:59
22,"[{'imgObject': {}, 'id': 'banana', 'src': '/static/foodstim60/banana.jpg', 'key': 'u', 'origWidth': 410, 'origHeight': 410, 'width': 410, 'height': 410, 'widthPercent': 0.45, 'rescaleHeight': False, 'trialN': 22, 'loaded': True, 'loadedTime': 2473.7999999523163, 'positionName': 'LEFT', 'positionCoords': [511.6, 335], 'bid': 3.54}, {'imgObject': {}, 'id': 'salad w chicken', 'src': '/static/foodstim60/salad w chicken.jpg', 'key': 'i', 'origWidth': 411, 'origHeight': 411, 'width': 411, 'height': 411, 'widthPercent': 0.45, 'rescaleHeight': False, 'trialN': 22, 'loaded': True, 'loadedTime': 2540.7000000476837, 'positionName': 'RIGHT', 'positionCoords': [998.4, 334.5], 'bid': 4.11}]",50231.90000009537,1669831297017,banana,salad w chicken,3.54,4.11,0.5700000000000003,salad w chicken,1904.8999998569489,1906,1905.1999998092651,True,i,52650.40000009537,2418.5,1669831299436,2419,HRV,HRV_0121,2022-11-30 18:06:59
23,"[{'imgObject': {}, 'id': 'burrito', 'src': '/static/foodstim60/burrito.jpg', 'key': 'u', 'origWidth': 410, 'origHeight': 410, 'width': 410, 'height': 410, 'widthPercent': 0.45, 'rescaleHeight': False, 'trialN': 23, 'loaded': True, 'loadedTime': 2629.4000000953674, 'positionName': 'LEFT', 'positionCoords': [511.6, 335], 'bid': 6.54}, {'imgObject': {}, 'id': 'turkey sandwich', 'src': '/static/foodstim60/turkey sandwich.jpg', 'key': 'i', 'origWidth': 409, 'origHeight': 409, 'width': 409, 'height': 409, 'widthPercent': 0.45, 'rescaleHeight': False, 'trialN': 23, 'loaded': True, 'loadedTime': 2633.4000000953674, 'positionName': 'RIGHT', 'positionCoords': [998.4, 335.5], 'bid': 7.52}]",52650.5,1669831299436,burrito,turkey sandwich,6.54,7.52,0.9799999999999995,turkey sandwich,1622.5999999046326,1623,1622.9000000953674,True,i,54783.200000047684,2132.7000000476837,1669831301569,2133,HRV,HRV_0121,2022-11-30 18:06:59
24,"[{'imgObject': {}, 'id': 'fruitsalad', 'src': '/static/foodstim60/fruitsalad.jpg', 'key': 'u', 'origWidth': 410, 'origHeight': 410, 'width': 410, 'height': 410, 'widthPercent': 0.45, 'rescaleHeight': False, 'trialN': 24, 'loaded': True, 'loadedTime': 2638, 'positionName': 'LEFT', 'positionCoords': [511.6, 335], 'bid': 6.83}, {'imgObject': {}, 'id': 'salad w chicken', 'src': '/static/foodstim60/salad w chicken.jpg', 'key': 'i', 'origWidth': 411, 'origHeight': 411, 'width': 411, 'height': 411, 'widthPercent': 0.45, 'rescaleHeight': False, 'trialN': 24, 'loaded': True, 'loadedTime': 2541.7000000476837, 'positionName': 'RIGHT', 'positionCoords': [998.4, 334.5], 'bid': 4.11}]",54783.40000009537,1669831301569,fruitsalad,salad w chicken,6.83,4.11,-2.7199999999999998,salad w chicken,1761.5,1762,1761.6999998092651,True,i,57050.700000047684,2267.2999999523163,1669831303836,2267,HRV,HRV_0121,2022-11-30 18:06:59
25,"[{'imgObject': {}, 'id': 'luckycharms', 'src': '/static/foodstim60/luckycharms.jpg', 'key': 'u', 'origWidth': 410, 'origHeight': 409, 'width': 410, 'height': 409, 'widthPercent': 0.45, 'rescaleHeight': False, 'trialN': 25, 'loaded': True, 'loadedTime': 2642.7000000476837, 'positionName': 'LEFT', 'positionCoords': [511.6, 335.5], 'bid': 8.06}, {'imgObject': {}, 'id': 'cheerios', 'src': '/static/foodstim60/cheerios.jpg', 'key': 'i', 'origWidth': 409, 'origHeight': 410, 'width': 409, 'height': 410, 'widthPercent': 0.45, 'rescaleHeight': False, 'trialN': 25, 'loaded': True, 'loadedTime': 2646.7999999523163, 'positionName': 'RIGHT', 'positionCoords': [998.4, 335], 'bid': 5.01}]",57050.90000009537,1669831303836,luckycharms,cheerios,8.06,5.01,-3.0500000000000007,luckycharms,982.0,983,982.2999999523163,True,u,58534.700000047684,1483.7999999523163,1669831305320,1484,HRV,HRV_0121,2022-11-30 18:06:59
26,"[{'imgObject': {}, 'id': 'bagel plain', 'src': '/static/foodstim60/bagel plain.jpg', 'key': 'u', 'origWidth': 410, 'origHeight': 410, 'width': 410, 'height': 410, 'widthPercent': 0.45, 'rescaleHeight': False, 'trialN': 26, 'loaded': True, 'loadedTime': 2652.2000000476837, 'positionName': 'LEFT', 'positionCoords': [511.6, 335], 'bid': 6.640000000000001}, {'imgObject': {}, 'id': 'strawberries', 'src': '/static/foodstim60/strawberries.jpg', 'key': 'i', 'origWidth': 410, 'origHeight': 410, 'width': 410, 'height': 410, 'widthPercent': 0.45, 'rescaleHeight': False, 'trialN': 26, 'loaded': True, 'loadedTime': 2657.0999999046326, 'positionName': 'RIGHT', 'positionCoords': [998.4, 335], 'bid': 6.390000000000001}]",58534.90000009537,1669831305320,bagel plain,strawberries,6.640000000000001,6.390000000000001,-0.25,bagel plain,1554.5,1555,1554.7999999523163,True,u,60600.09999990463,2065.199999809265,1669831307386,2066,HRV,HRV_0121,2022-11-30 18:06:59
27,"[{'imgObject': {}, 'id': 'kiwi', 'src': '/static/foodstim60/kiwi.jpg', 'key': 'u', 'origWidth': 410, 'origHeight': 410, 'width': 410, 'height': 410, 'widthPercent': 0.45, 'rescaleHeight': False, 'trialN': 27, 'loaded': True, 'loadedTime': 2498.0999999046326, 'positionName': 'LEFT', 'positionCoords': [511.6, 335], 'bid': 1.35}, {'imgObject': {}, 'id': 'shreddedwheatwithmilk', 'src': '/static/foodstim60/shreddedwheatwithmilk.jpg', 'key': 'i', 'origWidth': 410, 'origHeight': 410, 'width': 410, 'height': 410, 'widthPercent': 0.45, 'rescaleHeight': False, 'trialN': 27, 'loaded': True, 'loadedTime': 2521.7999999523163, 'positionName': 'RIGHT', 'positionCoords': [998.4, 335], 'bid': 4.38}]",60600.299999952316,1669831307386,kiwi,shreddedwheatwithmilk,1.35,4.38,3.03,shreddedwheatwithmilk,1112.4000000953674,1113,1112.7000000476837,True,i,62216.0,1615.7000000476837,1669831309001,1615,HRV,HRV_0121,2022-11-30 18:06:59
28,"[{'imgObject': {}, 'id': 'mac & cheese', 'src': '/static/foodstim60/mac & cheese.jpg', 'key': 'u', 'origWidth': 410, 'origHeight': 410, 'width': 410, 'height': 410, 'widthPercent': 0.45, 'rescaleHeight': False, 'trialN': 28, 'loaded': True, 'loadedTime': 2497.5999999046326, 'positionName': 'LEFT', 'positionCoords': [511.6, 335], 'bid': 6.36}, {'imgObject': {}, 'id': 'cheerios', 'src': '/static/foodstim60/cheerios.jpg', 'key': 'i', 'origWidth': 409, 'origHeight': 410, 'width': 409, 'height': 410, 'widthPercent': 0.45, 'rescaleHeight': False, 'trialN': 28, 'loaded': True, 'loadedTime': 2647.7000000476837, 'positionName': 'RIGHT', 'positionCoords': [998.4, 335], 'bid': 5.01}]",62216.200000047684,1669831309002,mac & cheese,cheerios,6.36,5.01,-1.3500000000000005,mac & cheese,1480.7000000476837,1481,1481.0999999046326,True,u,64201.90000009537,1985.7000000476837,1669831310987,1985,HRV,HRV_0121,2022-11-30 18:06:59
29,"[{'imgObject': {}, 'id': 'bagel plain', 'src': '/static/foodstim60/bagel plain.jpg', 'key': 'u', 'origWidth': 410, 'origHeight': 410, 'width': 410, 'height': 410, 'widthPercent': 0.45, 'rescaleHeight': False, 'trialN': 29, 'loaded': True, 'loadedTime': 2651.9000000953674, 'positionName': 'LEFT', 'positionCoords': [511.6, 335], 'bid': 6.640000000000001}, {'imgObject': {}, 'id': 'chicken nuggets2', 'src': '/static/foodstim60/chicken nuggets2.jpg', 'key': 'i', 'origWidth': 410, 'origHeight': 409, 'width': 410, 'height': 409, 'widthPercent': 0.45, 'rescaleHeight': False, 'trialN': 29, 'loaded': True, 'loadedTime': 2658.4000000953674, 'positionName': 'RIGHT', 'positionCoords': [998.4, 335.5], 'bid': 8.64}]",64202.0,1669831310987,bagel plain,chicken nuggets2,6.640000000000001,8.64,2.0,chicken nuggets2,1007.0,1008,1007.2999999523163,True,i,65716.70000004768,1514.7000000476837,1669831312502,1515,HRV,HRV_0121,2022-11-30 18:06:59
30,"[{'imgObject': {}, 'id': 'sweetpotato', 'src': '/static/foodstim60/sweetpotato.jpg', 'key': 'u', 'origWidth': 410, 'origHeight': 410, 'width': 410, 'height': 410, 'widthPercent': 0.45, 'rescaleHeight': False, 'trialN': 30, 'loaded': True, 'loadedTime': 2668.0999999046326, 'positionName': 'LEFT', 'positionCoords': [511.6, 335], 'bid': 0}, {'imgObject': {}, 'id': 'popsicles', 'src': '/static/foodstim60/popsicles.jpg', 'key': 'i', 'origWidth': 410, 'origHeight': 410, 'width': 410, 'height': 410, 'widthPercent': 0.45, 'rescaleHeight': False, 'trialN': 30, 'loaded': True, 'loadedTime': 2708.0999999046326, 'positionName': 'RIGHT', 'positionCoords': [998.4, 335], 'bid': 2.2}]",65716.90000009537,1669831312502,sweetpotato,popsicles,0.0,2.2,2.2,popsicles,1203.8999998569489,1205,1204.1999998092651,True,i,67433.70000004768,1716.7999999523163,1669831314219,1717,HRV,HRV_0121,2022-11-30 18:06:59
31,"[{'imgObject': {}, 'id': 'salad w chicken', 'src': '/static/foodstim60/salad w chicken.jpg', 'key': 'u', 'origWidth': 411, 'origHeight': 411, 'width': 411, 'height': 411, 'widthPercent': 0.45, 'rescaleHeight': False, 'trialN': 31, 'loaded': True, 'loadedTime': 2545.5, 'positionName': 'LEFT', 'positionCoords': [510.6, 334.5], 'bid': 4.11}, {'imgObject': {}, 'id': 'lox', 'src': '/static/foodstim60/lox.jpg', 'key': 'i', 'origWidth': 410, 'origHeight': 411, 'width': 410, 'height': 411, 'widthPercent': 0.45, 'rescaleHeight': False, 'trialN': 31, 'loaded': True, 'loadedTime': 2507.5, 'positionName': 'RIGHT', 'positionCoords': [998.4, 334.5], 'bid': 0.12}]",67434.0,1669831314219,salad w chicken,lox,4.11,0.12,-3.99,salad w chicken,894.5,895,894.7000000476837,True,u,68834.20000004768,1400.2000000476837,1669831315620,1401,HRV,HRV_0121,2022-11-30 18:06:59
32,"[{'imgObject': {}, 'id': 'edamame', 'src': '/static/foodstim60/edamame.jpg', 'key': 'u', 'origWidth': 409, 'origHeight': 410, 'width': 409, 'height': 410, 'widthPercent': 0.45, 'rescaleHeight': False, 'trialN': 32, 'loaded': True, 'loadedTime': 2560, 'positionName': 'LEFT', 'positionCoords': [512.6, 335], 'bid': 5.47}, {'imgObject': {}, 'id': 'chicken nuggets2', 'src': '/static/foodstim60/chicken nuggets2.jpg', 'key': 'i', 'origWidth': 410, 'origHeight': 409, 'width': 410, 'height': 409, 'widthPercent': 0.45, 'rescaleHeight': False, 'trialN': 32, 'loaded': True, 'loadedTime': 2658.2000000476837, 'positionName': 'RIGHT', 'positionCoords': [998.4, 335.5], 'bid': 8.64}]",68834.40000009537,1669831315620,edamame,chicken nuggets2,5.47,8.64,3.170000000000001,chicken nuggets2,982.5,983,982.8999998569489,True,i,70325.70000004768,1491.2999999523163,1669831317111,1491,HRV,HRV_0121,2022-11-30 18:06:59
33,"[{'imgObject': {}, 'id': 'rigatoni', 'src': '/static/foodstim60/rigatoni.jpg', 'key': 'u', 'origWidth': 411, 'origHeight': 411, 'width': 411, 'height': 411, 'widthPercent': 0.45, 'rescaleHeight': False, 'trialN': 33, 'loaded': True, 'loadedTime': 2555.4000000953674, 'positionName': 'LEFT', 'positionCoords': [510.6, 334.5], 'bid': 5.18}, {'imgObject': {}, 'id': 'tacos', 'src': '/static/foodstim60/tacos.jpg', 'key': 'i', 'origWidth': 411, 'origHeight': 411, 'width': 411, 'height': 411, 'widthPercent': 0.45, 'rescaleHeight': False, 'trialN': 33, 'loaded': True, 'loadedTime': 2525.7999999523163, 'positionName': 'RIGHT', 'positionCoords': [998.4, 334.5], 'bid': 8.61}]",70325.90000009537,1669831317111,rigatoni,tacos,5.18,8.61,3.4299999999999997,tacos,867.0,868,867.2999999523163,True,i,71698.59999990463,1372.6999998092651,1669831318484,1373,HRV,HRV_0121,2022-11-30 18:06:59
34,"[{'imgObject': {}, 'id': 'blackbeanswithrice', 'src': '/static/foodstim60/blackbeanswithrice.jpg', 'key': 'u', 'origWidth': 410, 'origHeight': 410, 'width': 410, 'height': 410, 'widthPercent': 0.45, 'rescaleHeight': False, 'trialN': 34, 'loaded': True, 'loadedTime': 2669.0999999046326, 'positionName': 'LEFT', 'positionCoords': [511.6, 335], 'bid': 3.4}, {'imgObject': {}, 'id': 'pear', 'src': '/static/foodstim60/pear.jpg', 'key': 'i', 'origWidth': 411, 'origHeight': 410, 'width': 411, 'height': 410, 'widthPercent': 0.45, 'rescaleHeight': False, 'trialN': 34, 'loaded': True, 'loadedTime': 2674, 'positionName': 'RIGHT', 'positionCoords': [998.4, 335], 'bid': 6.71}]",71698.79999995232,1669831318484,blackbeanswithrice,pear,3.4,6.71,3.31,pear,1390.1000001430511,1391,1390.4000000953674,True,i,73599.59999990463,1900.7999999523163,1669831320385,1901,HRV,HRV_0121,2022-11-30 18:06:59
35,"[{'imgObject': {}, 'id': 'banana', 'src': '/static/foodstim60/banana.jpg', 'key': 'u', 'origWidth': 410, 'origHeight': 410, 'width': 410, 'height': 410, 'widthPercent': 0.45, 'rescaleHeight': False, 'trialN': 35, 'loaded': True, 'loadedTime': 2474.7999999523163, 'positionName': 'LEFT', 'positionCoords': [511.6, 335], 'bid': 3.54}, {'imgObject': {}, 'id': 'mashed potato', 'src': '/static/foodstim60/mashed potato.jpg', 'key': 'i', 'origWidth': 409, 'origHeight': 409, 'width': 409, 'height': 409, 'widthPercent': 0.45, 'rescaleHeight': False, 'trialN': 35, 'loaded': True, 'loadedTime': 2674.7000000476837, 'positionName': 'RIGHT', 'positionCoords': [998.4, 335.5], 'bid': 4.97}]",73599.90000009537,1669831320385,banana,mashed potato,3.54,4.97,1.4299999999999997,banana,1344.8999998569489,1346,1345.1999998092651,True,u,75451.40000009537,1851.5,1669831322237,1852,HRV,HRV_0121,2022-11-30 18:06:59
36,"[{'imgObject': {}, 'id': 'eggs', 'src': '/static/foodstim60/eggs.jpg', 'key': 'u', 'origWidth': 409, 'origHeight': 409, 'width': 409, 'height': 409, 'widthPercent': 0.45, 'rescaleHeight': False, 'trialN': 36, 'loaded': True, 'loadedTime': 2417.7000000476837, 'positionName': 'LEFT', 'positionCoords': [512.6, 335.5], 'bid': 3.14}, {'imgObject': {}, 'id': 'edamame', 'src': '/static/foodstim60/edamame.jpg', 'key': 'i', 'origWidth': 409, 'origHeight': 410, 'width': 409, 'height': 410, 'widthPercent': 0.45, 'rescaleHeight': False, 'trialN': 36, 'loaded': True, 'loadedTime': 2563.5999999046326, 'positionName': 'RIGHT', 'positionCoords': [998.4, 335], 'bid': 5.47}]",75451.59999990463,1669831322237,eggs,edamame,3.14,5.47,2.3299999999999996,edamame,1253.4000000953674,1254,1253.7000000476837,True,i,77216.29999995232,1764.7000000476837,1669831324002,1765,HRV,HRV_0121,2022-11-30 18:06:59
37,"[{'imgObject': {}, 'id': 'blueberries', 'src': '/static/foodstim60/blueberries.jpg', 'key': 'u', 'origWidth': 411, 'origHeight': 411, 'width': 411, 'height': 411, 'widthPercent': 0.45, 'rescaleHeight': False, 'trialN': 37, 'loaded': True, 'loadedTime': 2583, 'positionName': 'LEFT', 'positionCoords': [510.6, 334.5], 'bid': 5.86}, {'imgObject': {}, 'id': 'cheerios', 'src': '/static/foodstim60/cheerios.jpg', 'key': 'i', 'origWidth': 409, 'origHeight': 410, 'width': 409, 'height': 410, 'widthPercent': 0.45, 'rescaleHeight': False, 'trialN': 37, 'loaded': True, 'loadedTime': 2648, 'positionName': 'RIGHT', 'positionCoords': [998.4, 335], 'bid': 5.01}]",77216.5,1669831324002,blueberries,cheerios,5.86,5.01,-0.8500000000000005,blueberries,1208.2999999523163,1209,1208.5999999046326,True,u,78932.59999990463,1716.0999999046326,1669831325718,1716,HRV,HRV_0121,2022-11-30 18:06:59
38,"[{'imgObject': {}, 'id': 'froot loops w milk', 'src': '/static/foodstim60/froot loops w milk.jpg', 'key': 'u', 'origWidth': 410, 'origHeight': 410, 'width': 410, 'height': 410, 'widthPercent': 0.45, 'rescaleHeight': False, 'trialN': 38, 'loaded': True, 'loadedTime': 2681, 'positionName': 'LEFT', 'positionCoords': [511.6, 335], 'bid': 8.08}, {'imgObject': {}, 'id': 'veggieswithdip', 'src': '/static/foodstim60/veggieswithdip.jpg', 'key': 'i', 'origWidth': 409, 'origHeight': 409, 'width': 409, 'height': 409, 'widthPercent': 0.45, 'rescaleHeight': False, 'trialN': 38, 'loaded': True, 'loadedTime': 2512.9000000953674, 'positionName': 'RIGHT', 'positionCoords': [998.4, 335.5], 'bid': 7.2}]",78932.79999995232,1669831325718,froot loops w milk,veggieswithdip,8.08,7.2,-0.8799999999999999,veggieswithdip,1371.9000000953674,1373,1372.4000000953674,True,i,80814.79999995232,1882.0,1669831327600,1882,HRV,HRV_0121,2022-11-30 18:06:59
39,"[{'imgObject': {}, 'id': 'salad w chicken', 'src': '/static/foodstim60/salad w chicken.jpg', 'key': 'u', 'origWidth': 411, 'origHeight': 411, 'width': 411, 'height': 411, 'widthPercent': 0.45, 'rescaleHeight': False, 'trialN': 39, 'loaded': True, 'loadedTime': 2541.7999999523163, 'positionName': 'LEFT', 'positionCoords': [510.6, 334.5], 'bid': 4.11}, {'imgObject': {}, 'id': 'granola w milk', 'src': '/static/foodstim60/granola w milk.jpg', 'key': 'i', 'origWidth': 410, 'origHeight': 410, 'width': 410, 'height': 410, 'widthPercent': 0.45, 'rescaleHeight': False, 'trialN': 39, 'loaded': True, 'loadedTime': 2683.2999999523163, 'positionName': 'RIGHT', 'positionCoords': [998.4, 335], 'bid': 3.5700000000000003}]",80815.0,1669831327600,salad w chicken,granola w milk,4.11,3.5700000000000003,-0.54,salad w chicken,1866.0,1867,1866.2999999523163,True,u,83183.90000009537,2368.9000000953674,1669831329969,2369,HRV,HRV_0121,2022-11-30 18:06:59
40,"[{'imgObject': {}, 'id': 'popsicles', 'src': '/static/foodstim60/popsicles.jpg', 'key': 'u', 'origWidth': 410, 'origHeight': 410, 'width': 410, 'height': 410, 'widthPercent': 0.45, 'rescaleHeight': False, 'trialN': 40, 'loaded': True, 'loadedTime': 2708.9000000953674, 'positionName': 'LEFT', 'positionCoords': [511.6, 335], 'bid': 2.2}, {'imgObject': {}, 'id': 'grilled chicken strips', 'src': '/static/foodstim60/grilled chicken strips.jpg', 'key': 'i', 'origWidth': 410, 'origHeight': 411, 'width': 410, 'height': 411, 'widthPercent': 0.45, 'rescaleHeight': False, 'trialN': 40, 'loaded': True, 'loadedTime': 2598.9000000953674, 'positionName': 'RIGHT', 'positionCoords': [998.4, 334.5], 'bid': 6.48}]",83184.09999990463,1669831329970,popsicles,grilled chicken strips,2.2,6.48,4.28,grilled chicken strips,1576.7000000476837,1577,1577.1000001430511,True,i,85265.70000004768,2081.600000143051,1669831332051,2081,HRV,HRV_0121,2022-11-30 18:06:59
41,"[{'imgObject': {}, 'id': 'cocktailshrimp', 'src': '/static/foodstim60/cocktailshrimp.jpg', 'key': 'u', 'origWidth': 410, 'origHeight': 410, 'width': 410, 'height': 410, 'widthPercent': 0.45, 'rescaleHeight': False, 'trialN': 41, 'loaded': True, 'loadedTime': 2451.7000000476837, 'positionName': 'LEFT', 'positionCoords': [511.6, 335], 'bid': 6.76}, {'imgObject': {}, 'id': 'granola w milk', 'src': '/static/foodstim60/granola w milk.jpg', 'key': 'i', 'origWidth': 410, 'origHeight': 410, 'width': 410, 'height': 410, 'widthPercent': 0.45, 'rescaleHeight': False, 'trialN': 41, 'loaded': True, 'loadedTime': 2683.4000000953674, 'positionName': 'RIGHT', 'positionCoords': [998.4, 335], 'bid': 3.5700000000000003}]",85265.79999995232,1669831332051,cocktailshrimp,granola w milk,6.76,3.5700000000000003,-3.1899999999999995,cocktailshrimp,1119.0,1120,1119.2999999523163,True,u,86900.70000004768,1634.9000000953674,1669831333686,1635,HRV,HRV_0121,2022-11-30 18:06:59
42,"[{'imgObject': {}, 'id': 'turkeysandwich', 'src': '/static/foodstim60/turkeysandwich.jpg', 'key': 'u', 'origWidth': 409, 'origHeight': 409, 'width': 409, 'height': 409, 'widthPercent': 0.45, 'rescaleHeight': False, 'trialN': 42, 'loaded': True, 'loadedTime': 2684.0999999046326, 'positionName': 'LEFT', 'positionCoords': [512.6, 335.5], 'bid': 7.67}, {'imgObject': {}, 'id': 'fruitsalad', 'src': '/static/foodstim60/fruitsalad.jpg', 'key': 'i', 'origWidth': 410, 'origHeight': 410, 'width': 410, 'height': 410, 'widthPercent': 0.45, 'rescaleHeight': False, 'trialN': 42, 'loaded': True, 'loadedTime': 2638.2999999523163, 'positionName': 'RIGHT', 'positionCoords': [998.4, 335], 'bid': 6.83}]",86900.90000009537,1669831333686,turkeysandwich,fruitsalad,7.67,6.83,-0.8399999999999999,turkeysandwich,1852.1999998092651,1853,1852.5,True,u,89266.40000009537,2365.5,1669831336052,2366,HRV,HRV_0121,2022-11-30 18:06:59
43,"[{'imgObject': {}, 'id': 'Tribe humus pita', 'src': '/static/foodstim60/Tribe humus pita.jpg', 'key': 'u', 'origWidth': 411, 'origHeight': 411, 'width': 411, 'height': 411, 'widthPercent': 0.45, 'rescaleHeight': False, 'trialN': 43, 'loaded': True, 'loadedTime': 2689.4000000953674, 'positionName': 'LEFT', 'positionCoords': [510.6, 334.5], 'bid': 0.11}, {'imgObject': {}, 'id': 'sushi w_condiments', 'src': '/static/foodstim60/sushi w_condiments.jpg', 'key': 'i', 'origWidth': 410, 'origHeight': 410, 'width': 410, 'height': 410, 'widthPercent': 0.45, 'rescaleHeight': False, 'trialN': 43, 'loaded': True, 'loadedTime': 2601, 'positionName': 'RIGHT', 'positionCoords': [998.4, 335], 'bid': 0.05}]",89266.59999990463,1669831336052,Tribe humus pita,sushi w_condiments,0.11,0.05,-0.06,Tribe humus pita,1886.2000000476837,1874,1886.6000001430511,True,u,91666.5,2399.9000000953674,1669831338439,2387,HRV,HRV_0121,2022-11-30 18:06:59
44,"[{'imgObject': {}, 'id': 'Grapes', 'src': '/static/foodstim60/Grapes.jpg', 'key': 'u', 'origWidth': 411, 'origHeight': 411, 'width': 411, 'height': 411, 'widthPercent': 0.45, 'rescaleHeight': False, 'trialN': 44, 'loaded': True, 'loadedTime': 2689.7999999523163, 'positionName': 'LEFT', 'positionCoords': [510.6, 334.5], 'bid': 6.51}, {'imgObject': {}, 'id': 'luckycharms', 'src': '/static/foodstim60/luckycharms.jpg', 'key': 'i', 'origWidth': 410, 'origHeight': 409, 'width': 410, 'height': 409, 'widthPercent': 0.45, 'rescaleHeight': False, 'trialN': 44, 'loaded': True, 'loadedTime': 2642.9000000953674, 'positionName': 'RIGHT', 'positionCoords': [998.4, 335.5], 'bid': 8.06}]",91666.70000004768,1669831338440,Grapes,luckycharms,6.51,8.06,1.5500000000000007,luckycharms,1286.2000000476837,1286,1286.5,True,i,93467.09999990463,1800.3999998569489,1669831340240,1800,HRV,HRV_0121,2022-11-30 18:06:59
45,"[{'imgObject': {}, 'id': 'baked potato', 'src': '/static/foodstim60/baked potato.jpg', 'key': 'u', 'origWidth': 409, 'origHeight': 410, 'width': 409, 'height': 410, 'widthPercent': 0.45, 'rescaleHeight': False, 'trialN': 45, 'loaded': True, 'loadedTime': 2690.9000000953674, 'positionName': 'LEFT', 'positionCoords': [512.6, 335], 'bid': 4.98}, {'imgObject': {}, 'id': 'chickenfingers', 'src': '/static/foodstim60/chickenfingers.jpg', 'key': 'i', 'origWidth': 410, 'origHeight': 410, 'width': 410, 'height': 410, 'widthPercent': 0.45, 'rescaleHeight': False, 'trialN': 45, 'loaded': True, 'loadedTime': 2696.2999999523163, 'positionName': 'RIGHT', 'positionCoords': [998.4, 335], 'bid': 7.59}]",93467.29999995232,1669831340240,baked potato,chickenfingers,4.98,7.59,2.6099999999999994,chickenfingers,1157.5,1158,1157.9000000953674,True,i,95133.0,1665.7000000476837,1669831341906,1666,HRV,HRV_0121,2022-11-30 18:06:59
46,"[{'imgObject': {}, 'id': 'blackbeanswithrice', 'src': '/static/foodstim60/blackbeanswithrice.jpg', 'key': 'u', 'origWidth': 410, 'origHeight': 410, 'width': 410, 'height': 410, 'widthPercent': 0.45, 'rescaleHeight': False, 'trialN': 46, 'loaded': True, 'loadedTime': 2672.5999999046326, 'positionName': 'LEFT', 'positionCoords': [511.6, 335], 'bid': 3.4}, {'imgObject': {}, 'id': 'olives', 'src': '/static/foodstim60/olives.jpg', 'key': 'i', 'origWidth': 410, 'origHeight': 410, 'width': 410, 'height': 410, 'widthPercent': 0.45, 'rescaleHeight': False, 'trialN': 46, 'loaded': True, 'loadedTime': 2701.5, 'positionName': 'RIGHT', 'positionCoords': [998.4, 335], 'bid': 0}]",95133.20000004768,1669831341906,blackbeanswithrice,olives,3.4,0.0,-3.4,blackbeanswithrice,1259.5999999046326,1260,1260.0,True,u,96899.29999995232,1766.0999999046326,1669831343672,1766,HRV,HRV_0121,2022-11-30 18:06:59
47,"[{'imgObject': {}, 'id': 'pear', 'src': '/static/foodstim60/pear.jpg', 'key': 'u', 'origWidth': 411, 'origHeight': 410, 'width': 411, 'height': 410, 'widthPercent': 0.45, 'rescaleHeight': False, 'trialN': 47, 'loaded': True, 'loadedTime': 2673.2000000476837, 'positionName': 'LEFT', 'positionCoords': [510.6, 335], 'bid': 6.71}, {'imgObject': {}, 'id': 'bagel plain', 'src': '/static/foodstim60/bagel plain.jpg', 'key': 'i', 'origWidth': 410, 'origHeight': 410, 'width': 410, 'height': 410, 'widthPercent': 0.45, 'rescaleHeight': False, 'trialN': 47, 'loaded': True, 'loadedTime': 2652.2999999523163, 'positionName': 'RIGHT', 'positionCoords': [998.4, 335], 'bid': 6.640000000000001}]",96899.5,1669831343672,pear,bagel plain,6.71,6.640000000000001,-0.0699999999999994,bagel plain,1325.2999999523163,1326,1325.7000000476837,True,i,98733.59999990463,1834.0999999046326,1669831345507,1835,HRV,HRV_0121,2022-11-30 18:06:59
48,"[{'imgObject': {}, 'id': 'banana', 'src': '/static/foodstim60/banana.jpg', 'key': 'u', 'origWidth': 410, 'origHeight': 410, 'width': 410, 'height': 410, 'widthPercent': 0.45, 'rescaleHeight': False, 'trialN': 48, 'loaded': True, 'loadedTime': 2474.7000000476837, 'positionName': 'LEFT', 'positionCoords': [511.6, 335], 'bid': 3.54}, {'imgObject': {}, 'id': 'seaweed', 'src': '/static/foodstim60/seaweed.jpg', 'key': 'i', 'origWidth': 410, 'origHeight': 410, 'width': 410, 'height': 410, 'widthPercent': 0.45, 'rescaleHeight': False, 'trialN': 48, 'loaded': True, 'loadedTime': 2550, 'positionName': 'RIGHT', 'positionCoords': [998.4, 335], 'bid': 1.39}]",98733.70000004768,1669831345507,banana,seaweed,3.54,1.39,-2.1500000000000004,banana,1387.2000000476837,1387,1387.5,True,u,100633.70000004768,1900.0,1669831347407,1900,HRV,HRV_0121,2022-11-30 18:06:59
49,"[{'imgObject': {}, 'id': 'raspberries', 'src': '/static/foodstim60/raspberries.jpg', 'key': 'u', 'origWidth': 411, 'origHeight': 411, 'width': 411, 'height': 411, 'widthPercent': 0.45, 'rescaleHeight': False, 'trialN': 49, 'loaded': True, 'loadedTime': 2624.5, 'positionName': 'LEFT', 'positionCoords': [510.6, 334.5], 'bid': 5.8100000000000005}, {'imgObject': {}, 'id': 'olives', 'src': '/static/foodstim60/olives.jpg', 'key': 'i', 'origWidth': 410, 'origHeight': 410, 'width': 410, 'height': 410, 'widthPercent': 0.45, 'rescaleHeight': False, 'trialN': 49, 'loaded': True, 'loadedTime': 2696.4000000953674, 'positionName': 'RIGHT', 'positionCoords': [998.4, 335], 'bid': 0}]",100634.0,1669831347407,raspberries,olives,5.8100000000000005,0.0,-5.8100000000000005,raspberries,982.7999999523163,983,983.2000000476837,True,u,102122.70000004768,1488.7000000476837,1669831348896,1489,HRV,HRV_0121,2022-11-30 18:06:59
50,"[{'imgObject': {}, 'id': 'hashbrowns', 'src': '/static/foodstim60/hashbrowns.jpg', 'key': 'u', 'origWidth': 411, 'origHeight': 410, 'width': 411, 'height': 410, 'widthPercent': 0.45, 'rescaleHeight': False, 'trialN': 50, 'loaded': True, 'loadedTime': 2702.5999999046326, 'positionName': 'LEFT', 'positionCoords': [510.6, 335], 'bid': 4.94}, {'imgObject': {}, 'id': 'mashed potato', 'src': '/static/foodstim60/mashed potato.jpg', 'key': 'i', 'origWidth': 409, 'origHeight': 409, 'width': 409, 'height': 409, 'widthPercent': 0.45, 'rescaleHeight': False, 'trialN': 50, 'loaded': True, 'loadedTime': 2674.9000000953674, 'positionName': 'RIGHT', 'positionCoords': [998.4, 335.5], 'bid': 4.97}]",102122.90000009537,1669831348896,hashbrowns,mashed potato,4.94,4.97,0.02999999999999936,hashbrowns,1845.8999998569489,1846,1846.2999999523163,True,u,104482.59999990463,2359.699999809265,1669831351255,2359,HRV,HRV_0121,2022-11-30 18:06:59
51,"[{'imgObject': {}, 'id': 'Grapes', 'src': '/static/foodstim60/Grapes.jpg', 'key': 'u', 'origWidth': 411, 'origHeight': 411, 'width': 411, 'height': 411, 'widthPercent': 0.45, 'rescaleHeight': False, 'trialN': 51, 'loaded': True, 'loadedTime': 2690.5999999046326, 'positionName': 'LEFT', 'positionCoords': [510.6, 334.5], 'bid': 6.51}, {'imgObject': {}, 'id': 'grilled chicken strips', 'src': '/static/foodstim60/grilled chicken strips.jpg', 'key': 'i', 'origWidth': 410, 'origHeight': 411, 'width': 410, 'height': 411, 'widthPercent': 0.45, 'rescaleHeight': False, 'trialN': 51, 'loaded': True, 'loadedTime': 2591.5999999046326, 'positionName': 'RIGHT', 'positionCoords': [998.4, 334.5], 'bid': 6.48}]",104482.70000004768,1669831351256,Grapes,grilled chicken strips,6.51,6.48,-0.02999999999999936,grilled chicken strips,1462.0999999046326,1462,1462.2999999523163,True,i,106451.29999995232,1968.5999999046326,1669831353224,1968,HRV,HRV_0121,2022-11-30 18:06:59
52,"[{'imgObject': {}, 'id': 'luckycharms', 'src': '/static/foodstim60/luckycharms.jpg', 'key': 'u', 'origWidth': 410, 'origHeight': 409, 'width': 410, 'height': 409, 'widthPercent': 0.45, 'rescaleHeight': False, 'trialN': 52, 'loaded': True, 'loadedTime': 2642.9000000953674, 'positionName': 'LEFT', 'positionCoords': [511.6, 335.5], 'bid': 8.06}, {'imgObject': {}, 'id': 'pear', 'src': '/static/foodstim60/pear.jpg', 'key': 'i', 'origWidth': 411, 'origHeight': 410, 'width': 411, 'height': 410, 'widthPercent': 0.45, 'rescaleHeight': False, 'trialN': 52, 'loaded': True, 'loadedTime': 2674.0999999046326, 'positionName': 'RIGHT', 'positionCoords': [998.4, 335], 'bid': 6.71}]",106451.5,1669831353224,luckycharms,pear,8.06,6.71,-1.3500000000000005,luckycharms,2085.2000000476837,2086,2085.5,True,u,109049.70000004768,2598.2000000476837,1669831355823,2599,HRV,HRV_0121,2022-11-30 18:06:59
53,"[{'imgObject': {}, 'id': 'mango', 'src': '/static/foodstim60/mango.jpg', 'key': 'u', 'origWidth': 411, 'origHeight': 411, 'width': 411, 'height': 411, 'widthPercent': 0.45, 'rescaleHeight': False, 'trialN': 53, 'loaded': True, 'loadedTime': 2479.2999999523163, 'positionName': 'LEFT', 'positionCoords': [510.6, 334.5], 'bid': 6.38}, {'imgObject': {}, 'id': 'roastedpotatoes', 'src': '/static/foodstim60/roastedpotatoes.jpg', 'key': 'i', 'origWidth': 409, 'origHeight': 410, 'width': 409, 'height': 410, 'widthPercent': 0.45, 'rescaleHeight': False, 'trialN': 53, 'loaded': True, 'loadedTime': 2572.7000000476837, 'positionName': 'RIGHT', 'positionCoords': [998.4, 335], 'bid': 5.0200000000000005}]",109050.0,1669831355823,mango,roastedpotatoes,6.38,5.0200000000000005,-1.3599999999999994,roastedpotatoes,2207.0,2207,2207.4000000953674,True,i,111766.40000009537,2716.4000000953674,1669831358539,2716,HRV,HRV_0121,2022-11-30 18:06:59
54,"[{'imgObject': {}, 'id': 'bagel and cc', 'src': '/static/foodstim60/bagel and cc.jpg', 'key': 'u', 'origWidth': 410, 'origHeight': 410, 'width': 410, 'height': 410, 'widthPercent': 0.45, 'rescaleHeight': False, 'trialN': 54, 'loaded': True, 'loadedTime': 2423.2999999523163, 'positionName': 'LEFT', 'positionCoords': [511.6, 335], 'bid': 7.18}, {'imgObject': {}, 'id': 'veggieswithdip', 'src': '/static/foodstim60/veggieswithdip.jpg', 'key': 'i', 'origWidth': 409, 'origHeight': 409, 'width': 409, 'height': 409, 'widthPercent': 0.45, 'rescaleHeight': False, 'trialN': 54, 'loaded': True, 'loadedTime': 2512.2999999523163, 'positionName': 'RIGHT', 'positionCoords': [998.4, 335.5], 'bid': 7.2}]",111766.59999990463,1669831358539,bagel and cc,veggieswithdip,7.18,7.2,0.020000000000000462,veggieswithdip,2186.100000143051,2187,2186.5,True,i,114465.70000004768,2699.100000143051,1669831361239,2700,HRV,HRV_0121,2022-11-30 18:06:59
55,"[{'imgObject': {}, 'id': 'cheerios', 'src': '/static/foodstim60/cheerios.jpg', 'key': 'u', 'origWidth': 409, 'origHeight': 410, 'width': 409, 'height': 410, 'widthPercent': 0.45, 'rescaleHeight': False, 'trialN': 55, 'loaded': True, 'loadedTime': 2647.9000000953674, 'positionName': 'LEFT', 'positionCoords': [512.6, 335], 'bid': 5.01}, {'imgObject': {}, 'id': 'baked potato', 'src': '/static/foodstim60/baked potato.jpg', 'key': 'i', 'origWidth': 409, 'origHeight': 410, 'width': 409, 'height': 410, 'widthPercent': 0.45, 'rescaleHeight': False, 'trialN': 55, 'loaded': True, 'loadedTime': 2695.2000000476837, 'positionName': 'RIGHT', 'positionCoords': [998.4, 335], 'bid': 4.98}]",114466.0,1669831361239,cheerios,baked potato,5.01,4.98,-0.02999999999999936,cheerios,1630.7999999523163,1631,1631.0999999046326,True,u,116600.29999995232,2134.2999999523163,1669831363373,2134,HRV,HRV_0121,2022-11-30 18:06:59
56,"[{'imgObject': {}, 'id': 'luckycharms', 'src': '/static/foodstim60/luckycharms.jpg', 'key': 'u', 'origWidth': 410, 'origHeight': 409, 'width': 410, 'height': 409, 'widthPercent': 0.45, 'rescaleHeight': False, 'trialN': 56, 'loaded': True, 'loadedTime': 2638.5999999046326, 'positionName': 'LEFT', 'positionCoords': [511.6, 335.5], 'bid': 8.06}, {'imgObject': {}, 'id': 'froot loops w milk', 'src': '/static/foodstim60/froot loops w milk.jpg', 'key': 'i', 'origWidth': 410, 'origHeight': 410, 'width': 410, 'height': 410, 'widthPercent': 0.45, 'rescaleHeight': False, 'trialN': 56, 'loaded': True, 'loadedTime': 2682.2999999523163, 'positionName': 'RIGHT', 'positionCoords': [998.4, 335], 'bid': 8.08}]",116600.40000009537,1669831363373,luckycharms,froot loops w milk,8.06,8.08,0.019999999999999574,luckycharms,1280.2999999523163,1281,1280.5,True,u,118387.70000004768,1787.2999999523163,1669831365161,1788,HRV,HRV_0121,2022-11-30 18:06:59
57,"[{'imgObject': {}, 'id': 'blueberries', 'src': '/static/foodstim60/blueberries.jpg', 'key': 'u', 'origWidth': 411, 'origHeight': 411, 'width': 411, 'height': 411, 'widthPercent': 0.45, 'rescaleHeight': False, 'trialN': 57, 'loaded': True, 'loadedTime': 2582.5999999046326, 'positionName': 'LEFT', 'positionCoords': [510.6, 334.5], 'bid': 5.86}, {'imgObject': {}, 'id': 'sushi w_condiments', 'src': '/static/foodstim60/sushi w_condiments.jpg', 'key': 'i', 'origWidth': 410, 'origHeight': 410, 'width': 410, 'height': 410, 'widthPercent': 0.45, 'rescaleHeight': False, 'trialN': 57, 'loaded': True, 'loadedTime': 2600.9000000953674, 'positionName': 'RIGHT', 'positionCoords': [998.4, 335], 'bid': 0.05}]",118387.90000009537,1669831365161,blueberries,sushi w_condiments,5.86,0.05,-5.8100000000000005,blueberries,1420.7999999523163,1421,1421.0999999046326,True,u,120325.29999995232,1937.3999998569489,1669831367098,1937,HRV,HRV_0121,2022-11-30 18:06:59
58,"[{'imgObject': {}, 'id': 'bagel and cc', 'src': '/static/foodstim60/bagel and cc.jpg', 'key': 'u', 'origWidth': 410, 'origHeight': 410, 'width': 410, 'height': 410, 'widthPercent': 0.45, 'rescaleHeight': False, 'trialN': 58, 'loaded': True, 'loadedTime': 2423.2000000476837, 'positionName': 'LEFT', 'positionCoords': [511.6, 335], 'bid': 7.18}, {'imgObject': {}, 'id': 'cocktailshrimp', 'src': '/static/foodstim60/cocktailshrimp.jpg', 'key': 'i', 'origWidth': 410, 'origHeight': 410, 'width': 410, 'height': 410, 'widthPercent': 0.45, 'rescaleHeight': False, 'trialN': 58, 'loaded': True, 'loadedTime': 2451.7000000476837, 'positionName': 'RIGHT', 'positionCoords': [998.4, 335], 'bid': 6.76}]",120325.5,1669831367098,bagel and cc,cocktailshrimp,7.18,6.76,-0.41999999999999993,bagel and cc,1507.5,1508,1507.7999999523163,True,u,122341.90000009537,2016.4000000953674,1669831369115,2017,HRV,HRV_0121,2022-11-30 18:06:59
59,"[{'imgObject': {}, 'id': 'rigatoni and sauce', 'src': '/static/foodstim60/rigatoni and sauce.jpg', 'key': 'u', 'origWidth': 410, 'origHeight': 411, 'width': 410, 'height': 411, 'widthPercent': 0.45, 'rescaleHeight': False, 'trialN': 59, 'loaded': True, 'loadedTime': 2433.7999999523163, 'positionName': 'LEFT', 'positionCoords': [511.6, 334.5], 'bid': 6.2}, {'imgObject': {}, 'id': 'cherry tomato', 'src': '/static/foodstim60/cherry tomato.jpg', 'key': 'i', 'origWidth': 410, 'origHeight': 410, 'width': 410, 'height': 410, 'widthPercent': 0.45, 'rescaleHeight': False, 'trialN': 59, 'loaded': True, 'loadedTime': 2619.2000000476837, 'positionName': 'RIGHT', 'positionCoords': [998.4, 335], 'bid': 5}]",122342.09999990463,1669831369115,rigatoni and sauce,cherry tomato,6.2,5.0,-1.2000000000000002,rigatoni and sauce,1490.7000000476837,1491,1491.0,True,u,124340.90000009537,1998.8000001907349,1669831371114,1999,HRV,HRV_0121,2022-11-30 18:06:59
60,"[{'imgObject': {}, 'id': 'turkeysandwich', 'src': '/static/foodstim60/turkeysandwich.jpg', 'key': 'u', 'origWidth': 409, 'origHeight': 409, 'width': 409, 'height': 409, 'widthPercent': 0.45, 'rescaleHeight': False, 'trialN': 60, 'loaded': True, 'loadedTime': 2684.2000000476837, 'positionName': 'LEFT', 'positionCoords': [512.6, 335.5], 'bid': 7.67}, {'imgObject': {}, 'id': 'chickenfingers', 'src': '/static/foodstim60/chickenfingers.jpg', 'key': 'i', 'origWidth': 410, 'origHeight': 410, 'width': 410, 'height': 410, 'widthPercent': 0.45, 'rescaleHeight': False, 'trialN': 60, 'loaded': True, 'loadedTime': 2696.0999999046326, 'positionName': 'RIGHT', 'positionCoords': [998.4, 335], 'bid': 7.59}]",124341.0,1669831371114,turkeysandwich,chickenfingers,7.67,7.59,-0.08000000000000007,chickenfingers,1067.7000000476837,1068,1068.0,True,i,125916.5,1575.5,1669831372689,1575,HRV,HRV_0121,2022-11-30 18:06:59
61,"[{'imgObject': {}, 'id': 'eggs', 'src': '/static/foodstim60/eggs.jpg', 'key': 'u', 'origWidth': 409, 'origHeight': 409, 'width': 409, 'height': 409, 'widthPercent': 0.45, 'rescaleHeight': False, 'trialN': 61, 'loaded': True, 'loadedTime': 2410.9000000953674, 'positionName': 'LEFT', 'positionCoords': [512.6, 335.5], 'bid': 3.14}, {'imgObject': {}, 'id': 'bagel plain', 'src': '/static/foodstim60/bagel plain.jpg', 'key': 'i', 'origWidth': 410, 'origHeight': 410, 'width': 410, 'height': 410, 'widthPercent': 0.45, 'rescaleHeight': False, 'trialN': 61, 'loaded': True, 'loadedTime': 2656, 'positionName': 'RIGHT', 'positionCoords': [998.4, 335], 'bid': 6.640000000000001}]",125916.70000004768,1669831372690,eggs,bagel plain,3.14,6.640000000000001,3.5000000000000004,bagel plain,932.0999999046326,932,932.2999999523163,True,i,127365.79999995232,1449.0999999046326,1669831374139,1449,HRV,HRV_0121,2022-11-30 18:06:59
62,"[{'imgObject': {}, 'id': 'veggieswithdip', 'src': '/static/foodstim60/veggieswithdip.jpg', 'key': 'u', 'origWidth': 409, 'origHeight': 409, 'width': 409, 'height': 409, 'widthPercent': 0.45, 'rescaleHeight': False, 'trialN': 62, 'loaded': True, 'loadedTime': 2517.0999999046326, 'positionName': 'LEFT', 'positionCoords': [512.6, 335.5], 'bid': 7.2}, {'imgObject': {}, 'id': 'mac & cheese', 'src': '/static/foodstim60/mac & cheese.jpg', 'key': 'i', 'origWidth': 410, 'origHeight': 410, 'width': 410, 'height': 410, 'widthPercent': 0.45, 'rescaleHeight': False, 'trialN': 62, 'loaded': True, 'loadedTime': 2493.7999999523163, 'positionName': 'RIGHT', 'positionCoords': [998.4, 335], 'bid': 6.36}]",127366.0,1669831374139,veggieswithdip,mac & cheese,7.2,6.36,-0.8399999999999999,veggieswithdip,2162.7999999523163,2163,2163.0999999046326,True,u,130044.40000009537,2678.4000000953674,1669831376817,2678,HRV,HRV_0121,2022-11-30 18:06:59
63,"[{'imgObject': {}, 'id': 'raspberries', 'src': '/static/foodstim60/raspberries.jpg', 'key': 'u', 'origWidth': 411, 'origHeight': 411, 'width': 411, 'height': 411, 'widthPercent': 0.45, 'rescaleHeight': False, 'trialN': 63, 'loaded': True, 'loadedTime': 2620.2000000476837, 'positionName': 'LEFT', 'positionCoords': [510.6, 334.5], 'bid': 5.8100000000000005}, {'imgObject': {}, 'id': 'shreddedwheatwithmilk', 'src': '/static/foodstim60/shreddedwheatwithmilk.jpg', 'key': 'i', 'origWidth': 410, 'origHeight': 410, 'width': 410, 'height': 410, 'widthPercent': 0.45, 'rescaleHeight': False, 'trialN': 63, 'loaded': True, 'loadedTime': 2521.2000000476837, 'positionName': 'RIGHT', 'positionCoords': [998.4, 335], 'bid': 4.38}]",130044.59999990463,1669831376818,raspberries,shreddedwheatwithmilk,5.8100000000000005,4.38,-1.4300000000000006,raspberries,1788.2000000476837,1788,1788.4000000953674,True,u,132339.70000004768,2295.100000143051,1669831379113,2295,HRV,HRV_0121,2022-11-30 18:06:59
64,"[{'imgObject': {}, 'id': 'raspberries', 'src': '/static/foodstim60/raspberries.jpg', 'key': 'u', 'origWidth': 411, 'origHeight': 411, 'width': 411, 'height': 411, 'widthPercent': 0.45, 'rescaleHeight': False, 'trialN': 64, 'loaded': True, 'loadedTime': 2620.4000000953674, 'positionName': 'LEFT', 'positionCoords': [510.6, 334.5], 'bid': 5.8100000000000005}, {'imgObject': {}, 'id': 'pear', 'src': '/static/foodstim60/pear.jpg', 'key': 'i', 'origWidth': 411, 'origHeight': 410, 'width': 411, 'height': 410, 'widthPercent': 0.45, 'rescaleHeight': False, 'trialN': 64, 'loaded': True, 'loadedTime': 2673.9000000953674, 'positionName': 'RIGHT', 'positionCoords': [998.4, 335], 'bid': 6.71}]",132340.0,1669831379113,raspberries,pear,5.8100000000000005,6.71,0.8999999999999995,pear,981.0,981,981.4000000953674,True,i,133831.70000004768,1491.7000000476837,1669831380605,1492,HRV,HRV_0121,2022-11-30 18:06:59
65,"[{'imgObject': {}, 'id': 'blackbeanswithrice', 'src': '/static/foodstim60/blackbeanswithrice.jpg', 'key': 'u', 'origWidth': 410, 'origHeight': 410, 'width': 410, 'height': 410, 'widthPercent': 0.45, 'rescaleHeight': False, 'trialN': 65, 'loaded': True, 'loadedTime': 2673.0999999046326, 'positionName': 'LEFT', 'positionCoords': [511.6, 335], 'bid': 3.4}, {'imgObject': {}, 'id': 'banana', 'src': '/static/foodstim60/banana.jpg', 'key': 'i', 'origWidth': 410, 'origHeight': 410, 'width': 410, 'height': 410, 'widthPercent': 0.45, 'rescaleHeight': False, 'trialN': 65, 'loaded': True, 'loadedTime': 2479.2000000476837, 'positionName': 'RIGHT', 'positionCoords': [998.4, 335], 'bid': 3.54}]",133831.90000009537,1669831380605,blackbeanswithrice,banana,3.4,3.54,0.14000000000000012,banana,928.8999998569489,929,929.1999998092651,True,i,135264.79999995232,1432.8999998569489,1669831382038,1433,HRV,HRV_0121,2022-11-30 18:06:59
66,"[{'imgObject': {}, 'id': 'mashed potato', 'src': '/static/foodstim60/mashed potato.jpg', 'key': 'u', 'origWidth': 409, 'origHeight': 409, 'width': 409, 'height': 409, 'widthPercent': 0.45, 'rescaleHeight': False, 'trialN': 66, 'loaded': True, 'loadedTime': 2678.7999999523163, 'positionName': 'LEFT', 'positionCoords': [512.6, 335.5], 'bid': 4.97}, {'imgObject': {}, 'id': 'shreddedwheatwithmilk', 'src': '/static/foodstim60/shreddedwheatwithmilk.jpg', 'key': 'i', 'origWidth': 410, 'origHeight': 410, 'width': 410, 'height': 410, 'widthPercent': 0.45, 'rescaleHeight': False, 'trialN': 66, 'loaded': True, 'loadedTime': 2521.7999999523163, 'positionName': 'RIGHT', 'positionCoords': [998.4, 335], 'bid': 4.38}]",135265.0,1669831382038,mashed potato,shreddedwheatwithmilk,4.97,4.38,-0.5899999999999999,shreddedwheatwithmilk,2343.5999999046326,2344,2344.0,True,i,138110.20000004768,2845.2000000476837,1669831384883,2845,HRV,HRV_0121,2022-11-30 18:06:59
67,"[{'imgObject': {}, 'id': 'sweetpotato', 'src': '/static/foodstim60/sweetpotato.jpg', 'key': 'u', 'origWidth': 410, 'origHeight': 410, 'width': 410, 'height': 410, 'widthPercent': 0.45, 'rescaleHeight': False, 'trialN': 67, 'loaded': True, 'loadedTime': 2664.0999999046326, 'positionName': 'LEFT', 'positionCoords': [511.6, 335], 'bid': 0}, {'imgObject': {}, 'id': 'sushi w_condiments', 'src': '/static/foodstim60/sushi w_condiments.jpg', 'key': 'i', 'origWidth': 410, 'origHeight': 410, 'width': 410, 'height': 410, 'widthPercent': 0.45, 'rescaleHeight': False, 'trialN': 67, 'loaded': True, 'loadedTime': 2601.0999999046326, 'positionName': 'RIGHT', 'positionCoords': [998.4, 335], 'bid': 0.05}]",138110.40000009537,1669831384883,sweetpotato,sushi w_condiments,0.0,0.05,0.05,sweetpotato,1602.5,1603,1602.7999999523163,True,u,140216.29999995232,2105.899999856949,1669831386989,2106,HRV,HRV_0121,2022-11-30 18:06:59
68,"[{'imgObject': {}, 'id': 'grilled chicken strips', 'src': '/static/foodstim60/grilled chicken strips.jpg', 'key': 'u', 'origWidth': 410, 'origHeight': 411, 'width': 410, 'height': 411, 'widthPercent': 0.45, 'rescaleHeight': False, 'trialN': 68, 'loaded': True, 'loadedTime': 2595.0999999046326, 'positionName': 'LEFT', 'positionCoords': [511.6, 334.5], 'bid': 6.48}, {'imgObject': {}, 'id': 'hotdog w must', 'src': '/static/foodstim60/hotdog w must.jpg', 'key': 'i', 'origWidth': 409, 'origHeight': 409, 'width': 409, 'height': 409, 'widthPercent': 0.45, 'rescaleHeight': False, 'trialN': 68, 'loaded': True, 'loadedTime': 2703.4000000953674, 'positionName': 'RIGHT', 'positionCoords': [998.4, 335.5], 'bid': 6.5200000000000005}]",140216.5,1669831386989,grilled chicken strips,hotdog w must,6.48,6.5200000000000005,0.040000000000000036,grilled chicken strips,1520.2000000476837,1521,1520.5,True,u,142248.20000004768,2031.7000000476837,1669831389021,2032,HRV,HRV_0121,2022-11-30 18:06:59
69,"[{'imgObject': {}, 'id': 'mango', 'src': '/static/foodstim60/mango.jpg', 'key': 'u', 'origWidth': 411, 'origHeight': 411, 'width': 411, 'height': 411, 'widthPercent': 0.45, 'rescaleHeight': False, 'trialN': 69, 'loaded': True, 'loadedTime': 2488.2000000476837, 'positionName': 'LEFT', 'positionCoords': [510.6, 334.5], 'bid': 6.38}, {'imgObject': {}, 'id': 'cherries', 'src': '/static/foodstim60/cherries.jpg', 'key': 'i', 'origWidth': 410, 'origHeight': 411, 'width': 410, 'height': 411, 'widthPercent': 0.45, 'rescaleHeight': False, 'trialN': 69, 'loaded': True, 'loadedTime': 2704.2999999523163, 'positionName': 'RIGHT', 'positionCoords': [998.4, 334.5], 'bid': 6.41}]",142248.29999995232,1669831389021,mango,cherries,6.38,6.41,0.03000000000000025,cherries,2208.5,2209,2208.9000000953674,True,i,144966.79999995232,2718.5,1669831391740,2719,HRV,HRV_0121,2022-11-30 18:06:59
70,"[{'imgObject': {}, 'id': 'raisin bran w milk', 'src': '/static/foodstim60/raisin bran w milk.jpg', 'key': 'u', 'origWidth': 411, 'origHeight': 411, 'width': 411, 'height': 411, 'widthPercent': 0.45, 'rescaleHeight': False, 'trialN': 70, 'loaded': True, 'loadedTime': 2704.5999999046326, 'positionName': 'LEFT', 'positionCoords': [510.6, 334.5], 'bid': 5.72}, {'imgObject': {}, 'id': 'baked potato', 'src': '/static/foodstim60/baked potato.jpg', 'key': 'i', 'origWidth': 409, 'origHeight': 410, 'width': 409, 'height': 410, 'widthPercent': 0.45, 'rescaleHeight': False, 'trialN': 70, 'loaded': True, 'loadedTime': 2694.9000000953674, 'positionName': 'RIGHT', 'positionCoords': [998.4, 335], 'bid': 4.98}]",144967.0,1669831391740,raisin bran w milk,baked potato,5.72,4.98,-0.7399999999999993,raisin bran w milk,1993.5999999046326,1994,1994.0,True,u,147464.59999990463,2497.5999999046326,1669831394238,2498,HRV,HRV_0121,2022-11-30 18:06:59
71,"[{'imgObject': {}, 'id': 'eggsalad', 'src': '/static/foodstim60/eggsalad.jpg', 'key': 'u', 'origWidth': 410, 'origHeight': 409, 'width': 410, 'height': 409, 'widthPercent': 0.45, 'rescaleHeight': False, 'trialN': 71, 'loaded': True, 'loadedTime': 2609.4000000953674, 'positionName': 'LEFT', 'positionCoords': [511.6, 335.5], 'bid': 1.65}, {'imgObject': {}, 'id': 'granola w milk', 'src': '/static/foodstim60/granola w milk.jpg', 'key': 'i', 'origWidth': 410, 'origHeight': 410, 'width': 410, 'height': 410, 'widthPercent': 0.45, 'rescaleHeight': False, 'trialN': 71, 'loaded': True, 'loadedTime': 2683.2999999523163, 'positionName': 'RIGHT', 'positionCoords': [998.4, 335], 'bid': 3.5700000000000003}]",147464.79999995232,1669831394238,eggsalad,granola w milk,1.65,3.5700000000000003,1.9200000000000004,granola w milk,1711.9000000953674,1712,1712.2000000476837,True,i,149683.29999995232,2218.5,1669831396456,2218,HRV,HRV_0121,2022-11-30 18:06:59
72,"[{'imgObject': {}, 'id': 'yogurt no spoon', 'src': '/static/foodstim60/yogurt no spoon.jpg', 'key': 'u', 'origWidth': 411, 'origHeight': 410, 'width': 411, 'height': 410, 'widthPercent': 0.45, 'rescaleHeight': False, 'trialN': 72, 'loaded': True, 'loadedTime': 2587.5999999046326, 'positionName': 'LEFT', 'positionCoords': [510.6, 335], 'bid': 7.27}, {'imgObject': {}, 'id': 'turkey sandwich', 'src': '/static/foodstim60/turkey sandwich.jpg', 'key': 'i', 'origWidth': 409, 'origHeight': 409, 'width': 409, 'height': 409, 'widthPercent': 0.45, 'rescaleHeight': False, 'trialN': 72, 'loaded': True, 'loadedTime': 2633.5999999046326, 'positionName': 'RIGHT', 'positionCoords': [998.4, 335.5], 'bid': 7.52}]",149683.59999990463,1669831396456,yogurt no spoon,turkey sandwich,7.27,7.52,0.25,yogurt no spoon,1917.0,1924,1917.4000000953674,True,u,152105.40000009537,2421.800000190735,1669831398885,2429,HRV,HRV_0121,2022-11-30 18:06:59
73,"[{'imgObject': {}, 'id': 'roastedpotatoes', 'src': '/static/foodstim60/roastedpotatoes.jpg', 'key': 'u', 'origWidth': 409, 'origHeight': 410, 'width': 409, 'height': 410, 'widthPercent': 0.45, 'rescaleHeight': False, 'trialN': 73, 'loaded': True, 'loadedTime': 2569.0999999046326, 'positionName': 'LEFT', 'positionCoords': [512.6, 335], 'bid': 5.0200000000000005}, {'imgObject': {}, 'id': 'ice cream sundae 002', 'src': '/static/foodstim60/ice cream sundae 002.jpg', 'key': 'i', 'origWidth': 409, 'origHeight': 409, 'width': 409, 'height': 409, 'widthPercent': 0.45, 'rescaleHeight': False, 'trialN': 73, 'loaded': True, 'loadedTime': 2460.7000000476837, 'positionName': 'RIGHT', 'positionCoords': [998.4, 335.5], 'bid': 2.84}]",152105.59999990463,1669831398885,roastedpotatoes,ice cream sundae 002,5.0200000000000005,2.84,-2.1800000000000006,roastedpotatoes,1455.1000001430511,1455,1455.5,True,u,154075.09999990463,1969.5,1669831400854,1969,HRV,HRV_0121,2022-11-30 18:06:59
74,"[{'imgObject': {}, 'id': 'burger', 'src': '/static/foodstim60/burger.jpg', 'key': 'u', 'origWidth': 409, 'origHeight': 409, 'width': 409, 'height': 409, 'widthPercent': 0.45, 'rescaleHeight': False, 'trialN': 74, 'loaded': True, 'loadedTime': 2398.2999999523163, 'positionName': 'LEFT', 'positionCoords': [512.6, 335.5], 'bid': 4.18}, {'imgObject': {}, 'id': 'shreddedwheatwithmilk', 'src': '/static/foodstim60/shreddedwheatwithmilk.jpg', 'key': 'i', 'origWidth': 410, 'origHeight': 410, 'width': 410, 'height': 410, 'widthPercent': 0.45, 'rescaleHeight': False, 'trialN': 74, 'loaded': True, 'loadedTime': 2521.7000000476837, 'positionName': 'RIGHT', 'positionCoords': [998.4, 335], 'bid': 4.38}]",154075.40000009537,1669831400855,burger,shreddedwheatwithmilk,4.18,4.38,0.20000000000000018,burger,1781.3999998569489,1781,1781.6999998092651,True,u,156371.20000004768,2295.7999999523163,1669831403150,2295,HRV,HRV_0121,2022-11-30 18:06:59
75,"[{'imgObject': {}, 'id': 'Grapes', 'src': '/static/foodstim60/Grapes.jpg', 'key': 'u', 'origWidth': 411, 'origHeight': 411, 'width': 411, 'height': 411, 'widthPercent': 0.45, 'rescaleHeight': False, 'trialN': 75, 'loaded': True, 'loadedTime': 2690.5, 'positionName': 'LEFT', 'positionCoords': [510.6, 334.5], 'bid': 6.51}, {'imgObject': {}, 'id': 'burrito', 'src': '/static/foodstim60/burrito.jpg', 'key': 'i', 'origWidth': 410, 'origHeight': 410, 'width': 410, 'height': 410, 'widthPercent': 0.45, 'rescaleHeight': False, 'trialN': 75, 'loaded': True, 'loadedTime': 2629.2000000476837, 'positionName': 'RIGHT', 'positionCoords': [998.4, 335], 'bid': 6.54}]",156371.29999995232,1669831403151,Grapes,burrito,6.51,6.54,0.03000000000000025,burrito,1997.4000000953674,1997,1997.7000000476837,True,i,158882.90000009537,2511.600000143051,1669831405662,2511,HRV,HRV_0121,2022-11-30 18:06:59
76,"[{'imgObject': {}, 'id': 'Grapes', 'src': '/static/foodstim60/Grapes.jpg', 'key': 'u', 'origWidth': 411, 'origHeight': 411, 'width': 411, 'height': 411, 'widthPercent': 0.45, 'rescaleHeight': False, 'trialN': 76, 'loaded': True, 'loadedTime': 2690.9000000953674, 'positionName': 'LEFT', 'positionCoords': [510.6, 334.5], 'bid': 6.51}, {'imgObject': {}, 'id': 'veggieswithdip', 'src': '/static/foodstim60/veggieswithdip.jpg', 'key': 'i', 'origWidth': 409, 'origHeight': 409, 'width': 409, 'height': 409, 'widthPercent': 0.45, 'rescaleHeight': False, 'trialN': 76, 'loaded': True, 'loadedTime': 2516.7000000476837, 'positionName': 'RIGHT', 'positionCoords': [998.4, 335.5], 'bid': 7.2}]",158883.09999990463,1669831405662,Grapes,veggieswithdip,6.51,7.2,0.6900000000000004,veggieswithdip,1173.4000000953674,1174,1173.9000000953674,True,i,160566.5,1683.4000000953674,1669831407346,1684,HRV,HRV_0121,2022-11-30 18:06:59
77,"[{'imgObject': {}, 'id': 'kiwi', 'src': '/static/foodstim60/kiwi.jpg', 'key': 'u', 'origWidth': 410, 'origHeight': 410, 'width': 410, 'height': 410, 'widthPercent': 0.45, 'rescaleHeight': False, 'trialN': 77, 'loaded': True, 'loadedTime': 2503.5, 'positionName': 'LEFT', 'positionCoords': [511.6, 335], 'bid': 1.35}, {'imgObject': {}, 'id': 'blackbeanswithrice', 'src': '/static/foodstim60/blackbeanswithrice.jpg', 'key': 'i', 'origWidth': 410, 'origHeight': 410, 'width': 410, 'height': 410, 'widthPercent': 0.45, 'rescaleHeight': False, 'trialN': 77, 'loaded': True, 'loadedTime': 2673.0999999046326, 'positionName': 'RIGHT', 'positionCoords': [998.4, 335], 'bid': 3.4}]",160566.79999995232,1669831407346,kiwi,blackbeanswithrice,1.35,3.4,2.05,blackbeanswithrice,2721.7999999523163,2722,2722.2000000476837,True,i,163799.70000004768,3232.9000000953674,1669831410579,3233,HRV,HRV_0121,2022-11-30 18:06:59
78,"[{'imgObject': {}, 'id': 'chicken nuggets2', 'src': '/static/foodstim60/chicken nuggets2.jpg', 'key': 'u', 'origWidth': 410, 'origHeight': 409, 'width': 410, 'height': 409, 'widthPercent': 0.45, 'rescaleHeight': False, 'trialN': 78, 'loaded': True, 'loadedTime': 2658.5, 'positionName': 'LEFT', 'positionCoords': [511.6, 335.5], 'bid': 8.64}, {'imgObject': {}, 'id': 'tacos', 'src': '/static/foodstim60/tacos.jpg', 'key': 'i', 'origWidth': 411, 'origHeight': 411, 'width': 411, 'height': 411, 'widthPercent': 0.45, 'rescaleHeight': False, 'trialN': 78, 'loaded': True, 'loadedTime': 2526.2999999523163, 'positionName': 'RIGHT', 'positionCoords': [998.4, 334.5], 'bid': 8.61}]",163799.90000009537,1669831410579,chicken nuggets2,tacos,8.64,8.61,-0.030000000000001137,chicken nuggets2,1200.7999999523163,1201,1201.1999998092651,True,u,165516.29999995232,1716.3999998569489,1669831412295,1716,HRV,HRV_0121,2022-11-30 18:06:59
79,"[{'imgObject': {}, 'id': 'strawberries', 'src': '/static/foodstim60/strawberries.jpg', 'key': 'u', 'origWidth': 410, 'origHeight': 410, 'width': 410, 'height': 410, 'widthPercent': 0.45, 'rescaleHeight': False, 'trialN': 79, 'loaded': True, 'loadedTime': 2656.5, 'positionName': 'LEFT', 'positionCoords': [511.6, 335], 'bid': 6.390000000000001}, {'imgObject': {}, 'id': 'cherries', 'src': '/static/foodstim60/cherries.jpg', 'key': 'i', 'origWidth': 410, 'origHeight': 411, 'width': 410, 'height': 411, 'widthPercent': 0.45, 'rescaleHeight': False, 'trialN': 79, 'loaded': True, 'loadedTime': 2704.4000000953674, 'positionName': 'RIGHT', 'positionCoords': [998.4, 334.5], 'bid': 6.41}]",165516.5,1669831412296,strawberries,cherries,6.390000000000001,6.41,0.019999999999999574,cherries,2116.4000000953674,2116,2116.5999999046326,True,i,168137.59999990463,2621.0999999046326,1669831414917,2621,HRV,HRV_0121,2022-11-30 18:06:59
80,"[{'imgObject': {}, 'id': 'rigatoni', 'src': '/static/foodstim60/rigatoni.jpg', 'key': 'u', 'origWidth': 411, 'origHeight': 411, 'width': 411, 'height': 411, 'widthPercent': 0.45, 'rescaleHeight': False, 'trialN': 80, 'loaded': True, 'loadedTime': 2555.5, 'positionName': 'LEFT', 'positionCoords': [510.6, 334.5], 'bid': 5.18}, {'imgObject': {}, 'id': 'fried eggs', 'src': '/static/foodstim60/fried eggs.jpg', 'key': 'i', 'origWidth': 410, 'origHeight': 410, 'width': 410, 'height': 410, 'widthPercent': 0.45, 'rescaleHeight': False, 'trialN': 80, 'loaded': True, 'loadedTime': 2443.5, 'positionName': 'RIGHT', 'positionCoords': [998.4, 335], 'bid': 2.88}]",168137.79999995232,1669831414917,rigatoni,fried eggs,5.18,2.88,-2.3,rigatoni,1566.9000000953674,1567,1567.2999999523163,True,u,170215.70000004768,2077.9000000953674,1669831416995,2078,HRV,HRV_0121,2022-11-30 18:06:59
81,"[{'imgObject': {}, 'id': 'Tribe humus pita', 'src': '/static/foodstim60/Tribe humus pita.jpg', 'key': 'u', 'origWidth': 411, 'origHeight': 411, 'width': 411, 'height': 411, 'widthPercent': 0.45, 'rescaleHeight': False, 'trialN': 81, 'loaded': True, 'loadedTime': 2689.5, 'positionName': 'LEFT', 'positionCoords': [510.6, 334.5], 'bid': 0.11}, {'imgObject': {}, 'id': 'granola w milk', 'src': '/static/foodstim60/granola w milk.jpg', 'key': 'i', 'origWidth': 410, 'origHeight': 410, 'width': 410, 'height': 410, 'widthPercent': 0.45, 'rescaleHeight': False, 'trialN': 81, 'loaded': True, 'loadedTime': 2683.2000000476837, 'positionName': 'RIGHT', 'positionCoords': [998.4, 335], 'bid': 3.5700000000000003}]",170215.90000009537,1669831416995,Tribe humus pita,granola w milk,0.11,3.5700000000000003,3.4600000000000004,granola w milk,1136.8999998569489,1137,1137.1999998092651,True,i,171866.79999995232,1650.8999998569489,1669831418646,1651,HRV,HRV_0121,2022-11-30 18:06:59
82,"[{'imgObject': {}, 'id': 'salmon', 'src': '/static/foodstim60/salmon.jpg', 'key': 'u', 'origWidth': 410, 'origHeight': 409, 'width': 410, 'height': 409, 'widthPercent': 0.45, 'rescaleHeight': False, 'trialN': 82, 'loaded': True, 'loadedTime': 2705.4000000953674, 'positionName': 'LEFT', 'positionCoords': [511.6, 335.5], 'bid': 3.29}, {'imgObject': {}, 'id': 'eggs', 'src': '/static/foodstim60/eggs.jpg', 'key': 'i', 'origWidth': 409, 'origHeight': 409, 'width': 409, 'height': 409, 'widthPercent': 0.45, 'rescaleHeight': False, 'trialN': 82, 'loaded': True, 'loadedTime': 2410.5999999046326, 'positionName': 'RIGHT', 'positionCoords': [998.4, 335.5], 'bid': 3.14}]",171867.0,1669831418646,salmon,eggs,3.29,3.14,-0.1499999999999999,eggs,1509.7999999523163,1510,1510.0999999046326,True,i,173882.70000004768,2015.7000000476837,1669831420662,2016,HRV,HRV_0121,2022-11-30 18:06:59
83,"[{'imgObject': {}, 'id': 'ice cream sundae 002', 'src': '/static/foodstim60/ice cream sundae 002.jpg', 'key': 'u', 'origWidth': 409, 'origHeight': 409, 'width': 409, 'height': 409, 'widthPercent': 0.45, 'rescaleHeight': False, 'trialN': 83, 'loaded': True, 'loadedTime': 2460.5, 'positionName': 'LEFT', 'positionCoords': [512.6, 335.5], 'bid': 2.84}, {'imgObject': {}, 'id': 'hotdog w must', 'src': '/static/foodstim60/hotdog w must.jpg', 'key': 'i', 'origWidth': 409, 'origHeight': 409, 'width': 409, 'height': 409, 'widthPercent': 0.45, 'rescaleHeight': False, 'trialN': 83, 'loaded': True, 'loadedTime': 2703.4000000953674, 'positionName': 'RIGHT', 'positionCoords': [998.4, 335.5], 'bid': 6.5200000000000005}]",173882.90000009537,1669831420662,ice cream sundae 002,hotdog w must,2.84,6.5200000000000005,3.6800000000000006,hotdog w must,1405.6999998092651,1406,1406.0999999046326,True,i,175799.09999990463,1916.1999998092651,1669831422578,1916,HRV,HRV_0121,2022-11-30 18:06:59
84,"[{'imgObject': {}, 'id': 'Tribe humus pita', 'src': '/static/foodstim60/Tribe humus pita.jpg', 'key': 'u', 'origWidth': 411, 'origHeight': 411, 'width': 411, 'height': 411, 'widthPercent': 0.45, 'rescaleHeight': False, 'trialN': 84, 'loaded': True, 'loadedTime': 2689.5, 'positionName': 'LEFT', 'positionCoords': [510.6, 334.5], 'bid': 0.11}, {'imgObject': {}, 'id': 'fried eggs', 'src': '/static/foodstim60/fried eggs.jpg', 'key': 'i', 'origWidth': 410, 'origHeight': 410, 'width': 410, 'height': 410, 'widthPercent': 0.45, 'rescaleHeight': False, 'trialN': 84, 'loaded': True, 'loadedTime': 2443.9000000953674, 'positionName': 'RIGHT', 'positionCoords': [998.4, 335], 'bid': 2.88}]",175799.20000004768,1669831422578,Tribe humus pita,fried eggs,0.11,2.88,2.77,fried eggs,1361.3999998569489,1362,1361.7000000476837,True,i,177664.59999990463,1865.3999998569489,1669831424444,1866,HRV,HRV_0121,2022-11-30 18:06:59
85,"[{'imgObject': {}, 'id': 'cantaloupe', 'src': '/static/foodstim60/cantaloupe.jpg', 'key': 'u', 'origWidth': 409, 'origHeight': 409, 'width': 409, 'height': 409, 'widthPercent': 0.45, 'rescaleHeight': False, 'trialN': 85, 'loaded': True, 'loadedTime': 2706.4000000953674, 'positionName': 'LEFT', 'positionCoords': [512.6, 335.5], 'bid': 2.71}, {'imgObject': {}, 'id': 'avocado', 'src': '/static/foodstim60/avocado.jpg', 'key': 'i', 'origWidth': 409, 'origHeight': 409, 'width': 409, 'height': 409, 'widthPercent': 0.45, 'rescaleHeight': False, 'trialN': 85, 'loaded': True, 'loadedTime': 2546.4000000953674, 'positionName': 'RIGHT', 'positionCoords': [998.4, 335.5], 'bid': 0.19}]",177664.79999995232,1669831424444,cantaloupe,avocado,2.71,0.19,-2.52,cantaloupe,2584.0,2584,2584.4000000953674,True,u,180751.0,3086.2000000476837,1669831427530,3086,HRV,HRV_0121,2022-11-30 18:06:59
86,"[{'imgObject': {}, 'id': 'baked potato', 'src': '/static/foodstim60/baked potato.jpg', 'key': 'u', 'origWidth': 409, 'origHeight': 410, 'width': 409, 'height': 410, 'widthPercent': 0.45, 'rescaleHeight': False, 'trialN': 86, 'loaded': True, 'loadedTime': 2695.2000000476837, 'positionName': 'LEFT', 'positionCoords': [512.6, 335], 'bid': 4.98}, {'imgObject': {}, 'id': 'corn cob', 'src': '/static/foodstim60/corn cob.jpg', 'key': 'i', 'origWidth': 411, 'origHeight': 411, 'width': 411, 'height': 411, 'widthPercent': 0.45, 'rescaleHeight': False, 'trialN': 86, 'loaded': True, 'loadedTime': 2610.5999999046326, 'positionName': 'RIGHT', 'positionCoords': [998.4, 334.5], 'bid': 6.13}]",180751.20000004768,1669831427530,baked potato,corn cob,4.98,6.13,1.1499999999999995,corn cob,1313.5,1314,1313.8999998569489,True,i,182567.90000009537,1816.7000000476837,1669831429347,1817,HRV,HRV_0121,2022-11-30 18:06:59
87,"[{'imgObject': {}, 'id': 'raisin bran w milk', 'src': '/static/foodstim60/raisin bran w milk.jpg', 'key': 'u', 'origWidth': 411, 'origHeight': 411, 'width': 411, 'height': 411, 'widthPercent': 0.45, 'rescaleHeight': False, 'trialN': 87, 'loaded': True, 'loadedTime': 2705.2999999523163, 'positionName': 'LEFT', 'positionCoords': [510.6, 334.5], 'bid': 5.72}, {'imgObject': {}, 'id': 'sweetpotato', 'src': '/static/foodstim60/sweetpotato.jpg', 'key': 'i', 'origWidth': 410, 'origHeight': 410, 'width': 410, 'height': 410, 'widthPercent': 0.45, 'rescaleHeight': False, 'trialN': 87, 'loaded': True, 'loadedTime': 2663, 'positionName': 'RIGHT', 'positionCoords': [998.4, 335], 'bid': 0}]",182568.20000004768,1669831429347,raisin bran w milk,sweetpotato,5.72,0.0,-5.72,raisin bran w milk,1048.2999999523163,1049,1048.5999999046326,True,u,184121.90000009537,1553.7000000476837,1669831430901,1554,HRV,HRV_0121,2022-11-30 18:06:59
88,"[{'imgObject': {}, 'id': 'sushi w_condiments', 'src': '/static/foodstim60/sushi w_condiments.jpg', 'key': 'u', 'origWidth': 410, 'origHeight': 410, 'width': 410, 'height': 410, 'widthPercent': 0.45, 'rescaleHeight': False, 'trialN': 88, 'loaded': True, 'loadedTime': 2604.7000000476837, 'positionName': 'LEFT', 'positionCoords': [511.6, 335], 'bid': 0.05}, {'imgObject': {}, 'id': 'banana', 'src': '/static/foodstim60/banana.jpg', 'key': 'i', 'origWidth': 410, 'origHeight': 410, 'width': 410, 'height': 410, 'widthPercent': 0.45, 'rescaleHeight': False, 'trialN': 88, 'loaded': True, 'loadedTime': 2478.5, 'positionName': 'RIGHT', 'positionCoords': [998.4, 335], 'bid': 3.54}]",184122.09999990463,1669831430901,sushi w_condiments,banana,0.05,3.54,3.49,banana,902.6000001430511,903,902.8000001907349,True,i,185533.09999990463,1411.0,1669831432312,1411,HRV,HRV_0121,2022-11-30 18:06:59
89,"[{'imgObject': {}, 'id': 'steak', 'src': '/static/foodstim60/steak.jpg', 'key': 'u', 'origWidth': 410, 'origHeight': 410, 'width': 410, 'height': 410, 'widthPercent': 0.45, 'rescaleHeight': False, 'trialN': 89, 'loaded': True, 'loadedTime': 2469.5999999046326, 'positionName': 'LEFT', 'positionCoords': [511.6, 335], 'bid': 6.76}, {'imgObject': {}, 'id': 'pear', 'src': '/static/foodstim60/pear.jpg', 'key': 'i', 'origWidth': 411, 'origHeight': 410, 'width': 411, 'height': 410, 'widthPercent': 0.45, 'rescaleHeight': False, 'trialN': 89, 'loaded': True, 'loadedTime': 2673.9000000953674, 'positionName': 'RIGHT', 'positionCoords': [998.4, 335], 'bid': 6.71}]",185533.20000004768,1669831432312,steak,pear,6.76,6.71,-0.04999999999999982,steak,1171.3999998569489,1172,1171.7999999523163,True,u,187216.09999990463,1682.8999998569489,1669831433995,1683,HRV,HRV_0121,2022-11-30 18:06:59
90,"[{'imgObject': {}, 'id': 'cheerios', 'src': '/static/foodstim60/cheerios.jpg', 'key': 'u', 'origWidth': 409, 'origHeight': 410, 'width': 409, 'height': 410, 'widthPercent': 0.45, 'rescaleHeight': False, 'trialN': 90, 'loaded': True, 'loadedTime': 2648.0999999046326, 'positionName': 'LEFT', 'positionCoords': [512.6, 335], 'bid': 5.01}, {'imgObject': {}, 'id': 'cantaloupe', 'src': '/static/foodstim60/cantaloupe.jpg', 'key': 'i', 'origWidth': 409, 'origHeight': 409, 'width': 409, 'height': 409, 'widthPercent': 0.45, 'rescaleHeight': False, 'trialN': 90, 'loaded': True, 'loadedTime': 2707.2000000476837, 'positionName': 'RIGHT', 'positionCoords': [998.4, 335.5], 'bid': 2.71}]",201548.79999995232,1669831448328,cheerios,cantaloupe,5.01,2.71,-2.3,cheerios,3275.7000000476837,3276,3276.100000143051,True,u,205332.29999995232,3783.5,1669831452112,3784,HRV,HRV_0121,2022-11-30 18:06:59
91,"[{'imgObject': {}, 'id': 'popsicles', 'src': '/static/foodstim60/popsicles.jpg', 'key': 'u', 'origWidth': 410, 'origHeight': 410, 'width': 410, 'height': 410, 'widthPercent': 0.45, 'rescaleHeight': False, 'trialN': 91, 'loaded': True, 'loadedTime': 2708.9000000953674, 'positionName': 'LEFT', 'positionCoords': [511.6, 335], 'bid': 2.2}, {'imgObject': {}, 'id': 'cherry tomato', 'src': '/static/foodstim60/cherry tomato.jpg', 'key': 'i', 'origWidth': 410, 'origHeight': 410, 'width': 410, 'height': 410, 'widthPercent': 0.45, 'rescaleHeight': False, 'trialN': 91, 'loaded': True, 'loadedTime': 2615.5, 'positionName': 'RIGHT', 'positionCoords': [998.4, 335], 'bid': 5}]",205332.59999990463,1669831452112,popsicles,cherry tomato,2.2,5.0,2.8,cherry tomato,1116.0,1116,1116.3000001907349,True,i,206965.40000009537,1632.8000001907349,1669831453745,1633,HRV,HRV_0121,2022-11-30 18:06:59
92,"[{'imgObject': {}, 'id': 'Tribe humus pita', 'src': '/static/foodstim60/Tribe humus pita.jpg', 'key': 'u', 'origWidth': 411, 'origHeight': 411, 'width': 411, 'height': 411, 'widthPercent': 0.45, 'rescaleHeight': False, 'trialN': 92, 'loaded': True, 'loadedTime': 2689.7000000476837, 'positionName': 'LEFT', 'positionCoords': [510.6, 334.5], 'bid': 0.11}, {'imgObject': {}, 'id': 'orange slices', 'src': '/static/foodstim60/orange slices.jpg', 'key': 'i', 'origWidth': 409, 'origHeight': 410, 'width': 409, 'height': 410, 'widthPercent': 0.45, 'rescaleHeight': False, 'trialN': 92, 'loaded': True, 'loadedTime': 2564.7000000476837, 'positionName': 'RIGHT', 'positionCoords': [998.4, 335], 'bid': 6.01}]",206965.59999990463,1669831453745,Tribe humus pita,orange slices,0.11,6.01,5.8999999999999995,orange slices,1122.9000000953674,1123,1123.4000000953674,True,i,208599.09999990463,1633.5,1669831455378,1633,HRV,HRV_0121,2022-11-30 18:06:59
93,"[{'imgObject': {}, 'id': 'salmon', 'src': '/static/foodstim60/salmon.jpg', 'key': 'u', 'origWidth': 410, 'origHeight': 409, 'width': 410, 'height': 409, 'widthPercent': 0.45, 'rescaleHeight': False, 'trialN': 93, 'loaded': True, 'loadedTime': 2706.4000000953674, 'positionName': 'LEFT', 'positionCoords': [511.6, 335.5], 'bid': 3.29}, {'imgObject': {}, 'id': 'fried eggs', 'src': '/static/foodstim60/fried eggs.jpg', 'key': 'i', 'origWidth': 410, 'origHeight': 410, 'width': 410, 'height': 410, 'widthPercent': 0.45, 'rescaleHeight': False, 'trialN': 93, 'loaded': True, 'loadedTime': 2439.0999999046326, 'positionName': 'RIGHT', 'positionCoords': [998.4, 335], 'bid': 2.88}]",208599.29999995232,1669831455378,salmon,fried eggs,3.29,2.88,-0.41000000000000014,fried eggs,977.2999999523163,978,977.6000001430511,True,i,210090.59999990463,1491.2999999523163,1669831456870,1492,HRV,HRV_0121,2022-11-30 18:06:59
94,"[{'imgObject': {}, 'id': 'cherry tomato', 'src': '/static/foodstim60/cherry tomato.jpg', 'key': 'u', 'origWidth': 410, 'origHeight': 410, 'width': 410, 'height': 410, 'widthPercent': 0.45, 'rescaleHeight': False, 'trialN': 94, 'loaded': True, 'loadedTime': 2619.0999999046326, 'positionName': 'LEFT', 'positionCoords': [511.6, 335], 'bid': 5}, {'imgObject': {}, 'id': 'roastedpotatoes', 'src': '/static/foodstim60/roastedpotatoes.jpg', 'key': 'i', 'origWidth': 409, 'origHeight': 410, 'width': 409, 'height': 410, 'widthPercent': 0.45, 'rescaleHeight': False, 'trialN': 94, 'loaded': True, 'loadedTime': 2569.2000000476837, 'positionName': 'RIGHT', 'positionCoords': [998.4, 335], 'bid': 5.0200000000000005}]",210090.79999995232,1669831456870,cherry tomato,roastedpotatoes,5.0,5.0200000000000005,0.020000000000000462,roastedpotatoes,1606.0,1611,1606.2999999523163,True,i,212200.0,2109.2000000476837,1669831458984,2114,HRV,HRV_0121,2022-11-30 18:06:59
95,"[{'imgObject': {}, 'id': 'burger', 'src': '/static/foodstim60/burger.jpg', 'key': 'u', 'origWidth': 409, 'origHeight': 409, 'width': 409, 'height': 409, 'widthPercent': 0.45, 'rescaleHeight': False, 'trialN': 95, 'loaded': True, 'loadedTime': 2369.2000000476837, 'positionName': 'LEFT', 'positionCoords': [512.6, 335.5], 'bid': 4.18}, {'imgObject': {}, 'id': 'bagel and cc', 'src': '/static/foodstim60/bagel and cc.jpg', 'key': 'i', 'origWidth': 410, 'origHeight': 410, 'width': 410, 'height': 410, 'widthPercent': 0.45, 'rescaleHeight': False, 'trialN': 95, 'loaded': True, 'loadedTime': 2427.0999999046326, 'positionName': 'RIGHT', 'positionCoords': [998.4, 335], 'bid': 7.18}]",212200.20000004768,1669831458984,burger,bagel and cc,4.18,7.18,3.0,bagel and cc,1168.2999999523163,1169,1168.5999999046326,True,i,213883.40000009537,1683.2000000476837,1669831460668,1684,HRV,HRV_0121,2022-11-30 18:06:59
96,"[{'imgObject': {}, 'id': 'turkeysandwich', 'src': '/static/foodstim60/turkeysandwich.jpg', 'key': 'u', 'origWidth': 409, 'origHeight': 409, 'width': 409, 'height': 409, 'widthPercent': 0.45, 'rescaleHeight': False, 'trialN': 96, 'loaded': True, 'loadedTime': 2688.5999999046326, 'positionName': 'LEFT', 'positionCoords': [512.6, 335.5], 'bid': 7.67}, {'imgObject': {}, 'id': 'grilled chicken strips', 'src': '/static/foodstim60/grilled chicken strips.jpg', 'key': 'i', 'origWidth': 410, 'origHeight': 411, 'width': 410, 'height': 411, 'widthPercent': 0.45, 'rescaleHeight': False, 'trialN': 96, 'loaded': True, 'loadedTime': 2595.4000000953674, 'positionName': 'RIGHT', 'positionCoords': [998.4, 334.5], 'bid': 6.48}]",213883.70000004768,1669831460668,turkeysandwich,grilled chicken strips,7.67,6.48,-1.1899999999999995,turkeysandwich,1116.7000000476837,1117,1117.0999999046326,True,u,215514.59999990463,1630.8999998569489,1669831462299,1631,HRV,HRV_0121,2022-11-30 18:06:59
97,"[{'imgObject': {}, 'id': 'eggsalad', 'src': '/static/foodstim60/eggsalad.jpg', 'key': 'u', 'origWidth': 410, 'origHeight': 409, 'width': 410, 'height': 409, 'widthPercent': 0.45, 'rescaleHeight': False, 'trialN': 97, 'loaded': True, 'loadedTime': 2605.7999999523163, 'positionName': 'LEFT', 'positionCoords': [511.6, 335.5], 'bid': 1.65}, {'imgObject': {}, 'id': 'popsicles', 'src': '/static/foodstim60/popsicles.jpg', 'key': 'i', 'origWidth': 410, 'origHeight': 410, 'width': 410, 'height': 410, 'widthPercent': 0.45, 'rescaleHeight': False, 'trialN': 97, 'loaded': True, 'loadedTime': 2708.7999999523163, 'positionName': 'RIGHT', 'positionCoords': [998.4, 335], 'bid': 2.2}]",215514.79999995232,1669831462299,eggsalad,popsicles,1.65,2.2,0.5500000000000003,eggsalad,813.7000000476837,814,814.0,True,u,216835.40000009537,1320.6000001430511,1669831463619,1320,HRV,HRV_0121,2022-11-30 18:06:59
98,"[{'imgObject': {}, 'id': 'eggsalad', 'src': '/static/foodstim60/eggsalad.jpg', 'key': 'u', 'origWidth': 410, 'origHeight': 409, 'width': 410, 'height': 409, 'widthPercent': 0.45, 'rescaleHeight': False, 'trialN': 98, 'loaded': True, 'loadedTime': 2605.9000000953674, 'positionName': 'LEFT', 'positionCoords': [511.6, 335.5], 'bid': 1.65}, {'imgObject': {}, 'id': 'strawberries', 'src': '/static/foodstim60/strawberries.jpg', 'key': 'i', 'origWidth': 410, 'origHeight': 410, 'width': 410, 'height': 410, 'widthPercent': 0.45, 'rescaleHeight': False, 'trialN': 98, 'loaded': True, 'loadedTime': 2657.2999999523163, 'positionName': 'RIGHT', 'positionCoords': [998.4, 335], 'bid': 6.390000000000001}]",216835.59999990463,1669831463620,eggsalad,strawberries,1.65,6.390000000000001,4.74,strawberries,1388.9000000953674,1389,1389.2000000476837,True,i,218732.79999995232,1897.2000000476837,1669831465517,1897,HRV,HRV_0121,2022-11-30 18:06:59
99,"[{'imgObject': {}, 'id': 'kiwi', 'src': '/static/foodstim60/kiwi.jpg', 'key': 'u', 'origWidth': 410, 'origHeight': 410, 'width': 410, 'height': 410, 'widthPercent': 0.45, 'rescaleHeight': False, 'trialN': 99, 'loaded': True, 'loadedTime': 2503.7999999523163, 'positionName': 'LEFT', 'positionCoords': [511.6, 335], 'bid': 1.35}, {'imgObject': {}, 'id': 'sweetpotato', 'src': '/static/foodstim60/sweetpotato.jpg', 'key': 'i', 'origWidth': 410, 'origHeight': 410, 'width': 410, 'height': 410, 'widthPercent': 0.45, 'rescaleHeight': False, 'trialN': 99, 'loaded': True, 'loadedTime': 2664.2000000476837, 'positionName': 'RIGHT', 'positionCoords': [998.4, 335], 'bid': 0}]",218733.0,1669831465517,kiwi,sweetpotato,1.35,0.0,-1.35,kiwi,1675.5,1676,1676.0,True,u,220914.70000004768,2181.7000000476837,1669831467699,2182,HRV,HRV_0121,2022-11-30 18:06:59
100,"[{'imgObject': {}, 'id': 'hashbrowns', 'src': '/static/foodstim60/hashbrowns.jpg', 'key': 'u', 'origWidth': 411, 'origHeight': 410, 'width': 411, 'height': 410, 'widthPercent': 0.45, 'rescaleHeight': False, 'trialN': 100, 'loaded': True, 'loadedTime': 2701.5999999046326, 'positionName': 'LEFT', 'positionCoords': [510.6, 335], 'bid': 4.94}, {'imgObject': {}, 'id': 'yogurt no spoon', 'src': '/static/foodstim60/yogurt no spoon.jpg', 'key': 'i', 'origWidth': 411, 'origHeight': 410, 'width': 411, 'height': 410, 'widthPercent': 0.45, 'rescaleHeight': False, 'trialN': 100, 'loaded': True, 'loadedTime': 2591.2000000476837, 'positionName': 'RIGHT', 'positionCoords': [998.4, 335], 'bid': 7.27}]",220914.90000009537,1669831467699,hashbrowns,yogurt no spoon,4.94,7.27,2.329999999999999,yogurt no spoon,1021.8999998569489,1022,1022.1999998092651,True,i,222437.5,1522.5999999046326,1669831469222,1523,HRV,HRV_0121,2022-11-30 18:06:59
101,"[{'imgObject': {}, 'id': 'fruitsalad', 'src': '/static/foodstim60/fruitsalad.jpg', 'key': 'u', 'origWidth': 410, 'origHeight': 410, 'width': 410, 'height': 410, 'widthPercent': 0.45, 'rescaleHeight': False, 'trialN': 101, 'loaded': True, 'loadedTime': 2637.2999999523163, 'positionName': 'LEFT', 'positionCoords': [511.6, 335], 'bid': 6.83}, {'imgObject': {}, 'id': 'cocktailshrimp', 'src': '/static/foodstim60/cocktailshrimp.jpg', 'key': 'i', 'origWidth': 410, 'origHeight': 410, 'width': 410, 'height': 410, 'widthPercent': 0.45, 'rescaleHeight': False, 'trialN': 101, 'loaded': True, 'loadedTime': 2450.2999999523163, 'positionName': 'RIGHT', 'positionCoords': [998.4, 335], 'bid': 6.76}]",222437.59999990463,1669831469222,fruitsalad,cocktailshrimp,6.83,6.76,-0.07000000000000028,cocktailshrimp,1154.6000001430511,1155,1155.1000001430511,True,i,224105.20000004768,1667.6000001430511,1669831470889,1667,HRV,HRV_0121,2022-11-30 18:06:59
102,"[{'imgObject': {}, 'id': 'omelette', 'src': '/static/foodstim60/omelette.jpg', 'key': 'u', 'origWidth': 410, 'origHeight': 409, 'width': 410, 'height': 409, 'widthPercent': 0.45, 'rescaleHeight': False, 'trialN': 102, 'loaded': True, 'loadedTime': 2531.7000000476837, 'positionName': 'LEFT', 'positionCoords': [511.6, 335.5], 'bid': 1.98}, {'imgObject': {}, 'id': 'cantaloupe', 'src': '/static/foodstim60/cantaloupe.jpg', 'key': 'i', 'origWidth': 409, 'origHeight': 409, 'width': 409, 'height': 409, 'widthPercent': 0.45, 'rescaleHeight': False, 'trialN': 102, 'loaded': True, 'loadedTime': 2707.5, 'positionName': 'RIGHT', 'positionCoords': [998.4, 335.5], 'bid': 2.71}]",224105.40000009537,1669831470889,omelette,cantaloupe,1.98,2.71,0.73,cantaloupe,1191.1999998092651,1192,1191.5,True,i,225801.09999990463,1695.6999998092651,1669831472585,1696,HRV,HRV_0121,2022-11-30 18:06:59
103,"[{'imgObject': {}, 'id': 'olives', 'src': '/static/foodstim60/olives.jpg', 'key': 'u', 'origWidth': 410, 'origHeight': 410, 'width': 410, 'height': 410, 'widthPercent': 0.45, 'rescaleHeight': False, 'trialN': 103, 'loaded': True, 'loadedTime': 2701.4000000953674, 'positionName': 'LEFT', 'positionCoords': [511.6, 335], 'bid': 0}, {'imgObject': {}, 'id': 'sweetpotato', 'src': '/static/foodstim60/sweetpotato.jpg', 'key': 'i', 'origWidth': 410, 'origHeight': 410, 'width': 410, 'height': 410, 'widthPercent': 0.45, 'rescaleHeight': False, 'trialN': 103, 'loaded': True, 'loadedTime': 2664, 'positionName': 'RIGHT', 'positionCoords': [998.4, 335], 'bid': 0}]",225801.29999995232,1669831472585,olives,sweetpotato,0.0,0.0,0.0,sweetpotato,1935.2999999523163,1936,1935.5,True,i,228246.79999995232,2445.5,1669831475031,2446,HRV,HRV_0121,2022-11-30 18:06:59
104,"[{'imgObject': {}, 'id': 'fruitsalad', 'src': '/static/foodstim60/fruitsalad.jpg', 'key': 'u', 'origWidth': 410, 'origHeight': 410, 'width': 410, 'height': 410, 'widthPercent': 0.45, 'rescaleHeight': False, 'trialN': 104, 'loaded': True, 'loadedTime': 2638.5, 'positionName': 'LEFT', 'positionCoords': [511.6, 335], 'bid': 6.83}, {'imgObject': {}, 'id': 'corn cob', 'src': '/static/foodstim60/corn cob.jpg', 'key': 'i', 'origWidth': 411, 'origHeight': 411, 'width': 411, 'height': 411, 'widthPercent': 0.45, 'rescaleHeight': False, 'trialN': 104, 'loaded': True, 'loadedTime': 2614.2000000476837, 'positionName': 'RIGHT', 'positionCoords': [998.4, 334.5], 'bid': 6.13}]",228247.0,1669831475031,fruitsalad,corn cob,6.83,6.13,-0.7000000000000002,corn cob,1537.7000000476837,1538,1537.9000000953674,True,i,230294.90000009537,2047.9000000953674,1669831477079,2048,HRV,HRV_0121,2022-11-30 18:06:59
105,"[{'imgObject': {}, 'id': 'cocktailshrimp', 'src': '/static/foodstim60/cocktailshrimp.jpg', 'key': 'u', 'origWidth': 410, 'origHeight': 410, 'width': 410, 'height': 410, 'widthPercent': 0.45, 'rescaleHeight': False, 'trialN': 105, 'loaded': True, 'loadedTime': 2455.9000000953674, 'positionName': 'LEFT', 'positionCoords': [511.6, 335], 'bid': 6.76}, {'imgObject': {}, 'id': 'chickenfingers', 'src': '/static/foodstim60/chickenfingers.jpg', 'key': 'i', 'origWidth': 410, 'origHeight': 410, 'width': 410, 'height': 410, 'widthPercent': 0.45, 'rescaleHeight': False, 'trialN': 105, 'loaded': True, 'loadedTime': 2695.2000000476837, 'positionName': 'RIGHT', 'positionCoords': [998.4, 335], 'bid': 7.59}]",230295.20000004768,1669831477079,cocktailshrimp,chickenfingers,6.76,7.59,0.8300000000000001,chickenfingers,1169.3999998569489,1170,1169.7000000476837,True,i,231967.09999990463,1671.8999998569489,1669831478751,1672,HRV,HRV_0121,2022-11-30 18:06:59
106,"[{'imgObject': {}, 'id': 'hotdog w must', 'src': '/static/foodstim60/hotdog w must.jpg', 'key': 'u', 'origWidth': 409, 'origHeight': 409, 'width': 409, 'height': 409, 'widthPercent': 0.45, 'rescaleHeight': False, 'trialN': 106, 'loaded': True, 'loadedTime': 2702.5999999046326, 'positionName': 'LEFT', 'positionCoords': [512.6, 335.5], 'bid': 6.5200000000000005}, {'imgObject': {}, 'id': 'mac & cheese', 'src': '/static/foodstim60/mac & cheese.jpg', 'key': 'i', 'origWidth': 410, 'origHeight': 410, 'width': 410, 'height': 410, 'widthPercent': 0.45, 'rescaleHeight': False, 'trialN': 106, 'loaded': True, 'loadedTime': 2493.5999999046326, 'positionName': 'RIGHT', 'positionCoords': [998.4, 335], 'bid': 6.36}]",231967.29999995232,1669831478751,hotdog w must,mac & cheese,6.5200000000000005,6.36,-0.16000000000000014,mac & cheese,1161.5,1162,1161.9000000953674,True,i,233633.59999990463,1666.2999999523163,1669831480418,1667,HRV,HRV_0121,2022-11-30 18:06:59
107,"[{'imgObject': {}, 'id': 'fruitsalad', 'src': '/static/foodstim60/fruitsalad.jpg', 'key': 'u', 'origWidth': 410, 'origHeight': 410, 'width': 410, 'height': 410, 'widthPercent': 0.45, 'rescaleHeight': False, 'trialN': 107, 'loaded': True, 'loadedTime': 2638.5, 'positionName': 'LEFT', 'positionCoords': [511.6, 335], 'bid': 6.83}, {'imgObject': {}, 'id': 'veggieswithdip', 'src': '/static/foodstim60/veggieswithdip.jpg', 'key': 'i', 'origWidth': 409, 'origHeight': 409, 'width': 409, 'height': 409, 'widthPercent': 0.45, 'rescaleHeight': False, 'trialN': 107, 'loaded': True, 'loadedTime': 2513, 'positionName': 'RIGHT', 'positionCoords': [998.4, 335.5], 'bid': 7.2}]",233633.79999995232,1669831480418,fruitsalad,veggieswithdip,6.83,7.2,0.3700000000000001,veggieswithdip,1182.7000000476837,1183,1182.9000000953674,True,i,235333.59999990463,1699.7999999523163,1669831482118,1700,HRV,HRV_0121,2022-11-30 18:06:59
