success,trial_type,trial_index,time_elapsed,internal_node_id,Block,TrialNumber,TrialTime,trialTimeDiff,FPS_avg,FPS_med,FPS_mode,TrialDur,winResizeTime,rt,block,button_pressed,MotCoh,MotDir,ColCoh,Color,ChoiceKey,Choice,Accuracy,RT,nFrames,FPS,PPD,missTrial,missTrialMsg,onsetDelay,fullScreenExitTime,canvCenter,TrialType,Score,BlockTrial,stimulus,button_labels,exp,subjectId,date
True,fullscreen,0,4170,0.0-0.0,0.0,1.0,,,,,,,,,,,,,,,,,,,,,,,,,,,,,,,,HRV,HRV_0121,2022-11-30 18:18:30
,wl-check-fps,1,9169,0.0-1.0,0.0,2.0,"[4716.2, 4727.6, 4744.2, 4761.2, 4777.7, 4794.3, 4811.1, 4827.8, 4844.4, 4861.4, 4877.9, 4894.5, 4911.4, 4927.9, 4944.8, 4961.3, 4978, 4994.6, 5011.4, 5027.8, 5044.5, 5061.3, 5077.9, 5094.6, 5111, 5127.6, 5144.6, 5161.6, 5178, 5194.9, 5211.1, 5227.7, 5244.7, 5261.2, 5278, 5294.6, 5311.3, 5328, 5344.7, 5361.3, 5377.9, 5394.7, 5411.3, 5427.8, 5444.4, 5461.3, 5478, 5494.7, 5511.4, 5527.9, 5544.3, 5561.3, 5577.7, 5594.5, 5611.2, 5627.8, 5644.6, 5661.3, 5677.9, 5694.4, 5711.5, 5727.6, 5744.8, 5761.3, 5778, 5794.7, 5811.1, 5827.8, 5844.8, 5861.4, 5878, 5894.6, 5911.4, 5927.9, 5944.5, 5961.7, 5977.8, 5994.8, 6011.1, 6028, 6044.9, 6061.4, 6077.9, 6094.6, 6111.3, 6128, 6144.7, 6161.3, 6177.8, 6194.7, 6211.1, 6228, 6244.4, 6261.3, 6277.7, 6294.6, 6311.2, 6327.9, 6344.7, 6361.3, 6378, 6394.7, 6411.3, 6427.8, 6444.5, 6461.6, 6477.8, 6494.5, 6511.4, 6527.8, 6544.5, 6561.3, 6577.9, 6594.5, 6611, 6627.7, 6644.6, 6661.1, 6677.9, 6694.4, 6711.3, 6727.8, 6744.4, 6761.5, 6777.9, 6794.7, 6811.5, 6827.7, 6844.5, 6861.4, 6878.1, 6894.7, 6911.6, 6928, 6944.5, 6961.3, 6978, 6994.5, 7011.3, 7027.9, 7044.8, 7061.1, 7077.9, 7094.3, 7111.2, 7127.9, 7144.5, 7161.6, 7177.9, 7194.6, 7211.2, 7227.8, 7244.3, 7261.3, 7278, 7294.7, 7311.3, 7327.7, 7344.9, 7361.1, 7377.7, 7394.5, 7411.4, 7427.8, 7444.6, 7461.4, 7478, 7494.7, 7511.5, 7527.7, 7544.6, 7561.9, 7577.8, 7594.4, 7611.3, 7627.9, 7644.4, 7661.5, 7677.8, 7694.3, 7711.3, 7728, 7744.4, 7761.2, 7777.9, 7794.5, 7811.2, 7827.9, 7844.5, 7861.3, 7878, 7894.4, 7911.4, 7927.9, 7944.4, 7961.3, 7978.1, 7994.7, 8011.4, 8027.9, 8044.7, 8061.4, 8078, 8094.6, 8111.2, 8127.9, 8144.8, 8161.3, 8177.9, 8194.7, 8211.1, 8228.1, 8244.6, 8261.5, 8278, 8294.4, 8311.3, 8328, 8344.5, 8361.2, 8377.8, 8394.7, 8411.1, 8427.7, 8444.5, 8461.2, 8478, 8494.7, 8511.3, 8527.9, 8544.4, 8561.3, 8577.8, 8594.8, 8611.5, 8627.9, 8644.6, 8661, 8677.9, 8695, 8711.4, 8728.2, 8744.5, 8761.2, 8777.9, 8794.6, 8811.3, 8828, 8844.5, 8861.1, 8877.9, 8894.6, 8911.3, 8928, 8944.7, 8961.4, 8977.8, 8994.7, 9011.1, 9027.7, 9044.4, 9061, 9078, 9094.7, 9111.4, 9127.8, 9144.5, 9161.4, 9177.8, 9194.4, 9211.5, 9227.9, 9244.7, 9261.8, 9278, 9294.4, 9311.2, 9328.2, 9344.7, 9361.1, 9378, 9394.5, 9411.3, 9428, 9444.5, 9461.1, 9478.1, 9494.7, 9511.2, 9527.6, 9544.5, 9561.5, 9577.9, 9594.5, 9611.2, 9628, 9644.7, 9661.2, 9678.2, 9694.7]","[1.1, 11.4, 16.6, 17, 16.5, 16.6, 16.8, 16.7, 16.6, 17, 16.5, 16.6, 16.9, 16.5, 16.9, 16.5, 16.7, 16.6, 16.8, 16.4, 16.7, 16.8, 16.6, 16.7, 16.4, 16.6, 17, 17, 16.4, 16.9, 16.2, 16.6, 17, 16.5, 16.8, 16.6, 16.7, 16.7, 16.7, 16.6, 16.6, 16.8, 16.6, 16.5, 16.6, 16.9, 16.7, 16.7, 16.7, 16.5, 16.4, 17, 16.4, 16.8, 16.7, 16.6, 16.8, 16.7, 16.6, 16.5, 17.1, 16.1, 17.2, 16.5, 16.7, 16.7, 16.4, 16.7, 17, 16.6, 16.6, 16.6, 16.8, 16.5, 16.6, 17.2, 16.1, 17, 16.3, 16.9, 16.9, 16.5, 16.5, 16.7, 16.7, 16.7, 16.7, 16.6, 16.5, 16.9, 16.4, 16.9, 16.4, 16.9, 16.4, 16.9, 16.6, 16.7, 16.8, 16.6, 16.7, 16.7, 16.6, 16.5, 16.7, 17.1, 16.2, 16.7, 16.9, 16.4, 16.7, 16.8, 16.6, 16.6, 16.5, 16.7, 16.9, 16.5, 16.8, 16.5, 16.9, 16.5, 16.6, 17.1, 16.4, 16.8, 16.8, 16.2, 16.8, 16.9, 16.7, 16.6, 16.9, 16.4, 16.5, 16.8, 16.7, 16.5, 16.8, 16.6, 16.9, 16.3, 16.8, 16.4, 16.9, 16.7, 16.6, 17.1, 16.3, 16.7, 16.6, 16.6, 16.5, 17, 16.7, 16.7, 16.6, 16.4, 17.2, 16.2, 16.6, 16.8, 16.9, 16.4, 16.8, 16.8, 16.6, 16.7, 16.8, 16.2, 16.9, 17.3, 15.9, 16.6, 16.9, 16.6, 16.5, 17.1, 16.3, 16.5, 17, 16.7, 16.4, 16.8, 16.7, 16.6, 16.7, 16.7, 16.6, 16.8, 16.7, 16.4, 17, 16.5, 16.5, 16.9, 16.8, 16.6, 16.7, 16.5, 16.8, 16.7, 16.6, 16.6, 16.6, 16.7, 16.9, 16.5, 16.6, 16.8, 16.4, 17, 16.5, 16.9, 16.5, 16.4, 16.9, 16.7, 16.5, 16.7, 16.6, 16.9, 16.4, 16.6, 16.8, 16.7, 16.8, 16.7, 16.6, 16.6, 16.5, 16.9, 16.5, 17, 16.7, 16.4, 16.7, 16.4, 16.9, 17.1, 16.4, 16.8, 16.3, 16.7, 16.7, 16.7, 16.7, 16.7, 16.5, 16.6, 16.8, 16.7, 16.7, 16.7, 16.7, 16.7, 16.4, 16.9, 16.4, 16.6, 16.7, 16.6, 17, 16.7, 16.7, 16.4, 16.7, 16.9, 16.4, 16.6, 17.1, 16.4, 16.8, 17.1, 16.2, 16.4, 16.8, 17, 16.5, 16.4, 16.9, 16.5, 16.8, 16.7, 16.5, 16.6, 17, 16.6, 16.5, 16.4, 16.9, 17, 16.4, 16.6, 16.7, 16.8, 16.7, 16.5, 17, 16.5]",60.0,60.0,60.0,4996.2,[],,,,,,,,,,,,,,,,,,,,,,,,,HRV,HRV_0121,2022-11-30 18:18:30
,wl-html-keyboard-response,2,25181,0.0-2.0-0.0,0.0,3.0,,,,,,,,13992.700000047684,0.0,0,,,,,,,,,,,,,,,,,,,,,,HRV,HRV_0121,2022-11-30 18:18:30
,wl-rdm,3,32487,0.0-3.0-0.0,0.0,4.0,,,,,,,[],,,,0.0,0.0,87.9,0.0,u,0.0,True,1725.6999998092651,104.0,60.0,40.0,False,,3000.0,[],"[960, 540]",ColorTask_Demo,,,,,HRV,HRV_0121,2022-11-30 18:18:30
,wl-rdm,4,37304,0.0-3.0-1.0,0.0,5.0,,,,,,,[],,,,0.0,0.0,87.9,1.0,i,1.0,True,737.4000000953674,45.0,60.0,40.0,False,,2000.0,[],"[960, 540]",ColorTask_Demo,,,,,HRV,HRV_0121,2022-11-30 18:18:30
,wl-html-keyboard-response,5,44020,0.0-3.0-2.0,0.0,6.0,,,,,,,,4708.400000095367,0.0,1,,,,,,,,,,,,,,,,,,,,,,HRV,HRV_0121,2022-11-30 18:18:30
,wl-html-keyboard-response,6,52185,0.0-4.0-0.0,0.0,7.0,,,,,,,,6144.700000047684,0.0,0,,,,,,,,,,,,,,,,,,,,,,HRV,HRV_0121,2022-11-30 18:18:30
,wl-html-keyboard-response,7,61228,0.0-5.0-0.0,0.0,8.0,,,,,,,,7035.599999904633,0.0,0,,,,,,,,,,,,,,,,,,,,,,HRV,HRV_0121,2022-11-30 18:18:30
,wl-rdm,8,63937,0.0-6.0-0.0,0.0,9.0,,,,,,,[],,,,,,56.4,0.0,u,0.0,True,1377.7000002861023,83.0,60.0,40.0,False,,255.17216032391647,[],"[960, 540]",ColorTask,1.0,1.0,,,HRV,HRV_0121,2022-11-30 18:18:30
,wl-rdm,9,66303,0.0-6.1-0.1,0.0,10.0,,,,,,,[],,,,,,53.2,0.0,i,1.0,False,1019.7999999523163,62.0,60.0,40.0,False,,282.3432077041509,[],"[960, 540]",ColorTask,0.0,2.0,,,HRV,HRV_0121,2022-11-30 18:18:30
,wl-rdm,10,68937,0.0-6.2-0.2,0.0,11.0,,,,,,,[],,,,,,50.0,1.0,u,0.0,False,1302.2999999523163,79.0,60.0,40.0,False,,247.34501770846487,[],"[960, 540]",ColorTask,-1.0,3.0,,,HRV,HRV_0121,2022-11-30 18:18:30
,wl-rdm,11,71387,0.0-6.3-0.3,0.0,12.0,,,,,,,[],,,,,,56.4,0.0,u,0.0,True,1057.7999999523163,64.0,60.0,40.0,False,,332.313530166643,[],"[960, 540]",ColorTask,0.0,4.0,,,HRV,HRV_0121,2022-11-30 18:18:30
,wl-rdm,12,73654,0.0-6.4-0.4,0.0,13.0,,,,,,,[],,,,,,50.0,1.0,u,0.0,False,830.7999999523163,50.0,60.0,40.0,False,,355.65602545451134,[],"[960, 540]",ColorTask,-1.0,5.0,,,HRV,HRV_0121,2022-11-30 18:18:30
,wl-rdm,13,75987,0.0-6.5-0.5,0.0,14.0,,,,,,,[],,,,,,50.0,0.0,i,1.0,False,982.5999999046326,59.0,60.0,40.0,False,,288.69761121920556,[],"[960, 540]",ColorTask,-2.0,6.0,,,HRV,HRV_0121,2022-11-30 18:18:30
,wl-rdm,14,78287,0.0-6.6-0.6,0.0,15.0,,,,,,,[],,,,,,56.4,1.0,i,1.0,True,912.7999999523163,55.0,60.0,40.0,False,,301.2369894252912,[],"[960, 540]",ColorTask,-1.0,7.0,,,HRV,HRV_0121,2022-11-30 18:18:30
,wl-rdm,15,81121,0.0-6.7-0.7,0.0,16.0,,,,,,,[],,,,,,50.0,1.0,u,0.0,False,1353.2999999523163,82.0,60.0,40.0,False,,384.3286149451287,[],"[960, 540]",ColorTask,-2.0,8.0,,,HRV,HRV_0121,2022-11-30 18:18:30
,wl-rdm,16,83487,0.0-6.8-0.8,0.0,17.0,,,,,,,[],,,,,,53.2,1.0,i,1.0,True,962.5,58.0,60.0,40.0,False,,337.47604376345157,[],"[960, 540]",ColorTask,-1.0,9.0,,,HRV,HRV_0121,2022-11-30 18:18:30
,wl-rdm,17,85454,0.0-6.9-0.9,0.0,18.0,,,,,,,[],,,,,,87.9,0.0,u,0.0,True,672.2000000476837,41.0,60.0,40.0,False,,203.92263412551688,[],"[960, 540]",ColorTask,0.0,10.0,,,HRV,HRV_0121,2022-11-30 18:18:30
,wl-rdm,18,88287,0.0-6.10-0.10,0.0,19.0,,,,,,,[],,,,,,53.2,1.0,u,0.0,False,1420.2000000476837,86.0,60.0,40.0,False,,339.58871836585274,[],"[960, 540]",ColorTask,-1.0,11.0,,,HRV,HRV_0121,2022-11-30 18:18:30
,wl-rdm,19,90371,0.0-6.11-0.11,0.0,20.0,,,,,,,[],,,,,,73.6,1.0,i,1.0,True,709.2000000476837,43.0,60.0,40.0,False,,300.02736770168156,[],"[960, 540]",ColorTask,0.0,12.0,,,HRV,HRV_0121,2022-11-30 18:18:30
,wl-rdm,20,92870,0.0-6.12-0.12,0.0,21.0,,,,,,,[],,,,,,62.5,0.0,u,0.0,True,1055.0,64.0,60.0,40.0,False,,361.5845315977616,[],"[960, 540]",ColorTask,1.0,13.0,,,HRV,HRV_0121,2022-11-30 18:18:30
,wl-rdm,21,95004,0.0-6.13-0.13,0.0,22.0,,,,,,,[],,,,,,56.4,0.0,i,1.0,False,734.2999999523163,45.0,60.0,40.0,False,,307.2583069636735,[],"[960, 540]",ColorTask,0.0,14.0,,,HRV,HRV_0121,2022-11-30 18:18:30
,wl-rdm,22,97154,0.0-6.14-0.14,0.0,23.0,,,,,,,[],,,,,,73.6,0.0,u,0.0,True,868.0,53.0,60.0,40.0,False,,202.7416660098689,[],"[960, 540]",ColorTask,1.0,15.0,,,HRV,HRV_0121,2022-11-30 18:18:30
,wl-rdm,23,99804,0.0-6.15-0.15,0.0,24.0,,,,,,,[],,,,,,62.5,0.0,u,0.0,True,1250.9000000953674,76.0,60.0,40.0,False,,309.44594718108965,[],"[960, 540]",ColorTask,2.0,16.0,,,HRV,HRV_0121,2022-11-30 18:18:30
,wl-rdm,24,102237,0.0-6.16-0.16,0.0,25.0,,,,,,,[],,,,,,56.4,0.0,i,1.0,False,1105.7999999523163,67.0,60.0,40.0,False,,265.5495490979932,[],"[960, 540]",ColorTask,1.0,17.0,,,HRV,HRV_0121,2022-11-30 18:18:30
,wl-rdm,25,104671,0.0-6.17-0.17,0.0,26.0,,,,,,,[],,,,,,87.9,1.0,i,1.0,True,1022.1999998092651,62.0,60.0,40.0,False,,321.8813837668697,[],"[960, 540]",ColorTask,2.0,18.0,,,HRV,HRV_0121,2022-11-30 18:18:30
,wl-rdm,26,106770,0.0-6.18-0.18,0.0,27.0,,,,,,,[],,,,,,87.9,0.0,u,0.0,True,767.4000000953674,47.0,60.0,40.0,False,,246.2640384738581,[],"[960, 540]",ColorTask,3.0,19.0,,,HRV,HRV_0121,2022-11-30 18:18:30
,wl-rdm,27,109521,0.0-6.19-0.19,0.0,28.0,,,,,,,[],,,,,,50.0,0.0,i,1.0,False,1336.1999998092651,81.0,60.0,40.0,False,,318.9571045409467,[],"[960, 540]",ColorTask,2.0,20.0,,,HRV,HRV_0121,2022-11-30 18:18:30
,wl-rdm,28,111987,0.0-6.20-0.20,0.0,29.0,,,,,,,[],,,,,,62.5,0.0,u,0.0,True,1150.6000001430511,70.0,60.0,40.0,False,,248.42344218571944,[],"[960, 540]",ColorTask,3.0,21.0,,,HRV,HRV_0121,2022-11-30 18:18:30
,wl-rdm,29,115004,0.0-6.21-0.21,0.0,30.0,,,,,,,[],,,,,,50.0,1.0,i,1.0,True,1591.2999999523163,96.0,60.0,40.0,False,,340.6065835030324,[],"[960, 540]",ColorTask,4.0,22.0,,,HRV,HRV_0121,2022-11-30 18:18:30
,wl-rdm,30,117137,0.0-6.22-0.22,0.0,31.0,,,,,,,[],,,,,,87.9,1.0,i,1.0,True,760.7999999523163,46.0,60.0,40.0,False,,285.1246705914117,[],"[960, 540]",ColorTask,5.0,23.0,,,HRV,HRV_0121,2022-11-30 18:18:30
,wl-rdm,31,120287,0.0-6.23-0.23,0.0,32.0,,,,,,,[],,,,,,56.4,1.0,i,1.0,True,1688.2999999523163,102.0,60.0,40.0,False,,374.1260617700908,[],"[960, 540]",ColorTask,6.0,24.0,,,HRV,HRV_0121,2022-11-30 18:18:30
,wl-rdm,32,122937,0.0-6.24-0.24,0.0,33.0,,,,,,,[],,,,,,53.2,0.0,u,0.0,True,1169.1999998092651,71.0,60.0,40.0,False,,387.285613195509,[],"[960, 540]",ColorTask,7.0,25.0,,,HRV,HRV_0121,2022-11-30 18:18:30
,wl-rdm,33,125870,0.0-6.25-0.25,0.0,34.0,,,,,,,[],,,,,,53.2,1.0,i,1.0,True,1596.0999999046326,96.0,60.0,40.0,False,,270.84725055033994,[],"[960, 540]",ColorTask,8.0,26.0,,,HRV,HRV_0121,2022-11-30 18:18:30
,wl-rdm,34,128704,0.0-6.26-0.26,0.0,35.0,,,,,,,[],,,,,,53.2,0.0,u,0.0,True,1370.3000001907349,83.0,60.0,40.0,False,,373.1948468073588,[],"[960, 540]",ColorTask,9.0,27.0,,,HRV,HRV_0121,2022-11-30 18:18:30
,wl-rdm,35,131054,0.0-6.27-0.27,0.0,36.0,,,,,,,[],,,,,,73.6,0.0,u,0.0,True,939.1999998092651,57.0,60.0,40.0,False,,317.1283465909653,[],"[960, 540]",ColorTask,10.0,28.0,,,HRV,HRV_0121,2022-11-30 18:18:30
,wl-rdm,36,133670,0.0-6.28-0.28,0.0,37.0,,,,,,,[],,,,,,73.6,0.0,u,0.0,True,1305.9000000953674,79.0,60.0,40.0,False,,221.01731893839613,[],"[960, 540]",ColorTask,11.0,29.0,,,HRV,HRV_0121,2022-11-30 18:18:30
,wl-rdm,37,136487,0.0-6.29-0.29,0.0,38.0,,,,,,,[],,,,,,56.4,0.0,u,0.0,True,1404.2000000476837,85.0,60.0,40.0,False,,329.5728124441358,[],"[960, 540]",ColorTask,12.0,30.0,,,HRV,HRV_0121,2022-11-30 18:18:30
,wl-rdm,38,139120,0.0-6.30-0.30,0.0,39.0,,,,,,,[],,,,,,87.9,0.0,u,0.0,True,1202.5999999046326,73.0,60.0,40.0,False,,362.74720190600834,[],"[960, 540]",ColorTask,13.0,31.0,,,HRV,HRV_0121,2022-11-30 18:18:30
,wl-rdm,39,141370,0.0-6.31-0.31,0.0,40.0,,,,,,,[],,,,,,62.5,1.0,i,1.0,True,884.7000000476837,54.0,60.0,40.0,False,,274.9219357206563,[],"[960, 540]",ColorTask,14.0,32.0,,,HRV,HRV_0121,2022-11-30 18:18:30
,wl-rdm,40,144103,0.0-6.32-0.32,0.0,41.0,,,,,,,[],,,,,,62.5,1.0,i,1.0,True,1370.8999998569489,83.0,60.0,40.0,False,,283.05805090333126,[],"[960, 540]",ColorTask,15.0,33.0,,,HRV,HRV_0121,2022-11-30 18:18:30
,wl-rdm,41,147403,0.0-6.33-0.33,0.0,42.0,,,,,,,[],,,,,,50.0,1.0,u,0.0,False,1849.1000001430511,111.0,60.0,40.0,False,,393.69249236656924,[],"[960, 540]",ColorTask,14.0,34.0,,,HRV,HRV_0121,2022-11-30 18:18:30
,wl-rdm,42,150187,0.0-6.34-0.34,0.0,43.0,,,,,,,[],,,,,,56.4,0.0,u,0.0,True,1500.7999999523163,91.0,60.0,40.0,False,,207.22225713148976,[],"[960, 540]",ColorTask,15.0,35.0,,,HRV,HRV_0121,2022-11-30 18:18:30
,wl-rdm,43,153187,0.0-6.35-0.35,0.0,44.0,,,,,,,[],,,,,,56.4,1.0,u,0.0,False,1701.0,103.0,60.0,40.0,False,,216.53826461502166,[],"[960, 540]",ColorTask,14.0,36.0,,,HRV,HRV_0121,2022-11-30 18:18:30
,wl-rdm,44,156270,0.0-6.36-0.36,0.0,45.0,,,,,,,[],,,,,,53.2,0.0,u,0.0,True,1797.0,108.0,60.0,40.0,False,,207.94635679830688,[],"[960, 540]",ColorTask,15.0,37.0,,,HRV,HRV_0121,2022-11-30 18:18:30
,wl-rdm,45,159420,0.0-6.37-0.37,0.0,46.0,,,,,,,[],,,,,,62.5,0.0,i,1.0,False,1773.2999999523163,107.0,60.0,40.0,False,,300.88045421344714,[],"[960, 540]",ColorTask,14.0,38.0,,,HRV,HRV_0121,2022-11-30 18:18:30
,wl-rdm,46,161803,0.0-6.38-0.38,0.0,47.0,,,,,,,[],,,,,,73.6,0.0,u,0.0,True,1032.0999999046326,62.0,60.0,40.0,False,,299.73398121920377,[],"[960, 540]",ColorTask,15.0,39.0,,,HRV,HRV_0121,2022-11-30 18:18:30
,wl-rdm,47,164570,0.0-6.39-0.39,0.0,48.0,,,,,,,[],,,,,,50.0,0.0,i,1.0,False,1434.5,87.0,60.0,40.0,False,,253.6691820487871,[],"[960, 540]",ColorTask,14.0,40.0,,,HRV,HRV_0121,2022-11-30 18:18:30
,wl-rdm,48,166703,0.0-6.40-0.40,0.0,49.0,,,,,,,[],,,,,,73.6,1.0,i,1.0,True,853.3999998569489,52.0,60.0,40.0,False,,203.01353951932637,[],"[960, 540]",ColorTask,15.0,41.0,,,HRV,HRV_0121,2022-11-30 18:18:30
,wl-rdm,49,168953,0.0-6.41-0.41,0.0,50.0,,,,,,,[],,,,,,73.6,0.0,u,0.0,True,968.0,59.0,60.0,40.0,False,,211.1646665105268,[],"[960, 540]",ColorTask,16.0,42.0,,,HRV,HRV_0121,2022-11-30 18:18:30
,wl-rdm,50,171353,0.0-6.42-0.42,0.0,51.0,,,,,,,[],,,,,,87.9,0.0,u,0.0,True,1034.3000001907349,63.0,60.0,40.0,False,,283.60224975083884,[],"[960, 540]",ColorTask,17.0,43.0,,,HRV,HRV_0121,2022-11-30 18:18:30
,wl-rdm,51,174270,0.0-6.43-0.43,0.0,52.0,,,,,,,[],,,,,,56.4,0.0,u,0.0,True,1504.2999999523163,91.0,60.0,40.0,False,,335.59849946768713,[],"[960, 540]",ColorTask,18.0,44.0,,,HRV,HRV_0121,2022-11-30 18:18:30
,wl-rdm,52,176887,0.0-6.44-0.44,0.0,53.0,,,,,,,[],,,,,,62.5,1.0,i,1.0,True,1304.6000001430511,79.0,60.0,40.0,False,,217.80204408292298,[],"[960, 540]",ColorTask,19.0,45.0,,,HRV,HRV_0121,2022-11-30 18:18:30
,wl-rdm,53,179387,0.0-6.45-0.45,0.0,54.0,,,,,,,[],,,,,,73.6,1.0,i,1.0,True,1167.2999999523163,71.0,60.0,40.0,False,,238.08143439973628,[],"[960, 540]",ColorTask,20.0,46.0,,,HRV,HRV_0121,2022-11-30 18:18:30
,wl-rdm,54,181770,0.0-6.46-0.46,0.0,55.0,,,,,,,[],,,,,,73.6,1.0,i,1.0,True,1058.7999999523163,64.0,60.0,40.0,False,,243.60863660563052,[],"[960, 540]",ColorTask,21.0,47.0,,,HRV,HRV_0121,2022-11-30 18:18:30
,wl-rdm,55,184637,0.0-6.47-0.47,0.0,56.0,,,,,,,[],,,,,,50.0,1.0,i,1.0,True,1439.7000000476837,87.0,60.0,40.0,False,,347.8767643923493,[],"[960, 540]",ColorTask,22.0,48.0,,,HRV,HRV_0121,2022-11-30 18:18:30
,wl-rdm,56,187237,0.0-6.48-0.48,0.0,57.0,,,,,,,[],,,,,,62.5,1.0,i,1.0,True,1256.3000001907349,76.0,60.0,40.0,False,,269.1011511279959,[],"[960, 540]",ColorTask,23.0,49.0,,,HRV,HRV_0121,2022-11-30 18:18:30
,wl-rdm,57,190037,0.0-6.49-0.49,0.0,58.0,,,,,,,[],,,,,,56.4,1.0,i,1.0,True,1372.4000000953674,83.0,60.0,40.0,False,,365.7371228947957,[],"[960, 540]",ColorTask,24.0,50.0,,,HRV,HRV_0121,2022-11-30 18:18:30
,wl-rdm,58,193120,0.0-6.50-0.50,0.0,59.0,,,,,,,[],,,,,,62.5,1.0,i,1.0,True,1602.9000000953674,97.0,60.0,40.0,False,,395.22321970257724,[],"[960, 540]",ColorTask,25.0,51.0,,,HRV,HRV_0121,2022-11-30 18:18:30
,wl-rdm,59,195503,0.0-6.51-0.51,0.0,60.0,,,,,,,[],,,,,,87.9,1.0,i,1.0,True,903.5,55.0,60.0,40.0,False,,393.95795460270597,[],"[960, 540]",ColorTask,26.0,52.0,,,HRV,HRV_0121,2022-11-30 18:18:30
,wl-rdm,60,198270,0.0-6.52-0.52,0.0,61.0,,,,,,,[],,,,,,56.4,1.0,u,0.0,False,1330.3999998569489,80.0,60.0,40.0,False,,359.17596004066684,[],"[960, 540]",ColorTask,25.0,53.0,,,HRV,HRV_0121,2022-11-30 18:18:30
,wl-rdm,61,201187,0.0-6.53-0.53,0.0,62.0,,,,,,,[],,,,,,56.4,1.0,i,1.0,True,1532.7000002861023,92.0,60.0,40.0,False,,321.45136149033453,[],"[960, 540]",ColorTask,26.0,54.0,,,HRV,HRV_0121,2022-11-30 18:18:30
,wl-rdm,62,203754,0.0-6.54-0.54,0.0,63.0,,,,,,,[],,,,,,50.0,1.0,u,0.0,False,1284.2999999523163,78.0,60.0,40.0,False,,205.27971318231405,[],"[960, 540]",ColorTask,25.0,55.0,,,HRV,HRV_0121,2022-11-30 18:18:30
,wl-rdm,63,205804,0.0-6.55-0.55,0.0,64.0,,,,,,,[],,,,,,87.9,1.0,i,1.0,True,698.7000000476837,42.0,60.0,40.0,False,,287.13040152010626,[],"[960, 540]",ColorTask,26.0,56.0,,,HRV,HRV_0121,2022-11-30 18:18:30
,wl-rdm,64,208587,0.0-6.56-0.56,0.0,65.0,,,,,,,[],,,,,,50.0,1.0,i,1.0,True,1484.5,90.0,60.0,40.0,False,,209.47263692690123,[],"[960, 540]",ColorTask,27.0,57.0,,,HRV,HRV_0121,2022-11-30 18:18:30
,wl-rdm,65,210987,0.0-6.57-0.57,0.0,66.0,,,,,,,[],,,,,,62.5,0.0,u,0.0,True,951.0,58.0,60.0,40.0,False,,369.5307985630828,[],"[960, 540]",ColorTask,28.0,58.0,,,HRV,HRV_0121,2022-11-30 18:18:30
,wl-rdm,66,213321,0.0-6.58-0.58,0.0,67.0,,,,,,,[],,,,,,73.6,1.0,i,1.0,True,1052.6000001430511,64.0,60.0,40.0,False,,206.34682799548912,[],"[960, 540]",ColorTask,29.0,59.0,,,HRV,HRV_0121,2022-11-30 18:18:30
,wl-rdm,67,216321,0.0-6.59-0.59,0.0,68.0,,,,,,,[],,,,,,53.2,0.0,u,0.0,True,1653.0999999046326,100.0,60.0,40.0,False,,264.50896776759294,[],"[960, 540]",ColorTask,30.0,60.0,,,HRV,HRV_0121,2022-11-30 18:18:30
,wl-rdm,68,218604,0.0-6.60-0.60,0.0,69.0,,,,,,,[],,,,,,50.0,1.0,u,0.0,False,841.7000000476837,51.0,60.0,40.0,False,,362.5898641751302,[],"[960, 540]",ColorTask,29.0,61.0,,,HRV,HRV_0121,2022-11-30 18:18:30
,wl-rdm,69,220870,0.0-6.61-0.61,0.0,70.0,,,,,,,[],,,,,,73.6,0.0,u,0.0,True,963.2000000476837,58.0,60.0,40.0,False,,236.88138866357184,[],"[960, 540]",ColorTask,30.0,62.0,,,HRV,HRV_0121,2022-11-30 18:18:30
,wl-rdm,70,223237,0.0-6.62-0.62,0.0,71.0,,,,,,,[],,,,,,73.6,1.0,i,1.0,True,914.5,55.0,60.0,40.0,False,,372.5114119432985,[],"[960, 540]",ColorTask,31.0,63.0,,,HRV,HRV_0121,2022-11-30 18:18:30
,wl-rdm,71,225687,0.0-6.63-0.63,0.0,72.0,,,,,,,[],,,,,,73.6,1.0,i,1.0,True,1095.6000001430511,66.0,60.0,40.0,False,,297.9461187508829,[],"[960, 540]",ColorTask,32.0,64.0,,,HRV,HRV_0121,2022-11-30 18:18:30
,wl-rdm,72,228887,0.0-6.64-0.64,0.0,73.0,,,,,,,[],,,,,,62.5,1.0,i,1.0,True,1762.9000000953674,106.0,60.0,40.0,False,,366.18689345465526,[],"[960, 540]",ColorTask,33.0,65.0,,,HRV,HRV_0121,2022-11-30 18:18:30
,wl-rdm,73,231504,0.0-6.65-0.65,0.0,74.0,,,,,,,[],,,,,,53.2,1.0,u,0.0,False,1194.8999998569489,72.0,60.0,40.0,False,,349.8284708120838,[],"[960, 540]",ColorTask,32.0,66.0,,,HRV,HRV_0121,2022-11-30 18:18:30
,wl-rdm,74,234104,0.0-6.66-0.66,0.0,75.0,,,,,,,[],,,,,,56.4,0.0,u,0.0,True,1303.4000000953674,79.0,60.0,40.0,False,,211.4994333334168,[],"[960, 540]",ColorTask,33.0,67.0,,,HRV,HRV_0121,2022-11-30 18:18:30
,wl-rdm,75,237470,0.0-6.67-0.67,0.0,76.0,,,,,,,[],,,,,,53.2,1.0,i,1.0,True,2063.2999999523163,124.0,60.0,40.0,False,,218.83483222113864,[],"[960, 540]",ColorTask,34.0,68.0,,,HRV,HRV_0121,2022-11-30 18:18:30
,wl-rdm,76,240337,0.0-6.68-0.68,0.0,77.0,,,,,,,[],,,,,,53.2,1.0,u,0.0,False,1435.7000000476837,87.0,60.0,40.0,False,,339.8615533033967,[],"[960, 540]",ColorTask,33.0,69.0,,,HRV,HRV_0121,2022-11-30 18:18:30
,wl-rdm,77,242687,0.0-6.69-0.69,0.0,78.0,,,,,,,[],,,,,,87.9,0.0,u,0.0,True,1046.2999999523163,63.0,60.0,40.0,False,,219.09905108020067,[],"[960, 540]",ColorTask,34.0,70.0,,,HRV,HRV_0121,2022-11-30 18:18:30
,wl-rdm,78,245904,0.0-6.70-0.70,0.0,79.0,,,,,,,[],,,,,,62.5,0.0,u,0.0,True,1869.5,113.0,60.0,40.0,False,,272.77721659024576,[],"[960, 540]",ColorTask,35.0,71.0,,,HRV,HRV_0121,2022-11-30 18:18:30
,wl-rdm,79,248154,0.0-6.71-0.71,0.0,80.0,,,,,,,[],,,,,,56.4,1.0,i,1.0,True,967.7999999523163,59.0,60.0,40.0,False,,206.2266604365169,[],"[960, 540]",ColorTask,36.0,72.0,,,HRV,HRV_0121,2022-11-30 18:18:30
,wl-rdm,80,250137,0.0-6.72-0.72,0.0,81.0,,,,,,,[],,,,,,87.9,0.0,u,0.0,True,685.6999998092651,42.0,60.0,40.0,False,,216.62018704985647,[],"[960, 540]",ColorTask,37.0,73.0,,,HRV,HRV_0121,2022-11-30 18:18:30
,wl-rdm,81,253204,0.0-6.73-0.73,0.0,82.0,,,,,,,[],,,,,,50.0,0.0,u,0.0,True,1632.4000000953674,98.0,60.0,40.0,False,,374.30437491981684,[],"[960, 540]",ColorTask,38.0,74.0,,,HRV,HRV_0121,2022-11-30 18:18:30
,wl-rdm,82,255537,0.0-6.74-0.74,0.0,83.0,,,,,,,[],,,,,,62.5,1.0,i,1.0,True,1035.7999999523163,63.0,60.0,40.0,False,,202.4098785988707,[],"[960, 540]",ColorTask,39.0,75.0,,,HRV,HRV_0121,2022-11-30 18:18:30
,wl-rdm,83,257904,0.0-6.75-0.75,0.0,84.0,,,,,,,[],,,,,,62.5,0.0,u,0.0,True,919.3999998569489,56.0,60.0,40.0,False,,370.3308938166141,[],"[960, 540]",ColorTask,40.0,76.0,,,HRV,HRV_0121,2022-11-30 18:18:30
,wl-rdm,84,261004,0.0-6.76-0.76,0.0,85.0,,,,,,,[],,,,,,53.2,0.0,u,0.0,True,1666.2999999523163,100.0,60.0,40.0,False,,365.3874064031563,[],"[960, 540]",ColorTask,41.0,77.0,,,HRV,HRV_0121,2022-11-30 18:18:30
,wl-rdm,85,263321,0.0-6.77-0.77,0.0,86.0,,,,,,,[],,,,,,73.6,1.0,i,1.0,True,994.6000001430511,60.0,60.0,40.0,False,,238.83919832463533,[],"[960, 540]",ColorTask,42.0,78.0,,,HRV,HRV_0121,2022-11-30 18:18:30
,wl-rdm,86,266587,0.0-6.78-0.78,0.0,87.0,,,,,,,[],,,,,,53.2,0.0,u,0.0,True,1874.5,113.0,60.0,40.0,False,,318.0039368509182,[],"[960, 540]",ColorTask,43.0,79.0,,,HRV,HRV_0121,2022-11-30 18:18:30
,wl-rdm,87,270004,0.0-6.79-0.79,0.0,88.0,,,,,,,[],,,,,,50.0,0.0,i,1.0,False,2132.2999999523163,128.0,60.0,40.0,False,,228.52640990230415,[],"[960, 540]",ColorTask,42.0,80.0,,,HRV,HRV_0121,2022-11-30 18:18:30
,wl-rdm,88,272088,0.0-6.80-0.80,0.0,89.0,,,,,,,[],,,,,,87.9,1.0,i,1.0,True,653.7999999523163,40.0,60.0,40.0,False,,333.20499706175445,[],"[960, 540]",ColorTask,43.0,81.0,,,HRV,HRV_0121,2022-11-30 18:18:30
,wl-rdm,89,274221,0.0-6.81-0.81,0.0,90.0,,,,,,,[],,,,,,73.6,0.0,u,0.0,True,707.3999998569489,43.0,60.0,40.0,False,,336.7786766682497,[],"[960, 540]",ColorTask,44.0,82.0,,,HRV,HRV_0121,2022-11-30 18:18:30
,wl-rdm,90,277070,0.0-6.82-0.82,0.0,91.0,,,,,,,[],,,,,,56.4,0.0,u,0.0,True,1504.3999998569489,91.0,60.0,40.0,False,,280.2158340549904,[],"[960, 540]",ColorTask,45.0,83.0,,,HRV,HRV_0121,2022-11-30 18:18:30
,wl-rdm,91,279554,0.0-6.83-0.83,0.0,92.0,,,,,,,[],,,,,,87.9,1.0,i,1.0,True,1142.5,69.0,60.0,40.0,False,,269.80103990002215,[],"[960, 540]",ColorTask,46.0,84.0,,,HRV,HRV_0121,2022-11-30 18:18:30
,wl-rdm,92,281920,0.0-6.84-0.84,0.0,93.0,,,,,,,[],,,,,,87.9,0.0,u,0.0,True,936.1000001430511,57.0,60.0,40.0,False,,352.8253953397523,[],"[960, 540]",ColorTask,47.0,85.0,,,HRV,HRV_0121,2022-11-30 18:18:30
,wl-rdm,93,284120,0.0-6.85-0.85,0.0,94.0,,,,,,,[],,,,,,73.6,1.0,i,1.0,True,811.5999999046326,49.0,60.0,40.0,False,,314.09915498651236,[],"[960, 540]",ColorTask,48.0,86.0,,,HRV,HRV_0121,2022-11-30 18:18:30
,wl-rdm,94,286537,0.0-6.86-0.86,0.0,95.0,,,,,,,[],,,,,,53.2,0.0,u,0.0,True,960.5999999046326,58.0,60.0,40.0,False,,395.08602662317685,[],"[960, 540]",ColorTask,49.0,87.0,,,HRV,HRV_0121,2022-11-30 18:18:30
,wl-rdm,95,289454,0.0-6.87-0.87,0.0,96.0,,,,,,,[],,,,,,62.5,0.0,u,0.0,True,1480.2999999523163,89.0,60.0,40.0,False,,368.16589661648356,[],"[960, 540]",ColorTask,50.0,88.0,,,HRV,HRV_0121,2022-11-30 18:18:30
,wl-rdm,96,291471,0.0-6.88-0.88,0.0,97.0,,,,,,,[],,,,,,87.9,0.0,u,0.0,True,638.7000000476837,39.0,60.0,40.0,False,,294.92666357139996,[],"[960, 540]",ColorTask,51.0,89.0,,,HRV,HRV_0121,2022-11-30 18:18:30
,wl-rdm,97,294887,0.0-6.89-0.89,0.0,98.0,,,,,,,[],,,,,,53.2,1.0,i,1.0,True,2062.7000000476837,124.0,60.0,40.0,False,,271.452550808127,[],"[960, 540]",ColorTask,52.0,90.0,,,HRV,HRV_0121,2022-11-30 18:18:30
,wl-rdm,98,298187,0.0-6.90-0.90,0.0,99.0,,,,,,,[],,,,,,56.4,1.0,i,1.0,True,1942.7000000476837,117.0,60.0,40.0,False,,281.2781174131169,[],"[960, 540]",ColorTask,53.0,91.0,,,HRV,HRV_0121,2022-11-30 18:18:30
,wl-rdm,99,300204,0.0-6.91-0.91,0.0,100.0,,,,,,,[],,,,,,87.9,1.0,i,1.0,True,623.7000000476837,38.0,60.0,40.0,False,,319.5669321105875,[],"[960, 540]",ColorTask,54.0,92.0,,,HRV,HRV_0121,2022-11-30 18:18:30
,wl-rdm,100,303454,0.0-6.92-0.92,0.0,101.0,,,,,,,[],,,,,,62.5,1.0,i,1.0,True,1947.3000001907349,117.0,60.0,40.0,False,,218.1265900346044,[],"[960, 540]",ColorTask,55.0,93.0,,,HRV,HRV_0121,2022-11-30 18:18:30
,wl-rdm,101,306870,0.0-6.93-0.93,0.0,102.0,,,,,,,[],,,,,,50.0,0.0,u,0.0,True,1963.6999998092651,118.0,60.0,40.0,False,,373.386832227222,[],"[960, 540]",ColorTask,56.0,94.0,,,HRV,HRV_0121,2022-11-30 18:18:30
,wl-rdm,102,309804,0.0-6.94-0.94,0.0,103.0,,,,,,,[],,,,,,62.5,1.0,i,1.0,True,1632.2000000476837,98.0,60.0,40.0,False,,244.92772281108884,[],"[960, 540]",ColorTask,57.0,95.0,,,HRV,HRV_0121,2022-11-30 18:18:30
,wl-rdm,103,312754,0.0-6.95-0.95,0.0,104.0,,,,,,,[],,,,,,53.2,1.0,u,0.0,False,1468.2999999523163,89.0,60.0,40.0,False,,396.93183636813126,[],"[960, 540]",ColorTask,56.0,96.0,,,HRV,HRV_0121,2022-11-30 18:18:30
,wl-rdm,104,314937,0.0-6.96-0.96,0.0,105.0,,,,,,,[],,,,,,53.2,1.0,i,1.0,True,793.3999998569489,48.0,60.0,40.0,False,,327.4986706277052,[],"[960, 540]",ColorTask,57.0,97.0,,,HRV,HRV_0121,2022-11-30 18:18:30
,wl-rdm,105,318137,0.0-6.97-0.97,0.0,106.0,,,,,,,[],,,,,,50.0,0.0,i,1.0,False,1869.0999999046326,113.0,60.0,40.0,False,,237.62487938543015,[],"[960, 540]",ColorTask,56.0,98.0,,,HRV,HRV_0121,2022-11-30 18:18:30
,wl-rdm,106,320403,0.0-6.98-0.98,0.0,107.0,,,,,,,[],,,,,,73.6,0.0,u,0.0,True,948.8999998569489,57.0,60.0,40.0,False,,260.4213641869412,[],"[960, 540]",ColorTask,57.0,99.0,,,HRV,HRV_0121,2022-11-30 18:18:30
,wl-rdm,107,323453,0.0-6.99-0.99,0.0,108.0,,,,,,,[],,,,,,56.4,1.0,i,1.0,True,1746.2999999523163,105.0,60.0,40.0,False,,241.66571963246793,[],"[960, 540]",ColorTask,58.0,100.0,,,HRV,HRV_0121,2022-11-30 18:18:30
,wl-rdm,108,327136,0.0-6.100-0.100,0.0,109.0,,,,,,,[],,,,,,50.0,0.0,u,0.0,True,2352.5,142.0,60.0,40.0,False,,244.29303731932754,[],"[960, 540]",ColorTask,59.0,101.0,,,HRV,HRV_0121,2022-11-30 18:18:30
,wl-rdm,109,329437,0.0-6.101-0.101,0.0,110.0,,,,,,,[],,,,,,87.9,1.0,i,1.0,True,923.5,56.0,60.0,40.0,False,,295.910652799734,[],"[960, 540]",ColorTask,60.0,102.0,,,HRV,HRV_0121,2022-11-30 18:18:30
,wl-rdm,110,331770,0.0-6.102-0.102,0.0,111.0,,,,,,,[],,,,,,62.5,0.0,u,0.0,True,868.0999999046326,53.0,60.0,40.0,False,,373.2489758304336,[],"[960, 540]",ColorTask,61.0,103.0,,,HRV,HRV_0121,2022-11-30 18:18:30
,wl-rdm,111,333870,0.0-6.103-0.103,0.0,112.0,,,,,,,[],,,,,,87.9,1.0,i,1.0,True,720.9000000953674,44.0,60.0,40.0,False,,308.584216901252,[],"[960, 540]",ColorTask,62.0,104.0,,,HRV,HRV_0121,2022-11-30 18:18:30
,wl-rdm,112,336987,0.0-6.104-0.104,0.0,113.0,,,,,,,[],,,,,,53.2,0.0,u,0.0,True,1741.7000000476837,105.0,60.0,40.0,False,,302.9009668250881,[],"[960, 540]",ColorTask,63.0,105.0,,,HRV,HRV_0121,2022-11-30 18:18:30
,wl-rdm,113,339303,0.0-6.105-0.105,0.0,114.0,,,,,,,[],,,,,,73.6,0.0,u,0.0,True,995.3000001907349,60.0,60.0,40.0,False,,238.43006174487385,[],"[960, 540]",ColorTask,64.0,106.0,,,HRV,HRV_0121,2022-11-30 18:18:30
,wl-rdm,114,341770,0.0-6.106-0.106,0.0,115.0,,,,,,,[],,,,,,87.9,0.0,u,0.0,True,1084.5000002384186,66.0,60.0,40.0,False,,301.0535201559554,[],"[960, 540]",ColorTask,65.0,107.0,,,HRV,HRV_0121,2022-11-30 18:18:30
,wl-rdm,115,345053,0.0-6.107-0.107,0.0,116.0,,,,,,,[],,,,,,50.0,0.0,u,0.0,True,1955.1999998092651,118.0,60.0,40.0,False,,257.36590674429635,[],"[960, 540]",ColorTask,66.0,108.0,,,HRV,HRV_0121,2022-11-30 18:18:30
,wl-html-keyboard-response,116,399140,0.0-7.0-0.0,1.0,117.0,,,,,,,,52077.90000009537,1.0,0,,,,,,,,,,,,,,,,,,,,,,HRV,HRV_0121,2022-11-30 18:18:30
,wl-rdm,117,401703,0.0-8.0-0.0,1.0,118.0,,,,,,,[],,,,,,73.6,0.0,u,0.0,True,1195.5,72.0,60.0,40.0,False,,287.13677679947614,[],"[960, 540]",ColorTask,67.0,1.0,,,HRV,HRV_0121,2022-11-30 18:18:30
,wl-rdm,118,404786,0.0-8.1-0.1,1.0,119.0,,,,,,,[],,,,,,53.2,0.0,i,1.0,False,1774.5,107.0,60.0,40.0,False,,243.0566810807363,[],"[960, 540]",ColorTask,66.0,2.0,,,HRV,HRV_0121,2022-11-30 18:18:30
,wl-rdm,119,406937,0.0-8.2-0.2,1.0,120.0,,,,,,,[],,,,,,87.9,1.0,i,1.0,True,727.5,44.0,60.0,40.0,False,,336.1227514289302,[],"[960, 540]",ColorTask,67.0,3.0,,,HRV,HRV_0121,2022-11-30 18:18:30
,wl-rdm,120,409353,0.0-8.3-0.3,1.0,121.0,,,,,,,[],,,,,,73.6,0.0,u,0.0,True,976.4000000953674,59.0,60.0,40.0,False,,379.6773857176602,[],"[960, 540]",ColorTask,68.0,4.0,,,HRV,HRV_0121,2022-11-30 18:18:30
,wl-rdm,121,412286,0.0-8.4-0.4,1.0,122.0,,,,,,,[],,,,,,53.2,1.0,i,1.0,True,1513.0,91.0,60.0,40.0,False,,345.7570874745162,[],"[960, 540]",ColorTask,69.0,5.0,,,HRV,HRV_0121,2022-11-30 18:18:30
,wl-rdm,122,414686,0.0-8.5-0.5,1.0,123.0,,,,,,,[],,,,,,73.6,1.0,i,1.0,True,1078.7999999523163,65.0,60.0,40.0,False,,252.46835867920612,[],"[960, 540]",ColorTask,70.0,6.0,,,HRV,HRV_0121,2022-11-30 18:18:30
,wl-rdm,123,416887,0.0-8.6-0.6,1.0,124.0,,,,,,,[],,,,,,87.9,0.0,u,0.0,True,754.0,46.0,60.0,40.0,False,,365.54554814392566,[],"[960, 540]",ColorTask,71.0,7.0,,,HRV,HRV_0121,2022-11-30 18:18:30
,wl-rdm,124,420487,0.0-8.7-0.7,1.0,125.0,,,,,,,[],,,,,,56.4,0.0,u,0.0,True,2137.9000000953674,129.0,60.0,40.0,False,,378.68633693083143,[],"[960, 540]",ColorTask,72.0,8.0,,,HRV,HRV_0121,2022-11-30 18:18:30
,wl-rdm,125,422370,0.0-8.8-0.8,1.0,126.0,,,,,,,[],,,,,,87.9,1.0,i,1.0,True,559.5,34.0,60.0,40.0,False,,234.21848184150917,[],"[960, 540]",ColorTask,73.0,9.0,,,HRV,HRV_0121,2022-11-30 18:18:30
,wl-rdm,126,424387,0.0-8.9-0.9,1.0,127.0,,,,,,,[],,,,,,87.9,1.0,i,1.0,True,649.2000000476837,39.0,60.0,40.0,False,,313.3335042869347,[],"[960, 540]",ColorTask,74.0,10.0,,,HRV,HRV_0121,2022-11-30 18:18:30
,wl-rdm,127,427903,0.0-8.10-0.10,1.0,128.0,,,,,,,[],,,,,,50.0,0.0,u,0.0,True,2203.2999999523163,133.0,60.0,40.0,False,,224.91270658611444,[],"[960, 540]",ColorTask,75.0,11.0,,,HRV,HRV_0121,2022-11-30 18:18:30
,wl-rdm,128,430520,0.0-8.11-0.11,1.0,129.0,,,,,,,[],,,,,,53.2,1.0,i,1.0,True,1261.7999999523163,76.0,60.0,40.0,False,,269.14915492515564,[],"[960, 540]",ColorTask,76.0,12.0,,,HRV,HRV_0121,2022-11-30 18:18:30
,wl-rdm,129,433186,0.0-8.12-0.12,1.0,130.0,,,,,,,[],,,,,,53.2,0.0,u,0.0,True,1192.2999999523163,72.0,60.0,40.0,False,,393.77804168299974,[],"[960, 540]",ColorTask,77.0,13.0,,,HRV,HRV_0121,2022-11-30 18:18:30
,wl-rdm,130,436187,0.0-8.13-0.13,1.0,131.0,,,,,,,[],,,,,,50.0,0.0,i,1.0,False,1582.7999999523163,95.0,60.0,40.0,False,,364.650468606304,[],"[960, 540]",ColorTask,76.0,14.0,,,HRV,HRV_0121,2022-11-30 18:18:30
,wl-rdm,131,438537,0.0-8.14-0.14,1.0,132.0,,,,,,,[],,,,,,62.5,0.0,u,0.0,True,877.6000001430511,53.0,60.0,40.0,False,,399.83371056096473,[],"[960, 540]",ColorTask,77.0,15.0,,,HRV,HRV_0121,2022-11-30 18:18:30
,wl-rdm,132,441420,0.0-8.15-0.15,1.0,133.0,,,,,,,[],,,,,,56.4,0.0,u,0.0,True,1539.7999999523163,93.0,60.0,40.0,False,,271.9474187714926,[],"[960, 540]",ColorTask,78.0,16.0,,,HRV,HRV_0121,2022-11-30 18:18:30
,wl-rdm,133,444137,0.0-8.16-0.16,1.0,134.0,,,,,,,[],,,,,,56.4,1.0,i,1.0,True,1327.5,80.0,60.0,40.0,False,,300.249778305213,[],"[960, 540]",ColorTask,79.0,17.0,,,HRV,HRV_0121,2022-11-30 18:18:30
,wl-rdm,134,446270,0.0-8.17-0.17,1.0,135.0,,,,,,,[],,,,,,73.6,0.0,u,0.0,True,780.2999999523163,47.0,60.0,40.0,False,,274.61187169298285,[],"[960, 540]",ColorTask,80.0,18.0,,,HRV,HRV_0121,2022-11-30 18:18:30
,wl-rdm,135,449404,0.0-8.18-0.18,1.0,136.0,,,,,,,[],,,,,,53.2,0.0,i,1.0,False,1732.2999999523163,104.0,60.0,40.0,False,,341.9414876215785,[],"[960, 540]",ColorTask,79.0,19.0,,,HRV,HRV_0121,2022-11-30 18:18:30
,wl-rdm,136,452503,0.0-8.19-0.19,1.0,137.0,,,,,,,[],,,,,,53.2,0.0,i,1.0,False,1619.9000000953674,98.0,60.0,40.0,False,,388.87211882623717,[],"[960, 540]",ColorTask,78.0,20.0,,,HRV,HRV_0121,2022-11-30 18:18:30
,wl-rdm,137,455737,0.0-8.20-0.20,1.0,138.0,,,,,,,[],,,,,,56.4,0.0,u,0.0,True,1894.0999999046326,114.0,60.0,40.0,False,,256.6395108544349,[],"[960, 540]",ColorTask,79.0,21.0,,,HRV,HRV_0121,2022-11-30 18:18:30
,wl-rdm,138,458853,0.0-8.21-0.21,1.0,139.0,,,,,,,[],,,,,,50.0,1.0,i,1.0,True,1813.8999998569489,109.0,60.0,40.0,False,,224.42994156142217,[],"[960, 540]",ColorTask,80.0,22.0,,,HRV,HRV_0121,2022-11-30 18:18:30
,wl-rdm,139,461020,0.0-8.22-0.22,1.0,140.0,,,,,,,[],,,,,,87.9,0.0,u,0.0,True,739.6000001430511,45.0,60.0,40.0,False,,361.406276956353,[],"[960, 540]",ColorTask,81.0,23.0,,,HRV,HRV_0121,2022-11-30 18:18:30
,wl-rdm,140,464087,0.0-8.23-0.23,1.0,141.0,,,,,,,[],,,,,,56.4,0.0,i,1.0,False,1763.0,106.0,60.0,40.0,False,,232.6414654425114,[],"[960, 540]",ColorTask,80.0,24.0,,,HRV,HRV_0121,2022-11-30 18:18:30
,wl-rdm,141,466204,0.0-8.24-0.24,1.0,142.0,,,,,,,[],,,,,,87.9,1.0,i,1.0,True,707.1999998092651,43.0,60.0,40.0,False,,346.7579030219987,[],"[960, 540]",ColorTask,81.0,25.0,,,HRV,HRV_0121,2022-11-30 18:18:30
,wl-rdm,142,469003,0.0-8.25-0.25,1.0,143.0,,,,,,,[],,,,,,53.2,0.0,u,0.0,True,1458.0999999046326,88.0,60.0,40.0,False,,263.1602244908381,[],"[960, 540]",ColorTask,82.0,26.0,,,HRV,HRV_0121,2022-11-30 18:18:30
,wl-rdm,143,471737,0.0-8.26-0.26,1.0,144.0,,,,,,,[],,,,,,62.5,1.0,i,1.0,True,1352.0999999046326,82.0,60.0,40.0,False,,302.35942868845837,[],"[960, 540]",ColorTask,83.0,27.0,,,HRV,HRV_0121,2022-11-30 18:18:30
,wl-rdm,144,473804,0.0-8.27-0.27,1.0,145.0,,,,,,,[],,,,,,87.9,0.0,u,0.0,True,740.5,45.0,60.0,40.0,False,,251.84169948738253,[],"[960, 540]",ColorTask,84.0,28.0,,,HRV,HRV_0121,2022-11-30 18:18:30
,wl-rdm,145,476303,0.0-8.28-0.28,1.0,146.0,,,,,,,[],,,,,,53.2,0.0,u,0.0,True,1178.7000000476837,71.0,60.0,40.0,False,,246.06965763435545,[],"[960, 540]",ColorTask,85.0,29.0,,,HRV,HRV_0121,2022-11-30 18:18:30
,wl-rdm,146,479404,0.0-8.29-0.29,1.0,147.0,,,,,,,[],,,,,,50.0,1.0,u,0.0,False,1782.4000000953674,107.0,60.0,40.0,False,,250.25624754776987,[],"[960, 540]",ColorTask,84.0,30.0,,,HRV,HRV_0121,2022-11-30 18:18:30
,wl-rdm,147,482720,0.0-8.30-0.30,1.0,148.0,,,,,,,[],,,,,,56.4,0.0,i,1.0,False,1952.5,118.0,60.0,40.0,False,,287.6693231253814,[],"[960, 540]",ColorTask,83.0,31.0,,,HRV,HRV_0121,2022-11-30 18:18:30
,wl-rdm,148,484970,0.0-8.31-0.31,1.0,149.0,,,,,,,[],,,,,,73.6,1.0,i,1.0,True,925.5,56.0,60.0,40.0,False,,256.9831170729415,[],"[960, 540]",ColorTask,84.0,32.0,,,HRV,HRV_0121,2022-11-30 18:18:30
,wl-rdm,149,487387,0.0-8.32-0.32,1.0,150.0,,,,,,,[],,,,,,73.6,1.0,i,1.0,True,1050.5999999046326,64.0,60.0,40.0,False,,296.93470369419515,[],"[960, 540]",ColorTask,85.0,33.0,,,HRV,HRV_0121,2022-11-30 18:18:30
,wl-rdm,150,489570,0.0-8.33-0.33,1.0,151.0,,,,,,,[],,,,,,73.6,0.0,u,0.0,True,825.6000001430511,50.0,60.0,40.0,False,,277.7939273894473,[],"[960, 540]",ColorTask,86.0,34.0,,,HRV,HRV_0121,2022-11-30 18:18:30
,wl-rdm,151,492087,0.0-8.34-0.34,1.0,152.0,,,,,,,[],,,,,,62.5,1.0,i,1.0,True,1104.8999998569489,67.0,60.0,40.0,False,,328.3490522189736,[],"[960, 540]",ColorTask,87.0,35.0,,,HRV,HRV_0121,2022-11-30 18:18:30
,wl-rdm,152,494370,0.0-8.35-0.35,1.0,153.0,,,,,,,[],,,,,,73.6,1.0,i,1.0,True,908.5999999046326,55.0,60.0,40.0,False,,314.08529058946453,[],"[960, 540]",ColorTask,88.0,36.0,,,HRV,HRV_0121,2022-11-30 18:18:30
,wl-rdm,153,497419,0.0-8.36-0.36,1.0,154.0,,,,,,,[],,,,,,56.4,1.0,u,0.0,False,1600.3999998569489,97.0,60.0,40.0,False,,362.25412270486447,[],"[960, 540]",ColorTask,87.0,37.0,,,HRV,HRV_0121,2022-11-30 18:18:30
,wl-rdm,154,500169,0.0-8.37-0.37,1.0,155.0,,,,,,,[],,,,,,50.0,1.0,u,0.0,False,1442.8999998569489,87.0,60.0,40.0,False,,224.13276364861946,[],"[960, 540]",ColorTask,86.0,38.0,,,HRV,HRV_0121,2022-11-30 18:18:30
,wl-rdm,155,502719,0.0-8.38-0.38,1.0,156.0,,,,,,,[],,,,,,56.4,1.0,i,1.0,True,1127.7999999523163,68.0,60.0,40.0,False,,355.19542605439074,[],"[960, 540]",ColorTask,87.0,39.0,,,HRV,HRV_0121,2022-11-30 18:18:30
,wl-rdm,156,504919,0.0-8.39-0.39,1.0,157.0,,,,,,,[],,,,,,56.4,0.0,u,0.0,True,911.0,55.0,60.0,40.0,False,,228.83070713780995,[],"[960, 540]",ColorTask,88.0,40.0,,,HRV,HRV_0121,2022-11-30 18:18:30
,wl-rdm,157,508536,0.0-8.40-0.40,1.0,158.0,,,,,,,[],,,,,,50.0,1.0,i,1.0,True,2152.5,130.0,60.0,40.0,False,,380.6806359908516,[],"[960, 540]",ColorTask,89.0,41.0,,,HRV,HRV_0121,2022-11-30 18:18:30
,wl-rdm,158,512069,0.0-8.41-0.41,1.0,159.0,,,,,,,[],,,,,,50.0,0.0,u,0.0,True,2079.5,125.0,60.0,40.0,False,,375.15766880024194,[],"[960, 540]",ColorTask,90.0,42.0,,,HRV,HRV_0121,2022-11-30 18:18:30
,wl-rdm,159,514136,0.0-8.42-0.42,1.0,160.0,,,,,,,[],,,,,,73.6,1.0,i,1.0,True,710.7000002861023,43.0,60.0,40.0,False,,276.7048360569171,[],"[960, 540]",ColorTask,91.0,43.0,,,HRV,HRV_0121,2022-11-30 18:18:30
,wl-rdm,160,516569,0.0-8.43-0.43,1.0,161.0,,,,,,,[],,,,,,56.4,1.0,i,1.0,True,1134.0,69.0,60.0,40.0,False,,228.89830643471328,[],"[960, 540]",ColorTask,92.0,44.0,,,HRV,HRV_0121,2022-11-30 18:18:30
,wl-rdm,161,518736,0.0-8.44-0.44,1.0,162.0,,,,,,,[],,,,,,50.0,0.0,u,0.0,True,877.7000000476837,53.0,60.0,40.0,False,,214.13034779986754,[],"[960, 540]",ColorTask,93.0,45.0,,,HRV,HRV_0121,2022-11-30 18:18:30
,wl-rdm,162,520686,0.0-8.45-0.45,1.0,163.0,,,,,,,[],,,,,,87.9,0.0,u,0.0,True,620.5999999046326,38.0,60.0,40.0,False,,265.90616239881444,[],"[960, 540]",ColorTask,94.0,46.0,,,HRV,HRV_0121,2022-11-30 18:18:30
,wl-rdm,163,522936,0.0-8.46-0.46,1.0,164.0,,,,,,,[],,,,,,62.5,0.0,u,0.0,True,944.4999997615814,57.0,60.0,40.0,False,,222.0734779328654,[],"[960, 540]",ColorTask,95.0,47.0,,,HRV,HRV_0121,2022-11-30 18:18:30
,wl-rdm,164,524820,0.0-8.47-0.47,1.0,165.0,,,,,,,[],,,,,,87.9,0.0,u,0.0,True,573.3000001907349,35.0,60.0,40.0,False,,244.96899979548687,[],"[960, 540]",ColorTask,96.0,48.0,,,HRV,HRV_0121,2022-11-30 18:18:30
,wl-rdm,165,526770,0.0-8.48-0.48,1.0,166.0,,,,,,,[],,,,,,73.6,1.0,i,1.0,True,674.9999997615814,41.0,60.0,40.0,False,,217.1923236149081,[],"[960, 540]",ColorTask,97.0,49.0,,,HRV,HRV_0121,2022-11-30 18:18:30
,wl-rdm,166,528919,0.0-8.49-0.49,1.0,167.0,,,,,,,[],,,,,,87.9,1.0,i,1.0,True,761.7000000476837,46.0,60.0,40.0,False,,308.41337658512504,[],"[960, 540]",ColorTask,98.0,50.0,,,HRV,HRV_0121,2022-11-30 18:18:30
,wl-rdm,167,530852,0.0-8.50-0.50,1.0,168.0,,,,,,,[],,,,,,73.6,0.0,u,0.0,True,605.1000001430511,37.0,60.0,40.0,False,,264.3564483919058,[],"[960, 540]",ColorTask,99.0,51.0,,,HRV,HRV_0121,2022-11-30 18:18:30
,wl-rdm,168,534970,0.0-8.51-0.51,1.0,169.0,,,,,,,[],,,,,,50.0,1.0,i,1.0,True,2775.4000000953674,167.0,60.0,40.0,False,,271.46803665187383,[],"[960, 540]",ColorTask,100.0,52.0,,,HRV,HRV_0121,2022-11-30 18:18:30
,wl-rdm,169,538369,0.0-8.52-0.52,1.0,170.0,,,,,,,[],,,,,,56.4,1.0,i,1.0,True,2009.5999999046326,121.0,60.0,40.0,False,,303.11315987719234,[],"[960, 540]",ColorTask,101.0,53.0,,,HRV,HRV_0121,2022-11-30 18:18:30
,wl-rdm,170,541436,0.0-8.53-0.53,1.0,171.0,,,,,,,[],,,,,,56.4,1.0,i,1.0,True,1615.0,97.0,60.0,40.0,False,,380.526335825378,[],"[960, 540]",ColorTask,102.0,54.0,,,HRV,HRV_0121,2022-11-30 18:18:30
,wl-rdm,171,543786,0.0-8.54-0.54,1.0,172.0,,,,,,,[],,,,,,53.2,0.0,u,0.0,True,1051.2999999523163,64.0,60.0,40.0,False,,208.58336864756228,[],"[960, 540]",ColorTask,103.0,55.0,,,HRV,HRV_0121,2022-11-30 18:18:30
,wl-rdm,172,545774,0.0-8.55-0.55,1.0,173.0,,,,,,,[],,,,,,87.9,1.0,i,1.0,True,576.2999999523163,35.0,60.0,40.0,False,,332.39332529651074,[],"[960, 540]",ColorTask,104.0,56.0,,,HRV,HRV_0121,2022-11-30 18:18:30
,wl-rdm,173,548903,0.0-8.56-0.56,1.0,174.0,,,,,,,[],,,,,,53.2,1.0,u,0.0,False,1662.0,100.0,60.0,40.0,False,,386.38708353377683,[],"[960, 540]",ColorTask,103.0,57.0,,,HRV,HRV_0121,2022-11-30 18:18:30
,wl-rdm,174,551853,0.0-8.57-0.57,1.0,175.0,,,,,,,[],,,,,,53.2,1.0,i,1.0,True,1630.0999999046326,98.0,60.0,40.0,False,,257.0157091847071,[],"[960, 540]",ColorTask,104.0,58.0,,,HRV,HRV_0121,2022-11-30 18:18:30
,wl-rdm,175,553786,0.0-8.58-0.58,1.0,176.0,,,,,,,[],,,,,,87.9,0.0,u,0.0,True,650.2000000476837,40.0,60.0,40.0,False,,212.59827936530624,[],"[960, 540]",ColorTask,105.0,59.0,,,HRV,HRV_0121,2022-11-30 18:18:30
,wl-rdm,176,556936,0.0-8.59-0.59,1.0,177.0,,,,,,,[],,,,,,50.0,1.0,i,1.0,True,1710.1999998092651,103.0,60.0,40.0,False,,369.2386031669453,[],"[960, 540]",ColorTask,106.0,60.0,,,HRV,HRV_0121,2022-11-30 18:18:30
,wl-rdm,177,559737,0.0-8.60-0.60,1.0,178.0,,,,,,,[],,,,,,53.2,1.0,i,1.0,True,1501.8999998569489,91.0,60.0,40.0,False,,202.46200360477926,[],"[960, 540]",ColorTask,107.0,61.0,,,HRV,HRV_0121,2022-11-30 18:18:30
,wl-rdm,178,562703,0.0-8.61-0.61,1.0,179.0,,,,,,,[],,,,,,50.0,0.0,u,0.0,True,1645.4000000953674,99.0,60.0,40.0,False,,234.32464206829866,[],"[960, 540]",ColorTask,108.0,62.0,,,HRV,HRV_0121,2022-11-30 18:18:30
,wl-rdm,179,564753,0.0-8.62-0.62,1.0,180.0,,,,,,,[],,,,,,73.6,0.0,u,0.0,True,685.0,42.0,60.0,40.0,False,,277.46423252949813,[],"[960, 540]",ColorTask,109.0,63.0,,,HRV,HRV_0121,2022-11-30 18:18:30
,wl-rdm,180,567787,0.0-8.63-0.63,1.0,181.0,,,,,,,[],,,,,,53.2,0.0,u,0.0,True,1699.0999999046326,102.0,60.0,40.0,False,,271.7997626673761,[],"[960, 540]",ColorTask,110.0,64.0,,,HRV,HRV_0121,2022-11-30 18:18:30
,wl-rdm,181,569953,0.0-8.64-0.64,1.0,182.0,,,,,,,[],,,,,,62.5,1.0,i,1.0,True,817.6999998092651,50.0,60.0,40.0,False,,257.713035976911,[],"[960, 540]",ColorTask,111.0,65.0,,,HRV,HRV_0121,2022-11-30 18:18:30
,wl-rdm,182,571987,0.0-8.65-0.65,1.0,183.0,,,,,,,[],,,,,,73.6,1.0,i,1.0,True,657.6999998092651,40.0,60.0,40.0,False,,311.4079318358761,[],"[960, 540]",ColorTask,112.0,66.0,,,HRV,HRV_0121,2022-11-30 18:18:30
,wl-rdm,183,574420,0.0-8.66-0.66,1.0,184.0,,,,,,,[],,,,,,62.5,1.0,i,1.0,True,1040.3000001907349,63.0,60.0,40.0,False,,327.9647016328935,[],"[960, 540]",ColorTask,113.0,67.0,,,HRV,HRV_0121,2022-11-30 18:18:30
,wl-rdm,184,577487,0.0-8.67-0.67,1.0,185.0,,,,,,,[],,,,,,62.5,1.0,i,1.0,True,1695.1000001430511,102.0,60.0,40.0,False,,310.9190410235329,[],"[960, 540]",ColorTask,114.0,68.0,,,HRV,HRV_0121,2022-11-30 18:18:30
,wl-rdm,185,580253,0.0-8.68-0.68,1.0,186.0,,,,,,,[],,,,,,53.2,1.0,i,1.0,True,1439.3000001907349,87.0,60.0,40.0,False,,246.1719346784721,[],"[960, 540]",ColorTask,115.0,69.0,,,HRV,HRV_0121,2022-11-30 18:18:30
,wl-rdm,186,583587,0.0-8.69-0.69,1.0,187.0,,,,,,,[],,,,,,53.2,0.0,i,1.0,False,1966.7999999523163,118.0,60.0,40.0,False,,312.8159076066678,[],"[960, 540]",ColorTask,114.0,70.0,,,HRV,HRV_0121,2022-11-30 18:18:30
,wl-rdm,187,585470,0.0-8.70-0.70,1.0,188.0,,,,,,,[],,,,,,87.9,1.0,i,1.0,True,604.5,37.0,60.0,40.0,False,,212.02468160352774,[],"[960, 540]",ColorTask,115.0,71.0,,,HRV,HRV_0121,2022-11-30 18:18:30
,wl-rdm,188,588387,0.0-8.71-0.71,1.0,189.0,,,,,,,[],,,,,,62.5,0.0,u,0.0,True,1450.6999998092651,88.0,60.0,40.0,False,,391.1764781881753,[],"[960, 540]",ColorTask,116.0,72.0,,,HRV,HRV_0121,2022-11-30 18:18:30
,wl-rdm,189,590570,0.0-8.72-0.72,1.0,190.0,,,,,,,[],,,,,,73.6,0.0,u,0.0,True,734.5999999046326,45.0,60.0,40.0,False,,372.6570994596617,[],"[960, 540]",ColorTask,117.0,73.0,,,HRV,HRV_0121,2022-11-30 18:18:30
,wl-rdm,190,594087,0.0-8.73-0.73,1.0,191.0,,,,,,,[],,,,,,56.4,0.0,i,1.0,False,2129.5999999046326,128.0,60.0,40.0,False,,302.1418448754373,[],"[960, 540]",ColorTask,116.0,74.0,,,HRV,HRV_0121,2022-11-30 18:18:30
,wl-rdm,191,596087,0.0-8.74-0.74,1.0,192.0,,,,,,,[],,,,,,87.9,1.0,i,1.0,True,671.0,41.0,60.0,40.0,False,,236.8230142977207,[],"[960, 540]",ColorTask,117.0,75.0,,,HRV,HRV_0121,2022-11-30 18:18:30
,wl-rdm,192,598937,0.0-8.75-0.75,1.0,193.0,,,,,,,[],,,,,,62.5,0.0,u,0.0,True,1427.0,86.0,60.0,40.0,False,,362.3986355716314,[],"[960, 540]",ColorTask,118.0,76.0,,,HRV,HRV_0121,2022-11-30 18:18:30
,wl-rdm,193,601837,0.0-8.76-0.76,1.0,194.0,,,,,,,[],,,,,,62.5,0.0,u,0.0,True,1514.9000000953674,91.0,60.0,40.0,False,,314.11624221003444,[],"[960, 540]",ColorTask,119.0,77.0,,,HRV,HRV_0121,2022-11-30 18:18:30
,wl-rdm,194,604024,0.0-8.77-0.77,1.0,195.0,,,,,,,[],,,,,,87.9,0.0,u,0.0,True,790.2999999523163,48.0,60.0,40.0,False,,309.45513358166124,[],"[960, 540]",ColorTask,120.0,78.0,,,HRV,HRV_0121,2022-11-30 18:18:30
,wl-rdm,195,606603,0.0-8.78-0.78,1.0,196.0,,,,,,,[],,,,,,56.4,1.0,i,1.0,True,1266.0999999046326,76.0,60.0,40.0,False,,250.63836823748855,[],"[960, 540]",ColorTask,121.0,79.0,,,HRV,HRV_0121,2022-11-30 18:18:30
,wl-rdm,196,609453,0.0-8.79-0.79,1.0,197.0,,,,,,,[],,,,,,62.5,1.0,i,1.0,True,1514.5000002384186,91.0,60.0,40.0,False,,254.47167240199303,[],"[960, 540]",ColorTask,122.0,80.0,,,HRV,HRV_0121,2022-11-30 18:18:30
,wl-rdm,197,611737,0.0-8.80-0.80,1.0,198.0,,,,,,,[],,,,,,73.6,0.0,u,0.0,True,868.2999999523163,53.0,60.0,40.0,False,,333.52545272001464,[],"[960, 540]",ColorTask,123.0,81.0,,,HRV,HRV_0121,2022-11-30 18:18:30
,wl-rdm,198,613786,0.0-8.81-0.81,1.0,199.0,,,,,,,[],,,,,,73.6,1.0,i,1.0,True,765.9999997615814,46.0,60.0,40.0,False,,233.64014531600864,[],"[960, 540]",ColorTask,124.0,82.0,,,HRV,HRV_0121,2022-11-30 18:18:30
,wl-rdm,199,615987,0.0-8.82-0.82,1.0,200.0,,,,,,,[],,,,,,87.9,0.0,u,0.0,True,757.7000000476837,46.0,60.0,40.0,False,,375.6912791549556,[],"[960, 540]",ColorTask,125.0,83.0,,,HRV,HRV_0121,2022-11-30 18:18:30
,wl-rdm,200,619187,0.0-8.83-0.83,1.0,201.0,,,,,,,[],,,,,,50.0,1.0,i,1.0,True,1791.6000001430511,108.0,60.0,40.0,False,,337.1634563184701,[],"[960, 540]",ColorTask,126.0,84.0,,,HRV,HRV_0121,2022-11-30 18:18:30
,wl-rdm,201,621503,0.0-8.84-0.84,1.0,202.0,,,,,,,[],,,,,,56.4,0.0,u,0.0,True,978.2000000476837,59.0,60.0,40.0,False,,281.8769873803929,[],"[960, 540]",ColorTask,127.0,85.0,,,HRV,HRV_0121,2022-11-30 18:18:30
,wl-rdm,202,624370,0.0-8.85-0.85,1.0,203.0,,,,,,,[],,,,,,56.4,1.0,i,1.0,True,1542.4000000953674,93.0,60.0,40.0,False,,265.6525916770086,[],"[960, 540]",ColorTask,128.0,86.0,,,HRV,HRV_0121,2022-11-30 18:18:30
,wl-rdm,203,626636,0.0-8.86-0.86,1.0,204.0,,,,,,,[],,,,,,56.4,0.0,u,0.0,True,989.0999999046326,60.0,60.0,40.0,False,,215.37472788234223,[],"[960, 540]",ColorTask,129.0,87.0,,,HRV,HRV_0121,2022-11-30 18:18:30
,wl-rdm,204,629070,0.0-8.87-0.87,1.0,205.0,,,,,,,[],,,,,,62.5,1.0,i,1.0,True,1138.3999998569489,69.0,60.0,40.0,False,,204.79177812167444,[],"[960, 540]",ColorTask,130.0,88.0,,,HRV,HRV_0121,2022-11-30 18:18:30
,wl-rdm,205,631720,0.0-8.88-0.88,1.0,206.0,,,,,,,[],,,,,,50.0,0.0,u,0.0,True,1219.4000000953674,74.0,60.0,40.0,False,,348.046176223339,[],"[960, 540]",ColorTask,131.0,89.0,,,HRV,HRV_0121,2022-11-30 18:18:30
,wl-rdm,206,634470,0.0-8.89-0.89,1.0,207.0,,,,,,,[],,,,,,53.2,1.0,i,1.0,True,1413.6999998092651,85.0,60.0,40.0,False,,255.4352320232034,[],"[960, 540]",ColorTask,132.0,90.0,,,HRV,HRV_0121,2022-11-30 18:18:30
,wl-rdm,207,637320,0.0-8.90-0.90,1.0,208.0,,,,,,,[],,,,,,53.2,1.0,i,1.0,True,1535.5,93.0,60.0,40.0,False,,242.33376669779992,[],"[960, 540]",ColorTask,133.0,91.0,,,HRV,HRV_0121,2022-11-30 18:18:30
,wl-rdm,208,639753,0.0-8.91-0.91,1.0,209.0,,,,,,,[],,,,,,50.0,1.0,u,0.0,False,1001.6000001430511,61.0,60.0,40.0,False,,333.9177336129842,[],"[960, 540]",ColorTask,132.0,92.0,,,HRV,HRV_0121,2022-11-30 18:18:30
,wl-rdm,209,642370,0.0-8.92-0.92,1.0,210.0,,,,,,,[],,,,,,62.5,0.0,u,0.0,True,1284.7000000476837,78.0,60.0,40.0,False,,251.11526228552742,[],"[960, 540]",ColorTask,133.0,93.0,,,HRV,HRV_0121,2022-11-30 18:18:30
,wl-rdm,210,645437,0.0-8.93-0.93,1.0,211.0,,,,,,,[],,,,,,62.5,0.0,u,0.0,True,1780.5999999046326,107.0,60.0,40.0,False,,231.41521235968432,[],"[960, 540]",ColorTask,134.0,94.0,,,HRV,HRV_0121,2022-11-30 18:18:30
,wl-rdm,211,647836,0.0-8.94-0.94,1.0,212.0,,,,,,,[],,,,,,62.5,1.0,i,1.0,True,1047.7999999523163,63.0,60.0,40.0,False,,291.23170508605824,[],"[960, 540]",ColorTask,135.0,95.0,,,HRV,HRV_0121,2022-11-30 18:18:30
,wl-rdm,212,650753,0.0-8.95-0.95,1.0,213.0,,,,,,,[],,,,,,50.0,0.0,u,0.0,True,1476.8999998569489,89.0,60.0,40.0,False,,353.095747994932,[],"[960, 540]",ColorTask,136.0,96.0,,,HRV,HRV_0121,2022-11-30 18:18:30
,wl-rdm,213,652903,0.0-8.96-0.96,1.0,214.0,,,,,,,[],,,,,,87.9,1.0,i,1.0,True,753.7999999523163,46.0,60.0,40.0,False,,306.0271748521376,[],"[960, 540]",ColorTask,137.0,97.0,,,HRV,HRV_0121,2022-11-30 18:18:30
,wl-rdm,214,655353,0.0-8.97-0.97,1.0,215.0,,,,,,,[],,,,,,73.6,1.0,i,1.0,True,1167.5,71.0,60.0,40.0,False,,205.93789573910382,[],"[960, 540]",ColorTask,138.0,98.0,,,HRV,HRV_0121,2022-11-30 18:18:30
,wl-rdm,215,658553,0.0-8.98-0.98,1.0,216.0,,,,,,,[],,,,,,50.0,1.0,i,1.0,True,1726.7999999523163,104.0,60.0,40.0,False,,394.39512288903677,[],"[960, 540]",ColorTask,139.0,99.0,,,HRV,HRV_0121,2022-11-30 18:18:30
,wl-rdm,216,661420,0.0-8.99-0.99,1.0,217.0,,,,,,,[],,,,,,62.5,0.0,u,0.0,True,1564.5,94.0,60.0,40.0,False,,242.9296176263971,[],"[960, 540]",ColorTask,140.0,100.0,,,HRV,HRV_0121,2022-11-30 18:18:30
,wl-rdm,217,663520,0.0-8.100-0.100,1.0,218.0,,,,,,,[],,,,,,87.9,0.0,u,0.0,True,685.9000000953674,42.0,60.0,40.0,False,,343.68763896918324,[],"[960, 540]",ColorTask,141.0,101.0,,,HRV,HRV_0121,2022-11-30 18:18:30
,wl-rdm,218,665953,0.0-8.101-0.101,1.0,219.0,,,,,,,[],,,,,,62.5,0.0,u,0.0,True,976.6000001430511,59.0,60.0,40.0,False,,374.7278152929525,[],"[960, 540]",ColorTask,142.0,102.0,,,HRV,HRV_0121,2022-11-30 18:18:30
,wl-rdm,219,668403,0.0-8.102-0.102,1.0,220.0,,,,,,,[],,,,,,62.5,1.0,i,1.0,True,1017.2000000476837,62.0,60.0,40.0,False,,346.7638848686072,[],"[960, 540]",ColorTask,143.0,103.0,,,HRV,HRV_0121,2022-11-30 18:18:30
,wl-rdm,220,671337,0.0-8.103-0.103,1.0,221.0,,,,,,,[],,,,,,50.0,0.0,i,1.0,False,1543.7999999523163,93.0,60.0,40.0,False,,315.3220710833441,[],"[960, 540]",ColorTask,142.0,104.0,,,HRV,HRV_0121,2022-11-30 18:18:30
,wl-rdm,221,673936,0.0-8.104-0.104,1.0,222.0,,,,,,,[],,,,,,50.0,0.0,u,0.0,True,1302.3000001907349,79.0,60.0,40.0,False,,207.02874313529816,[],"[960, 540]",ColorTask,143.0,105.0,,,HRV,HRV_0121,2022-11-30 18:18:30
,wl-rdm,222,676986,0.0-8.105-0.105,1.0,223.0,,,,,,,[],,,,,,53.2,1.0,u,0.0,False,1616.5,97.0,60.0,40.0,False,,369.40268933263377,[],"[960, 540]",ColorTask,142.0,106.0,,,HRV,HRV_0121,2022-11-30 18:18:30
,wl-rdm,223,679636,0.0-8.106-0.106,1.0,224.0,,,,,,,[],,,,,,56.4,1.0,i,1.0,True,1289.9000000953674,78.0,60.0,40.0,False,,275.4843241998572,[],"[960, 540]",ColorTask,143.0,107.0,,,HRV,HRV_0121,2022-11-30 18:18:30
,wl-rdm,224,681670,0.0-8.107-0.107,1.0,225.0,,,,,,,[],,,,,,73.6,0.0,u,0.0,True,721.4000000953674,44.0,60.0,40.0,False,,221.7524465646499,[],"[960, 540]",ColorTask,144.0,108.0,,,HRV,HRV_0121,2022-11-30 18:18:30
,wl-html-button-response,225,685118,0.0-9.0-0.0,,,,,,,,,,3446.399999856949,,0,,,,,,,,,,,,,,,,,,,,<h3>End of this session. Thank you!</h3><br>,['Close window'],HRV,HRV_0121,2022-11-30 18:18:30
