success,trial_type,trial_index,time_elapsed,internal_node_id,Block,TrialNumber,TrialTime,trialTimeDiff,FPS_avg,FPS_med,FPS_mode,TrialDur,winResizeTime,rt,block,button_pressed,MotCoh,MotDir,ColCoh,Color,ChoiceKey,Choice,Accuracy,RT,nFrames,FPS,PPD,missTrial,missTrialMsg,onsetDelay,fullScreenExitTime,canvCenter,TrialType,Score,BlockTrial,stimulus,button_labels,exp,subjectId,date
True,fullscreen,0,1559,0.0-0.0,0.0,1.0,,,,,,,,,,,,,,,,,,,,,,,,,,,,,,,,HRV,HRV_0279,2022-11-30 20:45:17
,wl-check-fps,1,6600,0.0-1.0,0.0,2.0,"[2299.2, 2315.3, 2350.5, 2365.2, 2382.1, 2399.2, 2415.4, 2433.2, 2448.6, 2464.9, 2482.3, 2498.3, 2515.1, 2531.5, 2548.2, 2564.8, 2581.6, 2598.3, 2615, 2631.7, 2648.4, 2665.1, 2682, 2698.5, 2715.2, 2732.5, 2748.8, 2765.3, 2782.1, 2798.6, 2815, 2831.9, 2848.6, 2865.3, 2881.9, 2898.8, 2915.2, 2932.2, 2948.8, 2965.4, 2982.2, 2998.8, 3015.5, 3032.9, 3048.7, 3065.6, 3082.1, 3098.9, 3115.5, 3132.1, 3148.8, 3165.5, 3182.2, 3198.8, 3215.5, 3232.3, 3248.8, 3265.5, 3282.3, 3298.9, 3315.6, 3332.4, 3348.9, 3365.6, 3382.3, 3399.2, 3415.9, 3432.3, 3449, 3465.8, 3482.4, 3504.1, 3516.1, 3532.4, 3550.8, 3566, 3582.9, 3599.7, 3616.3, 3633, 3649.3, 3666.3, 3682.9, 3699.7, 3716.5, 3733.7, 3750, 3767.7, 3782.9, 3799.7, 3816.3, 3833.4, 3850, 3867.5, 3886.3, 3900.5, 3916.3, 3933.1, 3949.4, 3966.4, 3983, 3999.7, 4016.4, 4032.8, 4049.6, 4066.3, 4082.9, 4099.6, 4116.2, 4132.9, 4149.8, 4167.3, 4184.6, 4199.7, 4216.2, 4233, 4250.1, 4266.5, 4283.1, 4299.8, 4316.5, 4333.2, 4349.8, 4366.5, 4384, 4399.9, 4416.6, 4433.2, 4449.8, 4466.6, 4483.3, 4499.6, 4516.8, 4533.6, 4550, 4567.1, 4583.6, 4600, 4616.7, 4633.2, 4649.9, 4666.5, 4683.5, 4700, 4716.7, 4733.6, 4749.9, 4766.7, 4783.3, 4800.1, 4817, 4833.7, 4850.8, 4867.7, 4884.6, 4900.3, 4917.5, 4934.7, 4951.4, 4967.5, 4984.9, 5000.9, 5017.4, 5034.6, 5051, 5068, 5084.7, 5101.1, 5117.4, 5134, 5150.5, 5168.8, 5184, 5201.7, 5217.8, 5234.4, 5251.1, 5268.4, 5284.6, 5301, 5317.8, 5334.5, 5350.8, 5367.4, 5385, 5401, 5418, 5434.5, 5450.7, 5467.2, 5484.6, 5501.3, 5517.9, 5534.8, 5551.1, 5567.5, 5585, 5600.9, 5617.5, 5634.5, 5650.9, 5667.6, 5684.7, 5700.8, 5717.7, 5734.2, 5751.5, 5767.7, 5784.1, 5800.9, 5818.1, 5834.7, 5851, 5868.1, 5884.6, 5902.7, 5918.3, 5935.1, 5951.3, 5969.7, 5985.3, 6002.7, 6019.4, 6035.5, 6051.1, 6068.5, 6085.4, 6102.5, 6119.5, 6135.4, 6152.5, 6169.5, 6185.5, 6201.9, 6219.2, 6235.8, 6253.5, 6267.9, 6284.5, 6301.2, 6318.2, 6334.5, 6351.8, 6367.9, 6384.8, 6401.5, 6418.8, 6434.9, 6452.2, 6468.4, 6485.3, 6501.4, 6518, 6534.6, 6551.3, 6570.1, 6584.6, 6601.2, 6618.2, 6634.7, 6651.6, 6668, 6684.8, 6701.7, 6718, 6734.8, 6751.2, 6768.1, 6784.8, 6801.4, 6817.9, 6835.4, 6852.1, 6868.4, 6885.2, 6902.2, 6918.4, 6934.7, 6951.5, 6968.4, 6984.9, 7001.5, 7018.3, 7034.8, 7051.6, 7068.3, 7085, 7101.6, 7118.4, 7134.7, 7152.3, 7169.1, 7185.7, 7202.4, 7219.6, 7235.5, 7252.1, 7269.1, 7286, 7302.4]","[14.8, 16.1, 35.2, 14.7, 16.9, 17.1, 16.2, 17.8, 15.4, 16.3, 17.4, 16, 16.8, 16.4, 16.7, 16.6, 16.8, 16.7, 16.7, 16.7, 16.7, 16.7, 16.9, 16.5, 16.7, 17.3, 16.3, 16.5, 16.8, 16.5, 16.4, 16.9, 16.7, 16.7, 16.6, 16.9, 16.4, 17, 16.6, 16.6, 16.8, 16.6, 16.7, 17.4, 15.8, 16.9, 16.5, 16.8, 16.6, 16.6, 16.7, 16.7, 16.7, 16.6, 16.7, 16.8, 16.5, 16.7, 16.8, 16.6, 16.7, 16.8, 16.5, 16.7, 16.7, 16.9, 16.7, 16.4, 16.7, 16.8, 16.6, 21.7, 12, 16.3, 18.4, 15.2, 16.9, 16.8, 16.6, 16.7, 16.3, 17, 16.6, 16.8, 16.8, 17.2, 16.3, 17.7, 15.2, 16.8, 16.6, 17.1, 16.6, 17.5, 18.8, 14.2, 15.8, 16.8, 16.3, 17, 16.6, 16.7, 16.7, 16.4, 16.8, 16.7, 16.6, 16.7, 16.6, 16.7, 16.9, 17.5, 17.3, 15.1, 16.5, 16.8, 17.1, 16.4, 16.6, 16.7, 16.7, 16.7, 16.6, 16.7, 17.5, 15.9, 16.7, 16.6, 16.6, 16.8, 16.7, 16.3, 17.2, 16.8, 16.4, 17.1, 16.5, 16.4, 16.7, 16.5, 16.7, 16.6, 17, 16.5, 16.7, 16.9, 16.3, 16.8, 16.6, 16.8, 16.9, 16.7, 17.1, 16.9, 16.9, 15.7, 17.2, 17.2, 16.7, 16.1, 17.4, 16, 16.5, 17.2, 16.4, 17, 16.7, 16.4, 16.3, 16.6, 16.5, 18.3, 15.2, 17.7, 16.1, 16.6, 16.7, 17.3, 16.2, 16.4, 16.8, 16.7, 16.3, 16.6, 17.6, 16, 17, 16.5, 16.2, 16.5, 17.4, 16.7, 16.6, 16.9, 16.3, 16.4, 17.5, 15.9, 16.6, 17, 16.4, 16.7, 17.1, 16.1, 16.9, 16.5, 17.3, 16.2, 16.4, 16.8, 17.2, 16.6, 16.3, 17.1, 16.5, 18.1, 15.6, 16.8, 16.2, 18.4, 15.6, 17.4, 16.7, 16.1, 15.6, 17.4, 16.9, 17.1, 17, 15.9, 17.1, 17, 16, 16.4, 17.3, 16.6, 17.7, 14.4, 16.6, 16.7, 17, 16.3, 17.3, 16.1, 16.9, 16.7, 17.3, 16.1, 17.3, 16.2, 16.9, 16.1, 16.6, 16.6, 16.7, 18.8, 14.5, 16.6, 17, 16.5, 16.9, 16.4, 16.8, 16.9, 16.3, 16.8, 16.4, 16.9, 16.7, 16.6, 16.5, 17.5, 16.7, 16.3, 16.8, 17, 16.2, 16.3, 16.8, 16.9, 16.5, 16.6, 16.8, 16.5, 16.8, 16.7, 16.7, 16.6, 16.8, 16.3, 17.6, 16.8, 16.6, 16.7, 17.2, 15.9, 16.6, 17, 16.9, 16.4]",60.0,59.0,60.0,5034.8,[],,,,,,,,,,,,,,,,,,,,,,,,,HRV,HRV_0279,2022-11-30 20:45:17
,wl-html-keyboard-response,2,25424,0.0-2.0-0.0,0.0,3.0,,,,,,,,16798.799999952316,0.0,0,,,,,,,,,,,,,,,,,,,,,,HRV,HRV_0279,2022-11-30 20:45:17
,wl-rdm,3,32585,0.0-3.0-0.0,0.0,4.0,,,,,,,[],,,,0.0,0.0,87.9,0.0,u,0.0,True,1584.0,95.0,60.0,40.0,False,,3000.0,[],"[684, 456]",ColorTask_Demo,,,,,HRV,HRV_0279,2022-11-30 20:45:17
,wl-rdm,4,37474,0.0-3.0-1.0,0.0,5.0,,,,,,,[],,,,0.0,0.0,87.9,1.0,i,1.0,True,824.5000000596046,50.0,60.0,40.0,False,,2000.0,[],"[684, 456]",ColorTask_Demo,,,,,HRV,HRV_0279,2022-11-30 20:45:17
,wl-html-keyboard-response,5,42601,0.0-3.0-2.0,0.0,6.0,,,,,,,,3097.2000000476837,0.0,1,,,,,,,,,,,,,,,,,,,,,,HRV,HRV_0279,2022-11-30 20:45:17
,wl-html-keyboard-response,6,53213,0.0-4.0-0.0,0.0,7.0,,,,,,,,8600.599999964237,0.0,0,,,,,,,,,,,,,,,,,,,,,,HRV,HRV_0279,2022-11-30 20:45:17
,wl-html-keyboard-response,7,73642,0.0-5.0-0.0,0.0,8.0,,,,,,,,18418.100000023842,0.0,0,,,,,,,,,,,,,,,,,,,,,,HRV,HRV_0279,2022-11-30 20:45:17
,wl-rdm,8,76516,0.0-6.0-0.0,0.0,9.0,,,,,,,[],,,,,,56.4,1.0,i,1.0,True,1438.5,86.0,60.0,40.0,False,,366.87078814865185,[],"[684, 456]",ColorTask,1.0,1.0,,,HRV,HRV_0279,2022-11-30 20:45:17
,wl-rdm,9,79034,0.0-6.1-0.1,0.0,10.0,,,,,,,[],,,,,,53.2,0.0,u,0.0,True,1095.7999999523163,66.0,60.0,40.0,False,,336.96365172052765,[],"[684, 456]",ColorTask,2.0,2.0,,,HRV,HRV_0279,2022-11-30 20:45:17
,wl-rdm,10,81070,0.0-6.2-0.2,0.0,11.0,,,,,,,[],,,,,,62.5,1.0,i,1.0,True,701.4000000357628,42.0,60.0,40.0,False,,256.77783166458704,[],"[684, 456]",ColorTask,3.0,3.0,,,HRV,HRV_0279,2022-11-30 20:45:17
,wl-rdm,11,83621,0.0-6.3-0.3,0.0,12.0,,,,,,,[],,,,,,50.0,0.0,u,0.0,True,1176.5999999642372,71.0,60.0,40.0,False,,311.5934106749605,[],"[684, 456]",ColorTask,4.0,4.0,,,HRV,HRV_0279,2022-11-30 20:45:17
,wl-rdm,12,86076,0.0-6.4-0.4,0.0,13.0,,,,,,,[],,,,,,62.5,0.0,i,1.0,False,1001.1000000238419,60.0,60.0,40.0,False,,392.96616526649814,[],"[684, 456]",ColorTask,3.0,5.0,,,HRV,HRV_0279,2022-11-30 20:45:17
,wl-rdm,13,88257,0.0-6.5-0.5,0.0,14.0,,,,,,,[],,,,,,53.2,0.0,i,1.0,False,872.1999999880791,53.0,60.0,40.0,False,,242.67700014458165,[],"[684, 456]",ColorTask,2.0,6.0,,,HRV,HRV_0279,2022-11-30 20:45:17
,wl-rdm,14,91027,0.0-6.6-0.6,0.0,15.0,,,,,,,[],,,,,,62.5,1.0,i,1.0,True,1438.5,87.0,60.0,40.0,False,,251.58588532568487,[],"[684, 456]",ColorTask,3.0,7.0,,,HRV,HRV_0279,2022-11-30 20:45:17
,wl-rdm,15,93263,0.0-6.7-0.7,0.0,16.0,,,,,,,[],,,,,,87.9,1.0,i,1.0,True,949.3000000119209,57.0,60.0,40.0,False,,208.3221111743041,[],"[684, 456]",ColorTask,4.0,8.0,,,HRV,HRV_0279,2022-11-30 20:45:17
,wl-rdm,16,95579,0.0-6.8-0.8,0.0,17.0,,,,,,,[],,,,,,56.4,0.0,u,0.0,True,911.3999999761581,55.0,60.0,40.0,False,,333.7389957026965,[],"[684, 456]",ColorTask,5.0,9.0,,,HRV,HRV_0279,2022-11-30 20:45:17
,wl-rdm,17,98113,0.0-6.9-0.9,0.0,18.0,,,,,,,[],,,,,,56.4,0.0,u,0.0,True,1172.6000000238419,71.0,60.0,40.0,False,,286.6489764789834,[],"[684, 456]",ColorTask,6.0,10.0,,,HRV,HRV_0279,2022-11-30 20:45:17
,wl-rdm,18,100398,0.0-6.10-0.10,0.0,19.0,,,,,,,[],,,,,,73.6,1.0,i,1.0,True,910.7000000476837,55.0,60.0,40.0,False,,301.4440383013837,[],"[684, 456]",ColorTask,7.0,11.0,,,HRV,HRV_0279,2022-11-30 20:45:17
,wl-rdm,19,102728,0.0-6.11-0.11,0.0,20.0,,,,,,,[],,,,,,50.0,0.0,u,0.0,True,1066.300000011921,64.0,60.0,40.0,False,,212.63002767277038,[],"[684, 456]",ColorTask,8.0,12.0,,,HRV,HRV_0279,2022-11-30 20:45:17
,wl-rdm,20,104963,0.0-6.12-0.12,0.0,21.0,,,,,,,[],,,,,,73.6,0.0,u,0.0,True,886.2000000476837,54.0,60.0,40.0,False,,282.4973024639177,[],"[684, 456]",ColorTask,9.0,13.0,,,HRV,HRV_0279,2022-11-30 20:45:17
,wl-rdm,21,107483,0.0-6.13-0.13,0.0,22.0,,,,,,,[],,,,,,56.4,0.0,u,0.0,True,1246.6000000238419,75.0,60.0,40.0,False,,201.90814948548976,[],"[684, 456]",ColorTask,10.0,14.0,,,HRV,HRV_0279,2022-11-30 20:45:17
,wl-rdm,22,109734,0.0-6.14-0.14,0.0,23.0,,,,,,,[],,,,,,73.6,0.0,u,0.0,True,954.1999999880791,58.0,60.0,40.0,False,,223.8837009614455,[],"[684, 456]",ColorTask,11.0,15.0,,,HRV,HRV_0279,2022-11-30 20:45:17
,wl-rdm,23,111852,0.0-6.15-0.15,0.0,24.0,,,,,,,[],,,,,,87.9,1.0,i,1.0,True,713.5000000596046,43.0,60.0,40.0,False,,349.2017716875205,[],"[684, 456]",ColorTask,12.0,16.0,,,HRV,HRV_0279,2022-11-30 20:45:17
,wl-rdm,24,114488,0.0-6.16-0.16,0.0,25.0,,,,,,,[],,,,,,56.4,1.0,i,1.0,True,1325.1000000238419,80.0,60.0,40.0,False,,236.63054421618514,[],"[684, 456]",ColorTask,13.0,17.0,,,HRV,HRV_0279,2022-11-30 20:45:17
,wl-rdm,25,116956,0.0-6.17-0.17,0.0,26.0,,,,,,,[],,,,,,53.2,1.0,u,0.0,False,1151.699999988079,69.0,60.0,40.0,False,,239.89232677053653,[],"[684, 456]",ColorTask,12.0,18.0,,,HRV,HRV_0279,2022-11-30 20:45:17
,wl-rdm,26,119190,0.0-6.18-0.18,0.0,27.0,,,,,,,[],,,,,,87.9,1.0,i,1.0,True,829.5,50.0,60.0,40.0,False,,327.49583957697644,[],"[684, 456]",ColorTask,13.0,19.0,,,HRV,HRV_0279,2022-11-30 20:45:17
,wl-rdm,27,122092,0.0-6.19-0.19,0.0,28.0,,,,,,,[],,,,,,50.0,1.0,u,0.0,False,1461.3999999761581,88.0,60.0,40.0,False,,360.1333057755836,[],"[684, 456]",ColorTask,12.0,20.0,,,HRV,HRV_0279,2022-11-30 20:45:17
,wl-rdm,28,125077,0.0-6.20-0.20,0.0,29.0,,,,,,,[],,,,,,53.2,1.0,i,1.0,True,1573.3000000715256,95.0,60.0,40.0,False,,334.3778676499796,[],"[684, 456]",ColorTask,13.0,21.0,,,HRV,HRV_0279,2022-11-30 20:45:17
,wl-rdm,29,127631,0.0-6.21-0.21,0.0,30.0,,,,,,,[],,,,,,62.5,1.0,i,1.0,True,1271.6000000238419,77.0,60.0,40.0,False,,206.03883636111627,[],"[684, 456]",ColorTask,14.0,22.0,,,HRV,HRV_0279,2022-11-30 20:45:17
,wl-rdm,30,129681,0.0-6.22-0.22,0.0,31.0,,,,,,,[],,,,,,73.6,0.0,u,0.0,True,719.0,44.0,60.0,40.0,False,,265.50051979798934,[],"[684, 456]",ColorTask,15.0,23.0,,,HRV,HRV_0279,2022-11-30 20:45:17
,wl-rdm,31,132233,0.0-6.23-0.23,0.0,32.0,,,,,,,[],,,,,,50.0,0.0,u,0.0,True,1263.2000000476837,76.0,60.0,40.0,False,,218.319595118947,[],"[684, 456]",ColorTask,16.0,24.0,,,HRV,HRV_0279,2022-11-30 20:45:17
,wl-rdm,32,134301,0.0-6.24-0.24,0.0,33.0,,,,,,,[],,,,,,73.6,1.0,i,1.0,True,761.5000000596046,46.0,60.0,40.0,False,,228.63063322818402,[],"[684, 456]",ColorTask,17.0,25.0,,,HRV,HRV_0279,2022-11-30 20:45:17
,wl-rdm,33,137069,0.0-6.25-0.25,0.0,34.0,,,,,,,[],,,,,,62.5,1.0,i,1.0,True,1482.7999999523163,89.0,60.0,40.0,False,,218.13016317329243,[],"[684, 456]",ColorTask,18.0,26.0,,,HRV,HRV_0279,2022-11-30 20:45:17
,wl-rdm,34,139604,0.0-6.26-0.26,0.0,35.0,,,,,,,[],,,,,,50.0,1.0,u,0.0,False,1245.199999988079,75.0,60.0,40.0,False,,224.3591787554394,[],"[684, 456]",ColorTask,17.0,27.0,,,HRV,HRV_0279,2022-11-30 20:45:17
,wl-rdm,35,142289,0.0-6.27-0.27,0.0,36.0,,,,,,,[],,,,,,53.2,0.0,u,0.0,True,1299.199999988079,78.0,60.0,40.0,False,,318.12900115160545,[],"[684, 456]",ColorTask,18.0,28.0,,,HRV,HRV_0279,2022-11-30 20:45:17
,wl-rdm,36,145058,0.0-6.28-0.28,0.0,37.0,,,,,,,[],,,,,,62.5,1.0,u,0.0,False,1373.6999999284744,83.0,60.0,40.0,False,,332.96011616304384,[],"[684, 456]",ColorTask,17.0,29.0,,,HRV,HRV_0279,2022-11-30 20:45:17
,wl-rdm,37,148127,0.0-6.29-0.29,0.0,38.0,,,,,,,[],,,,,,56.4,0.0,u,0.0,True,1716.2000000476837,103.0,60.0,40.0,False,,279.9472492647445,[],"[684, 456]",ColorTask,18.0,30.0,,,HRV,HRV_0279,2022-11-30 20:45:17
,wl-rdm,38,150895,0.0-6.30-0.30,0.0,39.0,,,,,,,[],,,,,,50.0,1.0,i,1.0,True,1476.5,89.0,60.0,40.0,False,,232.1558862882552,[],"[684, 456]",ColorTask,19.0,31.0,,,HRV,HRV_0279,2022-11-30 20:45:17
,wl-rdm,39,153046,0.0-6.31-0.31,0.0,40.0,,,,,,,[],,,,,,73.6,1.0,i,1.0,True,740.2999999523163,45.0,60.0,40.0,False,,334.29906478783255,[],"[684, 456]",ColorTask,20.0,32.0,,,HRV,HRV_0279,2022-11-30 20:45:17
,wl-rdm,40,154997,0.0-6.32-0.32,0.0,41.0,,,,,,,[],,,,,,87.9,0.0,u,0.0,True,647.5,39.0,60.0,40.0,False,,229.3396006070931,[],"[684, 456]",ColorTask,21.0,33.0,,,HRV,HRV_0279,2022-11-30 20:45:17
,wl-rdm,41,157382,0.0-6.33-0.33,0.0,42.0,,,,,,,[],,,,,,73.6,0.0,u,0.0,True,1036.2000000476837,63.0,60.0,40.0,False,,269.5304566733002,[],"[684, 456]",ColorTask,22.0,34.0,,,HRV,HRV_0279,2022-11-30 20:45:17
,wl-rdm,42,159467,0.0-6.34-0.34,0.0,43.0,,,,,,,[],,,,,,56.4,1.0,i,1.0,True,772.6000000238419,47.0,60.0,40.0,False,,243.63292352393978,[],"[684, 456]",ColorTask,23.0,35.0,,,HRV,HRV_0279,2022-11-30 20:45:17
,wl-rdm,43,161435,0.0-6.35-0.35,0.0,44.0,,,,,,,[],,,,,,87.9,1.0,i,1.0,True,692.6000000238419,42.0,60.0,40.0,False,,212.42837017790214,[],"[684, 456]",ColorTask,24.0,36.0,,,HRV,HRV_0279,2022-11-30 20:45:17
,wl-rdm,44,163658,0.0-6.36-0.36,0.0,45.0,,,,,,,[],,,,,,53.2,0.0,u,0.0,True,945.2999999523163,57.0,60.0,40.0,False,,210.87200132779031,[],"[684, 456]",ColorTask,25.0,37.0,,,HRV,HRV_0279,2022-11-30 20:45:17
,wl-rdm,45,165892,0.0-6.37-0.37,0.0,46.0,,,,,,,[],,,,,,62.5,1.0,i,1.0,True,922.2999999523163,56.0,60.0,40.0,False,,248.97641528207896,[],"[684, 456]",ColorTask,26.0,38.0,,,HRV,HRV_0279,2022-11-30 20:45:17
,wl-rdm,46,168127,0.0-6.38-0.38,0.0,47.0,,,,,,,[],,,,,,62.5,0.0,u,0.0,True,894.2000000476837,54.0,60.0,40.0,False,,276.8505702710978,[],"[684, 456]",ColorTask,27.0,39.0,,,HRV,HRV_0279,2022-11-30 20:45:17
,wl-rdm,47,170462,0.0-6.39-0.39,0.0,48.0,,,,,,,[],,,,,,50.0,0.0,i,1.0,False,890.3999999761581,54.0,60.0,40.0,False,,372.1016763558595,[],"[684, 456]",ColorTask,26.0,40.0,,,HRV,HRV_0279,2022-11-30 20:45:17
,wl-rdm,48,172697,0.0-6.40-0.40,0.0,49.0,,,,,,,[],,,,,,87.9,1.0,i,1.0,True,767.5,46.0,60.0,40.0,False,,387.4524072837766,[],"[684, 456]",ColorTask,27.0,41.0,,,HRV,HRV_0279,2022-11-30 20:45:17
,wl-rdm,49,174816,0.0-6.41-0.41,0.0,50.0,,,,,,,[],,,,,,87.9,0.0,u,0.0,True,753.2000000476837,46.0,60.0,40.0,False,,299.3695521114707,[],"[684, 456]",ColorTask,28.0,42.0,,,HRV,HRV_0279,2022-11-30 20:45:17
,wl-rdm,50,176816,0.0-6.42-0.42,0.0,51.0,,,,,,,[],,,,,,73.6,1.0,i,1.0,True,718.4999999403954,43.0,60.0,40.0,False,,208.07544673602413,[],"[684, 456]",ColorTask,29.0,43.0,,,HRV,HRV_0279,2022-11-30 20:45:17
,wl-rdm,51,179702,0.0-6.43-0.43,0.0,52.0,,,,,,,[],,,,,,50.0,0.0,i,1.0,False,1606.699999988079,97.0,60.0,40.0,False,,200.8399719158685,[],"[684, 456]",ColorTask,28.0,44.0,,,HRV,HRV_0279,2022-11-30 20:45:17
,wl-rdm,52,182189,0.0-6.44-0.44,0.0,53.0,,,,,,,[],,,,,,56.4,1.0,i,1.0,True,1187.9999999403954,72.0,60.0,40.0,False,,222.5150216780549,[],"[684, 456]",ColorTask,29.0,45.0,,,HRV,HRV_0279,2022-11-30 20:45:17
,wl-rdm,53,184839,0.0-6.45-0.45,0.0,54.0,,,,,,,[],,,,,,50.0,0.0,i,1.0,False,1377.0,83.0,60.0,40.0,False,,203.94244603088262,[],"[684, 456]",ColorTask,28.0,46.0,,,HRV,HRV_0279,2022-11-30 20:45:17
,wl-rdm,54,186840,0.0-6.46-0.46,0.0,55.0,,,,,,,[],,,,,,87.9,0.0,u,0.0,True,672.6999999880791,41.0,60.0,40.0,False,,233.86584971539705,[],"[684, 456]",ColorTask,29.0,47.0,,,HRV,HRV_0279,2022-11-30 20:45:17
,wl-rdm,55,189742,0.0-6.47-0.47,0.0,56.0,,,,,,,[],,,,,,62.5,1.0,u,0.0,False,1506.7999999523163,91.0,60.0,40.0,False,,310.8316698658359,[],"[684, 456]",ColorTask,28.0,48.0,,,HRV,HRV_0279,2022-11-30 20:45:17
,wl-rdm,56,191744,0.0-6.48-0.48,0.0,57.0,,,,,,,[],,,,,,87.9,1.0,i,1.0,True,682.5999999642372,41.0,60.0,40.0,False,,265.29330428124604,[],"[684, 456]",ColorTask,29.0,49.0,,,HRV,HRV_0279,2022-11-30 20:45:17
,wl-rdm,57,194312,0.0-6.49-0.49,0.0,58.0,,,,,,,[],,,,,,53.2,0.0,u,0.0,True,1181.300000011921,71.0,60.0,40.0,False,,300.1615006771621,[],"[684, 456]",ColorTask,30.0,50.0,,,HRV,HRV_0279,2022-11-30 20:45:17
,wl-rdm,58,197214,0.0-6.50-0.50,0.0,59.0,,,,,,,[],,,,,,50.0,1.0,u,0.0,False,1612.5999999642372,97.0,60.0,40.0,False,,203.95214620352388,[],"[684, 456]",ColorTask,29.0,51.0,,,HRV,HRV_0279,2022-11-30 20:45:17
,wl-rdm,59,199882,0.0-6.51-0.51,0.0,60.0,,,,,,,[],,,,,,62.5,0.0,u,0.0,True,1323.0999999642372,80.0,60.0,40.0,False,,273.17249816588617,[],"[684, 456]",ColorTask,30.0,52.0,,,HRV,HRV_0279,2022-11-30 20:45:17
,wl-rdm,60,202367,0.0-6.52-0.52,0.0,61.0,,,,,,,[],,,,,,53.2,1.0,i,1.0,True,1144.0,69.0,60.0,40.0,False,,276.40687827257193,[],"[684, 456]",ColorTask,31.0,53.0,,,HRV,HRV_0279,2022-11-30 20:45:17
,wl-rdm,61,204870,0.0-6.53-0.53,0.0,62.0,,,,,,,[],,,,,,50.0,1.0,u,0.0,False,1176.0000000596046,71.0,60.0,40.0,False,,263.57443070096025,[],"[684, 456]",ColorTask,30.0,54.0,,,HRV,HRV_0279,2022-11-30 20:45:17
,wl-rdm,62,208171,0.0-6.54-0.54,0.0,63.0,,,,,,,[],,,,,,62.5,0.0,u,0.0,True,1926.6999999284744,116.0,60.0,40.0,False,,315.96497649740473,[],"[684, 456]",ColorTask,31.0,55.0,,,HRV,HRV_0279,2022-11-30 20:45:17
,wl-rdm,63,210873,0.0-6.55-0.55,0.0,64.0,,,,,,,[],,,,,,53.2,1.0,i,1.0,True,1412.8999999761581,85.0,60.0,40.0,False,,203.58524302887025,[],"[684, 456]",ColorTask,32.0,56.0,,,HRV,HRV_0279,2022-11-30 20:45:17
,wl-rdm,64,213058,0.0-6.56-0.56,0.0,65.0,,,,,,,[],,,,,,87.9,1.0,i,1.0,True,785.3000000119209,48.0,60.0,40.0,False,,317.8577926655305,[],"[684, 456]",ColorTask,33.0,57.0,,,HRV,HRV_0279,2022-11-30 20:45:17
,wl-rdm,65,215143,0.0-6.57-0.57,0.0,66.0,,,,,,,[],,,,,,73.6,0.0,u,0.0,True,699.3000000119209,42.0,60.0,40.0,False,,318.24718999110075,[],"[684, 456]",ColorTask,34.0,58.0,,,HRV,HRV_0279,2022-11-30 20:45:17
,wl-rdm,66,218228,0.0-6.58-0.58,0.0,67.0,,,,,,,[],,,,,,53.2,1.0,i,1.0,True,1620.5999999642372,98.0,60.0,40.0,False,,393.4036304016085,[],"[684, 456]",ColorTask,35.0,59.0,,,HRV,HRV_0279,2022-11-30 20:45:17
,wl-rdm,67,220263,0.0-6.59-0.59,0.0,68.0,,,,,,,[],,,,,,87.9,0.0,u,0.0,True,717.1999999284744,43.0,60.0,40.0,False,,257.02783382408694,[],"[684, 456]",ColorTask,36.0,60.0,,,HRV,HRV_0279,2022-11-30 20:45:17
,wl-rdm,68,222498,0.0-6.60-0.60,0.0,69.0,,,,,,,[],,,,,,73.6,1.0,i,1.0,True,785.8999999761581,47.0,60.0,40.0,False,,369.8565523560757,[],"[684, 456]",ColorTask,37.0,61.0,,,HRV,HRV_0279,2022-11-30 20:45:17
,wl-rdm,69,225665,0.0-6.61-0.61,0.0,70.0,,,,,,,[],,,,,,56.4,1.0,i,1.0,True,1713.800000011921,103.0,60.0,40.0,False,,390.0600558702298,[],"[684, 456]",ColorTask,38.0,62.0,,,HRV,HRV_0279,2022-11-30 20:45:17
,wl-rdm,70,227716,0.0-6.62-0.62,0.0,71.0,,,,,,,[],,,,,,73.6,1.0,i,1.0,True,719.0,44.0,60.0,40.0,False,,265.56036369107414,[],"[684, 456]",ColorTask,39.0,63.0,,,HRV,HRV_0279,2022-11-30 20:45:17
,wl-rdm,71,229885,0.0-6.63-0.63,0.0,72.0,,,,,,,[],,,,,,62.5,1.0,i,1.0,True,762.4999999403954,46.0,60.0,40.0,False,,346.2187736849657,[],"[684, 456]",ColorTask,40.0,64.0,,,HRV,HRV_0279,2022-11-30 20:45:17
,wl-rdm,72,231852,0.0-6.64-0.64,0.0,73.0,,,,,,,[],,,,,,87.9,0.0,u,0.0,True,620.4999999403954,38.0,60.0,40.0,False,,276.203721589789,[],"[684, 456]",ColorTask,41.0,65.0,,,HRV,HRV_0279,2022-11-30 20:45:17
,wl-rdm,73,233837,0.0-6.65-0.65,0.0,74.0,,,,,,,[],,,,,,87.9,1.0,i,1.0,True,676.4000000357628,41.0,60.0,40.0,False,,235.56359266119028,[],"[684, 456]",ColorTask,42.0,66.0,,,HRV,HRV_0279,2022-11-30 20:45:17
,wl-rdm,74,236606,0.0-6.66-0.66,0.0,75.0,,,,,,,[],,,,,,62.5,0.0,u,0.0,True,1469.699999988079,88.0,60.0,40.0,False,,219.1010134992744,[],"[684, 456]",ColorTask,43.0,67.0,,,HRV,HRV_0279,2022-11-30 20:45:17
,wl-rdm,75,239008,0.0-6.67-0.67,0.0,76.0,,,,,,,[],,,,,,56.4,0.0,u,0.0,True,1125.199999988079,68.0,60.0,40.0,False,,218.36541245646518,[],"[684, 456]",ColorTask,44.0,68.0,,,HRV,HRV_0279,2022-11-30 20:45:17
,wl-rdm,76,241961,0.0-6.68-0.68,0.0,77.0,,,,,,,[],,,,,,50.0,1.0,i,1.0,True,1657.8999999165535,100.0,60.0,40.0,False,,216.16501885014486,[],"[684, 456]",ColorTask,45.0,69.0,,,HRV,HRV_0279,2022-11-30 20:45:17
,wl-rdm,77,244095,0.0-6.69-0.69,0.0,78.0,,,,,,,[],,,,,,87.9,1.0,i,1.0,True,803.8999999761581,49.0,60.0,40.0,False,,255.5035460483453,[],"[684, 456]",ColorTask,46.0,70.0,,,HRV,HRV_0279,2022-11-30 20:45:17
,wl-rdm,78,246896,0.0-6.70-0.70,0.0,79.0,,,,,,,[],,,,,,53.2,1.0,u,0.0,False,1511.300000011921,91.0,60.0,40.0,False,,220.35772884894885,[],"[684, 456]",ColorTask,45.0,71.0,,,HRV,HRV_0279,2022-11-30 20:45:17
,wl-rdm,79,249364,0.0-6.71-0.71,0.0,80.0,,,,,,,[],,,,,,87.9,0.0,u,0.0,True,1019.9999999403954,62.0,60.0,40.0,False,,381.9003060287428,[],"[684, 456]",ColorTask,46.0,72.0,,,HRV,HRV_0279,2022-11-30 20:45:17
,wl-rdm,80,251416,0.0-6.72-0.72,0.0,81.0,,,,,,,[],,,,,,87.9,0.0,u,0.0,True,752.4000000357628,45.0,60.0,40.0,False,,229.1831882404315,[],"[684, 456]",ColorTask,47.0,73.0,,,HRV,HRV_0279,2022-11-30 20:45:17
,wl-rdm,81,254819,0.0-6.73-0.73,0.0,82.0,,,,,,,[],,,,,,53.2,0.0,i,1.0,False,2093.5000000596046,126.0,60.0,40.0,False,,238.77500590015057,[],"[684, 456]",ColorTask,46.0,74.0,,,HRV,HRV_0279,2022-11-30 20:45:17
,wl-rdm,82,258104,0.0-6.74-0.74,0.0,83.0,,,,,,,[],,,,,,56.4,0.0,u,0.0,True,1938.3999999761581,117.0,60.0,40.0,False,,267.5662628321263,[],"[684, 456]",ColorTask,47.0,75.0,,,HRV,HRV_0279,2022-11-30 20:45:17
,wl-rdm,83,260472,0.0-6.75-0.75,0.0,84.0,,,,,,,[],,,,,,73.6,1.0,i,1.0,True,1098.5,66.0,60.0,40.0,False,,202.87693291221913,[],"[684, 456]",ColorTask,48.0,76.0,,,HRV,HRV_0279,2022-11-30 20:45:17
,wl-rdm,84,263041,0.0-6.76-0.76,0.0,85.0,,,,,,,[],,,,,,50.0,0.0,u,0.0,True,1174.0,71.0,60.0,40.0,False,,328.10850400382174,[],"[684, 456]",ColorTask,49.0,77.0,,,HRV,HRV_0279,2022-11-30 20:45:17
,wl-rdm,85,265509,0.0-6.77-0.77,0.0,86.0,,,,,,,[],,,,,,73.6,0.0,u,0.0,True,1182.9999999403954,71.0,60.0,40.0,False,,211.32543400772158,[],"[684, 456]",ColorTask,50.0,78.0,,,HRV,HRV_0279,2022-11-30 20:45:17
,wl-rdm,86,268895,0.0-6.78-0.78,0.0,87.0,,,,,,,[],,,,,,53.2,0.0,i,1.0,False,1963.199999988079,118.0,60.0,40.0,False,,366.9943033527516,[],"[684, 456]",ColorTask,49.0,79.0,,,HRV,HRV_0279,2022-11-30 20:45:17
,wl-rdm,87,272647,0.0-6.79-0.79,0.0,88.0,,,,,,,[],,,,,,62.5,0.0,i,1.0,False,2478.0000000596046,149.0,60.0,40.0,False,,215.19515599613297,[],"[684, 456]",ColorTask,48.0,80.0,,,HRV,HRV_0279,2022-11-30 20:45:17
,wl-rdm,88,274732,0.0-6.80-0.80,0.0,89.0,,,,,,,[],,,,,,50.0,1.0,i,1.0,True,781.7999999523163,47.0,60.0,40.0,False,,247.73917107016769,[],"[684, 456]",ColorTask,49.0,81.0,,,HRV,HRV_0279,2022-11-30 20:45:17
,wl-rdm,89,276867,0.0-6.81-0.81,0.0,90.0,,,,,,,[],,,,,,87.9,0.0,u,0.0,True,835.1999999880791,51.0,60.0,40.0,False,,222.98399455857955,[],"[684, 456]",ColorTask,50.0,82.0,,,HRV,HRV_0279,2022-11-30 20:45:17
,wl-rdm,90,279519,0.0-6.82-0.82,0.0,91.0,,,,,,,[],,,,,,62.5,0.0,u,0.0,True,1192.699999988079,72.0,60.0,40.0,False,,385.10086873756467,[],"[684, 456]",ColorTask,51.0,83.0,,,HRV,HRV_0279,2022-11-30 20:45:17
,wl-rdm,91,282973,0.0-6.83-0.83,0.0,92.0,,,,,,,[],,,,,,56.4,0.0,u,0.0,True,2151.7000000476837,129.0,60.0,40.0,False,,234.2190058510785,[],"[684, 456]",ColorTask,52.0,84.0,,,HRV,HRV_0279,2022-11-30 20:45:17
,wl-rdm,92,285324,0.0-6.84-0.84,0.0,93.0,,,,,,,[],,,,,,73.6,1.0,i,1.0,True,998.3000000119209,60.0,60.0,40.0,False,,296.26173454574155,[],"[684, 456]",ColorTask,53.0,85.0,,,HRV,HRV_0279,2022-11-30 20:45:17
,wl-rdm,93,288643,0.0-6.85-0.85,0.0,94.0,,,,,,,[],,,,,,56.4,0.0,u,0.0,True,2024.5,122.0,60.0,40.0,False,,220.21417926711317,[],"[684, 456]",ColorTask,54.0,86.0,,,HRV,HRV_0279,2022-11-30 20:45:17
,wl-rdm,94,291646,0.0-6.86-0.86,0.0,95.0,,,,,,,[],,,,,,62.5,0.0,u,0.0,True,1663.6000000238419,100.0,60.0,40.0,False,,272.4647568799852,[],"[684, 456]",ColorTask,55.0,87.0,,,HRV,HRV_0279,2022-11-30 20:45:17
,wl-rdm,95,293847,0.0-6.87-0.87,0.0,96.0,,,,,,,[],,,,,,56.4,1.0,i,1.0,True,895.5,54.0,60.0,40.0,False,,244.46278090807357,[],"[684, 456]",ColorTask,56.0,88.0,,,HRV,HRV_0279,2022-11-30 20:45:17
,wl-rdm,96,296865,0.0-6.88-0.88,0.0,97.0,,,,,,,[],,,,,,50.0,0.0,i,1.0,False,1620.6000000238419,98.0,60.0,40.0,False,,304.4228855097869,[],"[684, 456]",ColorTask,55.0,89.0,,,HRV,HRV_0279,2022-11-30 20:45:17
,wl-rdm,97,300518,0.0-6.89-0.89,0.0,98.0,,,,,,,[],,,,,,53.2,0.0,i,1.0,False,2225.400000035763,134.0,60.0,40.0,False,,336.15286507911026,[],"[684, 456]",ColorTask,54.0,90.0,,,HRV,HRV_0279,2022-11-30 20:45:17
,wl-rdm,98,302970,0.0-6.90-0.90,0.0,99.0,,,,,,,[],,,,,,73.6,0.0,u,0.0,True,1034.8999999165535,62.0,60.0,40.0,False,,346.3597495658638,[],"[684, 456]",ColorTask,55.0,91.0,,,HRV,HRV_0279,2022-11-30 20:45:17
,wl-rdm,99,305056,0.0-6.91-0.91,0.0,100.0,,,,,,,[],,,,,,73.6,1.0,i,1.0,True,695.6999999880791,42.0,60.0,40.0,False,,316.4886361974651,[],"[684, 456]",ColorTask,56.0,92.0,,,HRV,HRV_0279,2022-11-30 20:45:17
,wl-rdm,100,307006,0.0-6.92-0.92,0.0,101.0,,,,,,,[],,,,,,87.9,0.0,u,0.0,True,614.2000000476837,37.0,60.0,40.0,False,,280.7133981362058,[],"[684, 456]",ColorTask,57.0,93.0,,,HRV,HRV_0279,2022-11-30 20:45:17
,wl-rdm,101,310842,0.0-6.93-0.93,0.0,102.0,,,,,,,[],,,,,,53.2,0.0,i,1.0,False,2426.199999988079,146.0,60.0,40.0,False,,342.941213828675,[],"[684, 456]",ColorTask,56.0,94.0,,,HRV,HRV_0279,2022-11-30 20:45:17
,wl-rdm,102,313111,0.0-6.94-0.94,0.0,103.0,,,,,,,[],,,,,,73.6,0.0,u,0.0,True,993.6000000238419,60.0,60.0,40.0,False,,205.14604176048712,[],"[684, 456]",ColorTask,57.0,95.0,,,HRV,HRV_0279,2022-11-30 20:45:17
,wl-rdm,103,315512,0.0-6.95-0.95,0.0,104.0,,,,,,,[],,,,,,56.4,1.0,i,1.0,True,1058.5,64.0,60.0,40.0,False,,270.7445121589058,[],"[684, 456]",ColorTask,58.0,96.0,,,HRV,HRV_0279,2022-11-30 20:45:17
,wl-rdm,104,318431,0.0-6.96-0.96,0.0,105.0,,,,,,,[],,,,,,56.4,1.0,i,1.0,True,1568.1000000238419,94.0,60.0,40.0,False,,270.05133061402495,[],"[684, 456]",ColorTask,59.0,97.0,,,HRV,HRV_0279,2022-11-30 20:45:17
,wl-rdm,105,320965,0.0-6.97-0.97,0.0,106.0,,,,,,,[],,,,,,50.0,1.0,i,1.0,True,1223.0000000596046,74.0,60.0,40.0,False,,238.33038484985096,[],"[684, 456]",ColorTask,60.0,98.0,,,HRV,HRV_0279,2022-11-30 20:45:17
,wl-rdm,106,323518,0.0-6.98-0.98,0.0,107.0,,,,,,,[],,,,,,53.2,1.0,i,1.0,True,1170.9000000357628,71.0,60.0,40.0,False,,313.9890724711811,[],"[684, 456]",ColorTask,61.0,99.0,,,HRV,HRV_0279,2022-11-30 20:45:17
,wl-rdm,107,326786,0.0-6.99-0.99,0.0,108.0,,,,,,,[],,,,,,62.5,0.0,u,0.0,True,1855.199999988079,112.0,60.0,40.0,False,,333.9568307678918,[],"[684, 456]",ColorTask,62.0,100.0,,,HRV,HRV_0279,2022-11-30 20:45:17
,wl-rdm,108,330672,0.0-6.100-0.100,0.0,109.0,,,,,,,[],,,,,,50.0,0.0,i,1.0,False,2607.899999976158,157.0,60.0,40.0,False,,201.43144041153673,[],"[684, 456]",ColorTask,61.0,101.0,,,HRV,HRV_0279,2022-11-30 20:45:17
,wl-rdm,109,333657,0.0-6.101-0.101,0.0,110.0,,,,,,,[],,,,,,73.6,0.0,u,0.0,True,1552.7000000476837,94.0,60.0,40.0,False,,351.2799070279714,[],"[684, 456]",ColorTask,62.0,102.0,,,HRV,HRV_0279,2022-11-30 20:45:17
,wl-rdm,110,335775,0.0-6.102-0.102,0.0,111.0,,,,,,,[],,,,,,56.4,1.0,i,1.0,True,814.6999999880791,49.0,60.0,40.0,False,,245.63875631416255,[],"[684, 456]",ColorTask,63.0,103.0,,,HRV,HRV_0279,2022-11-30 20:45:17
,wl-rdm,111,337910,0.0-6.103-0.103,0.0,112.0,,,,,,,[],,,,,,62.5,1.0,i,1.0,True,691.3999999761581,42.0,60.0,40.0,False,,364.49395113550906,[],"[684, 456]",ColorTask,64.0,104.0,,,HRV,HRV_0279,2022-11-30 20:45:17
,wl-rdm,112,339828,0.0-6.104-0.104,0.0,113.0,,,,,,,[],,,,,,53.2,1.0,i,1.0,True,608.7000000476837,37.0,60.0,40.0,False,,224.39281203291972,[],"[684, 456]",ColorTask,65.0,105.0,,,HRV,HRV_0279,2022-11-30 20:45:17
,wl-rdm,113,341929,0.0-6.105-0.105,0.0,114.0,,,,,,,[],,,,,,53.2,1.0,i,1.0,True,786.0,47.0,60.0,40.0,False,,237.79668163297367,[],"[684, 456]",ColorTask,66.0,106.0,,,HRV,HRV_0279,2022-11-30 20:45:17
,wl-rdm,114,343859,0.0-6.106-0.106,0.0,115.0,,,,,,,[],,,,,,56.4,0.0,i,1.0,False,623.9000000357628,38.0,60.0,40.0,False,,243.57719723646474,[],"[684, 456]",ColorTask,65.0,107.0,,,HRV,HRV_0279,2022-11-30 20:45:17
,wl-rdm,115,347944,0.0-6.107-0.107,0.0,116.0,,,,,,,[],,,,,,50.0,1.0,u,0.0,False,2645.0000000596046,159.0,60.0,40.0,False,,370.32666768480385,[],"[684, 456]",ColorTask,64.0,108.0,,,HRV,HRV_0279,2022-11-30 20:45:17
,wl-html-keyboard-response,116,361807,0.0-7.0-0.0,1.0,117.0,,,,,,,,11847.899999976158,1.0,0,,,,,,,,,,,,,,,,,,,,,,HRV,HRV_0279,2022-11-30 20:45:17
,wl-rdm,117,363946,0.0-8.0-0.0,1.0,118.0,,,,,,,[],,,,,,56.4,1.0,i,1.0,True,796.6000000238419,48.0,60.0,40.0,False,,275.8971945384624,[],"[684, 456]",ColorTask,65.0,1.0,,,HRV,HRV_0279,2022-11-30 20:45:17
,wl-rdm,118,365965,0.0-8.1-0.1,1.0,119.0,,,,,,,[],,,,,,73.6,0.0,u,0.0,True,698.8000000119209,42.0,60.0,40.0,False,,240.43821388774387,[],"[684, 456]",ColorTask,66.0,2.0,,,HRV,HRV_0279,2022-11-30 20:45:17
,wl-rdm,119,367966,0.0-8.2-0.2,1.0,120.0,,,,,,,[],,,,,,50.0,0.0,i,1.0,False,701.0999999642372,42.0,60.0,40.0,False,,238.11644110937942,[],"[684, 456]",ColorTask,65.0,3.0,,,HRV,HRV_0279,2022-11-30 20:45:17
,wl-rdm,120,370435,0.0-8.3-0.3,1.0,121.0,,,,,,,[],,,,,,50.0,1.0,i,1.0,True,1175.8999999761581,71.0,60.0,40.0,False,,229.99595214497552,[],"[684, 456]",ColorTask,66.0,4.0,,,HRV,HRV_0279,2022-11-30 20:45:17
,wl-rdm,121,372503,0.0-8.4-0.4,1.0,122.0,,,,,,,[],,,,,,73.6,1.0,i,1.0,True,744.5,45.0,60.0,40.0,False,,256.1725556337343,[],"[684, 456]",ColorTask,67.0,5.0,,,HRV,HRV_0279,2022-11-30 20:45:17
,wl-rdm,122,375138,0.0-8.5-0.5,1.0,123.0,,,,,,,[],,,,,,50.0,1.0,i,1.0,True,1223.3999999761581,74.0,60.0,40.0,False,,340.07436617857957,[],"[684, 456]",ColorTask,68.0,6.0,,,HRV,HRV_0279,2022-11-30 20:45:17
,wl-rdm,123,377139,0.0-8.6-0.6,1.0,124.0,,,,,,,[],,,,,,87.9,1.0,i,1.0,True,664.0,40.0,60.0,40.0,False,,280.54438425330807,[],"[684, 456]",ColorTask,69.0,7.0,,,HRV,HRV_0279,2022-11-30 20:45:17
,wl-rdm,124,379157,0.0-8.7-0.7,1.0,125.0,,,,,,,[],,,,,,87.9,0.0,u,0.0,True,633.1999999880791,38.0,60.0,40.0,False,,312.654099022152,[],"[684, 456]",ColorTask,70.0,8.0,,,HRV,HRV_0279,2022-11-30 20:45:17
,wl-rdm,125,381025,0.0-8.8-0.8,1.0,126.0,,,,,,,[],,,,,,87.9,0.0,u,0.0,True,592.1999999880791,36.0,60.0,40.0,False,,209.36736755439614,[],"[684, 456]",ColorTask,71.0,9.0,,,HRV,HRV_0279,2022-11-30 20:45:17
,wl-rdm,126,383660,0.0-8.9-0.9,1.0,127.0,,,,,,,[],,,,,,62.5,0.0,u,0.0,True,1296.5999999642372,78.0,60.0,40.0,False,,280.0481106879157,[],"[684, 456]",ColorTask,72.0,10.0,,,HRV,HRV_0279,2022-11-30 20:45:17
,wl-rdm,127,385678,0.0-8.10-0.10,1.0,128.0,,,,,,,[],,,,,,87.9,1.0,i,1.0,True,664.3000000119209,40.0,60.0,40.0,False,,291.54250117978916,[],"[684, 456]",ColorTask,73.0,11.0,,,HRV,HRV_0279,2022-11-30 20:45:17
,wl-rdm,128,387529,0.0-8.11-0.11,1.0,129.0,,,,,,,[],,,,,,73.6,1.0,i,1.0,True,570.1000000238419,35.0,60.0,40.0,False,,207.22797460076208,[],"[684, 456]",ColorTask,74.0,12.0,,,HRV,HRV_0279,2022-11-30 20:45:17
,wl-rdm,129,390148,0.0-8.12-0.12,1.0,130.0,,,,,,,[],,,,,,73.6,1.0,i,1.0,True,1155.199999988079,70.0,60.0,40.0,False,,394.1894472104916,[],"[684, 456]",ColorTask,75.0,13.0,,,HRV,HRV_0279,2022-11-30 20:45:17
,wl-rdm,130,392466,0.0-8.13-0.13,1.0,131.0,,,,,,,[],,,,,,56.4,0.0,i,1.0,False,856.9999999403954,52.0,60.0,40.0,False,,399.5279707447454,[],"[684, 456]",ColorTask,74.0,14.0,,,HRV,HRV_0279,2022-11-30 20:45:17
,wl-rdm,131,394467,0.0-8.14-0.14,1.0,132.0,,,,,,,[],,,,,,73.6,1.0,i,1.0,True,698.0,42.0,60.0,40.0,False,,245.88040621022023,[],"[684, 456]",ColorTask,75.0,15.0,,,HRV,HRV_0279,2022-11-30 20:45:17
,wl-rdm,132,396452,0.0-8.15-0.15,1.0,133.0,,,,,,,[],,,,,,87.9,0.0,u,0.0,True,662.0000000596046,40.0,60.0,40.0,False,,256.4171420195694,[],"[684, 456]",ColorTask,76.0,16.0,,,HRV,HRV_0279,2022-11-30 20:45:17
,wl-rdm,133,398320,0.0-8.16-0.16,1.0,134.0,,,,,,,[],,,,,,73.6,0.0,u,0.0,True,553.0,34.0,60.0,40.0,False,,238.4130194207017,[],"[684, 456]",ColorTask,77.0,17.0,,,HRV,HRV_0279,2022-11-30 20:45:17
,wl-rdm,134,400273,0.0-8.17-0.17,1.0,135.0,,,,,,,[],,,,,,73.6,1.0,i,1.0,True,528.3000000119209,32.0,60.0,40.0,False,,354.8088469991329,[],"[684, 456]",ColorTask,78.0,18.0,,,HRV,HRV_0279,2022-11-30 20:45:17
,wl-rdm,135,403541,0.0-8.18-0.18,1.0,136.0,,,,,,,[],,,,,,50.0,0.0,i,1.0,False,1830.199999988079,110.0,60.0,40.0,False,,372.6954064657848,[],"[684, 456]",ColorTask,77.0,19.0,,,HRV,HRV_0279,2022-11-30 20:45:17
,wl-rdm,136,406211,0.0-8.19-0.19,1.0,137.0,,,,,,,[],,,,,,50.0,0.0,u,0.0,True,1337.199999988079,81.0,60.0,40.0,False,,265.08327771114244,[],"[684, 456]",ColorTask,78.0,20.0,,,HRV,HRV_0279,2022-11-30 20:45:17
,wl-rdm,137,408662,0.0-8.20-0.20,1.0,138.0,,,,,,,[],,,,,,50.0,1.0,i,1.0,True,1179.199999988079,71.0,60.0,40.0,False,,213.11925913434064,[],"[684, 456]",ColorTask,79.0,21.0,,,HRV,HRV_0279,2022-11-30 20:45:17
,wl-rdm,138,411714,0.0-8.21-0.21,1.0,139.0,,,,,,,[],,,,,,53.2,0.0,u,0.0,True,1708.8999999761581,103.0,60.0,40.0,False,,251.69753470994772,[],"[684, 456]",ColorTask,80.0,22.0,,,HRV,HRV_0279,2022-11-30 20:45:17
,wl-rdm,139,414367,0.0-8.22-0.22,1.0,140.0,,,,,,,[],,,,,,56.4,0.0,u,0.0,True,1242.699999988079,75.0,60.0,40.0,False,,341.8329781114493,[],"[684, 456]",ColorTask,81.0,23.0,,,HRV,HRV_0279,2022-11-30 20:45:17
,wl-rdm,140,416352,0.0-8.23-0.23,1.0,141.0,,,,,,,[],,,,,,62.5,1.0,i,1.0,True,705.0,43.0,60.0,40.0,False,,214.32091496310073,[],"[684, 456]",ColorTask,82.0,24.0,,,HRV,HRV_0279,2022-11-30 20:45:17
,wl-rdm,141,419837,0.0-8.24-0.24,1.0,142.0,,,,,,,[],,,,,,53.2,1.0,u,0.0,False,2042.3999999761581,123.0,60.0,40.0,False,,370.77886248122,[],"[684, 456]",ColorTask,81.0,25.0,,,HRV,HRV_0279,2022-11-30 20:45:17
,wl-rdm,142,422171,0.0-8.25-0.25,1.0,143.0,,,,,,,[],,,,,,56.4,1.0,i,1.0,True,897.6999999880791,54.0,60.0,40.0,False,,380.587633310167,[],"[684, 456]",ColorTask,82.0,26.0,,,HRV,HRV_0279,2022-11-30 20:45:17
,wl-rdm,143,424239,0.0-8.26-0.26,1.0,144.0,,,,,,,[],,,,,,87.9,0.0,u,0.0,True,674.3999999761581,41.0,60.0,40.0,False,,326.501219830009,[],"[684, 456]",ColorTask,83.0,27.0,,,HRV,HRV_0279,2022-11-30 20:45:17
,wl-rdm,144,427374,0.0-8.27-0.27,1.0,145.0,,,,,,,[],,,,,,50.0,0.0,u,0.0,True,1752.699999988079,106.0,60.0,40.0,False,,316.41277470106627,[],"[684, 456]",ColorTask,84.0,28.0,,,HRV,HRV_0279,2022-11-30 20:45:17
,wl-rdm,145,429476,0.0-8.28-0.28,1.0,146.0,,,,,,,[],,,,,,53.2,1.0,u,0.0,False,791.9999999403954,48.0,60.0,40.0,False,,251.37099571543655,[],"[684, 456]",ColorTask,83.0,29.0,,,HRV,HRV_0279,2022-11-30 20:45:17
,wl-rdm,146,433645,0.0-8.29-0.29,1.0,147.0,,,,,,,[],,,,,,53.2,1.0,i,1.0,True,2877.5,173.0,60.0,40.0,False,,229.78435324657292,[],"[684, 456]",ColorTask,84.0,30.0,,,HRV,HRV_0279,2022-11-30 20:45:17
,wl-rdm,147,437849,0.0-8.30-0.30,1.0,148.0,,,,,,,[],,,,,,62.5,1.0,i,1.0,True,2907.400000035763,175.0,60.0,40.0,False,,214.86049369642615,[],"[684, 456]",ColorTask,85.0,31.0,,,HRV,HRV_0279,2022-11-30 20:45:17
,wl-rdm,148,440101,0.0-8.31-0.31,1.0,149.0,,,,,,,[],,,,,,87.9,0.0,u,0.0,True,856.5000000596046,52.0,60.0,40.0,False,,330.5704026879111,[],"[684, 456]",ColorTask,86.0,32.0,,,HRV,HRV_0279,2022-11-30 20:45:17
,wl-rdm,149,443920,0.0-8.32-0.32,1.0,150.0,,,,,,,[],,,,,,62.5,1.0,i,1.0,True,2550.399999976158,153.0,60.0,40.0,False,,211.3720492514667,[],"[684, 456]",ColorTask,87.0,33.0,,,HRV,HRV_0279,2022-11-30 20:45:17
,wl-rdm,150,446171,0.0-8.33-0.33,1.0,151.0,,,,,,,[],,,,,,62.5,0.0,u,0.0,True,964.5000000596046,58.0,60.0,40.0,False,,229.3413476339728,[],"[684, 456]",ColorTask,88.0,34.0,,,HRV,HRV_0279,2022-11-30 20:45:17
,wl-rdm,151,449490,0.0-8.34-0.34,1.0,152.0,,,,,,,[],,,,,,50.0,0.0,u,0.0,True,2007.3999999761581,121.0,60.0,40.0,False,,234.13533999817045,[],"[684, 456]",ColorTask,89.0,35.0,,,HRV,HRV_0279,2022-11-30 20:45:17
,wl-rdm,152,451760,0.0-8.35-0.35,1.0,153.0,,,,,,,[],,,,,,56.4,0.0,u,0.0,True,841.7000000476837,51.0,60.0,40.0,False,,350.26601699109466,[],"[684, 456]",ColorTask,90.0,36.0,,,HRV,HRV_0279,2022-11-30 20:45:17
,wl-rdm,153,453726,0.0-8.36-0.36,1.0,154.0,,,,,,,[],,,,,,87.9,1.0,i,1.0,True,609.3000000119209,37.0,60.0,40.0,False,,295.04726151261593,[],"[684, 456]",ColorTask,91.0,37.0,,,HRV,HRV_0279,2022-11-30 20:45:17
,wl-rdm,154,455995,0.0-8.37-0.37,1.0,155.0,,,,,,,[],,,,,,56.4,0.0,u,0.0,True,811.1999999284744,49.0,60.0,40.0,False,,398.357777436795,[],"[684, 456]",ColorTask,92.0,38.0,,,HRV,HRV_0279,2022-11-30 20:45:17
,wl-rdm,155,458663,0.0-8.38-0.38,1.0,156.0,,,,,,,[],,,,,,62.5,1.0,i,1.0,True,1354.800000011921,82.0,60.0,40.0,False,,237.33487396158066,[],"[684, 456]",ColorTask,93.0,39.0,,,HRV,HRV_0279,2022-11-30 20:45:17
,wl-rdm,156,463021,0.0-8.39-0.39,1.0,156.0,,,,,,,[],,,,,,50.0,1.0,u,,,3191.4999999403954,179.0,60.0,40.0,True,RT_timeout ,279.814470113359,[],"[684, 456]",ColorTask,92.0,40.0,,,HRV,HRV_0279,2022-11-30 20:45:17
,wl-rdm,157,466490,0.0-8.40-0.40,1.0,157.0,,,,,,,[],,,,,,53.2,0.0,u,0.0,True,2061.300000011921,124.0,60.0,40.0,False,,338.59926916112653,[],"[684, 456]",ColorTask,93.0,41.0,,,HRV,HRV_0279,2022-11-30 20:45:17
,wl-rdm,158,469175,0.0-8.41-0.41,1.0,158.0,,,,,,,[],,,,,,50.0,1.0,u,0.0,False,1297.9000000357628,78.0,60.0,40.0,False,,327.9061918555257,[],"[684, 456]",ColorTask,92.0,42.0,,,HRV,HRV_0279,2022-11-30 20:45:17
,wl-rdm,159,471963,0.0-8.42-0.42,1.0,159.0,,,,,,,[],,,,,,73.6,1.0,i,1.0,True,1422.800000011921,86.0,60.0,40.0,False,,297.0744750396612,[],"[684, 456]",ColorTask,93.0,43.0,,,HRV,HRV_0279,2022-11-30 20:45:17
,wl-rdm,160,474129,0.0-8.43-0.43,1.0,160.0,,,,,,,[],,,,,,62.5,0.0,u,0.0,True,812.0999999642372,49.0,60.0,40.0,False,,287.6720320539872,[],"[684, 456]",ColorTask,94.0,44.0,,,HRV,HRV_0279,2022-11-30 20:45:17
,wl-rdm,161,476180,0.0-8.44-0.44,1.0,161.0,,,,,,,[],,,,,,87.9,1.0,i,1.0,True,677.2000000476837,41.0,60.0,40.0,False,,300.1590536419656,[],"[684, 456]",ColorTask,95.0,45.0,,,HRV,HRV_0279,2022-11-30 20:45:17
,wl-rdm,162,478064,0.0-8.45-0.45,1.0,162.0,,,,,,,[],,,,,,87.9,0.0,u,0.0,True,605.6000000238419,37.0,60.0,40.0,False,,214.91937779837875,[],"[684, 456]",ColorTask,96.0,46.0,,,HRV,HRV_0279,2022-11-30 20:45:17
,wl-rdm,163,480033,0.0-8.46-0.46,1.0,163.0,,,,,,,[],,,,,,73.6,1.0,i,1.0,True,547.3000000119209,33.0,60.0,40.0,False,,338.51932221206806,[],"[684, 456]",ColorTask,97.0,47.0,,,HRV,HRV_0279,2022-11-30 20:45:17
,wl-rdm,164,481984,0.0-8.47-0.47,1.0,164.0,,,,,,,[],,,,,,87.9,0.0,u,0.0,True,598.1999999880791,36.0,60.0,40.0,False,,282.7009746648066,[],"[684, 456]",ColorTask,98.0,48.0,,,HRV,HRV_0279,2022-11-30 20:45:17
,wl-rdm,165,483885,0.0-8.48-0.48,1.0,165.0,,,,,,,[],,,,,,87.9,0.0,u,0.0,True,587.4000000357628,36.0,60.0,40.0,False,,230.9769436219235,[],"[684, 456]",ColorTask,99.0,49.0,,,HRV,HRV_0279,2022-11-30 20:45:17
,wl-rdm,166,485970,0.0-8.49-0.49,1.0,166.0,,,,,,,[],,,,,,62.5,1.0,i,1.0,True,690.5,42.0,60.0,40.0,False,,303.2020970967483,[],"[684, 456]",ColorTask,100.0,50.0,,,HRV,HRV_0279,2022-11-30 20:45:17
,wl-rdm,167,487922,0.0-8.50-0.50,1.0,167.0,,,,,,,[],,,,,,73.6,0.0,u,0.0,True,521.1000000238419,32.0,60.0,40.0,False,,334.24527029707946,[],"[684, 456]",ColorTask,101.0,51.0,,,HRV,HRV_0279,2022-11-30 20:45:17
,wl-rdm,168,490556,0.0-8.51-0.51,1.0,168.0,,,,,,,[],,,,,,56.4,1.0,i,1.0,True,1295.800000011921,78.0,60.0,40.0,False,,271.7391706001347,[],"[684, 456]",ColorTask,102.0,52.0,,,HRV,HRV_0279,2022-11-30 20:45:17
,wl-rdm,169,492574,0.0-8.52-0.52,1.0,169.0,,,,,,,[],,,,,,53.2,0.0,u,0.0,True,638.1999999284744,39.0,60.0,40.0,False,,300.94370376001217,[],"[684, 456]",ColorTask,103.0,53.0,,,HRV,HRV_0279,2022-11-30 20:45:17
,wl-rdm,170,494542,0.0-8.53-0.53,1.0,170.0,,,,,,,[],,,,,,87.9,1.0,i,1.0,True,673.7999999523163,41.0,60.0,40.0,False,,219.5052233821801,[],"[684, 456]",ColorTask,104.0,54.0,,,HRV,HRV_0279,2022-11-30 20:45:17
,wl-rdm,171,496543,0.0-8.54-0.54,1.0,171.0,,,,,,,[],,,,,,62.5,0.0,u,0.0,True,690.1999999880791,42.0,60.0,40.0,False,,246.16719483502766,[],"[684, 456]",ColorTask,105.0,55.0,,,HRV,HRV_0279,2022-11-30 20:45:17
,wl-rdm,172,499228,0.0-8.55-0.55,1.0,172.0,,,,,,,[],,,,,,50.0,0.0,i,1.0,False,1311.7000000476837,79.0,60.0,40.0,False,,303.0488189895003,[],"[684, 456]",ColorTask,104.0,56.0,,,HRV,HRV_0279,2022-11-30 20:45:17
,wl-rdm,173,501330,0.0-8.56-0.56,1.0,173.0,,,,,,,[],,,,,,73.6,0.0,u,0.0,True,759.6999999880791,46.0,60.0,40.0,False,,268.00155865022174,[],"[684, 456]",ColorTask,105.0,57.0,,,HRV,HRV_0279,2022-11-30 20:45:17
,wl-rdm,174,503231,0.0-8.57-0.57,1.0,174.0,,,,,,,[],,,,,,87.9,1.0,i,1.0,True,548.1999999880791,33.0,60.0,40.0,False,,269.8881816913948,[],"[684, 456]",ColorTask,106.0,58.0,,,HRV,HRV_0279,2022-11-30 20:45:17
,wl-rdm,175,505266,0.0-8.58-0.58,1.0,175.0,,,,,,,[],,,,,,87.9,1.0,i,1.0,True,714.0999999642372,43.0,60.0,40.0,False,,258.30843139641,[],"[684, 456]",ColorTask,107.0,59.0,,,HRV,HRV_0279,2022-11-30 20:45:17
,wl-rdm,176,507284,0.0-8.59-0.59,1.0,176.0,,,,,,,[],,,,,,56.4,0.0,u,0.0,True,566.0999999642372,34.0,60.0,40.0,False,,399.15400572252804,[],"[684, 456]",ColorTask,108.0,60.0,,,HRV,HRV_0279,2022-11-30 20:45:17
,wl-rdm,177,509819,0.0-8.60-0.60,1.0,177.0,,,,,,,[],,,,,,56.4,1.0,i,1.0,True,1234.5,74.0,60.0,40.0,False,,219.49492199511215,[],"[684, 456]",ColorTask,109.0,61.0,,,HRV,HRV_0279,2022-11-30 20:45:17
,wl-rdm,178,511820,0.0-8.61-0.61,1.0,178.0,,,,,,,[],,,,,,50.0,1.0,u,0.0,False,709.2999999523163,43.0,60.0,40.0,False,,225.10078322570922,[],"[684, 456]",ColorTask,108.0,62.0,,,HRV,HRV_0279,2022-11-30 20:45:17
,wl-rdm,179,515023,0.0-8.62-0.62,1.0,179.0,,,,,,,[],,,,,,50.0,0.0,i,1.0,False,1831.0,110.0,60.0,40.0,False,,286.22207188467746,[],"[684, 456]",ColorTask,107.0,63.0,,,HRV,HRV_0279,2022-11-30 20:45:17
,wl-rdm,180,517875,0.0-8.63-0.63,1.0,180.0,,,,,,,[],,,,,,56.4,1.0,u,0.0,False,1531.8999999761581,92.0,60.0,40.0,False,,254.4830426819007,[],"[684, 456]",ColorTask,106.0,64.0,,,HRV,HRV_0279,2022-11-30 20:45:17
,wl-rdm,181,520060,0.0-8.64-0.64,1.0,181.0,,,,,,,[],,,,,,53.2,1.0,i,1.0,True,836.2999999523163,51.0,60.0,40.0,False,,282.1222051587506,[],"[684, 456]",ColorTask,107.0,65.0,,,HRV,HRV_0279,2022-11-30 20:45:17
,wl-rdm,182,522079,0.0-8.65-0.65,1.0,182.0,,,,,,,[],,,,,,73.6,0.0,u,0.0,True,695.1999999880791,42.0,60.0,40.0,False,,264.27860659990125,[],"[684, 456]",ColorTask,108.0,66.0,,,HRV,HRV_0279,2022-11-30 20:45:17
,wl-rdm,183,524691,0.0-8.66-0.66,1.0,183.0,,,,,,,[],,,,,,50.0,1.0,u,0.0,False,1331.1000000238419,80.0,60.0,40.0,False,,231.3690129551292,[],"[684, 456]",ColorTask,107.0,67.0,,,HRV,HRV_0279,2022-11-30 20:45:17
,wl-rdm,184,526912,0.0-8.67-0.67,1.0,184.0,,,,,,,[],,,,,,73.6,0.0,u,0.0,True,900.8000000119209,54.0,60.0,40.0,False,,262.7478821363859,[],"[684, 456]",ColorTask,108.0,68.0,,,HRV,HRV_0279,2022-11-30 20:45:17
,wl-rdm,185,529080,0.0-8.68-0.68,1.0,185.0,,,,,,,[],,,,,,53.2,1.0,i,1.0,True,874.9999999403954,53.0,60.0,40.0,False,,223.77314734972666,[],"[684, 456]",ColorTask,109.0,69.0,,,HRV,HRV_0279,2022-11-30 20:45:17
,wl-rdm,186,531079,0.0-8.69-0.69,1.0,186.0,,,,,,,[],,,,,,73.6,0.0,u,0.0,True,613.4000000357628,37.0,60.0,40.0,False,,314.4165287934551,[],"[684, 456]",ColorTask,110.0,70.0,,,HRV,HRV_0279,2022-11-30 20:45:17
,wl-rdm,187,533247,0.0-8.70-0.70,1.0,187.0,,,,,,,[],,,,,,53.2,1.0,i,1.0,True,874.1000000238419,53.0,60.0,40.0,False,,218.15000214716216,[],"[684, 456]",ColorTask,111.0,71.0,,,HRV,HRV_0279,2022-11-30 20:45:17
,wl-rdm,188,535165,0.0-8.71-0.71,1.0,188.0,,,,,,,[],,,,,,62.5,1.0,i,1.0,True,621.3000000119209,38.0,60.0,40.0,False,,231.082270064494,[],"[684, 456]",ColorTask,112.0,72.0,,,HRV,HRV_0279,2022-11-30 20:45:17
,wl-rdm,189,537367,0.0-8.72-0.72,1.0,189.0,,,,,,,[],,,,,,62.5,0.0,u,0.0,True,816.4000000357628,49.0,60.0,40.0,False,,310.96202500440404,[],"[684, 456]",ColorTask,113.0,73.0,,,HRV,HRV_0279,2022-11-30 20:45:17
,wl-rdm,190,540802,0.0-8.73-0.73,1.0,190.0,,,,,,,[],,,,,,50.0,1.0,u,0.0,False,2056.300000011921,124.0,60.0,40.0,False,,300.6390200656547,[],"[684, 456]",ColorTask,112.0,74.0,,,HRV,HRV_0279,2022-11-30 20:45:17
,wl-rdm,191,543571,0.0-8.74-0.74,1.0,191.0,,,,,,,[],,,,,,56.4,0.0,u,0.0,True,1489.0,90.0,60.0,40.0,False,,213.02652334529603,[],"[684, 456]",ColorTask,113.0,75.0,,,HRV,HRV_0279,2022-11-30 20:45:17
,wl-rdm,192,545673,0.0-8.75-0.75,1.0,192.0,,,,,,,[],,,,,,53.2,0.0,i,1.0,False,687.9000000357628,42.0,60.0,40.0,False,,348.59374649408596,[],"[684, 456]",ColorTask,112.0,76.0,,,HRV,HRV_0279,2022-11-30 20:45:17
,wl-rdm,193,548491,0.0-8.76-0.76,1.0,193.0,,,,,,,[],,,,,,56.4,1.0,i,1.0,True,1532.4000000357628,92.0,60.0,40.0,False,,219.03893349958304,[],"[684, 456]",ColorTask,113.0,77.0,,,HRV,HRV_0279,2022-11-30 20:45:17
,wl-rdm,194,551709,0.0-8.77-0.77,1.0,194.0,,,,,,,[],,,,,,62.5,1.0,i,1.0,True,1890.5,114.0,60.0,40.0,False,,264.49661722605185,[],"[684, 456]",ColorTask,114.0,78.0,,,HRV,HRV_0279,2022-11-30 20:45:17
,wl-rdm,195,554611,0.0-8.78-0.78,1.0,195.0,,,,,,,[],,,,,,53.2,0.0,u,0.0,True,1605.5000000596046,97.0,60.0,40.0,False,,228.15028744035425,[],"[684, 456]",ColorTask,115.0,79.0,,,HRV,HRV_0279,2022-11-30 20:45:17
,wl-rdm,196,556646,0.0-8.79-0.79,1.0,196.0,,,,,,,[],,,,,,56.4,1.0,i,1.0,True,718.0000000596046,43.0,60.0,40.0,False,,244.9293025329596,[],"[684, 456]",ColorTask,116.0,80.0,,,HRV,HRV_0279,2022-11-30 20:45:17
,wl-rdm,197,558648,0.0-8.80-0.80,1.0,197.0,,,,,,,[],,,,,,56.4,1.0,i,1.0,True,591.9000000357628,36.0,60.0,40.0,False,,337.7127096456403,[],"[684, 456]",ColorTask,117.0,81.0,,,HRV,HRV_0279,2022-11-30 20:45:17
,wl-rdm,198,560582,0.0-8.81-0.81,1.0,198.0,,,,,,,[],,,,,,73.6,0.0,u,0.0,True,570.1000000238419,35.0,60.0,40.0,False,,298.9880932283467,[],"[684, 456]",ColorTask,118.0,82.0,,,HRV,HRV_0279,2022-11-30 20:45:17
,wl-rdm,199,562684,0.0-8.82-0.82,1.0,199.0,,,,,,,[],,,,,,50.0,1.0,i,1.0,True,745.0000000596046,45.0,60.0,40.0,False,,286.2634091849939,[],"[684, 456]",ColorTask,119.0,83.0,,,HRV,HRV_0279,2022-11-30 20:45:17
,wl-rdm,200,564802,0.0-8.83-0.83,1.0,200.0,,,,,,,[],,,,,,62.5,0.0,u,0.0,True,837.4999999403954,51.0,60.0,40.0,False,,211.5719386033745,[],"[684, 456]",ColorTask,120.0,84.0,,,HRV,HRV_0279,2022-11-30 20:45:17
,wl-rdm,201,566920,0.0-8.84-0.84,1.0,201.0,,,,,,,[],,,,,,50.0,1.0,i,1.0,True,688.6000000238419,42.0,60.0,40.0,False,,359.46613891908754,[],"[684, 456]",ColorTask,121.0,85.0,,,HRV,HRV_0279,2022-11-30 20:45:17
,wl-rdm,202,568904,0.0-8.85-0.85,1.0,202.0,,,,,,,[],,,,,,53.2,1.0,u,0.0,False,701.5,42.0,60.0,40.0,False,,216.14790399324608,[],"[684, 456]",ColorTask,120.0,86.0,,,HRV,HRV_0279,2022-11-30 20:45:17
,wl-rdm,203,571022,0.0-8.86-0.86,1.0,203.0,,,,,,,[],,,,,,56.4,0.0,u,0.0,True,686.8999999761581,42.0,60.0,40.0,False,,352.11082575415315,[],"[684, 456]",ColorTask,121.0,87.0,,,HRV,HRV_0279,2022-11-30 20:45:17
,wl-rdm,204,573341,0.0-8.87-0.87,1.0,204.0,,,,,,,[],,,,,,56.4,0.0,u,0.0,True,914.5999999642372,55.0,60.0,40.0,False,,348.8626598132861,[],"[684, 456]",ColorTask,122.0,88.0,,,HRV,HRV_0279,2022-11-30 20:45:17
,wl-rdm,205,575709,0.0-8.88-0.88,1.0,205.0,,,,,,,[],,,,,,73.6,1.0,i,1.0,True,916.5999999642372,55.0,60.0,40.0,False,,393.5240291010746,[],"[684, 456]",ColorTask,123.0,89.0,,,HRV,HRV_0279,2022-11-30 20:45:17
,wl-rdm,206,578846,0.0-8.89-0.89,1.0,206.0,,,,,,,[],,,,,,53.2,0.0,u,0.0,True,1819.9000000357628,109.0,60.0,40.0,False,,247.50412597539926,[],"[684, 456]",ColorTask,124.0,90.0,,,HRV,HRV_0279,2022-11-30 20:45:17
,wl-rdm,207,581230,0.0-8.90-0.90,1.0,207.0,,,,,,,[],,,,,,53.2,1.0,u,0.0,False,939.5000000596046,57.0,60.0,40.0,False,,371.75875811556466,[],"[684, 456]",ColorTask,123.0,91.0,,,HRV,HRV_0279,2022-11-30 20:45:17
,wl-rdm,208,583953,0.0-8.91-0.91,1.0,208.0,,,,,,,[],,,,,,50.0,0.0,i,1.0,False,1305.5999999642372,79.0,60.0,40.0,False,,329.912602086256,[],"[684, 456]",ColorTask,122.0,92.0,,,HRV,HRV_0279,2022-11-30 20:45:17
,wl-rdm,209,585904,0.0-8.92-0.92,1.0,209.0,,,,,,,[],,,,,,87.9,0.0,u,0.0,True,639.1000000238419,39.0,60.0,40.0,False,,219.67780094394413,[],"[684, 456]",ColorTask,123.0,93.0,,,HRV,HRV_0279,2022-11-30 20:45:17
,wl-rdm,210,588723,0.0-8.93-0.93,1.0,210.0,,,,,,,[],,,,,,62.5,0.0,u,0.0,True,1507.5,91.0,60.0,40.0,False,,244.52879776629226,[],"[684, 456]",ColorTask,124.0,94.0,,,HRV,HRV_0279,2022-11-30 20:45:17
,wl-rdm,211,590774,0.0-8.94-0.94,1.0,211.0,,,,,,,[],,,,,,73.6,1.0,i,1.0,True,722.3000000715256,44.0,60.0,40.0,False,,261.8049988199618,[],"[684, 456]",ColorTask,125.0,95.0,,,HRV,HRV_0279,2022-11-30 20:45:17
,wl-rdm,212,592676,0.0-8.95-0.95,1.0,212.0,,,,,,,[],,,,,,87.9,1.0,i,1.0,True,510.69999998807907,31.0,60.0,40.0,False,,316.94703355052303,[],"[684, 456]",ColorTask,126.0,96.0,,,HRV,HRV_0279,2022-11-30 20:45:17
,wl-rdm,213,594777,0.0-8.96-0.96,1.0,213.0,,,,,,,[],,,,,,62.5,0.0,u,0.0,True,803.6999999880791,49.0,60.0,40.0,False,,230.47881756876555,[],"[684, 456]",ColorTask,127.0,97.0,,,HRV,HRV_0279,2022-11-30 20:45:17
,wl-rdm,214,597246,0.0-8.97-0.97,1.0,214.0,,,,,,,[],,,,,,62.5,1.0,i,1.0,True,1164.7000000476837,70.0,60.0,40.0,False,,241.40141702762946,[],"[684, 456]",ColorTask,128.0,98.0,,,HRV,HRV_0279,2022-11-30 20:45:17
,wl-rdm,215,600947,0.0-8.98-0.98,1.0,215.0,,,,,,,[],,,,,,56.4,1.0,u,0.0,False,2346.400000035763,141.0,60.0,40.0,False,,289.468398179852,[],"[684, 456]",ColorTask,127.0,99.0,,,HRV,HRV_0279,2022-11-30 20:45:17
,wl-rdm,216,603617,0.0-8.99-0.99,1.0,216.0,,,,,,,[],,,,,,53.2,0.0,u,0.0,True,1254.1000000238419,76.0,60.0,40.0,False,,333.7756992826498,[],"[684, 456]",ColorTask,128.0,100.0,,,HRV,HRV_0279,2022-11-30 20:45:17
,wl-rdm,217,606001,0.0-8.100-0.100,1.0,217.0,,,,,,,[],,,,,,50.0,0.0,u,0.0,True,1042.3999999761581,63.0,60.0,40.0,False,,268.0876681485479,[],"[684, 456]",ColorTask,129.0,101.0,,,HRV,HRV_0279,2022-11-30 20:45:17
,wl-rdm,218,608252,0.0-8.101-0.101,1.0,218.0,,,,,,,[],,,,,,56.4,0.0,u,0.0,True,857.2000000476837,52.0,60.0,40.0,False,,321.7491041267492,[],"[684, 456]",ColorTask,130.0,102.0,,,HRV,HRV_0279,2022-11-30 20:45:17
,wl-rdm,219,610254,0.0-8.102-0.102,1.0,219.0,,,,,,,[],,,,,,87.9,1.0,i,1.0,True,666.3000000119209,40.0,60.0,40.0,False,,276.58766257955176,[],"[684, 456]",ColorTask,131.0,103.0,,,HRV,HRV_0279,2022-11-30 20:45:17
,wl-rdm,220,612155,0.0-8.103-0.103,1.0,220.0,,,,,,,[],,,,,,73.6,0.0,u,0.0,True,631.0,38.0,60.0,40.0,False,,214.82579861823012,[],"[684, 456]",ColorTask,132.0,104.0,,,HRV,HRV_0279,2022-11-30 20:45:17
,wl-rdm,221,614641,0.0-8.104-0.104,1.0,221.0,,,,,,,[],,,,,,53.2,1.0,i,1.0,True,1159.6000000238419,70.0,60.0,40.0,False,,254.97945968207986,[],"[684, 456]",ColorTask,133.0,105.0,,,HRV,HRV_0279,2022-11-30 20:45:17
,wl-rdm,222,616809,0.0-8.105-0.105,1.0,222.0,,,,,,,[],,,,,,62.5,0.0,u,0.0,True,841.7999999523163,51.0,60.0,40.0,False,,236.16830969794094,[],"[684, 456]",ColorTask,134.0,106.0,,,HRV,HRV_0279,2022-11-30 20:45:17
,wl-rdm,223,619495,0.0-8.106-0.106,1.0,223.0,,,,,,,[],,,,,,53.2,0.0,u,0.0,True,1299.3999999761581,78.0,60.0,40.0,False,,324.6148466166578,[],"[684, 456]",ColorTask,135.0,107.0,,,HRV,HRV_0279,2022-11-30 20:45:17
,wl-rdm,224,621595,0.0-8.107-0.107,1.0,224.0,,,,,,,[],,,,,,53.2,0.0,u,0.0,True,713.3000000119209,43.0,60.0,40.0,False,,310.31398832831917,[],"[684, 456]",ColorTask,136.0,108.0,,,HRV,HRV_0279,2022-11-30 20:45:17
,wl-rdm,225,623663,0.0-8.108-0.108,1.0,225.0,,,,,,,[],,,,,,62.5,1.0,i,1.0,True,649.9000000357628,39.0,60.0,40.0,False,,356.8786657854989,[],"[684, 456]",ColorTask,137.0,109.0,,,HRV,HRV_0279,2022-11-30 20:45:17
,wl-html-button-response,226,631255,0.0-9.0-0.0,,,,,,,,,,7582.800000011921,,0,,,,,,,,,,,,,,,,,,,,<h3>End of this session. Thank you!</h3><br>,['Close window'],HRV,HRV_0279,2022-11-30 20:45:17
