trialN,stimuli,trialStartTime,trialStartTime_UNIX,stimulus1,stimulus2,stimulus1Bid,stimulus2Bid,delta,selected,rt,rt_UNIX,rt_perfnow,receivedResponse,rsp,trialEndTime,trialDuration,trialEndTime_UNIX,trialDuration_UNIX,exp,subjectId,date
0,"[{'imgObject': {}, 'id': 'orange slices', 'src': '/static/foodstim60/orange slices.jpg', 'key': 'u', 'origWidth': 409, 'origHeight': 410, 'width': 409, 'height': 410, 'widthPercent': 0.45, 'rescaleHeight': False, 'trialN': 0, 'loaded': True, 'loadedTime': 3491.199999988079, 'positionName': 'LEFT', 'positionCoords': [247.64, 251], 'bid': 7.61}, {'imgObject': {}, 'id': 'granola w milk', 'src': '/static/foodstim60/granola w milk.jpg', 'key': 'i', 'origWidth': 410, 'origHeight': 410, 'width': 410, 'height': 410, 'widthPercent': 0.45, 'rescaleHeight': False, 'trialN': 0, 'loaded': True, 'loadedTime': 3505.399999976158, 'positionName': 'RIGHT', 'positionCoords': [711.36, 251], 'bid': 4.57}]",3825.100000023842,1669840152195,orange slices,granola w milk,7.61,4.57,-3.04,orange slices,1018.2999999523163,1019,1019.5999999642372,True,u,5357.199999988079,1532.0999999642372,1669840153727,1532,HRV,HRV_0279,2022-11-30 20:34:38
1,"[{'imgObject': {}, 'id': 'banana', 'src': '/static/foodstim60/banana.jpg', 'key': 'u', 'origWidth': 410, 'origHeight': 410, 'width': 410, 'height': 410, 'widthPercent': 0.45, 'rescaleHeight': False, 'trialN': 1, 'loaded': True, 'loadedTime': 3529.399999976158, 'positionName': 'LEFT', 'positionCoords': [246.64, 251], 'bid': 5.99}, {'imgObject': {}, 'id': 'yogurt no spoon', 'src': '/static/foodstim60/yogurt no spoon.jpg', 'key': 'i', 'origWidth': 411, 'origHeight': 410, 'width': 411, 'height': 410, 'widthPercent': 0.45, 'rescaleHeight': False, 'trialN': 1, 'loaded': True, 'loadedTime': 3537.5, 'positionName': 'RIGHT', 'positionCoords': [711.36, 251], 'bid': 6.73}]",5375.199999988079,1669840153745,banana,yogurt no spoon,5.99,6.73,0.7400000000000002,yogurt no spoon,758.4000000357628,759,759.6000000238419,True,i,6646.899999976158,1271.699999988079,1669840155016,1271,HRV,HRV_0279,2022-11-30 20:34:38
2,"[{'imgObject': {}, 'id': 'steak', 'src': '/static/foodstim60/steak.jpg', 'key': 'u', 'origWidth': 410, 'origHeight': 410, 'width': 410, 'height': 410, 'widthPercent': 0.45, 'rescaleHeight': False, 'trialN': 2, 'loaded': True, 'loadedTime': 3551.199999988079, 'positionName': 'LEFT', 'positionCoords': [246.64, 251], 'bid': 8.23}, {'imgObject': {}, 'id': 'luckycharms', 'src': '/static/foodstim60/luckycharms.jpg', 'key': 'i', 'origWidth': 410, 'origHeight': 409, 'width': 410, 'height': 409, 'widthPercent': 0.45, 'rescaleHeight': False, 'trialN': 2, 'loaded': True, 'loadedTime': 3551.899999976158, 'positionName': 'RIGHT', 'positionCoords': [711.36, 251.5], 'bid': 8.2}]",6647.399999976158,1669840155017,steak,luckycharms,8.23,8.2,-0.030000000000001137,luckycharms,846.2000000476837,847,846.9000000357628,True,i,8012.300000011921,1364.9000000357628,1669840156382,1365,HRV,HRV_0279,2022-11-30 20:34:38
3,"[{'imgObject': {}, 'id': 'cherry tomato', 'src': '/static/foodstim60/cherry tomato.jpg', 'key': 'u', 'origWidth': 410, 'origHeight': 410, 'width': 410, 'height': 410, 'widthPercent': 0.45, 'rescaleHeight': False, 'trialN': 3, 'loaded': True, 'loadedTime': 3565.300000011921, 'positionName': 'LEFT', 'positionCoords': [246.64, 251], 'bid': 6.34}, {'imgObject': {}, 'id': 'veggieswithdip', 'src': '/static/foodstim60/veggieswithdip.jpg', 'key': 'i', 'origWidth': 409, 'origHeight': 409, 'width': 409, 'height': 409, 'widthPercent': 0.45, 'rescaleHeight': False, 'trialN': 3, 'loaded': True, 'loadedTime': 3572.800000011921, 'positionName': 'RIGHT', 'positionCoords': [711.36, 251.5], 'bid': 6.5600000000000005}]",8013.399999976158,1669840156383,cherry tomato,veggieswithdip,6.34,6.5600000000000005,0.22000000000000064,veggieswithdip,1190,1190,1190.5,True,i,9712.800000011921,1699.4000000357628,1669840158082,1699,HRV,HRV_0279,2022-11-30 20:34:38
4,"[{'imgObject': {}, 'id': 'omelette', 'src': '/static/foodstim60/omelette.jpg', 'key': 'u', 'origWidth': 410, 'origHeight': 409, 'width': 410, 'height': 409, 'widthPercent': 0.45, 'rescaleHeight': False, 'trialN': 4, 'loaded': True, 'loadedTime': 3580, 'positionName': 'LEFT', 'positionCoords': [246.64, 251.5], 'bid': 3.37}, {'imgObject': {}, 'id': 'seaweed', 'src': '/static/foodstim60/seaweed.jpg', 'key': 'i', 'origWidth': 410, 'origHeight': 410, 'width': 410, 'height': 410, 'widthPercent': 0.45, 'rescaleHeight': False, 'trialN': 4, 'loaded': True, 'loadedTime': 3595.399999976158, 'positionName': 'RIGHT', 'positionCoords': [711.36, 251], 'bid': 2.22}]",9713.399999976158,1669840158083,omelette,seaweed,3.37,2.22,-1.15,omelette,821.3000000119209,822,822.3000000119209,True,u,11050.399999976158,1337.0,1669840159420,1337,HRV,HRV_0279,2022-11-30 20:34:38
5,"[{'imgObject': {}, 'id': 'hashbrowns', 'src': '/static/foodstim60/hashbrowns.jpg', 'key': 'u', 'origWidth': 411, 'origHeight': 410, 'width': 411, 'height': 410, 'widthPercent': 0.45, 'rescaleHeight': False, 'trialN': 5, 'loaded': True, 'loadedTime': 3602, 'positionName': 'LEFT', 'positionCoords': [245.64, 251], 'bid': 4.54}, {'imgObject': {}, 'id': 'turkey sandwich', 'src': '/static/foodstim60/turkey sandwich.jpg', 'key': 'i', 'origWidth': 409, 'origHeight': 409, 'width': 409, 'height': 409, 'widthPercent': 0.45, 'rescaleHeight': False, 'trialN': 5, 'loaded': True, 'loadedTime': 3604.300000011921, 'positionName': 'RIGHT', 'positionCoords': [711.36, 251.5], 'bid': 6.22}]",11051.0,1669840159421,hashbrowns,turkey sandwich,4.54,6.22,1.6799999999999997,turkey sandwich,853.1999999880791,854,854.0,True,i,12416.100000023842,1365.1000000238419,1669840160786,1365,HRV,HRV_0279,2022-11-30 20:34:38
6,"[{'imgObject': {}, 'id': 'strawberries', 'src': '/static/foodstim60/strawberries.jpg', 'key': 'u', 'origWidth': 410, 'origHeight': 410, 'width': 410, 'height': 410, 'widthPercent': 0.45, 'rescaleHeight': False, 'trialN': 6, 'loaded': True, 'loadedTime': 3617.100000023842, 'positionName': 'LEFT', 'positionCoords': [246.64, 251], 'bid': 7.73}, {'imgObject': {}, 'id': 'tacos', 'src': '/static/foodstim60/tacos.jpg', 'key': 'i', 'origWidth': 411, 'origHeight': 411, 'width': 411, 'height': 411, 'widthPercent': 0.45, 'rescaleHeight': False, 'trialN': 6, 'loaded': True, 'loadedTime': 3625.399999976158, 'positionName': 'RIGHT', 'positionCoords': [711.36, 250.5], 'bid': 7.79}]",12416.399999976158,1669840160786,strawberries,tacos,7.73,7.79,0.05999999999999961,tacos,787,799,787.6000000238419,True,i,13716.0,1299.6000000238419,1669840162097,1311,HRV,HRV_0279,2022-11-30 20:34:38
7,"[{'imgObject': {}, 'id': 'eggs', 'src': '/static/foodstim60/eggs.jpg', 'key': 'u', 'origWidth': 409, 'origHeight': 409, 'width': 409, 'height': 409, 'widthPercent': 0.45, 'rescaleHeight': False, 'trialN': 7, 'loaded': True, 'loadedTime': 3626.800000011921, 'positionName': 'LEFT', 'positionCoords': [247.64, 251.5], 'bid': 5.26}, {'imgObject': {}, 'id': 'corn cob', 'src': '/static/foodstim60/corn cob.jpg', 'key': 'i', 'origWidth': 411, 'origHeight': 411, 'width': 411, 'height': 411, 'widthPercent': 0.45, 'rescaleHeight': False, 'trialN': 7, 'loaded': True, 'loadedTime': 3632.199999988079, 'positionName': 'RIGHT', 'positionCoords': [711.36, 250.5], 'bid': 5.92}]",13716.5,1669840162098,eggs,corn cob,5.26,5.92,0.6600000000000001,eggs,1616.699999988079,1617,1617.199999988079,True,u,15841.899999976158,2125.399999976158,1669840164223,2125,HRV,HRV_0279,2022-11-30 20:34:38
8,"[{'imgObject': {}, 'id': 'fruitsalad', 'src': '/static/foodstim60/fruitsalad.jpg', 'key': 'u', 'origWidth': 410, 'origHeight': 410, 'width': 410, 'height': 410, 'widthPercent': 0.45, 'rescaleHeight': False, 'trialN': 8, 'loaded': True, 'loadedTime': 3639.600000023842, 'positionName': 'LEFT', 'positionCoords': [246.64, 251], 'bid': 7.7}, {'imgObject': {}, 'id': 'grilled chicken strips', 'src': '/static/foodstim60/grilled chicken strips.jpg', 'key': 'i', 'origWidth': 410, 'origHeight': 411, 'width': 410, 'height': 411, 'widthPercent': 0.45, 'rescaleHeight': False, 'trialN': 8, 'loaded': True, 'loadedTime': 3649.699999988079, 'positionName': 'RIGHT', 'positionCoords': [711.36, 250.5], 'bid': 7.96}]",15842.600000023842,1669840164224,fruitsalad,grilled chicken strips,7.7,7.96,0.2599999999999998,fruitsalad,1841.2999999523163,1842,1842.3999999761581,True,u,18205.80000001192,2363.199999988079,1669840166587,2363,HRV,HRV_0279,2022-11-30 20:34:38
9,"[{'imgObject': {}, 'id': 'apple slices', 'src': '/static/foodstim60/apple slices.jpg', 'key': 'u', 'origWidth': 409, 'origHeight': 410, 'width': 409, 'height': 410, 'widthPercent': 0.45, 'rescaleHeight': False, 'trialN': 9, 'loaded': True, 'loadedTime': 3651.199999988079, 'positionName': 'LEFT', 'positionCoords': [247.64, 251], 'bid': 6.0600000000000005}, {'imgObject': {}, 'id': 'luckycharms', 'src': '/static/foodstim60/luckycharms.jpg', 'key': 'i', 'origWidth': 410, 'origHeight': 409, 'width': 410, 'height': 409, 'widthPercent': 0.45, 'rescaleHeight': False, 'trialN': 9, 'loaded': True, 'loadedTime': 3557.300000011921, 'positionName': 'RIGHT', 'positionCoords': [711.36, 251.5], 'bid': 8.2}]",18206.100000023842,1669840166587,apple slices,luckycharms,6.0600000000000005,8.2,2.139999999999999,apple slices,1197,1198,1197.699999988079,True,u,19922.19999998808,1716.0999999642372,1669840168303,1716,HRV,HRV_0279,2022-11-30 20:34:38
10,"[{'imgObject': {}, 'id': 'kiwi', 'src': '/static/foodstim60/kiwi.jpg', 'key': 'u', 'origWidth': 410, 'origHeight': 410, 'width': 410, 'height': 410, 'widthPercent': 0.45, 'rescaleHeight': False, 'trialN': 10, 'loaded': True, 'loadedTime': 3658.199999988079, 'positionName': 'LEFT', 'positionCoords': [246.64, 251], 'bid': 7.13}, {'imgObject': {}, 'id': 'turkey sandwich', 'src': '/static/foodstim60/turkey sandwich.jpg', 'key': 'i', 'origWidth': 409, 'origHeight': 409, 'width': 409, 'height': 409, 'widthPercent': 0.45, 'rescaleHeight': False, 'trialN': 10, 'loaded': True, 'loadedTime': 3602.800000011921, 'positionName': 'RIGHT', 'positionCoords': [711.36, 251.5], 'bid': 6.22}]",19923.600000023842,1669840168305,kiwi,turkey sandwich,7.13,6.22,-0.9100000000000001,kiwi,949.8999999761581,950,950.5,True,u,21383.69999998808,1460.0999999642372,1669840169765,1460,HRV,HRV_0279,2022-11-30 20:34:38
11,"[{'imgObject': {}, 'id': 'fruitsalad', 'src': '/static/foodstim60/fruitsalad.jpg', 'key': 'u', 'origWidth': 410, 'origHeight': 410, 'width': 410, 'height': 410, 'widthPercent': 0.45, 'rescaleHeight': False, 'trialN': 11, 'loaded': True, 'loadedTime': 3640, 'positionName': 'LEFT', 'positionCoords': [246.64, 251], 'bid': 7.7}, {'imgObject': {}, 'id': 'edamame', 'src': '/static/foodstim60/edamame.jpg', 'key': 'i', 'origWidth': 409, 'origHeight': 410, 'width': 409, 'height': 410, 'widthPercent': 0.45, 'rescaleHeight': False, 'trialN': 11, 'loaded': True, 'loadedTime': 3665.5, 'positionName': 'RIGHT', 'positionCoords': [711.36, 251], 'bid': 7.76}]",21384.80000001192,1669840169766,fruitsalad,edamame,7.7,7.76,0.05999999999999961,fruitsalad,1128.5,1129,1128.800000011921,True,u,23023.100000023842,1638.300000011921,1669840171404,1638,HRV,HRV_0279,2022-11-30 20:34:38
12,"[{'imgObject': {}, 'id': 'baked potato', 'src': '/static/foodstim60/baked potato.jpg', 'key': 'u', 'origWidth': 409, 'origHeight': 410, 'width': 409, 'height': 410, 'widthPercent': 0.45, 'rescaleHeight': False, 'trialN': 12, 'loaded': True, 'loadedTime': 3671.100000023842, 'positionName': 'LEFT', 'positionCoords': [247.64, 251], 'bid': 5.67}, {'imgObject': {}, 'id': 'shreddedwheatwithmilk', 'src': '/static/foodstim60/shreddedwheatwithmilk.jpg', 'key': 'i', 'origWidth': 410, 'origHeight': 410, 'width': 410, 'height': 410, 'widthPercent': 0.45, 'rescaleHeight': False, 'trialN': 12, 'loaded': True, 'loadedTime': 3674, 'positionName': 'RIGHT', 'positionCoords': [711.36, 251], 'bid': 5.73}]",23023.30000001192,1669840171404,baked potato,shreddedwheatwithmilk,5.67,5.73,0.0600000000000005,baked potato,1820.0999999642372,1821,1820.3999999761581,True,u,25364.399999976158,2341.099999964237,1669840173745,2341,HRV,HRV_0279,2022-11-30 20:34:38
13,"[{'imgObject': {}, 'id': 'bagel plain', 'src': '/static/foodstim60/bagel plain.jpg', 'key': 'u', 'origWidth': 410, 'origHeight': 410, 'width': 410, 'height': 410, 'widthPercent': 0.45, 'rescaleHeight': False, 'trialN': 13, 'loaded': True, 'loadedTime': 3675, 'positionName': 'LEFT', 'positionCoords': [246.64, 251], 'bid': 5.3}, {'imgObject': {}, 'id': 'hotdog w must', 'src': '/static/foodstim60/hotdog w must.jpg', 'key': 'i', 'origWidth': 409, 'origHeight': 409, 'width': 409, 'height': 409, 'widthPercent': 0.45, 'rescaleHeight': False, 'trialN': 13, 'loaded': True, 'loadedTime': 3684.5, 'positionName': 'RIGHT', 'positionCoords': [711.36, 251.5], 'bid': 1.08}]",25364.80000001192,1669840173746,bagel plain,hotdog w must,5.3,1.08,-4.22,bagel plain,1039.3999999761581,1040,1040.0,True,u,26925.399999976158,1560.5999999642372,1669840175306,1560,HRV,HRV_0279,2022-11-30 20:34:38
14,"[{'imgObject': {}, 'id': 'bagel plain', 'src': '/static/foodstim60/bagel plain.jpg', 'key': 'u', 'origWidth': 410, 'origHeight': 410, 'width': 410, 'height': 410, 'widthPercent': 0.45, 'rescaleHeight': False, 'trialN': 14, 'loaded': True, 'loadedTime': 3682.800000011921, 'positionName': 'LEFT', 'positionCoords': [246.64, 251], 'bid': 5.3}, {'imgObject': {}, 'id': 'banana', 'src': '/static/foodstim60/banana.jpg', 'key': 'i', 'origWidth': 410, 'origHeight': 410, 'width': 410, 'height': 410, 'widthPercent': 0.45, 'rescaleHeight': False, 'trialN': 14, 'loaded': True, 'loadedTime': 3528.399999976158, 'positionName': 'RIGHT', 'positionCoords': [711.36, 251], 'bid': 5.99}]",26926.0,1669840175307,bagel plain,banana,5.3,5.99,0.6900000000000004,banana,868.1999999880791,869,869.3999999761581,True,i,28308.399999976158,1382.3999999761581,1669840176689,1382,HRV,HRV_0279,2022-11-30 20:34:38
15,"[{'imgObject': {}, 'id': 'avocado', 'src': '/static/foodstim60/avocado.jpg', 'key': 'u', 'origWidth': 409, 'origHeight': 409, 'width': 409, 'height': 409, 'widthPercent': 0.45, 'rescaleHeight': False, 'trialN': 15, 'loaded': True, 'loadedTime': 3691.300000011921, 'positionName': 'LEFT', 'positionCoords': [247.64, 251.5], 'bid': 6.78}, {'imgObject': {}, 'id': 'blueberries', 'src': '/static/foodstim60/blueberries.jpg', 'key': 'i', 'origWidth': 411, 'origHeight': 411, 'width': 411, 'height': 411, 'widthPercent': 0.45, 'rescaleHeight': False, 'trialN': 15, 'loaded': True, 'loadedTime': 3698, 'positionName': 'RIGHT', 'positionCoords': [711.36, 250.5], 'bid': 6.82}]",28308.899999976158,1669840176690,avocado,blueberries,6.78,6.82,0.040000000000000036,avocado,945.2000000476837,946,946.0,True,u,29767.69999998808,1458.800000011921,1669840178149,1459,HRV,HRV_0279,2022-11-30 20:34:38
16,"[{'imgObject': {}, 'id': 'turkey sandwich', 'src': '/static/foodstim60/turkey sandwich.jpg', 'key': 'u', 'origWidth': 409, 'origHeight': 409, 'width': 409, 'height': 409, 'widthPercent': 0.45, 'rescaleHeight': False, 'trialN': 16, 'loaded': True, 'loadedTime': 3604.300000011921, 'positionName': 'LEFT', 'positionCoords': [247.64, 251.5], 'bid': 6.22}, {'imgObject': {}, 'id': 'avocado', 'src': '/static/foodstim60/avocado.jpg', 'key': 'i', 'origWidth': 409, 'origHeight': 409, 'width': 409, 'height': 409, 'widthPercent': 0.45, 'rescaleHeight': False, 'trialN': 16, 'loaded': True, 'loadedTime': 3695.5, 'positionName': 'RIGHT', 'positionCoords': [711.36, 251.5], 'bid': 6.78}]",29768.30000001192,1669840178149,turkey sandwich,avocado,6.22,6.78,0.5600000000000005,avocado,774.8999999761581,776,775.3000000119209,True,i,31049.899999976158,1281.5999999642372,1669840179431,1282,HRV,HRV_0279,2022-11-30 20:34:38
17,"[{'imgObject': {}, 'id': 'pear', 'src': '/static/foodstim60/pear.jpg', 'key': 'u', 'origWidth': 411, 'origHeight': 410, 'width': 411, 'height': 410, 'widthPercent': 0.45, 'rescaleHeight': False, 'trialN': 17, 'loaded': True, 'loadedTime': 3700.600000023842, 'positionName': 'LEFT', 'positionCoords': [245.64, 251], 'bid': 7.32}, {'imgObject': {}, 'id': 'edamame', 'src': '/static/foodstim60/edamame.jpg', 'key': 'i', 'origWidth': 409, 'origHeight': 410, 'width': 409, 'height': 410, 'widthPercent': 0.45, 'rescaleHeight': False, 'trialN': 17, 'loaded': True, 'loadedTime': 3665.600000023842, 'positionName': 'RIGHT', 'positionCoords': [711.36, 251], 'bid': 7.76}]",31051.100000023842,1669840179432,pear,edamame,7.32,7.76,0.4399999999999995,pear,1223.3999999761581,1224,1224.2999999523163,True,u,32791.10000002384,1740.0,1669840181172,1740,HRV,HRV_0279,2022-11-30 20:34:38
18,"[{'imgObject': {}, 'id': 'mac & cheese', 'src': '/static/foodstim60/mac & cheese.jpg', 'key': 'u', 'origWidth': 410, 'origHeight': 410, 'width': 410, 'height': 410, 'widthPercent': 0.45, 'rescaleHeight': False, 'trialN': 18, 'loaded': True, 'loadedTime': 3712.199999988079, 'positionName': 'LEFT', 'positionCoords': [246.64, 251], 'bid': 7.640000000000001}, {'imgObject': {}, 'id': 'burger', 'src': '/static/foodstim60/burger.jpg', 'key': 'i', 'origWidth': 409, 'origHeight': 409, 'width': 409, 'height': 409, 'widthPercent': 0.45, 'rescaleHeight': False, 'trialN': 18, 'loaded': True, 'loadedTime': 3714.800000011921, 'positionName': 'RIGHT', 'positionCoords': [711.36, 251.5], 'bid': 7.16}]",32791.60000002384,1669840181173,mac & cheese,burger,7.640000000000001,7.16,-0.4800000000000004,mac & cheese,1142.0999999642372,1143,1143.0,True,u,34445.69999998808,1654.0999999642372,1669840182827,1654,HRV,HRV_0279,2022-11-30 20:34:38
19,"[{'imgObject': {}, 'id': 'lox', 'src': '/static/foodstim60/lox.jpg', 'key': 'u', 'origWidth': 410, 'origHeight': 411, 'width': 410, 'height': 411, 'widthPercent': 0.45, 'rescaleHeight': False, 'trialN': 19, 'loaded': True, 'loadedTime': 3721.5, 'positionName': 'LEFT', 'positionCoords': [246.64, 250.5], 'bid': 4.29}, {'imgObject': {}, 'id': 'cheerios', 'src': '/static/foodstim60/cheerios.jpg', 'key': 'i', 'origWidth': 409, 'origHeight': 410, 'width': 409, 'height': 410, 'widthPercent': 0.45, 'rescaleHeight': False, 'trialN': 19, 'loaded': True, 'loadedTime': 3724.699999988079, 'positionName': 'RIGHT', 'positionCoords': [711.36, 251], 'bid': 3.97}]",34446.30000001192,1669840182827,lox,cheerios,4.29,3.97,-0.31999999999999984,cheerios,1447.5999999642372,1449,1449.0,True,i,36398.80000001192,1952.5,1669840184780,1953,HRV,HRV_0279,2022-11-30 20:34:38
20,"[{'imgObject': {}, 'id': 'granola w milk', 'src': '/static/foodstim60/granola w milk.jpg', 'key': 'u', 'origWidth': 410, 'origHeight': 410, 'width': 410, 'height': 410, 'widthPercent': 0.45, 'rescaleHeight': False, 'trialN': 20, 'loaded': True, 'loadedTime': 3504.300000011921, 'positionName': 'LEFT', 'positionCoords': [246.64, 251], 'bid': 4.57}, {'imgObject': {}, 'id': 'eggsalad', 'src': '/static/foodstim60/eggsalad.jpg', 'key': 'i', 'origWidth': 410, 'origHeight': 409, 'width': 410, 'height': 409, 'widthPercent': 0.45, 'rescaleHeight': False, 'trialN': 20, 'loaded': True, 'loadedTime': 3734.100000023842, 'positionName': 'RIGHT', 'positionCoords': [711.36, 251.5], 'bid': 4.3100000000000005}]",36399.39999997616,1669840184780,granola w milk,eggsalad,4.57,4.3100000000000005,-0.2599999999999998,eggsalad,864.6000000238419,866,865.4000000357628,True,i,37774.39999997616,1375.0,1669840186155,1375,HRV,HRV_0279,2022-11-30 20:34:38
21,"[{'imgObject': {}, 'id': 'chicken nuggets2', 'src': '/static/foodstim60/chicken nuggets2.jpg', 'key': 'u', 'origWidth': 410, 'origHeight': 409, 'width': 410, 'height': 409, 'widthPercent': 0.45, 'rescaleHeight': False, 'trialN': 21, 'loaded': True, 'loadedTime': 3741.100000023842, 'positionName': 'LEFT', 'positionCoords': [246.64, 251.5], 'bid': 6.59}, {'imgObject': {}, 'id': 'apple slices', 'src': '/static/foodstim60/apple slices.jpg', 'key': 'i', 'origWidth': 409, 'origHeight': 410, 'width': 409, 'height': 410, 'widthPercent': 0.45, 'rescaleHeight': False, 'trialN': 21, 'loaded': True, 'loadedTime': 3651.300000011921, 'positionName': 'RIGHT', 'positionCoords': [711.36, 251], 'bid': 6.0600000000000005}]",37775.10000002384,1669840186156,chicken nuggets2,apple slices,6.59,6.0600000000000005,-0.5299999999999994,apple slices,1068.2999999523163,1069,1068.7999999523163,True,i,39357.39999997616,1582.2999999523163,1669840187738,1582,HRV,HRV_0279,2022-11-30 20:34:38
22,"[{'imgObject': {}, 'id': 'salad w chicken', 'src': '/static/foodstim60/salad w chicken.jpg', 'key': 'u', 'origWidth': 411, 'origHeight': 411, 'width': 411, 'height': 411, 'widthPercent': 0.45, 'rescaleHeight': False, 'trialN': 22, 'loaded': True, 'loadedTime': 3742.899999976158, 'positionName': 'LEFT', 'positionCoords': [245.64, 250.5], 'bid': 8.11}, {'imgObject': {}, 'id': 'rigatoni and sauce', 'src': '/static/foodstim60/rigatoni and sauce.jpg', 'key': 'i', 'origWidth': 410, 'origHeight': 411, 'width': 410, 'height': 411, 'widthPercent': 0.45, 'rescaleHeight': False, 'trialN': 22, 'loaded': True, 'loadedTime': 3748.899999976158, 'positionName': 'RIGHT', 'positionCoords': [711.36, 250.5], 'bid': 6.03}]",39358.0,1669840187739,salad w chicken,rigatoni and sauce,8.11,6.03,-2.079999999999999,salad w chicken,1095.3999999761581,1096,1096.3999999761581,True,u,40968.10000002384,1610.1000000238419,1669840189349,1610,HRV,HRV_0279,2022-11-30 20:34:38
23,"[{'imgObject': {}, 'id': 'fruitsalad', 'src': '/static/foodstim60/fruitsalad.jpg', 'key': 'u', 'origWidth': 410, 'origHeight': 410, 'width': 410, 'height': 410, 'widthPercent': 0.45, 'rescaleHeight': False, 'trialN': 23, 'loaded': True, 'loadedTime': 3639.399999976158, 'positionName': 'LEFT', 'positionCoords': [246.64, 251], 'bid': 7.7}, {'imgObject': {}, 'id': 'yogurt no spoon', 'src': '/static/foodstim60/yogurt no spoon.jpg', 'key': 'i', 'origWidth': 411, 'origHeight': 410, 'width': 411, 'height': 410, 'widthPercent': 0.45, 'rescaleHeight': False, 'trialN': 23, 'loaded': True, 'loadedTime': 3537.600000023842, 'positionName': 'RIGHT', 'positionCoords': [711.36, 251], 'bid': 6.73}]",40968.5,1669840189350,fruitsalad,yogurt no spoon,7.7,6.73,-0.9699999999999998,yogurt no spoon,1475.300000011921,1476,1476.300000011921,True,i,42956.5,1988.0,1669840191338,1988,HRV,HRV_0279,2022-11-30 20:34:38
24,"[{'imgObject': {}, 'id': 'pear', 'src': '/static/foodstim60/pear.jpg', 'key': 'u', 'origWidth': 411, 'origHeight': 410, 'width': 411, 'height': 410, 'widthPercent': 0.45, 'rescaleHeight': False, 'trialN': 24, 'loaded': True, 'loadedTime': 3701.5, 'positionName': 'LEFT', 'positionCoords': [245.64, 251], 'bid': 7.32}, {'imgObject': {}, 'id': 'turkeysandwich', 'src': '/static/foodstim60/turkeysandwich.jpg', 'key': 'i', 'origWidth': 409, 'origHeight': 409, 'width': 409, 'height': 409, 'widthPercent': 0.45, 'rescaleHeight': False, 'trialN': 24, 'loaded': True, 'loadedTime': 3749, 'positionName': 'RIGHT', 'positionCoords': [711.36, 251.5], 'bid': 7.67}]",42956.80000001192,1669840191338,pear,turkeysandwich,7.32,7.67,0.34999999999999964,pear,906.8999999761581,908,907.8000000119209,True,u,44382.89999997616,1426.0999999642372,1669840192764,1426,HRV,HRV_0279,2022-11-30 20:34:38
25,"[{'imgObject': {}, 'id': 'fruitsalad', 'src': '/static/foodstim60/fruitsalad.jpg', 'key': 'u', 'origWidth': 410, 'origHeight': 410, 'width': 410, 'height': 410, 'widthPercent': 0.45, 'rescaleHeight': False, 'trialN': 25, 'loaded': True, 'loadedTime': 3640.100000023842, 'positionName': 'LEFT', 'positionCoords': [246.64, 251], 'bid': 7.7}, {'imgObject': {}, 'id': 'ice cream sundae 002', 'src': '/static/foodstim60/ice cream sundae 002.jpg', 'key': 'i', 'origWidth': 409, 'origHeight': 409, 'width': 409, 'height': 409, 'widthPercent': 0.45, 'rescaleHeight': False, 'trialN': 25, 'loaded': True, 'loadedTime': 3754, 'positionName': 'RIGHT', 'positionCoords': [711.36, 251.5], 'bid': 9.54}]",44383.5,1669840192765,fruitsalad,ice cream sundae 002,7.7,9.54,1.839999999999999,NaN,NaN,NaN,,False,NaN,48404.89999997616,4021.399999976158,1669840196786,4021,HRV,HRV_0279,2022-11-30 20:34:38
26,"[{'imgObject': {}, 'id': 'blueberries', 'src': '/static/foodstim60/blueberries.jpg', 'key': 'u', 'origWidth': 411, 'origHeight': 411, 'width': 411, 'height': 411, 'widthPercent': 0.45, 'rescaleHeight': False, 'trialN': 26, 'loaded': True, 'loadedTime': 3697.399999976158, 'positionName': 'LEFT', 'positionCoords': [245.64, 250.5], 'bid': 6.82}, {'imgObject': {}, 'id': 'rigatoni and sauce', 'src': '/static/foodstim60/rigatoni and sauce.jpg', 'key': 'i', 'origWidth': 410, 'origHeight': 411, 'width': 410, 'height': 411, 'widthPercent': 0.45, 'rescaleHeight': False, 'trialN': 26, 'loaded': True, 'loadedTime': 3744.300000011921, 'positionName': 'RIGHT', 'positionCoords': [711.36, 250.5], 'bid': 6.03}]",48405.60000002384,1669840196787,blueberries,rigatoni and sauce,6.82,6.03,-0.79,blueberries,1127.5,1128,1127.8999999761581,True,u,50041.80000001192,1636.199999988079,1669840198423,1636,HRV,HRV_0279,2022-11-30 20:34:38
27,"[{'imgObject': {}, 'id': 'cherry tomato', 'src': '/static/foodstim60/cherry tomato.jpg', 'key': 'u', 'origWidth': 410, 'origHeight': 410, 'width': 410, 'height': 410, 'widthPercent': 0.45, 'rescaleHeight': False, 'trialN': 27, 'loaded': True, 'loadedTime': 3558.899999976158, 'positionName': 'LEFT', 'positionCoords': [246.64, 251], 'bid': 6.34}, {'imgObject': {}, 'id': 'burger', 'src': '/static/foodstim60/burger.jpg', 'key': 'i', 'origWidth': 409, 'origHeight': 409, 'width': 409, 'height': 409, 'widthPercent': 0.45, 'rescaleHeight': False, 'trialN': 27, 'loaded': True, 'loadedTime': 3714.5, 'positionName': 'RIGHT', 'positionCoords': [711.36, 251.5], 'bid': 7.16}]",50042.30000001192,1669840198423,cherry tomato,burger,6.34,7.16,0.8200000000000003,cherry tomato,740.8000000119209,742,741.5,True,u,51292.60000002384,1250.300000011921,1669840199674,1251,HRV,HRV_0279,2022-11-30 20:34:38
28,"[{'imgObject': {}, 'id': 'cantaloupe', 'src': '/static/foodstim60/cantaloupe.jpg', 'key': 'u', 'origWidth': 409, 'origHeight': 409, 'width': 409, 'height': 409, 'widthPercent': 0.45, 'rescaleHeight': False, 'trialN': 28, 'loaded': True, 'loadedTime': 3762.300000011921, 'positionName': 'LEFT', 'positionCoords': [247.64, 251.5], 'bid': 0.13}, {'imgObject': {}, 'id': 'olives', 'src': '/static/foodstim60/olives.jpg', 'key': 'i', 'origWidth': 410, 'origHeight': 410, 'width': 410, 'height': 410, 'widthPercent': 0.45, 'rescaleHeight': False, 'trialN': 28, 'loaded': True, 'loadedTime': 3768.399999976158, 'positionName': 'RIGHT', 'positionCoords': [711.36, 251], 'bid': 0.19}]",51293.19999998808,1669840199674,cantaloupe,olives,0.13,0.19,0.06,cantaloupe,830,831,830.8000000119209,True,u,52632.19999998808,1339.0,1669840201013,1339,HRV,HRV_0279,2022-11-30 20:34:38
29,"[{'imgObject': {}, 'id': 'burger', 'src': '/static/foodstim60/burger.jpg', 'key': 'u', 'origWidth': 409, 'origHeight': 409, 'width': 409, 'height': 409, 'widthPercent': 0.45, 'rescaleHeight': False, 'trialN': 29, 'loaded': True, 'loadedTime': 3714.899999976158, 'positionName': 'LEFT', 'positionCoords': [247.64, 251.5], 'bid': 7.16}, {'imgObject': {}, 'id': 'sweetpotato', 'src': '/static/foodstim60/sweetpotato.jpg', 'key': 'i', 'origWidth': 410, 'origHeight': 410, 'width': 410, 'height': 410, 'widthPercent': 0.45, 'rescaleHeight': False, 'trialN': 29, 'loaded': True, 'loadedTime': 3770.300000011921, 'positionName': 'RIGHT', 'positionCoords': [711.36, 251], 'bid': 7.04}]",52632.39999997616,1669840201013,burger,sweetpotato,7.16,7.04,-0.1200000000000001,sweetpotato,2683.2000000476837,2684,2684.0,True,i,55835.69999998808,3203.300000011921,1669840204217,3204,HRV,HRV_0279,2022-11-30 20:34:38
30,"[{'imgObject': {}, 'id': 'strawberries', 'src': '/static/foodstim60/strawberries.jpg', 'key': 'u', 'origWidth': 410, 'origHeight': 410, 'width': 410, 'height': 410, 'widthPercent': 0.45, 'rescaleHeight': False, 'trialN': 30, 'loaded': True, 'loadedTime': 3618, 'positionName': 'LEFT', 'positionCoords': [246.64, 251], 'bid': 7.73}, {'imgObject': {}, 'id': 'avocado', 'src': '/static/foodstim60/avocado.jpg', 'key': 'i', 'origWidth': 409, 'origHeight': 409, 'width': 409, 'height': 409, 'widthPercent': 0.45, 'rescaleHeight': False, 'trialN': 30, 'loaded': True, 'loadedTime': 3689.800000011921, 'positionName': 'RIGHT', 'positionCoords': [711.36, 251.5], 'bid': 6.78}]",55836.0,1669840204217,strawberries,avocado,7.73,6.78,-0.9500000000000002,avocado,889.3000000119209,890,890.1000000238419,True,i,57246.60000002384,1410.6000000238419,1669840205628,1411,HRV,HRV_0279,2022-11-30 20:34:38
31,"[{'imgObject': {}, 'id': 'raspberries', 'src': '/static/foodstim60/raspberries.jpg', 'key': 'u', 'origWidth': 411, 'origHeight': 411, 'width': 411, 'height': 411, 'widthPercent': 0.45, 'rescaleHeight': False, 'trialN': 31, 'loaded': True, 'loadedTime': 3775.600000023842, 'positionName': 'LEFT', 'positionCoords': [245.64, 250.5], 'bid': 6.84}, {'imgObject': {}, 'id': 'tacos', 'src': '/static/foodstim60/tacos.jpg', 'key': 'i', 'origWidth': 411, 'origHeight': 411, 'width': 411, 'height': 411, 'widthPercent': 0.45, 'rescaleHeight': False, 'trialN': 31, 'loaded': True, 'loadedTime': 3621.300000011921, 'positionName': 'RIGHT', 'positionCoords': [711.36, 250.5], 'bid': 7.79}]",57247.80000001192,1669840205629,raspberries,tacos,6.84,7.79,0.9500000000000002,tacos,707.3999999761581,708,708.3000000119209,True,i,58468.69999998808,1220.8999999761581,1669840206850,1221,HRV,HRV_0279,2022-11-30 20:34:38
32,"[{'imgObject': {}, 'id': 'steak', 'src': '/static/foodstim60/steak.jpg', 'key': 'u', 'origWidth': 410, 'origHeight': 410, 'width': 410, 'height': 410, 'widthPercent': 0.45, 'rescaleHeight': False, 'trialN': 32, 'loaded': True, 'loadedTime': 3551.600000023842, 'positionName': 'LEFT', 'positionCoords': [246.64, 251], 'bid': 8.23}, {'imgObject': {}, 'id': 'Grapes', 'src': '/static/foodstim60/Grapes.jpg', 'key': 'i', 'origWidth': 411, 'origHeight': 411, 'width': 411, 'height': 411, 'widthPercent': 0.45, 'rescaleHeight': False, 'trialN': 32, 'loaded': True, 'loadedTime': 3777.800000011921, 'positionName': 'RIGHT', 'positionCoords': [711.36, 250.5], 'bid': 9.66}]",58469.89999997616,1669840206851,steak,Grapes,8.23,9.66,1.4299999999999997,Grapes,1054.800000011921,1056,1056.2000000476837,True,i,60031.80000001192,1561.9000000357628,1669840208413,1562,HRV,HRV_0279,2022-11-30 20:34:38
33,"[{'imgObject': {}, 'id': 'bagel and cc', 'src': '/static/foodstim60/bagel and cc.jpg', 'key': 'u', 'origWidth': 410, 'origHeight': 410, 'width': 410, 'height': 410, 'widthPercent': 0.45, 'rescaleHeight': False, 'trialN': 33, 'loaded': True, 'loadedTime': 3779.100000023842, 'positionName': 'LEFT', 'positionCoords': [246.64, 251], 'bid': 5.33}, {'imgObject': {}, 'id': 'salmon', 'src': '/static/foodstim60/salmon.jpg', 'key': 'i', 'origWidth': 410, 'origHeight': 409, 'width': 410, 'height': 409, 'widthPercent': 0.45, 'rescaleHeight': False, 'trialN': 33, 'loaded': True, 'loadedTime': 3787.399999976158, 'positionName': 'RIGHT', 'positionCoords': [711.36, 251.5], 'bid': 1.41}]",60032.89999997616,1669840208414,bagel and cc,salmon,5.33,1.41,-3.92,bagel and cc,1512.1000000238419,1513,1513.0,True,u,62049.19999998808,2016.300000011921,1669840210430,2016,HRV,HRV_0279,2022-11-30 20:34:38
34,"[{'imgObject': {}, 'id': 'corn cob', 'src': '/static/foodstim60/corn cob.jpg', 'key': 'u', 'origWidth': 411, 'origHeight': 411, 'width': 411, 'height': 411, 'widthPercent': 0.45, 'rescaleHeight': False, 'trialN': 34, 'loaded': True, 'loadedTime': 3634.399999976158, 'positionName': 'LEFT', 'positionCoords': [245.64, 250.5], 'bid': 5.92}, {'imgObject': {}, 'id': 'banana', 'src': '/static/foodstim60/banana.jpg', 'key': 'i', 'origWidth': 410, 'origHeight': 410, 'width': 410, 'height': 410, 'widthPercent': 0.45, 'rescaleHeight': False, 'trialN': 34, 'loaded': True, 'loadedTime': 3535.600000023842, 'positionName': 'RIGHT', 'positionCoords': [711.36, 251], 'bid': 5.99}]",62050.39999997616,1669840210431,corn cob,banana,5.92,5.99,0.07000000000000028,banana,1694.7000000476837,1696,1695.2000000476837,True,i,64255.5,2205.100000023842,1669840212637,2206,HRV,HRV_0279,2022-11-30 20:34:38
35,"[{'imgObject': {}, 'id': 'eggsalad', 'src': '/static/foodstim60/eggsalad.jpg', 'key': 'u', 'origWidth': 410, 'origHeight': 409, 'width': 410, 'height': 409, 'widthPercent': 0.45, 'rescaleHeight': False, 'trialN': 35, 'loaded': True, 'loadedTime': 3734.600000023842, 'positionName': 'LEFT', 'positionCoords': [246.64, 251.5], 'bid': 4.3100000000000005}, {'imgObject': {}, 'id': 'sushi w_condiments', 'src': '/static/foodstim60/sushi w_condiments.jpg', 'key': 'i', 'origWidth': 410, 'origHeight': 410, 'width': 410, 'height': 410, 'widthPercent': 0.45, 'rescaleHeight': False, 'trialN': 35, 'loaded': True, 'loadedTime': 3788.899999976158, 'positionName': 'RIGHT', 'positionCoords': [711.36, 251], 'bid': 7.390000000000001}]",64256.19999998808,1669840212637,eggsalad,sushi w_condiments,4.3100000000000005,7.390000000000001,3.08,sushi w_condiments,1368.6000000238419,1369,1369.199999988079,True,i,66133.30000001192,1877.1000000238419,1669840214514,1877,HRV,HRV_0279,2022-11-30 20:34:38
36,"[{'imgObject': {}, 'id': 'lox', 'src': '/static/foodstim60/lox.jpg', 'key': 'u', 'origWidth': 410, 'origHeight': 411, 'width': 410, 'height': 411, 'widthPercent': 0.45, 'rescaleHeight': False, 'trialN': 36, 'loaded': True, 'loadedTime': 3722.600000023842, 'positionName': 'LEFT', 'positionCoords': [246.64, 250.5], 'bid': 4.29}, {'imgObject': {}, 'id': 'apple slices', 'src': '/static/foodstim60/apple slices.jpg', 'key': 'i', 'origWidth': 409, 'origHeight': 410, 'width': 409, 'height': 410, 'widthPercent': 0.45, 'rescaleHeight': False, 'trialN': 36, 'loaded': True, 'loadedTime': 3650, 'positionName': 'RIGHT', 'positionCoords': [711.36, 251], 'bid': 6.0600000000000005}]",66133.69999998808,1669840214515,lox,apple slices,4.29,6.0600000000000005,1.7700000000000005,apple slices,1010.1999999880791,1011,1011.0,True,i,67648.30000001192,1514.6000000238419,1669840216029,1514,HRV,HRV_0279,2022-11-30 20:34:38
37,"[{'imgObject': {}, 'id': 'eggsalad', 'src': '/static/foodstim60/eggsalad.jpg', 'key': 'u', 'origWidth': 410, 'origHeight': 409, 'width': 410, 'height': 409, 'widthPercent': 0.45, 'rescaleHeight': False, 'trialN': 37, 'loaded': True, 'loadedTime': 3732.600000023842, 'positionName': 'LEFT', 'positionCoords': [246.64, 251.5], 'bid': 4.3100000000000005}, {'imgObject': {}, 'id': 'Tribe humus pita', 'src': '/static/foodstim60/Tribe humus pita.jpg', 'key': 'i', 'origWidth': 411, 'origHeight': 411, 'width': 411, 'height': 411, 'widthPercent': 0.45, 'rescaleHeight': False, 'trialN': 37, 'loaded': True, 'loadedTime': 3790.100000023842, 'positionName': 'RIGHT', 'positionCoords': [711.36, 250.5], 'bid': 6.16}]",67649.0,1669840216030,eggsalad,Tribe humus pita,4.3100000000000005,6.16,1.8499999999999996,Tribe humus pita,1605.199999988079,1606,1605.699999988079,True,i,69767.60000002384,2118.600000023842,1669840218149,2119,HRV,HRV_0279,2022-11-30 20:34:38
38,"[{'imgObject': {}, 'id': 'granola w milk', 'src': '/static/foodstim60/granola w milk.jpg', 'key': 'u', 'origWidth': 410, 'origHeight': 410, 'width': 410, 'height': 410, 'widthPercent': 0.45, 'rescaleHeight': False, 'trialN': 38, 'loaded': True, 'loadedTime': 3505.699999988079, 'positionName': 'LEFT', 'positionCoords': [246.64, 251], 'bid': 4.57}, {'imgObject': {}, 'id': 'cherry tomato', 'src': '/static/foodstim60/cherry tomato.jpg', 'key': 'i', 'origWidth': 410, 'origHeight': 410, 'width': 410, 'height': 410, 'widthPercent': 0.45, 'rescaleHeight': False, 'trialN': 38, 'loaded': True, 'loadedTime': 3565.600000023842, 'positionName': 'RIGHT', 'positionCoords': [711.36, 251], 'bid': 6.34}]",69768.89999997616,1669840218150,granola w milk,cherry tomato,4.57,6.34,1.7699999999999996,cherry tomato,876.1000000238419,877,877.0,True,i,71165.80000001192,1396.9000000357628,1669840219547,1397,HRV,HRV_0279,2022-11-30 20:34:38
39,"[{'imgObject': {}, 'id': 'corn cob', 'src': '/static/foodstim60/corn cob.jpg', 'key': 'u', 'origWidth': 411, 'origHeight': 411, 'width': 411, 'height': 411, 'widthPercent': 0.45, 'rescaleHeight': False, 'trialN': 39, 'loaded': True, 'loadedTime': 3634.5, 'positionName': 'LEFT', 'positionCoords': [245.64, 250.5], 'bid': 5.92}, {'imgObject': {}, 'id': 'chicken nuggets2', 'src': '/static/foodstim60/chicken nuggets2.jpg', 'key': 'i', 'origWidth': 410, 'origHeight': 409, 'width': 410, 'height': 409, 'widthPercent': 0.45, 'rescaleHeight': False, 'trialN': 39, 'loaded': True, 'loadedTime': 3740.899999976158, 'positionName': 'RIGHT', 'positionCoords': [711.36, 251.5], 'bid': 6.59}]",71166.30000001192,1669840219547,corn cob,chicken nuggets2,5.92,6.59,0.6699999999999999,corn cob,1108.199999988079,1109,1108.5999999642372,True,u,72798.80000001192,1632.5,1669840221180,1633,HRV,HRV_0279,2022-11-30 20:34:38
40,"[{'imgObject': {}, 'id': 'mac & cheese', 'src': '/static/foodstim60/mac & cheese.jpg', 'key': 'u', 'origWidth': 410, 'origHeight': 410, 'width': 410, 'height': 410, 'widthPercent': 0.45, 'rescaleHeight': False, 'trialN': 40, 'loaded': True, 'loadedTime': 3708.300000011921, 'positionName': 'LEFT', 'positionCoords': [246.64, 251], 'bid': 7.640000000000001}, {'imgObject': {}, 'id': 'froot loops w milk', 'src': '/static/foodstim60/froot loops w milk.jpg', 'key': 'i', 'origWidth': 410, 'origHeight': 410, 'width': 410, 'height': 410, 'widthPercent': 0.45, 'rescaleHeight': False, 'trialN': 40, 'loaded': True, 'loadedTime': 3791.600000023842, 'positionName': 'RIGHT', 'positionCoords': [711.36, 251], 'bid': 6.4}]",72799.10000002384,1669840221180,mac & cheese,froot loops w milk,7.640000000000001,6.4,-1.2400000000000002,mac & cheese,1095.699999988079,1098,1096.3999999761581,True,u,74400.60000002384,1601.5,1669840222783,1603,HRV,HRV_0279,2022-11-30 20:34:38
41,"[{'imgObject': {}, 'id': 'baked potato', 'src': '/static/foodstim60/baked potato.jpg', 'key': 'u', 'origWidth': 409, 'origHeight': 410, 'width': 409, 'height': 410, 'widthPercent': 0.45, 'rescaleHeight': False, 'trialN': 41, 'loaded': True, 'loadedTime': 3671.899999976158, 'positionName': 'LEFT', 'positionCoords': [247.64, 251], 'bid': 5.67}, {'imgObject': {}, 'id': 'froot loops w milk', 'src': '/static/foodstim60/froot loops w milk.jpg', 'key': 'i', 'origWidth': 410, 'origHeight': 410, 'width': 410, 'height': 410, 'widthPercent': 0.45, 'rescaleHeight': False, 'trialN': 41, 'loaded': True, 'loadedTime': 3791.300000011921, 'positionName': 'RIGHT', 'positionCoords': [711.36, 251], 'bid': 6.4}]",74401.30000001192,1669840222784,baked potato,froot loops w milk,5.67,6.4,0.7300000000000004,baked potato,1653.3999999761581,1654,1654.0999999642372,True,u,76565.19999998808,2163.899999976158,1669840224948,2164,HRV,HRV_0279,2022-11-30 20:34:38
42,"[{'imgObject': {}, 'id': 'bagel plain', 'src': '/static/foodstim60/bagel plain.jpg', 'key': 'u', 'origWidth': 410, 'origHeight': 410, 'width': 410, 'height': 410, 'widthPercent': 0.45, 'rescaleHeight': False, 'trialN': 42, 'loaded': True, 'loadedTime': 3681.800000011921, 'positionName': 'LEFT', 'positionCoords': [246.64, 251], 'bid': 5.3}, {'imgObject': {}, 'id': 'burrito', 'src': '/static/foodstim60/burrito.jpg', 'key': 'i', 'origWidth': 410, 'origHeight': 410, 'width': 410, 'height': 410, 'widthPercent': 0.45, 'rescaleHeight': False, 'trialN': 42, 'loaded': True, 'loadedTime': 3797.300000011921, 'positionName': 'RIGHT', 'positionCoords': [711.36, 251], 'bid': 7.7}]",76565.80000001192,1669840224948,bagel plain,burrito,5.3,7.7,2.4000000000000004,burrito,858.5,859,859.0,True,i,77931.5,1365.699999988079,1669840226314,1366,HRV,HRV_0279,2022-11-30 20:34:38
43,"[{'imgObject': {}, 'id': 'turkey sandwich', 'src': '/static/foodstim60/turkey sandwich.jpg', 'key': 'u', 'origWidth': 409, 'origHeight': 409, 'width': 409, 'height': 409, 'widthPercent': 0.45, 'rescaleHeight': False, 'trialN': 43, 'loaded': True, 'loadedTime': 3604.199999988079, 'positionName': 'LEFT', 'positionCoords': [247.64, 251.5], 'bid': 6.22}, {'imgObject': {}, 'id': 'cherry tomato', 'src': '/static/foodstim60/cherry tomato.jpg', 'key': 'i', 'origWidth': 410, 'origHeight': 410, 'width': 410, 'height': 410, 'widthPercent': 0.45, 'rescaleHeight': False, 'trialN': 43, 'loaded': True, 'loadedTime': 3565.600000023842, 'positionName': 'RIGHT', 'positionCoords': [711.36, 251], 'bid': 6.34}]",77931.80000001192,1669840226314,turkey sandwich,cherry tomato,6.22,6.34,0.1200000000000001,turkey sandwich,1513.0999999642372,1514,1514.0,True,u,79962.30000001192,2030.5,1669840228345,2031,HRV,HRV_0279,2022-11-30 20:34:38
44,"[{'imgObject': {}, 'id': 'cherry tomato', 'src': '/static/foodstim60/cherry tomato.jpg', 'key': 'u', 'origWidth': 410, 'origHeight': 410, 'width': 410, 'height': 410, 'widthPercent': 0.45, 'rescaleHeight': False, 'trialN': 44, 'loaded': True, 'loadedTime': 3557.800000011921, 'positionName': 'LEFT', 'positionCoords': [246.64, 251], 'bid': 6.34}, {'imgObject': {}, 'id': 'blueberries', 'src': '/static/foodstim60/blueberries.jpg', 'key': 'i', 'origWidth': 411, 'origHeight': 411, 'width': 411, 'height': 411, 'widthPercent': 0.45, 'rescaleHeight': False, 'trialN': 44, 'loaded': True, 'loadedTime': 3697, 'positionName': 'RIGHT', 'positionCoords': [711.36, 250.5], 'bid': 6.82}]",79962.89999997616,1669840228345,cherry tomato,blueberries,6.34,6.82,0.4800000000000004,blueberries,1072.7000000476837,1074,1073.4000000357628,True,i,81554.69999998808,1591.800000011921,1669840229937,1592,HRV,HRV_0279,2022-11-30 20:34:38
45,"[{'imgObject': {}, 'id': 'luckycharms', 'src': '/static/foodstim60/luckycharms.jpg', 'key': 'u', 'origWidth': 410, 'origHeight': 409, 'width': 410, 'height': 409, 'widthPercent': 0.45, 'rescaleHeight': False, 'trialN': 45, 'loaded': True, 'loadedTime': 3557.600000023842, 'positionName': 'LEFT', 'positionCoords': [246.64, 251.5], 'bid': 8.2}, {'imgObject': {}, 'id': 'turkeysandwich', 'src': '/static/foodstim60/turkeysandwich.jpg', 'key': 'i', 'origWidth': 409, 'origHeight': 409, 'width': 409, 'height': 409, 'widthPercent': 0.45, 'rescaleHeight': False, 'trialN': 45, 'loaded': True, 'loadedTime': 3750.300000011921, 'positionName': 'RIGHT', 'positionCoords': [711.36, 251.5], 'bid': 7.67}]",81555.19999998808,1669840229938,luckycharms,turkeysandwich,8.2,7.67,-0.5299999999999994,luckycharms,1049.800000011921,1050,1050.4000000357628,True,u,83118.39999997616,1563.199999988079,1669840231501,1563,HRV,HRV_0279,2022-11-30 20:34:38
46,"[{'imgObject': {}, 'id': 'olives', 'src': '/static/foodstim60/olives.jpg', 'key': 'u', 'origWidth': 410, 'origHeight': 410, 'width': 410, 'height': 410, 'widthPercent': 0.45, 'rescaleHeight': False, 'trialN': 46, 'loaded': True, 'loadedTime': 3768.5, 'positionName': 'LEFT', 'positionCoords': [246.64, 251], 'bid': 0.19}, {'imgObject': {}, 'id': 'salmon', 'src': '/static/foodstim60/salmon.jpg', 'key': 'i', 'origWidth': 410, 'origHeight': 409, 'width': 410, 'height': 409, 'widthPercent': 0.45, 'rescaleHeight': False, 'trialN': 46, 'loaded': True, 'loadedTime': 3787.600000023842, 'positionName': 'RIGHT', 'positionCoords': [711.36, 251.5], 'bid': 1.41}]",83119.69999998808,1669840231502,olives,salmon,0.19,1.41,1.22,salmon,954.4000000357628,955,955.1000000238419,True,i,84584.89999997616,1465.199999988079,1669840232968,1466,HRV,HRV_0279,2022-11-30 20:34:38
47,"[{'imgObject': {}, 'id': 'omelette', 'src': '/static/foodstim60/omelette.jpg', 'key': 'u', 'origWidth': 410, 'origHeight': 409, 'width': 410, 'height': 409, 'widthPercent': 0.45, 'rescaleHeight': False, 'trialN': 47, 'loaded': True, 'loadedTime': 3573, 'positionName': 'LEFT', 'positionCoords': [246.64, 251.5], 'bid': 3.37}, {'imgObject': {}, 'id': 'corn cob', 'src': '/static/foodstim60/corn cob.jpg', 'key': 'i', 'origWidth': 411, 'origHeight': 411, 'width': 411, 'height': 411, 'widthPercent': 0.45, 'rescaleHeight': False, 'trialN': 47, 'loaded': True, 'loadedTime': 3634.300000011921, 'positionName': 'RIGHT', 'positionCoords': [711.36, 250.5], 'bid': 5.92}]",84586.19999998808,1669840232969,omelette,corn cob,3.37,5.92,2.55,corn cob,1467.800000011921,1468,1468.6000000238419,True,i,86568.39999997616,1982.199999988079,1669840234951,1982,HRV,HRV_0279,2022-11-30 20:34:38
48,"[{'imgObject': {}, 'id': 'cantaloupe', 'src': '/static/foodstim60/cantaloupe.jpg', 'key': 'u', 'origWidth': 409, 'origHeight': 409, 'width': 409, 'height': 409, 'widthPercent': 0.45, 'rescaleHeight': False, 'trialN': 48, 'loaded': True, 'loadedTime': 3762, 'positionName': 'LEFT', 'positionCoords': [247.64, 251.5], 'bid': 0.13}, {'imgObject': {}, 'id': 'popsicles', 'src': '/static/foodstim60/popsicles.jpg', 'key': 'i', 'origWidth': 410, 'origHeight': 410, 'width': 410, 'height': 410, 'widthPercent': 0.45, 'rescaleHeight': False, 'trialN': 48, 'loaded': True, 'loadedTime': 3824.5, 'positionName': 'RIGHT', 'positionCoords': [711.36, 251], 'bid': 2.89}]",86569.60000002384,1669840234952,cantaloupe,popsicles,0.13,2.89,2.7600000000000002,popsicles,945.6999999880791,947,946.5999999642372,True,i,88034.0,1464.3999999761581,1669840236417,1465,HRV,HRV_0279,2022-11-30 20:34:38
49,"[{'imgObject': {}, 'id': 'eggsalad', 'src': '/static/foodstim60/eggsalad.jpg', 'key': 'u', 'origWidth': 410, 'origHeight': 409, 'width': 410, 'height': 409, 'widthPercent': 0.45, 'rescaleHeight': False, 'trialN': 49, 'loaded': True, 'loadedTime': 3734.199999988079, 'positionName': 'LEFT', 'positionCoords': [246.64, 251.5], 'bid': 4.3100000000000005}, {'imgObject': {}, 'id': 'bagel and cc', 'src': '/static/foodstim60/bagel and cc.jpg', 'key': 'i', 'origWidth': 410, 'origHeight': 410, 'width': 410, 'height': 410, 'widthPercent': 0.45, 'rescaleHeight': False, 'trialN': 49, 'loaded': True, 'loadedTime': 3779.5, 'positionName': 'RIGHT', 'positionCoords': [711.36, 251], 'bid': 5.33}]",88034.30000001192,1669840236417,eggsalad,bagel and cc,4.3100000000000005,5.33,1.0199999999999996,eggsalad,1870,1870,1870.3999999761581,True,u,90419.60000002384,2385.300000011921,1669840238802,2385,HRV,HRV_0279,2022-11-30 20:34:38
50,"[{'imgObject': {}, 'id': 'mango', 'src': '/static/foodstim60/mango.jpg', 'key': 'u', 'origWidth': 411, 'origHeight': 411, 'width': 411, 'height': 411, 'widthPercent': 0.45, 'rescaleHeight': False, 'trialN': 50, 'loaded': True, 'loadedTime': 3798, 'positionName': 'LEFT', 'positionCoords': [245.64, 250.5], 'bid': 4.18}, {'imgObject': {}, 'id': 'cocktailshrimp', 'src': '/static/foodstim60/cocktailshrimp.jpg', 'key': 'i', 'origWidth': 410, 'origHeight': 410, 'width': 410, 'height': 410, 'widthPercent': 0.45, 'rescaleHeight': False, 'trialN': 50, 'loaded': True, 'loadedTime': 3801.199999988079, 'positionName': 'RIGHT', 'positionCoords': [711.36, 251], 'bid': 3.87}]",90420.69999998808,1669840238803,mango,cocktailshrimp,4.18,3.87,-0.3099999999999996,cocktailshrimp,1304.300000011921,1305,1304.9000000357628,True,i,92245.39999997616,1824.699999988079,1669840240628,1825,HRV,HRV_0279,2022-11-30 20:34:38
51,"[{'imgObject': {}, 'id': 'turkeysandwich', 'src': '/static/foodstim60/turkeysandwich.jpg', 'key': 'u', 'origWidth': 409, 'origHeight': 409, 'width': 409, 'height': 409, 'widthPercent': 0.45, 'rescaleHeight': False, 'trialN': 51, 'loaded': True, 'loadedTime': 3750.399999976158, 'positionName': 'LEFT', 'positionCoords': [247.64, 251.5], 'bid': 7.67}, {'imgObject': {}, 'id': 'burrito', 'src': '/static/foodstim60/burrito.jpg', 'key': 'i', 'origWidth': 410, 'origHeight': 410, 'width': 410, 'height': 410, 'widthPercent': 0.45, 'rescaleHeight': False, 'trialN': 51, 'loaded': True, 'loadedTime': 3792.899999976158, 'positionName': 'RIGHT', 'positionCoords': [711.36, 251], 'bid': 7.7}]",92245.60000002384,1669840240628,turkeysandwich,burrito,7.67,7.7,0.03000000000000025,burrito,939.2999999523163,940,940.2999999523163,True,i,93698.5,1452.8999999761581,1669840242081,1453,HRV,HRV_0279,2022-11-30 20:34:38
52,"[{'imgObject': {}, 'id': 'roastedpotatoes', 'src': '/static/foodstim60/roastedpotatoes.jpg', 'key': 'u', 'origWidth': 409, 'origHeight': 410, 'width': 409, 'height': 410, 'widthPercent': 0.45, 'rescaleHeight': False, 'trialN': 52, 'loaded': True, 'loadedTime': 3802.899999976158, 'positionName': 'LEFT', 'positionCoords': [247.64, 251], 'bid': 7.88}, {'imgObject': {}, 'id': 'Grapes', 'src': '/static/foodstim60/Grapes.jpg', 'key': 'i', 'origWidth': 411, 'origHeight': 411, 'width': 411, 'height': 411, 'widthPercent': 0.45, 'rescaleHeight': False, 'trialN': 52, 'loaded': True, 'loadedTime': 3776.199999988079, 'positionName': 'RIGHT', 'positionCoords': [711.36, 250.5], 'bid': 9.66}]",93699.69999998808,1669840242082,roastedpotatoes,Grapes,7.88,9.66,1.7800000000000002,Grapes,874.4000000357628,875,874.9000000357628,True,i,95095.0,1395.300000011921,1669840243478,1396,HRV,HRV_0279,2022-11-30 20:34:38
53,"[{'imgObject': {}, 'id': 'blueberries', 'src': '/static/foodstim60/blueberries.jpg', 'key': 'u', 'origWidth': 411, 'origHeight': 411, 'width': 411, 'height': 411, 'widthPercent': 0.45, 'rescaleHeight': False, 'trialN': 53, 'loaded': True, 'loadedTime': 3698.199999988079, 'positionName': 'LEFT', 'positionCoords': [245.64, 250.5], 'bid': 6.82}, {'imgObject': {}, 'id': 'yogurt no spoon', 'src': '/static/foodstim60/yogurt no spoon.jpg', 'key': 'i', 'origWidth': 411, 'origHeight': 410, 'width': 411, 'height': 410, 'widthPercent': 0.45, 'rescaleHeight': False, 'trialN': 53, 'loaded': True, 'loadedTime': 3535.899999976158, 'positionName': 'RIGHT', 'positionCoords': [711.36, 251], 'bid': 6.73}]",95096.10000002384,1669840243479,blueberries,yogurt no spoon,6.82,6.73,-0.08999999999999986,yogurt no spoon,868.1999999880791,870,870.0999999642372,True,i,96475.10000002384,1379.0,1669840244858,1379,HRV,HRV_0279,2022-11-30 20:34:38
54,"[{'imgObject': {}, 'id': 'shreddedwheatwithmilk', 'src': '/static/foodstim60/shreddedwheatwithmilk.jpg', 'key': 'u', 'origWidth': 410, 'origHeight': 410, 'width': 410, 'height': 410, 'widthPercent': 0.45, 'rescaleHeight': False, 'trialN': 54, 'loaded': True, 'loadedTime': 3672.199999988079, 'positionName': 'LEFT', 'positionCoords': [246.64, 251], 'bid': 5.73}, {'imgObject': {}, 'id': 'raisin bran w milk', 'src': '/static/foodstim60/raisin bran w milk.jpg', 'key': 'i', 'origWidth': 411, 'origHeight': 411, 'width': 411, 'height': 411, 'widthPercent': 0.45, 'rescaleHeight': False, 'trialN': 54, 'loaded': True, 'loadedTime': 3804.199999988079, 'positionName': 'RIGHT', 'positionCoords': [711.36, 250.5], 'bid': 4.63}]",96476.19999998808,1669840244859,shreddedwheatwithmilk,raisin bran w milk,5.73,4.63,-1.1000000000000005,raisin bran w milk,1269.199999988079,1270,1270.0,True,i,98254.80000001192,1778.6000000238419,1669840246637,1778,HRV,HRV_0279,2022-11-30 20:34:38
55,"[{'imgObject': {}, 'id': 'raspberries', 'src': '/static/foodstim60/raspberries.jpg', 'key': 'u', 'origWidth': 411, 'origHeight': 411, 'width': 411, 'height': 411, 'widthPercent': 0.45, 'rescaleHeight': False, 'trialN': 55, 'loaded': True, 'loadedTime': 3775.800000011921, 'positionName': 'LEFT', 'positionCoords': [245.64, 250.5], 'bid': 6.84}, {'imgObject': {}, 'id': 'sushi w_condiments', 'src': '/static/foodstim60/sushi w_condiments.jpg', 'key': 'i', 'origWidth': 410, 'origHeight': 410, 'width': 410, 'height': 410, 'widthPercent': 0.45, 'rescaleHeight': False, 'trialN': 55, 'loaded': True, 'loadedTime': 3787.699999988079, 'positionName': 'RIGHT', 'positionCoords': [711.36, 251], 'bid': 7.390000000000001}]",98255.30000001192,1669840246638,raspberries,sushi w_condiments,6.84,7.390000000000001,0.5500000000000007,sushi w_condiments,1189.3999999761581,1190,1189.8999999761581,True,i,99957.69999998808,1702.3999999761581,1669840248340,1702,HRV,HRV_0279,2022-11-30 20:34:38
56,"[{'imgObject': {}, 'id': 'Grapes', 'src': '/static/foodstim60/Grapes.jpg', 'key': 'u', 'origWidth': 411, 'origHeight': 411, 'width': 411, 'height': 411, 'widthPercent': 0.45, 'rescaleHeight': False, 'trialN': 56, 'loaded': True, 'loadedTime': 3777.800000011921, 'positionName': 'LEFT', 'positionCoords': [245.64, 250.5], 'bid': 9.66}, {'imgObject': {}, 'id': 'orange slices', 'src': '/static/foodstim60/orange slices.jpg', 'key': 'i', 'origWidth': 409, 'origHeight': 410, 'width': 409, 'height': 410, 'widthPercent': 0.45, 'rescaleHeight': False, 'trialN': 56, 'loaded': True, 'loadedTime': 3491.399999976158, 'positionName': 'RIGHT', 'positionCoords': [711.36, 251], 'bid': 7.61}]",99958.80000001192,1669840248341,Grapes,orange slices,9.66,7.61,-2.05,Grapes,905.1999999880791,906,905.6999999880791,True,u,101379.39999997616,1420.5999999642372,1669840249762,1421,HRV,HRV_0279,2022-11-30 20:34:38
57,"[{'imgObject': {}, 'id': 'sweetpotato', 'src': '/static/foodstim60/sweetpotato.jpg', 'key': 'u', 'origWidth': 410, 'origHeight': 410, 'width': 410, 'height': 410, 'widthPercent': 0.45, 'rescaleHeight': False, 'trialN': 57, 'loaded': True, 'loadedTime': 3769, 'positionName': 'LEFT', 'positionCoords': [246.64, 251], 'bid': 7.04}, {'imgObject': {}, 'id': 'chickenfingers', 'src': '/static/foodstim60/chickenfingers.jpg', 'key': 'i', 'origWidth': 410, 'origHeight': 410, 'width': 410, 'height': 410, 'widthPercent': 0.45, 'rescaleHeight': False, 'trialN': 57, 'loaded': True, 'loadedTime': 3807, 'positionName': 'RIGHT', 'positionCoords': [711.36, 251], 'bid': 7.41}]",101379.69999998808,1669840249762,sweetpotato,chickenfingers,7.04,7.41,0.3700000000000001,chickenfingers,1204.5,1206,1205.6000000238419,True,i,103103.89999997616,1724.199999988079,1669840251486,1724,HRV,HRV_0279,2022-11-30 20:34:38
58,"[{'imgObject': {}, 'id': 'rigatoni', 'src': '/static/foodstim60/rigatoni.jpg', 'key': 'u', 'origWidth': 411, 'origHeight': 411, 'width': 411, 'height': 411, 'widthPercent': 0.45, 'rescaleHeight': False, 'trialN': 58, 'loaded': True, 'loadedTime': 3815, 'positionName': 'LEFT', 'positionCoords': [245.64, 250.5], 'bid': 6.03}, {'imgObject': {}, 'id': 'apple slices', 'src': '/static/foodstim60/apple slices.jpg', 'key': 'i', 'origWidth': 409, 'origHeight': 410, 'width': 409, 'height': 410, 'widthPercent': 0.45, 'rescaleHeight': False, 'trialN': 58, 'loaded': True, 'loadedTime': 3655.800000011921, 'positionName': 'RIGHT', 'positionCoords': [711.36, 251], 'bid': 6.0600000000000005}]",103104.30000001192,1669840251487,rigatoni,apple slices,6.03,6.0600000000000005,0.03000000000000025,apple slices,980,981,980.8999999761581,True,i,104603.0,1498.699999988079,1669840252986,1499,HRV,HRV_0279,2022-11-30 20:34:38
59,"[{'imgObject': {}, 'id': 'pear', 'src': '/static/foodstim60/pear.jpg', 'key': 'u', 'origWidth': 411, 'origHeight': 410, 'width': 411, 'height': 410, 'widthPercent': 0.45, 'rescaleHeight': False, 'trialN': 59, 'loaded': True, 'loadedTime': 3700.899999976158, 'positionName': 'LEFT', 'positionCoords': [245.64, 251], 'bid': 7.32}, {'imgObject': {}, 'id': 'mashed potato', 'src': '/static/foodstim60/mashed potato.jpg', 'key': 'i', 'origWidth': 409, 'origHeight': 409, 'width': 409, 'height': 409, 'widthPercent': 0.45, 'rescaleHeight': False, 'trialN': 59, 'loaded': True, 'loadedTime': 3816.5, 'positionName': 'RIGHT', 'positionCoords': [711.36, 251.5], 'bid': 7.35}]",104604.19999998808,1669840252987,pear,mashed potato,7.32,7.35,0.02999999999999936,pear,1279.800000011921,1280,1280.199999988079,True,u,106399.0,1794.800000011921,1669840254782,1795,HRV,HRV_0279,2022-11-30 20:34:38
60,"[{'imgObject': {}, 'id': 'mango', 'src': '/static/foodstim60/mango.jpg', 'key': 'u', 'origWidth': 411, 'origHeight': 411, 'width': 411, 'height': 411, 'widthPercent': 0.45, 'rescaleHeight': False, 'trialN': 60, 'loaded': True, 'loadedTime': 3799.600000023842, 'positionName': 'LEFT', 'positionCoords': [245.64, 250.5], 'bid': 4.18}, {'imgObject': {}, 'id': 'fried eggs', 'src': '/static/foodstim60/fried eggs.jpg', 'key': 'i', 'origWidth': 410, 'origHeight': 410, 'width': 410, 'height': 410, 'widthPercent': 0.45, 'rescaleHeight': False, 'trialN': 60, 'loaded': True, 'loadedTime': 3818.600000023842, 'positionName': 'RIGHT', 'positionCoords': [711.36, 251], 'bid': 1.66}]",106399.80000001192,1669840254782,mango,fried eggs,4.18,1.66,-2.5199999999999996,fried eggs,1424.300000011921,1425,1424.800000011921,True,i,108342.69999998808,1942.8999999761581,1669840256725,1943,HRV,HRV_0279,2022-11-30 20:34:38
61,"[{'imgObject': {}, 'id': 'seaweed', 'src': '/static/foodstim60/seaweed.jpg', 'key': 'u', 'origWidth': 410, 'origHeight': 410, 'width': 410, 'height': 410, 'widthPercent': 0.45, 'rescaleHeight': False, 'trialN': 61, 'loaded': True, 'loadedTime': 3594.600000023842, 'positionName': 'LEFT', 'positionCoords': [246.64, 251], 'bid': 2.22}, {'imgObject': {}, 'id': 'baked potato', 'src': '/static/foodstim60/baked potato.jpg', 'key': 'i', 'origWidth': 409, 'origHeight': 410, 'width': 409, 'height': 410, 'widthPercent': 0.45, 'rescaleHeight': False, 'trialN': 61, 'loaded': True, 'loadedTime': 3672.100000023842, 'positionName': 'RIGHT', 'positionCoords': [711.36, 251], 'bid': 5.67}]",108343.30000001192,1669840256726,seaweed,baked potato,2.22,5.67,3.4499999999999997,baked potato,1061.5999999642372,1062,1062.5,True,i,109919.69999998808,1576.3999999761581,1669840258302,1576,HRV,HRV_0279,2022-11-30 20:34:38
62,"[{'imgObject': {}, 'id': 'cantaloupe', 'src': '/static/foodstim60/cantaloupe.jpg', 'key': 'u', 'origWidth': 409, 'origHeight': 409, 'width': 409, 'height': 409, 'widthPercent': 0.45, 'rescaleHeight': False, 'trialN': 62, 'loaded': True, 'loadedTime': 3760.199999988079, 'positionName': 'LEFT', 'positionCoords': [247.64, 251.5], 'bid': 0.13}, {'imgObject': {}, 'id': 'hotdog w must', 'src': '/static/foodstim60/hotdog w must.jpg', 'key': 'i', 'origWidth': 409, 'origHeight': 409, 'width': 409, 'height': 409, 'widthPercent': 0.45, 'rescaleHeight': False, 'trialN': 62, 'loaded': True, 'loadedTime': 3684.899999976158, 'positionName': 'RIGHT', 'positionCoords': [711.36, 251.5], 'bid': 1.08}]",109919.80000001192,1669840258302,cantaloupe,hotdog w must,0.13,1.08,0.9500000000000001,hotdog w must,1145.0999999642372,1146,1145.8999999761581,True,i,111573.89999997616,1654.0999999642372,1669840259956,1654,HRV,HRV_0279,2022-11-30 20:34:38
63,"[{'imgObject': {}, 'id': 'cherry tomato', 'src': '/static/foodstim60/cherry tomato.jpg', 'key': 'u', 'origWidth': 410, 'origHeight': 410, 'width': 410, 'height': 410, 'widthPercent': 0.45, 'rescaleHeight': False, 'trialN': 63, 'loaded': True, 'loadedTime': 3565, 'positionName': 'LEFT', 'positionCoords': [246.64, 251], 'bid': 6.34}, {'imgObject': {}, 'id': 'Grapes', 'src': '/static/foodstim60/Grapes.jpg', 'key': 'i', 'origWidth': 411, 'origHeight': 411, 'width': 411, 'height': 411, 'widthPercent': 0.45, 'rescaleHeight': False, 'trialN': 63, 'loaded': True, 'loadedTime': 3777.5, 'positionName': 'RIGHT', 'positionCoords': [711.36, 250.5], 'bid': 9.66}]",111574.5,1669840259957,cherry tomato,Grapes,6.34,9.66,3.3200000000000003,Grapes,929.3000000119209,930,930.1999999880791,True,i,113012.5,1438.0,1669840261395,1438,HRV,HRV_0279,2022-11-30 20:34:38
64,"[{'imgObject': {}, 'id': 'fried eggs', 'src': '/static/foodstim60/fried eggs.jpg', 'key': 'u', 'origWidth': 410, 'origHeight': 410, 'width': 410, 'height': 410, 'widthPercent': 0.45, 'rescaleHeight': False, 'trialN': 64, 'loaded': True, 'loadedTime': 3818.899999976158, 'positionName': 'LEFT', 'positionCoords': [246.64, 251], 'bid': 1.66}, {'imgObject': {}, 'id': 'popsicles', 'src': '/static/foodstim60/popsicles.jpg', 'key': 'i', 'origWidth': 410, 'origHeight': 410, 'width': 410, 'height': 410, 'widthPercent': 0.45, 'rescaleHeight': False, 'trialN': 64, 'loaded': True, 'loadedTime': 3824, 'positionName': 'RIGHT', 'positionCoords': [711.36, 251], 'bid': 2.89}]",113013.0,1669840261396,fried eggs,popsicles,1.66,2.89,1.2300000000000002,popsicles,1300.8999999761581,1301,1301.5,True,i,114830.19999998808,1817.199999988079,1669840263213,1817,HRV,HRV_0279,2022-11-30 20:34:38
65,"[{'imgObject': {}, 'id': 'orange slices', 'src': '/static/foodstim60/orange slices.jpg', 'key': 'u', 'origWidth': 409, 'origHeight': 410, 'width': 409, 'height': 410, 'widthPercent': 0.45, 'rescaleHeight': False, 'trialN': 65, 'loaded': True, 'loadedTime': 3369, 'positionName': 'LEFT', 'positionCoords': [247.64, 251], 'bid': 7.61}, {'imgObject': {}, 'id': 'kiwi', 'src': '/static/foodstim60/kiwi.jpg', 'key': 'i', 'origWidth': 410, 'origHeight': 410, 'width': 410, 'height': 410, 'widthPercent': 0.45, 'rescaleHeight': False, 'trialN': 65, 'loaded': True, 'loadedTime': 3663.300000011921, 'positionName': 'RIGHT', 'positionCoords': [711.36, 251], 'bid': 7.13}]",114830.5,1669840263213,orange slices,kiwi,7.61,7.13,-0.4800000000000004,orange slices,934.5,935,935.3000000119209,True,u,116278.39999997616,1447.8999999761581,1669840264661,1448,HRV,HRV_0279,2022-11-30 20:34:38
66,"[{'imgObject': {}, 'id': 'burrito', 'src': '/static/foodstim60/burrito.jpg', 'key': 'u', 'origWidth': 410, 'origHeight': 410, 'width': 410, 'height': 410, 'widthPercent': 0.45, 'rescaleHeight': False, 'trialN': 66, 'loaded': True, 'loadedTime': 3793.300000011921, 'positionName': 'LEFT', 'positionCoords': [246.64, 251], 'bid': 7.7}, {'imgObject': {}, 'id': 'mashed potato', 'src': '/static/foodstim60/mashed potato.jpg', 'key': 'i', 'origWidth': 409, 'origHeight': 409, 'width': 409, 'height': 409, 'widthPercent': 0.45, 'rescaleHeight': False, 'trialN': 66, 'loaded': True, 'loadedTime': 3816.699999988079, 'positionName': 'RIGHT', 'positionCoords': [711.36, 251.5], 'bid': 7.35}]",116278.89999997616,1669840264662,burrito,mashed potato,7.7,7.35,-0.35000000000000053,burrito,845.3000000119209,846,846.2000000476837,True,u,117634.80000001192,1355.9000000357628,1669840266017,1355,HRV,HRV_0279,2022-11-30 20:34:38
67,"[{'imgObject': {}, 'id': 'salmon', 'src': '/static/foodstim60/salmon.jpg', 'key': 'u', 'origWidth': 410, 'origHeight': 409, 'width': 410, 'height': 409, 'widthPercent': 0.45, 'rescaleHeight': False, 'trialN': 67, 'loaded': True, 'loadedTime': 3787.699999988079, 'positionName': 'LEFT', 'positionCoords': [246.64, 251.5], 'bid': 1.41}, {'imgObject': {}, 'id': 'yogurt no spoon', 'src': '/static/foodstim60/yogurt no spoon.jpg', 'key': 'i', 'origWidth': 411, 'origHeight': 410, 'width': 411, 'height': 410, 'widthPercent': 0.45, 'rescaleHeight': False, 'trialN': 67, 'loaded': True, 'loadedTime': 3537.199999988079, 'positionName': 'RIGHT', 'positionCoords': [711.36, 251], 'bid': 6.73}]",117636.19999998808,1669840266019,salmon,yogurt no spoon,1.41,6.73,5.32,yogurt no spoon,988,988,988.6000000238419,True,i,119127.0,1490.800000011921,1669840267510,1491,HRV,HRV_0279,2022-11-30 20:34:38
68,"[{'imgObject': {}, 'id': 'sweetpotato', 'src': '/static/foodstim60/sweetpotato.jpg', 'key': 'u', 'origWidth': 410, 'origHeight': 410, 'width': 410, 'height': 410, 'widthPercent': 0.45, 'rescaleHeight': False, 'trialN': 68, 'loaded': True, 'loadedTime': 3770, 'positionName': 'LEFT', 'positionCoords': [246.64, 251], 'bid': 7.04}, {'imgObject': {}, 'id': 'raspberries', 'src': '/static/foodstim60/raspberries.jpg', 'key': 'i', 'origWidth': 411, 'origHeight': 411, 'width': 411, 'height': 411, 'widthPercent': 0.45, 'rescaleHeight': False, 'trialN': 68, 'loaded': True, 'loadedTime': 3775.5, 'positionName': 'RIGHT', 'positionCoords': [711.36, 250.5], 'bid': 6.84}]",119128.19999998808,1669840267511,sweetpotato,raspberries,7.04,6.84,-0.20000000000000018,raspberries,876,876,876.6000000238419,True,i,120525.69999998808,1397.5,1669840268908,1397,HRV,HRV_0279,2022-11-30 20:34:38
69,"[{'imgObject': {}, 'id': 'ice cream sundae 002', 'src': '/static/foodstim60/ice cream sundae 002.jpg', 'key': 'u', 'origWidth': 409, 'origHeight': 409, 'width': 409, 'height': 409, 'widthPercent': 0.45, 'rescaleHeight': False, 'trialN': 69, 'loaded': True, 'loadedTime': 3752.199999988079, 'positionName': 'LEFT', 'positionCoords': [247.64, 251.5], 'bid': 9.54}, {'imgObject': {}, 'id': 'Grapes', 'src': '/static/foodstim60/Grapes.jpg', 'key': 'i', 'origWidth': 411, 'origHeight': 411, 'width': 411, 'height': 411, 'widthPercent': 0.45, 'rescaleHeight': False, 'trialN': 69, 'loaded': True, 'loadedTime': 3777.899999976158, 'positionName': 'RIGHT', 'positionCoords': [711.36, 250.5], 'bid': 9.66}]",120526.89999997616,1669840268909,ice cream sundae 002,Grapes,9.54,9.66,0.120000000000001,Grapes,937.8000000119209,940,939.8000000119209,True,i,121975.5,1448.6000000238419,1669840270358,1449,HRV,HRV_0279,2022-11-30 20:34:38
70,"[{'imgObject': {}, 'id': 'orange slices', 'src': '/static/foodstim60/orange slices.jpg', 'key': 'u', 'origWidth': 409, 'origHeight': 410, 'width': 409, 'height': 410, 'widthPercent': 0.45, 'rescaleHeight': False, 'trialN': 70, 'loaded': True, 'loadedTime': 3491, 'positionName': 'LEFT', 'positionCoords': [247.64, 251], 'bid': 7.61}, {'imgObject': {}, 'id': 'turkeysandwich', 'src': '/static/foodstim60/turkeysandwich.jpg', 'key': 'i', 'origWidth': 409, 'origHeight': 409, 'width': 409, 'height': 409, 'widthPercent': 0.45, 'rescaleHeight': False, 'trialN': 70, 'loaded': True, 'loadedTime': 3750.100000023842, 'positionName': 'RIGHT', 'positionCoords': [711.36, 251.5], 'bid': 7.67}]",121975.69999998808,1669840270358,orange slices,turkeysandwich,7.61,7.67,0.05999999999999961,orange slices,1319.199999988079,1320,1320.0,True,u,123807.0,1831.300000011921,1669840272190,1832,HRV,HRV_0279,2022-11-30 20:34:38
71,"[{'imgObject': {}, 'id': 'granola w milk', 'src': '/static/foodstim60/granola w milk.jpg', 'key': 'u', 'origWidth': 410, 'origHeight': 410, 'width': 410, 'height': 410, 'widthPercent': 0.45, 'rescaleHeight': False, 'trialN': 71, 'loaded': True, 'loadedTime': 3505.800000011921, 'positionName': 'LEFT', 'positionCoords': [246.64, 251], 'bid': 4.57}, {'imgObject': {}, 'id': 'fried eggs', 'src': '/static/foodstim60/fried eggs.jpg', 'key': 'i', 'origWidth': 410, 'origHeight': 410, 'width': 410, 'height': 410, 'widthPercent': 0.45, 'rescaleHeight': False, 'trialN': 71, 'loaded': True, 'loadedTime': 3816.800000011921, 'positionName': 'RIGHT', 'positionCoords': [711.36, 251], 'bid': 1.66}]",123807.5,1669840272190,granola w milk,fried eggs,4.57,1.66,-2.91,granola w milk,886.8000000119209,888,887.6999999880791,True,u,125207.30000001192,1399.800000011921,1669840273590,1400,HRV,HRV_0279,2022-11-30 20:34:38
72,"[{'imgObject': {}, 'id': 'blackbeanswithrice', 'src': '/static/foodstim60/blackbeanswithrice.jpg', 'key': 'u', 'origWidth': 410, 'origHeight': 410, 'width': 410, 'height': 410, 'widthPercent': 0.45, 'rescaleHeight': False, 'trialN': 72, 'loaded': True, 'loadedTime': 3820.300000011921, 'positionName': 'LEFT', 'positionCoords': [246.64, 251], 'bid': 7.85}, {'imgObject': {}, 'id': 'roastedpotatoes', 'src': '/static/foodstim60/roastedpotatoes.jpg', 'key': 'i', 'origWidth': 409, 'origHeight': 410, 'width': 409, 'height': 410, 'widthPercent': 0.45, 'rescaleHeight': False, 'trialN': 72, 'loaded': True, 'loadedTime': 3802.899999976158, 'positionName': 'RIGHT', 'positionCoords': [711.36, 251], 'bid': 7.88}]",125207.89999997616,1669840273590,blackbeanswithrice,roastedpotatoes,7.85,7.88,0.03000000000000025,blackbeanswithrice,1066,1067,1066.4000000357628,True,u,126782.39999997616,1574.5,1669840275165,1575,HRV,HRV_0279,2022-11-30 20:34:38
73,"[{'imgObject': {}, 'id': 'grilled chicken strips', 'src': '/static/foodstim60/grilled chicken strips.jpg', 'key': 'u', 'origWidth': 410, 'origHeight': 411, 'width': 410, 'height': 411, 'widthPercent': 0.45, 'rescaleHeight': False, 'trialN': 73, 'loaded': True, 'loadedTime': 3649.699999988079, 'positionName': 'LEFT', 'positionCoords': [246.64, 250.5], 'bid': 7.96}, {'imgObject': {}, 'id': 'burger', 'src': '/static/foodstim60/burger.jpg', 'key': 'i', 'origWidth': 409, 'origHeight': 409, 'width': 409, 'height': 409, 'widthPercent': 0.45, 'rescaleHeight': False, 'trialN': 73, 'loaded': True, 'loadedTime': 3713.100000023842, 'positionName': 'RIGHT', 'positionCoords': [711.36, 251.5], 'bid': 7.16}]",126782.80000001192,1669840275165,grilled chicken strips,burger,7.96,7.16,-0.7999999999999998,burger,1541,1542,1541.300000011921,True,i,128838.5,2055.699999988079,1669840277221,2056,HRV,HRV_0279,2022-11-30 20:34:38
74,"[{'imgObject': {}, 'id': 'rigatoni', 'src': '/static/foodstim60/rigatoni.jpg', 'key': 'u', 'origWidth': 411, 'origHeight': 411, 'width': 411, 'height': 411, 'widthPercent': 0.45, 'rescaleHeight': False, 'trialN': 74, 'loaded': True, 'loadedTime': 3813.199999988079, 'positionName': 'LEFT', 'positionCoords': [245.64, 250.5], 'bid': 6.03}, {'imgObject': {}, 'id': 'rigatoni and sauce', 'src': '/static/foodstim60/rigatoni and sauce.jpg', 'key': 'i', 'origWidth': 410, 'origHeight': 411, 'width': 410, 'height': 411, 'widthPercent': 0.45, 'rescaleHeight': False, 'trialN': 74, 'loaded': True, 'loadedTime': 3744.5, 'positionName': 'RIGHT', 'positionCoords': [711.36, 250.5], 'bid': 6.03}]",128839.69999998808,1669840277222,rigatoni,rigatoni and sauce,6.03,6.03,0.0,rigatoni and sauce,1055.4000000357628,1057,1056.300000011921,True,i,130413.69999998808,1574.0,1669840278796,1574,HRV,HRV_0279,2022-11-30 20:34:38
75,"[{'imgObject': {}, 'id': 'cantaloupe', 'src': '/static/foodstim60/cantaloupe.jpg', 'key': 'u', 'origWidth': 409, 'origHeight': 409, 'width': 409, 'height': 409, 'widthPercent': 0.45, 'rescaleHeight': False, 'trialN': 75, 'loaded': True, 'loadedTime': 3761.5, 'positionName': 'LEFT', 'positionCoords': [247.64, 251.5], 'bid': 0.13}, {'imgObject': {}, 'id': 'raisin bran w milk', 'src': '/static/foodstim60/raisin bran w milk.jpg', 'key': 'i', 'origWidth': 411, 'origHeight': 411, 'width': 411, 'height': 411, 'widthPercent': 0.45, 'rescaleHeight': False, 'trialN': 75, 'loaded': True, 'loadedTime': 3804.300000011921, 'positionName': 'RIGHT', 'positionCoords': [711.36, 250.5], 'bid': 4.63}]",130414.0,1669840278797,cantaloupe,raisin bran w milk,0.13,4.63,4.5,raisin bran w milk,1080.699999988079,1081,1081.5,True,i,132010.10000002384,1596.1000000238419,1669840280393,1596,HRV,HRV_0279,2022-11-30 20:34:38
76,"[{'imgObject': {}, 'id': 'apple slices', 'src': '/static/foodstim60/apple slices.jpg', 'key': 'u', 'origWidth': 409, 'origHeight': 410, 'width': 409, 'height': 410, 'widthPercent': 0.45, 'rescaleHeight': False, 'trialN': 76, 'loaded': True, 'loadedTime': 3656.199999988079, 'positionName': 'LEFT', 'positionCoords': [247.64, 251], 'bid': 6.0600000000000005}, {'imgObject': {}, 'id': 'raspberries', 'src': '/static/foodstim60/raspberries.jpg', 'key': 'i', 'origWidth': 411, 'origHeight': 411, 'width': 411, 'height': 411, 'widthPercent': 0.45, 'rescaleHeight': False, 'trialN': 76, 'loaded': True, 'loadedTime': 3774.100000023842, 'positionName': 'RIGHT', 'positionCoords': [711.36, 250.5], 'bid': 6.84}]",132010.5,1669840280393,apple slices,raspberries,6.0600000000000005,6.84,0.7799999999999994,apple slices,1344.300000011921,1345,1344.8999999761581,True,u,133877.5,1867.0,1669840282260,1867,HRV,HRV_0279,2022-11-30 20:34:38
77,"[{'imgObject': {}, 'id': 'mashed potato', 'src': '/static/foodstim60/mashed potato.jpg', 'key': 'u', 'origWidth': 409, 'origHeight': 409, 'width': 409, 'height': 409, 'widthPercent': 0.45, 'rescaleHeight': False, 'trialN': 77, 'loaded': True, 'loadedTime': 3816.800000011921, 'positionName': 'LEFT', 'positionCoords': [247.64, 251.5], 'bid': 7.35}, {'imgObject': {}, 'id': 'tacos', 'src': '/static/foodstim60/tacos.jpg', 'key': 'i', 'origWidth': 411, 'origHeight': 411, 'width': 411, 'height': 411, 'widthPercent': 0.45, 'rescaleHeight': False, 'trialN': 77, 'loaded': True, 'loadedTime': 3624.800000011921, 'positionName': 'RIGHT', 'positionCoords': [711.36, 250.5], 'bid': 7.79}]",133878.0,1669840282261,mashed potato,tacos,7.35,7.79,0.4400000000000004,tacos,805.8999999761581,793,806.3999999761581,True,i,135194.69999998808,1316.699999988079,1669840283564,1303,HRV,HRV_0279,2022-11-30 20:34:38
78,"[{'imgObject': {}, 'id': 'blackbeanswithrice', 'src': '/static/foodstim60/blackbeanswithrice.jpg', 'key': 'u', 'origWidth': 410, 'origHeight': 410, 'width': 410, 'height': 410, 'widthPercent': 0.45, 'rescaleHeight': False, 'trialN': 78, 'loaded': True, 'loadedTime': 3820.399999976158, 'positionName': 'LEFT', 'positionCoords': [246.64, 251], 'bid': 7.85}, {'imgObject': {}, 'id': 'ice cream sundae 002', 'src': '/static/foodstim60/ice cream sundae 002.jpg', 'key': 'i', 'origWidth': 409, 'origHeight': 409, 'width': 409, 'height': 409, 'widthPercent': 0.45, 'rescaleHeight': False, 'trialN': 78, 'loaded': True, 'loadedTime': 3753.5, 'positionName': 'RIGHT', 'positionCoords': [711.36, 251.5], 'bid': 9.54}]",135195.10000002384,1669840283564,blackbeanswithrice,ice cream sundae 002,7.85,9.54,1.6899999999999995,blackbeanswithrice,1090.0999999642372,1091,1090.8999999761581,True,u,136806.30000001192,1611.199999988079,1669840285176,1612,HRV,HRV_0279,2022-11-30 20:34:38
79,"[{'imgObject': {}, 'id': 'cherries', 'src': '/static/foodstim60/cherries.jpg', 'key': 'u', 'origWidth': 410, 'origHeight': 411, 'width': 410, 'height': 411, 'widthPercent': 0.45, 'rescaleHeight': False, 'trialN': 79, 'loaded': True, 'loadedTime': 3821.899999976158, 'positionName': 'LEFT', 'positionCoords': [246.64, 250.5], 'bid': 5.55}, {'imgObject': {}, 'id': 'bagel and cc', 'src': '/static/foodstim60/bagel and cc.jpg', 'key': 'i', 'origWidth': 410, 'origHeight': 410, 'width': 410, 'height': 410, 'widthPercent': 0.45, 'rescaleHeight': False, 'trialN': 79, 'loaded': True, 'loadedTime': 3785.699999988079, 'positionName': 'RIGHT', 'positionCoords': [711.36, 251], 'bid': 5.33}]",136806.39999997616,1669840285176,cherries,bagel and cc,5.55,5.33,-0.21999999999999975,bagel and cc,1318,1318,1318.4000000357628,True,i,138637.30000001192,1830.9000000357628,1669840287007,1831,HRV,HRV_0279,2022-11-30 20:34:38
80,"[{'imgObject': {}, 'id': 'avocado', 'src': '/static/foodstim60/avocado.jpg', 'key': 'u', 'origWidth': 409, 'origHeight': 409, 'width': 409, 'height': 409, 'widthPercent': 0.45, 'rescaleHeight': False, 'trialN': 80, 'loaded': True, 'loadedTime': 3691.199999988079, 'positionName': 'LEFT', 'positionCoords': [247.64, 251.5], 'bid': 6.78}, {'imgObject': {}, 'id': 'fried eggs', 'src': '/static/foodstim60/fried eggs.jpg', 'key': 'i', 'origWidth': 410, 'origHeight': 410, 'width': 410, 'height': 410, 'widthPercent': 0.45, 'rescaleHeight': False, 'trialN': 80, 'loaded': True, 'loadedTime': 3818.699999988079, 'positionName': 'RIGHT', 'positionCoords': [711.36, 251], 'bid': 1.66}]",138637.5,1669840287007,avocado,fried eggs,6.78,1.66,-5.12,avocado,737,738,737.8000000119209,True,u,139891.39999997616,1253.8999999761581,1669840288261,1254,HRV,HRV_0279,2022-11-30 20:34:38
81,"[{'imgObject': {}, 'id': 'eggs', 'src': '/static/foodstim60/eggs.jpg', 'key': 'u', 'origWidth': 409, 'origHeight': 409, 'width': 409, 'height': 409, 'widthPercent': 0.45, 'rescaleHeight': False, 'trialN': 81, 'loaded': True, 'loadedTime': 3632, 'positionName': 'LEFT', 'positionCoords': [247.64, 251.5], 'bid': 5.26}, {'imgObject': {}, 'id': 'olives', 'src': '/static/foodstim60/olives.jpg', 'key': 'i', 'origWidth': 410, 'origHeight': 410, 'width': 410, 'height': 410, 'widthPercent': 0.45, 'rescaleHeight': False, 'trialN': 81, 'loaded': True, 'loadedTime': 3768.800000011921, 'positionName': 'RIGHT', 'positionCoords': [711.36, 251], 'bid': 0.19}]",139892.19999998808,1669840288262,eggs,olives,5.26,0.19,-5.069999999999999,eggs,932,932,932.4000000357628,True,u,141340.69999998808,1448.5,1669840289710,1448,HRV,HRV_0279,2022-11-30 20:34:38
82,"[{'imgObject': {}, 'id': 'edamame', 'src': '/static/foodstim60/edamame.jpg', 'key': 'u', 'origWidth': 409, 'origHeight': 410, 'width': 409, 'height': 410, 'widthPercent': 0.45, 'rescaleHeight': False, 'trialN': 82, 'loaded': True, 'loadedTime': 3665.399999976158, 'positionName': 'LEFT', 'positionCoords': [247.64, 251], 'bid': 7.76}, {'imgObject': {}, 'id': 'baked potato', 'src': '/static/foodstim60/baked potato.jpg', 'key': 'i', 'origWidth': 409, 'origHeight': 410, 'width': 409, 'height': 410, 'widthPercent': 0.45, 'rescaleHeight': False, 'trialN': 82, 'loaded': True, 'loadedTime': 3671.600000023842, 'positionName': 'RIGHT', 'positionCoords': [711.36, 251], 'bid': 5.67}]",141341.10000002384,1669840289710,edamame,baked potato,7.76,5.67,-2.09,baked potato,1453.7999999523163,1455,1454.699999988079,True,i,143311.5,1970.3999999761581,1669840291681,1971,HRV,HRV_0279,2022-11-30 20:34:38
83,"[{'imgObject': {}, 'id': 'burrito', 'src': '/static/foodstim60/burrito.jpg', 'key': 'u', 'origWidth': 410, 'origHeight': 410, 'width': 410, 'height': 410, 'widthPercent': 0.45, 'rescaleHeight': False, 'trialN': 83, 'loaded': True, 'loadedTime': 3793.199999988079, 'positionName': 'LEFT', 'positionCoords': [246.64, 251], 'bid': 7.7}, {'imgObject': {}, 'id': 'chicken nuggets2', 'src': '/static/foodstim60/chicken nuggets2.jpg', 'key': 'i', 'origWidth': 410, 'origHeight': 409, 'width': 410, 'height': 409, 'widthPercent': 0.45, 'rescaleHeight': False, 'trialN': 83, 'loaded': True, 'loadedTime': 3739, 'positionName': 'RIGHT', 'positionCoords': [711.36, 251.5], 'bid': 6.59}]",143312.80000001192,1669840291682,burrito,chicken nuggets2,7.7,6.59,-1.1100000000000003,burrito,801.1999999880791,802,802.1999999880791,True,u,144622.69999998808,1309.8999999761581,1669840292992,1310,HRV,HRV_0279,2022-11-30 20:34:38
84,"[{'imgObject': {}, 'id': 'yogurt no spoon', 'src': '/static/foodstim60/yogurt no spoon.jpg', 'key': 'u', 'origWidth': 411, 'origHeight': 410, 'width': 411, 'height': 410, 'widthPercent': 0.45, 'rescaleHeight': False, 'trialN': 84, 'loaded': True, 'loadedTime': 3544.100000023842, 'positionName': 'LEFT', 'positionCoords': [245.64, 251], 'bid': 6.73}, {'imgObject': {}, 'id': 'chicken nuggets2', 'src': '/static/foodstim60/chicken nuggets2.jpg', 'key': 'i', 'origWidth': 410, 'origHeight': 409, 'width': 410, 'height': 409, 'widthPercent': 0.45, 'rescaleHeight': False, 'trialN': 84, 'loaded': True, 'loadedTime': 3740.800000011921, 'positionName': 'RIGHT', 'positionCoords': [711.36, 251.5], 'bid': 6.59}]",144623.30000001192,1669840292993,yogurt no spoon,chicken nuggets2,6.73,6.59,-0.14000000000000057,yogurt no spoon,730.6999999880791,731,731.3000000119209,True,u,145858.89999997616,1235.5999999642372,1669840294228,1235,HRV,HRV_0279,2022-11-30 20:34:38
85,"[{'imgObject': {}, 'id': 'olives', 'src': '/static/foodstim60/olives.jpg', 'key': 'u', 'origWidth': 410, 'origHeight': 410, 'width': 410, 'height': 410, 'widthPercent': 0.45, 'rescaleHeight': False, 'trialN': 85, 'loaded': True, 'loadedTime': 3768.800000011921, 'positionName': 'LEFT', 'positionCoords': [246.64, 251], 'bid': 0.19}, {'imgObject': {}, 'id': 'lox', 'src': '/static/foodstim60/lox.jpg', 'key': 'i', 'origWidth': 410, 'origHeight': 411, 'width': 410, 'height': 411, 'widthPercent': 0.45, 'rescaleHeight': False, 'trialN': 85, 'loaded': True, 'loadedTime': 3716.399999976158, 'positionName': 'RIGHT', 'positionCoords': [711.36, 250.5], 'bid': 4.29}]",145859.10000002384,1669840294228,olives,lox,0.19,4.29,4.1,lox,1434.7999999523163,1437,1436.2999999523163,True,i,147811.60000002384,1952.5,1669840296181,1953,HRV,HRV_0279,2022-11-30 20:34:38
86,"[{'imgObject': {}, 'id': 'bagel plain', 'src': '/static/foodstim60/bagel plain.jpg', 'key': 'u', 'origWidth': 410, 'origHeight': 410, 'width': 410, 'height': 410, 'widthPercent': 0.45, 'rescaleHeight': False, 'trialN': 86, 'loaded': True, 'loadedTime': 3682.600000023842, 'positionName': 'LEFT', 'positionCoords': [246.64, 251], 'bid': 5.3}, {'imgObject': {}, 'id': 'eggs', 'src': '/static/foodstim60/eggs.jpg', 'key': 'i', 'origWidth': 409, 'origHeight': 409, 'width': 409, 'height': 409, 'widthPercent': 0.45, 'rescaleHeight': False, 'trialN': 86, 'loaded': True, 'loadedTime': 3625.5, 'positionName': 'RIGHT', 'positionCoords': [711.36, 251.5], 'bid': 5.26}]",147812.30000001192,1669840296182,bagel plain,eggs,5.3,5.26,-0.040000000000000036,eggs,852.5,853,853.3000000119209,True,i,149171.39999997616,1359.0999999642372,1669840297541,1359,HRV,HRV_0279,2022-11-30 20:34:38
87,"[{'imgObject': {}, 'id': 'seaweed', 'src': '/static/foodstim60/seaweed.jpg', 'key': 'u', 'origWidth': 410, 'origHeight': 410, 'width': 410, 'height': 410, 'widthPercent': 0.45, 'rescaleHeight': False, 'trialN': 87, 'loaded': True, 'loadedTime': 3580.800000011921, 'positionName': 'LEFT', 'positionCoords': [246.64, 251], 'bid': 2.22}, {'imgObject': {}, 'id': 'raisin bran w milk', 'src': '/static/foodstim60/raisin bran w milk.jpg', 'key': 'i', 'origWidth': 411, 'origHeight': 411, 'width': 411, 'height': 411, 'widthPercent': 0.45, 'rescaleHeight': False, 'trialN': 87, 'loaded': True, 'loadedTime': 3804.199999988079, 'positionName': 'RIGHT', 'positionCoords': [711.36, 250.5], 'bid': 4.63}]",149171.69999998808,1669840297541,seaweed,raisin bran w milk,2.22,4.63,2.4099999999999997,raisin bran w milk,823.1000000238419,824,824.1000000238419,True,i,150507.39999997616,1335.699999988079,1669840298877,1336,HRV,HRV_0279,2022-11-30 20:34:38
88,"[{'imgObject': {}, 'id': 'omelette', 'src': '/static/foodstim60/omelette.jpg', 'key': 'u', 'origWidth': 410, 'origHeight': 409, 'width': 410, 'height': 409, 'widthPercent': 0.45, 'rescaleHeight': False, 'trialN': 88, 'loaded': True, 'loadedTime': 3579.399999976158, 'positionName': 'LEFT', 'positionCoords': [246.64, 251.5], 'bid': 3.37}, {'imgObject': {}, 'id': 'bagel plain', 'src': '/static/foodstim60/bagel plain.jpg', 'key': 'i', 'origWidth': 410, 'origHeight': 410, 'width': 410, 'height': 410, 'widthPercent': 0.45, 'rescaleHeight': False, 'trialN': 88, 'loaded': True, 'loadedTime': 3682.699999988079, 'positionName': 'RIGHT', 'positionCoords': [711.36, 251], 'bid': 5.3}]",150507.80000001192,1669840298877,omelette,bagel plain,3.37,5.3,1.9299999999999997,bagel plain,1196.199999988079,1197,1196.5,True,i,152216.5,1708.699999988079,1669840300586,1709,HRV,HRV_0279,2022-11-30 20:34:38
89,"[{'imgObject': {}, 'id': 'raspberries', 'src': '/static/foodstim60/raspberries.jpg', 'key': 'u', 'origWidth': 411, 'origHeight': 411, 'width': 411, 'height': 411, 'widthPercent': 0.45, 'rescaleHeight': False, 'trialN': 89, 'loaded': True, 'loadedTime': 3776, 'positionName': 'LEFT', 'positionCoords': [245.64, 250.5], 'bid': 6.84}, {'imgObject': {}, 'id': 'popsicles', 'src': '/static/foodstim60/popsicles.jpg', 'key': 'i', 'origWidth': 410, 'origHeight': 410, 'width': 410, 'height': 410, 'widthPercent': 0.45, 'rescaleHeight': False, 'trialN': 89, 'loaded': True, 'loadedTime': 3824.399999976158, 'positionName': 'RIGHT', 'positionCoords': [711.36, 251], 'bid': 2.89}]",152217.10000002384,1669840300586,raspberries,popsicles,6.84,2.89,-3.9499999999999997,raspberries,1067.3999999761581,1068,1067.8999999761581,True,u,153801.30000001192,1584.199999988079,1669840302171,1585,HRV,HRV_0279,2022-11-30 20:34:38
90,"[{'imgObject': {}, 'id': 'froot loops w milk', 'src': '/static/foodstim60/froot loops w milk.jpg', 'key': 'u', 'origWidth': 410, 'origHeight': 410, 'width': 410, 'height': 410, 'widthPercent': 0.45, 'rescaleHeight': False, 'trialN': 90, 'loaded': True, 'loadedTime': 3791.600000023842, 'positionName': 'LEFT', 'positionCoords': [246.64, 251], 'bid': 6.4}, {'imgObject': {}, 'id': 'rigatoni', 'src': '/static/foodstim60/rigatoni.jpg', 'key': 'i', 'origWidth': 411, 'origHeight': 411, 'width': 411, 'height': 411, 'widthPercent': 0.45, 'rescaleHeight': False, 'trialN': 90, 'loaded': True, 'loadedTime': 3815, 'positionName': 'RIGHT', 'positionCoords': [711.36, 250.5], 'bid': 6.03}]",166700.30000001192,1669840315070,froot loops w milk,rigatoni,6.4,6.03,-0.3700000000000001,froot loops w milk,1004.5999999642372,1007,1007.1999999880791,True,u,168218.39999997616,1518.0999999642372,1669840316588,1518,HRV,HRV_0279,2022-11-30 20:34:38
91,"[{'imgObject': {}, 'id': 'lox', 'src': '/static/foodstim60/lox.jpg', 'key': 'u', 'origWidth': 410, 'origHeight': 411, 'width': 410, 'height': 411, 'widthPercent': 0.45, 'rescaleHeight': False, 'trialN': 91, 'loaded': True, 'loadedTime': 3722.399999976158, 'positionName': 'LEFT', 'positionCoords': [246.64, 250.5], 'bid': 4.29}, {'imgObject': {}, 'id': 'mashed potato', 'src': '/static/foodstim60/mashed potato.jpg', 'key': 'i', 'origWidth': 409, 'origHeight': 409, 'width': 409, 'height': 409, 'widthPercent': 0.45, 'rescaleHeight': False, 'trialN': 91, 'loaded': True, 'loadedTime': 3815.100000023842, 'positionName': 'RIGHT', 'positionCoords': [711.36, 251.5], 'bid': 7.35}]",168218.80000001192,1669840316588,lox,mashed potato,4.29,7.35,3.0599999999999996,mashed potato,886.0999999642372,887,887.0,True,i,169617.69999998808,1398.8999999761581,1669840317987,1399,HRV,HRV_0279,2022-11-30 20:34:38
92,"[{'imgObject': {}, 'id': 'chicken nuggets2', 'src': '/static/foodstim60/chicken nuggets2.jpg', 'key': 'u', 'origWidth': 410, 'origHeight': 409, 'width': 410, 'height': 409, 'widthPercent': 0.45, 'rescaleHeight': False, 'trialN': 92, 'loaded': True, 'loadedTime': 3740.899999976158, 'positionName': 'LEFT', 'positionCoords': [246.64, 251.5], 'bid': 6.59}, {'imgObject': {}, 'id': 'hotdog w must', 'src': '/static/foodstim60/hotdog w must.jpg', 'key': 'i', 'origWidth': 409, 'origHeight': 409, 'width': 409, 'height': 409, 'widthPercent': 0.45, 'rescaleHeight': False, 'trialN': 92, 'loaded': True, 'loadedTime': 3682.899999976158, 'positionName': 'RIGHT', 'positionCoords': [711.36, 251.5], 'bid': 1.08}]",169618.30000001192,1669840317988,chicken nuggets2,hotdog w must,6.59,1.08,-5.51,chicken nuggets2,1185.800000011921,1186,1186.5,True,u,171325.10000002384,1706.800000011921,1669840319694,1706,HRV,HRV_0279,2022-11-30 20:34:38
93,"[{'imgObject': {}, 'id': 'shreddedwheatwithmilk', 'src': '/static/foodstim60/shreddedwheatwithmilk.jpg', 'key': 'u', 'origWidth': 410, 'origHeight': 410, 'width': 410, 'height': 410, 'widthPercent': 0.45, 'rescaleHeight': False, 'trialN': 93, 'loaded': True, 'loadedTime': 3674.800000011921, 'positionName': 'LEFT', 'positionCoords': [246.64, 251], 'bid': 5.73}, {'imgObject': {}, 'id': 'veggieswithdip', 'src': '/static/foodstim60/veggieswithdip.jpg', 'key': 'i', 'origWidth': 409, 'origHeight': 409, 'width': 409, 'height': 409, 'widthPercent': 0.45, 'rescaleHeight': False, 'trialN': 93, 'loaded': True, 'loadedTime': 3567, 'positionName': 'RIGHT', 'positionCoords': [711.36, 251.5], 'bid': 6.5600000000000005}]",171325.69999998808,1669840319695,shreddedwheatwithmilk,veggieswithdip,5.73,6.5600000000000005,0.8300000000000001,veggieswithdip,1318.4000000357628,1319,1319.0,True,i,173166.30000001192,1840.6000000238419,1669840321536,1841,HRV,HRV_0279,2022-11-30 20:34:38
94,"[{'imgObject': {}, 'id': 'shreddedwheatwithmilk', 'src': '/static/foodstim60/shreddedwheatwithmilk.jpg', 'key': 'u', 'origWidth': 410, 'origHeight': 410, 'width': 410, 'height': 410, 'widthPercent': 0.45, 'rescaleHeight': False, 'trialN': 94, 'loaded': True, 'loadedTime': 3674.300000011921, 'positionName': 'LEFT', 'positionCoords': [246.64, 251], 'bid': 5.73}, {'imgObject': {}, 'id': 'popsicles', 'src': '/static/foodstim60/popsicles.jpg', 'key': 'i', 'origWidth': 410, 'origHeight': 410, 'width': 410, 'height': 410, 'widthPercent': 0.45, 'rescaleHeight': False, 'trialN': 94, 'loaded': True, 'loadedTime': 3824.199999988079, 'positionName': 'RIGHT', 'positionCoords': [711.36, 251], 'bid': 2.89}]",173166.89999997616,1669840321536,shreddedwheatwithmilk,popsicles,5.73,2.89,-2.8400000000000003,shreddedwheatwithmilk,1268,1269,1268.7000000476837,True,u,174947.10000002384,1780.2000000476837,1669840323316,1780,HRV,HRV_0279,2022-11-30 20:34:38
95,"[{'imgObject': {}, 'id': 'veggieswithdip', 'src': '/static/foodstim60/veggieswithdip.jpg', 'key': 'u', 'origWidth': 409, 'origHeight': 409, 'width': 409, 'height': 409, 'widthPercent': 0.45, 'rescaleHeight': False, 'trialN': 95, 'loaded': True, 'loadedTime': 3572.399999976158, 'positionName': 'LEFT', 'positionCoords': [247.64, 251.5], 'bid': 6.5600000000000005}, {'imgObject': {}, 'id': 'turkeysandwich', 'src': '/static/foodstim60/turkeysandwich.jpg', 'key': 'i', 'origWidth': 409, 'origHeight': 409, 'width': 409, 'height': 409, 'widthPercent': 0.45, 'rescaleHeight': False, 'trialN': 95, 'loaded': True, 'loadedTime': 3750.600000023842, 'positionName': 'RIGHT', 'positionCoords': [711.36, 251.5], 'bid': 7.67}]",174947.30000001192,1669840323317,veggieswithdip,turkeysandwich,6.5600000000000005,7.67,1.1099999999999994,veggieswithdip,948.3999999761581,949,949.1999999880791,True,u,176400.69999998808,1453.3999999761581,1669840324770,1453,HRV,HRV_0279,2022-11-30 20:34:38
96,"[{'imgObject': {}, 'id': 'salad w chicken', 'src': '/static/foodstim60/salad w chicken.jpg', 'key': 'u', 'origWidth': 411, 'origHeight': 411, 'width': 411, 'height': 411, 'widthPercent': 0.45, 'rescaleHeight': False, 'trialN': 96, 'loaded': True, 'loadedTime': 3741.100000023842, 'positionName': 'LEFT', 'positionCoords': [245.64, 250.5], 'bid': 8.11}, {'imgObject': {}, 'id': 'mac & cheese', 'src': '/static/foodstim60/mac & cheese.jpg', 'key': 'i', 'origWidth': 410, 'origHeight': 410, 'width': 410, 'height': 410, 'widthPercent': 0.45, 'rescaleHeight': False, 'trialN': 96, 'loaded': True, 'loadedTime': 3712.800000011921, 'positionName': 'RIGHT', 'positionCoords': [711.36, 251], 'bid': 7.640000000000001}]",176400.80000001192,1669840324770,salad w chicken,mac & cheese,8.11,7.640000000000001,-0.46999999999999886,mac & cheese,894,895,894.6999999880791,True,i,177805.0,1404.199999988079,1669840326174,1404,HRV,HRV_0279,2022-11-30 20:34:38
97,"[{'imgObject': {}, 'id': 'hashbrowns', 'src': '/static/foodstim60/hashbrowns.jpg', 'key': 'u', 'origWidth': 411, 'origHeight': 410, 'width': 411, 'height': 410, 'widthPercent': 0.45, 'rescaleHeight': False, 'trialN': 97, 'loaded': True, 'loadedTime': 3598.300000011921, 'positionName': 'LEFT', 'positionCoords': [245.64, 251], 'bid': 4.54}, {'imgObject': {}, 'id': 'raisin bran w milk', 'src': '/static/foodstim60/raisin bran w milk.jpg', 'key': 'i', 'origWidth': 411, 'origHeight': 411, 'width': 411, 'height': 411, 'widthPercent': 0.45, 'rescaleHeight': False, 'trialN': 97, 'loaded': True, 'loadedTime': 3804.100000023842, 'positionName': 'RIGHT', 'positionCoords': [711.36, 250.5], 'bid': 4.63}]",177805.19999998808,1669840326175,hashbrowns,raisin bran w milk,4.54,4.63,0.08999999999999986,raisin bran w milk,1830.5,1831,1831.4000000357628,True,i,180150.19999998808,2345.0,1669840328520,2345,HRV,HRV_0279,2022-11-30 20:34:38
98,"[{'imgObject': {}, 'id': 'Tribe humus pita', 'src': '/static/foodstim60/Tribe humus pita.jpg', 'key': 'u', 'origWidth': 411, 'origHeight': 411, 'width': 411, 'height': 411, 'widthPercent': 0.45, 'rescaleHeight': False, 'trialN': 98, 'loaded': True, 'loadedTime': 3790.5, 'positionName': 'LEFT', 'positionCoords': [245.64, 250.5], 'bid': 6.16}, {'imgObject': {}, 'id': 'apple slices', 'src': '/static/foodstim60/apple slices.jpg', 'key': 'i', 'origWidth': 409, 'origHeight': 410, 'width': 409, 'height': 410, 'widthPercent': 0.45, 'rescaleHeight': False, 'trialN': 98, 'loaded': True, 'loadedTime': 3656.5, 'positionName': 'RIGHT', 'positionCoords': [711.36, 251], 'bid': 6.0600000000000005}]",180150.5,1669840328520,Tribe humus pita,apple slices,6.16,6.0600000000000005,-0.09999999999999964,Tribe humus pita,1594.6000000238419,1595,1595.5,True,u,182258.0,2107.5,1669840330627,2107,HRV,HRV_0279,2022-11-30 20:34:38
99,"[{'imgObject': {}, 'id': 'raisin bran w milk', 'src': '/static/foodstim60/raisin bran w milk.jpg', 'key': 'u', 'origWidth': 411, 'origHeight': 411, 'width': 411, 'height': 411, 'widthPercent': 0.45, 'rescaleHeight': False, 'trialN': 99, 'loaded': True, 'loadedTime': 3804, 'positionName': 'LEFT', 'positionCoords': [245.64, 250.5], 'bid': 4.63}, {'imgObject': {}, 'id': 'granola w milk', 'src': '/static/foodstim60/granola w milk.jpg', 'key': 'i', 'origWidth': 410, 'origHeight': 410, 'width': 410, 'height': 410, 'widthPercent': 0.45, 'rescaleHeight': False, 'trialN': 99, 'loaded': True, 'loadedTime': 3527.699999988079, 'positionName': 'RIGHT', 'positionCoords': [711.36, 251], 'bid': 4.57}]",182258.30000001192,1669840330628,raisin bran w milk,granola w milk,4.63,4.57,-0.05999999999999961,raisin bran w milk,1187.0999999642372,1188,1188.0,True,u,183955.10000002384,1696.800000011921,1669840332324,1696,HRV,HRV_0279,2022-11-30 20:34:38
100,"[{'imgObject': {}, 'id': 'mac & cheese', 'src': '/static/foodstim60/mac & cheese.jpg', 'key': 'u', 'origWidth': 410, 'origHeight': 410, 'width': 410, 'height': 410, 'widthPercent': 0.45, 'rescaleHeight': False, 'trialN': 100, 'loaded': True, 'loadedTime': 3706.300000011921, 'positionName': 'LEFT', 'positionCoords': [246.64, 251], 'bid': 7.640000000000001}, {'imgObject': {}, 'id': 'orange slices', 'src': '/static/foodstim60/orange slices.jpg', 'key': 'i', 'origWidth': 409, 'origHeight': 410, 'width': 409, 'height': 410, 'widthPercent': 0.45, 'rescaleHeight': False, 'trialN': 100, 'loaded': True, 'loadedTime': 3491.5, 'positionName': 'RIGHT', 'positionCoords': [711.36, 251], 'bid': 7.61}]",183955.60000002384,1669840332325,mac & cheese,orange slices,7.640000000000001,7.61,-0.03000000000000025,orange slices,1429.8999999761581,1431,1430.7999999523163,True,i,185899.39999997616,1943.7999999523163,1669840334269,1944,HRV,HRV_0279,2022-11-30 20:34:38
101,"[{'imgObject': {}, 'id': 'cantaloupe', 'src': '/static/foodstim60/cantaloupe.jpg', 'key': 'u', 'origWidth': 409, 'origHeight': 409, 'width': 409, 'height': 409, 'widthPercent': 0.45, 'rescaleHeight': False, 'trialN': 101, 'loaded': True, 'loadedTime': 3762.100000023842, 'positionName': 'LEFT', 'positionCoords': [247.64, 251.5], 'bid': 0.13}, {'imgObject': {}, 'id': 'mango', 'src': '/static/foodstim60/mango.jpg', 'key': 'i', 'origWidth': 411, 'origHeight': 411, 'width': 411, 'height': 411, 'widthPercent': 0.45, 'rescaleHeight': False, 'trialN': 101, 'loaded': True, 'loadedTime': 3799.899999976158, 'positionName': 'RIGHT', 'positionCoords': [711.36, 250.5], 'bid': 4.18}]",185900.0,1669840334269,cantaloupe,mango,0.13,4.18,4.05,mango,1295.199999988079,1296,1295.800000011921,True,i,187709.5,1809.5,1669840336079,1810,HRV,HRV_0279,2022-11-30 20:34:38
102,"[{'imgObject': {}, 'id': 'steak', 'src': '/static/foodstim60/steak.jpg', 'key': 'u', 'origWidth': 410, 'origHeight': 410, 'width': 410, 'height': 410, 'widthPercent': 0.45, 'rescaleHeight': False, 'trialN': 102, 'loaded': True, 'loadedTime': 3544.899999976158, 'positionName': 'LEFT', 'positionCoords': [246.64, 251], 'bid': 8.23}, {'imgObject': {}, 'id': 'tacos', 'src': '/static/foodstim60/tacos.jpg', 'key': 'i', 'origWidth': 411, 'origHeight': 411, 'width': 411, 'height': 411, 'widthPercent': 0.45, 'rescaleHeight': False, 'trialN': 102, 'loaded': True, 'loadedTime': 3621.100000023842, 'positionName': 'RIGHT', 'positionCoords': [711.36, 250.5], 'bid': 7.79}]",187710.10000002384,1669840336079,steak,tacos,8.23,7.79,-0.4400000000000004,tacos,904.3999999761581,905,904.8999999761581,True,i,189120.69999998808,1410.5999999642372,1669840337490,1411,HRV,HRV_0279,2022-11-30 20:34:38
103,"[{'imgObject': {}, 'id': 'cherries', 'src': '/static/foodstim60/cherries.jpg', 'key': 'u', 'origWidth': 410, 'origHeight': 411, 'width': 410, 'height': 411, 'widthPercent': 0.45, 'rescaleHeight': False, 'trialN': 103, 'loaded': True, 'loadedTime': 3822.100000023842, 'positionName': 'LEFT', 'positionCoords': [246.64, 250.5], 'bid': 5.55}, {'imgObject': {}, 'id': 'fried eggs', 'src': '/static/foodstim60/fried eggs.jpg', 'key': 'i', 'origWidth': 410, 'origHeight': 410, 'width': 410, 'height': 410, 'widthPercent': 0.45, 'rescaleHeight': False, 'trialN': 103, 'loaded': True, 'loadedTime': 3818.199999988079, 'positionName': 'RIGHT', 'positionCoords': [711.36, 251], 'bid': 1.66}]",189121.39999997616,1669840337491,cherries,fried eggs,5.55,1.66,-3.8899999999999997,cherries,1403.4000000357628,1404,1404.1000000238419,True,u,191037.5,1916.1000000238419,1669840339407,1916,HRV,HRV_0279,2022-11-30 20:34:38
104,"[{'imgObject': {}, 'id': 'mac & cheese', 'src': '/static/foodstim60/mac & cheese.jpg', 'key': 'u', 'origWidth': 410, 'origHeight': 410, 'width': 410, 'height': 410, 'widthPercent': 0.45, 'rescaleHeight': False, 'trialN': 104, 'loaded': True, 'loadedTime': 3708, 'positionName': 'LEFT', 'positionCoords': [246.64, 251], 'bid': 7.640000000000001}, {'imgObject': {}, 'id': 'burrito', 'src': '/static/foodstim60/burrito.jpg', 'key': 'i', 'origWidth': 410, 'origHeight': 410, 'width': 410, 'height': 410, 'widthPercent': 0.45, 'rescaleHeight': False, 'trialN': 104, 'loaded': True, 'loadedTime': 3793.100000023842, 'positionName': 'RIGHT', 'positionCoords': [711.36, 251], 'bid': 7.7}]",191038.19999998808,1669840339407,mac & cheese,burrito,7.640000000000001,7.7,0.05999999999999961,burrito,677.3000000119209,678,677.9000000357628,True,i,192224.30000001192,1186.1000000238419,1669840340594,1187,HRV,HRV_0279,2022-11-30 20:34:38
105,"[{'imgObject': {}, 'id': 'seaweed', 'src': '/static/foodstim60/seaweed.jpg', 'key': 'u', 'origWidth': 410, 'origHeight': 410, 'width': 410, 'height': 410, 'widthPercent': 0.45, 'rescaleHeight': False, 'trialN': 105, 'loaded': True, 'loadedTime': 3587.5, 'positionName': 'LEFT', 'positionCoords': [246.64, 251], 'bid': 2.22}, {'imgObject': {}, 'id': 'fried eggs', 'src': '/static/foodstim60/fried eggs.jpg', 'key': 'i', 'origWidth': 410, 'origHeight': 410, 'width': 410, 'height': 410, 'widthPercent': 0.45, 'rescaleHeight': False, 'trialN': 105, 'loaded': True, 'loadedTime': 3818.800000011921, 'positionName': 'RIGHT', 'positionCoords': [711.36, 251], 'bid': 1.66}]",192224.69999998808,1669840340594,seaweed,fried eggs,2.22,1.66,-0.5600000000000003,fried eggs,1490.300000011921,1492,1492.0,True,i,194227.5,2002.800000011921,1669840342597,2003,HRV,HRV_0279,2022-11-30 20:34:38
106,"[{'imgObject': {}, 'id': 'sushi w_condiments', 'src': '/static/foodstim60/sushi w_condiments.jpg', 'key': 'u', 'origWidth': 410, 'origHeight': 410, 'width': 410, 'height': 410, 'widthPercent': 0.45, 'rescaleHeight': False, 'trialN': 106, 'loaded': True, 'loadedTime': 3789.199999988079, 'positionName': 'LEFT', 'positionCoords': [246.64, 251], 'bid': 7.390000000000001}, {'imgObject': {}, 'id': 'steak', 'src': '/static/foodstim60/steak.jpg', 'key': 'i', 'origWidth': 410, 'origHeight': 410, 'width': 410, 'height': 410, 'widthPercent': 0.45, 'rescaleHeight': False, 'trialN': 106, 'loaded': True, 'loadedTime': 3551.800000011921, 'positionName': 'RIGHT', 'positionCoords': [711.36, 251], 'bid': 8.23}]",194228.19999998808,1669840342597,sushi w_condiments,steak,7.390000000000001,8.23,0.8399999999999999,steak,1096.800000011921,1098,1098.0,True,i,195844.39999997616,1616.199999988079,1669840344214,1617,HRV,HRV_0279,2022-11-30 20:34:38
107,"[{'imgObject': {}, 'id': 'Tribe humus pita', 'src': '/static/foodstim60/Tribe humus pita.jpg', 'key': 'u', 'origWidth': 411, 'origHeight': 411, 'width': 411, 'height': 411, 'widthPercent': 0.45, 'rescaleHeight': False, 'trialN': 107, 'loaded': True, 'loadedTime': 3790.300000011921, 'positionName': 'LEFT', 'positionCoords': [245.64, 250.5], 'bid': 6.16}, {'imgObject': {}, 'id': 'sweetpotato', 'src': '/static/foodstim60/sweetpotato.jpg', 'key': 'i', 'origWidth': 410, 'origHeight': 410, 'width': 410, 'height': 410, 'widthPercent': 0.45, 'rescaleHeight': False, 'trialN': 107, 'loaded': True, 'loadedTime': 3770.199999988079, 'positionName': 'RIGHT', 'positionCoords': [711.36, 251], 'bid': 7.04}]",195845.80000001192,1669840344215,Tribe humus pita,sweetpotato,6.16,7.04,0.8799999999999999,Tribe humus pita,1229.800000011921,1231,1230.699999988079,True,u,197584.0,1738.199999988079,1669840345953,1738,HRV,HRV_0279,2022-11-30 20:34:38
108,"[{'imgObject': {}, 'id': 'veggieswithdip', 'src': '/static/foodstim60/veggieswithdip.jpg', 'key': 'u', 'origWidth': 409, 'origHeight': 409, 'width': 409, 'height': 409, 'widthPercent': 0.45, 'rescaleHeight': False, 'trialN': 108, 'loaded': True, 'loadedTime': 3572.899999976158, 'positionName': 'LEFT', 'positionCoords': [247.64, 251.5], 'bid': 6.5600000000000005}, {'imgObject': {}, 'id': 'froot loops w milk', 'src': '/static/foodstim60/froot loops w milk.jpg', 'key': 'i', 'origWidth': 410, 'origHeight': 410, 'width': 410, 'height': 410, 'widthPercent': 0.45, 'rescaleHeight': False, 'trialN': 108, 'loaded': True, 'loadedTime': 3791.399999976158, 'positionName': 'RIGHT', 'positionCoords': [711.36, 251], 'bid': 6.4}]",197585.10000002384,1669840345954,veggieswithdip,froot loops w milk,6.5600000000000005,6.4,-0.16000000000000014,veggieswithdip,959.5999999642372,961,960.1999999880791,True,u,199056.19999998808,1471.0999999642372,1669840347426,1472,HRV,HRV_0279,2022-11-30 20:34:38
