trialN,stimuli,question,trialStartTime,trialStartTime_UNIX,stimulus1,rt,receivedResponse,rating,trialEndTime,trialDuration,stimulus1Loaded,exp,subjectId,date
0,"[{'imgObject': {}, 'id': 'fried eggs', 'src': '/static/foodstim60/fried eggs.jpg', 'key': 'NaN', 'origWidth': 410, 'origHeight': 410, 'width': 410, 'height': 410, 'widthPercent': 0.8, 'rescaleHeight': True, 'trialN': 0, 'loaded': True, 'loadedTime': 1885.300000011921, 'positionName': 'CENTER', 'positionCoords': [479, 251]}]",Rate how much you want to eat this food from 0 (least) to 10 (most).,1950.7000000476837,1669840001794,fried eggs,2040.7999999523163,True,1.6600000000000001,3991.5,2040.7999999523163,True,HRV,HRV_0279,2022-11-30 20:28:15
1,"[{'imgObject': {}, 'id': 'kiwi', 'src': '/static/foodstim60/kiwi.jpg', 'key': 'NaN', 'origWidth': 410, 'origHeight': 410, 'width': 410, 'height': 410, 'widthPercent': 0.8, 'rescaleHeight': True, 'trialN': 1, 'loaded': True, 'loadedTime': 1886.4000000357628, 'positionName': 'CENTER', 'positionCoords': [479, 251]}]",Rate how much you want to eat this food from 0 (least) to 10 (most).,3995.5,1669840003839,kiwi,1526.2000000476837,True,7.13,5521.700000047684,1526.2000000476837,True,HRV,HRV_0279,2022-11-30 20:28:15
2,"[{'imgObject': {}, 'id': 'rigatoni', 'src': '/static/foodstim60/rigatoni.jpg', 'key': 'NaN', 'origWidth': 411, 'origHeight': 411, 'width': 411, 'height': 411, 'widthPercent': 0.8, 'rescaleHeight': True, 'trialN': 2, 'loaded': True, 'loadedTime': 1886.6000000238419, 'positionName': 'CENTER', 'positionCoords': [478.5, 250.5]}]",Rate how much you want to eat this food from 0 (least) to 10 (most).,5523.100000023842,1669840005366,rigatoni,1781.199999988079,True,6.03,7304.300000011921,1781.199999988079,True,HRV,HRV_0279,2022-11-30 20:28:15
3,"[{'imgObject': {}, 'id': 'mac & cheese', 'src': '/static/foodstim60/mac & cheese.jpg', 'key': 'NaN', 'origWidth': 410, 'origHeight': 410, 'width': 410, 'height': 410, 'widthPercent': 0.8, 'rescaleHeight': True, 'trialN': 3, 'loaded': True, 'loadedTime': 1886.800000011921, 'positionName': 'CENTER', 'positionCoords': [479, 251]}]",Rate how much you want to eat this food from 0 (least) to 10 (most).,7305.700000047684,1669840007149,mac & cheese,1486.5999999642372,True,7.640000000000001,8792.300000011921,1486.5999999642372,True,HRV,HRV_0279,2022-11-30 20:28:15
4,"[{'imgObject': {}, 'id': 'raspberries', 'src': '/static/foodstim60/raspberries.jpg', 'key': 'NaN', 'origWidth': 411, 'origHeight': 411, 'width': 411, 'height': 411, 'widthPercent': 0.8, 'rescaleHeight': True, 'trialN': 4, 'loaded': True, 'loadedTime': 1891.1000000238419, 'positionName': 'CENTER', 'positionCoords': [478.5, 250.5]}]",Rate how much you want to eat this food from 0 (least) to 10 (most).,8793.800000011921,1669840008637,raspberries,1063.1000000238419,True,6.84,9856.900000035763,1063.1000000238419,True,HRV,HRV_0279,2022-11-30 20:28:15
5,"[{'imgObject': {}, 'id': 'ice cream sundae 002', 'src': '/static/foodstim60/ice cream sundae 002.jpg', 'key': 'NaN', 'origWidth': 409, 'origHeight': 409, 'width': 409, 'height': 409, 'widthPercent': 0.8, 'rescaleHeight': True, 'trialN': 5, 'loaded': True, 'loadedTime': 1891.800000011921, 'positionName': 'CENTER', 'positionCoords': [479.5, 251.5]}]",Rate how much you want to eat this food from 0 (least) to 10 (most).,9858.200000047684,1669840009702,ice cream sundae 002,1137.699999988079,True,9.540000000000001,10995.900000035763,1137.699999988079,True,HRV,HRV_0279,2022-11-30 20:28:15
6,"[{'imgObject': {}, 'id': 'blackbeanswithrice', 'src': '/static/foodstim60/blackbeanswithrice.jpg', 'key': 'NaN', 'origWidth': 410, 'origHeight': 410, 'width': 410, 'height': 410, 'widthPercent': 0.8, 'rescaleHeight': True, 'trialN': 6, 'loaded': True, 'loadedTime': 1892, 'positionName': 'CENTER', 'positionCoords': [479, 251]}]",Rate how much you want to eat this food from 0 (least) to 10 (most).,10997.400000035763,1669840010841,blackbeanswithrice,1218.0999999642372,True,7.8500000000000005,12215.5,1218.0999999642372,True,HRV,HRV_0279,2022-11-30 20:28:15
7,"[{'imgObject': {}, 'id': 'cheerios', 'src': '/static/foodstim60/cheerios.jpg', 'key': 'NaN', 'origWidth': 409, 'origHeight': 410, 'width': 409, 'height': 410, 'widthPercent': 0.8, 'rescaleHeight': True, 'trialN': 7, 'loaded': True, 'loadedTime': 1892.1000000238419, 'positionName': 'CENTER', 'positionCoords': [479.5, 251]}]",Rate how much you want to eat this food from 0 (least) to 10 (most).,12217.0,1669840012060,cheerios,1906.800000011921,True,3.97,14123.800000011921,1906.800000011921,True,HRV,HRV_0279,2022-11-30 20:28:15
8,"[{'imgObject': {}, 'id': 'apple slices', 'src': '/static/foodstim60/apple slices.jpg', 'key': 'NaN', 'origWidth': 409, 'origHeight': 410, 'width': 409, 'height': 410, 'widthPercent': 0.8, 'rescaleHeight': True, 'trialN': 8, 'loaded': True, 'loadedTime': 1892.300000011921, 'positionName': 'CENTER', 'positionCoords': [479.5, 251]}]",Rate how much you want to eat this food from 0 (least) to 10 (most).,14125.100000023842,1669840013968,apple slices,1347.300000011921,True,6.0600000000000005,15472.400000035763,1347.300000011921,True,HRV,HRV_0279,2022-11-30 20:28:15
9,"[{'imgObject': {}, 'id': 'cherry tomato', 'src': '/static/foodstim60/cherry tomato.jpg', 'key': 'NaN', 'origWidth': 410, 'origHeight': 410, 'width': 410, 'height': 410, 'widthPercent': 0.8, 'rescaleHeight': True, 'trialN': 9, 'loaded': True, 'loadedTime': 1897.6000000238419, 'positionName': 'CENTER', 'positionCoords': [479, 251]}]",Rate how much you want to eat this food from 0 (least) to 10 (most).,15473.700000047684,1669840015317,cherry tomato,1313.8999999761581,True,6.34,16787.600000023842,1313.8999999761581,True,HRV,HRV_0279,2022-11-30 20:28:15
10,"[{'imgObject': {}, 'id': 'avocado', 'src': '/static/foodstim60/avocado.jpg', 'key': 'NaN', 'origWidth': 409, 'origHeight': 409, 'width': 409, 'height': 409, 'widthPercent': 0.8, 'rescaleHeight': True, 'trialN': 10, 'loaded': True, 'loadedTime': 1898.1000000238419, 'positionName': 'CENTER', 'positionCoords': [479.5, 251.5]}]",Rate how much you want to eat this food from 0 (least) to 10 (most).,16789.100000023842,1669840016632,avocado,1668.6000000238419,True,6.78,18457.700000047684,1668.6000000238419,True,HRV,HRV_0279,2022-11-30 20:28:15
11,"[{'imgObject': {}, 'id': 'seaweed', 'src': '/static/foodstim60/seaweed.jpg', 'key': 'NaN', 'origWidth': 410, 'origHeight': 410, 'width': 410, 'height': 410, 'widthPercent': 0.8, 'rescaleHeight': True, 'trialN': 11, 'loaded': True, 'loadedTime': 1898.4000000357628, 'positionName': 'CENTER', 'positionCoords': [479, 251]}]",Rate how much you want to eat this food from 0 (least) to 10 (most).,18459.100000023842,1669840018302,seaweed,1452.8999999761581,True,2.22,19912.0,1452.8999999761581,True,HRV,HRV_0279,2022-11-30 20:28:15
12,"[{'imgObject': {}, 'id': 'Tribe humus pita', 'src': '/static/foodstim60/Tribe humus pita.jpg', 'key': 'NaN', 'origWidth': 411, 'origHeight': 411, 'width': 411, 'height': 411, 'widthPercent': 0.8, 'rescaleHeight': True, 'trialN': 12, 'loaded': True, 'loadedTime': 1898.6000000238419, 'positionName': 'CENTER', 'positionCoords': [478.5, 250.5]}]",Rate how much you want to eat this food from 0 (least) to 10 (most).,19913.400000035763,1669840019757,Tribe humus pita,1251.800000011921,True,6.16,21165.200000047684,1251.800000011921,True,HRV,HRV_0279,2022-11-30 20:28:15
13,"[{'imgObject': {}, 'id': 'mango', 'src': '/static/foodstim60/mango.jpg', 'key': 'NaN', 'origWidth': 411, 'origHeight': 411, 'width': 411, 'height': 411, 'widthPercent': 0.8, 'rescaleHeight': True, 'trialN': 13, 'loaded': True, 'loadedTime': 1898.7000000476837, 'positionName': 'CENTER', 'positionCoords': [478.5, 250.5]}]",Rate how much you want to eat this food from 0 (least) to 10 (most).,21166.900000035763,1669840021010,mango,2072.800000011921,True,4.18,23239.700000047684,2072.800000011921,True,HRV,HRV_0279,2022-11-30 20:28:15
14,"[{'imgObject': {}, 'id': 'cocktailshrimp', 'src': '/static/foodstim60/cocktailshrimp.jpg', 'key': 'NaN', 'origWidth': 410, 'origHeight': 410, 'width': 410, 'height': 410, 'widthPercent': 0.8, 'rescaleHeight': True, 'trialN': 14, 'loaded': True, 'loadedTime': 1902, 'positionName': 'CENTER', 'positionCoords': [479, 251]}]",Rate how much you want to eat this food from 0 (least) to 10 (most).,23241.30000001192,1669840023085,cocktailshrimp,1472.4000000357628,True,3.87,24713.700000047684,1472.4000000357628,True,HRV,HRV_0279,2022-11-30 20:28:15
15,"[{'imgObject': {}, 'id': 'popsicles', 'src': '/static/foodstim60/popsicles.jpg', 'key': 'NaN', 'origWidth': 410, 'origHeight': 410, 'width': 410, 'height': 410, 'widthPercent': 0.8, 'rescaleHeight': True, 'trialN': 15, 'loaded': True, 'loadedTime': 1902.4000000357628, 'positionName': 'CENTER', 'positionCoords': [479, 251]}]",Rate how much you want to eat this food from 0 (least) to 10 (most).,24715.200000047684,1669840024559,popsicles,1220.8999999761581,True,2.89,25936.100000023842,1220.8999999761581,True,HRV,HRV_0279,2022-11-30 20:28:15
16,"[{'imgObject': {}, 'id': 'corn cob', 'src': '/static/foodstim60/corn cob.jpg', 'key': 'NaN', 'origWidth': 411, 'origHeight': 411, 'width': 411, 'height': 411, 'widthPercent': 0.8, 'rescaleHeight': True, 'trialN': 16, 'loaded': True, 'loadedTime': 1902.5, 'positionName': 'CENTER', 'positionCoords': [478.5, 250.5]}]",Rate how much you want to eat this food from 0 (least) to 10 (most).,25937.80000001192,1669840025781,corn cob,1149.699999988079,True,5.92,27087.5,1149.699999988079,True,HRV,HRV_0279,2022-11-30 20:28:15
17,"[{'imgObject': {}, 'id': 'chicken nuggets2', 'src': '/static/foodstim60/chicken nuggets2.jpg', 'key': 'NaN', 'origWidth': 410, 'origHeight': 409, 'width': 410, 'height': 409, 'widthPercent': 0.8, 'rescaleHeight': True, 'trialN': 17, 'loaded': True, 'loadedTime': 1902.6000000238419, 'positionName': 'CENTER', 'positionCoords': [479, 251.5]}]",Rate how much you want to eat this food from 0 (least) to 10 (most).,27089.200000047684,1669840026933,chicken nuggets2,1114.2999999523163,True,6.59,28203.5,1114.2999999523163,True,HRV,HRV_0279,2022-11-30 20:28:15
18,"[{'imgObject': {}, 'id': 'rigatoni and sauce', 'src': '/static/foodstim60/rigatoni and sauce.jpg', 'key': 'NaN', 'origWidth': 410, 'origHeight': 411, 'width': 410, 'height': 411, 'widthPercent': 0.8, 'rescaleHeight': True, 'trialN': 18, 'loaded': True, 'loadedTime': 1902.7000000476837, 'positionName': 'CENTER', 'positionCoords': [479, 250.5]}]",Rate how much you want to eat this food from 0 (least) to 10 (most).,28205.100000023842,1669840028048,rigatoni and sauce,1882.6000000238419,True,6.03,30087.700000047684,1882.6000000238419,True,HRV,HRV_0279,2022-11-30 20:28:15
19,"[{'imgObject': {}, 'id': 'raisin bran w milk', 'src': '/static/foodstim60/raisin bran w milk.jpg', 'key': 'NaN', 'origWidth': 411, 'origHeight': 411, 'width': 411, 'height': 411, 'widthPercent': 0.8, 'rescaleHeight': True, 'trialN': 19, 'loaded': True, 'loadedTime': 1906.300000011921, 'positionName': 'CENTER', 'positionCoords': [478.5, 250.5]}]",Rate how much you want to eat this food from 0 (least) to 10 (most).,30089.80000001192,1669840029933,raisin bran w milk,1571.9000000357628,True,4.63,31661.700000047684,1571.9000000357628,True,HRV,HRV_0279,2022-11-30 20:28:15
20,"[{'imgObject': {}, 'id': 'salad w chicken', 'src': '/static/foodstim60/salad w chicken.jpg', 'key': 'NaN', 'origWidth': 411, 'origHeight': 411, 'width': 411, 'height': 411, 'widthPercent': 0.8, 'rescaleHeight': True, 'trialN': 20, 'loaded': True, 'loadedTime': 1906.6000000238419, 'positionName': 'CENTER', 'positionCoords': [478.5, 250.5]}]",Rate how much you want to eat this food from 0 (least) to 10 (most).,31663.30000001192,1669840031507,salad w chicken,4414.300000011921,True,8.11,36077.60000002384,4414.300000011921,True,HRV,HRV_0279,2022-11-30 20:28:15
21,"[{'imgObject': {}, 'id': 'orange slices', 'src': '/static/foodstim60/orange slices.jpg', 'key': 'NaN', 'origWidth': 409, 'origHeight': 410, 'width': 409, 'height': 410, 'widthPercent': 0.8, 'rescaleHeight': True, 'trialN': 21, 'loaded': True, 'loadedTime': 1906.7000000476837, 'positionName': 'CENTER', 'positionCoords': [479.5, 251]}]",Rate how much you want to eat this food from 0 (least) to 10 (most).,36079.5,1669840035923,orange slices,1150.800000011921,True,7.61,37230.30000001192,1150.800000011921,True,HRV,HRV_0279,2022-11-30 20:28:15
22,"[{'imgObject': {}, 'id': 'blueberries', 'src': '/static/foodstim60/blueberries.jpg', 'key': 'NaN', 'origWidth': 411, 'origHeight': 411, 'width': 411, 'height': 411, 'widthPercent': 0.8, 'rescaleHeight': True, 'trialN': 22, 'loaded': True, 'loadedTime': 1906.800000011921, 'positionName': 'CENTER', 'positionCoords': [478.5, 250.5]}]",Rate how much you want to eat this food from 0 (least) to 10 (most).,37231.80000001192,1669840037075,blueberries,1303.5,True,6.82,38535.30000001192,1303.5,True,HRV,HRV_0279,2022-11-30 20:28:15
23,"[{'imgObject': {}, 'id': 'bagel plain', 'src': '/static/foodstim60/bagel plain.jpg', 'key': 'NaN', 'origWidth': 410, 'origHeight': 410, 'width': 410, 'height': 410, 'widthPercent': 0.8, 'rescaleHeight': True, 'trialN': 23, 'loaded': True, 'loadedTime': 1906.9000000357628, 'positionName': 'CENTER', 'positionCoords': [479, 251]}]",Rate how much you want to eat this food from 0 (least) to 10 (most).,38537.10000002384,1669840038380,bagel plain,1326.800000011921,True,5.3,39863.90000003576,1326.800000011921,True,HRV,HRV_0279,2022-11-30 20:28:15
24,"[{'imgObject': {}, 'id': 'lox', 'src': '/static/foodstim60/lox.jpg', 'key': 'NaN', 'origWidth': 410, 'origHeight': 411, 'width': 410, 'height': 411, 'widthPercent': 0.8, 'rescaleHeight': True, 'trialN': 24, 'loaded': True, 'loadedTime': 1910.2000000476837, 'positionName': 'CENTER', 'positionCoords': [479, 250.5]}]",Rate how much you want to eat this food from 0 (least) to 10 (most).,39865.700000047684,1669840039709,lox,1870.5,True,4.29,41736.200000047684,1870.5,True,HRV,HRV_0279,2022-11-30 20:28:15
25,"[{'imgObject': {}, 'id': 'turkey sandwich', 'src': '/static/foodstim60/turkey sandwich.jpg', 'key': 'NaN', 'origWidth': 409, 'origHeight': 409, 'width': 409, 'height': 409, 'widthPercent': 0.8, 'rescaleHeight': True, 'trialN': 25, 'loaded': True, 'loadedTime': 1910.800000011921, 'positionName': 'CENTER', 'positionCoords': [479.5, 251.5]}]",Rate how much you want to eat this food from 0 (least) to 10 (most).,41737.200000047684,1669840041582,turkey sandwich,1291.0,True,6.22,43028.200000047684,1291.0,True,HRV,HRV_0279,2022-11-30 20:28:15
26,"[{'imgObject': {}, 'id': 'cantaloupe', 'src': '/static/foodstim60/cantaloupe.jpg', 'key': 'NaN', 'origWidth': 409, 'origHeight': 409, 'width': 409, 'height': 409, 'widthPercent': 0.8, 'rescaleHeight': True, 'trialN': 26, 'loaded': True, 'loadedTime': 1911.4000000357628, 'positionName': 'CENTER', 'positionCoords': [479.5, 251.5]}]",Rate how much you want to eat this food from 0 (least) to 10 (most).,43030.200000047684,1669840042875,cantaloupe,1653.199999988079,True,0.13,44683.40000003576,1653.199999988079,True,HRV,HRV_0279,2022-11-30 20:28:15
27,"[{'imgObject': {}, 'id': 'fruitsalad', 'src': '/static/foodstim60/fruitsalad.jpg', 'key': 'NaN', 'origWidth': 410, 'origHeight': 410, 'width': 410, 'height': 410, 'widthPercent': 0.8, 'rescaleHeight': True, 'trialN': 27, 'loaded': True, 'loadedTime': 1911.7000000476837, 'positionName': 'CENTER', 'positionCoords': [479, 251]}]",Rate how much you want to eat this food from 0 (least) to 10 (most).,44684.80000001192,1669840044529,fruitsalad,1936.5,True,7.7,46621.30000001192,1936.5,True,HRV,HRV_0279,2022-11-30 20:28:15
28,"[{'imgObject': {}, 'id': 'sushi w_condiments', 'src': '/static/foodstim60/sushi w_condiments.jpg', 'key': 'NaN', 'origWidth': 410, 'origHeight': 410, 'width': 410, 'height': 410, 'widthPercent': 0.8, 'rescaleHeight': True, 'trialN': 28, 'loaded': True, 'loadedTime': 1912, 'positionName': 'CENTER', 'positionCoords': [479, 251]}]",Rate how much you want to eat this food from 0 (least) to 10 (most).,46622.90000003576,1669840046467,sushi w_condiments,1320.800000011921,True,7.390000000000001,47943.700000047684,1320.800000011921,True,HRV,HRV_0279,2022-11-30 20:28:15
29,"[{'imgObject': {}, 'id': 'turkeysandwich', 'src': '/static/foodstim60/turkeysandwich.jpg', 'key': 'NaN', 'origWidth': 409, 'origHeight': 409, 'width': 409, 'height': 409, 'widthPercent': 0.8, 'rescaleHeight': True, 'trialN': 29, 'loaded': True, 'loadedTime': 1918.6000000238419, 'positionName': 'CENTER', 'positionCoords': [479.5, 251.5]}]",Rate how much you want to eat this food from 0 (least) to 10 (most).,47945.80000001192,1669840047790,turkeysandwich,1466.199999988079,True,7.67,49412.0,1466.199999988079,True,HRV,HRV_0279,2022-11-30 20:28:15
30,"[{'imgObject': {}, 'id': 'steak', 'src': '/static/foodstim60/steak.jpg', 'key': 'NaN', 'origWidth': 410, 'origHeight': 410, 'width': 410, 'height': 410, 'widthPercent': 0.8, 'rescaleHeight': True, 'trialN': 30, 'loaded': True, 'loadedTime': 1919.1000000238419, 'positionName': 'CENTER', 'positionCoords': [479, 251]}]",Rate how much you want to eat this food from 0 (least) to 10 (most).,49413.700000047684,1669840049258,steak,2228.2999999523163,True,8.23,51642.0,2228.2999999523163,True,HRV,HRV_0279,2022-11-30 20:28:15
31,"[{'imgObject': {}, 'id': 'shreddedwheatwithmilk', 'src': '/static/foodstim60/shreddedwheatwithmilk.jpg', 'key': 'NaN', 'origWidth': 410, 'origHeight': 410, 'width': 410, 'height': 410, 'widthPercent': 0.8, 'rescaleHeight': True, 'trialN': 31, 'loaded': True, 'loadedTime': 1919.2000000476837, 'positionName': 'CENTER', 'positionCoords': [479, 251]}]",Rate how much you want to eat this food from 0 (least) to 10 (most).,51643.60000002384,1669840051488,shreddedwheatwithmilk,1461.699999988079,True,5.73,53105.30000001192,1461.699999988079,True,HRV,HRV_0279,2022-11-30 20:28:15
32,"[{'imgObject': {}, 'id': 'edamame', 'src': '/static/foodstim60/edamame.jpg', 'key': 'NaN', 'origWidth': 409, 'origHeight': 410, 'width': 409, 'height': 410, 'widthPercent': 0.8, 'rescaleHeight': True, 'trialN': 32, 'loaded': True, 'loadedTime': 1919.5, 'positionName': 'CENTER', 'positionCoords': [479.5, 251]}]",Rate how much you want to eat this food from 0 (least) to 10 (most).,53107.90000003576,1669840052952,edamame,1354.3999999761581,True,7.76,54462.30000001192,1354.3999999761581,True,HRV,HRV_0279,2022-11-30 20:28:15
33,"[{'imgObject': {}, 'id': 'chickenfingers', 'src': '/static/foodstim60/chickenfingers.jpg', 'key': 'NaN', 'origWidth': 410, 'origHeight': 410, 'width': 410, 'height': 410, 'widthPercent': 0.8, 'rescaleHeight': True, 'trialN': 33, 'loaded': True, 'loadedTime': 1919.800000011921, 'positionName': 'CENTER', 'positionCoords': [479, 251]}]",Rate how much you want to eat this food from 0 (least) to 10 (most).,54464.0,1669840054308,chickenfingers,1351.6000000238419,True,7.41,55815.60000002384,1351.6000000238419,True,HRV,HRV_0279,2022-11-30 20:28:15
34,"[{'imgObject': {}, 'id': 'bagel and cc', 'src': '/static/foodstim60/bagel and cc.jpg', 'key': 'NaN', 'origWidth': 410, 'origHeight': 410, 'width': 410, 'height': 410, 'widthPercent': 0.8, 'rescaleHeight': True, 'trialN': 34, 'loaded': True, 'loadedTime': 1922.6000000238419, 'positionName': 'CENTER', 'positionCoords': [479, 251]}]",Rate how much you want to eat this food from 0 (least) to 10 (most).,55818.0,1669840055662,bagel and cc,1343.4000000357628,True,5.33,57161.40000003576,1343.4000000357628,True,HRV,HRV_0279,2022-11-30 20:28:15
35,"[{'imgObject': {}, 'id': 'hashbrowns', 'src': '/static/foodstim60/hashbrowns.jpg', 'key': 'NaN', 'origWidth': 411, 'origHeight': 410, 'width': 411, 'height': 410, 'widthPercent': 0.8, 'rescaleHeight': True, 'trialN': 35, 'loaded': True, 'loadedTime': 1923, 'positionName': 'CENTER', 'positionCoords': [478.5, 251]}]",Rate how much you want to eat this food from 0 (least) to 10 (most).,57163.0,1669840057007,hashbrowns,1434.6000000238419,True,4.54,58597.60000002384,1434.6000000238419,True,HRV,HRV_0279,2022-11-30 20:28:15
36,"[{'imgObject': {}, 'id': 'pear', 'src': '/static/foodstim60/pear.jpg', 'key': 'NaN', 'origWidth': 411, 'origHeight': 410, 'width': 411, 'height': 410, 'widthPercent': 0.8, 'rescaleHeight': True, 'trialN': 36, 'loaded': True, 'loadedTime': 1923, 'positionName': 'CENTER', 'positionCoords': [478.5, 251]}]",Rate how much you want to eat this food from 0 (least) to 10 (most).,58598.90000003576,1669840058443,pear,1277.199999988079,True,7.32,59876.10000002384,1277.199999988079,True,HRV,HRV_0279,2022-11-30 20:28:15
37,"[{'imgObject': {}, 'id': 'strawberries', 'src': '/static/foodstim60/strawberries.jpg', 'key': 'NaN', 'origWidth': 410, 'origHeight': 410, 'width': 410, 'height': 410, 'widthPercent': 0.8, 'rescaleHeight': True, 'trialN': 37, 'loaded': True, 'loadedTime': 1923.1000000238419, 'positionName': 'CENTER', 'positionCoords': [479, 251]}]",Rate how much you want to eat this food from 0 (least) to 10 (most).,59877.60000002384,1669840059722,strawberries,1246.5,True,7.73,61124.10000002384,1246.5,True,HRV,HRV_0279,2022-11-30 20:28:15
38,"[{'imgObject': {}, 'id': 'granola w milk', 'src': '/static/foodstim60/granola w milk.jpg', 'key': 'NaN', 'origWidth': 410, 'origHeight': 410, 'width': 410, 'height': 410, 'widthPercent': 0.8, 'rescaleHeight': True, 'trialN': 38, 'loaded': True, 'loadedTime': 1923.5, 'positionName': 'CENTER', 'positionCoords': [479, 251]}]",Rate how much you want to eat this food from 0 (least) to 10 (most).,61126.60000002384,1669840060971,granola w milk,1543.5,True,4.57,62670.10000002384,1543.5,True,HRV,HRV_0279,2022-11-30 20:28:15
39,"[{'imgObject': {}, 'id': 'eggsalad', 'src': '/static/foodstim60/eggsalad.jpg', 'key': 'NaN', 'origWidth': 410, 'origHeight': 409, 'width': 410, 'height': 409, 'widthPercent': 0.8, 'rescaleHeight': True, 'trialN': 39, 'loaded': True, 'loadedTime': 1927.1000000238419, 'positionName': 'CENTER', 'positionCoords': [479, 251.5]}]",Rate how much you want to eat this food from 0 (least) to 10 (most).,62671.700000047684,1669840062516,eggsalad,1228.0999999642372,True,4.3100000000000005,63899.80000001192,1228.0999999642372,True,HRV,HRV_0279,2022-11-30 20:28:15
40,"[{'imgObject': {}, 'id': 'baked potato', 'src': '/static/foodstim60/baked potato.jpg', 'key': 'NaN', 'origWidth': 409, 'origHeight': 410, 'width': 409, 'height': 410, 'widthPercent': 0.8, 'rescaleHeight': True, 'trialN': 40, 'loaded': True, 'loadedTime': 1927.5, 'positionName': 'CENTER', 'positionCoords': [479.5, 251]}]",Rate how much you want to eat this food from 0 (least) to 10 (most).,63901.80000001192,1669840063746,baked potato,1088.1000000238419,True,5.67,64989.90000003576,1088.1000000238419,True,HRV,HRV_0279,2022-11-30 20:28:15
41,"[{'imgObject': {}, 'id': 'olives', 'src': '/static/foodstim60/olives.jpg', 'key': 'NaN', 'origWidth': 410, 'origHeight': 410, 'width': 410, 'height': 410, 'widthPercent': 0.8, 'rescaleHeight': True, 'trialN': 41, 'loaded': True, 'loadedTime': 1927.7000000476837, 'positionName': 'CENTER', 'positionCoords': [479, 251]}]",Rate how much you want to eat this food from 0 (least) to 10 (most).,64991.60000002384,1669840064836,olives,1648.1000000238419,True,0.19,66639.70000004768,1648.1000000238419,True,HRV,HRV_0279,2022-11-30 20:28:15
42,"[{'imgObject': {}, 'id': 'salmon', 'src': '/static/foodstim60/salmon.jpg', 'key': 'NaN', 'origWidth': 410, 'origHeight': 409, 'width': 410, 'height': 409, 'widthPercent': 0.8, 'rescaleHeight': True, 'trialN': 42, 'loaded': True, 'loadedTime': 1927.800000011921, 'positionName': 'CENTER', 'positionCoords': [479, 251.5]}]",Rate how much you want to eat this food from 0 (least) to 10 (most).,66641.5,1669840066486,salmon,1363.800000011921,True,1.41,68005.30000001192,1363.800000011921,True,HRV,HRV_0279,2022-11-30 20:28:15
43,"[{'imgObject': {}, 'id': 'Grapes', 'src': '/static/foodstim60/Grapes.jpg', 'key': 'NaN', 'origWidth': 411, 'origHeight': 411, 'width': 411, 'height': 411, 'widthPercent': 0.8, 'rescaleHeight': True, 'trialN': 43, 'loaded': True, 'loadedTime': 1928, 'positionName': 'CENTER', 'positionCoords': [478.5, 250.5]}]",Rate how much you want to eat this food from 0 (least) to 10 (most).,68006.60000002384,1669840067851,Grapes,2250.699999988079,True,9.66,70257.30000001192,2250.699999988079,True,HRV,HRV_0279,2022-11-30 20:28:15
44,"[{'imgObject': {}, 'id': 'burger', 'src': '/static/foodstim60/burger.jpg', 'key': 'NaN', 'origWidth': 409, 'origHeight': 409, 'width': 409, 'height': 409, 'widthPercent': 0.8, 'rescaleHeight': True, 'trialN': 44, 'loaded': True, 'loadedTime': 1930.800000011921, 'positionName': 'CENTER', 'positionCoords': [479.5, 251.5]}]",Rate how much you want to eat this food from 0 (least) to 10 (most).,70258.90000003576,1669840070103,burger,991.1999999880791,True,7.16,71250.10000002384,991.1999999880791,True,HRV,HRV_0279,2022-11-30 20:28:15
45,"[{'imgObject': {}, 'id': 'yogurt no spoon', 'src': '/static/foodstim60/yogurt no spoon.jpg', 'key': 'NaN', 'origWidth': 411, 'origHeight': 410, 'width': 411, 'height': 410, 'widthPercent': 0.8, 'rescaleHeight': True, 'trialN': 45, 'loaded': True, 'loadedTime': 1931.300000011921, 'positionName': 'CENTER', 'positionCoords': [478.5, 251]}]",Rate how much you want to eat this food from 0 (least) to 10 (most).,71251.30000001192,1669840071096,yogurt no spoon,1110.0,True,6.73,72361.30000001192,1110.0,True,HRV,HRV_0279,2022-11-30 20:28:15
46,"[{'imgObject': {}, 'id': 'mashed potato', 'src': '/static/foodstim60/mashed potato.jpg', 'key': 'NaN', 'origWidth': 409, 'origHeight': 409, 'width': 409, 'height': 409, 'widthPercent': 0.8, 'rescaleHeight': True, 'trialN': 46, 'loaded': True, 'loadedTime': 1931.6000000238419, 'positionName': 'CENTER', 'positionCoords': [479.5, 251.5]}]",Rate how much you want to eat this food from 0 (least) to 10 (most).,72362.80000001192,1669840072207,mashed potato,1214.800000011921,True,7.3500000000000005,73577.60000002384,1214.800000011921,True,HRV,HRV_0279,2022-11-30 20:28:15
47,"[{'imgObject': {}, 'id': 'burrito', 'src': '/static/foodstim60/burrito.jpg', 'key': 'NaN', 'origWidth': 410, 'origHeight': 410, 'width': 410, 'height': 410, 'widthPercent': 0.8, 'rescaleHeight': True, 'trialN': 47, 'loaded': True, 'loadedTime': 1931.7000000476837, 'positionName': 'CENTER', 'positionCoords': [479, 251]}]",Rate how much you want to eat this food from 0 (least) to 10 (most).,73579.60000002384,1669840073424,burrito,1978.1000000238419,True,7.7,75557.70000004768,1978.1000000238419,True,HRV,HRV_0279,2022-11-30 20:28:15
48,"[{'imgObject': {}, 'id': 'veggieswithdip', 'src': '/static/foodstim60/veggieswithdip.jpg', 'key': 'NaN', 'origWidth': 409, 'origHeight': 409, 'width': 409, 'height': 409, 'widthPercent': 0.8, 'rescaleHeight': True, 'trialN': 48, 'loaded': True, 'loadedTime': 1931.800000011921, 'positionName': 'CENTER', 'positionCoords': [479.5, 251.5]}]",Rate how much you want to eat this food from 0 (least) to 10 (most).,75559.0,1669840075404,veggieswithdip,1299.1000000238419,True,6.5600000000000005,76858.10000002384,1299.1000000238419,True,HRV,HRV_0279,2022-11-30 20:28:15
49,"[{'imgObject': {}, 'id': 'tacos', 'src': '/static/foodstim60/tacos.jpg', 'key': 'NaN', 'origWidth': 411, 'origHeight': 411, 'width': 411, 'height': 411, 'widthPercent': 0.8, 'rescaleHeight': True, 'trialN': 49, 'loaded': True, 'loadedTime': 1937.7000000476837, 'positionName': 'CENTER', 'positionCoords': [478.5, 250.5]}]",Rate how much you want to eat this food from 0 (least) to 10 (most).,76859.60000002384,1669840076704,tacos,1579.6000000238419,True,7.79,78439.20000004768,1579.6000000238419,True,HRV,HRV_0279,2022-11-30 20:28:15
50,"[{'imgObject': {}, 'id': 'roastedpotatoes', 'src': '/static/foodstim60/roastedpotatoes.jpg', 'key': 'NaN', 'origWidth': 409, 'origHeight': 410, 'width': 409, 'height': 410, 'widthPercent': 0.8, 'rescaleHeight': True, 'trialN': 50, 'loaded': True, 'loadedTime': 1938.5, 'positionName': 'CENTER', 'positionCoords': [479.5, 251]}]",Rate how much you want to eat this food from 0 (least) to 10 (most).,78440.90000003576,1669840078285,roastedpotatoes,1409.0999999642372,True,7.88,79850.0,1409.0999999642372,True,HRV,HRV_0279,2022-11-30 20:28:15
51,"[{'imgObject': {}, 'id': 'hotdog w must', 'src': '/static/foodstim60/hotdog w must.jpg', 'key': 'NaN', 'origWidth': 409, 'origHeight': 409, 'width': 409, 'height': 409, 'widthPercent': 0.8, 'rescaleHeight': True, 'trialN': 51, 'loaded': True, 'loadedTime': 1939, 'positionName': 'CENTER', 'positionCoords': [479.5, 251.5]}]",Rate how much you want to eat this food from 0 (least) to 10 (most).,79851.60000002384,1669840079696,hotdog w must,1362.1000000238419,True,1.08,81213.70000004768,1362.1000000238419,True,HRV,HRV_0279,2022-11-30 20:28:15
52,"[{'imgObject': {}, 'id': 'grilled chicken strips', 'src': '/static/foodstim60/grilled chicken strips.jpg', 'key': 'NaN', 'origWidth': 410, 'origHeight': 411, 'width': 410, 'height': 411, 'widthPercent': 0.8, 'rescaleHeight': True, 'trialN': 52, 'loaded': True, 'loadedTime': 1939.2000000476837, 'positionName': 'CENTER', 'positionCoords': [479, 250.5]}]",Rate how much you want to eat this food from 0 (least) to 10 (most).,81215.20000004768,1669840081060,grilled chicken strips,1502.0,True,7.96,82717.20000004768,1502.0,True,HRV,HRV_0279,2022-11-30 20:28:15
53,"[{'imgObject': {}, 'id': 'sweetpotato', 'src': '/static/foodstim60/sweetpotato.jpg', 'key': 'NaN', 'origWidth': 410, 'origHeight': 410, 'width': 410, 'height': 410, 'widthPercent': 0.8, 'rescaleHeight': True, 'trialN': 53, 'loaded': True, 'loadedTime': 1939.5, 'positionName': 'CENTER', 'positionCoords': [479, 251]}]",Rate how much you want to eat this food from 0 (least) to 10 (most).,82718.60000002384,1669840082563,sweetpotato,1086.5,True,7.04,83805.10000002384,1086.5,True,HRV,HRV_0279,2022-11-30 20:28:15
54,"[{'imgObject': {}, 'id': 'cherries', 'src': '/static/foodstim60/cherries.jpg', 'key': 'NaN', 'origWidth': 410, 'origHeight': 411, 'width': 410, 'height': 411, 'widthPercent': 0.8, 'rescaleHeight': True, 'trialN': 54, 'loaded': True, 'loadedTime': 1943.7000000476837, 'positionName': 'CENTER', 'positionCoords': [479, 250.5]}]",Rate how much you want to eat this food from 0 (least) to 10 (most).,83806.5,1669840083651,cherries,1681.1000000238419,True,5.55,85487.60000002384,1681.1000000238419,True,HRV,HRV_0279,2022-11-30 20:28:15
55,"[{'imgObject': {}, 'id': 'banana', 'src': '/static/foodstim60/banana.jpg', 'key': 'NaN', 'origWidth': 410, 'origHeight': 410, 'width': 410, 'height': 410, 'widthPercent': 0.8, 'rescaleHeight': True, 'trialN': 55, 'loaded': True, 'loadedTime': 1944.2000000476837, 'positionName': 'CENTER', 'positionCoords': [479, 251]}]",Rate how much you want to eat this food from 0 (least) to 10 (most).,85489.40000003576,1669840085334,banana,1117.800000011921,True,5.99,86607.20000004768,1117.800000011921,True,HRV,HRV_0279,2022-11-30 20:28:15
56,"[{'imgObject': {}, 'id': 'omelette', 'src': '/static/foodstim60/omelette.jpg', 'key': 'NaN', 'origWidth': 410, 'origHeight': 409, 'width': 410, 'height': 409, 'widthPercent': 0.8, 'rescaleHeight': True, 'trialN': 56, 'loaded': True, 'loadedTime': 1944.4000000357628, 'positionName': 'CENTER', 'positionCoords': [479, 251.5]}]",Rate how much you want to eat this food from 0 (least) to 10 (most).,86609.0,1669840086453,omelette,1167.1000000238419,True,3.37,87776.10000002384,1167.1000000238419,True,HRV,HRV_0279,2022-11-30 20:28:15
57,"[{'imgObject': {}, 'id': 'froot loops w milk', 'src': '/static/foodstim60/froot loops w milk.jpg', 'key': 'NaN', 'origWidth': 410, 'origHeight': 410, 'width': 410, 'height': 410, 'widthPercent': 0.8, 'rescaleHeight': True, 'trialN': 57, 'loaded': True, 'loadedTime': 1944.5, 'positionName': 'CENTER', 'positionCoords': [479, 251]}]",Rate how much you want to eat this food from 0 (least) to 10 (most).,87777.60000002384,1669840087622,froot loops w milk,997.6999999880791,True,6.4,88775.30000001192,997.6999999880791,True,HRV,HRV_0279,2022-11-30 20:28:15
58,"[{'imgObject': {}, 'id': 'eggs', 'src': '/static/foodstim60/eggs.jpg', 'key': 'NaN', 'origWidth': 409, 'origHeight': 409, 'width': 409, 'height': 409, 'widthPercent': 0.8, 'rescaleHeight': True, 'trialN': 58, 'loaded': True, 'loadedTime': 1944.7000000476837, 'positionName': 'CENTER', 'positionCoords': [479.5, 251.5]}]",Rate how much you want to eat this food from 0 (least) to 10 (most).,88777.10000002384,1669840088622,eggs,2106.100000023842,True,5.26,90883.20000004768,2106.100000023842,True,HRV,HRV_0279,2022-11-30 20:28:15
59,"[{'imgObject': {}, 'id': 'luckycharms', 'src': '/static/foodstim60/luckycharms.jpg', 'key': 'NaN', 'origWidth': 410, 'origHeight': 409, 'width': 410, 'height': 409, 'widthPercent': 0.8, 'rescaleHeight': True, 'trialN': 59, 'loaded': True, 'loadedTime': 1949.7000000476837, 'positionName': 'CENTER', 'positionCoords': [479, 251.5]}]",Rate how much you want to eat this food from 0 (least) to 10 (most).,90884.5,1669840090729,luckycharms,1316.9000000357628,True,8.2,92201.40000003576,1316.9000000357628,True,HRV,HRV_0279,2022-11-30 20:28:15
