success,trial_type,trial_index,time_elapsed,internal_node_id,Block,TrialNumber,TrialTime,trialTimeDiff,FPS_avg,FPS_med,FPS_mode,TrialDur,winResizeTime,rt,block,button_pressed,missTrial,missTrialMsg,MotCoh,MotDir,ColCoh,Color,ChoiceKey,Choice,Accuracy,RT,nFrames,FPS,PPD,onsetDelay,fullScreenExitTime,canvCenter,TrialType,Score,BlockTrial,stimulus,button_labels,exp,subjectId,date
True,fullscreen,0,1524,0.0-0.0,0.0,1.0,,,,,,,,,,,,,,,,,,,,,,,,,,,,,,,,HRV,HRV_0108,2022-11-30 19:33:29
,wl-check-fps,1,6516,0.0-1.0,0.0,2.0,"[1756.5, 1757.1, 1772.2, 1788.6, 1805, 1822.1, 1838.8, 1855.9, 1872.8, 1889, 1906.4, 1924, 1939.3, 1956.2, 1972.5, 1989.5, 2006.2, 2022.5, 2040.2, 2055.4, 2073.2, 2089.7, 2106.5, 2122.7, 2138.4, 2157.3, 2172.7, 2189.8, 2206.5, 2223.2, 2244.1, 2255.7, 2275.1, 2290, 2305.5, 2323.5, 2339.1, 2356.2, 2375, 2389.3, 2405.4, 2422.2, 2439.7, 2456.1, 2472.1, 2488.8, 2506.3, 2523.4, 2540, 2557.8, 2575.3, 2589.9, 2610.9, 2623.2, 2639, 2658.9, 2672.6, 2689.3, 2710, 2722.8, 2740, 2755.5, 2772.1, 2789, 2806.1, 2823.2, 2839.6, 2855.4, 2872.6, 2889, 2906.1, 2923.6, 2942, 2958.2, 2977.4, 2988.4, 3007.5, 3023, 3039.7, 3055.6, 3072.5, 3089.3, 3105.6, 3124.2, 3139.3, 3155.7, 3173.1, 3193.9, 3206.1, 3225.2, 3238.9, 3258.3, 3273.1, 3291.7, 3306.9, 3323.5, 3340.2, 3356.1, 3373.6, 3389.5, 3406.4, 3423.1, 3439.2, 3456.6, 3473, 3489.9, 3505.6, 3523, 3539.6, 3556, 3572, 3589.2, 3606.7, 3623.1, 3638.9, 3655.9, 3672.5, 3689, 3705.7, 3722.1, 3739, 3755.3, 3773.3, 3792.8, 3806.7, 3822.5, 3839.4, 3856.3, 3872.8, 3888.9, 3905.5, 3922.9, 3940.1, 3955.6, 3973, 3989.7, 4005.5, 4022.2, 4038.9, 4060.9, 4072.4, 4089.7, 4106.3, 4127.9, 4138.6, 4156.7, 4172.5, 4187.5, 4205.1, 4222.2, 4238.4, 4255.7, 4271.8, 4287.9, 4304.7, 4321.4, 4338.4, 4354.5, 4372.3, 4388.8, 4405.6, 4422.3, 4437.9, 4455.3, 4471.9, 4487.9, 4505.4, 4521.3, 4538.5, 4554.7, 4572.5, 4591.7, 4605.7, 4622.4, 4638.7, 4655.5, 4672.7, 4687.7, 4704.8, 4722, 4738.5, 4754.5, 4771.8, 4789, 4805.2, 4822.5, 4838.2, 4858.4, 4871.7, 4888.3, 4905.2, 4923.8, 4942.1, 4956.4, 4976.5, 4988.8, 5006.2, 5022.2, 5038.4, 5055.1, 5073.1, 5089.4, 5105.8, 5123, 5139.8, 5155.6, 5173.1, 5194.5, 5205.9, 5222, 5238.5, 5255.8, 5273.1, 5289.3, 5305.8, 5322.2, 5339.4, 5355, 5371.9, 5388.6, 5406, 5422.6, 5441.5, 5456.2, 5473.5, 5489.3, 5506.8, 5522, 5538.2, 5555.8, 5573.1, 5589.3, 5605.5, 5621.8, 5639.6, 5655.5, 5672, 5689.1, 5705.5, 5722.4, 5741.7, 5756.5, 5774.5, 5789.1, 5805.5, 5822.7, 5839.5, 5855, 5872.6, 5888.6, 5906, 5922.6, 5939.3, 5955.9, 5971.9, 5988.6, 6005.7, 6022.7, 6041.5, 6057.7, 6072.7, 6094.4, 6105.3, 6125.1, 6139.2, 6155.1, 6172.4, 6195.3, 6205.6, 6222.8, 6238.8, 6255.9, 6272.6, 6289.9, 6305.7, 6322, 6338.5, 6355.2, 6374.9, 6389.4, 6406.3, 6421.9, 6438.7, 6455.2, 6472.5, 6488.6, 6505.2, 6522.2, 6538.6, 6555.2, 6573.3, 6588.4, 6605.5, 6627.2, 6639.3, 6655.2, 6671.9, 6690, 6705.2, 6722.4]","[3.1, 0.6, 15.1, 16.4, 16.4, 17.1, 16.7, 17.1, 16.9, 16.2, 17.4, 17.6, 15.3, 16.9, 16.3, 17, 16.7, 16.3, 17.7, 15.2, 17.8, 16.5, 16.8, 16.2, 15.7, 18.9, 15.4, 17.1, 16.7, 16.7, 20.9, 11.6, 19.4, 14.9, 15.5, 18, 15.6, 17.1, 18.8, 14.3, 16.1, 16.8, 17.5, 16.4, 16, 16.7, 17.5, 17.1, 16.6, 17.8, 17.5, 14.6, 21, 12.3, 15.8, 19.9, 13.7, 16.7, 20.7, 12.8, 17.2, 15.5, 16.6, 16.9, 17.1, 17.1, 16.4, 15.8, 17.2, 16.4, 17.1, 17.5, 18.4, 16.2, 19.2, 11, 19.1, 15.5, 16.7, 15.9, 16.9, 16.8, 16.3, 18.6, 15.1, 16.4, 17.4, 20.8, 12.2, 19.1, 13.7, 19.4, 14.8, 18.6, 15.2, 16.6, 16.7, 15.9, 17.5, 15.9, 16.9, 16.7, 16.1, 17.4, 16.4, 16.9, 15.7, 17.4, 16.6, 16.4, 16, 17.2, 17.5, 16.4, 15.8, 17, 16.6, 16.5, 16.7, 16.4, 16.9, 16.3, 18, 19.5, 13.9, 15.8, 16.9, 16.9, 16.5, 16.1, 16.6, 17.4, 17.2, 15.5, 17.4, 16.7, 15.8, 16.7, 16.7, 22, 11.5, 17.3, 16.6, 21.6, 10.7, 18.1, 15.8, 15, 17.6, 17.1, 16.2, 17.3, 16.1, 16.1, 16.8, 16.7, 17, 16.1, 17.8, 16.5, 16.8, 16.7, 15.6, 17.4, 16.6, 16, 17.5, 15.9, 17.2, 16.2, 17.8, 19.2, 14, 16.7, 16.3, 16.8, 17.2, 15, 17.1, 17.2, 16.5, 16, 17.3, 17.2, 16.2, 17.3, 15.7, 20.2, 13.3, 16.6, 16.9, 18.6, 18.3, 14.3, 20.1, 12.3, 17.4, 16, 16.2, 16.7, 18, 16.3, 16.4, 17.2, 16.8, 15.8, 17.5, 21.4, 11.4, 16.1, 16.5, 17.3, 17.3, 16.2, 16.5, 16.4, 17.2, 15.6, 16.9, 16.7, 17.4, 16.6, 18.9, 14.7, 17.3, 15.8, 17.5, 15.2, 16.2, 17.6, 17.3, 16.2, 16.2, 16.3, 17.8, 15.9, 16.5, 17.1, 16.4, 16.9, 19.3, 14.8, 18, 14.6, 16.4, 17.2, 16.8, 15.5, 17.6, 16, 17.4, 16.6, 16.7, 16.6, 16, 16.7, 17.1, 17, 18.8, 16.2, 15, 21.7, 10.9, 19.8, 14.1, 15.9, 17.3, 22.9, 10.3, 17.2, 16, 17.1, 16.7, 17.3, 15.8, 16.3, 16.5, 16.7, 19.7, 14.5, 16.9, 15.6, 16.8, 16.5, 17.3, 16.1, 16.6, 17, 16.4, 16.6, 18.1, 15.1, 17.1, 21.7, 12.1, 15.9, 16.7, 18.1, 15.2, 17.2]",60.0,60.0,60.0,4985.3,[],,,,,,,,,,,,,,,,,,,,,,,,,HRV,HRV_0108,2022-11-30 19:33:29
,wl-html-keyboard-response,2,2720874,0.0-2.0-0.0,0.0,2.0,,,,,,,,174172.5,0.0,0,True,undefinedblurEvent ,,,,,,,,,,,,,,,,,,,,HRV,HRV_0108,2022-11-30 19:33:29
,wl-rdm,3,2731232,0.0-3.0-0.0,0.0,3.0,,,,,,,[],,,,False,too_early ,0.0,0.0,87.9,0.0,u,0.0,True,766.6000000005588,46.0,60.0,40.0,3000.0,[],"[756, 472.5]",ColorTask_Demo,,,,,HRV,HRV_0108,2022-11-30 19:33:29
,wl-rdm,4,2735996,0.0-3.0-1.0,0.0,4.0,,,,,,,[],,,,False,,0.0,0.0,87.9,1.0,i,1.0,True,708.1999999992549,43.0,60.0,40.0,2000.0,[],"[756, 472.5]",ColorTask_Demo,,,,,HRV,HRV_0108,2022-11-30 19:33:29
,wl-html-keyboard-response,5,2740173,0.0-3.0-2.0,0.0,5.0,,,,,,,,2170.0,0.0,1,,,,,,,,,,,,,,,,,,,,,,HRV,HRV_0108,2022-11-30 19:33:29
,wl-html-keyboard-response,6,2749362,0.0-4.0-0.0,0.0,6.0,,,,,,,,7181.5999999996275,0.0,0,,,,,,,,,,,,,,,,,,,,,,HRV,HRV_0108,2022-11-30 19:33:29
,wl-html-keyboard-response,7,2764409,0.0-5.0-0.0,0.0,7.0,,,,,,,,13039.5,0.0,0,,,,,,,,,,,,,,,,,,,,,,HRV,HRV_0108,2022-11-30 19:33:29
,wl-rdm,8,2766846,0.0-6.0-0.0,0.0,8.0,,,,,,,[],,,,False,,,,62.5,0.0,i,1.0,False,1139.300000000745,69.0,60.0,40.0,204.37855031764047,[],"[756, 472.5]",ColorTask,-1.0,1.0,,,HRV,HRV_0108,2022-11-30 19:33:29
,wl-rdm,9,2769278,0.0-6.1-0.1,0.0,9.0,,,,,,,[],,,,False,,,,73.6,0.0,u,0.0,True,1074.2000000001863,65.0,60.0,40.0,290.2594060725646,[],"[756, 472.5]",ColorTask,0.0,2.0,,,HRV,HRV_0108,2022-11-30 19:33:29
,wl-rdm,10,2771728,0.0-6.2-0.2,0.0,10.0,,,,,,,[],,,,False,,,,53.2,0.0,i,1.0,False,1064.9000000003725,64.0,60.0,40.0,332.5534318918755,[],"[756, 472.5]",ColorTask,-1.0,3.0,,,HRV,HRV_0108,2022-11-30 19:33:29
,wl-rdm,11,2774029,0.0-6.3-0.3,0.0,11.0,,,,,,,[],,,,False,,,,73.6,0.0,u,0.0,True,962.4000000003725,58.0,60.0,40.0,272.9119064907898,[],"[756, 472.5]",ColorTask,0.0,4.0,,,HRV,HRV_0108,2022-11-30 19:33:29
,wl-rdm,12,2776679,0.0-6.4-0.4,0.0,12.0,,,,,,,[],,,,False,,,,56.4,1.0,i,1.0,True,1357.5,82.0,60.0,40.0,227.62051246679437,[],"[756, 472.5]",ColorTask,1.0,5.0,,,HRV,HRV_0108,2022-11-30 19:33:29
,wl-rdm,13,2779329,0.0-6.5-0.5,0.0,13.0,,,,,,,[],,,,False,,,,50.0,0.0,u,0.0,True,1222.7000000001863,74.0,60.0,40.0,357.17068530276833,[],"[756, 472.5]",ColorTask,2.0,6.0,,,HRV,HRV_0108,2022-11-30 19:33:29
,wl-rdm,14,2781512,0.0-6.6-0.6,0.0,14.0,,,,,,,[],,,,False,,,,73.6,1.0,i,1.0,True,756.6999999992549,46.0,60.0,40.0,342.22223517354735,[],"[756, 472.5]",ColorTask,3.0,7.0,,,HRV,HRV_0108,2022-11-30 19:33:29
,wl-rdm,15,2783862,0.0-6.7-0.7,0.0,15.0,,,,,,,[],,,,False,,,,73.6,1.0,i,1.0,True,989.4000000003725,60.0,60.0,40.0,270.60614070475697,[],"[756, 472.5]",ColorTask,4.0,8.0,,,HRV,HRV_0108,2022-11-30 19:33:29
,wl-rdm,16,2786129,0.0-6.8-0.8,0.0,16.0,,,,,,,[],,,,False,,,,53.2,1.0,i,1.0,True,878.7000000001863,53.0,60.0,40.0,318.1362915671026,[],"[756, 472.5]",ColorTask,5.0,9.0,,,HRV,HRV_0108,2022-11-30 19:33:29
,wl-rdm,17,2788212,0.0-6.9-0.9,0.0,17.0,,,,,,,[],,,,False,,,,56.4,1.0,i,1.0,True,765.0999999996275,46.0,60.0,40.0,266.51669948952645,[],"[756, 472.5]",ColorTask,6.0,10.0,,,HRV,HRV_0108,2022-11-30 19:33:29
,wl-rdm,18,2790528,0.0-6.10-0.10,0.0,18.0,,,,,,,[],,,,False,,,,53.2,0.0,i,1.0,False,861.0,52.0,60.0,40.0,398.86892557836006,[],"[756, 472.5]",ColorTask,5.0,11.0,,,HRV,HRV_0108,2022-11-30 19:33:29
,wl-rdm,19,2792795,0.0-6.11-0.11,0.0,19.0,,,,,,,[],,,,False,,,,62.5,0.0,i,1.0,False,909.0,55.0,60.0,40.0,295.6494499507643,[],"[756, 472.5]",ColorTask,4.0,12.0,,,HRV,HRV_0108,2022-11-30 19:33:29
,wl-rdm,20,2794912,0.0-6.12-0.12,0.0,20.0,,,,,,,[],,,,False,,,,87.9,1.0,i,1.0,True,641.4000000003725,39.0,60.0,40.0,392.91912711656533,[],"[756, 472.5]",ColorTask,5.0,13.0,,,HRV,HRV_0108,2022-11-30 19:33:29
,wl-rdm,21,2797062,0.0-6.13-0.13,0.0,21.0,,,,,,,[],,,,False,,,,53.2,0.0,i,1.0,False,804.5999999996275,49.0,60.0,40.0,269.6879787200469,[],"[756, 472.5]",ColorTask,4.0,14.0,,,HRV,HRV_0108,2022-11-30 19:33:29
,wl-rdm,22,2799662,0.0-6.14-0.14,0.0,22.0,,,,,,,[],,,,False,,,,50.0,1.0,u,0.0,False,1239.5000000009313,75.0,60.0,40.0,276.9618730701504,[],"[756, 472.5]",ColorTask,3.0,15.0,,,HRV,HRV_0108,2022-11-30 19:33:29
,wl-rdm,23,2801612,0.0-6.15-0.15,0.0,23.0,,,,,,,[],,,,False,,,,73.6,1.0,i,1.0,True,658.7999999998137,40.0,60.0,40.0,232.5103173423937,[],"[756, 472.5]",ColorTask,4.0,16.0,,,HRV,HRV_0108,2022-11-30 19:33:29
,wl-rdm,24,2804296,0.0-6.16-0.16,0.0,24.0,,,,,,,[],,,,False,,,,50.0,1.0,u,0.0,False,1260.2000000001863,76.0,60.0,40.0,336.77963847822315,[],"[756, 472.5]",ColorTask,3.0,17.0,,,HRV,HRV_0108,2022-11-30 19:33:29
,wl-rdm,25,2806229,0.0-6.17-0.17,0.0,25.0,,,,,,,[],,,,False,,,,62.5,1.0,i,1.0,True,647.7000000001863,39.0,60.0,40.0,211.95649691781932,[],"[756, 472.5]",ColorTask,4.0,18.0,,,HRV,HRV_0108,2022-11-30 19:33:29
,wl-rdm,26,2808580,0.0-6.18-0.18,0.0,26.0,,,,,,,[],,,,False,,,,56.4,1.0,i,1.0,True,1043.5999999996275,63.0,60.0,40.0,227.05682377635057,[],"[756, 472.5]",ColorTask,5.0,19.0,,,HRV,HRV_0108,2022-11-30 19:33:29
,wl-rdm,27,2810915,0.0-6.19-0.19,0.0,27.0,,,,,,,[],,,,False,,,,73.6,0.0,u,0.0,True,931.2999999998137,56.0,60.0,40.0,334.0442229851734,[],"[756, 472.5]",ColorTask,6.0,20.0,,,HRV,HRV_0108,2022-11-30 19:33:29
,wl-rdm,28,2813045,0.0-6.20-0.20,0.0,28.0,,,,,,,[],,,,False,,,,73.6,1.0,i,1.0,True,753.2999999988824,46.0,60.0,40.0,291.01589429912417,[],"[756, 472.5]",ColorTask,7.0,21.0,,,HRV,HRV_0108,2022-11-30 19:33:29
,wl-rdm,29,2815346,0.0-6.21-0.21,0.0,29.0,,,,,,,[],,,,False,,,,53.2,1.0,i,1.0,True,992.2999999998137,60.0,60.0,40.0,220.08494495386452,[],"[756, 472.5]",ColorTask,8.0,22.0,,,HRV,HRV_0108,2022-11-30 19:33:29
,wl-rdm,30,2817462,0.0-6.22-0.22,0.0,30.0,,,,,,,[],,,,False,,,,50.0,1.0,i,1.0,True,740.7999999998137,45.0,60.0,40.0,307.25269453414285,[],"[756, 472.5]",ColorTask,9.0,23.0,,,HRV,HRV_0108,2022-11-30 19:33:29
,wl-rdm,31,2819645,0.0-6.23-0.23,0.0,31.0,,,,,,,[],,,,False,,,,56.4,0.0,u,0.0,True,876.2999999998137,53.0,60.0,40.0,234.2527474088492,[],"[756, 472.5]",ColorTask,10.0,24.0,,,HRV,HRV_0108,2022-11-30 19:33:29
,wl-rdm,32,2821812,0.0-6.24-0.24,0.0,32.0,,,,,,,[],,,,False,,,,87.9,0.0,u,0.0,True,792.6000000005588,48.0,60.0,40.0,305.6806893149892,[],"[756, 472.5]",ColorTask,11.0,25.0,,,HRV,HRV_0108,2022-11-30 19:33:29
,wl-rdm,33,2823879,0.0-6.25-0.25,0.0,33.0,,,,,,,[],,,,False,,,,87.9,0.0,u,0.0,True,770.2000000001863,46.0,60.0,40.0,223.6981333375838,[],"[756, 472.5]",ColorTask,12.0,26.0,,,HRV,HRV_0108,2022-11-30 19:33:29
,wl-rdm,34,2825946,0.0-6.26-0.26,0.0,34.0,,,,,,,[],,,,False,,,,53.2,1.0,i,1.0,True,712.9000000003725,43.0,60.0,40.0,279.9019056407283,[],"[756, 472.5]",ColorTask,13.0,27.0,,,HRV,HRV_0108,2022-11-30 19:33:29
,wl-rdm,35,2828563,0.0-6.27-0.27,0.0,35.0,,,,,,,[],,,,False,,,,56.4,0.0,i,1.0,False,1211.1000000005588,73.0,60.0,40.0,344.96204369926113,[],"[756, 472.5]",ColorTask,12.0,28.0,,,HRV,HRV_0108,2022-11-30 19:33:29
,wl-rdm,36,2830528,0.0-6.28-0.28,0.0,36.0,,,,,,,[],,,,False,,,,50.0,1.0,i,1.0,True,675.9999999990687,41.0,60.0,40.0,220.23270720507495,[],"[756, 472.5]",ColorTask,13.0,29.0,,,HRV,HRV_0108,2022-11-30 19:33:29
,wl-rdm,37,2832611,0.0-6.29-0.29,0.0,37.0,,,,,,,[],,,,False,,,,50.0,0.0,i,1.0,False,706.8999999994412,43.0,60.0,40.0,312.4396263741636,[],"[756, 472.5]",ColorTask,12.0,30.0,,,HRV,HRV_0108,2022-11-30 19:33:29
,wl-rdm,38,2834428,0.0-6.30-0.30,0.0,38.0,,,,,,,[],,,,False,,,,62.5,1.0,i,1.0,True,528.5,32.0,60.0,40.0,218.7175032769898,[],"[756, 472.5]",ColorTask,13.0,31.0,,,HRV,HRV_0108,2022-11-30 19:33:29
,wl-rdm,39,2836745,0.0-6.31-0.31,0.0,39.0,,,,,,,[],,,,False,,,,50.0,0.0,i,1.0,False,899.5000000009313,54.0,60.0,40.0,337.08554704891174,[],"[756, 472.5]",ColorTask,12.0,32.0,,,HRV,HRV_0108,2022-11-30 19:33:29
,wl-rdm,40,2838879,0.0-6.32-0.32,0.0,40.0,,,,,,,[],,,,False,,,,56.4,0.0,i,1.0,False,675.6000000005588,41.0,60.0,40.0,399.2915488399075,[],"[756, 472.5]",ColorTask,11.0,33.0,,,HRV,HRV_0108,2022-11-30 19:33:29
,wl-rdm,41,2841145,0.0-6.33-0.33,0.0,41.0,,,,,,,[],,,,False,,,,53.2,1.0,i,1.0,True,808.0999999996275,49.0,60.0,40.0,388.7786046372472,[],"[756, 472.5]",ColorTask,12.0,34.0,,,HRV,HRV_0108,2022-11-30 19:33:29
,wl-rdm,42,2844262,0.0-6.34-0.34,0.0,42.0,,,,,,,[],,,,False,,,,62.5,0.0,i,1.0,False,1796.9999999990687,108.0,60.0,40.0,236.2207072115386,[],"[756, 472.5]",ColorTask,11.0,35.0,,,HRV,HRV_0108,2022-11-30 19:33:29
,wl-rdm,43,2846346,0.0-6.35-0.35,0.0,43.0,,,,,,,[],,,,False,,,,50.0,1.0,i,1.0,True,689.6000000005588,42.0,60.0,40.0,328.63234173531725,[],"[756, 472.5]",ColorTask,12.0,36.0,,,HRV,HRV_0108,2022-11-30 19:33:29
,wl-rdm,44,2848562,0.0-6.36-0.36,0.0,44.0,,,,,,,[],,,,False,,,,53.2,0.0,i,1.0,False,769.6999999992549,46.0,60.0,40.0,371.05649479201185,[],"[756, 472.5]",ColorTask,11.0,37.0,,,HRV,HRV_0108,2022-11-30 19:33:29
,wl-rdm,45,2850679,0.0-6.37-0.37,0.0,45.0,,,,,,,[],,,,False,,,,73.6,1.0,i,1.0,True,692.8000000007451,42.0,60.0,40.0,339.1312015800185,[],"[756, 472.5]",ColorTask,12.0,38.0,,,HRV,HRV_0108,2022-11-30 19:33:29
,wl-rdm,46,2852729,0.0-6.38-0.38,0.0,46.0,,,,,,,[],,,,False,,,,73.6,0.0,u,0.0,True,775.1000000005588,47.0,60.0,40.0,211.21726576886394,[],"[756, 472.5]",ColorTask,13.0,39.0,,,HRV,HRV_0108,2022-11-30 19:33:29
,wl-rdm,47,2854779,0.0-6.39-0.39,0.0,47.0,,,,,,,[],,,,False,,,,73.6,1.0,i,1.0,True,708.2999999998137,43.0,60.0,40.0,270.8836165697786,[],"[756, 472.5]",ColorTask,14.0,40.0,,,HRV,HRV_0108,2022-11-30 19:33:29
,wl-rdm,48,2857145,0.0-6.40-0.40,0.0,48.0,,,,,,,[],,,,False,,,,56.4,0.0,u,0.0,True,1029.7999999998137,62.0,60.0,40.0,261.5078945426028,[],"[756, 472.5]",ColorTask,15.0,41.0,,,HRV,HRV_0108,2022-11-30 19:33:29
,wl-rdm,49,2859279,0.0-6.41-0.41,0.0,49.0,,,,,,,[],,,,False,,,,62.5,0.0,u,0.0,True,839.2000000001863,51.0,60.0,40.0,225.14879122408092,[],"[756, 472.5]",ColorTask,16.0,42.0,,,HRV,HRV_0108,2022-11-30 19:33:29
,wl-rdm,50,2861328,0.0-6.42-0.42,0.0,50.0,,,,,,,[],,,,False,,,,53.2,0.0,i,1.0,False,678.3999999994412,41.0,60.0,40.0,309.04449081522904,[],"[756, 472.5]",ColorTask,15.0,43.0,,,HRV,HRV_0108,2022-11-30 19:33:29
,wl-rdm,51,2863612,0.0-6.43-0.43,0.0,51.0,,,,,,,[],,,,False,,,,62.5,0.0,u,0.0,True,1006.2000000001863,61.0,60.0,40.0,201.81896389806894,[],"[756, 472.5]",ColorTask,16.0,44.0,,,HRV,HRV_0108,2022-11-30 19:33:29
,wl-rdm,52,2866046,0.0-6.44-0.44,0.0,52.0,,,,,,,[],,,,False,,,,50.0,1.0,i,1.0,True,1110.2999999998137,67.0,60.0,40.0,238.4470789998061,[],"[756, 472.5]",ColorTask,17.0,45.0,,,HRV,HRV_0108,2022-11-30 19:33:29
,wl-rdm,53,2868361,0.0-6.45-0.45,0.0,53.0,,,,,,,[],,,,False,,,,56.4,0.0,u,0.0,True,892.2999999988824,54.0,60.0,40.0,334.6425851175255,[],"[756, 472.5]",ColorTask,18.0,46.0,,,HRV,HRV_0108,2022-11-30 19:33:29
,wl-rdm,54,2870446,0.0-6.46-0.46,0.0,54.0,,,,,,,[],,,,False,,,,87.9,0.0,u,0.0,True,773.7000000001863,47.0,60.0,40.0,224.42078260234484,[],"[756, 472.5]",ColorTask,19.0,47.0,,,HRV,HRV_0108,2022-11-30 19:33:29
,wl-rdm,55,2873062,0.0-6.47-0.47,0.0,55.0,,,,,,,[],,,,False,,,,73.6,0.0,u,0.0,True,1178.199999999255,71.0,60.0,40.0,371.0243598402327,[],"[756, 472.5]",ColorTask,20.0,48.0,,,HRV,HRV_0108,2022-11-30 19:33:29
,wl-rdm,56,2875495,0.0-6.48-0.48,0.0,56.0,,,,,,,[],,,,False,,,,53.2,1.0,i,1.0,True,1146.2000000001863,69.0,60.0,40.0,228.31273480982495,[],"[756, 472.5]",ColorTask,21.0,49.0,,,HRV,HRV_0108,2022-11-30 19:33:29
,wl-rdm,57,2877482,0.0-6.49-0.49,0.0,57.0,,,,,,,[],,,,False,,,,87.9,1.0,i,1.0,True,641.7000000001863,39.0,60.0,40.0,282.23266610847196,[],"[756, 472.5]",ColorTask,22.0,50.0,,,HRV,HRV_0108,2022-11-30 19:33:29
,wl-rdm,58,2879445,0.0-6.50-0.50,0.0,58.0,,,,,,,[],,,,False,,,,56.4,1.0,i,1.0,True,657.6000000005588,40.0,60.0,40.0,237.18148628555636,[],"[756, 472.5]",ColorTask,23.0,51.0,,,HRV,HRV_0108,2022-11-30 19:33:29
,wl-rdm,59,2881663,0.0-6.51-0.51,0.0,59.0,,,,,,,[],,,,False,,,,87.9,0.0,u,0.0,True,924.8999999994412,56.0,60.0,40.0,209.31154079830378,[],"[756, 472.5]",ColorTask,24.0,52.0,,,HRV,HRV_0108,2022-11-30 19:33:29
,wl-rdm,60,2884112,0.0-6.52-0.52,0.0,60.0,,,,,,,[],,,,False,,,,50.0,0.0,i,1.0,False,1042.2999999998137,63.0,60.0,40.0,324.22631787005923,[],"[756, 472.5]",ColorTask,23.0,53.0,,,HRV,HRV_0108,2022-11-30 19:33:29
,wl-rdm,61,2886046,0.0-6.53-0.53,0.0,61.0,,,,,,,[],,,,False,,,,62.5,1.0,i,1.0,True,591.5,36.0,60.0,40.0,254.46369891252306,[],"[756, 472.5]",ColorTask,24.0,54.0,,,HRV,HRV_0108,2022-11-30 19:33:29
,wl-rdm,62,2888046,0.0-6.54-0.54,0.0,62.0,,,,,,,[],,,,False,,,,87.9,1.0,i,1.0,True,573.5999999996275,35.0,60.0,40.0,358.4757041807826,[],"[756, 472.5]",ColorTask,25.0,55.0,,,HRV,HRV_0108,2022-11-30 19:33:29
,wl-rdm,63,2890112,0.0-6.55-0.55,0.0,63.0,,,,,,,[],,,,False,,,,62.5,1.0,i,1.0,True,697.2000000001863,42.0,60.0,40.0,302.17001706425174,[],"[756, 472.5]",ColorTask,26.0,56.0,,,HRV,HRV_0108,2022-11-30 19:33:29
,wl-rdm,64,2892479,0.0-6.56-0.56,0.0,64.0,,,,,,,[],,,,False,,,,62.5,0.0,u,0.0,True,1018.2000000011176,61.0,60.0,40.0,272.37403931389775,[],"[756, 472.5]",ColorTask,27.0,57.0,,,HRV,HRV_0108,2022-11-30 19:33:29
,wl-rdm,65,2894562,0.0-6.57-0.57,0.0,65.0,,,,,,,[],,,,False,,,,50.0,0.0,i,1.0,False,636.0,38.0,60.0,40.0,382.90656651773963,[],"[756, 472.5]",ColorTask,26.0,58.0,,,HRV,HRV_0108,2022-11-30 19:33:29
,wl-rdm,66,2896645,0.0-6.58-0.58,0.0,66.0,,,,,,,[],,,,False,,,,56.4,1.0,i,1.0,True,741.7999999998137,45.0,60.0,40.0,257.9878551144639,[],"[756, 472.5]",ColorTask,27.0,59.0,,,HRV,HRV_0108,2022-11-30 19:33:29
,wl-rdm,67,2898829,0.0-6.59-0.59,0.0,67.0,,,,,,,[],,,,False,,,,50.0,0.0,u,0.0,True,884.2999999998137,53.0,60.0,40.0,226.97098183485562,[],"[756, 472.5]",ColorTask,28.0,60.0,,,HRV,HRV_0108,2022-11-30 19:33:29
,wl-rdm,68,2900729,0.0-6.60-0.60,0.0,68.0,,,,,,,[],,,,False,,,,73.6,1.0,i,1.0,True,607.5999999996275,37.0,60.0,40.0,233.13650580784508,[],"[756, 472.5]",ColorTask,29.0,61.0,,,HRV,HRV_0108,2022-11-30 19:33:29
,wl-rdm,69,2902695,0.0-6.61-0.61,0.0,69.0,,,,,,,[],,,,False,,,,50.0,1.0,u,0.0,False,682.8999999994412,41.0,60.0,40.0,202.65519035446871,[],"[756, 472.5]",ColorTask,28.0,62.0,,,HRV,HRV_0108,2022-11-30 19:33:29
,wl-rdm,70,2904979,0.0-6.62-0.62,0.0,70.0,,,,,,,[],,,,False,,,,50.0,1.0,u,0.0,False,997.0999999996275,60.0,60.0,40.0,206.9668413004895,[],"[756, 472.5]",ColorTask,27.0,63.0,,,HRV,HRV_0108,2022-11-30 19:33:29
,wl-rdm,71,2907429,0.0-6.63-0.63,0.0,71.0,,,,,,,[],,,,False,,,,73.6,0.0,u,0.0,True,1058.4999999990687,64.0,60.0,40.0,321.57752045991805,[],"[756, 472.5]",ColorTask,28.0,64.0,,,HRV,HRV_0108,2022-11-30 19:33:29
,wl-rdm,72,2909296,0.0-6.64-0.64,0.0,72.0,,,,,,,[],,,,False,,,,87.9,1.0,i,1.0,True,481.3999999994412,29.0,60.0,40.0,305.845813580441,[],"[756, 472.5]",ColorTask,29.0,65.0,,,HRV,HRV_0108,2022-11-30 19:33:29
,wl-rdm,73,2911329,0.0-6.65-0.65,0.0,73.0,,,,,,,[],,,,False,,,,73.6,1.0,i,1.0,True,665.1999999992549,40.0,60.0,40.0,292.61528526216256,[],"[756, 472.5]",ColorTask,30.0,66.0,,,HRV,HRV_0108,2022-11-30 19:33:29
,wl-rdm,74,2913246,0.0-6.66-0.66,0.0,74.0,,,,,,,[],,,,False,,,,50.0,0.0,u,0.0,True,575.2000000001863,35.0,60.0,40.0,271.7746550681519,[],"[756, 472.5]",ColorTask,31.0,67.0,,,HRV,HRV_0108,2022-11-30 19:33:29
,wl-rdm,75,2915163,0.0-6.67-0.67,0.0,75.0,,,,,,,[],,,,False,,,,73.6,0.0,u,0.0,True,592.4000000003725,36.0,60.0,40.0,264.0464727432509,[],"[756, 472.5]",ColorTask,32.0,68.0,,,HRV,HRV_0108,2022-11-30 19:33:29
,wl-rdm,76,2916929,0.0-6.68-0.68,0.0,76.0,,,,,,,[],,,,False,,,,87.9,0.0,u,0.0,True,492.1000000005588,30.0,60.0,40.0,210.78272805146068,[],"[756, 472.5]",ColorTask,33.0,69.0,,,HRV,HRV_0108,2022-11-30 19:33:29
,wl-rdm,77,2918846,0.0-6.69-0.69,0.0,77.0,,,,,,,[],,,,False,,,,56.4,0.0,i,1.0,False,539.3999999994412,33.0,60.0,40.0,309.57838427125085,[],"[756, 472.5]",ColorTask,32.0,70.0,,,HRV,HRV_0108,2022-11-30 19:33:29
,wl-rdm,78,2920646,0.0-6.70-0.70,0.0,78.0,,,,,,,[],,,,False,,,,56.4,1.0,i,1.0,True,425.29999999981374,26.0,60.0,40.0,309.4777134413199,[],"[756, 472.5]",ColorTask,33.0,71.0,,,HRV,HRV_0108,2022-11-30 19:33:29
,wl-rdm,79,2922649,0.0-6.71-0.71,0.0,79.0,,,,,,,[],,,,False,,,,62.5,1.0,i,1.0,True,685.9999999990687,42.0,60.0,40.0,246.66626739530386,[],"[756, 472.5]",ColorTask,34.0,72.0,,,HRV,HRV_0108,2022-11-30 19:33:29
,wl-rdm,80,2924980,0.0-6.72-0.72,0.0,80.0,,,,,,,[],,,,False,,,,62.5,0.0,u,0.0,True,1009.3000000007451,61.0,60.0,40.0,238.8994584843723,[],"[756, 472.5]",ColorTask,35.0,73.0,,,HRV,HRV_0108,2022-11-30 19:33:29
,wl-rdm,81,2926830,0.0-6.73-0.73,0.0,81.0,,,,,,,[],,,,False,,,,56.4,0.0,i,1.0,False,572.2000000001863,35.0,60.0,40.0,207.0255696801791,[],"[756, 472.5]",ColorTask,34.0,74.0,,,HRV,HRV_0108,2022-11-30 19:33:29
,wl-rdm,82,2928812,0.0-6.74-0.74,0.0,82.0,,,,,,,[],,,,False,,,,87.9,0.0,u,0.0,True,708.2999999998137,43.0,60.0,40.0,209.61856749529298,[],"[756, 472.5]",ColorTask,35.0,75.0,,,HRV,HRV_0108,2022-11-30 19:33:29
,wl-rdm,83,2930796,0.0-6.75-0.75,0.0,83.0,,,,,,,[],,,,False,,,,87.9,1.0,i,1.0,True,590.7999999998137,36.0,60.0,40.0,331.5757311508097,[],"[756, 472.5]",ColorTask,36.0,76.0,,,HRV,HRV_0108,2022-11-30 19:33:29
,wl-rdm,84,2932930,0.0-6.76-0.76,0.0,84.0,,,,,,,[],,,,False,,,,87.9,0.0,u,0.0,True,833.8999999994412,50.0,60.0,40.0,222.24918148789092,[],"[756, 472.5]",ColorTask,37.0,77.0,,,HRV,HRV_0108,2022-11-30 19:33:29
,wl-rdm,85,2935295,0.0-6.77-0.77,0.0,85.0,,,,,,,[],,,,False,,,,56.4,1.0,i,1.0,True,1058.5,64.0,60.0,40.0,218.61009832669927,[],"[756, 472.5]",ColorTask,38.0,78.0,,,HRV,HRV_0108,2022-11-30 19:33:29
,wl-rdm,86,2937545,0.0-6.78-0.78,0.0,86.0,,,,,,,[],,,,False,,,,73.6,0.0,u,0.0,True,873.5999999996275,53.0,60.0,40.0,290.5608289965527,[],"[756, 472.5]",ColorTask,39.0,79.0,,,HRV,HRV_0108,2022-11-30 19:33:29
,wl-rdm,87,2939746,0.0-6.79-0.79,0.0,87.0,,,,,,,[],,,,False,,,,53.2,1.0,i,1.0,True,787.5999999996275,47.0,60.0,40.0,342.4054415615908,[],"[756, 472.5]",ColorTask,40.0,80.0,,,HRV,HRV_0108,2022-11-30 19:33:29
,wl-rdm,88,2943145,0.0-6.80-0.80,0.0,88.0,,,,,,,[],,,,False,,,,53.2,0.0,u,0.0,True,1958.800000000745,118.0,60.0,40.0,363.51186618198085,[],"[756, 472.5]",ColorTask,41.0,81.0,,,HRV,HRV_0108,2022-11-30 19:33:29
,wl-rdm,89,2945263,0.0-6.81-0.81,0.0,89.0,,,,,,,[],,,,False,,,,87.9,1.0,i,1.0,True,721.7999999998137,44.0,60.0,40.0,303.07612365174936,[],"[756, 472.5]",ColorTask,42.0,82.0,,,HRV,HRV_0108,2022-11-30 19:33:29
,wl-rdm,90,2947179,0.0-6.82-0.82,0.0,90.0,,,,,,,[],,,,False,,,,56.4,0.0,i,1.0,False,539.2000000001863,33.0,60.0,40.0,302.25541042216014,[],"[756, 472.5]",ColorTask,41.0,83.0,,,HRV,HRV_0108,2022-11-30 19:33:29
,wl-rdm,91,2949596,0.0-6.83-0.83,0.0,91.0,,,,,,,[],,,,False,,,,50.0,0.0,i,1.0,False,1041.7999999988824,63.0,60.0,40.0,311.4074925969257,[],"[756, 472.5]",ColorTask,40.0,84.0,,,HRV,HRV_0108,2022-11-30 19:33:29
,wl-rdm,92,2951829,0.0-6.84-0.84,0.0,92.0,,,,,,,[],,,,False,,,,53.2,0.0,u,0.0,True,824.7999999998137,50.0,60.0,40.0,339.8602887784605,[],"[756, 472.5]",ColorTask,41.0,85.0,,,HRV,HRV_0108,2022-11-30 19:33:29
,wl-rdm,93,2954095,0.0-6.85-0.85,0.0,93.0,,,,,,,[],,,,False,,,,56.4,0.0,i,1.0,False,972.1000000005588,59.0,60.0,40.0,202.42352120687156,[],"[756, 472.5]",ColorTask,40.0,86.0,,,HRV,HRV_0108,2022-11-30 19:33:29
,wl-rdm,94,2956329,0.0-6.86-0.86,0.0,94.0,,,,,,,[],,,,False,,,,56.4,1.0,i,1.0,True,933.5,56.0,60.0,40.0,231.58650847643082,[],"[756, 472.5]",ColorTask,41.0,87.0,,,HRV,HRV_0108,2022-11-30 19:33:29
,wl-rdm,95,2958395,0.0-6.87-0.87,0.0,95.0,,,,,,,[],,,,False,,,,62.5,1.0,i,1.0,True,741.5999999996275,45.0,60.0,40.0,244.16038055270178,[],"[756, 472.5]",ColorTask,42.0,88.0,,,HRV,HRV_0108,2022-11-30 19:33:29
,wl-rdm,96,2961079,0.0-6.88-0.88,0.0,96.0,,,,,,,[],,,,False,,,,53.2,1.0,i,1.0,True,1342.8999999994412,81.0,60.0,40.0,260.8884844017929,[],"[756, 472.5]",ColorTask,43.0,89.0,,,HRV,HRV_0108,2022-11-30 19:33:29
,wl-rdm,97,2963079,0.0-6.89-0.89,0.0,97.0,,,,,,,[],,,,False,,,,87.9,1.0,i,1.0,True,677.1000000005588,41.0,60.0,40.0,258.69400524546666,[],"[756, 472.5]",ColorTask,44.0,90.0,,,HRV,HRV_0108,2022-11-30 19:33:29
,wl-rdm,98,2965230,0.0-6.90-0.90,0.0,98.0,,,,,,,[],,,,False,,,,62.5,0.0,u,0.0,True,830.8000000007451,50.0,60.0,40.0,254.51815392651076,[],"[756, 472.5]",ColorTask,45.0,91.0,,,HRV,HRV_0108,2022-11-30 19:33:29
,wl-rdm,99,2967213,0.0-6.91-0.91,0.0,99.0,,,,,,,[],,,,False,,,,73.6,1.0,i,1.0,True,661.7999999998137,40.0,60.0,40.0,233.48238441167075,[],"[756, 472.5]",ColorTask,46.0,92.0,,,HRV,HRV_0108,2022-11-30 19:33:29
,wl-rdm,100,2969346,0.0-6.92-0.92,0.0,100.0,,,,,,,[],,,,False,,,,87.9,0.0,u,0.0,True,673.5999999996275,41.0,60.0,40.0,372.7607992759855,[],"[756, 472.5]",ColorTask,47.0,93.0,,,HRV,HRV_0108,2022-11-30 19:33:29
,wl-rdm,101,2971247,0.0-6.93-0.93,0.0,101.0,,,,,,,[],,,,False,,,,56.4,1.0,i,1.0,True,609.1999999992549,37.0,60.0,40.0,225.36783167103718,[],"[756, 472.5]",ColorTask,48.0,94.0,,,HRV,HRV_0108,2022-11-30 19:33:29
,wl-rdm,102,2973196,0.0-6.94-0.94,0.0,102.0,,,,,,,[],,,,False,,,,87.9,1.0,i,1.0,True,590.0999999996275,36.0,60.0,40.0,289.77007666417796,[],"[756, 472.5]",ColorTask,49.0,95.0,,,HRV,HRV_0108,2022-11-30 19:33:29
,wl-rdm,103,2975413,0.0-6.95-0.95,0.0,103.0,,,,,,,[],,,,False,,,,62.5,0.0,u,0.0,True,874.5000000009313,53.0,60.0,40.0,259.351935947364,[],"[756, 472.5]",ColorTask,50.0,96.0,,,HRV,HRV_0108,2022-11-30 19:33:29
,wl-rdm,104,2977479,0.0-6.96-0.96,0.0,104.0,,,,,,,[],,,,False,,,,62.5,1.0,u,0.0,False,753.5,45.0,60.0,40.0,247.95516192250497,[],"[756, 472.5]",ColorTask,49.0,97.0,,,HRV,HRV_0108,2022-11-30 19:33:29
,wl-rdm,105,2979479,0.0-6.97-0.97,0.0,105.0,,,,,,,[],,,,False,,,,50.0,1.0,i,1.0,True,731.5999999996275,44.0,60.0,40.0,200.68232685885584,[],"[756, 472.5]",ColorTask,50.0,98.0,,,HRV,HRV_0108,2022-11-30 19:33:29
,wl-rdm,106,2982062,0.0-6.98-0.98,0.0,106.0,,,,,,,[],,,,False,,,,53.2,0.0,u,0.0,True,1225.5999999996275,74.0,60.0,40.0,291.60743698303486,[],"[756, 472.5]",ColorTask,51.0,99.0,,,HRV,HRV_0108,2022-11-30 19:33:29
,wl-rdm,107,2983996,0.0-6.99-0.99,0.0,107.0,,,,,,,[],,,,False,,,,62.5,1.0,i,1.0,True,541.7000000001863,33.0,60.0,40.0,308.0413107288507,[],"[756, 472.5]",ColorTask,52.0,100.0,,,HRV,HRV_0108,2022-11-30 19:33:29
,wl-rdm,108,2986012,0.0-6.100-0.100,0.0,108.0,,,,,,,[],,,,False,,,,87.9,0.0,u,0.0,True,616.5,37.0,60.0,40.0,319.95490694788026,[],"[756, 472.5]",ColorTask,53.0,101.0,,,HRV,HRV_0108,2022-11-30 19:33:29
,wl-rdm,109,2988329,0.0-6.101-0.101,0.0,109.0,,,,,,,[],,,,False,,,,50.0,0.0,u,0.0,True,959.3999999994412,58.0,60.0,40.0,299.25436853516317,[],"[756, 472.5]",ColorTask,54.0,102.0,,,HRV,HRV_0108,2022-11-30 19:33:29
,wl-rdm,110,2991096,0.0-6.102-0.102,0.0,110.0,,,,,,,[],,,,False,,,,53.2,1.0,u,0.0,False,1346.5999999996275,81.0,60.0,40.0,333.95895199284814,[],"[756, 472.5]",ColorTask,53.0,103.0,,,HRV,HRV_0108,2022-11-30 19:33:29
,wl-rdm,111,2993196,0.0-6.103-0.103,0.0,111.0,,,,,,,[],,,,False,,,,53.2,0.0,i,1.0,False,790.3000000007451,48.0,60.0,40.0,220.71846538451334,[],"[756, 472.5]",ColorTask,52.0,104.0,,,HRV,HRV_0108,2022-11-30 19:33:29
,wl-rdm,112,2994912,0.0-6.104-0.104,0.0,112.0,,,,,,,[],,,,False,,,,87.9,1.0,i,1.0,True,443.1000000005588,27.0,60.0,40.0,215.13513678822454,[],"[756, 472.5]",ColorTask,53.0,105.0,,,HRV,HRV_0108,2022-11-30 19:33:29
,wl-rdm,113,2997113,0.0-6.105-0.105,0.0,113.0,,,,,,,[],,,,False,,,,53.2,1.0,i,1.0,True,839.2999999998137,51.0,60.0,40.0,274.46984448035664,[],"[756, 472.5]",ColorTask,54.0,106.0,,,HRV,HRV_0108,2022-11-30 19:33:29
,wl-rdm,114,2999012,0.0-6.106-0.106,0.0,114.0,,,,,,,[],,,,False,,,,73.6,0.0,u,0.0,True,559.6999999992549,34.0,60.0,40.0,263.47171324953626,[],"[756, 472.5]",ColorTask,55.0,107.0,,,HRV,HRV_0108,2022-11-30 19:33:29
,wl-rdm,115,3001129,0.0-6.107-0.107,0.0,115.0,,,,,,,[],,,,False,,,,62.5,1.0,i,1.0,True,730.8000000007451,44.0,60.0,40.0,301.89304773341917,[],"[756, 472.5]",ColorTask,56.0,108.0,,,HRV,HRV_0108,2022-11-30 19:33:29
,wl-html-keyboard-response,116,3023796,0.0-7.0-0.0,1.0,116.0,,,,,,,,20654.5,1.0,0,,,,,,,,,,,,,,,,,,,,,,HRV,HRV_0108,2022-11-30 19:33:29
,wl-rdm,117,3025796,0.0-8.0-0.0,1.0,117.0,,,,,,,[],,,,False,,,,73.6,1.0,i,1.0,True,675.8999999994412,41.0,60.0,40.0,233.72236652615618,[],"[756, 472.5]",ColorTask,57.0,1.0,,,HRV,HRV_0108,2022-11-30 19:33:29
,wl-rdm,118,3027679,0.0-8.1-0.1,1.0,118.0,,,,,,,[],,,,False,,,,50.0,1.0,i,1.0,True,576.2000000001863,35.0,60.0,40.0,234.15603251925916,[],"[756, 472.5]",ColorTask,58.0,2.0,,,HRV,HRV_0108,2022-11-30 19:33:29
,wl-rdm,119,3029696,0.0-8.2-0.2,1.0,119.0,,,,,,,[],,,,False,,,,50.0,1.0,i,1.0,True,691.6999999992549,42.0,60.0,40.0,241.25596620406554,[],"[756, 472.5]",ColorTask,59.0,3.0,,,HRV,HRV_0108,2022-11-30 19:33:29
,wl-rdm,120,3031812,0.0-8.3-0.3,1.0,120.0,,,,,,,[],,,,False,,,,50.0,1.0,u,0.0,False,756.5999999986961,46.0,60.0,40.0,268.79860120181297,[],"[756, 472.5]",ColorTask,58.0,4.0,,,HRV,HRV_0108,2022-11-30 19:33:29
,wl-rdm,121,3034412,0.0-8.4-0.4,1.0,121.0,,,,,,,[],,,,False,,,,53.2,1.0,u,0.0,False,1208.1000000005588,73.0,60.0,40.0,306.12501827609077,[],"[756, 472.5]",ColorTask,57.0,5.0,,,HRV,HRV_0108,2022-11-30 19:33:29
,wl-rdm,122,3036296,0.0-8.5-0.5,1.0,122.0,,,,,,,[],,,,False,,,,87.9,1.0,i,1.0,True,576.7999999998137,35.0,60.0,40.0,226.3583146890827,[],"[756, 472.5]",ColorTask,58.0,6.0,,,HRV,HRV_0108,2022-11-30 19:33:29
,wl-rdm,123,3038399,0.0-8.6-0.6,1.0,123.0,,,,,,,[],,,,False,,,,73.6,0.0,u,0.0,True,731.8000000007451,44.0,60.0,40.0,298.1224432660399,[],"[756, 472.5]",ColorTask,59.0,7.0,,,HRV,HRV_0108,2022-11-30 19:33:29
,wl-rdm,124,3040346,0.0-8.7-0.7,1.0,124.0,,,,,,,[],,,,False,,,,87.9,0.0,u,0.0,True,596.8999999994412,36.0,60.0,40.0,275.9543306697939,[],"[756, 472.5]",ColorTask,60.0,8.0,,,HRV,HRV_0108,2022-11-30 19:33:29
,wl-rdm,125,3042729,0.0-8.8-0.8,1.0,125.0,,,,,,,[],,,,False,,,,53.2,1.0,u,0.0,False,1000.0,60.0,60.0,40.0,312.239976625435,[],"[756, 472.5]",ColorTask,59.0,9.0,,,HRV,HRV_0108,2022-11-30 19:33:29
,wl-rdm,126,3044662,0.0-8.9-0.9,1.0,126.0,,,,,,,[],,,,False,,,,62.5,1.0,i,1.0,True,493.29999999981374,30.0,60.0,40.0,382.18384719890037,[],"[756, 472.5]",ColorTask,60.0,10.0,,,HRV,HRV_0108,2022-11-30 19:33:29
,wl-rdm,127,3046680,0.0-8.10-0.10,1.0,127.0,,,,,,,[],,,,False,,,,62.5,0.0,i,1.0,False,634.8000000007451,38.0,60.0,40.0,309.0582402550349,[],"[756, 472.5]",ColorTask,59.0,11.0,,,HRV,HRV_0108,2022-11-30 19:33:29
,wl-rdm,128,3048513,0.0-8.11-0.11,1.0,128.0,,,,,,,[],,,,False,,,,56.4,0.0,i,1.0,False,509.0,31.0,60.0,40.0,255.38347018976913,[],"[756, 472.5]",ColorTask,58.0,12.0,,,HRV,HRV_0108,2022-11-30 19:33:29
,wl-rdm,129,3050462,0.0-8.12-0.12,1.0,129.0,,,,,,,[],,,,False,,,,73.6,0.0,u,0.0,True,630.0999999996275,38.0,60.0,40.0,253.57165375852102,[],"[756, 472.5]",ColorTask,59.0,13.0,,,HRV,HRV_0108,2022-11-30 19:33:29
,wl-rdm,130,3052296,0.0-8.13-0.13,1.0,130.0,,,,,,,[],,,,False,,,,56.4,1.0,u,0.0,False,563.3999999994412,34.0,60.0,40.0,209.78196267062768,[],"[756, 472.5]",ColorTask,58.0,14.0,,,HRV,HRV_0108,2022-11-30 19:33:29
,wl-rdm,131,3054195,0.0-8.14-0.14,1.0,131.0,,,,,,,[],,,,False,,,,56.4,1.0,i,1.0,True,602.5999999996275,36.0,60.0,40.0,231.67932983717392,[],"[756, 472.5]",ColorTask,59.0,15.0,,,HRV,HRV_0108,2022-11-30 19:33:29
,wl-rdm,132,3056146,0.0-8.15-0.15,1.0,132.0,,,,,,,[],,,,False,,,,87.9,0.0,u,0.0,True,641.5000000009313,39.0,60.0,40.0,225.4181728275818,[],"[756, 472.5]",ColorTask,60.0,16.0,,,HRV,HRV_0108,2022-11-30 19:33:29
,wl-rdm,133,3058412,0.0-8.16-0.16,1.0,133.0,,,,,,,[],,,,False,,,,56.4,0.0,u,0.0,True,908.8999999994412,55.0,60.0,40.0,291.93073318554815,[],"[756, 472.5]",ColorTask,61.0,17.0,,,HRV,HRV_0108,2022-11-30 19:33:29
,wl-rdm,134,3060296,0.0-8.17-0.17,1.0,134.0,,,,,,,[],,,,False,,,,87.9,1.0,i,1.0,True,552.2999999998137,33.0,60.0,40.0,252.82498437403973,[],"[756, 472.5]",ColorTask,62.0,18.0,,,HRV,HRV_0108,2022-11-30 19:33:29
,wl-rdm,135,3062347,0.0-8.18-0.18,1.0,135.0,,,,,,,[],,,,False,,,,50.0,0.0,i,1.0,False,630.7000000011176,38.0,60.0,40.0,357.7672313692854,[],"[756, 472.5]",ColorTask,61.0,19.0,,,HRV,HRV_0108,2022-11-30 19:33:29
,wl-rdm,136,3065779,0.0-8.19-0.19,1.0,136.0,,,,,,,[],,,,False,,,,50.0,0.0,i,1.0,False,1990.2000000001863,120.0,60.0,40.0,366.89119951645074,[],"[756, 472.5]",ColorTask,60.0,20.0,,,HRV,HRV_0108,2022-11-30 19:33:29
,wl-rdm,137,3067963,0.0-8.20-0.20,1.0,137.0,,,,,,,[],,,,False,,,,50.0,1.0,u,0.0,False,826.2999999998137,50.0,60.0,40.0,296.292868632972,[],"[756, 472.5]",ColorTask,59.0,21.0,,,HRV,HRV_0108,2022-11-30 19:33:29
,wl-rdm,138,3069879,0.0-8.21-0.21,1.0,138.0,,,,,,,[],,,,False,,,,62.5,0.0,u,0.0,True,474.59999999962747,29.0,60.0,40.0,381.1201979561457,[],"[756, 472.5]",ColorTask,60.0,22.0,,,HRV,HRV_0108,2022-11-30 19:33:29
,wl-rdm,139,3071796,0.0-8.22-0.22,1.0,139.0,,,,,,,[],,,,False,,,,53.2,1.0,i,1.0,True,507.0,31.0,60.0,40.0,323.17231946436016,[],"[756, 472.5]",ColorTask,61.0,23.0,,,HRV,HRV_0108,2022-11-30 19:33:29
,wl-rdm,140,3073646,0.0-8.23-0.23,1.0,140.0,,,,,,,[],,,,False,,,,62.5,1.0,i,1.0,True,460.19999999925494,28.0,60.0,40.0,304.64532549202056,[],"[756, 472.5]",ColorTask,62.0,24.0,,,HRV,HRV_0108,2022-11-30 19:33:29
,wl-rdm,141,3076162,0.0-8.24-0.24,1.0,141.0,,,,,,,[],,,,False,,,,62.5,1.0,u,0.0,False,1106.4999999990687,67.0,60.0,40.0,344.2109670096831,[],"[756, 472.5]",ColorTask,61.0,25.0,,,HRV,HRV_0108,2022-11-30 19:33:29
,wl-rdm,142,3078263,0.0-8.25-0.25,1.0,142.0,,,,,,,[],,,,False,,,,87.9,1.0,i,1.0,True,759.0000000009313,46.0,60.0,40.0,258.30229429437946,[],"[756, 472.5]",ColorTask,62.0,26.0,,,HRV,HRV_0108,2022-11-30 19:33:29
,wl-rdm,143,3080396,0.0-8.26-0.26,1.0,143.0,,,,,,,[],,,,False,,,,56.4,0.0,u,0.0,True,707.6999999992549,43.0,60.0,40.0,366.48825875731404,[],"[756, 472.5]",ColorTask,63.0,27.0,,,HRV,HRV_0108,2022-11-30 19:33:29
,wl-rdm,144,3082363,0.0-8.27-0.27,1.0,144.0,,,,,,,[],,,,False,,,,87.9,1.0,i,1.0,True,648.7000000001863,39.0,60.0,40.0,256.8770954777011,[],"[756, 472.5]",ColorTask,64.0,28.0,,,HRV,HRV_0108,2022-11-30 19:33:29
,wl-rdm,145,3084429,0.0-8.28-0.28,1.0,145.0,,,,,,,[],,,,False,,,,53.2,1.0,i,1.0,True,713.2999999998137,43.0,60.0,40.0,287.10318179332694,[],"[756, 472.5]",ColorTask,65.0,29.0,,,HRV,HRV_0108,2022-11-30 19:33:29
,wl-rdm,146,3086580,0.0-8.29-0.29,1.0,146.0,,,,,,,[],,,,False,,,,50.0,1.0,u,0.0,False,769.7000000011176,46.0,60.0,40.0,304.38491801939506,[],"[756, 472.5]",ColorTask,64.0,30.0,,,HRV,HRV_0108,2022-11-30 19:33:29
,wl-rdm,147,3088597,0.0-8.30-0.30,1.0,147.0,,,,,,,[],,,,False,,,,56.4,0.0,u,0.0,True,675.5,41.0,60.0,40.0,258.76992443650545,[],"[756, 472.5]",ColorTask,65.0,31.0,,,HRV,HRV_0108,2022-11-30 19:33:29
,wl-rdm,148,3091164,0.0-8.31-0.31,1.0,148.0,,,,,,,[],,,,False,,,,50.0,0.0,u,0.0,True,1156.699999999255,70.0,60.0,40.0,335.2539592703225,[],"[756, 472.5]",ColorTask,66.0,32.0,,,HRV,HRV_0108,2022-11-30 19:33:29
,wl-rdm,149,3093545,0.0-8.32-0.32,1.0,149.0,,,,,,,[],,,,False,,,,62.5,0.0,u,0.0,True,1026.2999999998137,62.0,60.0,40.0,275.43257431724186,[],"[756, 472.5]",ColorTask,67.0,33.0,,,HRV,HRV_0108,2022-11-30 19:33:29
,wl-rdm,150,3095562,0.0-8.33-0.33,1.0,150.0,,,,,,,[],,,,False,,,,73.6,1.0,i,1.0,True,663.0999999996275,40.0,60.0,40.0,293.35665843163946,[],"[756, 472.5]",ColorTask,68.0,34.0,,,HRV,HRV_0108,2022-11-30 19:33:29
,wl-rdm,151,3097829,0.0-8.34-0.34,1.0,151.0,,,,,,,[],,,,False,,,,50.0,1.0,u,0.0,False,902.6000000005588,54.0,60.0,40.0,291.51160787832174,[],"[756, 472.5]",ColorTask,67.0,35.0,,,HRV,HRV_0108,2022-11-30 19:33:29
,wl-rdm,152,3099829,0.0-8.35-0.35,1.0,152.0,,,,,,,[],,,,False,,,,56.4,0.0,i,1.0,False,635.3999999994412,38.0,60.0,40.0,284.54305183008387,[],"[756, 472.5]",ColorTask,66.0,36.0,,,HRV,HRV_0108,2022-11-30 19:33:29
,wl-rdm,153,3101595,0.0-8.36-0.36,1.0,153.0,,,,,,,[],,,,False,,,,56.4,1.0,i,1.0,True,461.70000000018626,28.0,60.0,40.0,233.85656139736682,[],"[756, 472.5]",ColorTask,67.0,37.0,,,HRV,HRV_0108,2022-11-30 19:33:29
,wl-rdm,154,3103579,0.0-8.37-0.37,1.0,154.0,,,,,,,[],,,,False,,,,73.6,1.0,u,0.0,False,677.5,41.0,60.0,40.0,232.82960527417708,[],"[756, 472.5]",ColorTask,66.0,38.0,,,HRV,HRV_0108,2022-11-30 19:33:29
,wl-rdm,155,3105512,0.0-8.38-0.38,1.0,155.0,,,,,,,[],,,,False,,,,87.9,0.0,u,0.0,True,579.0999999996275,35.0,60.0,40.0,286.4553870687799,[],"[756, 472.5]",ColorTask,67.0,39.0,,,HRV,HRV_0108,2022-11-30 19:33:29
,wl-rdm,156,3107415,0.0-8.39-0.39,1.0,156.0,,,,,,,[],,,,False,,,,56.4,1.0,i,1.0,True,474.2000000011176,29.0,60.0,40.0,356.74933944813284,[],"[756, 472.5]",ColorTask,68.0,40.0,,,HRV,HRV_0108,2022-11-30 19:33:29
,wl-rdm,157,3109380,0.0-8.40-0.40,1.0,157.0,,,,,,,[],,,,False,,,,73.6,0.0,u,0.0,True,691.0000000009313,42.0,60.0,40.0,204.24361669638256,[],"[756, 472.5]",ColorTask,69.0,41.0,,,HRV,HRV_0108,2022-11-30 19:33:29
,wl-rdm,158,3111429,0.0-8.41-0.41,1.0,158.0,,,,,,,[],,,,False,,,,62.5,0.0,i,1.0,False,756.5,46.0,60.0,40.0,214.94668085230785,[],"[756, 472.5]",ColorTask,68.0,42.0,,,HRV,HRV_0108,2022-11-30 19:33:29
,wl-rdm,159,3113413,0.0-8.42-0.42,1.0,159.0,,,,,,,[],,,,False,,,,56.4,1.0,i,1.0,True,527.6000000005588,32.0,60.0,40.0,386.52235164502326,[],"[756, 472.5]",ColorTask,69.0,43.0,,,HRV,HRV_0108,2022-11-30 19:33:29
,wl-rdm,160,3115579,0.0-8.43-0.43,1.0,160.0,,,,,,,[],,,,False,,,,53.2,1.0,i,1.0,True,690.7000000001863,42.0,60.0,40.0,397.81290187844786,[],"[756, 472.5]",ColorTask,70.0,44.0,,,HRV,HRV_0108,2022-11-30 19:33:29
,wl-rdm,161,3117896,0.0-8.44-0.44,1.0,161.0,,,,,,,[],,,,False,,,,53.2,0.0,i,1.0,False,859.5,52.0,60.0,40.0,383.7134475053098,[],"[756, 472.5]",ColorTask,69.0,45.0,,,HRV,HRV_0108,2022-11-30 19:33:29
,wl-rdm,162,3119962,0.0-8.45-0.45,1.0,162.0,,,,,,,[],,,,False,,,,87.9,0.0,u,0.0,True,741.5,45.0,60.0,40.0,263.0046872679327,[],"[756, 472.5]",ColorTask,70.0,46.0,,,HRV,HRV_0108,2022-11-30 19:33:29
,wl-rdm,163,3122079,0.0-8.46-0.46,1.0,163.0,,,,,,,[],,,,False,,,,56.4,0.0,u,0.0,True,824.2999999998137,50.0,60.0,40.0,221.12275731940062,[],"[756, 472.5]",ColorTask,71.0,47.0,,,HRV,HRV_0108,2022-11-30 19:33:29
,wl-rdm,164,3124112,0.0-8.47-0.47,1.0,164.0,,,,,,,[],,,,False,,,,73.6,0.0,i,1.0,False,736.2000000001863,44.0,60.0,40.0,223.23357346220178,[],"[756, 472.5]",ColorTask,70.0,48.0,,,HRV,HRV_0108,2022-11-30 19:33:29
,wl-rdm,165,3126012,0.0-8.48-0.48,1.0,165.0,,,,,,,[],,,,False,,,,62.5,0.0,i,1.0,False,589.7000000001863,36.0,60.0,40.0,229.4427464244974,[],"[756, 472.5]",ColorTask,69.0,49.0,,,HRV,HRV_0108,2022-11-30 19:33:29
,wl-rdm,166,3127963,0.0-8.49-0.49,1.0,166.0,,,,,,,[],,,,False,,,,73.6,1.0,i,1.0,True,626.8999999994412,38.0,60.0,40.0,253.0440978403626,[],"[756, 472.5]",ColorTask,70.0,50.0,,,HRV,HRV_0108,2022-11-30 19:33:29
,wl-rdm,167,3129930,0.0-8.50-0.50,1.0,167.0,,,,,,,[],,,,False,,,,62.5,1.0,i,1.0,True,691.7999999998137,42.0,60.0,40.0,214.49726904226307,[],"[756, 472.5]",ColorTask,71.0,51.0,,,HRV,HRV_0108,2022-11-30 19:33:29
,wl-rdm,168,3131845,0.0-8.51-0.51,1.0,168.0,,,,,,,[],,,,False,,,,87.9,0.0,u,0.0,True,560.1000000005588,34.0,60.0,40.0,267.868815903154,[],"[756, 472.5]",ColorTask,72.0,52.0,,,HRV,HRV_0108,2022-11-30 19:33:29
,wl-rdm,169,3133763,0.0-8.52-0.52,1.0,169.0,,,,,,,[],,,,False,,,,87.9,1.0,i,1.0,True,622.4000000003725,38.0,60.0,40.0,220.65657315787962,[],"[756, 472.5]",ColorTask,73.0,53.0,,,HRV,HRV_0108,2022-11-30 19:33:29
,wl-rdm,170,3135913,0.0-8.53-0.53,1.0,170.0,,,,,,,[],,,,False,,,,50.0,1.0,u,0.0,False,842.5,51.0,60.0,40.0,229.39004988662822,[],"[756, 472.5]",ColorTask,72.0,54.0,,,HRV,HRV_0108,2022-11-30 19:33:29
,wl-rdm,171,3138180,0.0-8.54-0.54,1.0,171.0,,,,,,,[],,,,False,,,,73.6,1.0,i,1.0,True,891.2000000001863,54.0,60.0,40.0,301.33617813148186,[],"[756, 472.5]",ColorTask,73.0,55.0,,,HRV,HRV_0108,2022-11-30 19:33:29
,wl-rdm,172,3140246,0.0-8.55-0.55,1.0,172.0,,,,,,,[],,,,False,,,,87.9,0.0,u,0.0,True,722.7000000001863,44.0,60.0,40.0,260.4928175099171,[],"[756, 472.5]",ColorTask,74.0,56.0,,,HRV,HRV_0108,2022-11-30 19:33:29
,wl-rdm,173,3142346,0.0-8.56-0.56,1.0,173.0,,,,,,,[],,,,False,,,,53.2,0.0,i,1.0,False,723.3999999994412,44.0,60.0,40.0,287.6170342865786,[],"[756, 472.5]",ColorTask,73.0,57.0,,,HRV,HRV_0108,2022-11-30 19:33:29
,wl-rdm,174,3144229,0.0-8.57-0.57,1.0,174.0,,,,,,,[],,,,False,,,,73.6,0.0,i,1.0,False,511.09999999962747,31.0,60.0,40.0,303.75179895087524,[],"[756, 472.5]",ColorTask,72.0,58.0,,,HRV,HRV_0108,2022-11-30 19:33:29
,wl-rdm,175,3146647,0.0-8.58-0.58,1.0,175.0,,,,,,,[],,,,False,,,,50.0,0.0,u,0.0,True,1024.300000000745,62.0,60.0,40.0,324.38733312551994,[],"[756, 472.5]",ColorTask,73.0,59.0,,,HRV,HRV_0108,2022-11-30 19:33:29
,wl-rdm,176,3148762,0.0-8.59-0.59,1.0,176.0,,,,,,,[],,,,False,,,,73.6,0.0,i,1.0,False,656.9000000003725,40.0,60.0,40.0,367.86007477194335,[],"[756, 472.5]",ColorTask,72.0,60.0,,,HRV,HRV_0108,2022-11-30 19:33:29
,wl-rdm,177,3151446,0.0-8.60-0.60,1.0,177.0,,,,,,,[],,,,False,,,,62.5,1.0,i,1.0,True,1256.3999999994412,76.0,60.0,40.0,350.04774385788596,[],"[756, 472.5]",ColorTask,73.0,61.0,,,HRV,HRV_0108,2022-11-30 19:33:29
,wl-rdm,178,3153463,0.0-8.61-0.61,1.0,178.0,,,,,,,[],,,,False,,,,73.6,0.0,u,0.0,True,641.3999999994412,39.0,60.0,40.0,285.0572846163224,[],"[756, 472.5]",ColorTask,74.0,62.0,,,HRV,HRV_0108,2022-11-30 19:33:29
,wl-rdm,179,3155646,0.0-8.62-0.62,1.0,179.0,,,,,,,[],,,,False,,,,87.9,1.0,i,1.0,True,789.5999999996275,48.0,60.0,40.0,333.068988788581,[],"[756, 472.5]",ColorTask,75.0,63.0,,,HRV,HRV_0108,2022-11-30 19:33:29
,wl-rdm,180,3158213,0.0-8.63-0.63,1.0,180.0,,,,,,,[],,,,False,,,,50.0,1.0,i,1.0,True,1226.5999999996275,74.0,60.0,40.0,273.9760860363158,[],"[756, 472.5]",ColorTask,76.0,64.0,,,HRV,HRV_0108,2022-11-30 19:33:29
,wl-rdm,181,3160465,0.0-8.64-0.64,1.0,181.0,,,,,,,[],,,,False,,,,62.5,0.0,u,0.0,True,804.1000000005588,49.0,60.0,40.0,355.7451029901365,[],"[756, 472.5]",ColorTask,77.0,65.0,,,HRV,HRV_0108,2022-11-30 19:33:29
,wl-rdm,182,3162346,0.0-8.65-0.65,1.0,182.0,,,,,,,[],,,,False,,,,73.6,1.0,i,1.0,True,475.90000000037253,29.0,60.0,40.0,323.2623912791188,[],"[756, 472.5]",ColorTask,78.0,66.0,,,HRV,HRV_0108,2022-11-30 19:33:29
,wl-rdm,183,3164312,0.0-8.66-0.66,1.0,183.0,,,,,,,[],,,,False,,,,50.0,0.0,i,1.0,False,677.4999999990687,41.0,60.0,40.0,232.25557819451393,[],"[756, 472.5]",ColorTask,77.0,67.0,,,HRV,HRV_0108,2022-11-30 19:33:29
,wl-rdm,184,3166162,0.0-8.67-0.67,1.0,184.0,,,,,,,[],,,,False,,,,53.2,0.0,i,1.0,False,546.8000000007451,33.0,60.0,40.0,233.5675558999053,[],"[756, 472.5]",ColorTask,76.0,68.0,,,HRV,HRV_0108,2022-11-30 19:33:29
,wl-rdm,185,3168263,0.0-8.68-0.68,1.0,185.0,,,,,,,[],,,,False,,,,53.2,1.0,i,1.0,True,805.5,49.0,60.0,40.0,216.7670577198026,[],"[756, 472.5]",ColorTask,77.0,69.0,,,HRV,HRV_0108,2022-11-30 19:33:29
,wl-rdm,186,3170147,0.0-8.69-0.69,1.0,186.0,,,,,,,[],,,,False,,,,73.6,1.0,i,1.0,True,567.7999999998137,34.0,60.0,40.0,238.28195694082987,[],"[756, 472.5]",ColorTask,78.0,70.0,,,HRV,HRV_0108,2022-11-30 19:33:29
,wl-rdm,187,3172829,0.0-8.70-0.70,1.0,187.0,,,,,,,[],,,,False,,,,53.2,1.0,i,1.0,True,1293.1000000005588,78.0,60.0,40.0,334.11212217219975,[],"[756, 472.5]",ColorTask,79.0,71.0,,,HRV,HRV_0108,2022-11-30 19:33:29
,wl-rdm,188,3175262,0.0-8.71-0.71,1.0,188.0,,,,,,,[],,,,False,,,,53.2,0.0,u,0.0,True,986.0,59.0,60.0,40.0,372.77110387614607,[],"[756, 472.5]",ColorTask,80.0,72.0,,,HRV,HRV_0108,2022-11-30 19:33:29
,wl-rdm,189,3177396,0.0-8.72-0.72,1.0,189.0,,,,,,,[],,,,False,,,,50.0,0.0,u,0.0,True,823.2999999998137,50.0,60.0,40.0,236.11543272036917,[],"[756, 472.5]",ColorTask,81.0,73.0,,,HRV,HRV_0108,2022-11-30 19:33:29
,wl-rdm,190,3179512,0.0-8.73-0.73,1.0,190.0,,,,,,,[],,,,False,,,,62.5,1.0,i,1.0,True,826.4000000003725,50.0,60.0,40.0,218.11740978190417,[],"[756, 472.5]",ColorTask,82.0,74.0,,,HRV,HRV_0108,2022-11-30 19:33:29
,wl-rdm,191,3181563,0.0-8.74-0.74,1.0,191.0,,,,,,,[],,,,False,,,,56.4,1.0,i,1.0,True,634.3999999994412,38.0,60.0,40.0,345.43141060721257,[],"[756, 472.5]",ColorTask,83.0,75.0,,,HRV,HRV_0108,2022-11-30 19:33:29
,wl-rdm,192,3183462,0.0-8.75-0.75,1.0,192.0,,,,,,,[],,,,False,,,,56.4,0.0,u,0.0,True,564.4000000003725,34.0,60.0,40.0,281.7565789651396,[],"[756, 472.5]",ColorTask,84.0,76.0,,,HRV,HRV_0108,2022-11-30 19:33:29
,wl-rdm,193,3185679,0.0-8.76-0.76,1.0,193.0,,,,,,,[],,,,False,,,,53.2,1.0,u,0.0,False,909.0,55.0,60.0,40.0,228.30416956229683,[],"[756, 472.5]",ColorTask,83.0,77.0,,,HRV,HRV_0108,2022-11-30 19:33:29
,wl-rdm,194,3187962,0.0-8.77-0.77,1.0,194.0,,,,,,,[],,,,False,,,,62.5,0.0,u,0.0,True,940.5,57.0,60.0,40.0,274.0172431963482,[],"[756, 472.5]",ColorTask,84.0,78.0,,,HRV,HRV_0108,2022-11-30 19:33:29
,wl-rdm,195,3190230,0.0-8.78-0.78,1.0,195.0,,,,,,,[],,,,False,,,,62.5,0.0,u,0.0,True,924.5,56.0,60.0,40.0,273.57115976690557,[],"[756, 472.5]",ColorTask,85.0,79.0,,,HRV,HRV_0108,2022-11-30 19:33:29
,wl-rdm,196,3192146,0.0-8.79-0.79,1.0,196.0,,,,,,,[],,,,False,,,,87.9,1.0,i,1.0,True,596.1999999992549,36.0,60.0,40.0,256.7988575244426,[],"[756, 472.5]",ColorTask,86.0,80.0,,,HRV,HRV_0108,2022-11-30 19:33:29
,wl-rdm,197,3194080,0.0-8.80-0.80,1.0,197.0,,,,,,,[],,,,False,,,,50.0,0.0,i,1.0,False,638.7999999998137,39.0,60.0,40.0,215.28647205359067,[],"[756, 472.5]",ColorTask,85.0,81.0,,,HRV,HRV_0108,2022-11-30 19:33:29
,wl-rdm,198,3196479,0.0-8.81-0.81,1.0,198.0,,,,,,,[],,,,False,,,,62.5,0.0,u,0.0,True,984.8999999994412,59.0,60.0,40.0,342.23437031571063,[],"[756, 472.5]",ColorTask,86.0,82.0,,,HRV,HRV_0108,2022-11-30 19:33:29
,wl-rdm,199,3198446,0.0-8.82-0.82,1.0,199.0,,,,,,,[],,,,False,,,,87.9,1.0,i,1.0,True,658.5999999996275,40.0,60.0,40.0,242.5923696078541,[],"[756, 472.5]",ColorTask,87.0,83.0,,,HRV,HRV_0108,2022-11-30 19:33:29
,wl-rdm,200,3200779,0.0-8.83-0.83,1.0,200.0,,,,,,,[],,,,False,,,,87.9,0.0,u,0.0,True,909.1000000005588,55.0,60.0,40.0,357.27860542941096,[],"[756, 472.5]",ColorTask,88.0,84.0,,,HRV,HRV_0108,2022-11-30 19:33:29
,wl-rdm,201,3202697,0.0-8.84-0.84,1.0,201.0,,,,,,,[],,,,False,,,,56.4,0.0,i,1.0,False,556.8999999994412,34.0,60.0,40.0,295.26464251497964,[],"[756, 472.5]",ColorTask,87.0,85.0,,,HRV,HRV_0108,2022-11-30 19:33:29
,wl-rdm,202,3204446,0.0-8.85-0.85,1.0,202.0,,,,,,,[],,,,False,,,,56.4,1.0,i,1.0,True,442.69999999925494,27.0,60.0,40.0,246.08304851616708,[],"[756, 472.5]",ColorTask,88.0,86.0,,,HRV,HRV_0108,2022-11-30 19:33:29
,wl-rdm,203,3206429,0.0-8.86-0.86,1.0,203.0,,,,,,,[],,,,False,,,,62.5,1.0,i,1.0,True,674.1999999992549,41.0,60.0,40.0,244.63982432753488,[],"[756, 472.5]",ColorTask,89.0,87.0,,,HRV,HRV_0108,2022-11-30 19:33:29
,wl-rdm,204,3208679,0.0-8.87-0.87,1.0,204.0,,,,,,,[],,,,False,,,,53.2,0.0,u,0.0,True,960.4000000003725,58.0,60.0,40.0,203.41122198451097,[],"[756, 472.5]",ColorTask,90.0,88.0,,,HRV,HRV_0108,2022-11-30 19:33:29
,wl-rdm,205,3210813,0.0-8.88-0.88,1.0,205.0,,,,,,,[],,,,False,,,,73.6,0.0,u,0.0,True,815.1000000005588,49.0,60.0,40.0,263.5028741627431,[],"[756, 472.5]",ColorTask,91.0,89.0,,,HRV,HRV_0108,2022-11-30 19:33:29
,wl-rdm,206,3212762,0.0-8.89-0.89,1.0,206.0,,,,,,,[],,,,False,,,,62.5,1.0,i,1.0,True,609.0000000009313,37.0,60.0,40.0,263.0016773029252,[],"[756, 472.5]",ColorTask,92.0,90.0,,,HRV,HRV_0108,2022-11-30 19:33:29
,wl-rdm,207,3214679,0.0-8.90-0.90,1.0,207.0,,,,,,,[],,,,False,,,,87.9,1.0,i,1.0,True,545.9999999981374,33.0,60.0,40.0,293.7423616780489,[],"[756, 472.5]",ColorTask,93.0,91.0,,,HRV,HRV_0108,2022-11-30 19:33:29
,wl-rdm,208,3216812,0.0-8.91-0.91,1.0,208.0,,,,,,,[],,,,False,,,,73.6,1.0,i,1.0,True,831.9000000003725,50.0,60.0,40.0,245.86042968329184,[],"[756, 472.5]",ColorTask,94.0,92.0,,,HRV,HRV_0108,2022-11-30 19:33:29
,wl-rdm,209,3218946,0.0-8.92-0.92,1.0,209.0,,,,,,,[],,,,False,,,,87.9,0.0,u,0.0,True,696.4000000003725,42.0,60.0,40.0,368.0850023477673,[],"[756, 472.5]",ColorTask,95.0,93.0,,,HRV,HRV_0108,2022-11-30 19:33:29
,wl-rdm,210,3220997,0.0-8.93-0.93,1.0,210.0,,,,,,,[],,,,False,,,,50.0,1.0,u,0.0,False,775.4000000003725,47.0,60.0,40.0,200.17868377847583,[],"[756, 472.5]",ColorTask,94.0,94.0,,,HRV,HRV_0108,2022-11-30 19:33:29
,wl-rdm,211,3223046,0.0-8.94-0.94,1.0,211.0,,,,,,,[],,,,False,,,,73.6,0.0,u,0.0,True,772.3999999985099,47.0,60.0,40.0,216.1198281902456,[],"[756, 472.5]",ColorTask,95.0,95.0,,,HRV,HRV_0108,2022-11-30 19:33:29
,wl-rdm,212,3225045,0.0-8.95-0.95,1.0,212.0,,,,,,,[],,,,False,,,,73.6,1.0,i,1.0,True,657.6000000014901,40.0,60.0,40.0,274.1703124686346,[],"[756, 472.5]",ColorTask,96.0,96.0,,,HRV,HRV_0108,2022-11-30 19:33:29
,wl-rdm,213,3227246,0.0-8.96-0.96,1.0,213.0,,,,,,,[],,,,False,,,,53.2,0.0,u,0.0,True,775.1000000014901,47.0,60.0,40.0,345.0732244047012,[],"[756, 472.5]",ColorTask,97.0,97.0,,,HRV,HRV_0108,2022-11-30 19:33:29
,wl-rdm,214,3229230,0.0-8.97-0.97,1.0,214.0,,,,,,,[],,,,False,,,,50.0,0.0,u,0.0,True,672.6999999992549,41.0,60.0,40.0,231.26220919236522,[],"[756, 472.5]",ColorTask,98.0,98.0,,,HRV,HRV_0108,2022-11-30 19:33:29
,wl-rdm,215,3231429,0.0-8.98-0.98,1.0,215.0,,,,,,,[],,,,False,,,,56.4,0.0,i,1.0,False,874.9999999981374,53.0,60.0,40.0,237.84998578992202,[],"[756, 472.5]",ColorTask,97.0,99.0,,,HRV,HRV_0108,2022-11-30 19:33:29
,wl-rdm,216,3233313,0.0-8.99-0.99,1.0,216.0,,,,,,,[],,,,False,,,,53.2,0.0,i,1.0,False,439.80000000074506,27.0,60.0,40.0,356.6539079729546,[],"[756, 472.5]",ColorTask,96.0,100.0,,,HRV,HRV_0108,2022-11-30 19:33:29
,wl-rdm,217,3235263,0.0-8.100-0.100,1.0,217.0,,,,,,,[],,,,False,,,,62.5,1.0,i,1.0,True,521.4000000022352,32.0,60.0,40.0,344.4444890311728,[],"[756, 472.5]",ColorTask,97.0,101.0,,,HRV,HRV_0108,2022-11-30 19:33:29
,wl-rdm,218,3237929,0.0-8.101-0.101,1.0,218.0,,,,,,,[],,,,False,,,,53.2,0.0,u,0.0,True,1214.199999999255,73.0,60.0,40.0,394.01211236975325,[],"[756, 472.5]",ColorTask,98.0,102.0,,,HRV,HRV_0108,2022-11-30 19:33:29
,wl-rdm,219,3240329,0.0-8.102-0.102,1.0,219.0,,,,,,,[],,,,False,,,,56.4,1.0,i,1.0,True,1100.9000000003725,66.0,60.0,40.0,231.0338889246841,[],"[756, 472.5]",ColorTask,99.0,103.0,,,HRV,HRV_0108,2022-11-30 19:33:29
,wl-rdm,220,3242596,0.0-8.103-0.103,1.0,220.0,,,,,,,[],,,,False,,,,56.4,1.0,i,1.0,True,933.0,56.0,60.0,40.0,265.9860600463629,[],"[756, 472.5]",ColorTask,100.0,104.0,,,HRV,HRV_0108,2022-11-30 19:33:29
,wl-rdm,221,3245062,0.0-8.104-0.104,1.0,221.0,,,,,,,[],,,,False,,,,53.2,1.0,i,1.0,True,1191.7999999988824,72.0,60.0,40.0,205.4785378566561,[],"[756, 472.5]",ColorTask,101.0,105.0,,,HRV,HRV_0108,2022-11-30 19:33:29
,wl-rdm,222,3247296,0.0-8.105-0.105,1.0,222.0,,,,,,,[],,,,False,,,,53.2,0.0,i,1.0,False,925.2000000011176,56.0,60.0,40.0,222.65859878446292,[],"[756, 472.5]",ColorTask,100.0,106.0,,,HRV,HRV_0108,2022-11-30 19:33:29
,wl-rdm,223,3249746,0.0-8.106-0.106,1.0,223.0,,,,,,,[],,,,False,,,,50.0,0.0,i,1.0,False,1060.0,64.0,60.0,40.0,315.56753884036823,[],"[756, 472.5]",ColorTask,99.0,107.0,,,HRV,HRV_0108,2022-11-30 19:33:29
,wl-rdm,224,3251779,0.0-8.107-0.107,1.0,224.0,,,,,,,[],,,,False,,,,87.9,0.0,u,0.0,True,656.5,40.0,60.0,40.0,304.6965041101743,[],"[756, 472.5]",ColorTask,100.0,108.0,,,HRV,HRV_0108,2022-11-30 19:33:29
,wl-html-button-response,225,3254289,0.0-9.0-0.0,,,,,,,,,,2502.89999999851,,0,,,,,,,,,,,,,,,,,,,,<h3>End of this session. Thank you!</h3><br>,['Close window'],HRV,HRV_0108,2022-11-30 19:33:29
