trialN,stimuli,trialStartTime,trialStartTime_UNIX,stimulus1,stimulus2,stimulus1Bid,stimulus2Bid,delta,selected,rt,rt_UNIX,rt_perfnow,receivedResponse,rsp,trialEndTime,trialDuration,trialEndTime_UNIX,trialDuration_UNIX,exp,subjectId,date
0,"[{'imgObject': {}, 'id': 'sweetpotato', 'src': '/static/foodstim60/sweetpotato.jpg', 'key': 'u', 'origWidth': 410, 'origHeight': 410, 'width': 410, 'height': 410, 'widthPercent': 0.45, 'rescaleHeight': False, 'trialN': 0, 'loaded': True, 'loadedTime': 1833.9000000003725, 'positionName': 'LEFT', 'positionCoords': [315.76, 267.5], 'bid': 5.6000000000000005}, {'imgObject': {}, 'id': 'lox', 'src': '/static/foodstim60/lox.jpg', 'key': 'i', 'origWidth': 410, 'origHeight': 411, 'width': 410, 'height': 411, 'widthPercent': 0.45, 'rescaleHeight': False, 'trialN': 0, 'loaded': True, 'loadedTime': 1846.1000000005588, 'positionName': 'RIGHT', 'positionCoords': [786.24, 267], 'bid': 2.03}]",1881.2999999998137,1669832349276,sweetpotato,lox,5.6000000000000005,2.03,-3.5700000000000007,sweetpotato,1045.9000000003725,1054,1054.1000000005588,True,u,3436.2999999998137,1555.0,1669832350831,1555,HRV,HRV_0108,2022-11-30 18:23:25
1,"[{'imgObject': {}, 'id': 'rigatoni', 'src': '/static/foodstim60/rigatoni.jpg', 'key': 'u', 'origWidth': 411, 'origHeight': 411, 'width': 411, 'height': 411, 'widthPercent': 0.45, 'rescaleHeight': False, 'trialN': 1, 'loaded': True, 'loadedTime': 1846.9000000003725, 'positionName': 'LEFT', 'positionCoords': [314.76, 267], 'bid': 8.69}, {'imgObject': {}, 'id': 'bagel and cc', 'src': '/static/foodstim60/bagel and cc.jpg', 'key': 'i', 'origWidth': 410, 'origHeight': 410, 'width': 410, 'height': 410, 'widthPercent': 0.45, 'rescaleHeight': False, 'trialN': 1, 'loaded': True, 'loadedTime': 1848.1000000005588, 'positionName': 'RIGHT', 'positionCoords': [786.24, 267.5], 'bid': 7.63}]",3437.2000000001863,1669832350832,rigatoni,bagel and cc,8.69,7.63,-1.0599999999999996,rigatoni,960.7999999998137,968,967.5999999996275,True,u,4907.600000000559,1470.4000000003725,1669832352302,1470,HRV,HRV_0108,2022-11-30 18:23:25
2,"[{'imgObject': {}, 'id': 'raisin bran w milk', 'src': '/static/foodstim60/raisin bran w milk.jpg', 'key': 'u', 'origWidth': 411, 'origHeight': 411, 'width': 411, 'height': 411, 'widthPercent': 0.45, 'rescaleHeight': False, 'trialN': 2, 'loaded': True, 'loadedTime': 1848.2999999998137, 'positionName': 'LEFT', 'positionCoords': [314.76, 267], 'bid': 1.52}, {'imgObject': {}, 'id': 'kiwi', 'src': '/static/foodstim60/kiwi.jpg', 'key': 'i', 'origWidth': 410, 'origHeight': 410, 'width': 410, 'height': 410, 'widthPercent': 0.45, 'rescaleHeight': False, 'trialN': 2, 'loaded': True, 'loadedTime': 1849, 'positionName': 'RIGHT', 'positionCoords': [786.24, 267.5], 'bid': 1.36}]",4908.200000000186,1669832352303,raisin bran w milk,kiwi,1.52,1.36,-0.15999999999999992,raisin bran w milk,1233.2999999998137,1240,1240.5,True,u,6651.600000000559,1743.4000000003725,1669832354046,1743,HRV,HRV_0108,2022-11-30 18:23:25
3,"[{'imgObject': {}, 'id': 'salad w chicken', 'src': '/static/foodstim60/salad w chicken.jpg', 'key': 'u', 'origWidth': 411, 'origHeight': 411, 'width': 411, 'height': 411, 'widthPercent': 0.45, 'rescaleHeight': False, 'trialN': 3, 'loaded': True, 'loadedTime': 1850.2999999998137, 'positionName': 'LEFT', 'positionCoords': [314.76, 267], 'bid': 3.37}, {'imgObject': {}, 'id': 'burrito', 'src': '/static/foodstim60/burrito.jpg', 'key': 'i', 'origWidth': 410, 'origHeight': 410, 'width': 410, 'height': 410, 'widthPercent': 0.45, 'rescaleHeight': False, 'trialN': 3, 'loaded': True, 'loadedTime': 1850.6000000005588, 'positionName': 'RIGHT', 'positionCoords': [786.24, 267.5], 'bid': 7.79}]",6652.200000000186,1669832354047,salad w chicken,burrito,3.37,7.79,4.42,salad w chicken,736,741,740.5999999996275,True,u,7894.299999999814,1242.0999999996275,1669832355289,1242,HRV,HRV_0108,2022-11-30 18:23:25
4,"[{'imgObject': {}, 'id': 'mango', 'src': '/static/foodstim60/mango.jpg', 'key': 'u', 'origWidth': 411, 'origHeight': 411, 'width': 411, 'height': 411, 'widthPercent': 0.45, 'rescaleHeight': False, 'trialN': 4, 'loaded': True, 'loadedTime': 1851.2000000001863, 'positionName': 'LEFT', 'positionCoords': [314.76, 267], 'bid': 1.2}, {'imgObject': {}, 'id': 'lox', 'src': '/static/foodstim60/lox.jpg', 'key': 'i', 'origWidth': 410, 'origHeight': 411, 'width': 410, 'height': 411, 'widthPercent': 0.45, 'rescaleHeight': False, 'trialN': 4, 'loaded': True, 'loadedTime': 1846.1000000005588, 'positionName': 'RIGHT', 'positionCoords': [786.24, 267], 'bid': 2.03}]",7894.9000000003725,1669832355290,mango,lox,1.2,2.03,0.8299999999999998,lox,653.2999999998137,660,660.7999999998137,True,i,9060.0,1165.0999999996275,1669832356455,1165,HRV,HRV_0108,2022-11-30 18:23:25
5,"[{'imgObject': {}, 'id': 'veggieswithdip', 'src': '/static/foodstim60/veggieswithdip.jpg', 'key': 'u', 'origWidth': 409, 'origHeight': 409, 'width': 409, 'height': 409, 'widthPercent': 0.45, 'rescaleHeight': False, 'trialN': 5, 'loaded': True, 'loadedTime': 1852.2999999998137, 'positionName': 'LEFT', 'positionCoords': [316.76, 268], 'bid': 8.05}, {'imgObject': {}, 'id': 'mac & cheese', 'src': '/static/foodstim60/mac & cheese.jpg', 'key': 'i', 'origWidth': 410, 'origHeight': 410, 'width': 410, 'height': 410, 'widthPercent': 0.45, 'rescaleHeight': False, 'trialN': 5, 'loaded': True, 'loadedTime': 1853, 'positionName': 'RIGHT', 'positionCoords': [786.24, 267.5], 'bid': 8.620000000000001}]",9060.5,1669832356455,veggieswithdip,mac & cheese,8.05,8.620000000000001,0.5700000000000003,veggieswithdip,542.7999999998137,550,550.1000000005588,True,u,10113.100000000559,1052.6000000005588,1669832357508,1053,HRV,HRV_0108,2022-11-30 18:23:25
6,"[{'imgObject': {}, 'id': 'corn cob', 'src': '/static/foodstim60/corn cob.jpg', 'key': 'u', 'origWidth': 411, 'origHeight': 411, 'width': 411, 'height': 411, 'widthPercent': 0.45, 'rescaleHeight': False, 'trialN': 6, 'loaded': True, 'loadedTime': 1853.1000000005588, 'positionName': 'LEFT', 'positionCoords': [314.76, 267], 'bid': 3.94}, {'imgObject': {}, 'id': 'grilled chicken strips', 'src': '/static/foodstim60/grilled chicken strips.jpg', 'key': 'i', 'origWidth': 410, 'origHeight': 411, 'width': 410, 'height': 411, 'widthPercent': 0.45, 'rescaleHeight': False, 'trialN': 6, 'loaded': True, 'loadedTime': 1854.2999999998137, 'positionName': 'RIGHT', 'positionCoords': [786.24, 267], 'bid': 3.06}]",10113.700000000186,1669832357509,corn cob,grilled chicken strips,3.94,3.06,-0.8799999999999999,grilled chicken strips,753.7999999998137,761,761.9000000003725,True,i,11377.400000000373,1263.7000000001863,1669832358772,1263,HRV,HRV_0108,2022-11-30 18:23:25
7,"[{'imgObject': {}, 'id': 'kiwi', 'src': '/static/foodstim60/kiwi.jpg', 'key': 'u', 'origWidth': 410, 'origHeight': 410, 'width': 410, 'height': 410, 'widthPercent': 0.45, 'rescaleHeight': False, 'trialN': 7, 'loaded': True, 'loadedTime': 1849.6000000005588, 'positionName': 'LEFT', 'positionCoords': [315.76, 267.5], 'bid': 1.36}, {'imgObject': {}, 'id': 'roastedpotatoes', 'src': '/static/foodstim60/roastedpotatoes.jpg', 'key': 'i', 'origWidth': 409, 'origHeight': 410, 'width': 409, 'height': 410, 'widthPercent': 0.45, 'rescaleHeight': False, 'trialN': 7, 'loaded': True, 'loadedTime': 1854.7999999998137, 'positionName': 'RIGHT', 'positionCoords': [786.24, 267.5], 'bid': 2.12}]",11377.900000000373,1669832358773,kiwi,roastedpotatoes,1.36,2.12,0.76,kiwi,974.2000000001863,980,980.3999999994412,True,u,12859.700000000186,1481.7999999998137,1669832360254,1481,HRV,HRV_0108,2022-11-30 18:23:25
8,"[{'imgObject': {}, 'id': 'cherry tomato', 'src': '/static/foodstim60/cherry tomato.jpg', 'key': 'u', 'origWidth': 410, 'origHeight': 410, 'width': 410, 'height': 410, 'widthPercent': 0.45, 'rescaleHeight': False, 'trialN': 8, 'loaded': True, 'loadedTime': 1855.6000000005588, 'positionName': 'LEFT', 'positionCoords': [315.76, 267.5], 'bid': 2.68}, {'imgObject': {}, 'id': 'Tribe humus pita', 'src': '/static/foodstim60/Tribe humus pita.jpg', 'key': 'i', 'origWidth': 411, 'origHeight': 411, 'width': 411, 'height': 411, 'widthPercent': 0.45, 'rescaleHeight': False, 'trialN': 8, 'loaded': True, 'loadedTime': 1856.7999999998137, 'positionName': 'RIGHT', 'positionCoords': [786.24, 267], 'bid': 7.32}]",12860.200000000186,1669832360255,cherry tomato,Tribe humus pita,2.68,7.32,4.640000000000001,Tribe humus pita,734,741,741.2999999998137,True,i,14102.299999999814,1242.0999999996275,1669832361497,1242,HRV,HRV_0108,2022-11-30 18:23:25
9,"[{'imgObject': {}, 'id': 'eggsalad', 'src': '/static/foodstim60/eggsalad.jpg', 'key': 'u', 'origWidth': 410, 'origHeight': 409, 'width': 410, 'height': 409, 'widthPercent': 0.45, 'rescaleHeight': False, 'trialN': 9, 'loaded': True, 'loadedTime': 1858.6000000005588, 'positionName': 'LEFT', 'positionCoords': [315.76, 268], 'bid': 2.18}, {'imgObject': {}, 'id': 'roastedpotatoes', 'src': '/static/foodstim60/roastedpotatoes.jpg', 'key': 'i', 'origWidth': 409, 'origHeight': 410, 'width': 409, 'height': 410, 'widthPercent': 0.45, 'rescaleHeight': False, 'trialN': 9, 'loaded': True, 'loadedTime': 1854.7999999998137, 'positionName': 'RIGHT', 'positionCoords': [786.24, 267.5], 'bid': 2.12}]",14102.799999999814,1669832361498,eggsalad,roastedpotatoes,2.18,2.12,-0.06000000000000005,eggsalad,2418.9000000003725,2426,2426.100000000559,True,u,17031.299999999814,2928.5,1669832364426,2928,HRV,HRV_0108,2022-11-30 18:23:25
10,"[{'imgObject': {}, 'id': 'fried eggs', 'src': '/static/foodstim60/fried eggs.jpg', 'key': 'u', 'origWidth': 410, 'origHeight': 410, 'width': 410, 'height': 410, 'widthPercent': 0.45, 'rescaleHeight': False, 'trialN': 10, 'loaded': True, 'loadedTime': 1861.2999999998137, 'positionName': 'LEFT', 'positionCoords': [315.76, 267.5], 'bid': 8.21}, {'imgObject': {}, 'id': 'rigatoni and sauce', 'src': '/static/foodstim60/rigatoni and sauce.jpg', 'key': 'i', 'origWidth': 410, 'origHeight': 411, 'width': 410, 'height': 411, 'widthPercent': 0.45, 'rescaleHeight': False, 'trialN': 10, 'loaded': True, 'loadedTime': 1861.2999999998137, 'positionName': 'RIGHT', 'positionCoords': [786.24, 267], 'bid': 6.9}]",17031.799999999814,1669832364427,fried eggs,rigatoni and sauce,8.21,6.9,-1.3100000000000005,NaN,NaN,NaN,,False,NaN,21035.700000000186,4003.9000000003725,1669832368431,4004,HRV,HRV_0108,2022-11-30 18:23:25
11,"[{'imgObject': {}, 'id': 'cherries', 'src': '/static/foodstim60/cherries.jpg', 'key': 'u', 'origWidth': 410, 'origHeight': 411, 'width': 410, 'height': 411, 'widthPercent': 0.45, 'rescaleHeight': False, 'trialN': 11, 'loaded': True, 'loadedTime': 1862.2999999998137, 'positionName': 'LEFT', 'positionCoords': [315.76, 267], 'bid': 3.16}, {'imgObject': {}, 'id': 'hotdog w must', 'src': '/static/foodstim60/hotdog w must.jpg', 'key': 'i', 'origWidth': 409, 'origHeight': 409, 'width': 409, 'height': 409, 'widthPercent': 0.45, 'rescaleHeight': False, 'trialN': 11, 'loaded': True, 'loadedTime': 1863.4000000003725, 'positionName': 'RIGHT', 'positionCoords': [786.24, 268], 'bid': 7.77}]",21036.299999999814,1669832368431,cherries,hotdog w must,3.16,7.77,4.609999999999999,cherries,2979.2000000001863,2986,2986.4000000003725,True,u,24523.799999999814,3487.5,1669832371919,3488,HRV,HRV_0108,2022-11-30 18:23:25
12,"[{'imgObject': {}, 'id': 'banana', 'src': '/static/foodstim60/banana.jpg', 'key': 'u', 'origWidth': 410, 'origHeight': 410, 'width': 410, 'height': 410, 'widthPercent': 0.45, 'rescaleHeight': False, 'trialN': 12, 'loaded': True, 'loadedTime': 1864.5, 'positionName': 'LEFT', 'positionCoords': [315.76, 267.5], 'bid': 7.36}, {'imgObject': {}, 'id': 'froot loops w milk', 'src': '/static/foodstim60/froot loops w milk.jpg', 'key': 'i', 'origWidth': 410, 'origHeight': 410, 'width': 410, 'height': 410, 'widthPercent': 0.45, 'rescaleHeight': False, 'trialN': 12, 'loaded': True, 'loadedTime': 1865, 'positionName': 'RIGHT', 'positionCoords': [786.24, 267.5], 'bid': 6.33}]",24524.299999999814,1669832371919,banana,froot loops w milk,7.36,6.33,-1.0300000000000002,NaN,NaN,NaN,,False,NaN,28528.799999999814,4004.5,1669832375924,4005,HRV,HRV_0108,2022-11-30 18:23:25
13,"[{'imgObject': {}, 'id': 'omelette', 'src': '/static/foodstim60/omelette.jpg', 'key': 'u', 'origWidth': 410, 'origHeight': 409, 'width': 410, 'height': 409, 'widthPercent': 0.45, 'rescaleHeight': False, 'trialN': 13, 'loaded': True, 'loadedTime': 1865.4000000003725, 'positionName': 'LEFT', 'positionCoords': [315.76, 268], 'bid': 7.26}, {'imgObject': {}, 'id': 'veggieswithdip', 'src': '/static/foodstim60/veggieswithdip.jpg', 'key': 'i', 'origWidth': 409, 'origHeight': 409, 'width': 409, 'height': 409, 'widthPercent': 0.45, 'rescaleHeight': False, 'trialN': 13, 'loaded': True, 'loadedTime': 1852.4000000003725, 'positionName': 'RIGHT', 'positionCoords': [786.24, 268], 'bid': 8.05}]",28529.299999999814,1669832375924,omelette,veggieswithdip,7.26,8.05,0.7900000000000009,omelette,676.8000000007451,684,683.7000000001863,True,u,29717.799999999814,1188.5,1669832377113,1189,HRV,HRV_0108,2022-11-30 18:23:25
14,"[{'imgObject': {}, 'id': 'avocado', 'src': '/static/foodstim60/avocado.jpg', 'key': 'u', 'origWidth': 409, 'origHeight': 409, 'width': 409, 'height': 409, 'widthPercent': 0.45, 'rescaleHeight': False, 'trialN': 14, 'loaded': True, 'loadedTime': 1865.9000000003725, 'positionName': 'LEFT', 'positionCoords': [316.76, 268], 'bid': 6.54}, {'imgObject': {}, 'id': 'blackbeanswithrice', 'src': '/static/foodstim60/blackbeanswithrice.jpg', 'key': 'i', 'origWidth': 410, 'origHeight': 410, 'width': 410, 'height': 410, 'widthPercent': 0.45, 'rescaleHeight': False, 'trialN': 14, 'loaded': True, 'loadedTime': 1866.5, 'positionName': 'RIGHT', 'positionCoords': [786.24, 267.5], 'bid': 1.23}]",29718.299999999814,1669832377113,avocado,blackbeanswithrice,6.54,1.23,-5.3100000000000005,NaN,NaN,NaN,,False,NaN,33723.60000000056,4005.300000000745,1669832381118,4005,HRV,HRV_0108,2022-11-30 18:23:25
15,"[{'imgObject': {}, 'id': 'rigatoni', 'src': '/static/foodstim60/rigatoni.jpg', 'key': 'u', 'origWidth': 411, 'origHeight': 411, 'width': 411, 'height': 411, 'widthPercent': 0.45, 'rescaleHeight': False, 'trialN': 15, 'loaded': True, 'loadedTime': 1847.7000000001863, 'positionName': 'LEFT', 'positionCoords': [314.76, 267], 'bid': 8.69}, {'imgObject': {}, 'id': 'pear', 'src': '/static/foodstim60/pear.jpg', 'key': 'i', 'origWidth': 411, 'origHeight': 410, 'width': 411, 'height': 410, 'widthPercent': 0.45, 'rescaleHeight': False, 'trialN': 15, 'loaded': True, 'loadedTime': 1866.5, 'positionName': 'RIGHT', 'positionCoords': [786.24, 267.5], 'bid': 9.25}]",33724.10000000056,1669832381119,rigatoni,pear,8.69,9.25,0.5600000000000005,pear,1720.199999999255,1728,1727.8999999994412,True,i,35953.0,2228.899999999441,1669832383348,2229,HRV,HRV_0108,2022-11-30 18:23:25
16,"[{'imgObject': {}, 'id': 'rigatoni', 'src': '/static/foodstim60/rigatoni.jpg', 'key': 'u', 'origWidth': 411, 'origHeight': 411, 'width': 411, 'height': 411, 'widthPercent': 0.45, 'rescaleHeight': False, 'trialN': 16, 'loaded': True, 'loadedTime': 1847.6000000005588, 'positionName': 'LEFT', 'positionCoords': [314.76, 267], 'bid': 8.69}, {'imgObject': {}, 'id': 'mac & cheese', 'src': '/static/foodstim60/mac & cheese.jpg', 'key': 'i', 'origWidth': 410, 'origHeight': 410, 'width': 410, 'height': 410, 'widthPercent': 0.45, 'rescaleHeight': False, 'trialN': 16, 'loaded': True, 'loadedTime': 1853, 'positionName': 'RIGHT', 'positionCoords': [786.24, 267.5], 'bid': 8.620000000000001}]",35953.5,1669832383348,rigatoni,mac & cheese,8.69,8.620000000000001,-0.06999999999999851,rigatoni,1973,1981,1980.2999999998137,True,u,38434.5,2481.0,1669832385829,2481,HRV,HRV_0108,2022-11-30 18:23:25
17,"[{'imgObject': {}, 'id': 'tacos', 'src': '/static/foodstim60/tacos.jpg', 'key': 'u', 'origWidth': 411, 'origHeight': 411, 'width': 411, 'height': 411, 'widthPercent': 0.45, 'rescaleHeight': False, 'trialN': 17, 'loaded': True, 'loadedTime': 1867.5, 'positionName': 'LEFT', 'positionCoords': [314.76, 267], 'bid': 7.15}, {'imgObject': {}, 'id': 'bagel plain', 'src': '/static/foodstim60/bagel plain.jpg', 'key': 'i', 'origWidth': 410, 'origHeight': 410, 'width': 410, 'height': 410, 'widthPercent': 0.45, 'rescaleHeight': False, 'trialN': 17, 'loaded': True, 'loadedTime': 1868, 'positionName': 'RIGHT', 'positionCoords': [786.24, 267.5], 'bid': 8.22}]",38435.0,1669832385830,tacos,bagel plain,7.15,8.22,1.0700000000000003,tacos,2548.100000000559,2554,2554.2000000001863,True,u,41491.10000000056,3056.100000000559,1669832388886,3056,HRV,HRV_0108,2022-11-30 18:23:25
18,"[{'imgObject': {}, 'id': 'bagel plain', 'src': '/static/foodstim60/bagel plain.jpg', 'key': 'u', 'origWidth': 410, 'origHeight': 410, 'width': 410, 'height': 410, 'widthPercent': 0.45, 'rescaleHeight': False, 'trialN': 18, 'loaded': True, 'loadedTime': 1868, 'positionName': 'LEFT', 'positionCoords': [315.76, 267.5], 'bid': 8.22}, {'imgObject': {}, 'id': 'pear', 'src': '/static/foodstim60/pear.jpg', 'key': 'i', 'origWidth': 411, 'origHeight': 410, 'width': 411, 'height': 410, 'widthPercent': 0.45, 'rescaleHeight': False, 'trialN': 18, 'loaded': True, 'loadedTime': 1866.9000000003725, 'positionName': 'RIGHT', 'positionCoords': [786.24, 267.5], 'bid': 9.25}]",41491.700000000186,1669832388887,bagel plain,pear,8.22,9.25,1.0299999999999994,bagel plain,678.5999999996275,685,685.7999999998137,True,u,42678.299999999814,1186.5999999996275,1669832390073,1186,HRV,HRV_0108,2022-11-30 18:23:25
19,"[{'imgObject': {}, 'id': 'fried eggs', 'src': '/static/foodstim60/fried eggs.jpg', 'key': 'u', 'origWidth': 410, 'origHeight': 410, 'width': 410, 'height': 410, 'widthPercent': 0.45, 'rescaleHeight': False, 'trialN': 19, 'loaded': True, 'loadedTime': 1861.2000000001863, 'positionName': 'LEFT', 'positionCoords': [315.76, 267.5], 'bid': 8.21}, {'imgObject': {}, 'id': 'orange slices', 'src': '/static/foodstim60/orange slices.jpg', 'key': 'i', 'origWidth': 409, 'origHeight': 410, 'width': 409, 'height': 410, 'widthPercent': 0.45, 'rescaleHeight': False, 'trialN': 19, 'loaded': True, 'loadedTime': 1869, 'positionName': 'RIGHT', 'positionCoords': [786.24, 267.5], 'bid': 7.3}]",42678.700000000186,1669832390074,fried eggs,orange slices,8.21,7.3,-0.910000000000001,fried eggs,546,554,554.2999999998137,True,u,43734.200000000186,1055.5,1669832391129,1055,HRV,HRV_0108,2022-11-30 18:23:25
20,"[{'imgObject': {}, 'id': 'hotdog w must', 'src': '/static/foodstim60/hotdog w must.jpg', 'key': 'u', 'origWidth': 409, 'origHeight': 409, 'width': 409, 'height': 409, 'widthPercent': 0.45, 'rescaleHeight': False, 'trialN': 20, 'loaded': True, 'loadedTime': 1863.5, 'positionName': 'LEFT', 'positionCoords': [316.76, 268], 'bid': 7.77}, {'imgObject': {}, 'id': 'chicken nuggets2', 'src': '/static/foodstim60/chicken nuggets2.jpg', 'key': 'i', 'origWidth': 410, 'origHeight': 409, 'width': 410, 'height': 409, 'widthPercent': 0.45, 'rescaleHeight': False, 'trialN': 20, 'loaded': True, 'loadedTime': 1869.2999999998137, 'positionName': 'RIGHT', 'positionCoords': [786.24, 268], 'bid': 8.34}]",43734.700000000186,1669832391130,hotdog w must,chicken nuggets2,7.77,8.34,0.5700000000000003,chicken nuggets2,633.4000000003725,641,641.0,True,i,44876.299999999814,1141.5999999996275,1669832392271,1141,HRV,HRV_0108,2022-11-30 18:23:25
21,"[{'imgObject': {}, 'id': 'bagel and cc', 'src': '/static/foodstim60/bagel and cc.jpg', 'key': 'u', 'origWidth': 410, 'origHeight': 410, 'width': 410, 'height': 410, 'widthPercent': 0.45, 'rescaleHeight': False, 'trialN': 21, 'loaded': True, 'loadedTime': 1848.2999999998137, 'positionName': 'LEFT', 'positionCoords': [315.76, 267.5], 'bid': 7.63}, {'imgObject': {}, 'id': 'blueberries', 'src': '/static/foodstim60/blueberries.jpg', 'key': 'i', 'origWidth': 411, 'origHeight': 411, 'width': 411, 'height': 411, 'widthPercent': 0.45, 'rescaleHeight': False, 'trialN': 21, 'loaded': True, 'loadedTime': 1870.7999999998137, 'positionName': 'RIGHT', 'positionCoords': [786.24, 267], 'bid': 6.36}]",44876.700000000186,1669832392272,bagel and cc,blueberries,7.63,6.36,-1.2699999999999996,bagel and cc,472.09999999962747,479,479.40000000037253,True,u,45857.0,980.2999999998137,1669832393252,980,HRV,HRV_0108,2022-11-30 18:23:25
22,"[{'imgObject': {}, 'id': 'apple slices', 'src': '/static/foodstim60/apple slices.jpg', 'key': 'u', 'origWidth': 409, 'origHeight': 410, 'width': 409, 'height': 410, 'widthPercent': 0.45, 'rescaleHeight': False, 'trialN': 22, 'loaded': True, 'loadedTime': 1871.2000000001863, 'positionName': 'LEFT', 'positionCoords': [316.76, 267.5], 'bid': 8.370000000000001}, {'imgObject': {}, 'id': 'banana', 'src': '/static/foodstim60/banana.jpg', 'key': 'i', 'origWidth': 410, 'origHeight': 410, 'width': 410, 'height': 410, 'widthPercent': 0.45, 'rescaleHeight': False, 'trialN': 22, 'loaded': True, 'loadedTime': 1864.4000000003725, 'positionName': 'RIGHT', 'positionCoords': [786.24, 267.5], 'bid': 7.36}]",45857.5,1669832393252,apple slices,banana,8.370000000000001,7.36,-1.0100000000000007,apple slices,1948.2000000001863,1956,1955.7000000001863,True,u,48315.60000000056,2458.100000000559,1669832395710,2458,HRV,HRV_0108,2022-11-30 18:23:25
23,"[{'imgObject': {}, 'id': 'raspberries', 'src': '/static/foodstim60/raspberries.jpg', 'key': 'u', 'origWidth': 411, 'origHeight': 411, 'width': 411, 'height': 411, 'widthPercent': 0.45, 'rescaleHeight': False, 'trialN': 23, 'loaded': True, 'loadedTime': 1872.1000000005588, 'positionName': 'LEFT', 'positionCoords': [314.76, 267], 'bid': 5.5600000000000005}, {'imgObject': {}, 'id': 'sweetpotato', 'src': '/static/foodstim60/sweetpotato.jpg', 'key': 'i', 'origWidth': 410, 'origHeight': 410, 'width': 410, 'height': 410, 'widthPercent': 0.45, 'rescaleHeight': False, 'trialN': 23, 'loaded': True, 'loadedTime': 1833.5, 'positionName': 'RIGHT', 'positionCoords': [786.24, 267.5], 'bid': 5.6000000000000005}]",48316.10000000056,1669832395711,raspberries,sweetpotato,5.5600000000000005,5.6000000000000005,0.040000000000000036,raspberries,794.5999999996275,802,801.7999999998137,True,u,49622.299999999814,1306.199999999255,1669832397017,1306,HRV,HRV_0108,2022-11-30 18:23:25
24,"[{'imgObject': {}, 'id': 'salad w chicken', 'src': '/static/foodstim60/salad w chicken.jpg', 'key': 'u', 'origWidth': 411, 'origHeight': 411, 'width': 411, 'height': 411, 'widthPercent': 0.45, 'rescaleHeight': False, 'trialN': 24, 'loaded': True, 'loadedTime': 1850.4000000003725, 'positionName': 'LEFT', 'positionCoords': [314.76, 267], 'bid': 3.37}, {'imgObject': {}, 'id': 'kiwi', 'src': '/static/foodstim60/kiwi.jpg', 'key': 'i', 'origWidth': 410, 'origHeight': 410, 'width': 410, 'height': 410, 'widthPercent': 0.45, 'rescaleHeight': False, 'trialN': 24, 'loaded': True, 'loadedTime': 1849.7000000001863, 'positionName': 'RIGHT', 'positionCoords': [786.24, 267.5], 'bid': 1.36}]",49622.700000000186,1669832397018,salad w chicken,kiwi,3.37,1.36,-2.01,salad w chicken,601.2000000001863,608,608.5999999996275,True,u,50731.700000000186,1109.0,1669832398127,1109,HRV,HRV_0108,2022-11-30 18:23:25
25,"[{'imgObject': {}, 'id': 'salad w chicken', 'src': '/static/foodstim60/salad w chicken.jpg', 'key': 'u', 'origWidth': 411, 'origHeight': 411, 'width': 411, 'height': 411, 'widthPercent': 0.45, 'rescaleHeight': False, 'trialN': 25, 'loaded': True, 'loadedTime': 1850.4000000003725, 'positionName': 'LEFT', 'positionCoords': [314.76, 267], 'bid': 3.37}, {'imgObject': {}, 'id': 'cherries', 'src': '/static/foodstim60/cherries.jpg', 'key': 'i', 'origWidth': 410, 'origHeight': 411, 'width': 410, 'height': 411, 'widthPercent': 0.45, 'rescaleHeight': False, 'trialN': 25, 'loaded': True, 'loadedTime': 1862.5, 'positionName': 'RIGHT', 'positionCoords': [786.24, 267], 'bid': 3.16}]",50732.200000000186,1669832398127,salad w chicken,cherries,3.37,3.16,-0.20999999999999996,salad w chicken,596.2999999998137,604,603.7999999998137,True,u,51837.200000000186,1105.0,1669832399232,1105,HRV,HRV_0108,2022-11-30 18:23:25
26,"[{'imgObject': {}, 'id': 'yogurt no spoon', 'src': '/static/foodstim60/yogurt no spoon.jpg', 'key': 'u', 'origWidth': 411, 'origHeight': 410, 'width': 411, 'height': 410, 'widthPercent': 0.45, 'rescaleHeight': False, 'trialN': 26, 'loaded': True, 'loadedTime': 1872.7000000001863, 'positionName': 'LEFT', 'positionCoords': [314.76, 267.5], 'bid': 6.54}, {'imgObject': {}, 'id': 'kiwi', 'src': '/static/foodstim60/kiwi.jpg', 'key': 'i', 'origWidth': 410, 'origHeight': 410, 'width': 410, 'height': 410, 'widthPercent': 0.45, 'rescaleHeight': False, 'trialN': 26, 'loaded': True, 'loadedTime': 1849.6000000005588, 'positionName': 'RIGHT', 'positionCoords': [786.24, 267.5], 'bid': 1.36}]",51837.700000000186,1669832399233,yogurt no spoon,kiwi,6.54,1.36,-5.18,kiwi,549.9000000003725,556,557.0,True,i,52896.90000000037,1059.2000000001863,1669832400292,1059,HRV,HRV_0108,2022-11-30 18:23:25
27,"[{'imgObject': {}, 'id': 'tacos', 'src': '/static/foodstim60/tacos.jpg', 'key': 'u', 'origWidth': 411, 'origHeight': 411, 'width': 411, 'height': 411, 'widthPercent': 0.45, 'rescaleHeight': False, 'trialN': 27, 'loaded': True, 'loadedTime': 1867.6000000005588, 'positionName': 'LEFT', 'positionCoords': [314.76, 267], 'bid': 7.15}, {'imgObject': {}, 'id': 'fruitsalad', 'src': '/static/foodstim60/fruitsalad.jpg', 'key': 'i', 'origWidth': 410, 'origHeight': 410, 'width': 410, 'height': 410, 'widthPercent': 0.45, 'rescaleHeight': False, 'trialN': 27, 'loaded': True, 'loadedTime': 1873.2000000001863, 'positionName': 'RIGHT', 'positionCoords': [786.24, 267.5], 'bid': 6.08}]",52897.40000000037,1669832400292,tacos,fruitsalad,7.15,6.08,-1.0700000000000003,tacos,433.09999999962747,440,440.20000000018626,True,u,53839.40000000037,942.0,1669832401234,942,HRV,HRV_0108,2022-11-30 18:23:25
28,"[{'imgObject': {}, 'id': 'orange slices', 'src': '/static/foodstim60/orange slices.jpg', 'key': 'u', 'origWidth': 409, 'origHeight': 410, 'width': 409, 'height': 410, 'widthPercent': 0.45, 'rescaleHeight': False, 'trialN': 28, 'loaded': True, 'loadedTime': 1868.5, 'positionName': 'LEFT', 'positionCoords': [316.76, 267.5], 'bid': 7.3}, {'imgObject': {}, 'id': 'omelette', 'src': '/static/foodstim60/omelette.jpg', 'key': 'i', 'origWidth': 410, 'origHeight': 409, 'width': 410, 'height': 409, 'widthPercent': 0.45, 'rescaleHeight': False, 'trialN': 28, 'loaded': True, 'loadedTime': 1865.2999999998137, 'positionName': 'RIGHT', 'positionCoords': [786.24, 268], 'bid': 7.26}]",53839.799999999814,1669832401235,orange slices,omelette,7.3,7.26,-0.040000000000000036,orange slices,527.6000000005588,535,535.5,True,u,54875.700000000186,1035.9000000003725,1669832402271,1036,HRV,HRV_0108,2022-11-30 18:23:25
29,"[{'imgObject': {}, 'id': 'raspberries', 'src': '/static/foodstim60/raspberries.jpg', 'key': 'u', 'origWidth': 411, 'origHeight': 411, 'width': 411, 'height': 411, 'widthPercent': 0.45, 'rescaleHeight': False, 'trialN': 29, 'loaded': True, 'loadedTime': 1872.2000000001863, 'positionName': 'LEFT', 'positionCoords': [314.76, 267], 'bid': 5.5600000000000005}, {'imgObject': {}, 'id': 'mashed potato', 'src': '/static/foodstim60/mashed potato.jpg', 'key': 'i', 'origWidth': 409, 'origHeight': 409, 'width': 409, 'height': 409, 'widthPercent': 0.45, 'rescaleHeight': False, 'trialN': 29, 'loaded': True, 'loadedTime': 1873.7000000001863, 'positionName': 'RIGHT', 'positionCoords': [786.24, 268], 'bid': 1.87}]",54876.200000000186,1669832402271,raspberries,mashed potato,5.5600000000000005,1.87,-3.6900000000000004,raspberries,864.5,872,871.7000000001863,True,u,56251.40000000037,1375.2000000001863,1669832403646,1375,HRV,HRV_0108,2022-11-30 18:23:25
30,"[{'imgObject': {}, 'id': 'cheerios', 'src': '/static/foodstim60/cheerios.jpg', 'key': 'u', 'origWidth': 409, 'origHeight': 410, 'width': 409, 'height': 410, 'widthPercent': 0.45, 'rescaleHeight': False, 'trialN': 30, 'loaded': True, 'loadedTime': 1873.7000000001863, 'positionName': 'LEFT', 'positionCoords': [316.76, 267.5], 'bid': 3.13}, {'imgObject': {}, 'id': 'mango', 'src': '/static/foodstim60/mango.jpg', 'key': 'i', 'origWidth': 411, 'origHeight': 411, 'width': 411, 'height': 411, 'widthPercent': 0.45, 'rescaleHeight': False, 'trialN': 30, 'loaded': True, 'loadedTime': 1851.7000000001863, 'positionName': 'RIGHT', 'positionCoords': [786.24, 267], 'bid': 1.2}]",56251.799999999814,1669832403647,cheerios,mango,3.13,1.2,-1.93,cheerios,1706.2000000001863,1714,1714.2000000001863,True,u,58470.5,2218.7000000001863,1669832405865,2218,HRV,HRV_0108,2022-11-30 18:23:25
31,"[{'imgObject': {}, 'id': 'edamame', 'src': '/static/foodstim60/edamame.jpg', 'key': 'u', 'origWidth': 409, 'origHeight': 410, 'width': 409, 'height': 410, 'widthPercent': 0.45, 'rescaleHeight': False, 'trialN': 31, 'loaded': True, 'loadedTime': 1874.7000000001863, 'positionName': 'LEFT', 'positionCoords': [316.76, 267.5], 'bid': 1.62}, {'imgObject': {}, 'id': 'granola w milk', 'src': '/static/foodstim60/granola w milk.jpg', 'key': 'i', 'origWidth': 410, 'origHeight': 410, 'width': 410, 'height': 410, 'widthPercent': 0.45, 'rescaleHeight': False, 'trialN': 31, 'loaded': True, 'loadedTime': 1875.2999999998137, 'positionName': 'RIGHT', 'positionCoords': [786.24, 267.5], 'bid': 3.1}]",58470.799999999814,1669832405866,edamame,granola w milk,1.62,3.1,1.48,granola w milk,772.6000000005588,779,779.5,True,i,59752.200000000186,1281.4000000003725,1669832407147,1281,HRV,HRV_0108,2022-11-30 18:23:25
32,"[{'imgObject': {}, 'id': 'cheerios', 'src': '/static/foodstim60/cheerios.jpg', 'key': 'u', 'origWidth': 409, 'origHeight': 410, 'width': 409, 'height': 410, 'widthPercent': 0.45, 'rescaleHeight': False, 'trialN': 32, 'loaded': True, 'loadedTime': 1874.2000000001863, 'positionName': 'LEFT', 'positionCoords': [316.76, 267.5], 'bid': 3.13}, {'imgObject': {}, 'id': 'granola w milk', 'src': '/static/foodstim60/granola w milk.jpg', 'key': 'i', 'origWidth': 410, 'origHeight': 410, 'width': 410, 'height': 410, 'widthPercent': 0.45, 'rescaleHeight': False, 'trialN': 32, 'loaded': True, 'loadedTime': 1875.2000000001863, 'positionName': 'RIGHT', 'positionCoords': [786.24, 267.5], 'bid': 3.1}]",59752.5,1669832407147,cheerios,granola w milk,3.13,3.1,-0.029999999999999805,cheerios,526.7999999998137,534,533.7999999998137,True,u,60791.0,1038.5,1669832408186,1039,HRV,HRV_0108,2022-11-30 18:23:25
33,"[{'imgObject': {}, 'id': 'cocktailshrimp', 'src': '/static/foodstim60/cocktailshrimp.jpg', 'key': 'u', 'origWidth': 410, 'origHeight': 410, 'width': 410, 'height': 410, 'widthPercent': 0.45, 'rescaleHeight': False, 'trialN': 33, 'loaded': True, 'loadedTime': 1875.7999999998137, 'positionName': 'LEFT', 'positionCoords': [315.76, 267.5], 'bid': 6.33}, {'imgObject': {}, 'id': 'froot loops w milk', 'src': '/static/foodstim60/froot loops w milk.jpg', 'key': 'i', 'origWidth': 410, 'origHeight': 410, 'width': 410, 'height': 410, 'widthPercent': 0.45, 'rescaleHeight': False, 'trialN': 33, 'loaded': True, 'loadedTime': 1865, 'positionName': 'RIGHT', 'positionCoords': [786.24, 267.5], 'bid': 6.33}]",60791.90000000037,1669832408187,cocktailshrimp,froot loops w milk,6.33,6.33,0.0,cocktailshrimp,637.2999999998137,646,646.2999999998137,True,u,61942.299999999814,1150.3999999994412,1669832409337,1150,HRV,HRV_0108,2022-11-30 18:23:25
34,"[{'imgObject': {}, 'id': 'hotdog w must', 'src': '/static/foodstim60/hotdog w must.jpg', 'key': 'u', 'origWidth': 409, 'origHeight': 409, 'width': 409, 'height': 409, 'widthPercent': 0.45, 'rescaleHeight': False, 'trialN': 34, 'loaded': True, 'loadedTime': 1863, 'positionName': 'LEFT', 'positionCoords': [316.76, 268], 'bid': 7.77}, {'imgObject': {}, 'id': 'turkey sandwich', 'src': '/static/foodstim60/turkey sandwich.jpg', 'key': 'i', 'origWidth': 409, 'origHeight': 409, 'width': 409, 'height': 409, 'widthPercent': 0.45, 'rescaleHeight': False, 'trialN': 34, 'loaded': True, 'loadedTime': 1876.2000000001863, 'positionName': 'RIGHT', 'positionCoords': [786.24, 268], 'bid': 8.700000000000001}]",61942.700000000186,1669832409337,hotdog w must,turkey sandwich,7.77,8.700000000000001,0.9300000000000015,turkey sandwich,626.4000000003725,634,633.0999999996275,True,i,63078.299999999814,1135.5999999996275,1669832410473,1136,HRV,HRV_0108,2022-11-30 18:23:25
35,"[{'imgObject': {}, 'id': 'eggsalad', 'src': '/static/foodstim60/eggsalad.jpg', 'key': 'u', 'origWidth': 410, 'origHeight': 409, 'width': 410, 'height': 409, 'widthPercent': 0.45, 'rescaleHeight': False, 'trialN': 35, 'loaded': True, 'loadedTime': 1858.5, 'positionName': 'LEFT', 'positionCoords': [315.76, 268], 'bid': 2.18}, {'imgObject': {}, 'id': 'seaweed', 'src': '/static/foodstim60/seaweed.jpg', 'key': 'i', 'origWidth': 410, 'origHeight': 410, 'width': 410, 'height': 410, 'widthPercent': 0.45, 'rescaleHeight': False, 'trialN': 35, 'loaded': True, 'loadedTime': 1877, 'positionName': 'RIGHT', 'positionCoords': [786.24, 267.5], 'bid': 0.93}]",63078.799999999814,1669832410474,eggsalad,seaweed,2.18,0.93,-1.25,eggsalad,587.7000000001863,593,593.7000000001863,True,u,64177.0,1098.2000000001863,1669832411572,1098,HRV,HRV_0108,2022-11-30 18:23:25
36,"[{'imgObject': {}, 'id': 'yogurt no spoon', 'src': '/static/foodstim60/yogurt no spoon.jpg', 'key': 'u', 'origWidth': 411, 'origHeight': 410, 'width': 411, 'height': 410, 'widthPercent': 0.45, 'rescaleHeight': False, 'trialN': 36, 'loaded': True, 'loadedTime': 1872.7999999998137, 'positionName': 'LEFT', 'positionCoords': [314.76, 267.5], 'bid': 6.54}, {'imgObject': {}, 'id': 'burger', 'src': '/static/foodstim60/burger.jpg', 'key': 'i', 'origWidth': 409, 'origHeight': 409, 'width': 409, 'height': 409, 'widthPercent': 0.45, 'rescaleHeight': False, 'trialN': 36, 'loaded': True, 'loadedTime': 1877.5, 'positionName': 'RIGHT', 'positionCoords': [786.24, 268], 'bid': 5.92}]",64177.5,1669832411572,yogurt no spoon,burger,6.54,5.92,-0.6200000000000001,burger,594.4000000003725,602,601.4000000003725,True,i,65281.0,1103.5,1669832412676,1104,HRV,HRV_0108,2022-11-30 18:23:25
37,"[{'imgObject': {}, 'id': 'roastedpotatoes', 'src': '/static/foodstim60/roastedpotatoes.jpg', 'key': 'u', 'origWidth': 409, 'origHeight': 410, 'width': 409, 'height': 410, 'widthPercent': 0.45, 'rescaleHeight': False, 'trialN': 37, 'loaded': True, 'loadedTime': 1855.1000000005588, 'positionName': 'LEFT', 'positionCoords': [316.76, 267.5], 'bid': 2.12}, {'imgObject': {}, 'id': 'lox', 'src': '/static/foodstim60/lox.jpg', 'key': 'i', 'origWidth': 410, 'origHeight': 411, 'width': 410, 'height': 411, 'widthPercent': 0.45, 'rescaleHeight': False, 'trialN': 37, 'loaded': True, 'loadedTime': 1845.5, 'positionName': 'RIGHT', 'positionCoords': [786.24, 267], 'bid': 2.03}]",65281.40000000037,1669832412676,roastedpotatoes,lox,2.12,2.03,-0.0900000000000003,roastedpotatoes,877,884,884.0,True,u,66667.70000000019,1386.2999999998137,1669832414063,1387,HRV,HRV_0108,2022-11-30 18:23:25
38,"[{'imgObject': {}, 'id': 'baked potato', 'src': '/static/foodstim60/baked potato.jpg', 'key': 'u', 'origWidth': 409, 'origHeight': 410, 'width': 409, 'height': 410, 'widthPercent': 0.45, 'rescaleHeight': False, 'trialN': 38, 'loaded': True, 'loadedTime': 1878, 'positionName': 'LEFT', 'positionCoords': [316.76, 267.5], 'bid': 6.01}, {'imgObject': {}, 'id': 'burger', 'src': '/static/foodstim60/burger.jpg', 'key': 'i', 'origWidth': 409, 'origHeight': 409, 'width': 409, 'height': 409, 'widthPercent': 0.45, 'rescaleHeight': False, 'trialN': 38, 'loaded': True, 'loadedTime': 1877.4000000003725, 'positionName': 'RIGHT', 'positionCoords': [786.24, 268], 'bid': 5.92}]",66668.10000000056,1669832414063,baked potato,burger,6.01,5.92,-0.08999999999999986,baked potato,556.2999999998137,562,561.7999999998137,True,u,67734.29999999981,1066.199999999255,1669832415129,1066,HRV,HRV_0108,2022-11-30 18:23:25
39,"[{'imgObject': {}, 'id': 'tacos', 'src': '/static/foodstim60/tacos.jpg', 'key': 'u', 'origWidth': 411, 'origHeight': 411, 'width': 411, 'height': 411, 'widthPercent': 0.45, 'rescaleHeight': False, 'trialN': 39, 'loaded': True, 'loadedTime': 1867.5, 'positionName': 'LEFT', 'positionCoords': [314.76, 267], 'bid': 7.15}, {'imgObject': {}, 'id': 'ice cream sundae 002', 'src': '/static/foodstim60/ice cream sundae 002.jpg', 'key': 'i', 'origWidth': 409, 'origHeight': 409, 'width': 409, 'height': 409, 'widthPercent': 0.45, 'rescaleHeight': False, 'trialN': 39, 'loaded': True, 'loadedTime': 1878, 'positionName': 'RIGHT', 'positionCoords': [786.24, 268], 'bid': 6.83}]",67734.70000000019,1669832415130,tacos,ice cream sundae 002,7.15,6.83,-0.3200000000000003,tacos,583.5,592,592.7999999998137,True,u,68828.0,1093.2999999998137,1669832416223,1093,HRV,HRV_0108,2022-11-30 18:23:25
40,"[{'imgObject': {}, 'id': 'turkey sandwich', 'src': '/static/foodstim60/turkey sandwich.jpg', 'key': 'u', 'origWidth': 409, 'origHeight': 409, 'width': 409, 'height': 409, 'widthPercent': 0.45, 'rescaleHeight': False, 'trialN': 40, 'loaded': True, 'loadedTime': 1875.7999999998137, 'positionName': 'LEFT', 'positionCoords': [316.76, 268], 'bid': 8.700000000000001}, {'imgObject': {}, 'id': 'Tribe humus pita', 'src': '/static/foodstim60/Tribe humus pita.jpg', 'key': 'i', 'origWidth': 411, 'origHeight': 411, 'width': 411, 'height': 411, 'widthPercent': 0.45, 'rescaleHeight': False, 'trialN': 40, 'loaded': True, 'loadedTime': 1856.7999999998137, 'positionName': 'RIGHT', 'positionCoords': [786.24, 267], 'bid': 7.32}]",68828.40000000037,1669832416223,turkey sandwich,Tribe humus pita,8.700000000000001,7.32,-1.3800000000000008,turkey sandwich,610.7000000001863,618,618.0999999996275,True,u,69947.60000000056,1119.2000000001863,1669832417342,1119,HRV,HRV_0108,2022-11-30 18:23:25
41,"[{'imgObject': {}, 'id': 'rigatoni', 'src': '/static/foodstim60/rigatoni.jpg', 'key': 'u', 'origWidth': 411, 'origHeight': 411, 'width': 411, 'height': 411, 'widthPercent': 0.45, 'rescaleHeight': False, 'trialN': 41, 'loaded': True, 'loadedTime': 1847.6000000005588, 'positionName': 'LEFT', 'positionCoords': [314.76, 267], 'bid': 8.69}, {'imgObject': {}, 'id': 'orange slices', 'src': '/static/foodstim60/orange slices.jpg', 'key': 'i', 'origWidth': 409, 'origHeight': 410, 'width': 409, 'height': 410, 'widthPercent': 0.45, 'rescaleHeight': False, 'trialN': 41, 'loaded': True, 'loadedTime': 1869.1000000005588, 'positionName': 'RIGHT', 'positionCoords': [786.24, 267.5], 'bid': 7.3}]",69948.0,1669832417343,rigatoni,orange slices,8.69,7.3,-1.3899999999999997,rigatoni,605.7000000001863,612,612.5,True,u,71062.29999999981,1114.2999999998137,1669832418457,1114,HRV,HRV_0108,2022-11-30 18:23:25
42,"[{'imgObject': {}, 'id': 'blackbeanswithrice', 'src': '/static/foodstim60/blackbeanswithrice.jpg', 'key': 'u', 'origWidth': 410, 'origHeight': 410, 'width': 410, 'height': 410, 'widthPercent': 0.45, 'rescaleHeight': False, 'trialN': 42, 'loaded': True, 'loadedTime': 1866.5, 'positionName': 'LEFT', 'positionCoords': [315.76, 267.5], 'bid': 1.23}, {'imgObject': {}, 'id': 'cherry tomato', 'src': '/static/foodstim60/cherry tomato.jpg', 'key': 'i', 'origWidth': 410, 'origHeight': 410, 'width': 410, 'height': 410, 'widthPercent': 0.45, 'rescaleHeight': False, 'trialN': 42, 'loaded': True, 'loadedTime': 1855.1000000005588, 'positionName': 'RIGHT', 'positionCoords': [786.24, 267.5], 'bid': 2.68}]",71062.70000000019,1669832418458,blackbeanswithrice,cherry tomato,1.23,2.68,1.4500000000000002,blackbeanswithrice,798.2000000001863,805,805.2000000001863,True,u,72369.0,1306.2999999998137,1669832419764,1306,HRV,HRV_0108,2022-11-30 18:23:25
43,"[{'imgObject': {}, 'id': 'mango', 'src': '/static/foodstim60/mango.jpg', 'key': 'u', 'origWidth': 411, 'origHeight': 411, 'width': 411, 'height': 411, 'widthPercent': 0.45, 'rescaleHeight': False, 'trialN': 43, 'loaded': True, 'loadedTime': 1851.7000000001863, 'positionName': 'LEFT', 'positionCoords': [314.76, 267], 'bid': 1.2}, {'imgObject': {}, 'id': 'blueberries', 'src': '/static/foodstim60/blueberries.jpg', 'key': 'i', 'origWidth': 411, 'origHeight': 411, 'width': 411, 'height': 411, 'widthPercent': 0.45, 'rescaleHeight': False, 'trialN': 43, 'loaded': True, 'loadedTime': 1870.7000000001863, 'positionName': 'RIGHT', 'positionCoords': [786.24, 267], 'bid': 6.36}]",72369.40000000037,1669832419764,mango,blueberries,1.2,6.36,5.16,blueberries,631.7000000001863,639,638.7000000001863,True,i,73510.29999999981,1140.8999999994412,1669832420905,1141,HRV,HRV_0108,2022-11-30 18:23:25
44,"[{'imgObject': {}, 'id': 'seaweed', 'src': '/static/foodstim60/seaweed.jpg', 'key': 'u', 'origWidth': 410, 'origHeight': 410, 'width': 410, 'height': 410, 'widthPercent': 0.45, 'rescaleHeight': False, 'trialN': 44, 'loaded': True, 'loadedTime': 1877, 'positionName': 'LEFT', 'positionCoords': [315.76, 267.5], 'bid': 0.93}, {'imgObject': {}, 'id': 'mashed potato', 'src': '/static/foodstim60/mashed potato.jpg', 'key': 'i', 'origWidth': 409, 'origHeight': 409, 'width': 409, 'height': 409, 'widthPercent': 0.45, 'rescaleHeight': False, 'trialN': 44, 'loaded': True, 'loadedTime': 1873.7000000001863, 'positionName': 'RIGHT', 'positionCoords': [786.24, 268], 'bid': 1.87}]",73510.79999999981,1669832420906,seaweed,mashed potato,0.93,1.87,0.9400000000000001,mashed potato,675.2000000001863,682,682.8000000007451,True,i,74694.29999999981,1183.5,1669832422089,1183,HRV,HRV_0108,2022-11-30 18:23:25
45,"[{'imgObject': {}, 'id': 'baked potato', 'src': '/static/foodstim60/baked potato.jpg', 'key': 'u', 'origWidth': 409, 'origHeight': 410, 'width': 409, 'height': 410, 'widthPercent': 0.45, 'rescaleHeight': False, 'trialN': 45, 'loaded': True, 'loadedTime': 1878, 'positionName': 'LEFT', 'positionCoords': [316.76, 267.5], 'bid': 6.01}, {'imgObject': {}, 'id': 'mac & cheese', 'src': '/static/foodstim60/mac & cheese.jpg', 'key': 'i', 'origWidth': 410, 'origHeight': 410, 'width': 410, 'height': 410, 'widthPercent': 0.45, 'rescaleHeight': False, 'trialN': 45, 'loaded': True, 'loadedTime': 1853, 'positionName': 'RIGHT', 'positionCoords': [786.24, 267.5], 'bid': 8.620000000000001}]",74694.79999999981,1669832422090,baked potato,mac & cheese,6.01,8.620000000000001,2.610000000000001,mac & cheese,537,543,542.9000000003725,True,i,75739.60000000056,1044.800000000745,1669832423134,1044,HRV,HRV_0108,2022-11-30 18:23:25
46,"[{'imgObject': {}, 'id': 'chickenfingers', 'src': '/static/foodstim60/chickenfingers.jpg', 'key': 'u', 'origWidth': 410, 'origHeight': 410, 'width': 410, 'height': 410, 'widthPercent': 0.45, 'rescaleHeight': False, 'trialN': 46, 'loaded': True, 'loadedTime': 1879, 'positionName': 'LEFT', 'positionCoords': [315.76, 267.5], 'bid': 6.05}, {'imgObject': {}, 'id': 'rigatoni and sauce', 'src': '/static/foodstim60/rigatoni and sauce.jpg', 'key': 'i', 'origWidth': 410, 'origHeight': 411, 'width': 410, 'height': 411, 'widthPercent': 0.45, 'rescaleHeight': False, 'trialN': 46, 'loaded': True, 'loadedTime': 1861.7999999998137, 'positionName': 'RIGHT', 'positionCoords': [786.24, 267], 'bid': 6.9}]",75740.10000000056,1669832423135,chickenfingers,rigatoni and sauce,6.05,6.9,0.8500000000000005,rigatoni and sauce,749.3999999994412,758,757.8999999994412,True,i,76998.40000000037,1258.2999999998137,1669832424393,1258,HRV,HRV_0108,2022-11-30 18:23:25
47,"[{'imgObject': {}, 'id': 'raisin bran w milk', 'src': '/static/foodstim60/raisin bran w milk.jpg', 'key': 'u', 'origWidth': 411, 'origHeight': 411, 'width': 411, 'height': 411, 'widthPercent': 0.45, 'rescaleHeight': False, 'trialN': 47, 'loaded': True, 'loadedTime': 1848.7999999998137, 'positionName': 'LEFT', 'positionCoords': [314.76, 267], 'bid': 1.52}, {'imgObject': {}, 'id': 'grilled chicken strips', 'src': '/static/foodstim60/grilled chicken strips.jpg', 'key': 'i', 'origWidth': 410, 'origHeight': 411, 'width': 410, 'height': 411, 'widthPercent': 0.45, 'rescaleHeight': False, 'trialN': 47, 'loaded': True, 'loadedTime': 1853.7000000001863, 'positionName': 'RIGHT', 'positionCoords': [786.24, 267], 'bid': 3.06}]",76998.90000000037,1669832424394,raisin bran w milk,grilled chicken strips,1.52,3.06,1.54,grilled chicken strips,804.5,811,811.7000000001863,True,i,78314.79999999981,1315.8999999994412,1669832425710,1316,HRV,HRV_0108,2022-11-30 18:23:25
48,"[{'imgObject': {}, 'id': 'salmon', 'src': '/static/foodstim60/salmon.jpg', 'key': 'u', 'origWidth': 410, 'origHeight': 409, 'width': 410, 'height': 409, 'widthPercent': 0.45, 'rescaleHeight': False, 'trialN': 48, 'loaded': True, 'loadedTime': 1841, 'positionName': 'LEFT', 'positionCoords': [315.76, 268], 'bid': 3.69}, {'imgObject': {}, 'id': 'raisin bran w milk', 'src': '/static/foodstim60/raisin bran w milk.jpg', 'key': 'i', 'origWidth': 411, 'origHeight': 411, 'width': 411, 'height': 411, 'widthPercent': 0.45, 'rescaleHeight': False, 'trialN': 48, 'loaded': True, 'loadedTime': 1848.7999999998137, 'positionName': 'RIGHT', 'positionCoords': [786.24, 267], 'bid': 1.52}]",78315.20000000019,1669832425710,salmon,raisin bran w milk,3.69,1.52,-2.17,raisin bran w milk,921,928,927.9000000003725,True,i,79745.10000000056,1429.9000000003725,1669832427140,1430,HRV,HRV_0108,2022-11-30 18:23:25
49,"[{'imgObject': {}, 'id': 'cherries', 'src': '/static/foodstim60/cherries.jpg', 'key': 'u', 'origWidth': 410, 'origHeight': 411, 'width': 410, 'height': 411, 'widthPercent': 0.45, 'rescaleHeight': False, 'trialN': 49, 'loaded': True, 'loadedTime': 1862.4000000003725, 'positionName': 'LEFT', 'positionCoords': [315.76, 267], 'bid': 3.16}, {'imgObject': {}, 'id': 'blackbeanswithrice', 'src': '/static/foodstim60/blackbeanswithrice.jpg', 'key': 'i', 'origWidth': 410, 'origHeight': 410, 'width': 410, 'height': 410, 'widthPercent': 0.45, 'rescaleHeight': False, 'trialN': 49, 'loaded': True, 'loadedTime': 1866.2999999998137, 'positionName': 'RIGHT', 'positionCoords': [786.24, 267.5], 'bid': 1.23}]",79745.5,1669832427140,cherries,blackbeanswithrice,3.16,1.23,-1.9300000000000002,cherries,857.5,865,864.5,True,u,81110.60000000056,1365.1000000005588,1669832428505,1365,HRV,HRV_0108,2022-11-30 18:23:25
50,"[{'imgObject': {}, 'id': 'turkeysandwich', 'src': '/static/foodstim60/turkeysandwich.jpg', 'key': 'u', 'origWidth': 409, 'origHeight': 409, 'width': 409, 'height': 409, 'widthPercent': 0.45, 'rescaleHeight': False, 'trialN': 50, 'loaded': True, 'loadedTime': 1844.6000000005588, 'positionName': 'LEFT', 'positionCoords': [316.76, 268], 'bid': 7.18}, {'imgObject': {}, 'id': 'tacos', 'src': '/static/foodstim60/tacos.jpg', 'key': 'i', 'origWidth': 411, 'origHeight': 411, 'width': 411, 'height': 411, 'widthPercent': 0.45, 'rescaleHeight': False, 'trialN': 50, 'loaded': True, 'loadedTime': 1867.6000000005588, 'positionName': 'RIGHT', 'positionCoords': [786.24, 267], 'bid': 7.15}]",81111.10000000056,1669832428506,turkeysandwich,tacos,7.18,7.15,-0.02999999999999936,turkeysandwich,690.6999999992549,698,697.8999999994412,True,u,82310.29999999981,1199.199999999255,1669832429705,1199,HRV,HRV_0108,2022-11-30 18:23:25
51,"[{'imgObject': {}, 'id': 'omelette', 'src': '/static/foodstim60/omelette.jpg', 'key': 'u', 'origWidth': 410, 'origHeight': 409, 'width': 410, 'height': 409, 'widthPercent': 0.45, 'rescaleHeight': False, 'trialN': 51, 'loaded': True, 'loadedTime': 1865.4000000003725, 'positionName': 'LEFT', 'positionCoords': [315.76, 268], 'bid': 7.26}, {'imgObject': {}, 'id': 'luckycharms', 'src': '/static/foodstim60/luckycharms.jpg', 'key': 'i', 'origWidth': 410, 'origHeight': 409, 'width': 410, 'height': 409, 'widthPercent': 0.45, 'rescaleHeight': False, 'trialN': 51, 'loaded': True, 'loadedTime': 1843.7000000001863, 'positionName': 'RIGHT', 'positionCoords': [786.24, 268], 'bid': 7.48}]",82310.70000000019,1669832429706,omelette,luckycharms,7.26,7.48,0.22000000000000064,luckycharms,676.7000000001863,683,684.0,True,i,83498.90000000037,1188.2000000001863,1669832430894,1188,HRV,HRV_0108,2022-11-30 18:23:25
52,"[{'imgObject': {}, 'id': 'ice cream sundae 002', 'src': '/static/foodstim60/ice cream sundae 002.jpg', 'key': 'u', 'origWidth': 409, 'origHeight': 409, 'width': 409, 'height': 409, 'widthPercent': 0.45, 'rescaleHeight': False, 'trialN': 52, 'loaded': True, 'loadedTime': 1878.5, 'positionName': 'LEFT', 'positionCoords': [316.76, 268], 'bid': 6.83}, {'imgObject': {}, 'id': 'popsicles', 'src': '/static/foodstim60/popsicles.jpg', 'key': 'i', 'origWidth': 410, 'origHeight': 410, 'width': 410, 'height': 410, 'widthPercent': 0.45, 'rescaleHeight': False, 'trialN': 52, 'loaded': True, 'loadedTime': 1881.2000000001863, 'positionName': 'RIGHT', 'positionCoords': [786.24, 267.5], 'bid': 8.120000000000001}]",83499.40000000037,1669832430894,ice cream sundae 002,popsicles,6.83,8.120000000000001,1.290000000000001,popsicles,806.5999999996275,814,813.8999999994412,True,i,84817.0,1317.5999999996275,1669832432212,1318,HRV,HRV_0108,2022-11-30 18:23:25
53,"[{'imgObject': {}, 'id': 'chickenfingers', 'src': '/static/foodstim60/chickenfingers.jpg', 'key': 'u', 'origWidth': 410, 'origHeight': 410, 'width': 410, 'height': 410, 'widthPercent': 0.45, 'rescaleHeight': False, 'trialN': 53, 'loaded': True, 'loadedTime': 1878.9000000003725, 'positionName': 'LEFT', 'positionCoords': [315.76, 267.5], 'bid': 6.05}, {'imgObject': {}, 'id': 'avocado', 'src': '/static/foodstim60/avocado.jpg', 'key': 'i', 'origWidth': 409, 'origHeight': 409, 'width': 409, 'height': 409, 'widthPercent': 0.45, 'rescaleHeight': False, 'trialN': 53, 'loaded': True, 'loadedTime': 1865.9000000003725, 'positionName': 'RIGHT', 'positionCoords': [786.24, 268], 'bid': 6.54}]",84817.40000000037,1669832432212,chickenfingers,avocado,6.05,6.54,0.4900000000000002,chickenfingers,695.2000000001863,703,702.3999999994412,True,u,86022.40000000037,1205.0,1669832433417,1205,HRV,HRV_0108,2022-11-30 18:23:25
54,"[{'imgObject': {}, 'id': 'lox', 'src': '/static/foodstim60/lox.jpg', 'key': 'u', 'origWidth': 410, 'origHeight': 411, 'width': 410, 'height': 411, 'widthPercent': 0.45, 'rescaleHeight': False, 'trialN': 54, 'loaded': True, 'loadedTime': 1846.1000000005588, 'positionName': 'LEFT', 'positionCoords': [315.76, 267], 'bid': 2.03}, {'imgObject': {}, 'id': 'cherries', 'src': '/static/foodstim60/cherries.jpg', 'key': 'i', 'origWidth': 410, 'origHeight': 411, 'width': 410, 'height': 411, 'widthPercent': 0.45, 'rescaleHeight': False, 'trialN': 54, 'loaded': True, 'loadedTime': 1862.5, 'positionName': 'RIGHT', 'positionCoords': [786.24, 267], 'bid': 3.16}]",86022.90000000037,1669832433418,lox,cherries,2.03,3.16,1.1300000000000003,cherries,1044,1051,1050.8999999994412,True,i,87574.5,1551.5999999996275,1669832434969,1551,HRV,HRV_0108,2022-11-30 18:23:25
55,"[{'imgObject': {}, 'id': 'chicken nuggets2', 'src': '/static/foodstim60/chicken nuggets2.jpg', 'key': 'u', 'origWidth': 410, 'origHeight': 409, 'width': 410, 'height': 409, 'widthPercent': 0.45, 'rescaleHeight': False, 'trialN': 55, 'loaded': True, 'loadedTime': 1869.7999999998137, 'positionName': 'LEFT', 'positionCoords': [315.76, 268], 'bid': 8.34}, {'imgObject': {}, 'id': 'fried eggs', 'src': '/static/foodstim60/fried eggs.jpg', 'key': 'i', 'origWidth': 410, 'origHeight': 410, 'width': 410, 'height': 410, 'widthPercent': 0.45, 'rescaleHeight': False, 'trialN': 55, 'loaded': True, 'loadedTime': 1861.1000000005588, 'positionName': 'RIGHT', 'positionCoords': [786.24, 267.5], 'bid': 8.21}]",87575.0,1669832434970,chicken nuggets2,fried eggs,8.34,8.21,-0.129999999999999,fried eggs,550.2999999998137,557,557.0,True,i,88635.70000000019,1060.7000000001863,1669832436030,1060,HRV,HRV_0108,2022-11-30 18:23:25
56,"[{'imgObject': {}, 'id': 'cherry tomato', 'src': '/static/foodstim60/cherry tomato.jpg', 'key': 'u', 'origWidth': 410, 'origHeight': 410, 'width': 410, 'height': 410, 'widthPercent': 0.45, 'rescaleHeight': False, 'trialN': 56, 'loaded': True, 'loadedTime': 1855.5, 'positionName': 'LEFT', 'positionCoords': [315.76, 267.5], 'bid': 2.68}, {'imgObject': {}, 'id': 'salad w chicken', 'src': '/static/foodstim60/salad w chicken.jpg', 'key': 'i', 'origWidth': 411, 'origHeight': 411, 'width': 411, 'height': 411, 'widthPercent': 0.45, 'rescaleHeight': False, 'trialN': 56, 'loaded': True, 'loadedTime': 1850.4000000003725, 'positionName': 'RIGHT', 'positionCoords': [786.24, 267], 'bid': 3.37}]",88636.10000000056,1669832436031,cherry tomato,salad w chicken,2.68,3.37,0.69,salad w chicken,1059.5999999996275,1067,1067.0999999996275,True,i,90203.79999999981,1567.699999999255,1669832437599,1568,HRV,HRV_0108,2022-11-30 18:23:25
57,"[{'imgObject': {}, 'id': 'roastedpotatoes', 'src': '/static/foodstim60/roastedpotatoes.jpg', 'key': 'u', 'origWidth': 409, 'origHeight': 410, 'width': 409, 'height': 410, 'widthPercent': 0.45, 'rescaleHeight': False, 'trialN': 57, 'loaded': True, 'loadedTime': 1854.2999999998137, 'positionName': 'LEFT', 'positionCoords': [316.76, 267.5], 'bid': 2.12}, {'imgObject': {}, 'id': 'sushi w_condiments', 'src': '/static/foodstim60/sushi w_condiments.jpg', 'key': 'i', 'origWidth': 410, 'origHeight': 410, 'width': 410, 'height': 410, 'widthPercent': 0.45, 'rescaleHeight': False, 'trialN': 57, 'loaded': True, 'loadedTime': 1845.4000000003725, 'positionName': 'RIGHT', 'positionCoords': [786.24, 267.5], 'bid': 0.67}]",90204.29999999981,1669832437599,roastedpotatoes,sushi w_condiments,2.12,0.67,-1.4500000000000002,sushi w_condiments,1519,1526,1526.300000000745,True,i,92231.70000000019,2027.4000000003725,1669832439627,2028,HRV,HRV_0108,2022-11-30 18:23:25
58,"[{'imgObject': {}, 'id': 'lox', 'src': '/static/foodstim60/lox.jpg', 'key': 'u', 'origWidth': 410, 'origHeight': 411, 'width': 410, 'height': 411, 'widthPercent': 0.45, 'rescaleHeight': False, 'trialN': 58, 'loaded': True, 'loadedTime': 1846.1000000005588, 'positionName': 'LEFT', 'positionCoords': [315.76, 267], 'bid': 2.03}, {'imgObject': {}, 'id': 'olives', 'src': '/static/foodstim60/olives.jpg', 'key': 'i', 'origWidth': 410, 'origHeight': 410, 'width': 410, 'height': 410, 'widthPercent': 0.45, 'rescaleHeight': False, 'trialN': 58, 'loaded': True, 'loadedTime': 1846.7000000001863, 'positionName': 'RIGHT', 'positionCoords': [786.24, 267.5], 'bid': 2.03}]",92232.40000000037,1669832439627,lox,olives,2.03,2.03,0.0,olives,693.5999999996275,701,701.0,True,i,93435.79999999981,1203.3999999994412,1669832440831,1204,HRV,HRV_0108,2022-11-30 18:23:25
59,"[{'imgObject': {}, 'id': 'veggieswithdip', 'src': '/static/foodstim60/veggieswithdip.jpg', 'key': 'u', 'origWidth': 409, 'origHeight': 409, 'width': 409, 'height': 409, 'widthPercent': 0.45, 'rescaleHeight': False, 'trialN': 59, 'loaded': True, 'loadedTime': 1852.4000000003725, 'positionName': 'LEFT', 'positionCoords': [316.76, 268], 'bid': 8.05}, {'imgObject': {}, 'id': 'hotdog w must', 'src': '/static/foodstim60/hotdog w must.jpg', 'key': 'i', 'origWidth': 409, 'origHeight': 409, 'width': 409, 'height': 409, 'widthPercent': 0.45, 'rescaleHeight': False, 'trialN': 59, 'loaded': True, 'loadedTime': 1863.5, 'positionName': 'RIGHT', 'positionCoords': [786.24, 268], 'bid': 7.77}]",93436.29999999981,1669832440831,veggieswithdip,hotdog w must,8.05,7.77,-0.28000000000000114,hotdog w must,800.5,808,807.6000000005588,True,i,94747.70000000019,1311.4000000003725,1669832442143,1312,HRV,HRV_0108,2022-11-30 18:23:25
60,"[{'imgObject': {}, 'id': 'rigatoni', 'src': '/static/foodstim60/rigatoni.jpg', 'key': 'u', 'origWidth': 411, 'origHeight': 411, 'width': 411, 'height': 411, 'widthPercent': 0.45, 'rescaleHeight': False, 'trialN': 60, 'loaded': True, 'loadedTime': 1847.5, 'positionName': 'LEFT', 'positionCoords': [314.76, 267], 'bid': 8.69}, {'imgObject': {}, 'id': 'popsicles', 'src': '/static/foodstim60/popsicles.jpg', 'key': 'i', 'origWidth': 410, 'origHeight': 410, 'width': 410, 'height': 410, 'widthPercent': 0.45, 'rescaleHeight': False, 'trialN': 60, 'loaded': True, 'loadedTime': 1881.1000000005588, 'positionName': 'RIGHT', 'positionCoords': [786.24, 267.5], 'bid': 8.120000000000001}]",94748.20000000019,1669832442143,rigatoni,popsicles,8.69,8.120000000000001,-0.5699999999999985,popsicles,499,506,506.29999999981374,True,i,95755.70000000019,1007.5,1669832443150,1007,HRV,HRV_0108,2022-11-30 18:23:25
61,"[{'imgObject': {}, 'id': 'apple slices', 'src': '/static/foodstim60/apple slices.jpg', 'key': 'u', 'origWidth': 409, 'origHeight': 410, 'width': 409, 'height': 410, 'widthPercent': 0.45, 'rescaleHeight': False, 'trialN': 61, 'loaded': True, 'loadedTime': 1871.2000000001863, 'positionName': 'LEFT', 'positionCoords': [316.76, 267.5], 'bid': 8.370000000000001}, {'imgObject': {}, 'id': 'burrito', 'src': '/static/foodstim60/burrito.jpg', 'key': 'i', 'origWidth': 410, 'origHeight': 410, 'width': 410, 'height': 410, 'widthPercent': 0.45, 'rescaleHeight': False, 'trialN': 61, 'loaded': True, 'loadedTime': 1851.1000000005588, 'positionName': 'RIGHT', 'positionCoords': [786.24, 267.5], 'bid': 7.79}]",95756.10000000056,1669832443151,apple slices,burrito,8.370000000000001,7.79,-0.580000000000001,apple slices,382,389,389.5,True,u,96646.40000000037,890.2999999998137,1669832444041,890,HRV,HRV_0108,2022-11-30 18:23:25
62,"[{'imgObject': {}, 'id': 'froot loops w milk', 'src': '/static/foodstim60/froot loops w milk.jpg', 'key': 'u', 'origWidth': 410, 'origHeight': 410, 'width': 410, 'height': 410, 'widthPercent': 0.45, 'rescaleHeight': False, 'trialN': 62, 'loaded': True, 'loadedTime': 1865, 'positionName': 'LEFT', 'positionCoords': [315.76, 267.5], 'bid': 6.33}, {'imgObject': {}, 'id': 'salmon', 'src': '/static/foodstim60/salmon.jpg', 'key': 'i', 'origWidth': 410, 'origHeight': 409, 'width': 410, 'height': 409, 'widthPercent': 0.45, 'rescaleHeight': False, 'trialN': 62, 'loaded': True, 'loadedTime': 1841, 'positionName': 'RIGHT', 'positionCoords': [786.24, 268], 'bid': 3.69}]",96646.79999999981,1669832444042,froot loops w milk,salmon,6.33,3.69,-2.64,froot loops w milk,468.70000000018626,475,475.5,True,u,97622.79999999981,976.0,1669832445018,976,HRV,HRV_0108,2022-11-30 18:23:25
63,"[{'imgObject': {}, 'id': 'strawberries', 'src': '/static/foodstim60/strawberries.jpg', 'key': 'u', 'origWidth': 410, 'origHeight': 410, 'width': 410, 'height': 410, 'widthPercent': 0.45, 'rescaleHeight': False, 'trialN': 63, 'loaded': True, 'loadedTime': 1855.6000000005588, 'positionName': 'LEFT', 'positionCoords': [315.76, 267.5], 'bid': 6.3}, {'imgObject': {}, 'id': 'cocktailshrimp', 'src': '/static/foodstim60/cocktailshrimp.jpg', 'key': 'i', 'origWidth': 410, 'origHeight': 410, 'width': 410, 'height': 410, 'widthPercent': 0.45, 'rescaleHeight': False, 'trialN': 63, 'loaded': True, 'loadedTime': 1875.7999999998137, 'positionName': 'RIGHT', 'positionCoords': [786.24, 267.5], 'bid': 6.33}]",97623.20000000019,1669832445018,strawberries,cocktailshrimp,6.3,6.33,0.03000000000000025,strawberries,589.5999999996275,597,596.9000000003725,True,u,98721.10000000056,1097.9000000003725,1669832446116,1098,HRV,HRV_0108,2022-11-30 18:23:25
64,"[{'imgObject': {}, 'id': 'sushi w_condiments', 'src': '/static/foodstim60/sushi w_condiments.jpg', 'key': 'u', 'origWidth': 410, 'origHeight': 410, 'width': 410, 'height': 410, 'widthPercent': 0.45, 'rescaleHeight': False, 'trialN': 64, 'loaded': True, 'loadedTime': 1845.4000000003725, 'positionName': 'LEFT', 'positionCoords': [315.76, 267.5], 'bid': 0.67}, {'imgObject': {}, 'id': 'froot loops w milk', 'src': '/static/foodstim60/froot loops w milk.jpg', 'key': 'i', 'origWidth': 410, 'origHeight': 410, 'width': 410, 'height': 410, 'widthPercent': 0.45, 'rescaleHeight': False, 'trialN': 64, 'loaded': True, 'loadedTime': 1864.5, 'positionName': 'RIGHT', 'positionCoords': [786.24, 267.5], 'bid': 6.33}]",98721.60000000056,1669832446116,sushi w_condiments,froot loops w milk,0.67,6.33,5.66,froot loops w milk,575.5,584,583.2999999998137,True,i,99809.10000000056,1087.5,1669832447204,1088,HRV,HRV_0108,2022-11-30 18:23:25
65,"[{'imgObject': {}, 'id': 'mac & cheese', 'src': '/static/foodstim60/mac & cheese.jpg', 'key': 'u', 'origWidth': 410, 'origHeight': 410, 'width': 410, 'height': 410, 'widthPercent': 0.45, 'rescaleHeight': False, 'trialN': 65, 'loaded': True, 'loadedTime': 1853.1000000005588, 'positionName': 'LEFT', 'positionCoords': [315.76, 267.5], 'bid': 8.620000000000001}, {'imgObject': {}, 'id': 'turkey sandwich', 'src': '/static/foodstim60/turkey sandwich.jpg', 'key': 'i', 'origWidth': 409, 'origHeight': 409, 'width': 409, 'height': 409, 'widthPercent': 0.45, 'rescaleHeight': False, 'trialN': 65, 'loaded': True, 'loadedTime': 1876.2000000001863, 'positionName': 'RIGHT', 'positionCoords': [786.24, 268], 'bid': 8.700000000000001}]",99809.5,1669832447204,mac & cheese,turkey sandwich,8.620000000000001,8.700000000000001,0.08000000000000007,turkey sandwich,559.4000000003725,568,567.5,True,i,100881.10000000056,1071.6000000005588,1669832448276,1072,HRV,HRV_0108,2022-11-30 18:23:25
66,"[{'imgObject': {}, 'id': 'pear', 'src': '/static/foodstim60/pear.jpg', 'key': 'u', 'origWidth': 411, 'origHeight': 410, 'width': 411, 'height': 410, 'widthPercent': 0.45, 'rescaleHeight': False, 'trialN': 66, 'loaded': True, 'loadedTime': 1867, 'positionName': 'LEFT', 'positionCoords': [314.76, 267.5], 'bid': 9.25}, {'imgObject': {}, 'id': 'burrito', 'src': '/static/foodstim60/burrito.jpg', 'key': 'i', 'origWidth': 410, 'origHeight': 410, 'width': 410, 'height': 410, 'widthPercent': 0.45, 'rescaleHeight': False, 'trialN': 66, 'loaded': True, 'loadedTime': 1851.1000000005588, 'positionName': 'RIGHT', 'positionCoords': [786.24, 267.5], 'bid': 7.79}]",100881.5,1669832448276,pear,burrito,9.25,7.79,-1.46,pear,573.1000000005588,581,580.2999999998137,True,u,101963.70000000019,1082.2000000001863,1669832449359,1083,HRV,HRV_0108,2022-11-30 18:23:25
67,"[{'imgObject': {}, 'id': 'salmon', 'src': '/static/foodstim60/salmon.jpg', 'key': 'u', 'origWidth': 410, 'origHeight': 409, 'width': 410, 'height': 409, 'widthPercent': 0.45, 'rescaleHeight': False, 'trialN': 67, 'loaded': True, 'loadedTime': 1840.9000000003725, 'positionName': 'LEFT', 'positionCoords': [315.76, 268], 'bid': 3.69}, {'imgObject': {}, 'id': 'raspberries', 'src': '/static/foodstim60/raspberries.jpg', 'key': 'i', 'origWidth': 411, 'origHeight': 411, 'width': 411, 'height': 411, 'widthPercent': 0.45, 'rescaleHeight': False, 'trialN': 67, 'loaded': True, 'loadedTime': 1871.7999999998137, 'positionName': 'RIGHT', 'positionCoords': [786.24, 267], 'bid': 5.5600000000000005}]",101964.10000000056,1669832449359,salmon,raspberries,3.69,5.5600000000000005,1.8700000000000006,raspberries,662.2999999998137,670,669.6999999992549,True,i,103137.0,1172.8999999994412,1669832450532,1173,HRV,HRV_0108,2022-11-30 18:23:25
68,"[{'imgObject': {}, 'id': 'steak', 'src': '/static/foodstim60/steak.jpg', 'key': 'u', 'origWidth': 410, 'origHeight': 410, 'width': 410, 'height': 410, 'widthPercent': 0.45, 'rescaleHeight': False, 'trialN': 68, 'loaded': True, 'loadedTime': 1860.1000000005588, 'positionName': 'LEFT', 'positionCoords': [315.76, 267.5], 'bid': 2.97}, {'imgObject': {}, 'id': 'salmon', 'src': '/static/foodstim60/salmon.jpg', 'key': 'i', 'origWidth': 410, 'origHeight': 409, 'width': 410, 'height': 409, 'widthPercent': 0.45, 'rescaleHeight': False, 'trialN': 68, 'loaded': True, 'loadedTime': 1841.7999999998137, 'positionName': 'RIGHT', 'positionCoords': [786.24, 268], 'bid': 3.69}]",103137.60000000056,1669832450532,steak,salmon,2.97,3.69,0.7199999999999998,salmon,584.0999999996275,593,592.2999999998137,True,i,104230.29999999981,1092.699999999255,1669832451625,1093,HRV,HRV_0108,2022-11-30 18:23:25
69,"[{'imgObject': {}, 'id': 'bagel and cc', 'src': '/static/foodstim60/bagel and cc.jpg', 'key': 'u', 'origWidth': 410, 'origHeight': 410, 'width': 410, 'height': 410, 'widthPercent': 0.45, 'rescaleHeight': False, 'trialN': 69, 'loaded': True, 'loadedTime': 1848.2999999998137, 'positionName': 'LEFT', 'positionCoords': [315.76, 267.5], 'bid': 7.63}, {'imgObject': {}, 'id': 'eggs', 'src': '/static/foodstim60/eggs.jpg', 'key': 'i', 'origWidth': 409, 'origHeight': 409, 'width': 409, 'height': 409, 'widthPercent': 0.45, 'rescaleHeight': False, 'trialN': 69, 'loaded': True, 'loadedTime': 1862.9000000003725, 'positionName': 'RIGHT', 'positionCoords': [786.24, 268], 'bid': 7.27}]",104230.79999999981,1669832451626,bagel and cc,eggs,7.63,7.27,-0.3600000000000003,bagel and cc,570.5,578,577.8000000007451,True,u,105313.10000000056,1082.300000000745,1669832452708,1082,HRV,HRV_0108,2022-11-30 18:23:25
70,"[{'imgObject': {}, 'id': 'rigatoni and sauce', 'src': '/static/foodstim60/rigatoni and sauce.jpg', 'key': 'u', 'origWidth': 410, 'origHeight': 411, 'width': 410, 'height': 411, 'widthPercent': 0.45, 'rescaleHeight': False, 'trialN': 70, 'loaded': True, 'loadedTime': 1861.9000000003725, 'positionName': 'LEFT', 'positionCoords': [315.76, 267], 'bid': 6.9}, {'imgObject': {}, 'id': 'mashed potato', 'src': '/static/foodstim60/mashed potato.jpg', 'key': 'i', 'origWidth': 409, 'origHeight': 409, 'width': 409, 'height': 409, 'widthPercent': 0.45, 'rescaleHeight': False, 'trialN': 70, 'loaded': True, 'loadedTime': 1873.2999999998137, 'positionName': 'RIGHT', 'positionCoords': [786.24, 268], 'bid': 1.87}]",105313.5,1669832452708,rigatoni and sauce,mashed potato,6.9,1.87,-5.03,rigatoni and sauce,563.4000000003725,571,570.7999999998137,True,u,106384.90000000037,1071.4000000003725,1669832453780,1072,HRV,HRV_0108,2022-11-30 18:23:25
71,"[{'imgObject': {}, 'id': 'corn cob', 'src': '/static/foodstim60/corn cob.jpg', 'key': 'u', 'origWidth': 411, 'origHeight': 411, 'width': 411, 'height': 411, 'widthPercent': 0.45, 'rescaleHeight': False, 'trialN': 71, 'loaded': True, 'loadedTime': 1853.7000000001863, 'positionName': 'LEFT', 'positionCoords': [314.76, 267], 'bid': 3.94}, {'imgObject': {}, 'id': 'edamame', 'src': '/static/foodstim60/edamame.jpg', 'key': 'i', 'origWidth': 409, 'origHeight': 410, 'width': 409, 'height': 410, 'widthPercent': 0.45, 'rescaleHeight': False, 'trialN': 71, 'loaded': True, 'loadedTime': 1874.2999999998137, 'positionName': 'RIGHT', 'positionCoords': [786.24, 267.5], 'bid': 1.62}]",106385.40000000037,1669832453780,corn cob,edamame,3.94,1.62,-2.32,edamame,771.0999999996275,778,778.2000000001863,True,i,107665.10000000056,1279.7000000001863,1669832455060,1280,HRV,HRV_0108,2022-11-30 18:23:25
72,"[{'imgObject': {}, 'id': 'fruitsalad', 'src': '/static/foodstim60/fruitsalad.jpg', 'key': 'u', 'origWidth': 410, 'origHeight': 410, 'width': 410, 'height': 410, 'widthPercent': 0.45, 'rescaleHeight': False, 'trialN': 72, 'loaded': True, 'loadedTime': 1873.2000000001863, 'positionName': 'LEFT', 'positionCoords': [315.76, 267.5], 'bid': 6.08}, {'imgObject': {}, 'id': 'froot loops w milk', 'src': '/static/foodstim60/froot loops w milk.jpg', 'key': 'i', 'origWidth': 410, 'origHeight': 410, 'width': 410, 'height': 410, 'widthPercent': 0.45, 'rescaleHeight': False, 'trialN': 72, 'loaded': True, 'loadedTime': 1865, 'positionName': 'RIGHT', 'positionCoords': [786.24, 267.5], 'bid': 6.33}]",107665.60000000056,1669832455060,fruitsalad,froot loops w milk,6.08,6.33,0.25,froot loops w milk,712,720,719.5,True,i,108886.40000000037,1220.7999999998137,1669832456281,1221,HRV,HRV_0108,2022-11-30 18:23:25
73,"[{'imgObject': {}, 'id': 'veggieswithdip', 'src': '/static/foodstim60/veggieswithdip.jpg', 'key': 'u', 'origWidth': 409, 'origHeight': 409, 'width': 409, 'height': 409, 'widthPercent': 0.45, 'rescaleHeight': False, 'trialN': 73, 'loaded': True, 'loadedTime': 1851.7999999998137, 'positionName': 'LEFT', 'positionCoords': [316.76, 268], 'bid': 8.05}, {'imgObject': {}, 'id': 'popsicles', 'src': '/static/foodstim60/popsicles.jpg', 'key': 'i', 'origWidth': 410, 'origHeight': 410, 'width': 410, 'height': 410, 'widthPercent': 0.45, 'rescaleHeight': False, 'trialN': 73, 'loaded': True, 'loadedTime': 1881.1000000005588, 'positionName': 'RIGHT', 'positionCoords': [786.24, 267.5], 'bid': 8.120000000000001}]",108886.90000000037,1669832456282,veggieswithdip,popsicles,8.05,8.120000000000001,0.07000000000000028,popsicles,515.5999999996275,523,523.0999999996275,True,i,109914.79999999981,1027.8999999994412,1669832457310,1028,HRV,HRV_0108,2022-11-30 18:23:25
74,"[{'imgObject': {}, 'id': 'bagel plain', 'src': '/static/foodstim60/bagel plain.jpg', 'key': 'u', 'origWidth': 410, 'origHeight': 410, 'width': 410, 'height': 410, 'widthPercent': 0.45, 'rescaleHeight': False, 'trialN': 74, 'loaded': True, 'loadedTime': 1868, 'positionName': 'LEFT', 'positionCoords': [315.76, 267.5], 'bid': 8.22}, {'imgObject': {}, 'id': 'Tribe humus pita', 'src': '/static/foodstim60/Tribe humus pita.jpg', 'key': 'i', 'origWidth': 411, 'origHeight': 411, 'width': 411, 'height': 411, 'widthPercent': 0.45, 'rescaleHeight': False, 'trialN': 74, 'loaded': True, 'loadedTime': 1856.2999999998137, 'positionName': 'RIGHT', 'positionCoords': [786.24, 267], 'bid': 7.32}]",109915.20000000019,1669832457310,bagel plain,Tribe humus pita,8.22,7.32,-0.9000000000000004,bagel plain,578.9000000003725,586,585.7999999998137,True,u,111004.20000000019,1089.0,1669832458399,1089,HRV,HRV_0108,2022-11-30 18:23:25
75,"[{'imgObject': {}, 'id': 'granola w milk', 'src': '/static/foodstim60/granola w milk.jpg', 'key': 'u', 'origWidth': 410, 'origHeight': 410, 'width': 410, 'height': 410, 'widthPercent': 0.45, 'rescaleHeight': False, 'trialN': 75, 'loaded': True, 'loadedTime': 1875.2000000001863, 'positionName': 'LEFT', 'positionCoords': [315.76, 267.5], 'bid': 3.1}, {'imgObject': {}, 'id': 'cherries', 'src': '/static/foodstim60/cherries.jpg', 'key': 'i', 'origWidth': 410, 'origHeight': 411, 'width': 410, 'height': 411, 'widthPercent': 0.45, 'rescaleHeight': False, 'trialN': 75, 'loaded': True, 'loadedTime': 1862.5, 'positionName': 'RIGHT', 'positionCoords': [786.24, 267], 'bid': 3.16}]",111004.70000000019,1669832458400,granola w milk,cherries,3.1,3.16,0.06000000000000005,cherries,832.2999999998137,839,839.2000000001863,True,i,112347.70000000019,1343.0,1669832459743,1343,HRV,HRV_0108,2022-11-30 18:23:25
76,"[{'imgObject': {}, 'id': 'granola w milk', 'src': '/static/foodstim60/granola w milk.jpg', 'key': 'u', 'origWidth': 410, 'origHeight': 410, 'width': 410, 'height': 410, 'widthPercent': 0.45, 'rescaleHeight': False, 'trialN': 76, 'loaded': True, 'loadedTime': 1874.7999999998137, 'positionName': 'LEFT', 'positionCoords': [315.76, 267.5], 'bid': 3.1}, {'imgObject': {}, 'id': 'luckycharms', 'src': '/static/foodstim60/luckycharms.jpg', 'key': 'i', 'origWidth': 410, 'origHeight': 409, 'width': 410, 'height': 409, 'widthPercent': 0.45, 'rescaleHeight': False, 'trialN': 76, 'loaded': True, 'loadedTime': 1843.7000000001863, 'positionName': 'RIGHT', 'positionCoords': [786.24, 268], 'bid': 7.48}]",112348.10000000056,1669832459743,granola w milk,luckycharms,3.1,7.48,4.380000000000001,luckycharms,612.7999999998137,620,619.7999999998137,True,i,113473.0,1124.8999999994412,1669832460868,1125,HRV,HRV_0108,2022-11-30 18:23:25
77,"[{'imgObject': {}, 'id': 'corn cob', 'src': '/static/foodstim60/corn cob.jpg', 'key': 'u', 'origWidth': 411, 'origHeight': 411, 'width': 411, 'height': 411, 'widthPercent': 0.45, 'rescaleHeight': False, 'trialN': 77, 'loaded': True, 'loadedTime': 1853.7000000001863, 'positionName': 'LEFT', 'positionCoords': [314.76, 267], 'bid': 3.94}, {'imgObject': {}, 'id': 'salmon', 'src': '/static/foodstim60/salmon.jpg', 'key': 'i', 'origWidth': 410, 'origHeight': 409, 'width': 410, 'height': 409, 'widthPercent': 0.45, 'rescaleHeight': False, 'trialN': 77, 'loaded': True, 'loadedTime': 1842.7999999998137, 'positionName': 'RIGHT', 'positionCoords': [786.24, 268], 'bid': 3.69}]",113473.40000000037,1669832460868,corn cob,salmon,3.94,3.69,-0.25,corn cob,933,940,939.8999999994412,True,u,114914.90000000037,1441.5,1669832462310,1442,HRV,HRV_0108,2022-11-30 18:23:25
78,"[{'imgObject': {}, 'id': 'rigatoni and sauce', 'src': '/static/foodstim60/rigatoni and sauce.jpg', 'key': 'u', 'origWidth': 410, 'origHeight': 411, 'width': 410, 'height': 411, 'widthPercent': 0.45, 'rescaleHeight': False, 'trialN': 78, 'loaded': True, 'loadedTime': 1861.9000000003725, 'positionName': 'LEFT', 'positionCoords': [315.76, 267], 'bid': 6.9}, {'imgObject': {}, 'id': 'turkeysandwich', 'src': '/static/foodstim60/turkeysandwich.jpg', 'key': 'i', 'origWidth': 409, 'origHeight': 409, 'width': 409, 'height': 409, 'widthPercent': 0.45, 'rescaleHeight': False, 'trialN': 78, 'loaded': True, 'loadedTime': 1843.9000000003725, 'positionName': 'RIGHT', 'positionCoords': [786.24, 268], 'bid': 7.18}]",114915.40000000037,1669832462310,rigatoni and sauce,turkeysandwich,6.9,7.18,0.27999999999999936,rigatoni and sauce,600.7999999998137,608,607.7999999998137,True,u,116027.90000000037,1112.5,1669832463423,1113,HRV,HRV_0108,2022-11-30 18:23:25
79,"[{'imgObject': {}, 'id': 'seaweed', 'src': '/static/foodstim60/seaweed.jpg', 'key': 'u', 'origWidth': 410, 'origHeight': 410, 'width': 410, 'height': 410, 'widthPercent': 0.45, 'rescaleHeight': False, 'trialN': 79, 'loaded': True, 'loadedTime': 1876.9000000003725, 'positionName': 'LEFT', 'positionCoords': [315.76, 267.5], 'bid': 0.93}, {'imgObject': {}, 'id': 'cocktailshrimp', 'src': '/static/foodstim60/cocktailshrimp.jpg', 'key': 'i', 'origWidth': 410, 'origHeight': 410, 'width': 410, 'height': 410, 'widthPercent': 0.45, 'rescaleHeight': False, 'trialN': 79, 'loaded': True, 'loadedTime': 1875.4000000003725, 'positionName': 'RIGHT', 'positionCoords': [786.24, 267.5], 'bid': 6.33}]",116028.29999999981,1669832463423,seaweed,cocktailshrimp,0.93,6.33,5.4,cocktailshrimp,774.6000000005588,782,781.6000000005588,True,i,117313.10000000056,1284.800000000745,1669832464708,1285,HRV,HRV_0108,2022-11-30 18:23:25
80,"[{'imgObject': {}, 'id': 'corn cob', 'src': '/static/foodstim60/corn cob.jpg', 'key': 'u', 'origWidth': 411, 'origHeight': 411, 'width': 411, 'height': 411, 'widthPercent': 0.45, 'rescaleHeight': False, 'trialN': 80, 'loaded': True, 'loadedTime': 1853.5, 'positionName': 'LEFT', 'positionCoords': [314.76, 267], 'bid': 3.94}, {'imgObject': {}, 'id': 'sweetpotato', 'src': '/static/foodstim60/sweetpotato.jpg', 'key': 'i', 'origWidth': 410, 'origHeight': 410, 'width': 410, 'height': 410, 'widthPercent': 0.45, 'rescaleHeight': False, 'trialN': 80, 'loaded': True, 'loadedTime': 1824.5, 'positionName': 'RIGHT', 'positionCoords': [786.24, 267.5], 'bid': 5.6000000000000005}]",117313.60000000056,1669832464708,corn cob,sweetpotato,3.94,5.6000000000000005,1.6600000000000006,corn cob,723.0999999996275,730,729.5,True,u,118547.79999999981,1234.199999999255,1669832465943,1235,HRV,HRV_0108,2022-11-30 18:23:25
81,"[{'imgObject': {}, 'id': 'kiwi', 'src': '/static/foodstim60/kiwi.jpg', 'key': 'u', 'origWidth': 410, 'origHeight': 410, 'width': 410, 'height': 410, 'widthPercent': 0.45, 'rescaleHeight': False, 'trialN': 81, 'loaded': True, 'loadedTime': 1849.7000000001863, 'positionName': 'LEFT', 'positionCoords': [315.76, 267.5], 'bid': 1.36}, {'imgObject': {}, 'id': 'steak', 'src': '/static/foodstim60/steak.jpg', 'key': 'i', 'origWidth': 410, 'origHeight': 410, 'width': 410, 'height': 410, 'widthPercent': 0.45, 'rescaleHeight': False, 'trialN': 81, 'loaded': True, 'loadedTime': 1860.5, 'positionName': 'RIGHT', 'positionCoords': [786.24, 267.5], 'bid': 2.97}]",118548.29999999981,1669832465943,kiwi,steak,1.36,2.97,1.61,kiwi,1175.2000000001863,1182,1181.6000000005588,True,u,120234.0,1685.7000000001863,1669832467629,1686,HRV,HRV_0108,2022-11-30 18:23:25
82,"[{'imgObject': {}, 'id': 'shreddedwheatwithmilk', 'src': '/static/foodstim60/shreddedwheatwithmilk.jpg', 'key': 'u', 'origWidth': 410, 'origHeight': 410, 'width': 410, 'height': 410, 'widthPercent': 0.45, 'rescaleHeight': False, 'trialN': 82, 'loaded': True, 'loadedTime': 1864, 'positionName': 'LEFT', 'positionCoords': [315.76, 267.5], 'bid': 5.93}, {'imgObject': {}, 'id': 'burger', 'src': '/static/foodstim60/burger.jpg', 'key': 'i', 'origWidth': 409, 'origHeight': 409, 'width': 409, 'height': 409, 'widthPercent': 0.45, 'rescaleHeight': False, 'trialN': 82, 'loaded': True, 'loadedTime': 1877.5, 'positionName': 'RIGHT', 'positionCoords': [786.24, 268], 'bid': 5.92}]",120234.60000000056,1669832467629,shreddedwheatwithmilk,burger,5.93,5.92,-0.009999999999999787,burger,968,976,975.2999999998137,True,i,121713.0,1478.3999999994412,1669832469108,1479,HRV,HRV_0108,2022-11-30 18:23:25
83,"[{'imgObject': {}, 'id': 'strawberries', 'src': '/static/foodstim60/strawberries.jpg', 'key': 'u', 'origWidth': 410, 'origHeight': 410, 'width': 410, 'height': 410, 'widthPercent': 0.45, 'rescaleHeight': False, 'trialN': 83, 'loaded': True, 'loadedTime': 1856.2999999998137, 'positionName': 'LEFT', 'positionCoords': [315.76, 267.5], 'bid': 6.3}, {'imgObject': {}, 'id': 'fruitsalad', 'src': '/static/foodstim60/fruitsalad.jpg', 'key': 'i', 'origWidth': 410, 'origHeight': 410, 'width': 410, 'height': 410, 'widthPercent': 0.45, 'rescaleHeight': False, 'trialN': 83, 'loaded': True, 'loadedTime': 1872.7999999998137, 'positionName': 'RIGHT', 'positionCoords': [786.24, 267.5], 'bid': 6.08}]",121713.40000000037,1669832469108,strawberries,fruitsalad,6.3,6.08,-0.21999999999999975,strawberries,811.3999999994412,819,818.2999999998137,True,u,123035.70000000019,1322.2999999998137,1669832470431,1323,HRV,HRV_0108,2022-11-30 18:23:25
84,"[{'imgObject': {}, 'id': 'omelette', 'src': '/static/foodstim60/omelette.jpg', 'key': 'u', 'origWidth': 410, 'origHeight': 409, 'width': 410, 'height': 409, 'widthPercent': 0.45, 'rescaleHeight': False, 'trialN': 84, 'loaded': True, 'loadedTime': 1865.2999999998137, 'positionName': 'LEFT', 'positionCoords': [315.76, 268], 'bid': 7.26}, {'imgObject': {}, 'id': 'apple slices', 'src': '/static/foodstim60/apple slices.jpg', 'key': 'i', 'origWidth': 409, 'origHeight': 410, 'width': 409, 'height': 410, 'widthPercent': 0.45, 'rescaleHeight': False, 'trialN': 84, 'loaded': True, 'loadedTime': 1870.7999999998137, 'positionName': 'RIGHT', 'positionCoords': [786.24, 267.5], 'bid': 8.370000000000001}]",123036.10000000056,1669832470431,omelette,apple slices,7.26,8.370000000000001,1.1100000000000012,apple slices,583.3999999994412,590,590.1999999992549,True,i,124129.0,1092.8999999994412,1669832471524,1093,HRV,HRV_0108,2022-11-30 18:23:25
85,"[{'imgObject': {}, 'id': 'eggs', 'src': '/static/foodstim60/eggs.jpg', 'key': 'u', 'origWidth': 409, 'origHeight': 409, 'width': 409, 'height': 409, 'widthPercent': 0.45, 'rescaleHeight': False, 'trialN': 85, 'loaded': True, 'loadedTime': 1862.9000000003725, 'positionName': 'LEFT', 'positionCoords': [316.76, 268], 'bid': 7.27}, {'imgObject': {}, 'id': 'omelette', 'src': '/static/foodstim60/omelette.jpg', 'key': 'i', 'origWidth': 410, 'origHeight': 409, 'width': 410, 'height': 409, 'widthPercent': 0.45, 'rescaleHeight': False, 'trialN': 85, 'loaded': True, 'loadedTime': 1865, 'positionName': 'RIGHT', 'positionCoords': [786.24, 268], 'bid': 7.26}]",124129.40000000037,1669832471524,eggs,omelette,7.27,7.26,-0.009999999999999787,omelette,558.8999999994412,566,566.0,True,i,125196.0,1066.5999999996275,1669832472591,1067,HRV,HRV_0108,2022-11-30 18:23:25
86,"[{'imgObject': {}, 'id': 'orange slices', 'src': '/static/foodstim60/orange slices.jpg', 'key': 'u', 'origWidth': 409, 'origHeight': 410, 'width': 409, 'height': 410, 'widthPercent': 0.45, 'rescaleHeight': False, 'trialN': 86, 'loaded': True, 'loadedTime': 1869.1000000005588, 'positionName': 'LEFT', 'positionCoords': [316.76, 267.5], 'bid': 7.3}, {'imgObject': {}, 'id': 'Tribe humus pita', 'src': '/static/foodstim60/Tribe humus pita.jpg', 'key': 'i', 'origWidth': 411, 'origHeight': 411, 'width': 411, 'height': 411, 'widthPercent': 0.45, 'rescaleHeight': False, 'trialN': 86, 'loaded': True, 'loadedTime': 1856.7999999998137, 'positionName': 'RIGHT', 'positionCoords': [786.24, 267], 'bid': 7.32}]",125196.5,1669832472591,orange slices,Tribe humus pita,7.3,7.32,0.020000000000000462,orange slices,702.6000000005588,710,709.7999999998137,True,u,126406.79999999981,1210.2999999998137,1669832473802,1211,HRV,HRV_0108,2022-11-30 18:23:25
87,"[{'imgObject': {}, 'id': 'raspberries', 'src': '/static/foodstim60/raspberries.jpg', 'key': 'u', 'origWidth': 411, 'origHeight': 411, 'width': 411, 'height': 411, 'widthPercent': 0.45, 'rescaleHeight': False, 'trialN': 87, 'loaded': True, 'loadedTime': 1872.2000000001863, 'positionName': 'LEFT', 'positionCoords': [314.76, 267], 'bid': 5.5600000000000005}, {'imgObject': {}, 'id': 'blueberries', 'src': '/static/foodstim60/blueberries.jpg', 'key': 'i', 'origWidth': 411, 'origHeight': 411, 'width': 411, 'height': 411, 'widthPercent': 0.45, 'rescaleHeight': False, 'trialN': 87, 'loaded': True, 'loadedTime': 1870.7999999998137, 'positionName': 'RIGHT', 'positionCoords': [786.24, 267], 'bid': 6.36}]",126407.20000000019,1669832473802,raspberries,blueberries,5.5600000000000005,6.36,0.7999999999999998,raspberries,565.7999999998137,574,573.4000000003725,True,u,127485.5,1078.2999999998137,1669832474880,1078,HRV,HRV_0108,2022-11-30 18:23:25
88,"[{'imgObject': {}, 'id': 'burrito', 'src': '/static/foodstim60/burrito.jpg', 'key': 'u', 'origWidth': 410, 'origHeight': 410, 'width': 410, 'height': 410, 'widthPercent': 0.45, 'rescaleHeight': False, 'trialN': 88, 'loaded': True, 'loadedTime': 1851.2000000001863, 'positionName': 'LEFT', 'positionCoords': [315.76, 267.5], 'bid': 7.79}, {'imgObject': {}, 'id': 'hotdog w must', 'src': '/static/foodstim60/hotdog w must.jpg', 'key': 'i', 'origWidth': 409, 'origHeight': 409, 'width': 409, 'height': 409, 'widthPercent': 0.45, 'rescaleHeight': False, 'trialN': 88, 'loaded': True, 'loadedTime': 1863.4000000003725, 'positionName': 'RIGHT', 'positionCoords': [786.24, 268], 'bid': 7.77}]",127486.0,1669832474881,burrito,hotdog w must,7.79,7.77,-0.020000000000000462,hotdog w must,772.4000000003725,779,779.2999999998137,True,i,128769.0,1283.0,1669832476164,1283,HRV,HRV_0108,2022-11-30 18:23:25
89,"[{'imgObject': {}, 'id': 'froot loops w milk', 'src': '/static/foodstim60/froot loops w milk.jpg', 'key': 'u', 'origWidth': 410, 'origHeight': 410, 'width': 410, 'height': 410, 'widthPercent': 0.45, 'rescaleHeight': False, 'trialN': 89, 'loaded': True, 'loadedTime': 1864.9000000003725, 'positionName': 'LEFT', 'positionCoords': [315.76, 267.5], 'bid': 6.33}, {'imgObject': {}, 'id': 'burger', 'src': '/static/foodstim60/burger.jpg', 'key': 'i', 'origWidth': 409, 'origHeight': 409, 'width': 409, 'height': 409, 'widthPercent': 0.45, 'rescaleHeight': False, 'trialN': 89, 'loaded': True, 'loadedTime': 1877.4000000003725, 'positionName': 'RIGHT', 'positionCoords': [786.24, 268], 'bid': 5.92}]",128769.5,1669832476164,froot loops w milk,burger,6.33,5.92,-0.41000000000000014,froot loops w milk,483.6000000005588,491,491.1000000005588,True,u,129761.10000000056,991.6000000005588,1669832477156,992,HRV,HRV_0108,2022-11-30 18:23:25
90,"[{'imgObject': {}, 'id': 'avocado', 'src': '/static/foodstim60/avocado.jpg', 'key': 'u', 'origWidth': 409, 'origHeight': 409, 'width': 409, 'height': 409, 'widthPercent': 0.45, 'rescaleHeight': False, 'trialN': 90, 'loaded': True, 'loadedTime': 1865.9000000003725, 'positionName': 'LEFT', 'positionCoords': [316.76, 268], 'bid': 6.54}, {'imgObject': {}, 'id': 'sweetpotato', 'src': '/static/foodstim60/sweetpotato.jpg', 'key': 'i', 'origWidth': 410, 'origHeight': 410, 'width': 410, 'height': 410, 'widthPercent': 0.45, 'rescaleHeight': False, 'trialN': 90, 'loaded': True, 'loadedTime': 1833.2000000001863, 'positionName': 'RIGHT', 'positionCoords': [786.24, 267.5], 'bid': 5.6000000000000005}]",132989.5,1669832480384,avocado,sweetpotato,6.54,5.6000000000000005,-0.9399999999999995,avocado,865.6000000005588,874,873.4000000003725,True,u,134363.60000000056,1374.1000000005588,1669832481758,1374,HRV,HRV_0108,2022-11-30 18:23:25
91,"[{'imgObject': {}, 'id': 'chickenfingers', 'src': '/static/foodstim60/chickenfingers.jpg', 'key': 'u', 'origWidth': 410, 'origHeight': 410, 'width': 410, 'height': 410, 'widthPercent': 0.45, 'rescaleHeight': False, 'trialN': 91, 'loaded': True, 'loadedTime': 1878.9000000003725, 'positionName': 'LEFT', 'positionCoords': [315.76, 267.5], 'bid': 6.05}, {'imgObject': {}, 'id': 'rigatoni', 'src': '/static/foodstim60/rigatoni.jpg', 'key': 'i', 'origWidth': 411, 'origHeight': 411, 'width': 411, 'height': 411, 'widthPercent': 0.45, 'rescaleHeight': False, 'trialN': 91, 'loaded': True, 'loadedTime': 1847.5, 'positionName': 'RIGHT', 'positionCoords': [786.24, 267], 'bid': 8.69}]",134364.0,1669832481759,chickenfingers,rigatoni,6.05,8.69,2.6399999999999997,rigatoni,373.29999999981374,380,380.20000000018626,True,i,135249.10000000056,885.1000000005588,1669832482644,885,HRV,HRV_0108,2022-11-30 18:23:25
92,"[{'imgObject': {}, 'id': 'sweetpotato', 'src': '/static/foodstim60/sweetpotato.jpg', 'key': 'u', 'origWidth': 410, 'origHeight': 410, 'width': 410, 'height': 410, 'widthPercent': 0.45, 'rescaleHeight': False, 'trialN': 92, 'loaded': True, 'loadedTime': 1833.2999999998137, 'positionName': 'LEFT', 'positionCoords': [315.76, 267.5], 'bid': 5.6000000000000005}, {'imgObject': {}, 'id': 'cheerios', 'src': '/static/foodstim60/cheerios.jpg', 'key': 'i', 'origWidth': 409, 'origHeight': 410, 'width': 409, 'height': 410, 'widthPercent': 0.45, 'rescaleHeight': False, 'trialN': 92, 'loaded': True, 'loadedTime': 1874.2000000001863, 'positionName': 'RIGHT', 'positionCoords': [786.24, 267.5], 'bid': 3.13}]",135249.5,1669832482644,sweetpotato,cheerios,5.6000000000000005,3.13,-2.4700000000000006,cheerios,357.79999999981374,365,365.0,True,i,136118.2999999998,868.7999999998137,1669832483513,869,HRV,HRV_0108,2022-11-30 18:23:25
93,"[{'imgObject': {}, 'id': 'yogurt no spoon', 'src': '/static/foodstim60/yogurt no spoon.jpg', 'key': 'u', 'origWidth': 411, 'origHeight': 410, 'width': 411, 'height': 410, 'widthPercent': 0.45, 'rescaleHeight': False, 'trialN': 93, 'loaded': True, 'loadedTime': 1872.6000000005588, 'positionName': 'LEFT', 'positionCoords': [314.76, 267.5], 'bid': 6.54}, {'imgObject': {}, 'id': 'cantaloupe', 'src': '/static/foodstim60/cantaloupe.jpg', 'key': 'i', 'origWidth': 409, 'origHeight': 409, 'width': 409, 'height': 409, 'widthPercent': 0.45, 'rescaleHeight': False, 'trialN': 93, 'loaded': True, 'loadedTime': 1868.5, 'positionName': 'RIGHT', 'positionCoords': [786.24, 268], 'bid': 6.74}]",136118.7000000002,1669832483514,yogurt no spoon,cantaloupe,6.54,6.74,0.20000000000000018,cantaloupe,453,460,460.20000000018626,True,i,137083.7000000002,965.0,1669832484479,965,HRV,HRV_0108,2022-11-30 18:23:25
94,"[{'imgObject': {}, 'id': 'hashbrowns', 'src': '/static/foodstim60/hashbrowns.jpg', 'key': 'u', 'origWidth': 411, 'origHeight': 410, 'width': 411, 'height': 410, 'widthPercent': 0.45, 'rescaleHeight': False, 'trialN': 94, 'loaded': True, 'loadedTime': 1870.2999999998137, 'positionName': 'LEFT', 'positionCoords': [314.76, 267.5], 'bid': 2.64}, {'imgObject': {}, 'id': 'cherries', 'src': '/static/foodstim60/cherries.jpg', 'key': 'i', 'origWidth': 410, 'origHeight': 411, 'width': 410, 'height': 411, 'widthPercent': 0.45, 'rescaleHeight': False, 'trialN': 94, 'loaded': True, 'loadedTime': 1861.9000000003725, 'positionName': 'RIGHT', 'positionCoords': [786.24, 267], 'bid': 3.16}]",137084.10000000056,1669832484479,hashbrowns,cherries,2.64,3.16,0.52,cherries,532.8999999994412,541,540.5999999996275,True,i,138129.0,1044.8999999994412,1669832485524,1045,HRV,HRV_0108,2022-11-30 18:23:25
95,"[{'imgObject': {}, 'id': 'raisin bran w milk', 'src': '/static/foodstim60/raisin bran w milk.jpg', 'key': 'u', 'origWidth': 411, 'origHeight': 411, 'width': 411, 'height': 411, 'widthPercent': 0.45, 'rescaleHeight': False, 'trialN': 95, 'loaded': True, 'loadedTime': 1848.7999999998137, 'positionName': 'LEFT', 'positionCoords': [314.76, 267], 'bid': 1.52}, {'imgObject': {}, 'id': 'mashed potato', 'src': '/static/foodstim60/mashed potato.jpg', 'key': 'i', 'origWidth': 409, 'origHeight': 409, 'width': 409, 'height': 409, 'widthPercent': 0.45, 'rescaleHeight': False, 'trialN': 95, 'loaded': True, 'loadedTime': 1873.7000000001863, 'positionName': 'RIGHT', 'positionCoords': [786.24, 268], 'bid': 1.87}]",138129.5,1669832485524,raisin bran w milk,mashed potato,1.52,1.87,0.3500000000000001,raisin bran w milk,827.7000000001863,835,835.0,True,u,139467.7999999998,1338.2999999998137,1669832486863,1339,HRV,HRV_0108,2022-11-30 18:23:25
96,"[{'imgObject': {}, 'id': 'veggieswithdip', 'src': '/static/foodstim60/veggieswithdip.jpg', 'key': 'u', 'origWidth': 409, 'origHeight': 409, 'width': 409, 'height': 409, 'widthPercent': 0.45, 'rescaleHeight': False, 'trialN': 96, 'loaded': True, 'loadedTime': 1852.4000000003725, 'positionName': 'LEFT', 'positionCoords': [316.76, 268], 'bid': 8.05}, {'imgObject': {}, 'id': 'salmon', 'src': '/static/foodstim60/salmon.jpg', 'key': 'i', 'origWidth': 410, 'origHeight': 409, 'width': 410, 'height': 409, 'widthPercent': 0.45, 'rescaleHeight': False, 'trialN': 96, 'loaded': True, 'loadedTime': 1840.2000000001863, 'positionName': 'RIGHT', 'positionCoords': [786.24, 268], 'bid': 3.69}]",139468.2000000002,1669832486863,veggieswithdip,salmon,8.05,3.69,-4.360000000000001,veggieswithdip,486.5,493,492.59999999962747,True,u,140465.0,996.7999999998137,1669832487860,997,HRV,HRV_0108,2022-11-30 18:23:25
97,"[{'imgObject': {}, 'id': 'corn cob', 'src': '/static/foodstim60/corn cob.jpg', 'key': 'u', 'origWidth': 411, 'origHeight': 411, 'width': 411, 'height': 411, 'widthPercent': 0.45, 'rescaleHeight': False, 'trialN': 97, 'loaded': True, 'loadedTime': 1853.6000000005588, 'positionName': 'LEFT', 'positionCoords': [314.76, 267], 'bid': 3.94}, {'imgObject': {}, 'id': 'popsicles', 'src': '/static/foodstim60/popsicles.jpg', 'key': 'i', 'origWidth': 410, 'origHeight': 410, 'width': 410, 'height': 410, 'widthPercent': 0.45, 'rescaleHeight': False, 'trialN': 97, 'loaded': True, 'loadedTime': 1881.2000000001863, 'positionName': 'RIGHT', 'positionCoords': [786.24, 267.5], 'bid': 8.120000000000001}]",140465.40000000037,1669832487860,corn cob,popsicles,3.94,8.120000000000001,4.1800000000000015,popsicles,536.5,546,545.7000000001863,True,i,141515.60000000056,1050.2000000001863,1669832488911,1051,HRV,HRV_0108,2022-11-30 18:23:25
98,"[{'imgObject': {}, 'id': 'turkeysandwich', 'src': '/static/foodstim60/turkeysandwich.jpg', 'key': 'u', 'origWidth': 409, 'origHeight': 409, 'width': 409, 'height': 409, 'widthPercent': 0.45, 'rescaleHeight': False, 'trialN': 98, 'loaded': True, 'loadedTime': 1844.5, 'positionName': 'LEFT', 'positionCoords': [316.76, 268], 'bid': 7.18}, {'imgObject': {}, 'id': 'strawberries', 'src': '/static/foodstim60/strawberries.jpg', 'key': 'i', 'origWidth': 410, 'origHeight': 410, 'width': 410, 'height': 410, 'widthPercent': 0.45, 'rescaleHeight': False, 'trialN': 98, 'loaded': True, 'loadedTime': 1856.1000000005588, 'positionName': 'RIGHT', 'positionCoords': [786.24, 267.5], 'bid': 6.3}]",141516.10000000056,1669832488911,turkeysandwich,strawberries,7.18,6.3,-0.8799999999999999,turkeysandwich,734.3999999994412,742,742.2999999998137,True,u,142763.5,1247.3999999994412,1669832490158,1247,HRV,HRV_0108,2022-11-30 18:23:25
99,"[{'imgObject': {}, 'id': 'steak', 'src': '/static/foodstim60/steak.jpg', 'key': 'u', 'origWidth': 410, 'origHeight': 410, 'width': 410, 'height': 410, 'widthPercent': 0.45, 'rescaleHeight': False, 'trialN': 99, 'loaded': True, 'loadedTime': 1858.7000000001863, 'positionName': 'LEFT', 'positionCoords': [315.76, 267.5], 'bid': 2.97}, {'imgObject': {}, 'id': 'hashbrowns', 'src': '/static/foodstim60/hashbrowns.jpg', 'key': 'i', 'origWidth': 411, 'origHeight': 410, 'width': 411, 'height': 410, 'widthPercent': 0.45, 'rescaleHeight': False, 'trialN': 99, 'loaded': True, 'loadedTime': 1870.2999999998137, 'positionName': 'RIGHT', 'positionCoords': [786.24, 267.5], 'bid': 2.64}]",142763.90000000037,1669832490159,steak,hashbrowns,2.97,2.64,-0.33000000000000007,hashbrowns,582.0999999996275,589,588.7000000001863,True,i,143856.5,1092.5999999996275,1669832491251,1092,HRV,HRV_0108,2022-11-30 18:23:25
100,"[{'imgObject': {}, 'id': 'cheerios', 'src': '/static/foodstim60/cheerios.jpg', 'key': 'u', 'origWidth': 409, 'origHeight': 410, 'width': 409, 'height': 410, 'widthPercent': 0.45, 'rescaleHeight': False, 'trialN': 100, 'loaded': True, 'loadedTime': 1874.2000000001863, 'positionName': 'LEFT', 'positionCoords': [316.76, 267.5], 'bid': 3.13}, {'imgObject': {}, 'id': 'bagel and cc', 'src': '/static/foodstim60/bagel and cc.jpg', 'key': 'i', 'origWidth': 410, 'origHeight': 410, 'width': 410, 'height': 410, 'widthPercent': 0.45, 'rescaleHeight': False, 'trialN': 100, 'loaded': True, 'loadedTime': 1848.1000000005588, 'positionName': 'RIGHT', 'positionCoords': [786.24, 267.5], 'bid': 7.63}]",143857.0,1669832491252,cheerios,bagel and cc,3.13,7.63,4.5,bagel and cc,510.20000000018626,518,517.7000000001863,True,i,144875.7999999998,1018.7999999998137,1669832492271,1019,HRV,HRV_0108,2022-11-30 18:23:25
101,"[{'imgObject': {}, 'id': 'chicken nuggets2', 'src': '/static/foodstim60/chicken nuggets2.jpg', 'key': 'u', 'origWidth': 410, 'origHeight': 409, 'width': 410, 'height': 409, 'widthPercent': 0.45, 'rescaleHeight': False, 'trialN': 101, 'loaded': True, 'loadedTime': 1869.7000000001863, 'positionName': 'LEFT', 'positionCoords': [315.76, 268], 'bid': 8.34}, {'imgObject': {}, 'id': 'burger', 'src': '/static/foodstim60/burger.jpg', 'key': 'i', 'origWidth': 409, 'origHeight': 409, 'width': 409, 'height': 409, 'widthPercent': 0.45, 'rescaleHeight': False, 'trialN': 101, 'loaded': True, 'loadedTime': 1877.4000000003725, 'positionName': 'RIGHT', 'positionCoords': [786.24, 268], 'bid': 5.92}]",144876.2999999998,1669832492271,chicken nuggets2,burger,8.34,5.92,-2.42,chicken nuggets2,616.3000000007451,624,623.6000000005588,True,u,146001.7999999998,1125.5,1669832493397,1126,HRV,HRV_0108,2022-11-30 18:23:25
102,"[{'imgObject': {}, 'id': 'blueberries', 'src': '/static/foodstim60/blueberries.jpg', 'key': 'u', 'origWidth': 411, 'origHeight': 411, 'width': 411, 'height': 411, 'widthPercent': 0.45, 'rescaleHeight': False, 'trialN': 102, 'loaded': True, 'loadedTime': 1870.2999999998137, 'positionName': 'LEFT', 'positionCoords': [314.76, 267], 'bid': 6.36}, {'imgObject': {}, 'id': 'avocado', 'src': '/static/foodstim60/avocado.jpg', 'key': 'i', 'origWidth': 409, 'origHeight': 409, 'width': 409, 'height': 409, 'widthPercent': 0.45, 'rescaleHeight': False, 'trialN': 102, 'loaded': True, 'loadedTime': 1865.4000000003725, 'positionName': 'RIGHT', 'positionCoords': [786.24, 268], 'bid': 6.54}]",146002.2999999998,1669832493397,blueberries,avocado,6.36,6.54,0.17999999999999972,blueberries,771.5,778,777.3000000007451,True,u,147284.2000000002,1281.9000000003725,1669832494679,1282,HRV,HRV_0108,2022-11-30 18:23:25
103,"[{'imgObject': {}, 'id': 'mac & cheese', 'src': '/static/foodstim60/mac & cheese.jpg', 'key': 'u', 'origWidth': 410, 'origHeight': 410, 'width': 410, 'height': 410, 'widthPercent': 0.45, 'rescaleHeight': False, 'trialN': 103, 'loaded': True, 'loadedTime': 1853, 'positionName': 'LEFT', 'positionCoords': [315.76, 267.5], 'bid': 8.620000000000001}, {'imgObject': {}, 'id': 'luckycharms', 'src': '/static/foodstim60/luckycharms.jpg', 'key': 'i', 'origWidth': 410, 'origHeight': 409, 'width': 410, 'height': 409, 'widthPercent': 0.45, 'rescaleHeight': False, 'trialN': 103, 'loaded': True, 'loadedTime': 1842.9000000003725, 'positionName': 'RIGHT', 'positionCoords': [786.24, 268], 'bid': 7.48}]",147284.7000000002,1669832494680,mac & cheese,luckycharms,8.620000000000001,7.48,-1.1400000000000006,mac & cheese,495.09999999962747,501,501.79999999981374,True,u,148291.2999999998,1006.5999999996275,1669832495686,1006,HRV,HRV_0108,2022-11-30 18:23:25
104,"[{'imgObject': {}, 'id': 'bagel and cc', 'src': '/static/foodstim60/bagel and cc.jpg', 'key': 'u', 'origWidth': 410, 'origHeight': 410, 'width': 410, 'height': 410, 'widthPercent': 0.45, 'rescaleHeight': False, 'trialN': 104, 'loaded': True, 'loadedTime': 1848.1000000005588, 'positionName': 'LEFT', 'positionCoords': [315.76, 267.5], 'bid': 7.63}, {'imgObject': {}, 'id': 'luckycharms', 'src': '/static/foodstim60/luckycharms.jpg', 'key': 'i', 'origWidth': 410, 'origHeight': 409, 'width': 410, 'height': 409, 'widthPercent': 0.45, 'rescaleHeight': False, 'trialN': 104, 'loaded': True, 'loadedTime': 1843.6000000005588, 'positionName': 'RIGHT', 'positionCoords': [786.24, 268], 'bid': 7.48}]",148291.7000000002,1669832495687,bagel and cc,luckycharms,7.63,7.48,-0.14999999999999947,bagel and cc,584.2999999998137,591,591.0999999996275,True,u,149387.7000000002,1096.0,1669832496783,1096,HRV,HRV_0108,2022-11-30 18:23:25
105,"[{'imgObject': {}, 'id': 'ice cream sundae 002', 'src': '/static/foodstim60/ice cream sundae 002.jpg', 'key': 'u', 'origWidth': 409, 'origHeight': 409, 'width': 409, 'height': 409, 'widthPercent': 0.45, 'rescaleHeight': False, 'trialN': 105, 'loaded': True, 'loadedTime': 1878.5, 'positionName': 'LEFT', 'positionCoords': [316.76, 268], 'bid': 6.83}, {'imgObject': {}, 'id': 'orange slices', 'src': '/static/foodstim60/orange slices.jpg', 'key': 'i', 'origWidth': 409, 'origHeight': 410, 'width': 409, 'height': 410, 'widthPercent': 0.45, 'rescaleHeight': False, 'trialN': 105, 'loaded': True, 'loadedTime': 1869.1000000005588, 'positionName': 'RIGHT', 'positionCoords': [786.24, 267.5], 'bid': 7.3}]",149388.10000000056,1669832496783,ice cream sundae 002,orange slices,6.83,7.3,0.46999999999999975,orange slices,999.3999999994412,1007,1007.0999999996275,True,i,150899.40000000037,1511.2999999998137,1669832498294,1511,HRV,HRV_0108,2022-11-30 18:23:25
106,"[{'imgObject': {}, 'id': 'chicken nuggets2', 'src': '/static/foodstim60/chicken nuggets2.jpg', 'key': 'u', 'origWidth': 410, 'origHeight': 409, 'width': 410, 'height': 409, 'widthPercent': 0.45, 'rescaleHeight': False, 'trialN': 106, 'loaded': True, 'loadedTime': 1869.7999999998137, 'positionName': 'LEFT', 'positionCoords': [315.76, 268], 'bid': 8.34}, {'imgObject': {}, 'id': 'Grapes', 'src': '/static/foodstim60/Grapes.jpg', 'key': 'i', 'origWidth': 411, 'origHeight': 411, 'width': 411, 'height': 411, 'widthPercent': 0.45, 'rescaleHeight': False, 'trialN': 106, 'loaded': True, 'loadedTime': 1871.7000000001863, 'positionName': 'RIGHT', 'positionCoords': [786.24, 267], 'bid': 7.34}]",150900.0,1669832498295,chicken nuggets2,Grapes,8.34,7.34,-1.0,chicken nuggets2,568.7000000001863,575,574.9000000003725,True,u,151979.40000000037,1079.4000000003725,1669832499374,1079,HRV,HRV_0108,2022-11-30 18:23:25
107,"[{'imgObject': {}, 'id': 'cantaloupe', 'src': '/static/foodstim60/cantaloupe.jpg', 'key': 'u', 'origWidth': 409, 'origHeight': 409, 'width': 409, 'height': 409, 'widthPercent': 0.45, 'rescaleHeight': False, 'trialN': 107, 'loaded': True, 'loadedTime': 1868.5, 'positionName': 'LEFT', 'positionCoords': [316.76, 268], 'bid': 6.74}, {'imgObject': {}, 'id': 'raisin bran w milk', 'src': '/static/foodstim60/raisin bran w milk.jpg', 'key': 'i', 'origWidth': 411, 'origHeight': 411, 'width': 411, 'height': 411, 'widthPercent': 0.45, 'rescaleHeight': False, 'trialN': 107, 'loaded': True, 'loadedTime': 1848.9000000003725, 'positionName': 'RIGHT', 'positionCoords': [786.24, 267], 'bid': 1.52}]",151979.7999999998,1669832499375,cantaloupe,raisin bran w milk,6.74,1.52,-5.220000000000001,cantaloupe,781.7000000001863,790,790.0,True,u,153270.7999999998,1291.0,1669832500666,1291,HRV,HRV_0108,2022-11-30 18:23:25
108,"[{'imgObject': {}, 'id': 'salad w chicken', 'src': '/static/foodstim60/salad w chicken.jpg', 'key': 'u', 'origWidth': 411, 'origHeight': 411, 'width': 411, 'height': 411, 'widthPercent': 0.45, 'rescaleHeight': False, 'trialN': 108, 'loaded': True, 'loadedTime': 1849.7000000001863, 'positionName': 'LEFT', 'positionCoords': [314.76, 267], 'bid': 3.37}, {'imgObject': {}, 'id': 'olives', 'src': '/static/foodstim60/olives.jpg', 'key': 'i', 'origWidth': 410, 'origHeight': 410, 'width': 410, 'height': 410, 'widthPercent': 0.45, 'rescaleHeight': False, 'trialN': 108, 'loaded': True, 'loadedTime': 1846.6000000005588, 'positionName': 'RIGHT', 'positionCoords': [786.24, 267.5], 'bid': 2.03}]",153271.40000000037,1669832500666,salad w chicken,olives,3.37,2.03,-1.3400000000000003,salad w chicken,1471.8999999994412,1479,1478.5,True,u,155254.40000000037,1983.0,1669832502649,1983,HRV,HRV_0108,2022-11-30 18:23:25
