trialN,stimuli,trialStartTime,trialStartTime_UNIX,stimulus1,stimulus2,stimulus1Bid,stimulus2Bid,delta,selected,rt,rt_UNIX,rt_perfnow,receivedResponse,rsp,trialEndTime,trialDuration,trialEndTime_UNIX,trialDuration_UNIX,exp,subjectId,date
0,"[{'imgObject': {}, 'id': 'turkey sandwich', 'src': '/static/foodstim60/turkey sandwich.jpg', 'key': 'u', 'origWidth': 409, 'origHeight': 409, 'width': 409, 'height': 409, 'widthPercent': 0.45, 'rescaleHeight': False, 'trialN': 0, 'loaded': True, 'loadedTime': 3044, 'positionName': 'LEFT', 'positionCoords': [512.6, 335.5], 'bid': 7.51}, {'imgObject': {}, 'id': 'salad w chicken', 'src': '/static/foodstim60/salad w chicken.jpg', 'key': 'i', 'origWidth': 411, 'origHeight': 411, 'width': 411, 'height': 411, 'widthPercent': 0.45, 'rescaleHeight': False, 'trialN': 0, 'loaded': True, 'loadedTime': 3070, 'positionName': 'RIGHT', 'positionCoords': [998.4, 334.5], 'bid': 7.04}]",3397.5,1669830200905,turkey sandwich,salad w chicken,7.51,7.04,-0.46999999999999975,turkey sandwich,1349.7999999523163,1349,1350.0,True,u,5268.199999809265,1870.6999998092651,1669830202775,1870,HRV,HRV_0112,2022-11-30 17:49:00
1,"[{'imgObject': {}, 'id': 'hotdog w must', 'src': '/static/foodstim60/hotdog w must.jpg', 'key': 'u', 'origWidth': 409, 'origHeight': 409, 'width': 409, 'height': 409, 'widthPercent': 0.45, 'rescaleHeight': False, 'trialN': 1, 'loaded': True, 'loadedTime': 3078.699999809265, 'positionName': 'LEFT', 'positionCoords': [512.6, 335.5], 'bid': 8.15}, {'imgObject': {}, 'id': 'blackbeanswithrice', 'src': '/static/foodstim60/blackbeanswithrice.jpg', 'key': 'i', 'origWidth': 410, 'origHeight': 410, 'width': 410, 'height': 410, 'widthPercent': 0.45, 'rescaleHeight': False, 'trialN': 1, 'loaded': True, 'loadedTime': 3082.2999999523163, 'positionName': 'RIGHT', 'positionCoords': [998.4, 335], 'bid': 8.14}]",5268.299999952316,1669830202775,hotdog w must,blackbeanswithrice,8.15,8.14,-0.009999999999999787,blackbeanswithrice,1183.0999999046326,1184,1183.2999999523163,True,i,6970.899999856949,1702.5999999046326,1669830204478,1703,HRV,HRV_0112,2022-11-30 17:49:00
2,"[{'imgObject': {}, 'id': 'chicken nuggets2', 'src': '/static/foodstim60/chicken nuggets2.jpg', 'key': 'u', 'origWidth': 410, 'origHeight': 409, 'width': 410, 'height': 409, 'widthPercent': 0.45, 'rescaleHeight': False, 'trialN': 2, 'loaded': True, 'loadedTime': 3085.199999809265, 'positionName': 'LEFT', 'positionCoords': [511.6, 335.5], 'bid': 4.39}, {'imgObject': {}, 'id': 'cantaloupe', 'src': '/static/foodstim60/cantaloupe.jpg', 'key': 'i', 'origWidth': 409, 'origHeight': 409, 'width': 409, 'height': 409, 'widthPercent': 0.45, 'rescaleHeight': False, 'trialN': 2, 'loaded': True, 'loadedTime': 3091.5, 'positionName': 'RIGHT', 'positionCoords': [998.4, 335.5], 'bid': 0.66}]",6971.099999904633,1669830204478,chicken nuggets2,cantaloupe,4.39,0.66,-3.7299999999999995,chicken nuggets2,1336.2000000476837,1337,1336.5,True,u,8817.299999952316,1846.2000000476837,1669830206324,1846,HRV,HRV_0112,2022-11-30 17:49:00
3,"[{'imgObject': {}, 'id': 'bagel and cc', 'src': '/static/foodstim60/bagel and cc.jpg', 'key': 'u', 'origWidth': 410, 'origHeight': 410, 'width': 410, 'height': 410, 'widthPercent': 0.45, 'rescaleHeight': False, 'trialN': 3, 'loaded': True, 'loadedTime': 3110.699999809265, 'positionName': 'LEFT', 'positionCoords': [511.6, 335], 'bid': 0.59}, {'imgObject': {}, 'id': 'lox', 'src': '/static/foodstim60/lox.jpg', 'key': 'i', 'origWidth': 410, 'origHeight': 411, 'width': 410, 'height': 411, 'widthPercent': 0.45, 'rescaleHeight': False, 'trialN': 3, 'loaded': True, 'loadedTime': 3133.7999999523163, 'positionName': 'RIGHT', 'positionCoords': [998.4, 334.5], 'bid': 0.68}]",8817.399999856949,1669830206324,bagel and cc,lox,0.59,0.68,0.09000000000000008,bagel and cc,1498.0,1499,1498.2000000476837,True,u,10835.399999856949,2018.0,1669830208342,2018,HRV,HRV_0112,2022-11-30 17:49:00
4,"[{'imgObject': {}, 'id': 'corn cob', 'src': '/static/foodstim60/corn cob.jpg', 'key': 'u', 'origWidth': 411, 'origHeight': 411, 'width': 411, 'height': 411, 'widthPercent': 0.45, 'rescaleHeight': False, 'trialN': 4, 'loaded': True, 'loadedTime': 3139.0999999046326, 'positionName': 'LEFT', 'positionCoords': [510.6, 334.5], 'bid': 5.68}, {'imgObject': {}, 'id': 'fruitsalad', 'src': '/static/foodstim60/fruitsalad.jpg', 'key': 'i', 'origWidth': 410, 'origHeight': 410, 'width': 410, 'height': 410, 'widthPercent': 0.45, 'rescaleHeight': False, 'trialN': 4, 'loaded': True, 'loadedTime': 3150.7999999523163, 'positionName': 'RIGHT', 'positionCoords': [998.4, 335], 'bid': 5.76}]",10835.5,1669830208342,corn cob,fruitsalad,5.68,5.76,0.08000000000000007,fruitsalad,2119.699999809265,2120,2120.0,True,i,13469.099999904633,2633.5999999046326,1669830210976,2634,HRV,HRV_0112,2022-11-30 17:49:00
5,"[{'imgObject': {}, 'id': 'lox', 'src': '/static/foodstim60/lox.jpg', 'key': 'u', 'origWidth': 410, 'origHeight': 411, 'width': 410, 'height': 411, 'widthPercent': 0.45, 'rescaleHeight': False, 'trialN': 5, 'loaded': True, 'loadedTime': 3134.0999999046326, 'positionName': 'LEFT', 'positionCoords': [511.6, 334.5], 'bid': 0.68}, {'imgObject': {}, 'id': 'roastedpotatoes', 'src': '/static/foodstim60/roastedpotatoes.jpg', 'key': 'i', 'origWidth': 409, 'origHeight': 410, 'width': 409, 'height': 410, 'widthPercent': 0.45, 'rescaleHeight': False, 'trialN': 5, 'loaded': True, 'loadedTime': 3151.699999809265, 'positionName': 'RIGHT', 'positionCoords': [998.4, 335], 'bid': 4.42}]",13469.199999809265,1669830210976,lox,roastedpotatoes,0.68,4.42,3.7399999999999998,roastedpotatoes,958.0,958,958.2000000476837,True,i,14945.799999952316,1476.6000001430511,1669830212453,1477,HRV,HRV_0112,2022-11-30 17:49:00
6,"[{'imgObject': {}, 'id': 'ice cream sundae 002', 'src': '/static/foodstim60/ice cream sundae 002.jpg', 'key': 'u', 'origWidth': 409, 'origHeight': 409, 'width': 409, 'height': 409, 'widthPercent': 0.45, 'rescaleHeight': False, 'trialN': 6, 'loaded': True, 'loadedTime': 3157.199999809265, 'positionName': 'LEFT', 'positionCoords': [512.6, 335.5], 'bid': 4.98}, {'imgObject': {}, 'id': 'orange slices', 'src': '/static/foodstim60/orange slices.jpg', 'key': 'i', 'origWidth': 409, 'origHeight': 410, 'width': 409, 'height': 410, 'widthPercent': 0.45, 'rescaleHeight': False, 'trialN': 6, 'loaded': True, 'loadedTime': 3176.7999999523163, 'positionName': 'RIGHT', 'positionCoords': [998.4, 335], 'bid': 5.97}]",14946.0,1669830212453,ice cream sundae 002,orange slices,4.98,5.97,0.9899999999999993,orange slices,1177.3999998569489,1178,1177.5999999046326,True,i,16636.699999809265,1690.6999998092651,1669830214144,1691,HRV,HRV_0112,2022-11-30 17:49:00
7,"[{'imgObject': {}, 'id': 'tacos', 'src': '/static/foodstim60/tacos.jpg', 'key': 'u', 'origWidth': 411, 'origHeight': 411, 'width': 411, 'height': 411, 'widthPercent': 0.45, 'rescaleHeight': False, 'trialN': 7, 'loaded': True, 'loadedTime': 3177.699999809265, 'positionName': 'LEFT', 'positionCoords': [510.6, 334.5], 'bid': 6.83}, {'imgObject': {}, 'id': 'eggsalad', 'src': '/static/foodstim60/eggsalad.jpg', 'key': 'i', 'origWidth': 410, 'origHeight': 409, 'width': 410, 'height': 409, 'widthPercent': 0.45, 'rescaleHeight': False, 'trialN': 7, 'loaded': True, 'loadedTime': 3182.899999856949, 'positionName': 'RIGHT', 'positionCoords': [998.4, 335.5], 'bid': 6.15}]",16637.0,1669830214144,tacos,eggsalad,6.83,6.15,-0.6799999999999997,tacos,2022.2999999523163,2023,2022.5999999046326,True,u,19168.699999809265,2531.699999809265,1669830216676,2532,HRV,HRV_0112,2022-11-30 17:49:00
8,"[{'imgObject': {}, 'id': 'cantaloupe', 'src': '/static/foodstim60/cantaloupe.jpg', 'key': 'u', 'origWidth': 409, 'origHeight': 409, 'width': 409, 'height': 409, 'widthPercent': 0.45, 'rescaleHeight': False, 'trialN': 8, 'loaded': True, 'loadedTime': 3089.5999999046326, 'positionName': 'LEFT', 'positionCoords': [512.6, 335.5], 'bid': 0.66}, {'imgObject': {}, 'id': 'granola w milk', 'src': '/static/foodstim60/granola w milk.jpg', 'key': 'i', 'origWidth': 410, 'origHeight': 410, 'width': 410, 'height': 410, 'widthPercent': 0.45, 'rescaleHeight': False, 'trialN': 8, 'loaded': True, 'loadedTime': 3185.699999809265, 'positionName': 'RIGHT', 'positionCoords': [998.4, 335], 'bid': 2.29}]",19168.89999985695,1669830216676,cantaloupe,granola w milk,0.66,2.29,1.63,granola w milk,1923.7999999523163,1924,1924.1000001430511,True,i,21603.299999952316,2434.4000000953674,1669830219110,2434,HRV,HRV_0112,2022-11-30 17:49:00
9,"[{'imgObject': {}, 'id': 'steak', 'src': '/static/foodstim60/steak.jpg', 'key': 'u', 'origWidth': 410, 'origHeight': 410, 'width': 410, 'height': 410, 'widthPercent': 0.45, 'rescaleHeight': False, 'trialN': 9, 'loaded': True, 'loadedTime': 3188.0999999046326, 'positionName': 'LEFT', 'positionCoords': [511.6, 335], 'bid': 7.890000000000001}, {'imgObject': {}, 'id': 'cherries', 'src': '/static/foodstim60/cherries.jpg', 'key': 'i', 'origWidth': 410, 'origHeight': 411, 'width': 410, 'height': 411, 'widthPercent': 0.45, 'rescaleHeight': False, 'trialN': 9, 'loaded': True, 'loadedTime': 3191.2999999523163, 'positionName': 'RIGHT', 'positionCoords': [998.4, 334.5], 'bid': 4.66}]",21603.39999985695,1669830219110,steak,cherries,7.890000000000001,4.66,-3.2300000000000004,steak,1639.9000000953674,1640,1640.0,True,u,23754.799999952316,2151.4000000953674,1669830221262,2152,HRV,HRV_0112,2022-11-30 17:49:00
10,"[{'imgObject': {}, 'id': 'roastedpotatoes', 'src': '/static/foodstim60/roastedpotatoes.jpg', 'key': 'u', 'origWidth': 409, 'origHeight': 410, 'width': 409, 'height': 410, 'widthPercent': 0.45, 'rescaleHeight': False, 'trialN': 10, 'loaded': True, 'loadedTime': 3154.199999809265, 'positionName': 'LEFT', 'positionCoords': [512.6, 335], 'bid': 4.42}, {'imgObject': {}, 'id': 'mango', 'src': '/static/foodstim60/mango.jpg', 'key': 'i', 'origWidth': 411, 'origHeight': 411, 'width': 411, 'height': 411, 'widthPercent': 0.45, 'rescaleHeight': False, 'trialN': 10, 'loaded': True, 'loadedTime': 3195.7999999523163, 'positionName': 'RIGHT', 'positionCoords': [998.4, 334.5], 'bid': 5.62}]",23754.89999985695,1669830221262,roastedpotatoes,mango,4.42,5.62,1.2000000000000002,roastedpotatoes,1648.4000000953674,1648,1648.6000001430511,True,u,25912.799999952316,2157.9000000953674,1669830223420,2158,HRV,HRV_0112,2022-11-30 17:49:00
11,"[{'imgObject': {}, 'id': 'apple slices', 'src': '/static/foodstim60/apple slices.jpg', 'key': 'u', 'origWidth': 409, 'origHeight': 410, 'width': 409, 'height': 410, 'widthPercent': 0.45, 'rescaleHeight': False, 'trialN': 11, 'loaded': True, 'loadedTime': 3197.7999999523163, 'positionName': 'LEFT', 'positionCoords': [512.6, 335], 'bid': 5.72}, {'imgObject': {}, 'id': 'kiwi', 'src': '/static/foodstim60/kiwi.jpg', 'key': 'i', 'origWidth': 410, 'origHeight': 410, 'width': 410, 'height': 410, 'widthPercent': 0.45, 'rescaleHeight': False, 'trialN': 11, 'loaded': True, 'loadedTime': 3207.5999999046326, 'positionName': 'RIGHT', 'positionCoords': [998.4, 335], 'bid': 0.36}]",25912.89999985695,1669830223420,apple slices,kiwi,5.72,0.36,-5.359999999999999,apple slices,970.2000000476837,970,970.4000000953674,True,u,27402.699999809265,1489.7999999523163,1669830224910,1490,HRV,HRV_0112,2022-11-30 17:49:00
12,"[{'imgObject': {}, 'id': 'strawberries', 'src': '/static/foodstim60/strawberries.jpg', 'key': 'u', 'origWidth': 410, 'origHeight': 410, 'width': 410, 'height': 410, 'widthPercent': 0.45, 'rescaleHeight': False, 'trialN': 12, 'loaded': True, 'loadedTime': 3210.2999999523163, 'positionName': 'LEFT', 'positionCoords': [511.6, 335], 'bid': 6.17}, {'imgObject': {}, 'id': 'edamame', 'src': '/static/foodstim60/edamame.jpg', 'key': 'i', 'origWidth': 409, 'origHeight': 410, 'width': 409, 'height': 410, 'widthPercent': 0.45, 'rescaleHeight': False, 'trialN': 12, 'loaded': True, 'loadedTime': 3215.0999999046326, 'positionName': 'RIGHT', 'positionCoords': [998.4, 335], 'bid': 6.13}]",27402.799999952316,1669830224910,strawberries,edamame,6.17,6.13,-0.040000000000000036,strawberries,1744.3999998569489,1744,1744.7000000476837,True,u,29667.699999809265,2264.899999856949,1669830227175,2265,HRV,HRV_0112,2022-11-30 17:49:00
13,"[{'imgObject': {}, 'id': 'bagel and cc', 'src': '/static/foodstim60/bagel and cc.jpg', 'key': 'u', 'origWidth': 410, 'origHeight': 410, 'width': 410, 'height': 410, 'widthPercent': 0.45, 'rescaleHeight': False, 'trialN': 13, 'loaded': True, 'loadedTime': 3111.5, 'positionName': 'LEFT', 'positionCoords': [511.6, 335], 'bid': 0.59}, {'imgObject': {}, 'id': 'cheerios', 'src': '/static/foodstim60/cheerios.jpg', 'key': 'i', 'origWidth': 409, 'origHeight': 410, 'width': 409, 'height': 410, 'widthPercent': 0.45, 'rescaleHeight': False, 'trialN': 13, 'loaded': True, 'loadedTime': 3060.399999856949, 'positionName': 'RIGHT', 'positionCoords': [998.4, 335], 'bid': 2.26}]",29667.799999952316,1669830227175,bagel and cc,cheerios,0.59,2.26,1.67,cheerios,1247.8999998569489,1248,1248.0,True,i,31434.599999904633,1766.7999999523163,1669830228942,1767,HRV,HRV_0112,2022-11-30 17:49:00
14,"[{'imgObject': {}, 'id': 'olives', 'src': '/static/foodstim60/olives.jpg', 'key': 'u', 'origWidth': 410, 'origHeight': 410, 'width': 410, 'height': 410, 'widthPercent': 0.45, 'rescaleHeight': False, 'trialN': 14, 'loaded': True, 'loadedTime': 3091.7999999523163, 'positionName': 'LEFT', 'positionCoords': [511.6, 335], 'bid': 6.59}, {'imgObject': {}, 'id': 'banana', 'src': '/static/foodstim60/banana.jpg', 'key': 'i', 'origWidth': 410, 'origHeight': 410, 'width': 410, 'height': 410, 'widthPercent': 0.45, 'rescaleHeight': False, 'trialN': 14, 'loaded': True, 'loadedTime': 3097.699999809265, 'positionName': 'RIGHT', 'positionCoords': [998.4, 335], 'bid': 6.0600000000000005}]",31434.699999809265,1669830228942,olives,banana,6.59,6.0600000000000005,-0.5299999999999994,olives,1768.7000000476837,1769,1768.8000001907349,True,u,33718.09999990463,2283.4000000953674,1669830231225,2283,HRV,HRV_0112,2022-11-30 17:49:00
15,"[{'imgObject': {}, 'id': 'edamame', 'src': '/static/foodstim60/edamame.jpg', 'key': 'u', 'origWidth': 409, 'origHeight': 410, 'width': 409, 'height': 410, 'widthPercent': 0.45, 'rescaleHeight': False, 'trialN': 15, 'loaded': True, 'loadedTime': 3214.899999856949, 'positionName': 'LEFT', 'positionCoords': [512.6, 335], 'bid': 6.13}, {'imgObject': {}, 'id': 'burger', 'src': '/static/foodstim60/burger.jpg', 'key': 'i', 'origWidth': 409, 'origHeight': 409, 'width': 409, 'height': 409, 'widthPercent': 0.45, 'rescaleHeight': False, 'trialN': 15, 'loaded': True, 'loadedTime': 3103.899999856949, 'positionName': 'RIGHT', 'positionCoords': [998.4, 335.5], 'bid': 6.7700000000000005}]",33718.199999809265,1669830231225,edamame,burger,6.13,6.7700000000000005,0.6400000000000006,edamame,1452.9000000953674,1453,1453.1000001430511,True,u,35686.5,1968.3000001907349,1669830233193,1968,HRV,HRV_0112,2022-11-30 17:49:00
16,"[{'imgObject': {}, 'id': 'popsicles', 'src': '/static/foodstim60/popsicles.jpg', 'key': 'u', 'origWidth': 410, 'origHeight': 410, 'width': 410, 'height': 410, 'widthPercent': 0.45, 'rescaleHeight': False, 'trialN': 16, 'loaded': True, 'loadedTime': 3397.0999999046326, 'positionName': 'LEFT', 'positionCoords': [511.6, 335], 'bid': 0.8}, {'imgObject': {}, 'id': 'eggs', 'src': '/static/foodstim60/eggs.jpg', 'key': 'i', 'origWidth': 409, 'origHeight': 409, 'width': 409, 'height': 409, 'widthPercent': 0.45, 'rescaleHeight': False, 'trialN': 16, 'loaded': True, 'loadedTime': 3106.5, 'positionName': 'RIGHT', 'positionCoords': [998.4, 335.5], 'bid': 6.04}]",35686.59999990463,1669830233194,popsicles,eggs,0.8,6.04,5.24,eggs,884.5999999046326,884,884.7999999523163,True,i,37087.59999990463,1401.0,1669830234595,1401,HRV,HRV_0112,2022-11-30 17:49:00
17,"[{'imgObject': {}, 'id': 'blackbeanswithrice', 'src': '/static/foodstim60/blackbeanswithrice.jpg', 'key': 'u', 'origWidth': 410, 'origHeight': 410, 'width': 410, 'height': 410, 'widthPercent': 0.45, 'rescaleHeight': False, 'trialN': 17, 'loaded': True, 'loadedTime': 3082.2999999523163, 'positionName': 'LEFT', 'positionCoords': [511.6, 335], 'bid': 8.14}, {'imgObject': {}, 'id': 'yogurt no spoon', 'src': '/static/foodstim60/yogurt no spoon.jpg', 'key': 'i', 'origWidth': 411, 'origHeight': 410, 'width': 411, 'height': 410, 'widthPercent': 0.45, 'rescaleHeight': False, 'trialN': 17, 'loaded': True, 'loadedTime': 3114.7999999523163, 'positionName': 'RIGHT', 'positionCoords': [998.4, 335], 'bid': 4.94}]",37087.699999809265,1669830234595,blackbeanswithrice,yogurt no spoon,8.14,4.94,-3.2,blackbeanswithrice,1003.4000000953674,1003,1003.6000001430511,True,u,38601.699999809265,1514.0,1669830236109,1514,HRV,HRV_0112,2022-11-30 17:49:00
18,"[{'imgObject': {}, 'id': 'fried eggs', 'src': '/static/foodstim60/fried eggs.jpg', 'key': 'u', 'origWidth': 410, 'origHeight': 410, 'width': 410, 'height': 410, 'widthPercent': 0.45, 'rescaleHeight': False, 'trialN': 18, 'loaded': True, 'loadedTime': 3119.899999856949, 'positionName': 'LEFT', 'positionCoords': [511.6, 335], 'bid': 7.51}, {'imgObject': {}, 'id': 'chicken nuggets2', 'src': '/static/foodstim60/chicken nuggets2.jpg', 'key': 'i', 'origWidth': 410, 'origHeight': 409, 'width': 410, 'height': 409, 'widthPercent': 0.45, 'rescaleHeight': False, 'trialN': 18, 'loaded': True, 'loadedTime': 3082.399999856949, 'positionName': 'RIGHT', 'positionCoords': [998.4, 335.5], 'bid': 4.39}]",38601.89999985695,1669830236109,fried eggs,chicken nuggets2,7.51,4.39,-3.12,fried eggs,1161.1000001430511,1161,1161.2999999523163,True,u,40269.59999990463,1667.7000000476837,1669830237777,1668,HRV,HRV_0112,2022-11-30 17:49:00
19,"[{'imgObject': {}, 'id': 'rigatoni', 'src': '/static/foodstim60/rigatoni.jpg', 'key': 'u', 'origWidth': 411, 'origHeight': 411, 'width': 411, 'height': 411, 'widthPercent': 0.45, 'rescaleHeight': False, 'trialN': 19, 'loaded': True, 'loadedTime': 3125, 'positionName': 'LEFT', 'positionCoords': [510.6, 334.5], 'bid': 4.97}, {'imgObject': {}, 'id': 'cheerios', 'src': '/static/foodstim60/cheerios.jpg', 'key': 'i', 'origWidth': 409, 'origHeight': 410, 'width': 409, 'height': 410, 'widthPercent': 0.45, 'rescaleHeight': False, 'trialN': 19, 'loaded': True, 'loadedTime': 3067.199999809265, 'positionName': 'RIGHT', 'positionCoords': [998.4, 335], 'bid': 2.26}]",40269.699999809265,1669830237777,rigatoni,cheerios,4.97,2.26,-2.71,cheerios,2261.4000000953674,2261,2261.600000143051,True,i,43041.0,2771.300000190735,1669830240548,2771,HRV,HRV_0112,2022-11-30 17:49:00
20,"[{'imgObject': {}, 'id': 'grilled chicken strips', 'src': '/static/foodstim60/grilled chicken strips.jpg', 'key': 'u', 'origWidth': 410, 'origHeight': 411, 'width': 410, 'height': 411, 'widthPercent': 0.45, 'rescaleHeight': False, 'trialN': 20, 'loaded': True, 'loadedTime': 3126.0999999046326, 'positionName': 'LEFT', 'positionCoords': [511.6, 334.5], 'bid': 8.370000000000001}, {'imgObject': {}, 'id': 'mashed potato', 'src': '/static/foodstim60/mashed potato.jpg', 'key': 'i', 'origWidth': 409, 'origHeight': 409, 'width': 409, 'height': 409, 'widthPercent': 0.45, 'rescaleHeight': False, 'trialN': 20, 'loaded': True, 'loadedTime': 3142, 'positionName': 'RIGHT', 'positionCoords': [998.4, 335.5], 'bid': 7.54}]",43041.199999809265,1669830240548,grilled chicken strips,mashed potato,8.370000000000001,7.54,-0.830000000000001,mashed potato,1346.0,1346,1346.1000001430511,True,i,44895.299999952316,1854.1000001430511,1669830242402,1854,HRV,HRV_0112,2022-11-30 17:49:00
21,"[{'imgObject': {}, 'id': 'chicken nuggets2', 'src': '/static/foodstim60/chicken nuggets2.jpg', 'key': 'u', 'origWidth': 410, 'origHeight': 409, 'width': 410, 'height': 409, 'widthPercent': 0.45, 'rescaleHeight': False, 'trialN': 21, 'loaded': True, 'loadedTime': 3085, 'positionName': 'LEFT', 'positionCoords': [511.6, 335.5], 'bid': 4.39}, {'imgObject': {}, 'id': 'roastedpotatoes', 'src': '/static/foodstim60/roastedpotatoes.jpg', 'key': 'i', 'origWidth': 409, 'origHeight': 410, 'width': 409, 'height': 410, 'widthPercent': 0.45, 'rescaleHeight': False, 'trialN': 21, 'loaded': True, 'loadedTime': 3151.7999999523163, 'positionName': 'RIGHT', 'positionCoords': [998.4, 335], 'bid': 4.42}]",44895.39999985695,1669830242402,chicken nuggets2,roastedpotatoes,4.39,4.42,0.03000000000000025,roastedpotatoes,1731.7000000476837,1735,1732.0,True,i,47135.699999809265,2240.2999999523163,1669830244645,2243,HRV,HRV_0112,2022-11-30 17:49:00
22,"[{'imgObject': {}, 'id': 'burger', 'src': '/static/foodstim60/burger.jpg', 'key': 'u', 'origWidth': 409, 'origHeight': 409, 'width': 409, 'height': 409, 'widthPercent': 0.45, 'rescaleHeight': False, 'trialN': 22, 'loaded': True, 'loadedTime': 3101.0999999046326, 'positionName': 'LEFT', 'positionCoords': [512.6, 335.5], 'bid': 6.7700000000000005}, {'imgObject': {}, 'id': 'cherry tomato', 'src': '/static/foodstim60/cherry tomato.jpg', 'key': 'i', 'origWidth': 410, 'origHeight': 410, 'width': 410, 'height': 410, 'widthPercent': 0.45, 'rescaleHeight': False, 'trialN': 22, 'loaded': True, 'loadedTime': 3145.2999999523163, 'positionName': 'RIGHT', 'positionCoords': [998.4, 335], 'bid': 6.5600000000000005}]",47135.699999809265,1669830244645,burger,cherry tomato,6.7700000000000005,6.5600000000000005,-0.20999999999999996,cherry tomato,1643.4000000953674,1644,1643.6000001430511,True,i,49286.39999985695,2150.7000000476837,1669830246796,2151,HRV,HRV_0112,2022-11-30 17:49:00
23,"[{'imgObject': {}, 'id': 'cheerios', 'src': '/static/foodstim60/cheerios.jpg', 'key': 'u', 'origWidth': 409, 'origHeight': 410, 'width': 409, 'height': 410, 'widthPercent': 0.45, 'rescaleHeight': False, 'trialN': 23, 'loaded': True, 'loadedTime': 3061.399999856949, 'positionName': 'LEFT', 'positionCoords': [512.6, 335], 'bid': 2.26}, {'imgObject': {}, 'id': 'edamame', 'src': '/static/foodstim60/edamame.jpg', 'key': 'i', 'origWidth': 409, 'origHeight': 410, 'width': 409, 'height': 410, 'widthPercent': 0.45, 'rescaleHeight': False, 'trialN': 23, 'loaded': True, 'loadedTime': 3215.0999999046326, 'positionName': 'RIGHT', 'positionCoords': [998.4, 335], 'bid': 6.13}]",49286.5,1669830246796,cheerios,edamame,2.26,6.13,3.87,edamame,1692.5,1693,1692.7999999523163,True,i,51487.39999985695,2200.899999856949,1669830248997,2201,HRV,HRV_0112,2022-11-30 17:49:00
24,"[{'imgObject': {}, 'id': 'olives', 'src': '/static/foodstim60/olives.jpg', 'key': 'u', 'origWidth': 410, 'origHeight': 410, 'width': 410, 'height': 410, 'widthPercent': 0.45, 'rescaleHeight': False, 'trialN': 24, 'loaded': True, 'loadedTime': 3095.399999856949, 'positionName': 'LEFT', 'positionCoords': [511.6, 335], 'bid': 6.59}, {'imgObject': {}, 'id': 'hotdog w must', 'src': '/static/foodstim60/hotdog w must.jpg', 'key': 'i', 'origWidth': 409, 'origHeight': 409, 'width': 409, 'height': 409, 'widthPercent': 0.45, 'rescaleHeight': False, 'trialN': 24, 'loaded': True, 'loadedTime': 3073.899999856949, 'positionName': 'RIGHT', 'positionCoords': [998.4, 335.5], 'bid': 8.15}]",51487.59999990463,1669830248997,olives,hotdog w must,6.59,8.15,1.5600000000000005,hotdog w must,2091.4000000953674,2092,2091.5999999046326,True,i,54088.199999809265,2600.5999999046326,1669830251598,2601,HRV,HRV_0112,2022-11-30 17:49:00
25,"[{'imgObject': {}, 'id': 'ice cream sundae 002', 'src': '/static/foodstim60/ice cream sundae 002.jpg', 'key': 'u', 'origWidth': 409, 'origHeight': 409, 'width': 409, 'height': 409, 'widthPercent': 0.45, 'rescaleHeight': False, 'trialN': 25, 'loaded': True, 'loadedTime': 3155.0999999046326, 'positionName': 'LEFT', 'positionCoords': [512.6, 335.5], 'bid': 4.98}, {'imgObject': {}, 'id': 'grilled chicken strips', 'src': '/static/foodstim60/grilled chicken strips.jpg', 'key': 'i', 'origWidth': 410, 'origHeight': 411, 'width': 410, 'height': 411, 'widthPercent': 0.45, 'rescaleHeight': False, 'trialN': 25, 'loaded': True, 'loadedTime': 3128.399999856949, 'positionName': 'RIGHT', 'positionCoords': [998.4, 334.5], 'bid': 8.370000000000001}]",54088.299999952316,1669830251598,ice cream sundae 002,grilled chicken strips,4.98,8.370000000000001,3.3900000000000006,grilled chicken strips,1194.7999999523163,1195,1194.8999998569489,True,i,55802.59999990463,1714.2999999523163,1669830253312,1714,HRV,HRV_0112,2022-11-30 17:49:00
26,"[{'imgObject': {}, 'id': 'mashed potato', 'src': '/static/foodstim60/mashed potato.jpg', 'key': 'u', 'origWidth': 409, 'origHeight': 409, 'width': 409, 'height': 409, 'widthPercent': 0.45, 'rescaleHeight': False, 'trialN': 26, 'loaded': True, 'loadedTime': 3142, 'positionName': 'LEFT', 'positionCoords': [512.6, 335.5], 'bid': 7.54}, {'imgObject': {}, 'id': 'roastedpotatoes', 'src': '/static/foodstim60/roastedpotatoes.jpg', 'key': 'i', 'origWidth': 409, 'origHeight': 410, 'width': 409, 'height': 410, 'widthPercent': 0.45, 'rescaleHeight': False, 'trialN': 26, 'loaded': True, 'loadedTime': 3154.0999999046326, 'positionName': 'RIGHT', 'positionCoords': [998.4, 335], 'bid': 4.42}]",55802.699999809265,1669830253312,mashed potato,roastedpotatoes,7.54,4.42,-3.12,mashed potato,800.3000001907349,801,800.5,True,u,57120.59999990463,1317.9000000953674,1669830254630,1318,HRV,HRV_0112,2022-11-30 17:49:00
27,"[{'imgObject': {}, 'id': 'baked potato', 'src': '/static/foodstim60/baked potato.jpg', 'key': 'u', 'origWidth': 409, 'origHeight': 410, 'width': 409, 'height': 410, 'widthPercent': 0.45, 'rescaleHeight': False, 'trialN': 27, 'loaded': True, 'loadedTime': 3148.2999999523163, 'positionName': 'LEFT', 'positionCoords': [512.6, 335], 'bid': 5.59}, {'imgObject': {}, 'id': 'chickenfingers', 'src': '/static/foodstim60/chickenfingers.jpg', 'key': 'i', 'origWidth': 410, 'origHeight': 410, 'width': 410, 'height': 410, 'widthPercent': 0.45, 'rescaleHeight': False, 'trialN': 27, 'loaded': True, 'loadedTime': 3160.5999999046326, 'positionName': 'RIGHT', 'positionCoords': [998.4, 335], 'bid': 5.41}]",57120.699999809265,1669830254630,baked potato,chickenfingers,5.59,5.41,-0.17999999999999972,baked potato,962.3000001907349,963,962.6000001430511,True,u,58598.5,1477.8000001907349,1669830256108,1478,HRV,HRV_0112,2022-11-30 17:49:00
28,"[{'imgObject': {}, 'id': 'fried eggs', 'src': '/static/foodstim60/fried eggs.jpg', 'key': 'u', 'origWidth': 410, 'origHeight': 410, 'width': 410, 'height': 410, 'widthPercent': 0.45, 'rescaleHeight': False, 'trialN': 28, 'loaded': True, 'loadedTime': 3119.7999999523163, 'positionName': 'LEFT', 'positionCoords': [511.6, 335], 'bid': 7.51}, {'imgObject': {}, 'id': 'edamame', 'src': '/static/foodstim60/edamame.jpg', 'key': 'i', 'origWidth': 409, 'origHeight': 410, 'width': 409, 'height': 410, 'widthPercent': 0.45, 'rescaleHeight': False, 'trialN': 28, 'loaded': True, 'loadedTime': 3215.199999809265, 'positionName': 'RIGHT', 'positionCoords': [998.4, 335], 'bid': 6.13}]",58598.59999990463,1669830256108,fried eggs,edamame,7.51,6.13,-1.38,fried eggs,1340.2999999523163,1341,1340.5,True,u,60452.5,1853.9000000953674,1669830257962,1854,HRV,HRV_0112,2022-11-30 17:49:00
29,"[{'imgObject': {}, 'id': 'granola w milk', 'src': '/static/foodstim60/granola w milk.jpg', 'key': 'u', 'origWidth': 410, 'origHeight': 410, 'width': 410, 'height': 410, 'widthPercent': 0.45, 'rescaleHeight': False, 'trialN': 29, 'loaded': True, 'loadedTime': 3185.399999856949, 'positionName': 'LEFT', 'positionCoords': [511.6, 335], 'bid': 2.29}, {'imgObject': {}, 'id': 'eggsalad', 'src': '/static/foodstim60/eggsalad.jpg', 'key': 'i', 'origWidth': 410, 'origHeight': 409, 'width': 410, 'height': 409, 'widthPercent': 0.45, 'rescaleHeight': False, 'trialN': 29, 'loaded': True, 'loadedTime': 3179.7999999523163, 'positionName': 'RIGHT', 'positionCoords': [998.4, 335.5], 'bid': 6.15}]",60452.59999990463,1669830257962,granola w milk,eggsalad,2.29,6.15,3.8600000000000003,eggsalad,1022.4000000953674,1023,1022.7000000476837,True,i,61976.5,1523.9000000953674,1669830259486,1524,HRV,HRV_0112,2022-11-30 17:49:00
30,"[{'imgObject': {}, 'id': 'froot loops w milk', 'src': '/static/foodstim60/froot loops w milk.jpg', 'key': 'u', 'origWidth': 410, 'origHeight': 410, 'width': 410, 'height': 410, 'widthPercent': 0.45, 'rescaleHeight': False, 'trialN': 30, 'loaded': True, 'loadedTime': 3166.5, 'positionName': 'LEFT', 'positionCoords': [511.6, 335], 'bid': 2.44}, {'imgObject': {}, 'id': 'hashbrowns', 'src': '/static/foodstim60/hashbrowns.jpg', 'key': 'i', 'origWidth': 411, 'origHeight': 410, 'width': 411, 'height': 410, 'widthPercent': 0.45, 'rescaleHeight': False, 'trialN': 30, 'loaded': True, 'loadedTime': 3167.5999999046326, 'positionName': 'RIGHT', 'positionCoords': [998.4, 335], 'bid': 3.08}]",61976.59999990463,1669830259486,froot loops w milk,hashbrowns,2.44,3.08,0.6400000000000001,froot loops w milk,1570.4000000953674,1571,1570.5999999046326,True,u,64056.59999990463,2080.0,1669830261566,2080,HRV,HRV_0112,2022-11-30 17:49:00
31,"[{'imgObject': {}, 'id': 'mac & cheese', 'src': '/static/foodstim60/mac & cheese.jpg', 'key': 'u', 'origWidth': 410, 'origHeight': 410, 'width': 410, 'height': 410, 'widthPercent': 0.45, 'rescaleHeight': False, 'trialN': 31, 'loaded': True, 'loadedTime': 3171.399999856949, 'positionName': 'LEFT', 'positionCoords': [511.6, 335], 'bid': 7.83}, {'imgObject': {}, 'id': 'turkeysandwich', 'src': '/static/foodstim60/turkeysandwich.jpg', 'key': 'i', 'origWidth': 409, 'origHeight': 409, 'width': 409, 'height': 409, 'widthPercent': 0.45, 'rescaleHeight': False, 'trialN': 31, 'loaded': True, 'loadedTime': 3190.699999809265, 'positionName': 'RIGHT', 'positionCoords': [998.4, 335.5], 'bid': 9.13}]",64056.89999985695,1669830261566,mac & cheese,turkeysandwich,7.83,9.13,1.3000000000000007,turkeysandwich,1882.2000000476837,1883,1882.4000000953674,True,i,66452.0,2395.100000143051,1669830263961,2395,HRV,HRV_0112,2022-11-30 17:49:00
32,"[{'imgObject': {}, 'id': 'cheerios', 'src': '/static/foodstim60/cheerios.jpg', 'key': 'u', 'origWidth': 409, 'origHeight': 410, 'width': 409, 'height': 410, 'widthPercent': 0.45, 'rescaleHeight': False, 'trialN': 32, 'loaded': True, 'loadedTime': 3067.5, 'positionName': 'LEFT', 'positionCoords': [512.6, 335], 'bid': 2.26}, {'imgObject': {}, 'id': 'granola w milk', 'src': '/static/foodstim60/granola w milk.jpg', 'key': 'i', 'origWidth': 410, 'origHeight': 410, 'width': 410, 'height': 410, 'widthPercent': 0.45, 'rescaleHeight': False, 'trialN': 32, 'loaded': True, 'loadedTime': 3185.2999999523163, 'positionName': 'RIGHT', 'positionCoords': [998.4, 335], 'bid': 2.29}]",66452.19999980927,1669830263962,cheerios,granola w milk,2.26,2.29,0.03000000000000025,cheerios,1342.6000001430511,1342,1342.8000001907349,True,u,68301.39999985695,1849.2000000476837,1669830265811,1849,HRV,HRV_0112,2022-11-30 17:49:00
33,"[{'imgObject': {}, 'id': 'cocktailshrimp', 'src': '/static/foodstim60/cocktailshrimp.jpg', 'key': 'u', 'origWidth': 410, 'origHeight': 410, 'width': 410, 'height': 410, 'widthPercent': 0.45, 'rescaleHeight': False, 'trialN': 33, 'loaded': True, 'loadedTime': 3204.0999999046326, 'positionName': 'LEFT', 'positionCoords': [511.6, 335], 'bid': 0.08}, {'imgObject': {}, 'id': 'luckycharms', 'src': '/static/foodstim60/luckycharms.jpg', 'key': 'i', 'origWidth': 410, 'origHeight': 409, 'width': 410, 'height': 409, 'widthPercent': 0.45, 'rescaleHeight': False, 'trialN': 33, 'loaded': True, 'loadedTime': 3216.199999809265, 'positionName': 'RIGHT', 'positionCoords': [998.4, 335.5], 'bid': 0.7000000000000001}]",68301.59999990463,1669830265811,cocktailshrimp,luckycharms,0.08,0.7000000000000001,0.6200000000000001,luckycharms,925.2999999523163,926,925.5,True,i,69736.89999985695,1435.2999999523163,1669830267246,1435,HRV,HRV_0112,2022-11-30 17:49:00
34,"[{'imgObject': {}, 'id': 'shreddedwheatwithmilk', 'src': '/static/foodstim60/shreddedwheatwithmilk.jpg', 'key': 'u', 'origWidth': 410, 'origHeight': 410, 'width': 410, 'height': 410, 'widthPercent': 0.45, 'rescaleHeight': False, 'trialN': 34, 'loaded': True, 'loadedTime': 3216.199999809265, 'positionName': 'LEFT', 'positionCoords': [511.6, 335], 'bid': 3.42}, {'imgObject': {}, 'id': 'sweetpotato', 'src': '/static/foodstim60/sweetpotato.jpg', 'key': 'i', 'origWidth': 410, 'origHeight': 410, 'width': 410, 'height': 410, 'widthPercent': 0.45, 'rescaleHeight': False, 'trialN': 34, 'loaded': True, 'loadedTime': 3220.5, 'positionName': 'RIGHT', 'positionCoords': [998.4, 335], 'bid': 0.06}]",69737.0,1669830267246,shreddedwheatwithmilk,sweetpotato,3.42,0.06,-3.36,shreddedwheatwithmilk,1250.0,1251,1250.1999998092651,True,u,71499.59999990463,1762.5999999046326,1669830269009,1763,HRV,HRV_0112,2022-11-30 17:49:00
35,"[{'imgObject': {}, 'id': 'luckycharms', 'src': '/static/foodstim60/luckycharms.jpg', 'key': 'u', 'origWidth': 410, 'origHeight': 409, 'width': 410, 'height': 409, 'widthPercent': 0.45, 'rescaleHeight': False, 'trialN': 35, 'loaded': True, 'loadedTime': 3215.899999856949, 'positionName': 'LEFT', 'positionCoords': [511.6, 335.5], 'bid': 0.7000000000000001}, {'imgObject': {}, 'id': 'blueberries', 'src': '/static/foodstim60/blueberries.jpg', 'key': 'i', 'origWidth': 411, 'origHeight': 411, 'width': 411, 'height': 411, 'widthPercent': 0.45, 'rescaleHeight': False, 'trialN': 35, 'loaded': True, 'loadedTime': 3221.0999999046326, 'positionName': 'RIGHT', 'positionCoords': [998.4, 334.5], 'bid': 4.53}]",71499.59999990463,1669830269009,luckycharms,blueberries,0.7000000000000001,4.53,3.83,blueberries,943.2000000476837,943,943.4000000953674,True,i,72958.79999995232,1459.2000000476837,1669830270468,1459,HRV,HRV_0112,2022-11-30 17:49:00
36,"[{'imgObject': {}, 'id': 'chickenfingers', 'src': '/static/foodstim60/chickenfingers.jpg', 'key': 'u', 'origWidth': 410, 'origHeight': 410, 'width': 410, 'height': 410, 'widthPercent': 0.45, 'rescaleHeight': False, 'trialN': 36, 'loaded': True, 'loadedTime': 3157.5999999046326, 'positionName': 'LEFT', 'positionCoords': [511.6, 335], 'bid': 5.41}, {'imgObject': {}, 'id': 'pear', 'src': '/static/foodstim60/pear.jpg', 'key': 'i', 'origWidth': 411, 'origHeight': 410, 'width': 411, 'height': 410, 'widthPercent': 0.45, 'rescaleHeight': False, 'trialN': 36, 'loaded': True, 'loadedTime': 3225.399999856949, 'positionName': 'RIGHT', 'positionCoords': [998.4, 335], 'bid': 5.58}]",72958.89999985695,1669830270468,chickenfingers,pear,5.41,5.58,0.16999999999999993,pear,1748.0,1748,1748.2000000476837,True,i,75219.39999985695,2260.5,1669830272729,2261,HRV,HRV_0112,2022-11-30 17:49:00
37,"[{'imgObject': {}, 'id': 'blueberries', 'src': '/static/foodstim60/blueberries.jpg', 'key': 'u', 'origWidth': 411, 'origHeight': 411, 'width': 411, 'height': 411, 'widthPercent': 0.45, 'rescaleHeight': False, 'trialN': 37, 'loaded': True, 'loadedTime': 3220.5, 'positionName': 'LEFT', 'positionCoords': [510.6, 334.5], 'bid': 4.53}, {'imgObject': {}, 'id': 'chicken nuggets2', 'src': '/static/foodstim60/chicken nuggets2.jpg', 'key': 'i', 'origWidth': 410, 'origHeight': 409, 'width': 410, 'height': 409, 'widthPercent': 0.45, 'rescaleHeight': False, 'trialN': 37, 'loaded': True, 'loadedTime': 3087.0999999046326, 'positionName': 'RIGHT', 'positionCoords': [998.4, 335.5], 'bid': 4.39}]",75219.59999990463,1669830272729,blueberries,chicken nuggets2,4.53,4.39,-0.14000000000000057,blueberries,1415.4000000953674,1416,1415.5,True,u,77151.39999985695,1931.7999999523163,1669830274661,1932,HRV,HRV_0112,2022-11-30 17:49:00
38,"[{'imgObject': {}, 'id': 'baked potato', 'src': '/static/foodstim60/baked potato.jpg', 'key': 'u', 'origWidth': 409, 'origHeight': 410, 'width': 409, 'height': 410, 'widthPercent': 0.45, 'rescaleHeight': False, 'trialN': 38, 'loaded': True, 'loadedTime': 3145.399999856949, 'positionName': 'LEFT', 'positionCoords': [512.6, 335], 'bid': 5.59}, {'imgObject': {}, 'id': 'chicken nuggets2', 'src': '/static/foodstim60/chicken nuggets2.jpg', 'key': 'i', 'origWidth': 410, 'origHeight': 409, 'width': 410, 'height': 409, 'widthPercent': 0.45, 'rescaleHeight': False, 'trialN': 38, 'loaded': True, 'loadedTime': 3087.2999999523163, 'positionName': 'RIGHT', 'positionCoords': [998.4, 335.5], 'bid': 4.39}]",77151.59999990463,1669830274661,baked potato,chicken nuggets2,5.59,4.39,-1.2000000000000002,baked potato,1315.7000000476837,1316,1315.9000000953674,True,u,78984.19999980927,1832.5999999046326,1669830276494,1833,HRV,HRV_0112,2022-11-30 17:49:00
39,"[{'imgObject': {}, 'id': 'strawberries', 'src': '/static/foodstim60/strawberries.jpg', 'key': 'u', 'origWidth': 410, 'origHeight': 410, 'width': 410, 'height': 410, 'widthPercent': 0.45, 'rescaleHeight': False, 'trialN': 39, 'loaded': True, 'loadedTime': 3211.199999809265, 'positionName': 'LEFT', 'positionCoords': [511.6, 335], 'bid': 6.17}, {'imgObject': {}, 'id': 'grilled chicken strips', 'src': '/static/foodstim60/grilled chicken strips.jpg', 'key': 'i', 'origWidth': 410, 'origHeight': 411, 'width': 410, 'height': 411, 'widthPercent': 0.45, 'rescaleHeight': False, 'trialN': 39, 'loaded': True, 'loadedTime': 3128.5999999046326, 'positionName': 'RIGHT', 'positionCoords': [998.4, 334.5], 'bid': 8.370000000000001}]",78984.29999995232,1669830276494,strawberries,grilled chicken strips,6.17,8.370000000000001,2.200000000000001,grilled chicken strips,1874.5,1874,1874.7000000476837,True,i,81368.5,2384.2000000476837,1669830278878,2384,HRV,HRV_0112,2022-11-30 17:49:00
40,"[{'imgObject': {}, 'id': 'eggs', 'src': '/static/foodstim60/eggs.jpg', 'key': 'u', 'origWidth': 409, 'origHeight': 409, 'width': 409, 'height': 409, 'widthPercent': 0.45, 'rescaleHeight': False, 'trialN': 40, 'loaded': True, 'loadedTime': 3105.899999856949, 'positionName': 'LEFT', 'positionCoords': [512.6, 335.5], 'bid': 6.04}, {'imgObject': {}, 'id': 'chickenfingers', 'src': '/static/foodstim60/chickenfingers.jpg', 'key': 'i', 'origWidth': 410, 'origHeight': 410, 'width': 410, 'height': 410, 'widthPercent': 0.45, 'rescaleHeight': False, 'trialN': 40, 'loaded': True, 'loadedTime': 3160.0999999046326, 'positionName': 'RIGHT', 'positionCoords': [998.4, 335], 'bid': 5.41}]",81368.69999980927,1669830278878,eggs,chickenfingers,6.04,5.41,-0.6299999999999999,eggs,1786.1000001430511,1786,1786.4000000953674,True,u,83668.09999990463,2299.4000000953674,1669830281177,2299,HRV,HRV_0112,2022-11-30 17:49:00
41,"[{'imgObject': {}, 'id': 'popsicles', 'src': '/static/foodstim60/popsicles.jpg', 'key': 'u', 'origWidth': 410, 'origHeight': 410, 'width': 410, 'height': 410, 'widthPercent': 0.45, 'rescaleHeight': False, 'trialN': 41, 'loaded': True, 'loadedTime': 3396.899999856949, 'positionName': 'LEFT', 'positionCoords': [511.6, 335], 'bid': 0.8}, {'imgObject': {}, 'id': 'cheerios', 'src': '/static/foodstim60/cheerios.jpg', 'key': 'i', 'origWidth': 409, 'origHeight': 410, 'width': 409, 'height': 410, 'widthPercent': 0.45, 'rescaleHeight': False, 'trialN': 41, 'loaded': True, 'loadedTime': 3061.2999999523163, 'positionName': 'RIGHT', 'positionCoords': [998.4, 335], 'bid': 2.26}]",83668.19999980927,1669830281178,popsicles,cheerios,0.8,2.26,1.4599999999999997,cheerios,774.6000001430511,774,774.8000001907349,True,i,84959.29999995232,1291.1000001430511,1669830282469,1291,HRV,HRV_0112,2022-11-30 17:49:00
42,"[{'imgObject': {}, 'id': 'fruitsalad', 'src': '/static/foodstim60/fruitsalad.jpg', 'key': 'u', 'origWidth': 410, 'origHeight': 410, 'width': 410, 'height': 410, 'widthPercent': 0.45, 'rescaleHeight': False, 'trialN': 42, 'loaded': True, 'loadedTime': 3150.5, 'positionName': 'LEFT', 'positionCoords': [511.6, 335], 'bid': 5.76}, {'imgObject': {}, 'id': 'turkey sandwich', 'src': '/static/foodstim60/turkey sandwich.jpg', 'key': 'i', 'origWidth': 409, 'origHeight': 409, 'width': 409, 'height': 409, 'widthPercent': 0.45, 'rescaleHeight': False, 'trialN': 42, 'loaded': True, 'loadedTime': 3044.2999999523163, 'positionName': 'RIGHT', 'positionCoords': [998.4, 335.5], 'bid': 7.51}]",84959.39999985695,1669830282469,fruitsalad,turkey sandwich,5.76,7.51,1.75,turkey sandwich,1747.5,1747,1747.7000000476837,True,i,87218.29999995232,2258.9000000953674,1669830284728,2259,HRV,HRV_0112,2022-11-30 17:49:00
43,"[{'imgObject': {}, 'id': 'blackbeanswithrice', 'src': '/static/foodstim60/blackbeanswithrice.jpg', 'key': 'u', 'origWidth': 410, 'origHeight': 410, 'width': 410, 'height': 410, 'widthPercent': 0.45, 'rescaleHeight': False, 'trialN': 43, 'loaded': True, 'loadedTime': 3079.899999856949, 'positionName': 'LEFT', 'positionCoords': [511.6, 335], 'bid': 8.14}, {'imgObject': {}, 'id': 'banana', 'src': '/static/foodstim60/banana.jpg', 'key': 'i', 'origWidth': 410, 'origHeight': 410, 'width': 410, 'height': 410, 'widthPercent': 0.45, 'rescaleHeight': False, 'trialN': 43, 'loaded': True, 'loadedTime': 3098.5, 'positionName': 'RIGHT', 'positionCoords': [998.4, 335], 'bid': 6.0600000000000005}]",87218.39999985695,1669830284728,blackbeanswithrice,banana,8.14,6.0600000000000005,-2.08,blackbeanswithrice,904.5,905,904.7999999523163,True,u,88632.39999985695,1414.0,1669830286142,1414,HRV,HRV_0112,2022-11-30 17:49:00
44,"[{'imgObject': {}, 'id': 'raspberries', 'src': '/static/foodstim60/raspberries.jpg', 'key': 'u', 'origWidth': 411, 'origHeight': 411, 'width': 411, 'height': 411, 'widthPercent': 0.45, 'rescaleHeight': False, 'trialN': 44, 'loaded': True, 'loadedTime': 3229.399999856949, 'positionName': 'LEFT', 'positionCoords': [510.6, 334.5], 'bid': 4}, {'imgObject': {}, 'id': 'omelette', 'src': '/static/foodstim60/omelette.jpg', 'key': 'i', 'origWidth': 410, 'origHeight': 409, 'width': 410, 'height': 409, 'widthPercent': 0.45, 'rescaleHeight': False, 'trialN': 44, 'loaded': True, 'loadedTime': 3230.199999809265, 'positionName': 'RIGHT', 'positionCoords': [998.4, 335.5], 'bid': 3.93}]",88632.59999990463,1669830286142,raspberries,omelette,4.0,3.93,-0.06999999999999984,raspberries,1858.0999999046326,1858,1858.2999999523163,True,u,91009.29999995232,2376.7000000476837,1669830288519,2377,HRV,HRV_0112,2022-11-30 17:49:00
45,"[{'imgObject': {}, 'id': 'kiwi', 'src': '/static/foodstim60/kiwi.jpg', 'key': 'u', 'origWidth': 410, 'origHeight': 410, 'width': 410, 'height': 410, 'widthPercent': 0.45, 'rescaleHeight': False, 'trialN': 45, 'loaded': True, 'loadedTime': 3207.699999809265, 'positionName': 'LEFT', 'positionCoords': [511.6, 335], 'bid': 0.36}, {'imgObject': {}, 'id': 'cocktailshrimp', 'src': '/static/foodstim60/cocktailshrimp.jpg', 'key': 'i', 'origWidth': 410, 'origHeight': 410, 'width': 410, 'height': 410, 'widthPercent': 0.45, 'rescaleHeight': False, 'trialN': 45, 'loaded': True, 'loadedTime': 3200.2999999523163, 'positionName': 'RIGHT', 'positionCoords': [998.4, 335], 'bid': 0.08}]",91009.39999985695,1669830288519,kiwi,cocktailshrimp,0.36,0.08,-0.27999999999999997,kiwi,1273.2999999523163,1273,1273.4000000953674,True,u,92801.19999980927,1791.7999999523163,1669830290311,1792,HRV,HRV_0112,2022-11-30 17:49:00
46,"[{'imgObject': {}, 'id': 'cherry tomato', 'src': '/static/foodstim60/cherry tomato.jpg', 'key': 'u', 'origWidth': 410, 'origHeight': 410, 'width': 410, 'height': 410, 'widthPercent': 0.45, 'rescaleHeight': False, 'trialN': 46, 'loaded': True, 'loadedTime': 3145.199999809265, 'positionName': 'LEFT', 'positionCoords': [511.6, 335], 'bid': 6.5600000000000005}, {'imgObject': {}, 'id': 'rigatoni and sauce', 'src': '/static/foodstim60/rigatoni and sauce.jpg', 'key': 'i', 'origWidth': 410, 'origHeight': 411, 'width': 410, 'height': 411, 'widthPercent': 0.45, 'rescaleHeight': False, 'trialN': 46, 'loaded': True, 'loadedTime': 3233.399999856949, 'positionName': 'RIGHT', 'positionCoords': [998.4, 334.5], 'bid': 9.61}]",92801.29999995232,1669830290311,cherry tomato,rigatoni and sauce,6.5600000000000005,9.61,3.049999999999999,rigatoni and sauce,873.5,873,873.5999999046326,True,i,94181.59999990463,1380.2999999523163,1669830291691,1380,HRV,HRV_0112,2022-11-30 17:49:00
47,"[{'imgObject': {}, 'id': 'hashbrowns', 'src': '/static/foodstim60/hashbrowns.jpg', 'key': 'u', 'origWidth': 411, 'origHeight': 410, 'width': 411, 'height': 410, 'widthPercent': 0.45, 'rescaleHeight': False, 'trialN': 47, 'loaded': True, 'loadedTime': 3166.7999999523163, 'positionName': 'LEFT', 'positionCoords': [510.6, 335], 'bid': 3.08}, {'imgObject': {}, 'id': 'chicken nuggets2', 'src': '/static/foodstim60/chicken nuggets2.jpg', 'key': 'i', 'origWidth': 410, 'origHeight': 409, 'width': 410, 'height': 409, 'widthPercent': 0.45, 'rescaleHeight': False, 'trialN': 47, 'loaded': True, 'loadedTime': 3084.899999856949, 'positionName': 'RIGHT', 'positionCoords': [998.4, 335.5], 'bid': 4.39}]",94181.69999980927,1669830291691,hashbrowns,chicken nuggets2,3.08,4.39,1.3099999999999996,chicken nuggets2,1485.0,1485,1485.3000001907349,True,i,96184.79999995232,2003.1000001430511,1669830293694,2003,HRV,HRV_0112,2022-11-30 17:49:00
48,"[{'imgObject': {}, 'id': 'veggieswithdip', 'src': '/static/foodstim60/veggieswithdip.jpg', 'key': 'u', 'origWidth': 409, 'origHeight': 409, 'width': 409, 'height': 409, 'widthPercent': 0.45, 'rescaleHeight': False, 'trialN': 48, 'loaded': True, 'loadedTime': 3233.5, 'positionName': 'LEFT', 'positionCoords': [512.6, 335.5], 'bid': 6.19}, {'imgObject': {}, 'id': 'strawberries', 'src': '/static/foodstim60/strawberries.jpg', 'key': 'i', 'origWidth': 410, 'origHeight': 410, 'width': 410, 'height': 410, 'widthPercent': 0.45, 'rescaleHeight': False, 'trialN': 48, 'loaded': True, 'loadedTime': 3211.399999856949, 'positionName': 'RIGHT', 'positionCoords': [998.4, 335], 'bid': 6.17}]",96185.0,1669830293694,veggieswithdip,strawberries,6.19,6.17,-0.020000000000000462,strawberries,1169.6999998092651,1170,1169.8999998569489,True,i,97865.29999995232,1680.2999999523163,1669830295375,1681,HRV,HRV_0112,2022-11-30 17:49:00
49,"[{'imgObject': {}, 'id': 'cantaloupe', 'src': '/static/foodstim60/cantaloupe.jpg', 'key': 'u', 'origWidth': 409, 'origHeight': 409, 'width': 409, 'height': 409, 'widthPercent': 0.45, 'rescaleHeight': False, 'trialN': 49, 'loaded': True, 'loadedTime': 3091.5999999046326, 'positionName': 'LEFT', 'positionCoords': [512.6, 335.5], 'bid': 0.66}, {'imgObject': {}, 'id': 'burrito', 'src': '/static/foodstim60/burrito.jpg', 'key': 'i', 'origWidth': 410, 'origHeight': 410, 'width': 410, 'height': 410, 'widthPercent': 0.45, 'rescaleHeight': False, 'trialN': 49, 'loaded': True, 'loadedTime': 3235.399999856949, 'positionName': 'RIGHT', 'positionCoords': [998.4, 335], 'bid': 5.8100000000000005}]",97865.39999985695,1669830295375,cantaloupe,burrito,0.66,5.8100000000000005,5.15,burrito,1761.2999999523163,1761,1761.6000001430511,True,i,100135.29999995232,2269.9000000953674,1669830297645,2270,HRV,HRV_0112,2022-11-30 17:49:00
50,"[{'imgObject': {}, 'id': 'sushi w_condiments', 'src': '/static/foodstim60/sushi w_condiments.jpg', 'key': 'u', 'origWidth': 410, 'origHeight': 410, 'width': 410, 'height': 410, 'widthPercent': 0.45, 'rescaleHeight': False, 'trialN': 50, 'loaded': True, 'loadedTime': 3238.399999856949, 'positionName': 'LEFT', 'positionCoords': [511.6, 335], 'bid': 4.98}, {'imgObject': {}, 'id': 'ice cream sundae 002', 'src': '/static/foodstim60/ice cream sundae 002.jpg', 'key': 'i', 'origWidth': 409, 'origHeight': 409, 'width': 409, 'height': 409, 'widthPercent': 0.45, 'rescaleHeight': False, 'trialN': 50, 'loaded': True, 'loadedTime': 3157.399999856949, 'positionName': 'RIGHT', 'positionCoords': [998.4, 335.5], 'bid': 4.98}]",100135.39999985695,1669830297645,sushi w_condiments,ice cream sundae 002,4.98,4.98,0.0,sushi w_condiments,1187.2999999523163,1187,1187.5,True,u,101833.09999990463,1697.7000000476837,1669830299343,1698,HRV,HRV_0112,2022-11-30 17:49:00
51,"[{'imgObject': {}, 'id': 'blackbeanswithrice', 'src': '/static/foodstim60/blackbeanswithrice.jpg', 'key': 'u', 'origWidth': 410, 'origHeight': 410, 'width': 410, 'height': 410, 'widthPercent': 0.45, 'rescaleHeight': False, 'trialN': 51, 'loaded': True, 'loadedTime': 3079, 'positionName': 'LEFT', 'positionCoords': [511.6, 335], 'bid': 8.14}, {'imgObject': {}, 'id': 'cherry tomato', 'src': '/static/foodstim60/cherry tomato.jpg', 'key': 'i', 'origWidth': 410, 'origHeight': 410, 'width': 410, 'height': 410, 'widthPercent': 0.45, 'rescaleHeight': False, 'trialN': 51, 'loaded': True, 'loadedTime': 3144.899999856949, 'positionName': 'RIGHT', 'positionCoords': [998.4, 335], 'bid': 6.5600000000000005}]",101833.19999980927,1669830299343,blackbeanswithrice,cherry tomato,8.14,6.5600000000000005,-1.58,blackbeanswithrice,977.4000000953674,977,977.5,True,u,103317.0,1483.8000001907349,1669830300826,1483,HRV,HRV_0112,2022-11-30 17:49:00
52,"[{'imgObject': {}, 'id': 'roastedpotatoes', 'src': '/static/foodstim60/roastedpotatoes.jpg', 'key': 'u', 'origWidth': 409, 'origHeight': 410, 'width': 409, 'height': 410, 'widthPercent': 0.45, 'rescaleHeight': False, 'trialN': 52, 'loaded': True, 'loadedTime': 3151.7999999523163, 'positionName': 'LEFT', 'positionCoords': [512.6, 335], 'bid': 4.42}, {'imgObject': {}, 'id': 'cherries', 'src': '/static/foodstim60/cherries.jpg', 'key': 'i', 'origWidth': 410, 'origHeight': 411, 'width': 410, 'height': 411, 'widthPercent': 0.45, 'rescaleHeight': False, 'trialN': 52, 'loaded': True, 'loadedTime': 3193.7999999523163, 'positionName': 'RIGHT', 'positionCoords': [998.4, 334.5], 'bid': 4.66}]",103317.09999990463,1669830300827,roastedpotatoes,cherries,4.42,4.66,0.2400000000000002,cherries,1701.5,1701,1701.7000000476837,True,i,105532.59999990463,2215.5,1669830303042,2215,HRV,HRV_0112,2022-11-30 17:49:00
53,"[{'imgObject': {}, 'id': 'eggsalad', 'src': '/static/foodstim60/eggsalad.jpg', 'key': 'u', 'origWidth': 410, 'origHeight': 409, 'width': 410, 'height': 409, 'widthPercent': 0.45, 'rescaleHeight': False, 'trialN': 53, 'loaded': True, 'loadedTime': 3180.5, 'positionName': 'LEFT', 'positionCoords': [511.6, 335.5], 'bid': 6.15}, {'imgObject': {}, 'id': 'Tribe humus pita', 'src': '/static/foodstim60/Tribe humus pita.jpg', 'key': 'i', 'origWidth': 411, 'origHeight': 411, 'width': 411, 'height': 411, 'widthPercent': 0.45, 'rescaleHeight': False, 'trialN': 53, 'loaded': True, 'loadedTime': 3239.699999809265, 'positionName': 'RIGHT', 'positionCoords': [998.4, 334.5], 'bid': 8.17}]",105532.69999980927,1669830303042,eggsalad,Tribe humus pita,6.15,8.17,2.0199999999999996,Tribe humus pita,1382.0,1381,1382.2000000476837,True,i,107433.09999990463,1900.4000000953674,1669830304941,1899,HRV,HRV_0112,2022-11-30 17:49:00
54,"[{'imgObject': {}, 'id': 'luckycharms', 'src': '/static/foodstim60/luckycharms.jpg', 'key': 'u', 'origWidth': 410, 'origHeight': 409, 'width': 410, 'height': 409, 'widthPercent': 0.45, 'rescaleHeight': False, 'trialN': 54, 'loaded': True, 'loadedTime': 3215.899999856949, 'positionName': 'LEFT', 'positionCoords': [511.6, 335.5], 'bid': 0.7000000000000001}, {'imgObject': {}, 'id': 'cantaloupe', 'src': '/static/foodstim60/cantaloupe.jpg', 'key': 'i', 'origWidth': 409, 'origHeight': 409, 'width': 409, 'height': 409, 'widthPercent': 0.45, 'rescaleHeight': False, 'trialN': 54, 'loaded': True, 'loadedTime': 3089.699999809265, 'positionName': 'RIGHT', 'positionCoords': [998.4, 335.5], 'bid': 0.66}]",107433.29999995232,1669830304941,luckycharms,cantaloupe,0.7000000000000001,0.66,-0.040000000000000036,cantaloupe,1673.3999998569489,1674,1673.7999999523163,True,i,109618.5,2185.2000000476837,1669830307127,2186,HRV,HRV_0112,2022-11-30 17:49:00
55,"[{'imgObject': {}, 'id': 'raspberries', 'src': '/static/foodstim60/raspberries.jpg', 'key': 'u', 'origWidth': 411, 'origHeight': 411, 'width': 411, 'height': 411, 'widthPercent': 0.45, 'rescaleHeight': False, 'trialN': 55, 'loaded': True, 'loadedTime': 3229.199999809265, 'positionName': 'LEFT', 'positionCoords': [510.6, 334.5], 'bid': 4}, {'imgObject': {}, 'id': 'luckycharms', 'src': '/static/foodstim60/luckycharms.jpg', 'key': 'i', 'origWidth': 410, 'origHeight': 409, 'width': 410, 'height': 409, 'widthPercent': 0.45, 'rescaleHeight': False, 'trialN': 55, 'loaded': True, 'loadedTime': 3216.0999999046326, 'positionName': 'RIGHT', 'positionCoords': [998.4, 335.5], 'bid': 0.7000000000000001}]",109618.5,1669830307127,raspberries,luckycharms,4.0,0.7000000000000001,-3.3,raspberries,1376.0999999046326,1376,1376.2999999523163,True,u,111514.89999985695,1896.3999998569489,1669830309023,1896,HRV,HRV_0112,2022-11-30 17:49:00
56,"[{'imgObject': {}, 'id': 'banana', 'src': '/static/foodstim60/banana.jpg', 'key': 'u', 'origWidth': 410, 'origHeight': 410, 'width': 410, 'height': 410, 'widthPercent': 0.45, 'rescaleHeight': False, 'trialN': 56, 'loaded': True, 'loadedTime': 3098.399999856949, 'positionName': 'LEFT', 'positionCoords': [511.6, 335], 'bid': 6.0600000000000005}, {'imgObject': {}, 'id': 'orange slices', 'src': '/static/foodstim60/orange slices.jpg', 'key': 'i', 'origWidth': 409, 'origHeight': 410, 'width': 409, 'height': 410, 'widthPercent': 0.45, 'rescaleHeight': False, 'trialN': 56, 'loaded': True, 'loadedTime': 3174, 'positionName': 'RIGHT', 'positionCoords': [998.4, 335], 'bid': 5.97}]",111515.0,1669830309023,banana,orange slices,6.0600000000000005,5.97,-0.09000000000000075,orange slices,983.5,984,983.6999998092651,True,i,113007.09999990463,1492.0999999046326,1669830310515,1492,HRV,HRV_0112,2022-11-30 17:49:00
57,"[{'imgObject': {}, 'id': 'veggieswithdip', 'src': '/static/foodstim60/veggieswithdip.jpg', 'key': 'u', 'origWidth': 409, 'origHeight': 409, 'width': 409, 'height': 409, 'widthPercent': 0.45, 'rescaleHeight': False, 'trialN': 57, 'loaded': True, 'loadedTime': 3234.399999856949, 'positionName': 'LEFT', 'positionCoords': [512.6, 335.5], 'bid': 6.19}, {'imgObject': {}, 'id': 'turkeysandwich', 'src': '/static/foodstim60/turkeysandwich.jpg', 'key': 'i', 'origWidth': 409, 'origHeight': 409, 'width': 409, 'height': 409, 'widthPercent': 0.45, 'rescaleHeight': False, 'trialN': 57, 'loaded': True, 'loadedTime': 3191.0999999046326, 'positionName': 'RIGHT', 'positionCoords': [998.4, 335.5], 'bid': 9.13}]",113007.19999980927,1669830310515,veggieswithdip,turkeysandwich,6.19,9.13,2.9400000000000004,turkeysandwich,1059.4000000953674,1060,1059.6000001430511,True,i,114580.59999990463,1573.4000000953674,1669830312089,1574,HRV,HRV_0112,2022-11-30 17:49:00
58,"[{'imgObject': {}, 'id': 'yogurt no spoon', 'src': '/static/foodstim60/yogurt no spoon.jpg', 'key': 'u', 'origWidth': 411, 'origHeight': 410, 'width': 411, 'height': 410, 'widthPercent': 0.45, 'rescaleHeight': False, 'trialN': 58, 'loaded': True, 'loadedTime': 3114, 'positionName': 'LEFT', 'positionCoords': [510.6, 335], 'bid': 4.94}, {'imgObject': {}, 'id': 'sushi w_condiments', 'src': '/static/foodstim60/sushi w_condiments.jpg', 'key': 'i', 'origWidth': 410, 'origHeight': 410, 'width': 410, 'height': 410, 'widthPercent': 0.45, 'rescaleHeight': False, 'trialN': 58, 'loaded': True, 'loadedTime': 3236.2999999523163, 'positionName': 'RIGHT', 'positionCoords': [998.4, 335], 'bid': 4.98}]",114580.79999995232,1669830312089,yogurt no spoon,sushi w_condiments,4.94,4.98,0.040000000000000036,sushi w_condiments,1669.8999998569489,1670,1670.0999999046326,True,i,116766.09999990463,2185.2999999523163,1669830314274,2185,HRV,HRV_0112,2022-11-30 17:49:00
59,"[{'imgObject': {}, 'id': 'cherry tomato', 'src': '/static/foodstim60/cherry tomato.jpg', 'key': 'u', 'origWidth': 410, 'origHeight': 410, 'width': 410, 'height': 410, 'widthPercent': 0.45, 'rescaleHeight': False, 'trialN': 59, 'loaded': True, 'loadedTime': 3144.199999809265, 'positionName': 'LEFT', 'positionCoords': [511.6, 335], 'bid': 6.5600000000000005}, {'imgObject': {}, 'id': 'olives', 'src': '/static/foodstim60/olives.jpg', 'key': 'i', 'origWidth': 410, 'origHeight': 410, 'width': 410, 'height': 410, 'widthPercent': 0.45, 'rescaleHeight': False, 'trialN': 59, 'loaded': True, 'loadedTime': 3095.399999856949, 'positionName': 'RIGHT', 'positionCoords': [998.4, 335], 'bid': 6.59}]",116766.29999995232,1669830314274,cherry tomato,olives,6.5600000000000005,6.59,0.02999999999999936,olives,1500.7000000476837,1501,1500.7999999523163,True,i,118784.19999980927,2017.8999998569489,1669830316292,2018,HRV,HRV_0112,2022-11-30 17:49:00
60,"[{'imgObject': {}, 'id': 'fried eggs', 'src': '/static/foodstim60/fried eggs.jpg', 'key': 'u', 'origWidth': 410, 'origHeight': 410, 'width': 410, 'height': 410, 'widthPercent': 0.45, 'rescaleHeight': False, 'trialN': 60, 'loaded': True, 'loadedTime': 3119, 'positionName': 'LEFT', 'positionCoords': [511.6, 335], 'bid': 7.51}, {'imgObject': {}, 'id': 'burrito', 'src': '/static/foodstim60/burrito.jpg', 'key': 'i', 'origWidth': 410, 'origHeight': 410, 'width': 410, 'height': 410, 'widthPercent': 0.45, 'rescaleHeight': False, 'trialN': 60, 'loaded': True, 'loadedTime': 3235.399999856949, 'positionName': 'RIGHT', 'positionCoords': [998.4, 335], 'bid': 5.8100000000000005}]",118784.5,1669830316293,fried eggs,burrito,7.51,5.8100000000000005,-1.6999999999999993,fried eggs,1250.0999999046326,1250,1250.2999999523163,True,u,120548.0,1763.5,1669830318056,1763,HRV,HRV_0112,2022-11-30 17:49:00
61,"[{'imgObject': {}, 'id': 'orange slices', 'src': '/static/foodstim60/orange slices.jpg', 'key': 'u', 'origWidth': 409, 'origHeight': 410, 'width': 409, 'height': 410, 'widthPercent': 0.45, 'rescaleHeight': False, 'trialN': 61, 'loaded': True, 'loadedTime': 3174.7999999523163, 'positionName': 'LEFT', 'positionCoords': [512.6, 335], 'bid': 5.97}, {'imgObject': {}, 'id': 'mac & cheese', 'src': '/static/foodstim60/mac & cheese.jpg', 'key': 'i', 'origWidth': 410, 'origHeight': 410, 'width': 410, 'height': 410, 'widthPercent': 0.45, 'rescaleHeight': False, 'trialN': 61, 'loaded': True, 'loadedTime': 3171.199999809265, 'positionName': 'RIGHT', 'positionCoords': [998.4, 335], 'bid': 7.83}]",120548.09999990463,1669830318056,orange slices,mac & cheese,5.97,7.83,1.8600000000000003,mac & cheese,1086.4000000953674,1087,1086.7000000476837,True,i,122146.09999990463,1598.0,1669830319654,1598,HRV,HRV_0112,2022-11-30 17:49:00
62,"[{'imgObject': {}, 'id': 'ice cream sundae 002', 'src': '/static/foodstim60/ice cream sundae 002.jpg', 'key': 'u', 'origWidth': 409, 'origHeight': 409, 'width': 409, 'height': 409, 'widthPercent': 0.45, 'rescaleHeight': False, 'trialN': 62, 'loaded': True, 'loadedTime': 3155.0999999046326, 'positionName': 'LEFT', 'positionCoords': [512.6, 335.5], 'bid': 4.98}, {'imgObject': {}, 'id': 'apple slices', 'src': '/static/foodstim60/apple slices.jpg', 'key': 'i', 'origWidth': 409, 'origHeight': 410, 'width': 409, 'height': 410, 'widthPercent': 0.45, 'rescaleHeight': False, 'trialN': 62, 'loaded': True, 'loadedTime': 3197.199999809265, 'positionName': 'RIGHT', 'positionCoords': [998.4, 335], 'bid': 5.72}]",122146.19999980927,1669830319654,ice cream sundae 002,apple slices,4.98,5.72,0.7399999999999993,apple slices,1224.4000000953674,1225,1224.7000000476837,True,i,123880.69999980927,1734.5,1669830321389,1735,HRV,HRV_0112,2022-11-30 17:49:00
63,"[{'imgObject': {}, 'id': 'rigatoni and sauce', 'src': '/static/foodstim60/rigatoni and sauce.jpg', 'key': 'u', 'origWidth': 410, 'origHeight': 411, 'width': 410, 'height': 411, 'widthPercent': 0.45, 'rescaleHeight': False, 'trialN': 63, 'loaded': True, 'loadedTime': 3233.2999999523163, 'positionName': 'LEFT', 'positionCoords': [511.6, 334.5], 'bid': 9.61}, {'imgObject': {}, 'id': 'grilled chicken strips', 'src': '/static/foodstim60/grilled chicken strips.jpg', 'key': 'i', 'origWidth': 410, 'origHeight': 411, 'width': 410, 'height': 411, 'widthPercent': 0.45, 'rescaleHeight': False, 'trialN': 63, 'loaded': True, 'loadedTime': 3125.399999856949, 'positionName': 'RIGHT', 'positionCoords': [998.4, 334.5], 'bid': 8.370000000000001}]",123880.79999995232,1669830321389,rigatoni and sauce,grilled chicken strips,9.61,8.370000000000001,-1.2399999999999984,rigatoni and sauce,841.7000000476837,842,841.8999998569489,True,u,125234.59999990463,1353.7999999523163,1669830322743,1354,HRV,HRV_0112,2022-11-30 17:49:00
64,"[{'imgObject': {}, 'id': 'rigatoni', 'src': '/static/foodstim60/rigatoni.jpg', 'key': 'u', 'origWidth': 411, 'origHeight': 411, 'width': 411, 'height': 411, 'widthPercent': 0.45, 'rescaleHeight': False, 'trialN': 64, 'loaded': True, 'loadedTime': 3123.199999809265, 'positionName': 'LEFT', 'positionCoords': [510.6, 334.5], 'bid': 4.97}, {'imgObject': {}, 'id': 'ice cream sundae 002', 'src': '/static/foodstim60/ice cream sundae 002.jpg', 'key': 'i', 'origWidth': 409, 'origHeight': 409, 'width': 409, 'height': 409, 'widthPercent': 0.45, 'rescaleHeight': False, 'trialN': 64, 'loaded': True, 'loadedTime': 3154.399999856949, 'positionName': 'RIGHT', 'positionCoords': [998.4, 335.5], 'bid': 4.98}]",125234.69999980927,1669830322743,rigatoni,ice cream sundae 002,4.97,4.98,0.010000000000000675,rigatoni,1519.8000001907349,1520,1520.0,True,u,127266.29999995232,2031.6000001430511,1669830324774,2031,HRV,HRV_0112,2022-11-30 17:49:00
65,"[{'imgObject': {}, 'id': 'cherries', 'src': '/static/foodstim60/cherries.jpg', 'key': 'u', 'origWidth': 410, 'origHeight': 411, 'width': 410, 'height': 411, 'widthPercent': 0.45, 'rescaleHeight': False, 'trialN': 65, 'loaded': True, 'loadedTime': 3194.0999999046326, 'positionName': 'LEFT', 'positionCoords': [511.6, 334.5], 'bid': 4.66}, {'imgObject': {}, 'id': 'raspberries', 'src': '/static/foodstim60/raspberries.jpg', 'key': 'i', 'origWidth': 411, 'origHeight': 411, 'width': 411, 'height': 411, 'widthPercent': 0.45, 'rescaleHeight': False, 'trialN': 65, 'loaded': True, 'loadedTime': 3229, 'positionName': 'RIGHT', 'positionCoords': [998.4, 334.5], 'bid': 4}]",127266.29999995232,1669830324774,cherries,raspberries,4.66,4.0,-0.6600000000000001,cherries,960.2999999523163,961,960.3999998569489,True,u,128735.0,1468.7000000476837,1669830326243,1469,HRV,HRV_0112,2022-11-30 17:49:00
66,"[{'imgObject': {}, 'id': 'corn cob', 'src': '/static/foodstim60/corn cob.jpg', 'key': 'u', 'origWidth': 411, 'origHeight': 411, 'width': 411, 'height': 411, 'widthPercent': 0.45, 'rescaleHeight': False, 'trialN': 66, 'loaded': True, 'loadedTime': 3137.199999809265, 'positionName': 'LEFT', 'positionCoords': [510.6, 334.5], 'bid': 5.68}, {'imgObject': {}, 'id': 'sushi w_condiments', 'src': '/static/foodstim60/sushi w_condiments.jpg', 'key': 'i', 'origWidth': 410, 'origHeight': 410, 'width': 410, 'height': 410, 'widthPercent': 0.45, 'rescaleHeight': False, 'trialN': 66, 'loaded': True, 'loadedTime': 3236.199999809265, 'positionName': 'RIGHT', 'positionCoords': [998.4, 335], 'bid': 4.98}]",128735.19999980927,1669830326243,corn cob,sushi w_condiments,5.68,4.98,-0.6999999999999993,sushi w_condiments,1299.2000000476837,1300,1299.4000000953674,True,i,130546.5,1811.3000001907349,1669830328055,1812,HRV,HRV_0112,2022-11-30 17:49:00
67,"[{'imgObject': {}, 'id': 'chickenfingers', 'src': '/static/foodstim60/chickenfingers.jpg', 'key': 'u', 'origWidth': 410, 'origHeight': 410, 'width': 410, 'height': 410, 'widthPercent': 0.45, 'rescaleHeight': False, 'trialN': 67, 'loaded': True, 'loadedTime': 3160.199999809265, 'positionName': 'LEFT', 'positionCoords': [511.6, 335], 'bid': 5.41}, {'imgObject': {}, 'id': 'raisin bran w milk', 'src': '/static/foodstim60/raisin bran w milk.jpg', 'key': 'i', 'origWidth': 411, 'origHeight': 411, 'width': 411, 'height': 411, 'widthPercent': 0.45, 'rescaleHeight': False, 'trialN': 67, 'loaded': True, 'loadedTime': 3240.699999809265, 'positionName': 'RIGHT', 'positionCoords': [998.4, 334.5], 'bid': 2.9}]",130546.59999990463,1669830328055,chickenfingers,raisin bran w milk,5.41,2.9,-2.5100000000000002,raisin bran w milk,1816.0,1816,1816.2999999523163,True,i,132880.5,2333.9000000953674,1669830330389,2334,HRV,HRV_0112,2022-11-30 17:49:00
68,"[{'imgObject': {}, 'id': 'turkey sandwich', 'src': '/static/foodstim60/turkey sandwich.jpg', 'key': 'u', 'origWidth': 409, 'origHeight': 409, 'width': 409, 'height': 409, 'widthPercent': 0.45, 'rescaleHeight': False, 'trialN': 68, 'loaded': True, 'loadedTime': 3043.5999999046326, 'positionName': 'LEFT', 'positionCoords': [512.6, 335.5], 'bid': 7.51}, {'imgObject': {}, 'id': 'rigatoni and sauce', 'src': '/static/foodstim60/rigatoni and sauce.jpg', 'key': 'i', 'origWidth': 410, 'origHeight': 411, 'width': 410, 'height': 411, 'widthPercent': 0.45, 'rescaleHeight': False, 'trialN': 68, 'loaded': True, 'loadedTime': 3233.399999856949, 'positionName': 'RIGHT', 'positionCoords': [998.4, 334.5], 'bid': 9.61}]",132880.59999990463,1669830330389,turkey sandwich,rigatoni and sauce,7.51,9.61,2.0999999999999996,rigatoni and sauce,873.7999999523163,874,874.0999999046326,True,i,134266.29999995232,1385.7000000476837,1669830331774,1385,HRV,HRV_0112,2022-11-30 17:49:00
69,"[{'imgObject': {}, 'id': 'veggieswithdip', 'src': '/static/foodstim60/veggieswithdip.jpg', 'key': 'u', 'origWidth': 409, 'origHeight': 409, 'width': 409, 'height': 409, 'widthPercent': 0.45, 'rescaleHeight': False, 'trialN': 69, 'loaded': True, 'loadedTime': 3234.5, 'positionName': 'LEFT', 'positionCoords': [512.6, 335.5], 'bid': 6.19}, {'imgObject': {}, 'id': 'steak', 'src': '/static/foodstim60/steak.jpg', 'key': 'i', 'origWidth': 410, 'origHeight': 410, 'width': 410, 'height': 410, 'widthPercent': 0.45, 'rescaleHeight': False, 'trialN': 69, 'loaded': True, 'loadedTime': 3188.2999999523163, 'positionName': 'RIGHT', 'positionCoords': [998.4, 335], 'bid': 7.890000000000001}]",134266.29999995232,1669830331774,veggieswithdip,steak,6.19,7.890000000000001,1.7000000000000002,steak,1048.0999999046326,1049,1048.2999999523163,True,i,135831.89999985695,1565.5999999046326,1669830333340,1566,HRV,HRV_0112,2022-11-30 17:49:00
70,"[{'imgObject': {}, 'id': 'turkey sandwich', 'src': '/static/foodstim60/turkey sandwich.jpg', 'key': 'u', 'origWidth': 409, 'origHeight': 409, 'width': 409, 'height': 409, 'widthPercent': 0.45, 'rescaleHeight': False, 'trialN': 70, 'loaded': True, 'loadedTime': 2987.5999999046326, 'positionName': 'LEFT', 'positionCoords': [512.6, 335.5], 'bid': 7.51}, {'imgObject': {}, 'id': 'avocado', 'src': '/static/foodstim60/avocado.jpg', 'key': 'i', 'origWidth': 409, 'origHeight': 409, 'width': 409, 'height': 409, 'widthPercent': 0.45, 'rescaleHeight': False, 'trialN': 70, 'loaded': True, 'loadedTime': 3241.7999999523163, 'positionName': 'RIGHT', 'positionCoords': [998.4, 335.5], 'bid': 4.38}]",135832.09999990463,1669830333340,turkey sandwich,avocado,7.51,4.38,-3.13,turkey sandwich,1098.2999999523163,1099,1098.5999999046326,True,u,137448.5,1616.4000000953674,1669830334957,1617,HRV,HRV_0112,2022-11-30 17:49:00
71,"[{'imgObject': {}, 'id': 'lox', 'src': '/static/foodstim60/lox.jpg', 'key': 'u', 'origWidth': 410, 'origHeight': 411, 'width': 410, 'height': 411, 'widthPercent': 0.45, 'rescaleHeight': False, 'trialN': 71, 'loaded': True, 'loadedTime': 3134.199999809265, 'positionName': 'LEFT', 'positionCoords': [511.6, 334.5], 'bid': 0.68}, {'imgObject': {}, 'id': 'Grapes', 'src': '/static/foodstim60/Grapes.jpg', 'key': 'i', 'origWidth': 411, 'origHeight': 411, 'width': 411, 'height': 411, 'widthPercent': 0.45, 'rescaleHeight': False, 'trialN': 71, 'loaded': True, 'loadedTime': 3245.399999856949, 'positionName': 'RIGHT', 'positionCoords': [998.4, 334.5], 'bid': 5.9}]",137448.89999985695,1669830334957,lox,Grapes,0.68,5.9,5.220000000000001,Grapes,1001.6000001430511,1002,1001.7000000476837,True,i,138960.29999995232,1511.4000000953674,1669830336468,1511,HRV,HRV_0112,2022-11-30 17:49:00
72,"[{'imgObject': {}, 'id': 'rigatoni', 'src': '/static/foodstim60/rigatoni.jpg', 'key': 'u', 'origWidth': 411, 'origHeight': 411, 'width': 411, 'height': 411, 'widthPercent': 0.45, 'rescaleHeight': False, 'trialN': 72, 'loaded': True, 'loadedTime': 3125.0999999046326, 'positionName': 'LEFT', 'positionCoords': [510.6, 334.5], 'bid': 4.97}, {'imgObject': {}, 'id': 'yogurt no spoon', 'src': '/static/foodstim60/yogurt no spoon.jpg', 'key': 'i', 'origWidth': 411, 'origHeight': 410, 'width': 411, 'height': 410, 'widthPercent': 0.45, 'rescaleHeight': False, 'trialN': 72, 'loaded': True, 'loadedTime': 3117, 'positionName': 'RIGHT', 'positionCoords': [998.4, 335], 'bid': 4.94}]",138960.39999985695,1669830336469,rigatoni,yogurt no spoon,4.97,4.94,-0.02999999999999936,rigatoni,1298.0,1298,1298.2999999523163,True,u,140768.5,1808.1000001430511,1669830338277,1808,HRV,HRV_0112,2022-11-30 17:49:00
73,"[{'imgObject': {}, 'id': 'burrito', 'src': '/static/foodstim60/burrito.jpg', 'key': 'u', 'origWidth': 410, 'origHeight': 410, 'width': 410, 'height': 410, 'widthPercent': 0.45, 'rescaleHeight': False, 'trialN': 73, 'loaded': True, 'loadedTime': 3234.5, 'positionName': 'LEFT', 'positionCoords': [511.6, 335], 'bid': 5.8100000000000005}, {'imgObject': {}, 'id': 'apple slices', 'src': '/static/foodstim60/apple slices.jpg', 'key': 'i', 'origWidth': 409, 'origHeight': 410, 'width': 409, 'height': 410, 'widthPercent': 0.45, 'rescaleHeight': False, 'trialN': 73, 'loaded': True, 'loadedTime': 3199.899999856949, 'positionName': 'RIGHT', 'positionCoords': [998.4, 335], 'bid': 5.72}]",140768.69999980927,1669830338277,burrito,apple slices,5.8100000000000005,5.72,-0.09000000000000075,apple slices,1721.7000000476837,1722,1721.8000001907349,True,i,143006.89999985695,2238.2000000476837,1669830340515,2238,HRV,HRV_0112,2022-11-30 17:49:00
74,"[{'imgObject': {}, 'id': 'seaweed', 'src': '/static/foodstim60/seaweed.jpg', 'key': 'u', 'origWidth': 410, 'origHeight': 410, 'width': 410, 'height': 410, 'widthPercent': 0.45, 'rescaleHeight': False, 'trialN': 74, 'loaded': True, 'loadedTime': 3246.699999809265, 'positionName': 'LEFT', 'positionCoords': [511.6, 335], 'bid': 0.08}, {'imgObject': {}, 'id': 'froot loops w milk', 'src': '/static/foodstim60/froot loops w milk.jpg', 'key': 'i', 'origWidth': 410, 'origHeight': 410, 'width': 410, 'height': 410, 'widthPercent': 0.45, 'rescaleHeight': False, 'trialN': 74, 'loaded': True, 'loadedTime': 3163.899999856949, 'positionName': 'RIGHT', 'positionCoords': [998.4, 335], 'bid': 2.44}]",143007.0,1669830340515,seaweed,froot loops w milk,0.08,2.44,2.36,froot loops w milk,931.3999998569489,932,931.6999998092651,True,i,144448.89999985695,1441.8999998569489,1669830341957,1442,HRV,HRV_0112,2022-11-30 17:49:00
75,"[{'imgObject': {}, 'id': 'raspberries', 'src': '/static/foodstim60/raspberries.jpg', 'key': 'u', 'origWidth': 411, 'origHeight': 411, 'width': 411, 'height': 411, 'widthPercent': 0.45, 'rescaleHeight': False, 'trialN': 75, 'loaded': True, 'loadedTime': 3229.2999999523163, 'positionName': 'LEFT', 'positionCoords': [510.6, 334.5], 'bid': 4}, {'imgObject': {}, 'id': 'tacos', 'src': '/static/foodstim60/tacos.jpg', 'key': 'i', 'origWidth': 411, 'origHeight': 411, 'width': 411, 'height': 411, 'widthPercent': 0.45, 'rescaleHeight': False, 'trialN': 75, 'loaded': True, 'loadedTime': 3179.5, 'positionName': 'RIGHT', 'positionCoords': [998.4, 334.5], 'bid': 6.83}]",144449.19999980927,1669830341957,raspberries,tacos,4.0,6.83,2.83,tacos,1921.2000000476837,1922,1921.5,True,i,146881.09999990463,2431.9000000953674,1669830344389,2432,HRV,HRV_0112,2022-11-30 17:49:00
76,"[{'imgObject': {}, 'id': 'blackbeanswithrice', 'src': '/static/foodstim60/blackbeanswithrice.jpg', 'key': 'u', 'origWidth': 410, 'origHeight': 410, 'width': 410, 'height': 410, 'widthPercent': 0.45, 'rescaleHeight': False, 'trialN': 76, 'loaded': True, 'loadedTime': 3082.199999809265, 'positionName': 'LEFT', 'positionCoords': [511.6, 335], 'bid': 8.14}, {'imgObject': {}, 'id': 'mac & cheese', 'src': '/static/foodstim60/mac & cheese.jpg', 'key': 'i', 'origWidth': 410, 'origHeight': 410, 'width': 410, 'height': 410, 'widthPercent': 0.45, 'rescaleHeight': False, 'trialN': 76, 'loaded': True, 'loadedTime': 3170.399999856949, 'positionName': 'RIGHT', 'positionCoords': [998.4, 335], 'bid': 7.83}]",146881.19999980927,1669830344389,blackbeanswithrice,mac & cheese,8.14,7.83,-0.3100000000000005,blackbeanswithrice,993.0,994,993.2000000476837,True,u,148396.89999985695,1515.7000000476837,1669830345905,1516,HRV,HRV_0112,2022-11-30 17:49:00
77,"[{'imgObject': {}, 'id': 'steak', 'src': '/static/foodstim60/steak.jpg', 'key': 'u', 'origWidth': 410, 'origHeight': 410, 'width': 410, 'height': 410, 'widthPercent': 0.45, 'rescaleHeight': False, 'trialN': 77, 'loaded': True, 'loadedTime': 3188.199999809265, 'positionName': 'LEFT', 'positionCoords': [511.6, 335], 'bid': 7.890000000000001}, {'imgObject': {}, 'id': 'mac & cheese', 'src': '/static/foodstim60/mac & cheese.jpg', 'key': 'i', 'origWidth': 410, 'origHeight': 410, 'width': 410, 'height': 410, 'widthPercent': 0.45, 'rescaleHeight': False, 'trialN': 77, 'loaded': True, 'loadedTime': 3173.899999856949, 'positionName': 'RIGHT', 'positionCoords': [998.4, 335], 'bid': 7.83}]",148396.89999985695,1669830345905,steak,mac & cheese,7.890000000000001,7.83,-0.0600000000000005,steak,2637.4000000953674,2638,2637.600000143051,True,u,151544.5,3147.600000143051,1669830349053,3148,HRV,HRV_0112,2022-11-30 17:49:00
78,"[{'imgObject': {}, 'id': 'raspberries', 'src': '/static/foodstim60/raspberries.jpg', 'key': 'u', 'origWidth': 411, 'origHeight': 411, 'width': 411, 'height': 411, 'widthPercent': 0.45, 'rescaleHeight': False, 'trialN': 78, 'loaded': True, 'loadedTime': 3225.899999856949, 'positionName': 'LEFT', 'positionCoords': [510.6, 334.5], 'bid': 4}, {'imgObject': {}, 'id': 'seaweed', 'src': '/static/foodstim60/seaweed.jpg', 'key': 'i', 'origWidth': 410, 'origHeight': 410, 'width': 410, 'height': 410, 'widthPercent': 0.45, 'rescaleHeight': False, 'trialN': 78, 'loaded': True, 'loadedTime': 3245.5999999046326, 'positionName': 'RIGHT', 'positionCoords': [998.4, 335], 'bid': 0.08}]",151544.5,1669830349053,raspberries,seaweed,4.0,0.08,-3.92,raspberries,857.8999998569489,858,858.0999999046326,True,u,152910.29999995232,1365.7999999523163,1669830350418,1365,HRV,HRV_0112,2022-11-30 17:49:00
79,"[{'imgObject': {}, 'id': 'salmon', 'src': '/static/foodstim60/salmon.jpg', 'key': 'u', 'origWidth': 410, 'origHeight': 409, 'width': 410, 'height': 409, 'widthPercent': 0.45, 'rescaleHeight': False, 'trialN': 79, 'loaded': True, 'loadedTime': 3246.699999809265, 'positionName': 'LEFT', 'positionCoords': [511.6, 335.5], 'bid': 4.14}, {'imgObject': {}, 'id': 'salad w chicken', 'src': '/static/foodstim60/salad w chicken.jpg', 'key': 'i', 'origWidth': 411, 'origHeight': 411, 'width': 411, 'height': 411, 'widthPercent': 0.45, 'rescaleHeight': False, 'trialN': 79, 'loaded': True, 'loadedTime': 3073.7999999523163, 'positionName': 'RIGHT', 'positionCoords': [998.4, 334.5], 'bid': 7.04}]",152910.39999985695,1669830350419,salmon,salad w chicken,4.14,7.04,2.9000000000000004,salad w chicken,1260.2000000476837,1260,1260.4000000953674,True,i,154680.5,1770.1000001430511,1669830352189,1770,HRV,HRV_0112,2022-11-30 17:49:00
80,"[{'imgObject': {}, 'id': 'raisin bran w milk', 'src': '/static/foodstim60/raisin bran w milk.jpg', 'key': 'u', 'origWidth': 411, 'origHeight': 411, 'width': 411, 'height': 411, 'widthPercent': 0.45, 'rescaleHeight': False, 'trialN': 80, 'loaded': True, 'loadedTime': 3239.7999999523163, 'positionName': 'LEFT', 'positionCoords': [510.6, 334.5], 'bid': 2.9}, {'imgObject': {}, 'id': 'avocado', 'src': '/static/foodstim60/avocado.jpg', 'key': 'i', 'origWidth': 409, 'origHeight': 409, 'width': 409, 'height': 409, 'widthPercent': 0.45, 'rescaleHeight': False, 'trialN': 80, 'loaded': True, 'loadedTime': 3240.7999999523163, 'positionName': 'RIGHT', 'positionCoords': [998.4, 335.5], 'bid': 4.38}]",154680.5,1669830352189,raisin bran w milk,avocado,2.9,4.38,1.48,raisin bran w milk,865.6999998092651,865,865.8999998569489,True,u,156053.69999980927,1373.1999998092651,1669830353562,1373,HRV,HRV_0112,2022-11-30 17:49:00
81,"[{'imgObject': {}, 'id': 'Tribe humus pita', 'src': '/static/foodstim60/Tribe humus pita.jpg', 'key': 'u', 'origWidth': 411, 'origHeight': 411, 'width': 411, 'height': 411, 'widthPercent': 0.45, 'rescaleHeight': False, 'trialN': 81, 'loaded': True, 'loadedTime': 3239.7999999523163, 'positionName': 'LEFT', 'positionCoords': [510.6, 334.5], 'bid': 8.17}, {'imgObject': {}, 'id': 'fried eggs', 'src': '/static/foodstim60/fried eggs.jpg', 'key': 'i', 'origWidth': 410, 'origHeight': 410, 'width': 410, 'height': 410, 'widthPercent': 0.45, 'rescaleHeight': False, 'trialN': 81, 'loaded': True, 'loadedTime': 3122.2999999523163, 'positionName': 'RIGHT', 'positionCoords': [998.4, 335], 'bid': 7.51}]",156053.89999985695,1669830353562,Tribe humus pita,fried eggs,8.17,7.51,-0.6600000000000001,Tribe humus pita,1180.2999999523163,1181,1180.6000001430511,True,u,157752.29999995232,1698.4000000953674,1669830355260,1698,HRV,HRV_0112,2022-11-30 17:49:00
82,"[{'imgObject': {}, 'id': 'luckycharms', 'src': '/static/foodstim60/luckycharms.jpg', 'key': 'u', 'origWidth': 410, 'origHeight': 409, 'width': 410, 'height': 409, 'widthPercent': 0.45, 'rescaleHeight': False, 'trialN': 82, 'loaded': True, 'loadedTime': 3216.0999999046326, 'positionName': 'LEFT', 'positionCoords': [511.6, 335.5], 'bid': 0.7000000000000001}, {'imgObject': {}, 'id': 'orange slices', 'src': '/static/foodstim60/orange slices.jpg', 'key': 'i', 'origWidth': 409, 'origHeight': 410, 'width': 409, 'height': 410, 'widthPercent': 0.45, 'rescaleHeight': False, 'trialN': 82, 'loaded': True, 'loadedTime': 3176.7999999523163, 'positionName': 'RIGHT', 'positionCoords': [998.4, 335], 'bid': 5.97}]",157752.39999985695,1669830355260,luckycharms,orange slices,0.7000000000000001,5.97,5.27,orange slices,785.7999999523163,787,786.1000001430511,True,i,159056.0,1303.6000001430511,1669830356564,1304,HRV,HRV_0112,2022-11-30 17:49:00
83,"[{'imgObject': {}, 'id': 'sushi w_condiments', 'src': '/static/foodstim60/sushi w_condiments.jpg', 'key': 'u', 'origWidth': 410, 'origHeight': 410, 'width': 410, 'height': 410, 'widthPercent': 0.45, 'rescaleHeight': False, 'trialN': 83, 'loaded': True, 'loadedTime': 3235.5, 'positionName': 'LEFT', 'positionCoords': [511.6, 335], 'bid': 4.98}, {'imgObject': {}, 'id': 'granola w milk', 'src': '/static/foodstim60/granola w milk.jpg', 'key': 'i', 'origWidth': 410, 'origHeight': 410, 'width': 410, 'height': 410, 'widthPercent': 0.45, 'rescaleHeight': False, 'trialN': 83, 'loaded': True, 'loadedTime': 3183.2999999523163, 'positionName': 'RIGHT', 'positionCoords': [998.4, 335], 'bid': 2.29}]",159056.09999990463,1669830356564,sushi w_condiments,granola w milk,4.98,2.29,-2.6900000000000004,sushi w_condiments,754.2000000476837,755,754.4000000953674,True,u,160318.29999995232,1262.2000000476837,1669830357826,1262,HRV,HRV_0112,2022-11-30 17:49:00
84,"[{'imgObject': {}, 'id': 'pear', 'src': '/static/foodstim60/pear.jpg', 'key': 'u', 'origWidth': 411, 'origHeight': 410, 'width': 411, 'height': 410, 'widthPercent': 0.45, 'rescaleHeight': False, 'trialN': 84, 'loaded': True, 'loadedTime': 3225.5999999046326, 'positionName': 'LEFT', 'positionCoords': [510.6, 335], 'bid': 5.58}, {'imgObject': {}, 'id': 'burrito', 'src': '/static/foodstim60/burrito.jpg', 'key': 'i', 'origWidth': 410, 'origHeight': 410, 'width': 410, 'height': 410, 'widthPercent': 0.45, 'rescaleHeight': False, 'trialN': 84, 'loaded': True, 'loadedTime': 3235.2999999523163, 'positionName': 'RIGHT', 'positionCoords': [998.4, 335], 'bid': 5.8100000000000005}]",160318.39999985695,1669830357826,pear,burrito,5.58,5.8100000000000005,0.23000000000000043,pear,1635.9000000953674,1637,1636.1000001430511,True,u,162463.79999995232,2145.4000000953674,1669830359972,2146,HRV,HRV_0112,2022-11-30 17:49:00
85,"[{'imgObject': {}, 'id': 'shreddedwheatwithmilk', 'src': '/static/foodstim60/shreddedwheatwithmilk.jpg', 'key': 'u', 'origWidth': 410, 'origHeight': 410, 'width': 410, 'height': 410, 'widthPercent': 0.45, 'rescaleHeight': False, 'trialN': 85, 'loaded': True, 'loadedTime': 3219.5, 'positionName': 'LEFT', 'positionCoords': [511.6, 335], 'bid': 3.42}, {'imgObject': {}, 'id': 'raisin bran w milk', 'src': '/static/foodstim60/raisin bran w milk.jpg', 'key': 'i', 'origWidth': 411, 'origHeight': 411, 'width': 411, 'height': 411, 'widthPercent': 0.45, 'rescaleHeight': False, 'trialN': 85, 'loaded': True, 'loadedTime': 3240.7999999523163, 'positionName': 'RIGHT', 'positionCoords': [998.4, 334.5], 'bid': 2.9}]",162463.89999985695,1669830359972,shreddedwheatwithmilk,raisin bran w milk,3.42,2.9,-0.52,shreddedwheatwithmilk,850.2999999523163,850,850.4000000953674,True,u,163831.5,1367.6000001430511,1669830361340,1368,HRV,HRV_0112,2022-11-30 17:49:00
86,"[{'imgObject': {}, 'id': 'banana', 'src': '/static/foodstim60/banana.jpg', 'key': 'u', 'origWidth': 410, 'origHeight': 410, 'width': 410, 'height': 410, 'widthPercent': 0.45, 'rescaleHeight': False, 'trialN': 86, 'loaded': True, 'loadedTime': 3100.899999856949, 'positionName': 'LEFT', 'positionCoords': [511.6, 335], 'bid': 6.0600000000000005}, {'imgObject': {}, 'id': 'eggs', 'src': '/static/foodstim60/eggs.jpg', 'key': 'i', 'origWidth': 409, 'origHeight': 409, 'width': 409, 'height': 409, 'widthPercent': 0.45, 'rescaleHeight': False, 'trialN': 86, 'loaded': True, 'loadedTime': 3108.199999809265, 'positionName': 'RIGHT', 'positionCoords': [998.4, 335.5], 'bid': 6.04}]",163831.59999990463,1669830361340,banana,eggs,6.0600000000000005,6.04,-0.020000000000000462,eggs,778.9000000953674,779,779.0999999046326,True,i,165116.69999980927,1285.0999999046326,1669830362625,1285,HRV,HRV_0112,2022-11-30 17:49:00
87,"[{'imgObject': {}, 'id': 'kiwi', 'src': '/static/foodstim60/kiwi.jpg', 'key': 'u', 'origWidth': 410, 'origHeight': 410, 'width': 410, 'height': 410, 'widthPercent': 0.45, 'rescaleHeight': False, 'trialN': 87, 'loaded': True, 'loadedTime': 3207.699999809265, 'positionName': 'LEFT', 'positionCoords': [511.6, 335], 'bid': 0.36}, {'imgObject': {}, 'id': 'bagel plain', 'src': '/static/foodstim60/bagel plain.jpg', 'key': 'i', 'origWidth': 410, 'origHeight': 410, 'width': 410, 'height': 410, 'widthPercent': 0.45, 'rescaleHeight': False, 'trialN': 87, 'loaded': True, 'loadedTime': 3247.5999999046326, 'positionName': 'RIGHT', 'positionCoords': [998.4, 335], 'bid': 0.93}]",165116.89999985695,1669830362625,kiwi,bagel plain,0.36,0.93,0.5700000000000001,kiwi,1165.2999999523163,1166,1165.5,True,u,166799.59999990463,1682.7000000476837,1669830364308,1683,HRV,HRV_0112,2022-11-30 17:49:00
88,"[{'imgObject': {}, 'id': 'mango', 'src': '/static/foodstim60/mango.jpg', 'key': 'u', 'origWidth': 411, 'origHeight': 411, 'width': 411, 'height': 411, 'widthPercent': 0.45, 'rescaleHeight': False, 'trialN': 88, 'loaded': True, 'loadedTime': 3196.899999856949, 'positionName': 'LEFT', 'positionCoords': [510.6, 334.5], 'bid': 5.62}, {'imgObject': {}, 'id': 'pear', 'src': '/static/foodstim60/pear.jpg', 'key': 'i', 'origWidth': 411, 'origHeight': 410, 'width': 411, 'height': 410, 'widthPercent': 0.45, 'rescaleHeight': False, 'trialN': 88, 'loaded': True, 'loadedTime': 3224.399999856949, 'positionName': 'RIGHT', 'positionCoords': [998.4, 335], 'bid': 5.58}]",166799.59999990463,1669830364308,mango,pear,5.62,5.58,-0.040000000000000036,pear,1386.5,1387,1386.9000000953674,True,i,168699.79999995232,1900.2000000476837,1669830366209,1901,HRV,HRV_0112,2022-11-30 17:49:00
89,"[{'imgObject': {}, 'id': 'hashbrowns', 'src': '/static/foodstim60/hashbrowns.jpg', 'key': 'u', 'origWidth': 411, 'origHeight': 410, 'width': 411, 'height': 410, 'widthPercent': 0.45, 'rescaleHeight': False, 'trialN': 89, 'loaded': True, 'loadedTime': 3167.5, 'positionName': 'LEFT', 'positionCoords': [510.6, 335], 'bid': 3.08}, {'imgObject': {}, 'id': 'bagel and cc', 'src': '/static/foodstim60/bagel and cc.jpg', 'key': 'i', 'origWidth': 410, 'origHeight': 410, 'width': 410, 'height': 410, 'widthPercent': 0.45, 'rescaleHeight': False, 'trialN': 89, 'loaded': True, 'loadedTime': 3111.5999999046326, 'positionName': 'RIGHT', 'positionCoords': [998.4, 335], 'bid': 0.59}]",168699.89999985695,1669830366209,hashbrowns,bagel and cc,3.08,0.59,-2.49,bagel and cc,2486.2999999523163,2486,2486.600000143051,True,i,171700.0,3000.100000143051,1669830369209,3000,HRV,HRV_0112,2022-11-30 17:49:00
90,"[{'imgObject': {}, 'id': 'fruitsalad', 'src': '/static/foodstim60/fruitsalad.jpg', 'key': 'u', 'origWidth': 410, 'origHeight': 410, 'width': 410, 'height': 410, 'widthPercent': 0.45, 'rescaleHeight': False, 'trialN': 90, 'loaded': True, 'loadedTime': 3148.5999999046326, 'positionName': 'LEFT', 'positionCoords': [511.6, 335], 'bid': 5.76}, {'imgObject': {}, 'id': 'chickenfingers', 'src': '/static/foodstim60/chickenfingers.jpg', 'key': 'i', 'origWidth': 410, 'origHeight': 410, 'width': 410, 'height': 410, 'widthPercent': 0.45, 'rescaleHeight': False, 'trialN': 90, 'loaded': True, 'loadedTime': 3160.2999999523163, 'positionName': 'RIGHT', 'positionCoords': [998.4, 335], 'bid': 5.41}]",174250.59999990463,1669830371760,fruitsalad,chickenfingers,5.76,5.41,-0.34999999999999964,fruitsalad,2207.7999999523163,2208,2208.0,True,u,176976.0,2725.4000000953674,1669830374485,2725,HRV,HRV_0112,2022-11-30 17:49:00
91,"[{'imgObject': {}, 'id': 'sushi w_condiments', 'src': '/static/foodstim60/sushi w_condiments.jpg', 'key': 'u', 'origWidth': 410, 'origHeight': 410, 'width': 410, 'height': 410, 'widthPercent': 0.45, 'rescaleHeight': False, 'trialN': 91, 'loaded': True, 'loadedTime': 3236.2999999523163, 'positionName': 'LEFT', 'positionCoords': [511.6, 335], 'bid': 4.98}, {'imgObject': {}, 'id': 'Tribe humus pita', 'src': '/static/foodstim60/Tribe humus pita.jpg', 'key': 'i', 'origWidth': 411, 'origHeight': 411, 'width': 411, 'height': 411, 'widthPercent': 0.45, 'rescaleHeight': False, 'trialN': 91, 'loaded': True, 'loadedTime': 3239.399999856949, 'positionName': 'RIGHT', 'positionCoords': [998.4, 334.5], 'bid': 8.17}]",176976.19999980927,1669830374485,sushi w_condiments,Tribe humus pita,4.98,8.17,3.1899999999999995,sushi w_condiments,809.9000000953674,810,810.0,True,u,178298.79999995232,1322.6000001430511,1669830375808,1323,HRV,HRV_0112,2022-11-30 17:49:00
92,"[{'imgObject': {}, 'id': 'mac & cheese', 'src': '/static/foodstim60/mac & cheese.jpg', 'key': 'u', 'origWidth': 410, 'origHeight': 410, 'width': 410, 'height': 410, 'widthPercent': 0.45, 'rescaleHeight': False, 'trialN': 92, 'loaded': True, 'loadedTime': 3173.699999809265, 'positionName': 'LEFT', 'positionCoords': [511.6, 335], 'bid': 7.83}, {'imgObject': {}, 'id': 'strawberries', 'src': '/static/foodstim60/strawberries.jpg', 'key': 'i', 'origWidth': 410, 'origHeight': 410, 'width': 410, 'height': 410, 'widthPercent': 0.45, 'rescaleHeight': False, 'trialN': 92, 'loaded': True, 'loadedTime': 3211.2999999523163, 'positionName': 'RIGHT', 'positionCoords': [998.4, 335], 'bid': 6.17}]",178298.79999995232,1669830375808,mac & cheese,strawberries,7.83,6.17,-1.6600000000000001,mac & cheese,2799.2999999523163,2799,2799.399999856949,True,u,181614.29999995232,3315.5,1669830379123,3315,HRV,HRV_0112,2022-11-30 17:49:00
93,"[{'imgObject': {}, 'id': 'tacos', 'src': '/static/foodstim60/tacos.jpg', 'key': 'u', 'origWidth': 411, 'origHeight': 411, 'width': 411, 'height': 411, 'widthPercent': 0.45, 'rescaleHeight': False, 'trialN': 93, 'loaded': True, 'loadedTime': 3177.699999809265, 'positionName': 'LEFT', 'positionCoords': [510.6, 334.5], 'bid': 6.83}, {'imgObject': {}, 'id': 'burger', 'src': '/static/foodstim60/burger.jpg', 'key': 'i', 'origWidth': 409, 'origHeight': 409, 'width': 409, 'height': 409, 'widthPercent': 0.45, 'rescaleHeight': False, 'trialN': 93, 'loaded': True, 'loadedTime': 3104, 'positionName': 'RIGHT', 'positionCoords': [998.4, 335.5], 'bid': 6.7700000000000005}]",181614.5,1669830379124,tacos,burger,6.83,6.7700000000000005,-0.05999999999999961,burger,1411.5,1411,1411.6999998092651,True,i,183548.0,1933.5,1669830381057,1933,HRV,HRV_0112,2022-11-30 17:49:00
94,"[{'imgObject': {}, 'id': 'popsicles', 'src': '/static/foodstim60/popsicles.jpg', 'key': 'u', 'origWidth': 410, 'origHeight': 410, 'width': 410, 'height': 410, 'widthPercent': 0.45, 'rescaleHeight': False, 'trialN': 94, 'loaded': True, 'loadedTime': 3397, 'positionName': 'LEFT', 'positionCoords': [511.6, 335], 'bid': 0.8}, {'imgObject': {}, 'id': 'bagel plain', 'src': '/static/foodstim60/bagel plain.jpg', 'key': 'i', 'origWidth': 410, 'origHeight': 410, 'width': 410, 'height': 410, 'widthPercent': 0.45, 'rescaleHeight': False, 'trialN': 94, 'loaded': True, 'loadedTime': 3248.2999999523163, 'positionName': 'RIGHT', 'positionCoords': [998.4, 335], 'bid': 0.93}]",183548.0,1669830381057,popsicles,bagel plain,0.8,0.93,0.13,bagel plain,870.0999999046326,870,870.2999999523163,True,i,184925.79999995232,1377.7999999523163,1669830382435,1378,HRV,HRV_0112,2022-11-30 17:49:00
95,"[{'imgObject': {}, 'id': 'fruitsalad', 'src': '/static/foodstim60/fruitsalad.jpg', 'key': 'u', 'origWidth': 410, 'origHeight': 410, 'width': 410, 'height': 410, 'widthPercent': 0.45, 'rescaleHeight': False, 'trialN': 95, 'loaded': True, 'loadedTime': 3150.699999809265, 'positionName': 'LEFT', 'positionCoords': [511.6, 335], 'bid': 5.76}, {'imgObject': {}, 'id': 'burrito', 'src': '/static/foodstim60/burrito.jpg', 'key': 'i', 'origWidth': 410, 'origHeight': 410, 'width': 410, 'height': 410, 'widthPercent': 0.45, 'rescaleHeight': False, 'trialN': 95, 'loaded': True, 'loadedTime': 3235.399999856949, 'positionName': 'RIGHT', 'positionCoords': [998.4, 335], 'bid': 5.8100000000000005}]",184926.0,1669830382435,fruitsalad,burrito,5.76,5.8100000000000005,0.05000000000000071,fruitsalad,1460.0999999046326,1460,1460.3999998569489,True,u,186894.09999990463,1968.0999999046326,1669830384403,1968,HRV,HRV_0112,2022-11-30 17:49:00
96,"[{'imgObject': {}, 'id': 'tacos', 'src': '/static/foodstim60/tacos.jpg', 'key': 'u', 'origWidth': 411, 'origHeight': 411, 'width': 411, 'height': 411, 'widthPercent': 0.45, 'rescaleHeight': False, 'trialN': 96, 'loaded': True, 'loadedTime': 3179.699999809265, 'positionName': 'LEFT', 'positionCoords': [510.6, 334.5], 'bid': 6.83}, {'imgObject': {}, 'id': 'grilled chicken strips', 'src': '/static/foodstim60/grilled chicken strips.jpg', 'key': 'i', 'origWidth': 410, 'origHeight': 411, 'width': 410, 'height': 411, 'widthPercent': 0.45, 'rescaleHeight': False, 'trialN': 96, 'loaded': True, 'loadedTime': 3128.199999809265, 'positionName': 'RIGHT', 'positionCoords': [998.4, 334.5], 'bid': 8.370000000000001}]",186894.29999995232,1669830384403,tacos,grilled chicken strips,6.83,8.370000000000001,1.540000000000001,grilled chicken strips,1139.7999999523163,1140,1140.0999999046326,True,i,188547.5,1653.2000000476837,1669830386057,1654,HRV,HRV_0112,2022-11-30 17:49:00
97,"[{'imgObject': {}, 'id': 'baked potato', 'src': '/static/foodstim60/baked potato.jpg', 'key': 'u', 'origWidth': 409, 'origHeight': 410, 'width': 409, 'height': 410, 'widthPercent': 0.45, 'rescaleHeight': False, 'trialN': 97, 'loaded': True, 'loadedTime': 3148.5, 'positionName': 'LEFT', 'positionCoords': [512.6, 335], 'bid': 5.59}, {'imgObject': {}, 'id': 'olives', 'src': '/static/foodstim60/olives.jpg', 'key': 'i', 'origWidth': 410, 'origHeight': 410, 'width': 410, 'height': 410, 'widthPercent': 0.45, 'rescaleHeight': False, 'trialN': 97, 'loaded': True, 'loadedTime': 3095.199999809265, 'positionName': 'RIGHT', 'positionCoords': [998.4, 335], 'bid': 6.59}]",188547.69999980927,1669830386057,baked potato,olives,5.59,6.59,1.0,olives,1486.4000000953674,1486,1486.7000000476837,True,i,190548.59999990463,2000.9000000953674,1669830388058,2001,HRV,HRV_0112,2022-11-30 17:49:00
98,"[{'imgObject': {}, 'id': 'burger', 'src': '/static/foodstim60/burger.jpg', 'key': 'u', 'origWidth': 409, 'origHeight': 409, 'width': 409, 'height': 409, 'widthPercent': 0.45, 'rescaleHeight': False, 'trialN': 98, 'loaded': True, 'loadedTime': 3101.899999856949, 'positionName': 'LEFT', 'positionCoords': [512.6, 335.5], 'bid': 6.7700000000000005}, {'imgObject': {}, 'id': 'mango', 'src': '/static/foodstim60/mango.jpg', 'key': 'i', 'origWidth': 411, 'origHeight': 411, 'width': 411, 'height': 411, 'widthPercent': 0.45, 'rescaleHeight': False, 'trialN': 98, 'loaded': True, 'loadedTime': 3196.899999856949, 'positionName': 'RIGHT', 'positionCoords': [998.4, 334.5], 'bid': 5.62}]",190548.59999990463,1669830388058,burger,mango,6.7700000000000005,5.62,-1.1500000000000004,burger,2533.4000000953674,2533,2533.5999999046326,True,u,193596.5,3047.9000000953674,1669830391106,3048,HRV,HRV_0112,2022-11-30 17:49:00
99,"[{'imgObject': {}, 'id': 'chickenfingers', 'src': '/static/foodstim60/chickenfingers.jpg', 'key': 'u', 'origWidth': 410, 'origHeight': 410, 'width': 410, 'height': 410, 'widthPercent': 0.45, 'rescaleHeight': False, 'trialN': 99, 'loaded': True, 'loadedTime': 3160.2999999523163, 'positionName': 'LEFT', 'positionCoords': [511.6, 335], 'bid': 5.41}, {'imgObject': {}, 'id': 'turkeysandwich', 'src': '/static/foodstim60/turkeysandwich.jpg', 'key': 'i', 'origWidth': 409, 'origHeight': 409, 'width': 409, 'height': 409, 'widthPercent': 0.45, 'rescaleHeight': False, 'trialN': 99, 'loaded': True, 'loadedTime': 3191.0999999046326, 'positionName': 'RIGHT', 'positionCoords': [998.4, 335.5], 'bid': 9.13}]",193596.69999980927,1669830391106,chickenfingers,turkeysandwich,5.41,9.13,3.7200000000000006,turkeysandwich,949.4000000953674,949,949.6000001430511,True,i,195053.69999980927,1457.0,1669830392563,1457,HRV,HRV_0112,2022-11-30 17:49:00
100,"[{'imgObject': {}, 'id': 'cocktailshrimp', 'src': '/static/foodstim60/cocktailshrimp.jpg', 'key': 'u', 'origWidth': 410, 'origHeight': 410, 'width': 410, 'height': 410, 'widthPercent': 0.45, 'rescaleHeight': False, 'trialN': 100, 'loaded': True, 'loadedTime': 3203.899999856949, 'positionName': 'LEFT', 'positionCoords': [511.6, 335], 'bid': 0.08}, {'imgObject': {}, 'id': 'sweetpotato', 'src': '/static/foodstim60/sweetpotato.jpg', 'key': 'i', 'origWidth': 410, 'origHeight': 410, 'width': 410, 'height': 410, 'widthPercent': 0.45, 'rescaleHeight': False, 'trialN': 100, 'loaded': True, 'loadedTime': 3220.399999856949, 'positionName': 'RIGHT', 'positionCoords': [998.4, 335], 'bid': 0.06}]",195053.79999995232,1669830392563,cocktailshrimp,sweetpotato,0.08,0.06,-0.020000000000000004,sweetpotato,924.2000000476837,924,924.2999999523163,True,i,196495.59999990463,1441.7999999523163,1669830394005,1442,HRV,HRV_0112,2022-11-30 17:49:00
101,"[{'imgObject': {}, 'id': 'lox', 'src': '/static/foodstim60/lox.jpg', 'key': 'u', 'origWidth': 410, 'origHeight': 411, 'width': 410, 'height': 411, 'widthPercent': 0.45, 'rescaleHeight': False, 'trialN': 101, 'loaded': True, 'loadedTime': 3131, 'positionName': 'LEFT', 'positionCoords': [511.6, 334.5], 'bid': 0.68}, {'imgObject': {}, 'id': 'omelette', 'src': '/static/foodstim60/omelette.jpg', 'key': 'i', 'origWidth': 410, 'origHeight': 409, 'width': 410, 'height': 409, 'widthPercent': 0.45, 'rescaleHeight': False, 'trialN': 101, 'loaded': True, 'loadedTime': 3232.399999856949, 'positionName': 'RIGHT', 'positionCoords': [998.4, 335.5], 'bid': 3.93}]",196495.69999980927,1669830394005,lox,omelette,0.68,3.93,3.25,omelette,1186.4000000953674,1186,1186.7000000476837,True,i,198196.5,1700.8000001907349,1669830395706,1701,HRV,HRV_0112,2022-11-30 17:49:00
102,"[{'imgObject': {}, 'id': 'shreddedwheatwithmilk', 'src': '/static/foodstim60/shreddedwheatwithmilk.jpg', 'key': 'u', 'origWidth': 410, 'origHeight': 410, 'width': 410, 'height': 410, 'widthPercent': 0.45, 'rescaleHeight': False, 'trialN': 102, 'loaded': True, 'loadedTime': 3219.199999809265, 'positionName': 'LEFT', 'positionCoords': [511.6, 335], 'bid': 3.42}, {'imgObject': {}, 'id': 'roastedpotatoes', 'src': '/static/foodstim60/roastedpotatoes.jpg', 'key': 'i', 'origWidth': 409, 'origHeight': 410, 'width': 409, 'height': 410, 'widthPercent': 0.45, 'rescaleHeight': False, 'trialN': 102, 'loaded': True, 'loadedTime': 3151, 'positionName': 'RIGHT', 'positionCoords': [998.4, 335], 'bid': 4.42}]",198196.59999990463,1669830395706,shreddedwheatwithmilk,roastedpotatoes,3.42,4.42,1.0,shreddedwheatwithmilk,1325.5999999046326,1325,1325.7999999523163,True,u,200035.79999995232,1839.2000000476837,1669830397545,1839,HRV,HRV_0112,2022-11-30 17:49:00
103,"[{'imgObject': {}, 'id': 'froot loops w milk', 'src': '/static/foodstim60/froot loops w milk.jpg', 'key': 'u', 'origWidth': 410, 'origHeight': 410, 'width': 410, 'height': 410, 'widthPercent': 0.45, 'rescaleHeight': False, 'trialN': 103, 'loaded': True, 'loadedTime': 3163.899999856949, 'positionName': 'LEFT', 'positionCoords': [511.6, 335], 'bid': 2.44}, {'imgObject': {}, 'id': 'ice cream sundae 002', 'src': '/static/foodstim60/ice cream sundae 002.jpg', 'key': 'i', 'origWidth': 409, 'origHeight': 409, 'width': 409, 'height': 409, 'widthPercent': 0.45, 'rescaleHeight': False, 'trialN': 103, 'loaded': True, 'loadedTime': 3155.199999809265, 'positionName': 'RIGHT', 'positionCoords': [998.4, 335.5], 'bid': 4.98}]",200035.89999985695,1669830397545,froot loops w milk,ice cream sundae 002,2.44,4.98,2.5400000000000005,froot loops w milk,1982.2000000476837,1982,1982.4000000953674,True,u,202531.59999990463,2495.7000000476837,1669830400041,2496,HRV,HRV_0112,2022-11-30 17:49:00
104,"[{'imgObject': {}, 'id': 'turkeysandwich', 'src': '/static/foodstim60/turkeysandwich.jpg', 'key': 'u', 'origWidth': 409, 'origHeight': 409, 'width': 409, 'height': 409, 'widthPercent': 0.45, 'rescaleHeight': False, 'trialN': 104, 'loaded': True, 'loadedTime': 3190.899999856949, 'positionName': 'LEFT', 'positionCoords': [512.6, 335.5], 'bid': 9.13}, {'imgObject': {}, 'id': 'salad w chicken', 'src': '/static/foodstim60/salad w chicken.jpg', 'key': 'i', 'origWidth': 411, 'origHeight': 411, 'width': 411, 'height': 411, 'widthPercent': 0.45, 'rescaleHeight': False, 'trialN': 104, 'loaded': True, 'loadedTime': 3071, 'positionName': 'RIGHT', 'positionCoords': [998.4, 334.5], 'bid': 7.04}]",202531.79999995232,1669830400041,turkeysandwich,salad w chicken,9.13,7.04,-2.0900000000000007,turkeysandwich,2438.2000000476837,2438,2438.399999856949,True,u,205477.89999985695,2946.0999999046326,1669830402987,2946,HRV,HRV_0112,2022-11-30 17:49:00
105,"[{'imgObject': {}, 'id': 'cherries', 'src': '/static/foodstim60/cherries.jpg', 'key': 'u', 'origWidth': 410, 'origHeight': 411, 'width': 410, 'height': 411, 'widthPercent': 0.45, 'rescaleHeight': False, 'trialN': 105, 'loaded': True, 'loadedTime': 3194, 'positionName': 'LEFT', 'positionCoords': [511.6, 334.5], 'bid': 4.66}, {'imgObject': {}, 'id': 'blueberries', 'src': '/static/foodstim60/blueberries.jpg', 'key': 'i', 'origWidth': 411, 'origHeight': 411, 'width': 411, 'height': 411, 'widthPercent': 0.45, 'rescaleHeight': False, 'trialN': 105, 'loaded': True, 'loadedTime': 3221.199999809265, 'positionName': 'RIGHT', 'positionCoords': [998.4, 334.5], 'bid': 4.53}]",205478.09999990463,1669830402987,cherries,blueberries,4.66,4.53,-0.1299999999999999,cherries,2507.7999999523163,2508,2507.9000000953674,True,u,208496.39999985695,3018.2999999523163,1669830406005,3018,HRV,HRV_0112,2022-11-30 17:49:00
106,"[{'imgObject': {}, 'id': 'corn cob', 'src': '/static/foodstim60/corn cob.jpg', 'key': 'u', 'origWidth': 411, 'origHeight': 411, 'width': 411, 'height': 411, 'widthPercent': 0.45, 'rescaleHeight': False, 'trialN': 106, 'loaded': True, 'loadedTime': 3139.2999999523163, 'positionName': 'LEFT', 'positionCoords': [510.6, 334.5], 'bid': 5.68}, {'imgObject': {}, 'id': 'tacos', 'src': '/static/foodstim60/tacos.jpg', 'key': 'i', 'origWidth': 411, 'origHeight': 411, 'width': 411, 'height': 411, 'widthPercent': 0.45, 'rescaleHeight': False, 'trialN': 106, 'loaded': True, 'loadedTime': 3176.899999856949, 'positionName': 'RIGHT', 'positionCoords': [998.4, 334.5], 'bid': 6.83}]",208496.59999990463,1669830406006,corn cob,tacos,5.68,6.83,1.1500000000000004,tacos,1569.5,1569,1569.7999999523163,True,i,210579.5,2082.9000000953674,1669830408089,2083,HRV,HRV_0112,2022-11-30 17:49:00
107,"[{'imgObject': {}, 'id': 'popsicles', 'src': '/static/foodstim60/popsicles.jpg', 'key': 'u', 'origWidth': 410, 'origHeight': 410, 'width': 410, 'height': 410, 'widthPercent': 0.45, 'rescaleHeight': False, 'trialN': 107, 'loaded': True, 'loadedTime': 3397.0999999046326, 'positionName': 'LEFT', 'positionCoords': [511.6, 335], 'bid': 0.8}, {'imgObject': {}, 'id': 'seaweed', 'src': '/static/foodstim60/seaweed.jpg', 'key': 'i', 'origWidth': 410, 'origHeight': 410, 'width': 410, 'height': 410, 'widthPercent': 0.45, 'rescaleHeight': False, 'trialN': 107, 'loaded': True, 'loadedTime': 3246.399999856949, 'positionName': 'RIGHT', 'positionCoords': [998.4, 335], 'bid': 0.08}]",210579.5,1669830408089,popsicles,seaweed,0.8,0.08,-0.7200000000000001,popsicles,854.5,854,854.6999998092651,True,u,211941.79999995232,1362.2999999523163,1669830409451,1362,HRV,HRV_0112,2022-11-30 17:49:00
