success,trial_type,trial_index,time_elapsed,internal_node_id,Block,TrialNumber,TrialTime,trialTimeDiff,FPS_avg,FPS_med,FPS_mode,TrialDur,winResizeTime,rt,block,button_pressed,MotCoh,MotDir,ColCoh,Color,ChoiceKey,Choice,Accuracy,RT,nFrames,FPS,PPD,missTrial,missTrialMsg,onsetDelay,fullScreenExitTime,canvCenter,TrialType,Score,BlockTrial,stimulus,button_labels,exp,subjectId,date
True,fullscreen,0,2955,0.0-0.0,0.0,1.0,,,,,,,,,,,,,,,,,,,,,,,,,,,,,,,,HRV,HRV_0112,2022-11-30 18:19:26
,wl-check-fps,1,7950,0.0-1.0,0.0,2.0,"[3742.2, 3751.3, 3768, 3784.9, 3801.3, 3818, 3834.6, 3851.3, 3868, 3884.7, 3901.3, 3917.9, 3934.6, 3951.3, 3968, 3984.6, 4001.4, 4018, 4034.6, 4051.3, 4068.1, 4084.6, 4101.4, 4118, 4134.6, 4151.3, 4168, 4184.6, 4201.3, 4217.9, 4234.6, 4251.3, 4268.1, 4284.6, 4301.3, 4318, 4334.6, 4351.3, 4368, 4384.6, 4401.3, 4417.9, 4434.5, 4451.3, 4468, 4484.5, 4501.3, 4518, 4534.6, 4551.3, 4567.9, 4584.6, 4601.4, 4618, 4634.6, 4651.3, 4668.1, 4684.8, 4701.4, 4718.1, 4734.7, 4751.3, 4768, 4784.7, 4801.8, 4818.1, 4834.7, 4851.4, 4868, 4884.7, 4901.4, 4918, 4934.5, 4951.3, 4968, 4984.6, 5001.2, 5017.9, 5034.6, 5051.3, 5068, 5084.6, 5101.2, 5117.8, 5134.4, 5151.1, 5167.8, 5184.5, 5201.4, 5217.7, 5234.5, 5251.1, 5267.7, 5284.3, 5301.1, 5317.8, 5334.4, 5351.1, 5367.8, 5384.5, 5401.1, 5417.7, 5434.4, 5451.1, 5467.8, 5484.4, 5501.1, 5517.8, 5534.4, 5551.1, 5567.7, 5584.4, 5601, 5617.7, 5634.4, 5651.1, 5667.7, 5684.4, 5701.1, 5717.7, 5734.3, 5751.1, 5767.7, 5784.4, 5801.1, 5817.7, 5834.3, 5851.1, 5867.7, 5884.4, 5901.1, 5917.8, 5934.4, 5951.1, 5967.8, 5984.5, 6001.1, 6017.8, 6034.4, 6051.1, 6067.9, 6085, 6101.2, 6118, 6134.7, 6151.3, 6168.1, 6184.6, 6201.3, 6218, 6234.6, 6251.2, 6267.9, 6284.5, 6301.3, 6318, 6334.5, 6351.2, 6367.9, 6384.5, 6401.4, 6417.9, 6434.5, 6451.2, 6467.9, 6484.5, 6501.3, 6517.9, 6534.5, 6551.2, 6567.9, 6584.5, 6601.3, 6617.8, 6634.5, 6651.3, 6667.9, 6684.4, 6701.2, 6717.9, 6734.5, 6751.1, 6767.9, 6784.6, 6801.3, 6817.9, 6834.6, 6851.4, 6867.9, 6884.5, 6901.2, 6917.8, 6934.5, 6951.1, 6967.9, 6984.5, 7001.2, 7017.9, 7034.5, 7051.2, 7067.8, 7084.5, 7101.3, 7117.9, 7134.5, 7151.2, 7167.9, 7184.5, 7201.2, 7218, 7234.6, 7251.3, 7267.9, 7284.4, 7301, 7317.9, 7334.5, 7351.2, 7367.9, 7384.5, 7401.1, 7417.9, 7434.5, 7451.2, 7467.9, 7484.5, 7501.2, 7517.9, 7534.4, 7551.2, 7567.8, 7584.5, 7601.2, 7617.9, 7634.5, 7651, 7667.6, 7684.3, 7701, 7717.7, 7734.4, 7751, 7767.6, 7784.3, 7801, 7817.6, 7834.3, 7850.9, 7867.7, 7884.4, 7901, 7917.6, 7934.4, 7951, 7967.7, 7984.3, 8001, 8017.6, 8034.4, 8051.1, 8067.7, 8084.4, 8101, 8117.6, 8134.4, 8151.1, 8167.7, 8184.2, 8201, 8217.7, 8234.4, 8251.1, 8267.7, 8284.4, 8301.1, 8317.7, 8334.4, 8351, 8367.8, 8384.4, 8401, 8417.7, 8434.4, 8451.1, 8467.7, 8484.4, 8501, 8517.6, 8534.4, 8551, 8567.7, 8584.3, 8601, 8617.9, 8634.5, 8651.2, 8667.9, 8684.5, 8701.2, 8717.8]","[0.8, 9.1, 16.7, 16.9, 16.4, 16.7, 16.6, 16.7, 16.7, 16.7, 16.6, 16.6, 16.7, 16.7, 16.7, 16.6, 16.8, 16.6, 16.6, 16.7, 16.8, 16.5, 16.8, 16.6, 16.6, 16.7, 16.7, 16.6, 16.7, 16.6, 16.7, 16.7, 16.8, 16.5, 16.7, 16.7, 16.6, 16.7, 16.7, 16.6, 16.7, 16.6, 16.6, 16.8, 16.7, 16.5, 16.8, 16.7, 16.6, 16.7, 16.6, 16.7, 16.8, 16.6, 16.6, 16.7, 16.8, 16.7, 16.6, 16.7, 16.6, 16.6, 16.7, 16.7, 17.1, 16.3, 16.6, 16.7, 16.6, 16.7, 16.7, 16.6, 16.5, 16.8, 16.7, 16.6, 16.6, 16.7, 16.7, 16.7, 16.7, 16.6, 16.6, 16.6, 16.6, 16.7, 16.7, 16.7, 16.9, 16.3, 16.8, 16.6, 16.6, 16.6, 16.8, 16.7, 16.6, 16.7, 16.7, 16.7, 16.6, 16.6, 16.7, 16.7, 16.7, 16.6, 16.7, 16.7, 16.6, 16.7, 16.6, 16.7, 16.6, 16.7, 16.7, 16.7, 16.6, 16.7, 16.7, 16.6, 16.6, 16.8, 16.6, 16.7, 16.7, 16.6, 16.6, 16.8, 16.6, 16.7, 16.7, 16.7, 16.6, 16.7, 16.7, 16.7, 16.6, 16.7, 16.6, 16.7, 16.8, 17.1, 16.2, 16.8, 16.7, 16.6, 16.8, 16.5, 16.7, 16.7, 16.6, 16.6, 16.7, 16.6, 16.8, 16.7, 16.5, 16.7, 16.7, 16.6, 16.9, 16.5, 16.6, 16.7, 16.7, 16.6, 16.8, 16.6, 16.6, 16.7, 16.7, 16.6, 16.8, 16.5, 16.7, 16.8, 16.6, 16.5, 16.8, 16.7, 16.6, 16.6, 16.8, 16.7, 16.7, 16.6, 16.7, 16.8, 16.5, 16.6, 16.7, 16.6, 16.7, 16.6, 16.8, 16.6, 16.7, 16.7, 16.6, 16.7, 16.6, 16.7, 16.8, 16.6, 16.6, 16.7, 16.7, 16.6, 16.7, 16.8, 16.6, 16.7, 16.6, 16.5, 16.6, 16.9, 16.6, 16.7, 16.7, 16.6, 16.6, 16.8, 16.6, 16.7, 16.7, 16.6, 16.7, 16.7, 16.5, 16.8, 16.6, 16.7, 16.7, 16.7, 16.6, 16.5, 16.6, 16.7, 16.7, 16.7, 16.7, 16.6, 16.6, 16.7, 16.7, 16.6, 16.7, 16.6, 16.8, 16.7, 16.6, 16.6, 16.8, 16.6, 16.7, 16.6, 16.7, 16.6, 16.8, 16.7, 16.6, 16.7, 16.6, 16.6, 16.8, 16.7, 16.6, 16.5, 16.8, 16.7, 16.7, 16.7, 16.6, 16.7, 16.7, 16.6, 16.7, 16.6, 16.8, 16.6, 16.6, 16.7, 16.7, 16.7, 16.6, 16.7, 16.6, 16.6, 16.8, 16.6, 16.7, 16.6, 16.7, 16.9, 16.6, 16.7, 16.7, 16.6, 16.7, 16.6]",60.0,60.0,60.0,4993.1,[],,,,,,,,,,,,,,,,,,,,,,,,,HRV,HRV_0112,2022-11-30 18:19:26
,wl-html-keyboard-response,2,17948,0.0-2.0-0.0,0.0,3.0,,,,,,,,7991.699999809265,0.0,0,,,,,,,,,,,,,,,,,,,,,,HRV,HRV_0112,2022-11-30 18:19:26
,wl-rdm,3,24582,0.0-3.0-0.0,0.0,4.0,,,,,,,[],,,,0.0,0.0,87.9,0.0,u,0.0,True,1036.9000000953674,63.0,60.0,40.0,False,,3000.0,[],"[960, 540]",ColorTask_Demo,,,,,HRV,HRV_0112,2022-11-30 18:19:26
,wl-rdm,4,29284,0.0-3.0-1.0,0.0,5.0,,,,,,,[],,,,0.0,0.0,87.9,1.0,i,1.0,True,619.6000001430511,38.0,60.0,40.0,False,,2000.0,[],"[960, 540]",ColorTask_Demo,,,,,HRV,HRV_0112,2022-11-30 18:19:26
,wl-html-keyboard-response,5,35613,0.0-3.0-2.0,0.0,6.0,,,,,,,,4316.100000143051,0.0,1,,,,,,,,,,,,,,,,,,,,,,HRV,HRV_0112,2022-11-30 18:19:26
,wl-html-keyboard-response,6,44052,0.0-4.0-0.0,0.0,7.0,,,,,,,,6435.100000143051,0.0,0,,,,,,,,,,,,,,,,,,,,,,HRV,HRV_0112,2022-11-30 18:19:26
,wl-html-keyboard-response,7,58780,0.0-5.0-0.0,0.0,8.0,,,,,,,,12723.699999809265,0.0,0,,,,,,,,,,,,,,,,,,,,,,HRV,HRV_0112,2022-11-30 18:19:26
,wl-rdm,8,61232,0.0-6.0-0.0,0.0,9.0,,,,,,,[],,,,,,62.5,0.0,i,1.0,False,1156.0999999046326,70.0,60.0,40.0,False,,229.66042923923123,[],"[960, 540]",ColorTask,-1.0,1.0,,,HRV,HRV_0112,2022-11-30 18:19:26
,wl-rdm,9,63365,0.0-6.1-0.1,0.0,10.0,,,,,,,[],,,,,,87.9,0.0,u,0.0,True,858.2999999523163,52.0,60.0,40.0,False,,206.5419978582843,[],"[960, 540]",ColorTask,0.0,2.0,,,HRV,HRV_0112,2022-11-30 18:19:26
,wl-rdm,10,65849,0.0-6.2-0.2,0.0,11.0,,,,,,,[],,,,,,56.4,0.0,u,0.0,True,1047.0,63.0,60.0,40.0,False,,352.93570730414035,[],"[960, 540]",ColorTask,1.0,3.0,,,HRV,HRV_0112,2022-11-30 18:19:26
,wl-rdm,11,68265,0.0-6.3-0.3,0.0,12.0,,,,,,,[],,,,,,62.5,1.0,i,1.0,True,962.5,58.0,60.0,40.0,False,,391.5119068901556,[],"[960, 540]",ColorTask,2.0,4.0,,,HRV,HRV_0112,2022-11-30 18:19:26
,wl-rdm,12,71332,0.0-6.4-0.4,0.0,13.0,,,,,,,[],,,,,,50.0,1.0,i,1.0,True,1769.2999999523163,107.0,60.0,40.0,False,,205.40662453955926,[],"[960, 540]",ColorTask,3.0,5.0,,,HRV,HRV_0112,2022-11-30 18:19:26
,wl-rdm,13,74032,0.0-6.5-0.5,0.0,14.0,,,,,,,[],,,,,,62.5,1.0,i,1.0,True,1323.4000000953674,80.0,60.0,40.0,False,,289.3673754123671,[],"[960, 540]",ColorTask,4.0,6.0,,,HRV,HRV_0112,2022-11-30 18:19:26
,wl-rdm,14,77748,0.0-6.6-0.6,0.0,15.0,,,,,,,[],,,,,,50.0,0.0,i,1.0,False,2252.9000000953674,136.0,60.0,40.0,False,,368.49775990297536,[],"[960, 540]",ColorTask,3.0,7.0,,,HRV,HRV_0112,2022-11-30 18:19:26
,wl-rdm,15,81248,0.0-6.7-0.7,0.0,16.0,,,,,,,[],,,,,,53.2,0.0,i,1.0,False,2222.2000000476837,134.0,60.0,40.0,False,,207.50122765084166,[],"[960, 540]",ColorTask,2.0,8.0,,,HRV,HRV_0112,2022-11-30 18:19:26
,wl-rdm,16,84181,0.0-6.8-0.8,0.0,17.0,,,,,,,[],,,,,,73.6,1.0,i,1.0,True,1642.5000002384186,99.0,60.0,40.0,False,,210.94140064528315,[],"[960, 540]",ColorTask,3.0,9.0,,,HRV,HRV_0112,2022-11-30 18:19:26
,wl-rdm,17,87000,0.0-6.9-0.9,0.0,18.0,,,,,,,[],,,,,,53.2,0.0,u,0.0,True,1500.2000000476837,90.0,60.0,40.0,False,,233.24870581616588,[],"[960, 540]",ColorTask,4.0,10.0,,,HRV,HRV_0112,2022-11-30 18:19:26
,wl-rdm,18,89317,0.0-6.10-0.10,0.0,19.0,,,,,,,[],,,,,,87.9,1.0,i,1.0,True,978.6000001430511,59.0,60.0,40.0,False,,252.84064977873547,[],"[960, 540]",ColorTask,5.0,11.0,,,HRV,HRV_0112,2022-11-30 18:19:26
,wl-rdm,19,93100,0.0-6.11-0.11,0.0,20.0,,,,,,,[],,,,,,50.0,0.0,u,0.0,True,2371.300000190735,143.0,60.0,40.0,False,,319.5547617014553,[],"[960, 540]",ColorTask,6.0,12.0,,,HRV,HRV_0112,2022-11-30 18:19:26
,wl-rdm,20,96800,0.0-6.12-0.12,0.0,21.0,,,,,,,[],,,,,,56.4,1.0,i,1.0,True,2342.0,141.0,60.0,40.0,False,,281.74449083099273,[],"[960, 540]",ColorTask,7.0,13.0,,,HRV,HRV_0112,2022-11-30 18:19:26
,wl-rdm,21,99284,0.0-6.13-0.13,0.0,22.0,,,,,,,[],,,,,,73.6,0.0,u,0.0,True,1097.0,66.0,60.0,40.0,False,,301.43257441802825,[],"[960, 540]",ColorTask,8.0,14.0,,,HRV,HRV_0112,2022-11-30 18:19:26
,wl-rdm,22,101600,0.0-6.14-0.14,0.0,23.0,,,,,,,[],,,,,,73.6,0.0,u,0.0,True,1008.3000001907349,61.0,60.0,40.0,False,,234.2974706139981,[],"[960, 540]",ColorTask,9.0,15.0,,,HRV,HRV_0112,2022-11-30 18:19:26
,wl-rdm,23,104067,0.0-6.15-0.15,0.0,24.0,,,,,,,[],,,,,,62.5,1.0,i,1.0,True,1163.7000000476837,70.0,60.0,40.0,False,,238.56488962887255,[],"[960, 540]",ColorTask,10.0,16.0,,,HRV,HRV_0112,2022-11-30 18:19:26
,wl-rdm,24,106916,0.0-6.16-0.16,0.0,25.0,,,,,,,[],,,,,,73.6,1.0,i,1.0,True,1478.9000000953674,89.0,60.0,40.0,False,,284.95757885888077,[],"[960, 540]",ColorTask,11.0,17.0,,,HRV,HRV_0112,2022-11-30 18:19:26
,wl-rdm,25,110050,0.0-6.17-0.17,0.0,26.0,,,,,,,[],,,,,,50.0,1.0,i,1.0,True,1840.5,111.0,60.0,40.0,False,,204.4955970845557,[],"[960, 540]",ColorTask,12.0,18.0,,,HRV,HRV_0112,2022-11-30 18:19:26
,wl-rdm,26,112749,0.0-6.18-0.18,0.0,27.0,,,,,,,[],,,,,,73.6,1.0,i,1.0,True,1244.6000001430511,75.0,60.0,40.0,False,,382.95333012788024,[],"[960, 540]",ColorTask,13.0,19.0,,,HRV,HRV_0112,2022-11-30 18:19:26
,wl-rdm,27,115766,0.0-6.19-0.19,0.0,28.0,,,,,,,[],,,,,,62.5,1.0,i,1.0,True,1660.5999999046326,100.0,60.0,40.0,False,,277.9668884015975,[],"[960, 540]",ColorTask,14.0,20.0,,,HRV,HRV_0112,2022-11-30 18:19:26
,wl-rdm,28,118716,0.0-6.20-0.20,0.0,29.0,,,,,,,[],,,,,,50.0,1.0,i,1.0,True,1611.7999999523163,97.0,60.0,40.0,False,,272.28552778031144,[],"[960, 540]",ColorTask,15.0,21.0,,,HRV,HRV_0112,2022-11-30 18:19:26
,wl-rdm,29,121583,0.0-6.21-0.21,0.0,30.0,,,,,,,[],,,,,,73.6,1.0,i,1.0,True,1551.0999999046326,94.0,60.0,40.0,False,,243.8743934115503,[],"[960, 540]",ColorTask,16.0,22.0,,,HRV,HRV_0112,2022-11-30 18:19:26
,wl-rdm,30,124316,0.0-6.22-0.22,0.0,31.0,,,,,,,[],,,,,,56.4,1.0,i,1.0,True,1355.1000001430511,82.0,60.0,40.0,False,,283.8714913877271,[],"[960, 540]",ColorTask,17.0,23.0,,,HRV,HRV_0112,2022-11-30 18:19:26
,wl-rdm,31,126799,0.0-6.23-0.23,0.0,32.0,,,,,,,[],,,,,,73.6,0.0,u,0.0,True,1043.2000000476837,63.0,60.0,40.0,False,,355.5037221563373,[],"[960, 540]",ColorTask,18.0,24.0,,,HRV,HRV_0112,2022-11-30 18:19:26
,wl-rdm,32,129866,0.0-6.24-0.24,0.0,33.0,,,,,,,[],,,,,,62.5,0.0,u,0.0,True,1730.7999999523163,104.0,60.0,40.0,False,,276.9070048146328,[],"[960, 540]",ColorTask,19.0,25.0,,,HRV,HRV_0112,2022-11-30 18:19:26
,wl-rdm,33,133482,0.0-6.25-0.25,0.0,34.0,,,,,,,[],,,,,,53.2,1.0,u,0.0,False,2189.7000000476837,132.0,60.0,40.0,False,,335.25131965671847,[],"[960, 540]",ColorTask,18.0,26.0,,,HRV,HRV_0112,2022-11-30 18:19:26
,wl-rdm,34,136265,0.0-6.26-0.26,0.0,35.0,,,,,,,[],,,,,,56.4,0.0,i,1.0,False,1438.8999998569489,87.0,60.0,40.0,False,,269.83311429894457,[],"[960, 540]",ColorTask,17.0,27.0,,,HRV,HRV_0112,2022-11-30 18:19:26
,wl-rdm,35,138515,0.0-6.27-0.27,0.0,36.0,,,,,,,[],,,,,,87.9,0.0,u,0.0,True,947.0999999046326,57.0,60.0,40.0,False,,220.08724751101792,[],"[960, 540]",ColorTask,18.0,28.0,,,HRV,HRV_0112,2022-11-30 18:19:26
,wl-rdm,36,142965,0.0-6.28-0.28,0.0,36.0,,,,,,,[],,,,,,50.0,1.0,,,,,179.0,60.0,40.0,True,RT_timeout ,333.5008476079,[],"[960, 540]",ColorTask,17.0,29.0,,,HRV,HRV_0112,2022-11-30 18:19:26
,wl-rdm,37,145165,0.0-6.29-0.29,0.0,37.0,,,,,,,[],,,,,,62.5,0.0,u,0.0,True,870.5,53.0,60.0,40.0,False,,238.124025520496,[],"[960, 540]",ColorTask,18.0,30.0,,,HRV,HRV_0112,2022-11-30 18:19:26
,wl-rdm,38,147300,0.0-6.30-0.30,0.0,38.0,,,,,,,[],,,,,,87.9,1.0,i,1.0,True,706.3999998569489,43.0,60.0,40.0,False,,339.295877531981,[],"[960, 540]",ColorTask,19.0,31.0,,,HRV,HRV_0112,2022-11-30 18:19:26
,wl-rdm,39,150683,0.0-6.31-0.31,0.0,39.0,,,,,,,[],,,,,,50.0,0.0,i,1.0,False,2098.4000000953674,126.0,60.0,40.0,False,,200.99815205735354,[],"[960, 540]",ColorTask,18.0,32.0,,,HRV,HRV_0112,2022-11-30 18:19:26
,wl-rdm,40,152666,0.0-6.32-0.32,0.0,40.0,,,,,,,[],,,,,,73.6,0.0,u,0.0,True,682.0999999046326,41.0,60.0,40.0,False,,232.8230386842435,[],"[960, 540]",ColorTask,19.0,33.0,,,HRV,HRV_0112,2022-11-30 18:19:26
,wl-rdm,41,154866,0.0-6.33-0.33,0.0,41.0,,,,,,,[],,,,,,87.9,1.0,i,1.0,True,733.2000000476837,44.0,60.0,40.0,False,,398.9222367110916,[],"[960, 540]",ColorTask,20.0,34.0,,,HRV,HRV_0112,2022-11-30 18:19:26
,wl-rdm,42,157666,0.0-6.34-0.34,0.0,42.0,,,,,,,[],,,,,,53.2,0.0,u,0.0,True,1332.3000001907349,80.0,60.0,40.0,False,,389.3268335739982,[],"[960, 540]",ColorTask,21.0,35.0,,,HRV,HRV_0112,2022-11-30 18:19:26
,wl-rdm,43,159833,0.0-6.35-0.35,0.0,43.0,,,,,,,[],,,,,,73.6,0.0,u,0.0,True,841.9000000953674,51.0,60.0,40.0,False,,257.0685526827931,[],"[960, 540]",ColorTask,22.0,36.0,,,HRV,HRV_0112,2022-11-30 18:19:26
,wl-rdm,44,162266,0.0-6.36-0.36,0.0,44.0,,,,,,,[],,,,,,56.4,1.0,i,1.0,True,1125.2000000476837,68.0,60.0,40.0,False,,218.34811822260244,[],"[960, 540]",ColorTask,23.0,37.0,,,HRV,HRV_0112,2022-11-30 18:19:26
,wl-rdm,45,164799,0.0-6.37-0.37,0.0,45.0,,,,,,,[],,,,,,87.9,1.0,i,1.0,True,1219.5,74.0,60.0,40.0,False,,226.37715243841058,[],"[960, 540]",ColorTask,24.0,38.0,,,HRV,HRV_0112,2022-11-30 18:19:26
,wl-rdm,46,167583,0.0-6.38-0.38,0.0,46.0,,,,,,,[],,,,,,50.0,0.0,u,0.0,True,1494.8000001907349,90.0,60.0,40.0,False,,212.74055062810874,[],"[960, 540]",ColorTask,25.0,39.0,,,HRV,HRV_0112,2022-11-30 18:19:26
,wl-rdm,47,170366,0.0-6.39-0.39,0.0,47.0,,,,,,,[],,,,,,56.4,0.0,u,0.0,True,1428.1000001430511,86.0,60.0,40.0,False,,286.1327728429374,[],"[960, 540]",ColorTask,26.0,40.0,,,HRV,HRV_0112,2022-11-30 18:19:26
,wl-rdm,48,173482,0.0-6.40-0.40,0.0,48.0,,,,,,,[],,,,,,53.2,1.0,i,1.0,True,1715.5,103.0,60.0,40.0,False,,325.5995905516669,[],"[960, 540]",ColorTask,27.0,41.0,,,HRV,HRV_0112,2022-11-30 18:19:26
,wl-rdm,49,176566,0.0-6.41-0.41,0.0,49.0,,,,,,,[],,,,,,53.2,0.0,u,0.0,True,1669.9000000953674,101.0,60.0,40.0,False,,338.54683111770134,[],"[960, 540]",ColorTask,28.0,42.0,,,HRV,HRV_0112,2022-11-30 18:19:26
,wl-rdm,50,179516,0.0-6.42-0.42,0.0,50.0,,,,,,,[],,,,,,53.2,0.0,i,1.0,False,1572.0,95.0,60.0,40.0,False,,301.28759305073066,[],"[960, 540]",ColorTask,27.0,43.0,,,HRV,HRV_0112,2022-11-30 18:19:26
,wl-rdm,51,181715,0.0-6.43-0.43,0.0,51.0,,,,,,,[],,,,,,73.6,0.0,u,0.0,True,855.5,52.0,60.0,40.0,False,,267.3266995721847,[],"[960, 540]",ColorTask,28.0,44.0,,,HRV,HRV_0112,2022-11-30 18:19:26
,wl-rdm,52,184349,0.0-6.44-0.44,0.0,52.0,,,,,,,[],,,,,,87.9,0.0,u,0.0,True,1312.2999999523163,79.0,60.0,40.0,False,,258.2736335533464,[],"[960, 540]",ColorTask,29.0,45.0,,,HRV,HRV_0112,2022-11-30 18:19:26
,wl-rdm,53,186999,0.0-6.45-0.45,0.0,53.0,,,,,,,[],,,,,,73.6,0.0,u,0.0,True,1219.0,74.0,60.0,40.0,False,,355.66387903551833,[],"[960, 540]",ColorTask,30.0,46.0,,,HRV,HRV_0112,2022-11-30 18:19:26
,wl-rdm,54,190415,0.0-6.46-0.46,0.0,54.0,,,,,,,[],,,,,,53.2,1.0,i,1.0,True,2110.5999999046326,127.0,60.0,40.0,False,,229.15879833179906,[],"[960, 540]",ColorTask,31.0,47.0,,,HRV,HRV_0112,2022-11-30 18:19:26
,wl-rdm,55,193098,0.0-6.47-0.47,0.0,55.0,,,,,,,[],,,,,,62.5,0.0,u,0.0,True,1257.5,76.0,60.0,40.0,False,,336.95295859334664,[],"[960, 540]",ColorTask,32.0,48.0,,,HRV,HRV_0112,2022-11-30 18:19:26
,wl-rdm,56,196682,0.0-6.48-0.48,0.0,56.0,,,,,,,[],,,,,,56.4,1.0,i,1.0,True,2241.5,135.0,60.0,40.0,False,,254.44857337142253,[],"[960, 540]",ColorTask,33.0,49.0,,,HRV,HRV_0112,2022-11-30 18:19:26
,wl-rdm,57,200081,0.0-6.49-0.49,0.0,57.0,,,,,,,[],,,,,,56.4,1.0,i,1.0,True,1983.7999999523163,120.0,60.0,40.0,False,,322.31959378562686,[],"[960, 540]",ColorTask,34.0,50.0,,,HRV,HRV_0112,2022-11-30 18:19:26
,wl-rdm,58,203781,0.0-6.50-0.50,0.0,58.0,,,,,,,[],,,,,,53.2,1.0,i,1.0,True,2371.0,143.0,60.0,40.0,False,,233.2745232336221,[],"[960, 540]",ColorTask,35.0,51.0,,,HRV,HRV_0112,2022-11-30 18:19:26
,wl-rdm,59,207067,0.0-6.51-0.51,0.0,59.0,,,,,,,[],,,,,,56.4,1.0,i,1.0,True,1933.5,117.0,60.0,40.0,False,,274.9936810630511,[],"[960, 540]",ColorTask,36.0,52.0,,,HRV,HRV_0112,2022-11-30 18:19:26
,wl-rdm,60,210184,0.0-6.52-0.52,0.0,60.0,,,,,,,[],,,,,,53.2,1.0,i,1.0,True,1729.0999999046326,104.0,60.0,40.0,False,,314.7503950491709,[],"[960, 540]",ColorTask,37.0,53.0,,,HRV,HRV_0112,2022-11-30 18:19:26
,wl-rdm,61,212350,0.0-6.53-0.53,0.0,61.0,,,,,,,[],,,,,,73.6,1.0,i,1.0,True,822.6000001430511,50.0,60.0,40.0,False,,264.4710721934294,[],"[960, 540]",ColorTask,38.0,54.0,,,HRV,HRV_0112,2022-11-30 18:19:26
,wl-rdm,62,215617,0.0-6.54-0.54,0.0,62.0,,,,,,,[],,,,,,50.0,1.0,i,1.0,True,1911.0999999046326,115.0,60.0,40.0,False,,279.0472161539966,[],"[960, 540]",ColorTask,39.0,55.0,,,HRV,HRV_0112,2022-11-30 18:19:26
,wl-rdm,63,219100,0.0-6.55-0.55,0.0,63.0,,,,,,,[],,,,,,62.5,1.0,i,1.0,True,2141.399999856949,129.0,60.0,40.0,False,,257.6503401600056,[],"[960, 540]",ColorTask,40.0,56.0,,,HRV,HRV_0112,2022-11-30 18:19:26
,wl-rdm,64,221550,0.0-6.56-0.56,0.0,64.0,,,,,,,[],,,,,,62.5,0.0,u,0.0,True,1022.4000000953674,62.0,60.0,40.0,False,,349.4857897938374,[],"[960, 540]",ColorTask,41.0,57.0,,,HRV,HRV_0112,2022-11-30 18:19:26
,wl-rdm,65,224533,0.0-6.57-0.57,0.0,65.0,,,,,,,[],,,,,,62.5,0.0,u,0.0,True,1706.0,103.0,60.0,40.0,False,,213.04847092830184,[],"[960, 540]",ColorTask,42.0,58.0,,,HRV,HRV_0112,2022-11-30 18:19:26
,wl-rdm,66,228083,0.0-6.58-0.58,0.0,66.0,,,,,,,[],,,,,,50.0,0.0,i,1.0,False,2201.0999999046326,133.0,60.0,40.0,False,,250.2256107136031,[],"[960, 540]",ColorTask,41.0,59.0,,,HRV,HRV_0112,2022-11-30 18:19:26
,wl-rdm,67,230766,0.0-6.59-0.59,0.0,67.0,,,,,,,[],,,,,,53.2,1.0,i,1.0,True,1313.2999999523163,79.0,60.0,40.0,False,,303.60270825060013,[],"[960, 540]",ColorTask,42.0,60.0,,,HRV,HRV_0112,2022-11-30 18:19:26
,wl-rdm,68,232816,0.0-6.60-0.60,0.0,68.0,,,,,,,[],,,,,,87.9,1.0,i,1.0,True,753.8000001907349,46.0,60.0,40.0,False,,205.86230959411728,[],"[960, 540]",ColorTask,43.0,61.0,,,HRV,HRV_0112,2022-11-30 18:19:26
,wl-rdm,69,236666,0.0-6.61-0.61,0.0,69.0,,,,,,,[],,,,,,50.0,1.0,i,1.0,True,2435.2999999523163,147.0,60.0,40.0,False,,326.7687691138832,[],"[960, 540]",ColorTask,44.0,62.0,,,HRV,HRV_0112,2022-11-30 18:19:26
,wl-rdm,70,239516,0.0-6.62-0.62,0.0,70.0,,,,,,,[],,,,,,62.5,1.0,i,1.0,True,1432.2999999523163,86.0,60.0,40.0,False,,334.2570753490201,[],"[960, 540]",ColorTask,45.0,63.0,,,HRV,HRV_0112,2022-11-30 18:19:26
,wl-rdm,71,242066,0.0-6.63-0.63,0.0,71.0,,,,,,,[],,,,,,56.4,0.0,i,1.0,False,1225.9000000953674,74.0,60.0,40.0,False,,262.415963483591,[],"[960, 540]",ColorTask,44.0,64.0,,,HRV,HRV_0112,2022-11-30 18:19:26
,wl-rdm,72,243966,0.0-6.64-0.64,0.0,72.0,,,,,,,[],,,,,,73.6,1.0,i,1.0,True,597.3000001907349,36.0,60.0,40.0,False,,227.78152418101965,[],"[960, 540]",ColorTask,45.0,65.0,,,HRV,HRV_0112,2022-11-30 18:19:26
,wl-rdm,73,246666,0.0-6.65-0.65,0.0,73.0,,,,,,,[],,,,,,56.4,0.0,u,0.0,True,1376.2999999523163,83.0,60.0,40.0,False,,244.90810050579216,[],"[960, 540]",ColorTask,46.0,66.0,,,HRV,HRV_0112,2022-11-30 18:19:26
,wl-rdm,74,248966,0.0-6.66-0.66,0.0,74.0,,,,,,,[],,,,,,62.5,1.0,i,1.0,True,906.1000001430511,55.0,60.0,40.0,False,,309.0562150445792,[],"[960, 540]",ColorTask,47.0,67.0,,,HRV,HRV_0112,2022-11-30 18:19:26
,wl-rdm,75,251066,0.0-6.67-0.67,0.0,75.0,,,,,,,[],,,,,,87.9,0.0,u,0.0,True,743.5,45.0,60.0,40.0,False,,266.72229542140093,[],"[960, 540]",ColorTask,48.0,68.0,,,HRV,HRV_0112,2022-11-30 18:19:26
,wl-rdm,76,253915,0.0-6.68-0.68,0.0,76.0,,,,,,,[],,,,,,56.4,0.0,u,0.0,True,1417.3999998569489,86.0,60.0,40.0,False,,343.8896972105218,[],"[960, 540]",ColorTask,49.0,69.0,,,HRV,HRV_0112,2022-11-30 18:19:26
,wl-rdm,77,256949,0.0-6.69-0.69,0.0,77.0,,,,,,,[],,,,,,56.4,1.0,i,1.0,True,1640.3000001907349,99.0,60.0,40.0,False,,316.67807522826854,[],"[960, 540]",ColorTask,50.0,70.0,,,HRV,HRV_0112,2022-11-30 18:19:26
,wl-rdm,78,260132,0.0-6.70-0.70,0.0,78.0,,,,,,,[],,,,,,56.4,0.0,u,0.0,True,1865.4000000953674,112.0,60.0,40.0,False,,234.95149390237458,[],"[960, 540]",ColorTask,51.0,71.0,,,HRV,HRV_0112,2022-11-30 18:19:26
,wl-rdm,79,262482,0.0-6.71-0.71,0.0,79.0,,,,,,,[],,,,,,73.6,1.0,i,1.0,True,959.5,58.0,60.0,40.0,False,,305.8072869185105,[],"[960, 540]",ColorTask,52.0,72.0,,,HRV,HRV_0112,2022-11-30 18:19:26
,wl-rdm,80,264482,0.0-6.72-0.72,0.0,80.0,,,,,,,[],,,,,,87.9,0.0,u,0.0,True,668.7000000476837,41.0,60.0,40.0,False,,240.6392693566548,[],"[960, 540]",ColorTask,53.0,73.0,,,HRV,HRV_0112,2022-11-30 18:19:26
,wl-rdm,81,268284,0.0-6.73-0.73,0.0,81.0,,,,,,,[],,,,,,53.2,1.0,u,0.0,False,2326.5999999046326,140.0,60.0,40.0,False,,391.3553447040881,[],"[960, 540]",ColorTask,52.0,74.0,,,HRV,HRV_0112,2022-11-30 18:19:26
,wl-rdm,82,270867,0.0-6.74-0.74,0.0,82.0,,,,,,,[],,,,,,53.2,1.0,i,1.0,True,1143.5000002384186,69.0,60.0,40.0,False,,378.28715745123156,[],"[960, 540]",ColorTask,53.0,75.0,,,HRV,HRV_0112,2022-11-30 18:19:26
,wl-rdm,83,273684,0.0-6.75-0.75,0.0,83.0,,,,,,,[],,,,,,53.2,0.0,u,0.0,True,1401.5999999046326,85.0,60.0,40.0,False,,345.3785315735754,[],"[960, 540]",ColorTask,54.0,76.0,,,HRV,HRV_0112,2022-11-30 18:19:26
,wl-rdm,84,275733,0.0-6.76-0.76,0.0,84.0,,,,,,,[],,,,,,87.9,1.0,i,1.0,True,642.1000001430511,39.0,60.0,40.0,False,,329.6138531690092,[],"[960, 540]",ColorTask,55.0,77.0,,,HRV,HRV_0112,2022-11-30 18:19:26
,wl-rdm,85,278850,0.0-6.77-0.77,0.0,85.0,,,,,,,[],,,,,,50.0,1.0,i,1.0,True,1778.5,107.0,60.0,40.0,False,,254.1803850438402,[],"[960, 540]",ColorTask,56.0,78.0,,,HRV,HRV_0112,2022-11-30 18:19:26
,wl-rdm,86,282633,0.0-6.78-0.78,0.0,86.0,,,,,,,[],,,,,,50.0,0.0,i,1.0,False,2386.800000190735,144.0,60.0,40.0,False,,329.7432893799328,[],"[960, 540]",ColorTask,55.0,79.0,,,HRV,HRV_0112,2022-11-30 18:19:26
,wl-rdm,87,285216,0.0-6.79-0.79,0.0,87.0,,,,,,,[],,,,,,62.5,1.0,i,1.0,True,1154.0999999046326,70.0,60.0,40.0,False,,350.27172873475666,[],"[960, 540]",ColorTask,56.0,80.0,,,HRV,HRV_0112,2022-11-30 18:19:26
,wl-rdm,88,288100,0.0-6.80-0.80,0.0,88.0,,,,,,,[],,,,,,50.0,1.0,i,1.0,True,1551.8999998569489,94.0,60.0,40.0,False,,235.1831818308464,[],"[960, 540]",ColorTask,57.0,81.0,,,HRV,HRV_0112,2022-11-30 18:19:26
,wl-rdm,89,290700,0.0-6.81-0.81,0.0,89.0,,,,,,,[],,,,,,56.4,0.0,u,0.0,True,1309.8999998569489,79.0,60.0,40.0,False,,206.17884639953175,[],"[960, 540]",ColorTask,58.0,82.0,,,HRV,HRV_0112,2022-11-30 18:19:26
,wl-rdm,90,292716,0.0-6.82-0.82,0.0,90.0,,,,,,,[],,,,,,87.9,0.0,u,0.0,True,700.5999999046326,43.0,60.0,40.0,False,,236.83384707609844,[],"[960, 540]",ColorTask,59.0,83.0,,,HRV,HRV_0112,2022-11-30 18:19:26
,wl-rdm,91,295316,0.0-6.83-0.83,0.0,91.0,,,,,,,[],,,,,,62.5,0.0,u,0.0,True,1167.2000000476837,71.0,60.0,40.0,False,,355.34086784412943,[],"[960, 540]",ColorTask,60.0,84.0,,,HRV,HRV_0112,2022-11-30 18:19:26
,wl-rdm,92,297833,0.0-6.84-0.84,0.0,92.0,,,,,,,[],,,,,,56.4,1.0,i,1.0,True,1037.8000001907349,63.0,60.0,40.0,False,,388.1972233246667,[],"[960, 540]",ColorTask,61.0,85.0,,,HRV,HRV_0112,2022-11-30 18:19:26
,wl-rdm,93,300066,0.0-6.85-0.85,0.0,93.0,,,,,,,[],,,,,,87.9,0.0,u,0.0,True,787.0,48.0,60.0,40.0,False,,378.4204505172501,[],"[960, 540]",ColorTask,62.0,86.0,,,HRV,HRV_0112,2022-11-30 18:19:26
,wl-rdm,94,302516,0.0-6.86-0.86,0.0,94.0,,,,,,,[],,,,,,56.4,0.0,u,0.0,True,1041.7999999523163,63.0,60.0,40.0,False,,342.44851447645993,[],"[960, 540]",ColorTask,63.0,87.0,,,HRV,HRV_0112,2022-11-30 18:19:26
,wl-rdm,95,305732,0.0-6.87-0.87,0.0,95.0,,,,,,,[],,,,,,53.2,0.0,i,1.0,False,1816.5,109.0,60.0,40.0,False,,342.71867575867304,[],"[960, 540]",ColorTask,62.0,88.0,,,HRV,HRV_0112,2022-11-30 18:19:26
,wl-rdm,96,308199,0.0-6.88-0.88,0.0,96.0,,,,,,,[],,,,,,62.5,1.0,u,0.0,False,997.7000000476837,60.0,60.0,40.0,False,,390.0006270447698,[],"[960, 540]",ColorTask,61.0,89.0,,,HRV,HRV_0112,2022-11-30 18:19:26
,wl-rdm,97,310366,0.0-6.89-0.89,0.0,97.0,,,,,,,[],,,,,,87.9,0.0,u,0.0,True,873.7999999523163,53.0,60.0,40.0,False,,230.92427975362912,[],"[960, 540]",ColorTask,62.0,90.0,,,HRV,HRV_0112,2022-11-30 18:19:26
,wl-rdm,98,312349,0.0-6.90-0.90,0.0,98.0,,,,,,,[],,,,,,87.9,1.0,i,1.0,True,583.0,35.0,60.0,40.0,False,,325.30291255530153,[],"[960, 540]",ColorTask,63.0,91.0,,,HRV,HRV_0112,2022-11-30 18:19:26
,wl-rdm,99,314782,0.0-6.91-0.91,0.0,99.0,,,,,,,[],,,,,,62.5,0.0,u,0.0,True,964.8999998569489,58.0,60.0,40.0,False,,386.4778978992443,[],"[960, 540]",ColorTask,64.0,92.0,,,HRV,HRV_0112,2022-11-30 18:19:26
,wl-rdm,100,316882,0.0-6.92-0.92,0.0,100.0,,,,,,,[],,,,,,73.6,0.0,u,0.0,True,803.2999999523163,49.0,60.0,40.0,False,,212.0388291075013,[],"[960, 540]",ColorTask,65.0,93.0,,,HRV,HRV_0112,2022-11-30 18:19:26
,wl-rdm,101,319382,0.0-6.93-0.93,0.0,101.0,,,,,,,[],,,,,,50.0,0.0,u,0.0,True,1207.5,73.0,60.0,40.0,False,,210.31742153817297,[],"[960, 540]",ColorTask,66.0,94.0,,,HRV,HRV_0112,2022-11-30 18:19:26
,wl-rdm,102,321765,0.0-6.94-0.94,0.0,102.0,,,,,,,[],,,,,,73.6,0.0,u,0.0,True,1049.4000000953674,63.0,60.0,40.0,False,,253.62989928588053,[],"[960, 540]",ColorTask,67.0,95.0,,,HRV,HRV_0112,2022-11-30 18:19:26
,wl-rdm,103,324098,0.0-6.95-0.95,0.0,103.0,,,,,,,[],,,,,,73.6,1.0,i,1.0,True,1010.5999999046326,61.0,60.0,40.0,False,,236.93666730981218,[],"[960, 540]",ColorTask,68.0,96.0,,,HRV,HRV_0112,2022-11-30 18:19:26
,wl-rdm,104,326334,0.0-6.96-0.96,0.0,104.0,,,,,,,[],,,,,,73.6,1.0,i,1.0,True,901.0,55.0,60.0,40.0,False,,257.3117889404301,[],"[960, 540]",ColorTask,69.0,97.0,,,HRV,HRV_0112,2022-11-30 18:19:26
,wl-rdm,105,328484,0.0-6.97-0.97,0.0,105.0,,,,,,,[],,,,,,87.9,1.0,i,1.0,True,770.2999999523163,47.0,60.0,40.0,False,,294.4882464538177,[],"[960, 540]",ColorTask,70.0,98.0,,,HRV,HRV_0112,2022-11-30 18:19:26
,wl-rdm,106,330484,0.0-6.98-0.98,0.0,106.0,,,,,,,[],,,,,,87.9,0.0,u,0.0,True,636.2999999523163,39.0,60.0,40.0,False,,291.5069232765687,[],"[960, 540]",ColorTask,71.0,99.0,,,HRV,HRV_0112,2022-11-30 18:19:26
,wl-rdm,107,334716,0.0-6.99-0.99,0.0,107.0,,,,,,,[],,,,,,56.4,1.0,u,0.0,False,2768.7000000476837,167.0,60.0,40.0,False,,365.18259898947974,[],"[960, 540]",ColorTask,70.0,100.0,,,HRV,HRV_0112,2022-11-30 18:19:26
,wl-rdm,108,336966,0.0-6.100-0.100,0.0,108.0,,,,,,,[],,,,,,50.0,1.0,i,1.0,True,816.3999998569489,49.0,60.0,40.0,False,,357.6008203281849,[],"[960, 540]",ColorTask,71.0,101.0,,,HRV,HRV_0112,2022-11-30 18:19:26
,wl-rdm,109,339633,0.0-6.101-0.101,0.0,109.0,,,,,,,[],,,,,,53.2,0.0,i,1.0,False,1263.5999999046326,76.0,60.0,40.0,False,,325.89776719564065,[],"[960, 540]",ColorTask,70.0,102.0,,,HRV,HRV_0112,2022-11-30 18:19:26
,wl-rdm,110,343033,0.0-6.102-0.102,0.0,110.0,,,,,,,[],,,,,,53.2,0.0,u,0.0,True,1988.3000001907349,120.0,60.0,40.0,False,,340.0402608638566,[],"[960, 540]",ColorTask,71.0,103.0,,,HRV,HRV_0112,2022-11-30 18:19:26
,wl-rdm,111,345550,0.0-6.103-0.103,0.0,111.0,,,,,,,[],,,,,,50.0,0.0,u,0.0,True,1225.2999999523163,74.0,60.0,40.0,False,,221.61940791876663,[],"[960, 540]",ColorTask,72.0,104.0,,,HRV,HRV_0112,2022-11-30 18:19:26
,wl-rdm,112,348700,0.0-6.104-0.104,0.0,112.0,,,,,,,[],,,,,,50.0,1.0,u,0.0,False,1836.6000001430511,111.0,60.0,40.0,False,,217.54573394468284,[],"[960, 540]",ColorTask,71.0,105.0,,,HRV,HRV_0112,2022-11-30 18:19:26
,wl-rdm,113,350983,0.0-6.105-0.105,0.0,113.0,,,,,,,[],,,,,,53.2,1.0,i,1.0,True,900.7999999523163,55.0,60.0,40.0,False,,292.88648429612454,[],"[960, 540]",ColorTask,72.0,106.0,,,HRV,HRV_0112,2022-11-30 18:19:26
,wl-rdm,114,353301,0.0-6.106-0.106,0.0,114.0,,,,,,,[],,,,,,62.5,0.0,u,0.0,True,953.5999999046326,58.0,60.0,40.0,False,,279.9282276057863,[],"[960, 540]",ColorTask,73.0,107.0,,,HRV,HRV_0112,2022-11-30 18:19:26
,wl-rdm,115,356699,0.0-6.107-0.107,0.0,115.0,,,,,,,[],,,,,,50.0,0.0,u,0.0,True,1936.9000000953674,117.0,60.0,40.0,False,,371.85065429198005,[],"[960, 540]",ColorTask,74.0,108.0,,,HRV,HRV_0112,2022-11-30 18:19:26
,wl-rdm,116,358899,0.0-6.108-0.108,0.0,116.0,,,,,,,[],,,,,,87.9,1.0,i,1.0,True,778.3999998569489,47.0,60.0,40.0,False,,348.32586814406307,[],"[960, 540]",ColorTask,75.0,109.0,,,HRV,HRV_0112,2022-11-30 18:19:26
,wl-html-keyboard-response,117,373111,0.0-7.0-0.0,1.0,117.0,,,,,,,,12203.899999856949,1.0,0,,,,,,,,,,,,,,,,,,,,,,HRV,HRV_0112,2022-11-30 18:19:26
,wl-rdm,118,375248,0.0-8.0-0.0,1.0,118.0,,,,,,,[],,,,,,87.9,0.0,u,0.0,True,689.2000000476837,42.0,60.0,40.0,False,,379.5355587229956,[],"[960, 540]",ColorTask,76.0,1.0,,,HRV,HRV_0112,2022-11-30 18:19:26
,wl-rdm,119,377899,0.0-8.1-0.1,1.0,119.0,,,,,,,[],,,,,,50.0,1.0,u,0.0,False,1287.3000001907349,78.0,60.0,40.0,False,,274.91313411771984,[],"[960, 540]",ColorTask,75.0,2.0,,,HRV,HRV_0112,2022-11-30 18:19:26
,wl-rdm,120,379965,0.0-8.2-0.2,1.0,120.0,,,,,,,[],,,,,,87.9,1.0,i,1.0,True,660.0000002384186,40.0,60.0,40.0,False,,317.61661876308057,[],"[960, 540]",ColorTask,76.0,3.0,,,HRV,HRV_0112,2022-11-30 18:19:26
,wl-rdm,121,381998,0.0-8.3-0.3,1.0,121.0,,,,,,,[],,,,,,87.9,1.0,i,1.0,True,658.2999999523163,40.0,60.0,40.0,False,,285.4951427399462,[],"[960, 540]",ColorTask,77.0,4.0,,,HRV,HRV_0112,2022-11-30 18:19:26
,wl-rdm,122,384582,0.0-8.4-0.4,1.0,122.0,,,,,,,[],,,,,,62.5,0.0,u,0.0,True,1251.1000001430511,76.0,60.0,40.0,False,,237.6159040737991,[],"[960, 540]",ColorTask,78.0,5.0,,,HRV,HRV_0112,2022-11-30 18:19:26
,wl-rdm,123,386767,0.0-8.5-0.5,1.0,123.0,,,,,,,[],,,,,,87.9,0.0,u,0.0,True,751.7000000476837,46.0,60.0,40.0,False,,345.4767657319321,[],"[960, 540]",ColorTask,79.0,6.0,,,HRV,HRV_0112,2022-11-30 18:19:26
,wl-rdm,124,388850,0.0-8.6-0.6,1.0,124.0,,,,,,,[],,,,,,56.4,1.0,i,1.0,True,780.5,47.0,60.0,40.0,False,,234.73568821321672,[],"[960, 540]",ColorTask,80.0,7.0,,,HRV,HRV_0112,2022-11-30 18:19:26
,wl-rdm,125,390967,0.0-8.7-0.7,1.0,125.0,,,,,,,[],,,,,,87.9,0.0,u,0.0,True,826.5,50.0,60.0,40.0,False,,201.6423484068404,[],"[960, 540]",ColorTask,81.0,8.0,,,HRV,HRV_0112,2022-11-30 18:19:26
,wl-rdm,126,393050,0.0-8.8-0.8,1.0,126.0,,,,,,,[],,,,,,73.6,1.0,i,1.0,True,630.2999999523163,38.0,60.0,40.0,False,,388.12509213678925,[],"[960, 540]",ColorTask,82.0,9.0,,,HRV,HRV_0112,2022-11-30 18:19:26
,wl-rdm,127,395016,0.0-8.9-0.9,1.0,127.0,,,,,,,[],,,,,,73.6,1.0,i,1.0,True,566.0,34.0,60.0,40.0,False,,330.95950011134227,[],"[960, 540]",ColorTask,83.0,10.0,,,HRV,HRV_0112,2022-11-30 18:19:26
,wl-rdm,128,397216,0.0-8.10-0.10,1.0,128.0,,,,,,,[],,,,,,62.5,0.0,u,0.0,True,782.8000001907349,47.0,60.0,40.0,False,,343.8201263003018,[],"[960, 540]",ColorTask,84.0,11.0,,,HRV,HRV_0112,2022-11-30 18:19:26
,wl-rdm,129,400066,0.0-8.11-0.11,1.0,129.0,,,,,,,[],,,,,,53.2,1.0,i,1.0,True,1405.9999997615814,85.0,60.0,40.0,False,,381.90547217132,[],"[960, 540]",ColorTask,85.0,12.0,,,HRV,HRV_0112,2022-11-30 18:19:26
,wl-rdm,130,402516,0.0-8.12-0.12,1.0,130.0,,,,,,,[],,,,,,53.2,0.0,u,0.0,True,1128.7000000476837,68.0,60.0,40.0,False,,244.48611471764715,[],"[960, 540]",ColorTask,86.0,13.0,,,HRV,HRV_0112,2022-11-30 18:19:26
,wl-rdm,131,405433,0.0-8.13-0.13,1.0,131.0,,,,,,,[],,,,,,53.2,1.0,i,1.0,True,1515.2999999523163,91.0,60.0,40.0,False,,319.0042251933818,[],"[960, 540]",ColorTask,87.0,14.0,,,HRV,HRV_0112,2022-11-30 18:19:26
,wl-rdm,132,408149,0.0-8.14-0.14,1.0,132.0,,,,,,,[],,,,,,56.4,1.0,i,1.0,True,1360.7999999523163,82.0,60.0,40.0,False,,276.8582378864545,[],"[960, 540]",ColorTask,88.0,15.0,,,HRV,HRV_0112,2022-11-30 18:19:26
,wl-rdm,133,410966,0.0-8.15-0.15,1.0,133.0,,,,,,,[],,,,,,50.0,0.0,i,1.0,False,1526.0,92.0,60.0,40.0,False,,229.865847006574,[],"[960, 540]",ColorTask,87.0,16.0,,,HRV,HRV_0112,2022-11-30 18:19:26
,wl-rdm,134,413249,0.0-8.16-0.16,1.0,134.0,,,,,,,[],,,,,,53.2,0.0,u,0.0,True,1006.1999998092651,61.0,60.0,40.0,False,,210.65407291364002,[],"[960, 540]",ColorTask,88.0,17.0,,,HRV,HRV_0112,2022-11-30 18:19:26
,wl-rdm,135,416216,0.0-8.17-0.17,1.0,135.0,,,,,,,[],,,,,,56.4,0.0,u,0.0,True,1699.0,102.0,60.0,40.0,False,,202.16879590114488,[],"[960, 540]",ColorTask,89.0,18.0,,,HRV,HRV_0112,2022-11-30 18:19:26
,wl-rdm,136,419349,0.0-8.18-0.18,1.0,136.0,,,,,,,[],,,,,,53.2,1.0,i,1.0,True,1711.2000000476837,103.0,60.0,40.0,False,,335.3078298099573,[],"[960, 540]",ColorTask,90.0,19.0,,,HRV,HRV_0112,2022-11-30 18:19:26
,wl-rdm,137,421282,0.0-8.19-0.19,1.0,137.0,,,,,,,[],,,,,,87.9,0.0,u,0.0,True,639.2999999523163,39.0,60.0,40.0,False,,204.61220572050632,[],"[960, 540]",ColorTask,91.0,20.0,,,HRV,HRV_0112,2022-11-30 18:19:26
,wl-rdm,138,423966,0.0-8.20-0.20,1.0,138.0,,,,,,,[],,,,,,50.0,0.0,u,0.0,True,1409.9000000953674,85.0,60.0,40.0,False,,215.878312231535,[],"[960, 540]",ColorTask,92.0,21.0,,,HRV,HRV_0112,2022-11-30 18:19:26
,wl-rdm,139,426716,0.0-8.21-0.21,1.0,139.0,,,,,,,[],,,,,,56.4,1.0,i,1.0,True,1305.0,79.0,60.0,40.0,False,,358.96299975042535,[],"[960, 540]",ColorTask,93.0,22.0,,,HRV,HRV_0112,2022-11-30 18:19:26
,wl-rdm,140,429115,0.0-8.22-0.22,1.0,140.0,,,,,,,[],,,,,,50.0,1.0,u,0.0,False,1113.0999999046326,67.0,60.0,40.0,False,,225.18876890388333,[],"[960, 540]",ColorTask,92.0,23.0,,,HRV,HRV_0112,2022-11-30 18:19:26
,wl-rdm,141,432699,0.0-8.23-0.23,1.0,141.0,,,,,,,[],,,,,,56.4,0.0,i,1.0,False,2105.800000190735,127.0,60.0,40.0,False,,390.1095299950074,[],"[960, 540]",ColorTask,91.0,24.0,,,HRV,HRV_0112,2022-11-30 18:19:26
,wl-rdm,142,434849,0.0-8.24-0.24,1.0,142.0,,,,,,,[],,,,,,73.6,0.0,u,0.0,True,757.5,46.0,60.0,40.0,False,,314.8253076246741,[],"[960, 540]",ColorTask,92.0,25.0,,,HRV,HRV_0112,2022-11-30 18:19:26
,wl-rdm,143,437299,0.0-8.25-0.25,1.0,143.0,,,,,,,[],,,,,,50.0,0.0,u,0.0,True,1055.7999999523163,64.0,60.0,40.0,False,,313.3698143910681,[],"[960, 540]",ColorTask,93.0,26.0,,,HRV,HRV_0112,2022-11-30 18:19:26
,wl-rdm,144,439315,0.0-8.26-0.26,1.0,144.0,,,,,,,[],,,,,,87.9,0.0,u,0.0,True,629.9999997615814,38.0,60.0,40.0,False,,312.4238324458429,[],"[960, 540]",ColorTask,94.0,27.0,,,HRV,HRV_0112,2022-11-30 18:19:26
,wl-rdm,145,442048,0.0-8.27-0.27,1.0,145.0,,,,,,,[],,,,,,62.5,1.0,i,1.0,True,1382.6999998092651,83.0,60.0,40.0,False,,266.8895295984091,[],"[960, 540]",ColorTask,95.0,28.0,,,HRV,HRV_0112,2022-11-30 18:19:26
,wl-rdm,146,444365,0.0-8.28-0.28,1.0,146.0,,,,,,,[],,,,,,73.6,1.0,i,1.0,True,920.1000001430511,56.0,60.0,40.0,False,,308.08212089971846,[],"[960, 540]",ColorTask,96.0,29.0,,,HRV,HRV_0112,2022-11-30 18:19:26
,wl-rdm,147,446434,0.0-8.29-0.29,1.0,147.0,,,,,,,[],,,,,,73.6,0.0,u,0.0,True,774.6000001430511,47.0,60.0,40.0,False,,219.80395007380557,[],"[960, 540]",ColorTask,97.0,30.0,,,HRV,HRV_0112,2022-11-30 18:19:26
,wl-rdm,148,449434,0.0-8.30-0.30,1.0,148.0,,,,,,,[],,,,,,56.4,1.0,i,1.0,True,1584.1000001430511,96.0,60.0,40.0,False,,328.5532092612024,[],"[960, 540]",ColorTask,98.0,31.0,,,HRV,HRV_0112,2022-11-30 18:19:26
,wl-rdm,149,452251,0.0-8.31-0.31,1.0,149.0,,,,,,,[],,,,,,56.4,0.0,u,0.0,True,1374.7999999523163,83.0,60.0,40.0,False,,358.8167110081232,[],"[960, 540]",ColorTask,99.0,32.0,,,HRV,HRV_0112,2022-11-30 18:19:26
,wl-rdm,150,454251,0.0-8.32-0.32,1.0,150.0,,,,,,,[],,,,,,87.9,0.0,u,0.0,True,657.5999999046326,40.0,60.0,40.0,False,,272.38174314642214,[],"[960, 540]",ColorTask,100.0,33.0,,,HRV,HRV_0112,2022-11-30 18:19:26
,wl-rdm,151,456400,0.0-8.33-0.33,1.0,151.0,,,,,,,[],,,,,,62.5,1.0,i,1.0,True,859.2999999523163,52.0,60.0,40.0,False,,231.71442218550158,[],"[960, 540]",ColorTask,101.0,34.0,,,HRV,HRV_0112,2022-11-30 18:19:26
,wl-rdm,152,459750,0.0-8.34-0.34,1.0,152.0,,,,,,,[],,,,,,53.2,0.0,u,0.0,True,1904.0999999046326,115.0,60.0,40.0,False,,371.0398239258991,[],"[960, 540]",ColorTask,102.0,35.0,,,HRV,HRV_0112,2022-11-30 18:19:26
,wl-rdm,153,462717,0.0-8.35-0.35,1.0,153.0,,,,,,,[],,,,,,53.2,1.0,i,1.0,True,1622.7000000476837,98.0,60.0,40.0,False,,266.4619015510487,[],"[960, 540]",ColorTask,103.0,36.0,,,HRV,HRV_0112,2022-11-30 18:19:26
,wl-rdm,154,464900,0.0-8.36-0.36,1.0,154.0,,,,,,,[],,,,,,73.6,1.0,i,1.0,True,714.4000000953674,43.0,60.0,40.0,False,,387.9397676385985,[],"[960, 540]",ColorTask,104.0,37.0,,,HRV,HRV_0112,2022-11-30 18:19:26
,wl-rdm,155,467318,0.0-8.37-0.37,1.0,155.0,,,,,,,[],,,,,,62.5,1.0,i,1.0,True,1088.7000002861023,66.0,60.0,40.0,False,,252.4853013338422,[],"[960, 540]",ColorTask,105.0,38.0,,,HRV,HRV_0112,2022-11-30 18:19:26
,wl-rdm,156,470266,0.0-8.38-0.38,1.0,156.0,,,,,,,[],,,,,,50.0,1.0,u,0.0,False,1491.4000000953674,90.0,60.0,40.0,False,,375.34866613641697,[],"[960, 540]",ColorTask,104.0,39.0,,,HRV,HRV_0112,2022-11-30 18:19:26
,wl-rdm,157,473016,0.0-8.39-0.39,1.0,157.0,,,,,,,[],,,,,,53.2,1.0,i,1.0,True,1402.2000002861023,85.0,60.0,40.0,False,,265.04780250497936,[],"[960, 540]",ColorTask,105.0,40.0,,,HRV,HRV_0112,2022-11-30 18:19:26
,wl-rdm,158,475383,0.0-8.40-0.40,1.0,158.0,,,,,,,[],,,,,,62.5,0.0,u,0.0,True,1036.5999999046326,63.0,60.0,40.0,False,,239.33713615413012,[],"[960, 540]",ColorTask,106.0,41.0,,,HRV,HRV_0112,2022-11-30 18:19:26
,wl-rdm,159,478633,0.0-8.41-0.41,1.0,159.0,,,,,,,[],,,,,,56.4,1.0,i,1.0,True,1884.3999998569489,114.0,60.0,40.0,False,,267.06990792439336,[],"[960, 540]",ColorTask,107.0,42.0,,,HRV,HRV_0112,2022-11-30 18:19:26
,wl-rdm,160,481149,0.0-8.42-0.42,1.0,160.0,,,,,,,[],,,,,,73.6,1.0,i,1.0,True,1129.3999998569489,68.0,60.0,40.0,False,,304.42512715612577,[],"[960, 540]",ColorTask,108.0,43.0,,,HRV,HRV_0112,2022-11-30 18:19:26
,wl-rdm,161,483683,0.0-8.43-0.43,1.0,161.0,,,,,,,[],,,,,,50.0,0.0,i,1.0,False,1174.3000001907349,71.0,60.0,40.0,False,,277.91913089666826,[],"[960, 540]",ColorTask,107.0,44.0,,,HRV,HRV_0112,2022-11-30 18:19:26
,wl-rdm,162,487216,0.0-8.44-0.44,1.0,162.0,,,,,,,[],,,,,,56.4,0.0,u,0.0,True,2219.199999809265,134.0,60.0,40.0,False,,223.48579926456594,[],"[960, 540]",ColorTask,108.0,45.0,,,HRV,HRV_0112,2022-11-30 18:19:26
,wl-rdm,163,490266,0.0-8.45-0.45,1.0,163.0,,,,,,,[],,,,,,56.4,0.0,u,0.0,True,1600.7999999523163,97.0,60.0,40.0,False,,361.3964197154595,[],"[960, 540]",ColorTask,109.0,46.0,,,HRV,HRV_0112,2022-11-30 18:19:26
,wl-rdm,164,493066,0.0-8.46-0.46,1.0,164.0,,,,,,,[],,,,,,50.0,1.0,u,0.0,False,1334.2000000476837,81.0,60.0,40.0,False,,381.0294589135406,[],"[960, 540]",ColorTask,108.0,47.0,,,HRV,HRV_0112,2022-11-30 18:19:26
,wl-rdm,165,495033,0.0-8.47-0.47,1.0,165.0,,,,,,,[],,,,,,87.9,1.0,i,1.0,True,652.7000000476837,40.0,60.0,40.0,False,,225.1919006038347,[],"[960, 540]",ColorTask,109.0,48.0,,,HRV,HRV_0112,2022-11-30 18:19:26
,wl-rdm,166,497582,0.0-8.48-0.48,1.0,166.0,,,,,,,[],,,,,,53.2,1.0,i,1.0,True,1212.2000000476837,73.0,60.0,40.0,False,,256.1888469281354,[],"[960, 540]",ColorTask,110.0,49.0,,,HRV,HRV_0112,2022-11-30 18:19:26
,wl-rdm,167,500299,0.0-8.49-0.49,1.0,167.0,,,,,,,[],,,,,,62.5,0.0,u,0.0,True,1357.3999998569489,82.0,60.0,40.0,False,,274.3069529646851,[],"[960, 540]",ColorTask,111.0,50.0,,,HRV,HRV_0112,2022-11-30 18:19:26
,wl-rdm,168,502816,0.0-8.50-0.50,1.0,168.0,,,,,,,[],,,,,,53.2,0.0,u,0.0,True,1144.3999998569489,69.0,60.0,40.0,False,,292.1711945240736,[],"[960, 540]",ColorTask,112.0,51.0,,,HRV,HRV_0112,2022-11-30 18:19:26
,wl-rdm,169,505899,0.0-8.51-0.51,1.0,169.0,,,,,,,[],,,,,,73.6,0.0,u,0.0,True,1674.7000000476837,101.0,60.0,40.0,False,,317.5145247276208,[],"[960, 540]",ColorTask,113.0,52.0,,,HRV,HRV_0112,2022-11-30 18:19:26
,wl-rdm,170,508567,0.0-8.52-0.52,1.0,170.0,,,,,,,[],,,,,,56.4,1.0,i,1.0,True,1312.5999999046326,79.0,60.0,40.0,False,,282.78496845123124,[],"[960, 540]",ColorTask,114.0,53.0,,,HRV,HRV_0112,2022-11-30 18:19:26
,wl-rdm,171,511033,0.0-8.53-0.53,1.0,171.0,,,,,,,[],,,,,,73.6,0.0,u,0.0,True,1168.7000000476837,71.0,60.0,40.0,False,,201.95967817741973,[],"[960, 540]",ColorTask,115.0,54.0,,,HRV,HRV_0112,2022-11-30 18:19:26
,wl-rdm,172,513683,0.0-8.54-0.54,1.0,172.0,,,,,,,[],,,,,,62.5,0.0,u,0.0,True,1250.2999999523163,76.0,60.0,40.0,False,,315.3802293374443,[],"[960, 540]",ColorTask,116.0,55.0,,,HRV,HRV_0112,2022-11-30 18:19:26
,wl-rdm,173,516767,0.0-8.55-0.55,1.0,173.0,,,,,,,[],,,,,,50.0,1.0,u,0.0,False,1804.2999999523163,109.0,60.0,40.0,False,,215.85414763720016,[],"[960, 540]",ColorTask,115.0,56.0,,,HRV,HRV_0112,2022-11-30 18:19:26
,wl-rdm,174,518617,0.0-8.56-0.56,1.0,174.0,,,,,,,[],,,,,,87.9,1.0,i,1.0,True,511.0,31.0,60.0,40.0,False,,262.324394090483,[],"[960, 540]",ColorTask,116.0,57.0,,,HRV,HRV_0112,2022-11-30 18:19:26
,wl-rdm,175,520583,0.0-8.57-0.57,1.0,175.0,,,,,,,[],,,,,,73.6,1.0,i,1.0,True,645.8999998569489,39.0,60.0,40.0,False,,246.39760117447668,[],"[960, 540]",ColorTask,117.0,58.0,,,HRV,HRV_0112,2022-11-30 18:19:26
,wl-rdm,176,522800,0.0-8.58-0.58,1.0,176.0,,,,,,,[],,,,,,62.5,1.0,i,1.0,True,904.0999999046326,55.0,60.0,40.0,False,,219.8448910580355,[],"[960, 540]",ColorTask,118.0,59.0,,,HRV,HRV_0112,2022-11-30 18:19:26
,wl-rdm,177,525033,0.0-8.59-0.59,1.0,177.0,,,,,,,[],,,,,,53.2,1.0,i,1.0,True,936.2999999523163,57.0,60.0,40.0,False,,206.52892389081617,[],"[960, 540]",ColorTask,119.0,60.0,,,HRV,HRV_0112,2022-11-30 18:19:26
,wl-rdm,178,527233,0.0-8.60-0.60,1.0,178.0,,,,,,,[],,,,,,53.2,0.0,i,1.0,False,819.6999998092651,50.0,60.0,40.0,False,,295.5730756062975,[],"[960, 540]",ColorTask,118.0,61.0,,,HRV,HRV_0112,2022-11-30 18:19:26
,wl-rdm,179,529366,0.0-8.61-0.61,1.0,179.0,,,,,,,[],,,,,,56.4,0.0,u,0.0,True,688.1000001430511,42.0,60.0,40.0,False,,376.7323828217864,[],"[960, 540]",ColorTask,119.0,62.0,,,HRV,HRV_0112,2022-11-30 18:19:26
,wl-rdm,180,531883,0.0-8.62-0.62,1.0,180.0,,,,,,,[],,,,,,62.5,1.0,i,1.0,True,1115.9999997615814,67.0,60.0,40.0,False,,340.9539111525561,[],"[960, 540]",ColorTask,120.0,63.0,,,HRV,HRV_0112,2022-11-30 18:19:26
,wl-rdm,181,534016,0.0-8.63-0.63,1.0,181.0,,,,,,,[],,,,,,50.0,0.0,i,1.0,False,820.0,49.0,60.0,40.0,False,,217.78274904392404,[],"[960, 540]",ColorTask,119.0,64.0,,,HRV,HRV_0112,2022-11-30 18:19:26
,wl-rdm,182,536249,0.0-8.64-0.64,1.0,182.0,,,,,,,[],,,,,,62.5,1.0,i,1.0,True,944.2999999523163,57.0,60.0,40.0,False,,211.97570404631367,[],"[960, 540]",ColorTask,120.0,65.0,,,HRV,HRV_0112,2022-11-30 18:19:26
,wl-rdm,183,538833,0.0-8.65-0.65,1.0,183.0,,,,,,,[],,,,,,53.2,1.0,u,0.0,False,1310.1000001430511,79.0,60.0,40.0,False,,216.02244415525738,[],"[960, 540]",ColorTask,119.0,66.0,,,HRV,HRV_0112,2022-11-30 18:19:26
,wl-rdm,184,540899,0.0-8.66-0.66,1.0,184.0,,,,,,,[],,,,,,87.9,0.0,u,0.0,True,699.0,42.0,60.0,40.0,False,,307.1541108303552,[],"[960, 540]",ColorTask,120.0,67.0,,,HRV,HRV_0112,2022-11-30 18:19:26
,wl-rdm,185,542816,0.0-8.67-0.67,1.0,185.0,,,,,,,[],,,,,,87.9,1.0,i,1.0,True,620.6000001430511,38.0,60.0,40.0,False,,210.10707262030422,[],"[960, 540]",ColorTask,121.0,68.0,,,HRV,HRV_0112,2022-11-30 18:19:26
,wl-rdm,186,545149,0.0-8.68-0.68,1.0,186.0,,,,,,,[],,,,,,62.5,1.0,i,1.0,True,1006.8000001907349,61.0,60.0,40.0,False,,245.23863382594305,[],"[960, 540]",ColorTask,122.0,69.0,,,HRV,HRV_0112,2022-11-30 18:19:26
,wl-rdm,187,547199,0.0-8.69-0.69,1.0,187.0,,,,,,,[],,,,,,62.5,0.0,u,0.0,True,662.5999999046326,40.0,60.0,40.0,False,,315.6646636157581,[],"[960, 540]",ColorTask,123.0,70.0,,,HRV,HRV_0112,2022-11-30 18:19:26
,wl-rdm,188,549782,0.0-8.70-0.70,1.0,188.0,,,,,,,[],,,,,,50.0,1.0,u,0.0,False,1280.0,77.0,60.0,40.0,False,,228.75209693875405,[],"[960, 540]",ColorTask,122.0,71.0,,,HRV,HRV_0112,2022-11-30 18:19:26
,wl-rdm,189,551632,0.0-8.71-0.71,1.0,189.0,,,,,,,[],,,,,,87.9,1.0,i,1.0,True,511.2000000476837,31.0,60.0,40.0,False,,260.9784417060419,[],"[960, 540]",ColorTask,123.0,72.0,,,HRV,HRV_0112,2022-11-30 18:19:26
,wl-rdm,190,553882,0.0-8.72-0.72,1.0,190.0,,,,,,,[],,,,,,56.4,0.0,u,0.0,True,851.1999998092651,52.0,60.0,40.0,False,,300.0123394930889,[],"[960, 540]",ColorTask,124.0,73.0,,,HRV,HRV_0112,2022-11-30 18:19:26
,wl-rdm,191,556099,0.0-8.73-0.73,1.0,191.0,,,,,,,[],,,,,,87.9,0.0,u,0.0,True,908.7000000476837,55.0,60.0,40.0,False,,223.8266421037186,[],"[960, 540]",ColorTask,125.0,74.0,,,HRV,HRV_0112,2022-11-30 18:19:26
,wl-rdm,192,559549,0.0-8.74-0.74,1.0,192.0,,,,,,,[],,,,,,50.0,1.0,i,1.0,True,2163.899999856949,130.0,60.0,40.0,False,,231.06509579072267,[],"[960, 540]",ColorTask,126.0,75.0,,,HRV,HRV_0112,2022-11-30 18:19:26
,wl-rdm,193,561549,0.0-8.75-0.75,1.0,193.0,,,,,,,[],,,,,,62.5,1.0,i,1.0,True,664.9000000953674,40.0,60.0,40.0,False,,260.1214661729424,[],"[960, 540]",ColorTask,127.0,76.0,,,HRV,HRV_0112,2022-11-30 18:19:26
,wl-rdm,194,563615,0.0-8.76-0.76,1.0,194.0,,,,,,,[],,,,,,73.6,0.0,u,0.0,True,745.5,45.0,60.0,40.0,False,,244.3315083145531,[],"[960, 540]",ColorTask,128.0,77.0,,,HRV,HRV_0112,2022-11-30 18:19:26
,wl-rdm,195,565649,0.0-8.77-0.77,1.0,195.0,,,,,,,[],,,,,,73.6,1.0,i,1.0,True,727.6000001430511,44.0,60.0,40.0,False,,232.81245886498692,[],"[960, 540]",ColorTask,129.0,78.0,,,HRV,HRV_0112,2022-11-30 18:19:26
,wl-rdm,196,567734,0.0-8.78-0.78,1.0,196.0,,,,,,,[],,,,,,87.9,1.0,i,1.0,True,765.7999999523163,46.0,60.0,40.0,False,,247.67301364209692,[],"[960, 540]",ColorTask,130.0,79.0,,,HRV,HRV_0112,2022-11-30 18:19:26
,wl-rdm,197,570134,0.0-8.79-0.79,1.0,197.0,,,,,,,[],,,,,,50.0,0.0,u,0.0,True,990.5,60.0,60.0,40.0,False,,335.0591515230708,[],"[960, 540]",ColorTask,131.0,80.0,,,HRV,HRV_0112,2022-11-30 18:19:26
,wl-rdm,198,572450,0.0-8.80-0.80,1.0,198.0,,,,,,,[],,,,,,53.2,0.0,u,0.0,True,987.0999999046326,60.0,60.0,40.0,False,,245.62650308850613,[],"[960, 540]",ColorTask,132.0,81.0,,,HRV,HRV_0112,2022-11-30 18:19:26
,wl-rdm,199,575983,0.0-8.81-0.81,1.0,199.0,,,,,,,[],,,,,,53.2,0.0,u,0.0,True,2189.7999999523163,132.0,60.0,40.0,False,,250.97814572961374,[],"[960, 540]",ColorTask,133.0,82.0,,,HRV,HRV_0112,2022-11-30 18:19:26
,wl-rdm,200,579133,0.0-8.82-0.82,1.0,200.0,,,,,,,[],,,,,,50.0,1.0,i,1.0,True,1817.0,110.0,60.0,40.0,False,,234.4319912895338,[],"[960, 540]",ColorTask,134.0,83.0,,,HRV,HRV_0112,2022-11-30 18:19:26
,wl-rdm,201,581050,0.0-8.83-0.83,1.0,201.0,,,,,,,[],,,,,,87.9,1.0,i,1.0,True,611.5,37.0,60.0,40.0,False,,225.08265896024605,[],"[960, 540]",ColorTask,135.0,84.0,,,HRV,HRV_0112,2022-11-30 18:19:26
,wl-rdm,202,583116,0.0-8.84-0.84,1.0,202.0,,,,,,,[],,,,,,73.6,0.0,u,0.0,True,775.8999998569489,47.0,60.0,40.0,False,,211.51688857649953,[],"[960, 540]",ColorTask,136.0,85.0,,,HRV,HRV_0112,2022-11-30 18:19:26
,wl-rdm,203,585000,0.0-8.85-0.85,1.0,203.0,,,,,,,[],,,,,,87.9,0.0,u,0.0,True,597.0,36.0,60.0,40.0,False,,208.49337153208563,[],"[960, 540]",ColorTask,137.0,86.0,,,HRV,HRV_0112,2022-11-30 18:19:26
,wl-rdm,204,587583,0.0-8.86-0.86,1.0,204.0,,,,,,,[],,,,,,62.5,0.0,u,0.0,True,1265.1000001430511,76.0,60.0,40.0,False,,244.36010251476827,[],"[960, 540]",ColorTask,138.0,87.0,,,HRV,HRV_0112,2022-11-30 18:19:26
,wl-rdm,205,589866,0.0-8.87-0.87,1.0,205.0,,,,,,,[],,,,,,53.2,0.0,u,0.0,True,976.8000001907349,59.0,60.0,40.0,False,,248.6456376694085,[],"[960, 540]",ColorTask,139.0,88.0,,,HRV,HRV_0112,2022-11-30 18:19:26
,wl-rdm,206,592650,0.0-8.88-0.88,1.0,206.0,,,,,,,[],,,,,,53.2,0.0,u,0.0,True,1404.5999999046326,85.0,60.0,40.0,False,,287.3564282186047,[],"[960, 540]",ColorTask,140.0,89.0,,,HRV,HRV_0112,2022-11-30 18:19:26
,wl-rdm,207,595683,0.0-8.89-0.89,1.0,207.0,,,,,,,[],,,,,,56.4,1.0,i,1.0,True,1669.4000000953674,101.0,60.0,40.0,False,,274.66229766162127,[],"[960, 540]",ColorTask,141.0,90.0,,,HRV,HRV_0112,2022-11-30 18:19:26
,wl-rdm,208,597549,0.0-8.90-0.90,1.0,208.0,,,,,,,[],,,,,,87.9,1.0,i,1.0,True,567.3000001907349,35.0,60.0,40.0,False,,203.27042489613046,[],"[960, 540]",ColorTask,142.0,91.0,,,HRV,HRV_0112,2022-11-30 18:19:26
,wl-rdm,209,599533,0.0-8.91-0.91,1.0,209.0,,,,,,,[],,,,,,56.4,0.0,u,0.0,True,658.2999999523163,40.0,60.0,40.0,False,,240.09799168409586,[],"[960, 540]",ColorTask,143.0,92.0,,,HRV,HRV_0112,2022-11-30 18:19:26
,wl-rdm,210,601633,0.0-8.92-0.92,1.0,210.0,,,,,,,[],,,,,,62.5,0.0,u,0.0,True,737.2000000476837,45.0,60.0,40.0,False,,292.6981844809905,[],"[960, 540]",ColorTask,144.0,93.0,,,HRV,HRV_0112,2022-11-30 18:19:26
,wl-rdm,211,605549,0.0-8.93-0.93,1.0,211.0,,,,,,,[],,,,,,50.0,0.0,u,0.0,True,2508.0,151.0,60.0,40.0,False,,317.66665080149596,[],"[960, 540]",ColorTask,145.0,94.0,,,HRV,HRV_0112,2022-11-30 18:19:26
,wl-rdm,212,608082,0.0-8.94-0.94,1.0,212.0,,,,,,,[],,,,,,62.5,0.0,u,0.0,True,1244.2999999523163,75.0,60.0,40.0,False,,200.96608944534302,[],"[960, 540]",ColorTask,146.0,95.0,,,HRV,HRV_0112,2022-11-30 18:19:26
,wl-rdm,213,610366,0.0-8.95-0.95,1.0,213.0,,,,,,,[],,,,,,62.5,1.0,i,1.0,True,990.3999998569489,60.0,60.0,40.0,False,,225.2224217426684,[],"[960, 540]",ColorTask,147.0,96.0,,,HRV,HRV_0112,2022-11-30 18:19:26
,wl-rdm,214,613282,0.0-8.96-0.96,1.0,214.0,,,,,,,[],,,,,,50.0,1.0,u,0.0,False,1441.9000000953674,87.0,60.0,40.0,False,,391.8951774806667,[],"[960, 540]",ColorTask,146.0,97.0,,,HRV,HRV_0112,2022-11-30 18:19:26
,wl-rdm,215,616015,0.0-8.97-0.97,1.0,215.0,,,,,,,[],,,,,,56.4,1.0,i,1.0,True,1397.3999998569489,84.0,60.0,40.0,False,,265.38841632126145,[],"[960, 540]",ColorTask,147.0,98.0,,,HRV,HRV_0112,2022-11-30 18:19:26
,wl-rdm,216,618482,0.0-8.98-0.98,1.0,216.0,,,,,,,[],,,,,,56.4,1.0,i,1.0,True,1044.7999999523163,63.0,60.0,40.0,False,,338.8418508720644,[],"[960, 540]",ColorTask,148.0,99.0,,,HRV,HRV_0112,2022-11-30 18:19:26
,wl-rdm,217,620949,0.0-8.99-0.99,1.0,217.0,,,,,,,[],,,,,,50.0,0.0,i,1.0,False,1067.5000002384186,65.0,60.0,40.0,False,,301.958321376883,[],"[960, 540]",ColorTask,147.0,100.0,,,HRV,HRV_0112,2022-11-30 18:19:26
,wl-rdm,218,623365,0.0-8.100-0.100,1.0,218.0,,,,,,,[],,,,,,73.6,1.0,i,1.0,True,1084.0999999046326,66.0,60.0,40.0,False,,233.51152816594694,[],"[960, 540]",ColorTask,148.0,101.0,,,HRV,HRV_0112,2022-11-30 18:19:26
,wl-rdm,219,625482,0.0-8.101-0.101,1.0,219.0,,,,,,,[],,,,,,73.6,0.0,u,0.0,True,786.900000333786,48.0,60.0,40.0,False,,237.026652215152,[],"[960, 540]",ColorTask,149.0,102.0,,,HRV,HRV_0112,2022-11-30 18:19:26
,wl-rdm,220,627567,0.0-8.102-0.102,1.0,220.0,,,,,,,[],,,,,,73.6,0.0,u,0.0,True,690.7000000476837,42.0,60.0,40.0,False,,318.5184708343174,[],"[960, 540]",ColorTask,150.0,103.0,,,HRV,HRV_0112,2022-11-30 18:19:26
,wl-rdm,221,629567,0.0-8.103-0.103,1.0,221.0,,,,,,,[],,,,,,73.6,0.0,u,0.0,True,699.2999999523163,42.0,60.0,40.0,False,,222.56712961091011,[],"[960, 540]",ColorTask,151.0,104.0,,,HRV,HRV_0112,2022-11-30 18:19:26
,wl-rdm,222,631850,0.0-8.104-0.104,1.0,222.0,,,,,,,[],,,,,,53.2,1.0,i,1.0,True,912.5,55.0,60.0,40.0,False,,284.46870508866954,[],"[960, 540]",ColorTask,152.0,105.0,,,HRV,HRV_0112,2022-11-30 18:19:26
,wl-rdm,223,634450,0.0-8.105-0.105,1.0,223.0,,,,,,,[],,,,,,56.4,0.0,i,1.0,False,1254.6999998092651,76.0,60.0,40.0,False,,262.6941344291565,[],"[960, 540]",ColorTask,151.0,106.0,,,HRV,HRV_0112,2022-11-30 18:19:26
,wl-rdm,224,637217,0.0-8.106-0.106,1.0,224.0,,,,,,,[],,,,,,50.0,0.0,i,1.0,False,1472.6999998092651,89.0,60.0,40.0,False,,209.48522927104963,[],"[960, 540]",ColorTask,150.0,107.0,,,HRV,HRV_0112,2022-11-30 18:19:26
,wl-rdm,225,639350,0.0-8.107-0.107,1.0,225.0,,,,,,,[],,,,,,73.6,1.0,i,1.0,True,708.7999997138977,43.0,60.0,40.0,False,,343.45103950793623,[],"[960, 540]",ColorTask,151.0,108.0,,,HRV,HRV_0112,2022-11-30 18:19:26
,wl-html-button-response,226,641444,0.0-9.0-0.0,,,,,,,,,,2092.600000143051,,0,,,,,,,,,,,,,,,,,,,,<h3>End of this session. Thank you!</h3><br>,['Close window'],HRV,HRV_0112,2022-11-30 18:19:26
