trialN,stimuli,trialStartTime,trialStartTime_UNIX,stimulus1,stimulus2,stimulus1Bid,stimulus2Bid,delta,selected,rt,rt_UNIX,rt_perfnow,receivedResponse,rsp,trialEndTime,trialDuration,trialEndTime_UNIX,trialDuration_UNIX,exp,subjectId,date
0,"[{'imgObject': {}, 'id': 'blueberries', 'src': '/static/foodstim60/blueberries.jpg', 'key': 'u', 'origWidth': 411, 'origHeight': 411, 'width': 411, 'height': 411, 'widthPercent': 0.45, 'rescaleHeight': False, 'trialN': 0, 'loaded': True, 'loadedTime': 2122.9000000059605, 'positionName': 'LEFT', 'positionCoords': [510.6, 334.5], 'bid': 5}, {'imgObject': {}, 'id': 'rigatoni and sauce', 'src': '/static/foodstim60/rigatoni and sauce.jpg', 'key': 'i', 'origWidth': 410, 'origHeight': 411, 'width': 410, 'height': 411, 'widthPercent': 0.45, 'rescaleHeight': False, 'trialN': 0, 'loaded': True, 'loadedTime': 2156.9000000059605, 'positionName': 'RIGHT', 'positionCoords': [998.4, 334.5], 'bid': 6.23}]",5449.9000000059605,1669830328518,blueberries,rigatoni and sauce,5.0,6.23,1.2300000000000004,blueberries,966.7999999821186,971,970.7999999821186,True,u,6935.5,1485.5999999940395,1669830330003,1485,HRV,HRV_0120,2022-11-30 17:49:28
1,"[{'imgObject': {}, 'id': 'hashbrowns', 'src': '/static/foodstim60/hashbrowns.jpg', 'key': 'u', 'origWidth': 411, 'origHeight': 410, 'width': 411, 'height': 410, 'widthPercent': 0.45, 'rescaleHeight': False, 'trialN': 1, 'loaded': True, 'loadedTime': 2134.199999988079, 'positionName': 'LEFT', 'positionCoords': [510.6, 335], 'bid': 2.13}, {'imgObject': {}, 'id': 'luckycharms', 'src': '/static/foodstim60/luckycharms.jpg', 'key': 'i', 'origWidth': 410, 'origHeight': 409, 'width': 410, 'height': 409, 'widthPercent': 0.45, 'rescaleHeight': False, 'trialN': 1, 'loaded': True, 'loadedTime': 2139.199999988079, 'positionName': 'RIGHT', 'positionCoords': [998.4, 335.5], 'bid': 2.54}]",6936.0,1669830330004,hashbrowns,luckycharms,2.13,2.54,0.41000000000000014,hashbrowns,1073.0999999940395,1074,1073.9000000059605,True,u,8511.90000000596,1575.9000000059605,1669830331580,1576,HRV,HRV_0120,2022-11-30 17:49:28
2,"[{'imgObject': {}, 'id': 'cantaloupe', 'src': '/static/foodstim60/cantaloupe.jpg', 'key': 'u', 'origWidth': 409, 'origHeight': 409, 'width': 409, 'height': 409, 'widthPercent': 0.45, 'rescaleHeight': False, 'trialN': 2, 'loaded': True, 'loadedTime': 2137.699999988079, 'positionName': 'LEFT', 'positionCoords': [512.6, 335.5], 'bid': 0.08}, {'imgObject': {}, 'id': 'seaweed', 'src': '/static/foodstim60/seaweed.jpg', 'key': 'i', 'origWidth': 410, 'origHeight': 410, 'width': 410, 'height': 410, 'widthPercent': 0.45, 'rescaleHeight': False, 'trialN': 2, 'loaded': True, 'loadedTime': 2134, 'positionName': 'RIGHT', 'positionCoords': [998.4, 335], 'bid': 0.11}]",8512.199999988079,1669830331580,cantaloupe,seaweed,0.08,0.11,0.03,cantaloupe,984.6000000238419,985,984.9000000059605,True,u,10004.800000011921,1492.6000000238419,1669830333073,1493,HRV,HRV_0120,2022-11-30 17:49:28
3,"[{'imgObject': {}, 'id': 'burrito', 'src': '/static/foodstim60/burrito.jpg', 'key': 'u', 'origWidth': 410, 'origHeight': 410, 'width': 410, 'height': 410, 'widthPercent': 0.45, 'rescaleHeight': False, 'trialN': 3, 'loaded': True, 'loadedTime': 2157.800000011921, 'positionName': 'LEFT', 'positionCoords': [511.6, 335], 'bid': 7.47}, {'imgObject': {}, 'id': 'tacos', 'src': '/static/foodstim60/tacos.jpg', 'key': 'i', 'origWidth': 411, 'origHeight': 411, 'width': 411, 'height': 411, 'widthPercent': 0.45, 'rescaleHeight': False, 'trialN': 3, 'loaded': True, 'loadedTime': 2223.699999988079, 'positionName': 'RIGHT', 'positionCoords': [998.4, 334.5], 'bid': 7.29}]",10005.0,1669830333073,burrito,tacos,7.47,7.29,-0.17999999999999972,burrito,868.0,868,868.3000000119209,True,u,11386.0,1381.0,1669830334454,1381,HRV,HRV_0120,2022-11-30 17:49:28
4,"[{'imgObject': {}, 'id': 'cherries', 'src': '/static/foodstim60/cherries.jpg', 'key': 'u', 'origWidth': 410, 'origHeight': 411, 'width': 410, 'height': 411, 'widthPercent': 0.45, 'rescaleHeight': False, 'trialN': 4, 'loaded': True, 'loadedTime': 2241.800000011921, 'positionName': 'LEFT', 'positionCoords': [511.6, 334.5], 'bid': 5.19}, {'imgObject': {}, 'id': 'rigatoni', 'src': '/static/foodstim60/rigatoni.jpg', 'key': 'i', 'origWidth': 411, 'origHeight': 411, 'width': 411, 'height': 411, 'widthPercent': 0.45, 'rescaleHeight': False, 'trialN': 4, 'loaded': True, 'loadedTime': 2265, 'positionName': 'RIGHT', 'positionCoords': [998.4, 334.5], 'bid': 5.08}]",11386.300000011921,1669830334454,cherries,rigatoni,5.19,5.08,-0.11000000000000032,rigatoni,974.2999999821186,975,974.5999999940395,True,i,12871.699999988079,1485.3999999761581,1669830335940,1486,HRV,HRV_0120,2022-11-30 17:49:28
5,"[{'imgObject': {}, 'id': 'shreddedwheatwithmilk', 'src': '/static/foodstim60/shreddedwheatwithmilk.jpg', 'key': 'u', 'origWidth': 410, 'origHeight': 410, 'width': 410, 'height': 410, 'widthPercent': 0.45, 'rescaleHeight': False, 'trialN': 5, 'loaded': True, 'loadedTime': 2283.9000000059605, 'positionName': 'LEFT', 'positionCoords': [511.6, 335], 'bid': 4.94}, {'imgObject': {}, 'id': 'banana', 'src': '/static/foodstim60/banana.jpg', 'key': 'i', 'origWidth': 410, 'origHeight': 410, 'width': 410, 'height': 410, 'widthPercent': 0.45, 'rescaleHeight': False, 'trialN': 5, 'loaded': True, 'loadedTime': 2292.0999999940395, 'positionName': 'RIGHT', 'positionCoords': [998.4, 335], 'bid': 5.01}]",12872.199999988079,1669830335940,shreddedwheatwithmilk,banana,4.94,5.01,0.0699999999999994,shreddedwheatwithmilk,896.4000000059605,897,896.8000000119209,True,u,14281.699999988079,1409.5,1669830337350,1410,HRV,HRV_0120,2022-11-30 17:49:28
6,"[{'imgObject': {}, 'id': 'mango', 'src': '/static/foodstim60/mango.jpg', 'key': 'u', 'origWidth': 411, 'origHeight': 411, 'width': 411, 'height': 411, 'widthPercent': 0.45, 'rescaleHeight': False, 'trialN': 6, 'loaded': True, 'loadedTime': 2308, 'positionName': 'LEFT', 'positionCoords': [510.6, 334.5], 'bid': 5.0200000000000005}, {'imgObject': {}, 'id': 'salad w chicken', 'src': '/static/foodstim60/salad w chicken.jpg', 'key': 'i', 'origWidth': 411, 'origHeight': 411, 'width': 411, 'height': 411, 'widthPercent': 0.45, 'rescaleHeight': False, 'trialN': 6, 'loaded': True, 'loadedTime': 2349.300000011921, 'positionName': 'RIGHT', 'positionCoords': [998.4, 334.5], 'bid': 5.0200000000000005}]",14282.5,1669830337350,mango,salad w chicken,5.0200000000000005,5.0200000000000005,0.0,salad w chicken,998.0,999,998.5,True,i,15790.699999988079,1508.199999988079,1669830338859,1509,HRV,HRV_0120,2022-11-30 17:49:28
7,"[{'imgObject': {}, 'id': 'sushi w_condiments', 'src': '/static/foodstim60/sushi w_condiments.jpg', 'key': 'u', 'origWidth': 410, 'origHeight': 410, 'width': 410, 'height': 410, 'widthPercent': 0.45, 'rescaleHeight': False, 'trialN': 7, 'loaded': True, 'loadedTime': 2357.4000000059605, 'positionName': 'LEFT', 'positionCoords': [511.6, 335], 'bid': 0.09}, {'imgObject': {}, 'id': 'baked potato', 'src': '/static/foodstim60/baked potato.jpg', 'key': 'i', 'origWidth': 409, 'origHeight': 410, 'width': 409, 'height': 410, 'widthPercent': 0.45, 'rescaleHeight': False, 'trialN': 7, 'loaded': True, 'loadedTime': 2393.5, 'positionName': 'RIGHT', 'positionCoords': [998.4, 335], 'bid': 0.66}]",15791.0,1669830338859,sushi w_condiments,baked potato,0.09,0.66,0.5700000000000001,baked potato,1313.4000000059605,1314,1313.699999988079,True,i,17619.40000000596,1828.4000000059605,1669830340687,1828,HRV,HRV_0120,2022-11-30 17:49:28
8,"[{'imgObject': {}, 'id': 'burger', 'src': '/static/foodstim60/burger.jpg', 'key': 'u', 'origWidth': 409, 'origHeight': 409, 'width': 409, 'height': 409, 'widthPercent': 0.45, 'rescaleHeight': False, 'trialN': 8, 'loaded': True, 'loadedTime': 2435.5999999940395, 'positionName': 'LEFT', 'positionCoords': [512.6, 335.5], 'bid': 7.890000000000001}, {'imgObject': {}, 'id': 'bagel plain', 'src': '/static/foodstim60/bagel plain.jpg', 'key': 'i', 'origWidth': 410, 'origHeight': 410, 'width': 410, 'height': 410, 'widthPercent': 0.45, 'rescaleHeight': False, 'trialN': 8, 'loaded': True, 'loadedTime': 2418.9000000059605, 'positionName': 'RIGHT', 'positionCoords': [998.4, 335], 'bid': 6.18}]",17619.69999998808,1669830340688,burger,bagel plain,7.890000000000001,6.18,-1.7100000000000009,burger,681.3000000119209,681,681.9000000059605,True,u,18811.0,1191.300000011921,1669830341879,1191,HRV,HRV_0120,2022-11-30 17:49:28
9,"[{'imgObject': {}, 'id': 'tacos', 'src': '/static/foodstim60/tacos.jpg', 'key': 'u', 'origWidth': 411, 'origHeight': 411, 'width': 411, 'height': 411, 'widthPercent': 0.45, 'rescaleHeight': False, 'trialN': 9, 'loaded': True, 'loadedTime': 2214.800000011921, 'positionName': 'LEFT', 'positionCoords': [510.6, 334.5], 'bid': 7.29}, {'imgObject': {}, 'id': 'raspberries', 'src': '/static/foodstim60/raspberries.jpg', 'key': 'i', 'origWidth': 411, 'origHeight': 411, 'width': 411, 'height': 411, 'widthPercent': 0.45, 'rescaleHeight': False, 'trialN': 9, 'loaded': True, 'loadedTime': 2451, 'positionName': 'RIGHT', 'positionCoords': [998.4, 334.5], 'bid': 8.85}]",18811.30000001192,1669830341879,tacos,raspberries,7.29,8.85,1.5599999999999996,tacos,745.1999999880791,746,745.5999999940395,True,u,20066.5,1255.199999988079,1669830343134,1255,HRV,HRV_0120,2022-11-30 17:49:28
10,"[{'imgObject': {}, 'id': 'roastedpotatoes', 'src': '/static/foodstim60/roastedpotatoes.jpg', 'key': 'u', 'origWidth': 409, 'origHeight': 410, 'width': 409, 'height': 410, 'widthPercent': 0.45, 'rescaleHeight': False, 'trialN': 10, 'loaded': True, 'loadedTime': 2467.5999999940395, 'positionName': 'LEFT', 'positionCoords': [512.6, 335], 'bid': 2.66}, {'imgObject': {}, 'id': 'sweetpotato', 'src': '/static/foodstim60/sweetpotato.jpg', 'key': 'i', 'origWidth': 410, 'origHeight': 410, 'width': 410, 'height': 410, 'widthPercent': 0.45, 'rescaleHeight': False, 'trialN': 10, 'loaded': True, 'loadedTime': 2482.300000011921, 'positionName': 'RIGHT', 'positionCoords': [998.4, 335], 'bid': 4.98}]",20066.69999998808,1669830343135,roastedpotatoes,sweetpotato,2.66,4.98,2.3200000000000003,sweetpotato,1058.1000000238419,1058,1058.5,True,i,21633.80000001192,1567.1000000238419,1669830344702,1567,HRV,HRV_0120,2022-11-30 17:49:28
11,"[{'imgObject': {}, 'id': 'fried eggs', 'src': '/static/foodstim60/fried eggs.jpg', 'key': 'u', 'origWidth': 410, 'origHeight': 410, 'width': 410, 'height': 410, 'widthPercent': 0.45, 'rescaleHeight': False, 'trialN': 11, 'loaded': True, 'loadedTime': 2474.4000000059605, 'positionName': 'LEFT', 'positionCoords': [511.6, 335], 'bid': 7.94}, {'imgObject': {}, 'id': 'mango', 'src': '/static/foodstim60/mango.jpg', 'key': 'i', 'origWidth': 411, 'origHeight': 411, 'width': 411, 'height': 411, 'widthPercent': 0.45, 'rescaleHeight': False, 'trialN': 11, 'loaded': True, 'loadedTime': 2310.300000011921, 'positionName': 'RIGHT', 'positionCoords': [998.4, 334.5], 'bid': 5.0200000000000005}]",21633.90000000596,1669830344702,fried eggs,mango,7.94,5.0200000000000005,-2.92,fried eggs,586.6999999880791,588,587.9000000059605,True,u,22730.5,1096.5999999940395,1669830345798,1096,HRV,HRV_0120,2022-11-30 17:49:28
12,"[{'imgObject': {}, 'id': 'olives', 'src': '/static/foodstim60/olives.jpg', 'key': 'u', 'origWidth': 410, 'origHeight': 410, 'width': 410, 'height': 410, 'widthPercent': 0.45, 'rescaleHeight': False, 'trialN': 12, 'loaded': True, 'loadedTime': 2478.300000011921, 'positionName': 'LEFT', 'positionCoords': [511.6, 335], 'bid': 0.13}, {'imgObject': {}, 'id': 'mac & cheese', 'src': '/static/foodstim60/mac & cheese.jpg', 'key': 'i', 'origWidth': 410, 'origHeight': 410, 'width': 410, 'height': 410, 'widthPercent': 0.45, 'rescaleHeight': False, 'trialN': 12, 'loaded': True, 'loadedTime': 2525.5999999940395, 'positionName': 'RIGHT', 'positionCoords': [998.4, 335], 'bid': 3.16}]",22730.80000001192,1669830345799,olives,mac & cheese,0.13,3.16,3.0300000000000002,mac & cheese,801.8999999761581,802,802.2999999821186,True,i,24053.90000000596,1323.0999999940395,1669830347122,1323,HRV,HRV_0120,2022-11-30 17:49:28
13,"[{'imgObject': {}, 'id': 'omelette', 'src': '/static/foodstim60/omelette.jpg', 'key': 'u', 'origWidth': 410, 'origHeight': 409, 'width': 410, 'height': 409, 'widthPercent': 0.45, 'rescaleHeight': False, 'trialN': 13, 'loaded': True, 'loadedTime': 2527, 'positionName': 'LEFT', 'positionCoords': [511.6, 335.5], 'bid': 5.01}, {'imgObject': {}, 'id': 'banana', 'src': '/static/foodstim60/banana.jpg', 'key': 'i', 'origWidth': 410, 'origHeight': 410, 'width': 410, 'height': 410, 'widthPercent': 0.45, 'rescaleHeight': False, 'trialN': 13, 'loaded': True, 'loadedTime': 2292.5999999940395, 'positionName': 'RIGHT', 'positionCoords': [998.4, 335], 'bid': 5.01}]",24054.19999998808,1669830347122,omelette,banana,5.01,5.01,0.0,banana,878.6000000238419,879,879.0,True,i,25445.30000001192,1391.1000000238419,1669830348513,1391,HRV,HRV_0120,2022-11-30 17:49:28
14,"[{'imgObject': {}, 'id': 'turkeysandwich', 'src': '/static/foodstim60/turkeysandwich.jpg', 'key': 'u', 'origWidth': 409, 'origHeight': 409, 'width': 409, 'height': 409, 'widthPercent': 0.45, 'rescaleHeight': False, 'trialN': 14, 'loaded': True, 'loadedTime': 2642.300000011921, 'positionName': 'LEFT', 'positionCoords': [512.6, 335.5], 'bid': 5.98}, {'imgObject': {}, 'id': 'avocado', 'src': '/static/foodstim60/avocado.jpg', 'key': 'i', 'origWidth': 409, 'origHeight': 409, 'width': 409, 'height': 409, 'widthPercent': 0.45, 'rescaleHeight': False, 'trialN': 14, 'loaded': True, 'loadedTime': 3284.9000000059605, 'positionName': 'RIGHT', 'positionCoords': [998.4, 335.5], 'bid': 1.47}]",25445.5,1669830348513,turkeysandwich,avocado,5.98,1.47,-4.510000000000001,turkeysandwich,631.0,632,631.4000000059605,True,u,26590.90000000596,1145.4000000059605,1669830349659,1146,HRV,HRV_0120,2022-11-30 17:49:28
15,"[{'imgObject': {}, 'id': 'luckycharms', 'src': '/static/foodstim60/luckycharms.jpg', 'key': 'u', 'origWidth': 410, 'origHeight': 409, 'width': 410, 'height': 409, 'widthPercent': 0.45, 'rescaleHeight': False, 'trialN': 15, 'loaded': True, 'loadedTime': 2137.800000011921, 'positionName': 'LEFT', 'positionCoords': [511.6, 335.5], 'bid': 2.54}, {'imgObject': {}, 'id': 'hotdog w must', 'src': '/static/foodstim60/hotdog w must.jpg', 'key': 'i', 'origWidth': 409, 'origHeight': 409, 'width': 409, 'height': 409, 'widthPercent': 0.45, 'rescaleHeight': False, 'trialN': 15, 'loaded': True, 'loadedTime': 3365.0999999940395, 'positionName': 'RIGHT', 'positionCoords': [998.4, 335.5], 'bid': 0.1}]",26591.09999999404,1669830349659,luckycharms,hotdog w must,2.54,0.1,-2.44,luckycharms,861.5999999940395,862,862.0,True,u,27970.59999999404,1379.5,1669830351038,1379,HRV,HRV_0120,2022-11-30 17:49:28
16,"[{'imgObject': {}, 'id': 'corn cob', 'src': '/static/foodstim60/corn cob.jpg', 'key': 'u', 'origWidth': 411, 'origHeight': 411, 'width': 411, 'height': 411, 'widthPercent': 0.45, 'rescaleHeight': False, 'trialN': 16, 'loaded': True, 'loadedTime': 3744.300000011921, 'positionName': 'LEFT', 'positionCoords': [510.6, 334.5], 'bid': 0}, {'imgObject': {}, 'id': 'cantaloupe', 'src': '/static/foodstim60/cantaloupe.jpg', 'key': 'i', 'origWidth': 409, 'origHeight': 409, 'width': 409, 'height': 409, 'widthPercent': 0.45, 'rescaleHeight': False, 'trialN': 16, 'loaded': True, 'loadedTime': 2137.0999999940395, 'positionName': 'RIGHT', 'positionCoords': [998.4, 335.5], 'bid': 0.08}]",27970.80000001192,1669830351039,corn cob,cantaloupe,0.0,0.08,0.08,corn cob,905.8999999761581,906,906.5,True,u,29390.59999999404,1419.7999999821186,1669830352459,1420,HRV,HRV_0120,2022-11-30 17:49:28
17,"[{'imgObject': {}, 'id': 'chickenfingers', 'src': '/static/foodstim60/chickenfingers.jpg', 'key': 'u', 'origWidth': 410, 'origHeight': 410, 'width': 410, 'height': 410, 'widthPercent': 0.45, 'rescaleHeight': False, 'trialN': 17, 'loaded': True, 'loadedTime': 3757.5999999940395, 'positionName': 'LEFT', 'positionCoords': [511.6, 335], 'bid': 0.95}, {'imgObject': {}, 'id': 'cantaloupe', 'src': '/static/foodstim60/cantaloupe.jpg', 'key': 'i', 'origWidth': 409, 'origHeight': 409, 'width': 409, 'height': 409, 'widthPercent': 0.45, 'rescaleHeight': False, 'trialN': 17, 'loaded': True, 'loadedTime': 2137.199999988079, 'positionName': 'RIGHT', 'positionCoords': [998.4, 335.5], 'bid': 0.08}]",29390.90000000596,1669830352459,chickenfingers,cantaloupe,0.95,0.08,-0.87,chickenfingers,693.2999999821186,693,693.5999999940395,True,u,30587.0,1196.0999999940395,1669830353655,1196,HRV,HRV_0120,2022-11-30 17:49:28
18,"[{'imgObject': {}, 'id': 'turkeysandwich', 'src': '/static/foodstim60/turkeysandwich.jpg', 'key': 'u', 'origWidth': 409, 'origHeight': 409, 'width': 409, 'height': 409, 'widthPercent': 0.45, 'rescaleHeight': False, 'trialN': 18, 'loaded': True, 'loadedTime': 2642.0999999940395, 'positionName': 'LEFT', 'positionCoords': [512.6, 335.5], 'bid': 5.98}, {'imgObject': {}, 'id': 'rigatoni and sauce', 'src': '/static/foodstim60/rigatoni and sauce.jpg', 'key': 'i', 'origWidth': 410, 'origHeight': 411, 'width': 410, 'height': 411, 'widthPercent': 0.45, 'rescaleHeight': False, 'trialN': 18, 'loaded': True, 'loadedTime': 2148, 'positionName': 'RIGHT', 'positionCoords': [998.4, 334.5], 'bid': 6.23}]",30587.30000001192,1669830353655,turkeysandwich,rigatoni and sauce,5.98,6.23,0.25,turkeysandwich,745.1999999880791,746,745.3999999761581,True,u,31841.59999999404,1254.2999999821186,1669830354909,1254,HRV,HRV_0120,2022-11-30 17:49:28
19,"[{'imgObject': {}, 'id': 'kiwi', 'src': '/static/foodstim60/kiwi.jpg', 'key': 'u', 'origWidth': 410, 'origHeight': 410, 'width': 410, 'height': 410, 'widthPercent': 0.45, 'rescaleHeight': False, 'trialN': 19, 'loaded': True, 'loadedTime': 3780.5999999940395, 'positionName': 'LEFT', 'positionCoords': [511.6, 335], 'bid': 9.13}, {'imgObject': {}, 'id': 'shreddedwheatwithmilk', 'src': '/static/foodstim60/shreddedwheatwithmilk.jpg', 'key': 'i', 'origWidth': 410, 'origHeight': 410, 'width': 410, 'height': 410, 'widthPercent': 0.45, 'rescaleHeight': False, 'trialN': 19, 'loaded': True, 'loadedTime': 2278.699999988079, 'positionName': 'RIGHT', 'positionCoords': [998.4, 335], 'bid': 4.94}]",31842.19999998808,1669830354910,kiwi,shreddedwheatwithmilk,9.13,4.94,-4.19,kiwi,698.0,698,698.3000000119209,True,u,33045.30000001192,1203.1000000238419,1669830356113,1203,HRV,HRV_0120,2022-11-30 17:49:28
20,"[{'imgObject': {}, 'id': 'sushi w_condiments', 'src': '/static/foodstim60/sushi w_condiments.jpg', 'key': 'u', 'origWidth': 410, 'origHeight': 410, 'width': 410, 'height': 410, 'widthPercent': 0.45, 'rescaleHeight': False, 'trialN': 20, 'loaded': True, 'loadedTime': 2359.300000011921, 'positionName': 'LEFT', 'positionCoords': [511.6, 335], 'bid': 0.09}, {'imgObject': {}, 'id': 'cantaloupe', 'src': '/static/foodstim60/cantaloupe.jpg', 'key': 'i', 'origWidth': 409, 'origHeight': 409, 'width': 409, 'height': 409, 'widthPercent': 0.45, 'rescaleHeight': False, 'trialN': 20, 'loaded': True, 'loadedTime': 2136.199999988079, 'positionName': 'RIGHT', 'positionCoords': [998.4, 335.5], 'bid': 0.08}]",33045.59999999404,1669830356113,sushi w_condiments,cantaloupe,0.09,0.08,-0.009999999999999995,sushi w_condiments,886.5999999940395,887,887.0,True,u,34441.59999999404,1396.0,1669830357509,1396,HRV,HRV_0120,2022-11-30 17:49:28
21,"[{'imgObject': {}, 'id': 'grilled chicken strips', 'src': '/static/foodstim60/grilled chicken strips.jpg', 'key': 'u', 'origWidth': 410, 'origHeight': 411, 'width': 410, 'height': 411, 'widthPercent': 0.45, 'rescaleHeight': False, 'trialN': 21, 'loaded': True, 'loadedTime': 3825.699999988079, 'positionName': 'LEFT', 'positionCoords': [511.6, 334.5], 'bid': 0.51}, {'imgObject': {}, 'id': 'baked potato', 'src': '/static/foodstim60/baked potato.jpg', 'key': 'i', 'origWidth': 409, 'origHeight': 410, 'width': 409, 'height': 410, 'widthPercent': 0.45, 'rescaleHeight': False, 'trialN': 21, 'loaded': True, 'loadedTime': 2393.199999988079, 'positionName': 'RIGHT', 'positionCoords': [998.4, 335], 'bid': 0.66}]",34442.0,1669830357510,grilled chicken strips,baked potato,0.51,0.66,0.15000000000000002,baked potato,1266.699999988079,1267,1267.0,True,i,36223.80000001192,1781.800000011921,1669830359292,1782,HRV,HRV_0120,2022-11-30 17:49:28
22,"[{'imgObject': {}, 'id': 'turkeysandwich', 'src': '/static/foodstim60/turkeysandwich.jpg', 'key': 'u', 'origWidth': 409, 'origHeight': 409, 'width': 409, 'height': 409, 'widthPercent': 0.45, 'rescaleHeight': False, 'trialN': 22, 'loaded': True, 'loadedTime': 2642, 'positionName': 'LEFT', 'positionCoords': [512.6, 335.5], 'bid': 5.98}, {'imgObject': {}, 'id': 'bagel and cc', 'src': '/static/foodstim60/bagel and cc.jpg', 'key': 'i', 'origWidth': 410, 'origHeight': 410, 'width': 410, 'height': 410, 'widthPercent': 0.45, 'rescaleHeight': False, 'trialN': 22, 'loaded': True, 'loadedTime': 3913.199999988079, 'positionName': 'RIGHT', 'positionCoords': [998.4, 335], 'bid': 7.72}]",36224.09999999404,1669830359292,turkeysandwich,bagel and cc,5.98,7.72,1.7399999999999993,turkeysandwich,1948.4000000059605,1949,1948.800000011921,True,u,38692.69999998808,2468.5999999940395,1669830361761,2469,HRV,HRV_0120,2022-11-30 17:49:28
23,"[{'imgObject': {}, 'id': 'chicken nuggets2', 'src': '/static/foodstim60/chicken nuggets2.jpg', 'key': 'u', 'origWidth': 410, 'origHeight': 409, 'width': 410, 'height': 409, 'widthPercent': 0.45, 'rescaleHeight': False, 'trialN': 23, 'loaded': True, 'loadedTime': 3960.0999999940395, 'positionName': 'LEFT', 'positionCoords': [511.6, 335.5], 'bid': 0.31}, {'imgObject': {}, 'id': 'olives', 'src': '/static/foodstim60/olives.jpg', 'key': 'i', 'origWidth': 410, 'origHeight': 410, 'width': 410, 'height': 410, 'widthPercent': 0.45, 'rescaleHeight': False, 'trialN': 23, 'loaded': True, 'loadedTime': 2477.199999988079, 'positionName': 'RIGHT', 'positionCoords': [998.4, 335], 'bid': 0.13}]",38692.80000001192,1669830361761,chicken nuggets2,olives,0.31,0.13,-0.18,chicken nuggets2,983.6999999880791,984,984.0999999940395,True,u,40189.90000000596,1497.0999999940395,1669830363259,1498,HRV,HRV_0120,2022-11-30 17:49:28
24,"[{'imgObject': {}, 'id': 'cocktailshrimp', 'src': '/static/foodstim60/cocktailshrimp.jpg', 'key': 'u', 'origWidth': 410, 'origHeight': 410, 'width': 410, 'height': 410, 'widthPercent': 0.45, 'rescaleHeight': False, 'trialN': 24, 'loaded': True, 'loadedTime': 3973, 'positionName': 'LEFT', 'positionCoords': [511.6, 335], 'bid': 0.04}, {'imgObject': {}, 'id': 'chicken nuggets2', 'src': '/static/foodstim60/chicken nuggets2.jpg', 'key': 'i', 'origWidth': 410, 'origHeight': 409, 'width': 410, 'height': 409, 'widthPercent': 0.45, 'rescaleHeight': False, 'trialN': 24, 'loaded': True, 'loadedTime': 3948.5999999940395, 'positionName': 'RIGHT', 'positionCoords': [998.4, 335.5], 'bid': 0.31}]",40190.09999999404,1669830363259,cocktailshrimp,chicken nuggets2,0.04,0.31,0.27,chicken nuggets2,1103.0,1103,1103.2000000178814,True,i,41805.19999998808,1615.0999999940395,1669830364874,1615,HRV,HRV_0120,2022-11-30 17:49:28
25,"[{'imgObject': {}, 'id': 'yogurt no spoon', 'src': '/static/foodstim60/yogurt no spoon.jpg', 'key': 'u', 'origWidth': 411, 'origHeight': 410, 'width': 411, 'height': 410, 'widthPercent': 0.45, 'rescaleHeight': False, 'trialN': 25, 'loaded': True, 'loadedTime': 3988.4000000059605, 'positionName': 'LEFT', 'positionCoords': [510.6, 335], 'bid': 8.040000000000001}, {'imgObject': {}, 'id': 'fried eggs', 'src': '/static/foodstim60/fried eggs.jpg', 'key': 'i', 'origWidth': 410, 'origHeight': 410, 'width': 410, 'height': 410, 'widthPercent': 0.45, 'rescaleHeight': False, 'trialN': 25, 'loaded': True, 'loadedTime': 2472.9000000059605, 'positionName': 'RIGHT', 'positionCoords': [998.4, 335], 'bid': 7.94}]",41805.5,1669830364874,yogurt no spoon,fried eggs,8.040000000000001,7.94,-0.10000000000000053,fried eggs,623.4000000059605,624,624.0,True,i,42940.09999999404,1134.5999999940395,1669830366009,1135,HRV,HRV_0120,2022-11-30 17:49:28
26,"[{'imgObject': {}, 'id': 'grilled chicken strips', 'src': '/static/foodstim60/grilled chicken strips.jpg', 'key': 'u', 'origWidth': 410, 'origHeight': 411, 'width': 410, 'height': 411, 'widthPercent': 0.45, 'rescaleHeight': False, 'trialN': 26, 'loaded': True, 'loadedTime': 3825, 'positionName': 'LEFT', 'positionCoords': [511.6, 334.5], 'bid': 0.51}, {'imgObject': {}, 'id': 'ice cream sundae 002', 'src': '/static/foodstim60/ice cream sundae 002.jpg', 'key': 'i', 'origWidth': 409, 'origHeight': 409, 'width': 409, 'height': 409, 'widthPercent': 0.45, 'rescaleHeight': False, 'trialN': 26, 'loaded': True, 'loadedTime': 3974.800000011921, 'positionName': 'RIGHT', 'positionCoords': [998.4, 335.5], 'bid': 0.77}]",42940.5,1669830366009,grilled chicken strips,ice cream sundae 002,0.51,0.77,0.26,ice cream sundae 002,832.6999999880791,833,833.1999999880791,True,i,44291.30000001192,1350.800000011921,1669830367360,1351,HRV,HRV_0120,2022-11-30 17:49:28
27,"[{'imgObject': {}, 'id': 'popsicles', 'src': '/static/foodstim60/popsicles.jpg', 'key': 'u', 'origWidth': 410, 'origHeight': 410, 'width': 410, 'height': 410, 'widthPercent': 0.45, 'rescaleHeight': False, 'trialN': 27, 'loaded': True, 'loadedTime': 4196.4000000059605, 'positionName': 'LEFT', 'positionCoords': [511.6, 335], 'bid': 2.59}, {'imgObject': {}, 'id': 'roastedpotatoes', 'src': '/static/foodstim60/roastedpotatoes.jpg', 'key': 'i', 'origWidth': 409, 'origHeight': 410, 'width': 409, 'height': 410, 'widthPercent': 0.45, 'rescaleHeight': False, 'trialN': 27, 'loaded': True, 'loadedTime': 2466, 'positionName': 'RIGHT', 'positionCoords': [998.4, 335], 'bid': 2.66}]",44291.5,1669830367360,popsicles,roastedpotatoes,2.59,2.66,0.07000000000000028,roastedpotatoes,1020.6999999880791,1021,1021.0999999940395,True,i,45824.19999998808,1532.699999988079,1669830368893,1533,HRV,HRV_0120,2022-11-30 17:49:28
28,"[{'imgObject': {}, 'id': 'veggieswithdip', 'src': '/static/foodstim60/veggieswithdip.jpg', 'key': 'u', 'origWidth': 409, 'origHeight': 409, 'width': 409, 'height': 409, 'widthPercent': 0.45, 'rescaleHeight': False, 'trialN': 28, 'loaded': True, 'loadedTime': 4266, 'positionName': 'LEFT', 'positionCoords': [512.6, 335.5], 'bid': 4.97}, {'imgObject': {}, 'id': 'popsicles', 'src': '/static/foodstim60/popsicles.jpg', 'key': 'i', 'origWidth': 410, 'origHeight': 410, 'width': 410, 'height': 410, 'widthPercent': 0.45, 'rescaleHeight': False, 'trialN': 28, 'loaded': True, 'loadedTime': 4195.9000000059605, 'positionName': 'RIGHT', 'positionCoords': [998.4, 335], 'bid': 2.59}]",45824.59999999404,1669830368893,veggieswithdip,popsicles,4.97,2.59,-2.38,veggieswithdip,715.9000000059605,717,716.4000000059605,True,u,47056.19999998808,1231.5999999940395,1669830370125,1232,HRV,HRV_0120,2022-11-30 17:49:28
29,"[{'imgObject': {}, 'id': 'seaweed', 'src': '/static/foodstim60/seaweed.jpg', 'key': 'u', 'origWidth': 410, 'origHeight': 410, 'width': 410, 'height': 410, 'widthPercent': 0.45, 'rescaleHeight': False, 'trialN': 29, 'loaded': True, 'loadedTime': 2133.800000011921, 'positionName': 'LEFT', 'positionCoords': [511.6, 335], 'bid': 0.11}, {'imgObject': {}, 'id': 'avocado', 'src': '/static/foodstim60/avocado.jpg', 'key': 'i', 'origWidth': 409, 'origHeight': 409, 'width': 409, 'height': 409, 'widthPercent': 0.45, 'rescaleHeight': False, 'trialN': 29, 'loaded': True, 'loadedTime': 3284.800000011921, 'positionName': 'RIGHT', 'positionCoords': [998.4, 335.5], 'bid': 1.47}]",47056.40000000596,1669830370125,seaweed,avocado,0.11,1.47,1.3599999999999999,avocado,731.9000000059605,732,732.2999999821186,True,i,48296.69999998808,1240.2999999821186,1669830371365,1240,HRV,HRV_0120,2022-11-30 17:49:28
30,"[{'imgObject': {}, 'id': 'avocado', 'src': '/static/foodstim60/avocado.jpg', 'key': 'u', 'origWidth': 409, 'origHeight': 409, 'width': 409, 'height': 409, 'widthPercent': 0.45, 'rescaleHeight': False, 'trialN': 30, 'loaded': True, 'loadedTime': 3273.199999988079, 'positionName': 'LEFT', 'positionCoords': [512.6, 335.5], 'bid': 1.47}, {'imgObject': {}, 'id': 'eggsalad', 'src': '/static/foodstim60/eggsalad.jpg', 'key': 'i', 'origWidth': 410, 'origHeight': 409, 'width': 410, 'height': 409, 'widthPercent': 0.45, 'rescaleHeight': False, 'trialN': 30, 'loaded': True, 'loadedTime': 4268.5, 'positionName': 'RIGHT', 'positionCoords': [998.4, 335.5], 'bid': 0.89}]",48296.80000001192,1669830371365,avocado,eggsalad,1.47,0.89,-0.58,avocado,1483.699999988079,1485,1484.199999988079,True,u,50297.19999998808,2000.3999999761581,1669830373366,2001,HRV,HRV_0120,2022-11-30 17:49:28
31,"[{'imgObject': {}, 'id': 'salmon', 'src': '/static/foodstim60/salmon.jpg', 'key': 'u', 'origWidth': 410, 'origHeight': 409, 'width': 410, 'height': 409, 'widthPercent': 0.45, 'rescaleHeight': False, 'trialN': 31, 'loaded': True, 'loadedTime': 4305.5999999940395, 'positionName': 'LEFT', 'positionCoords': [511.6, 335.5], 'bid': 0.09}, {'imgObject': {}, 'id': 'orange slices', 'src': '/static/foodstim60/orange slices.jpg', 'key': 'i', 'origWidth': 409, 'origHeight': 410, 'width': 409, 'height': 410, 'widthPercent': 0.45, 'rescaleHeight': False, 'trialN': 31, 'loaded': True, 'loadedTime': 4402.5, 'positionName': 'RIGHT', 'positionCoords': [998.4, 335], 'bid': 0.11}]",50297.5,1669830373366,salmon,orange slices,0.09,0.11,0.020000000000000004,orange slices,874.8000000119209,875,875.1999999880791,True,i,51694.5,1397.0,1669830374763,1397,HRV,HRV_0120,2022-11-30 17:49:28
32,"[{'imgObject': {}, 'id': 'pear', 'src': '/static/foodstim60/pear.jpg', 'key': 'u', 'origWidth': 411, 'origHeight': 410, 'width': 411, 'height': 410, 'widthPercent': 0.45, 'rescaleHeight': False, 'trialN': 32, 'loaded': True, 'loadedTime': 4422.0999999940395, 'positionName': 'LEFT', 'positionCoords': [510.6, 335], 'bid': 5}, {'imgObject': {}, 'id': 'bagel plain', 'src': '/static/foodstim60/bagel plain.jpg', 'key': 'i', 'origWidth': 410, 'origHeight': 410, 'width': 410, 'height': 410, 'widthPercent': 0.45, 'rescaleHeight': False, 'trialN': 32, 'loaded': True, 'loadedTime': 2409.199999988079, 'positionName': 'RIGHT', 'positionCoords': [998.4, 335], 'bid': 6.18}]",51694.69999998808,1669830374763,pear,bagel plain,5.0,6.18,1.1799999999999997,bagel plain,938.2000000178814,939,938.5,True,i,53146.69999998808,1452.0,1669830376215,1452,HRV,HRV_0120,2022-11-30 17:49:28
33,"[{'imgObject': {}, 'id': 'cherry tomato', 'src': '/static/foodstim60/cherry tomato.jpg', 'key': 'u', 'origWidth': 410, 'origHeight': 410, 'width': 410, 'height': 410, 'widthPercent': 0.45, 'rescaleHeight': False, 'trialN': 33, 'loaded': True, 'loadedTime': 4546.800000011921, 'positionName': 'LEFT', 'positionCoords': [511.6, 335], 'bid': 1.93}, {'imgObject': {}, 'id': 'lox', 'src': '/static/foodstim60/lox.jpg', 'key': 'i', 'origWidth': 410, 'origHeight': 411, 'width': 410, 'height': 411, 'widthPercent': 0.45, 'rescaleHeight': False, 'trialN': 33, 'loaded': True, 'loadedTime': 4970.5999999940395, 'positionName': 'RIGHT', 'positionCoords': [998.4, 334.5], 'bid': 0.09}]",53147.09999999404,1669830376216,cherry tomato,lox,1.93,0.09,-1.8399999999999999,cherry tomato,861.2000000178814,861,861.5999999940395,True,u,54523.80000001192,1376.7000000178814,1669830377592,1376,HRV,HRV_0120,2022-11-30 17:49:28
34,"[{'imgObject': {}, 'id': 'cherry tomato', 'src': '/static/foodstim60/cherry tomato.jpg', 'key': 'u', 'origWidth': 410, 'origHeight': 410, 'width': 410, 'height': 410, 'widthPercent': 0.45, 'rescaleHeight': False, 'trialN': 34, 'loaded': True, 'loadedTime': 4547.300000011921, 'positionName': 'LEFT', 'positionCoords': [511.6, 335], 'bid': 1.93}, {'imgObject': {}, 'id': 'baked potato', 'src': '/static/foodstim60/baked potato.jpg', 'key': 'i', 'origWidth': 409, 'origHeight': 410, 'width': 409, 'height': 410, 'widthPercent': 0.45, 'rescaleHeight': False, 'trialN': 34, 'loaded': True, 'loadedTime': 2391.199999988079, 'positionName': 'RIGHT', 'positionCoords': [998.4, 335], 'bid': 0.66}]",54524.0,1669830377593,cherry tomato,baked potato,1.93,0.66,-1.27,baked potato,868.4000000059605,868,868.5999999940395,True,i,55900.19999998808,1376.199999988079,1669830378969,1376,HRV,HRV_0120,2022-11-30 17:49:28
35,"[{'imgObject': {}, 'id': 'cantaloupe', 'src': '/static/foodstim60/cantaloupe.jpg', 'key': 'u', 'origWidth': 409, 'origHeight': 409, 'width': 409, 'height': 409, 'widthPercent': 0.45, 'rescaleHeight': False, 'trialN': 35, 'loaded': True, 'loadedTime': 2137.300000011921, 'positionName': 'LEFT', 'positionCoords': [512.6, 335.5], 'bid': 0.08}, {'imgObject': {}, 'id': 'grilled chicken strips', 'src': '/static/foodstim60/grilled chicken strips.jpg', 'key': 'i', 'origWidth': 410, 'origHeight': 411, 'width': 410, 'height': 411, 'widthPercent': 0.45, 'rescaleHeight': False, 'trialN': 35, 'loaded': True, 'loadedTime': 3825.4000000059605, 'positionName': 'RIGHT', 'positionCoords': [998.4, 334.5], 'bid': 0.51}]",55900.5,1669830378969,cantaloupe,grilled chicken strips,0.08,0.51,0.43,cantaloupe,1116.0999999940395,1117,1116.5,True,u,57531.80000001192,1631.300000011921,1669830380600,1631,HRV,HRV_0120,2022-11-30 17:49:28
36,"[{'imgObject': {}, 'id': 'granola w milk', 'src': '/static/foodstim60/granola w milk.jpg', 'key': 'u', 'origWidth': 410, 'origHeight': 410, 'width': 410, 'height': 410, 'widthPercent': 0.45, 'rescaleHeight': False, 'trialN': 36, 'loaded': True, 'loadedTime': 4946.0999999940395, 'positionName': 'LEFT', 'positionCoords': [511.6, 335], 'bid': 2.94}, {'imgObject': {}, 'id': 'turkey sandwich', 'src': '/static/foodstim60/turkey sandwich.jpg', 'key': 'i', 'origWidth': 409, 'origHeight': 409, 'width': 409, 'height': 409, 'widthPercent': 0.45, 'rescaleHeight': False, 'trialN': 36, 'loaded': True, 'loadedTime': 4963.199999988079, 'positionName': 'RIGHT', 'positionCoords': [998.4, 335.5], 'bid': 4.94}]",57532.09999999404,1669830380601,granola w milk,turkey sandwich,2.94,4.94,2.0000000000000004,turkey sandwich,949.0,949,949.5,True,i,58998.69999998808,1466.5999999940395,1669830382067,1466,HRV,HRV_0120,2022-11-30 17:49:28
37,"[{'imgObject': {}, 'id': 'omelette', 'src': '/static/foodstim60/omelette.jpg', 'key': 'u', 'origWidth': 410, 'origHeight': 409, 'width': 410, 'height': 409, 'widthPercent': 0.45, 'rescaleHeight': False, 'trialN': 37, 'loaded': True, 'loadedTime': 2528, 'positionName': 'LEFT', 'positionCoords': [511.6, 335.5], 'bid': 5.01}, {'imgObject': {}, 'id': 'blackbeanswithrice', 'src': '/static/foodstim60/blackbeanswithrice.jpg', 'key': 'i', 'origWidth': 410, 'origHeight': 410, 'width': 410, 'height': 410, 'widthPercent': 0.45, 'rescaleHeight': False, 'trialN': 37, 'loaded': True, 'loadedTime': 4992.5, 'positionName': 'RIGHT', 'positionCoords': [998.4, 335], 'bid': 5.01}]",58999.0,1669830382068,omelette,blackbeanswithrice,5.01,5.01,0.0,blackbeanswithrice,881.5999999940395,882,881.9000000059605,True,i,60391.80000001192,1392.800000011921,1669830383460,1392,HRV,HRV_0120,2022-11-30 17:49:28
38,"[{'imgObject': {}, 'id': 'shreddedwheatwithmilk', 'src': '/static/foodstim60/shreddedwheatwithmilk.jpg', 'key': 'u', 'origWidth': 410, 'origHeight': 410, 'width': 410, 'height': 410, 'widthPercent': 0.45, 'rescaleHeight': False, 'trialN': 38, 'loaded': True, 'loadedTime': 2284.300000011921, 'positionName': 'LEFT', 'positionCoords': [511.6, 335], 'bid': 4.94}, {'imgObject': {}, 'id': 'ice cream sundae 002', 'src': '/static/foodstim60/ice cream sundae 002.jpg', 'key': 'i', 'origWidth': 409, 'origHeight': 409, 'width': 409, 'height': 409, 'widthPercent': 0.45, 'rescaleHeight': False, 'trialN': 38, 'loaded': True, 'loadedTime': 3974.5, 'positionName': 'RIGHT', 'positionCoords': [998.4, 335.5], 'bid': 0.77}]",60392.0,1669830383461,shreddedwheatwithmilk,ice cream sundae 002,4.94,0.77,-4.17,ice cream sundae 002,792.3000000119209,792,792.5999999940395,True,i,61703.80000001192,1311.800000011921,1669830384773,1312,HRV,HRV_0120,2022-11-30 17:49:28
39,"[{'imgObject': {}, 'id': 'popsicles', 'src': '/static/foodstim60/popsicles.jpg', 'key': 'u', 'origWidth': 410, 'origHeight': 410, 'width': 410, 'height': 410, 'widthPercent': 0.45, 'rescaleHeight': False, 'trialN': 39, 'loaded': True, 'loadedTime': 4196.199999988079, 'positionName': 'LEFT', 'positionCoords': [511.6, 335], 'bid': 2.59}, {'imgObject': {}, 'id': 'hashbrowns', 'src': '/static/foodstim60/hashbrowns.jpg', 'key': 'i', 'origWidth': 411, 'origHeight': 410, 'width': 411, 'height': 410, 'widthPercent': 0.45, 'rescaleHeight': False, 'trialN': 39, 'loaded': True, 'loadedTime': 2135.5, 'positionName': 'RIGHT', 'positionCoords': [998.4, 335], 'bid': 2.13}]",61704.0,1669830384773,popsicles,hashbrowns,2.59,2.13,-0.45999999999999996,hashbrowns,1360.699999988079,1361,1361.5,True,i,63575.30000001192,1871.300000011921,1669830386644,1871,HRV,HRV_0120,2022-11-30 17:49:28
40,"[{'imgObject': {}, 'id': 'grilled chicken strips', 'src': '/static/foodstim60/grilled chicken strips.jpg', 'key': 'u', 'origWidth': 410, 'origHeight': 411, 'width': 410, 'height': 411, 'widthPercent': 0.45, 'rescaleHeight': False, 'trialN': 40, 'loaded': True, 'loadedTime': 3824.5, 'positionName': 'LEFT', 'positionCoords': [511.6, 334.5], 'bid': 0.51}, {'imgObject': {}, 'id': 'avocado', 'src': '/static/foodstim60/avocado.jpg', 'key': 'i', 'origWidth': 409, 'origHeight': 409, 'width': 409, 'height': 409, 'widthPercent': 0.45, 'rescaleHeight': False, 'trialN': 40, 'loaded': True, 'loadedTime': 3285, 'positionName': 'RIGHT', 'positionCoords': [998.4, 335.5], 'bid': 1.47}]",63575.5,1669830386644,grilled chicken strips,avocado,0.51,1.47,0.96,grilled chicken strips,1081.199999988079,1082,1081.5,True,u,65171.59999999404,1596.0999999940395,1669830388240,1596,HRV,HRV_0120,2022-11-30 17:49:28
41,"[{'imgObject': {}, 'id': 'mashed potato', 'src': '/static/foodstim60/mashed potato.jpg', 'key': 'u', 'origWidth': 409, 'origHeight': 409, 'width': 409, 'height': 409, 'widthPercent': 0.45, 'rescaleHeight': False, 'trialN': 41, 'loaded': True, 'loadedTime': 4987.300000011921, 'positionName': 'LEFT', 'positionCoords': [512.6, 335.5], 'bid': 7.13}, {'imgObject': {}, 'id': 'luckycharms', 'src': '/static/foodstim60/luckycharms.jpg', 'key': 'i', 'origWidth': 410, 'origHeight': 409, 'width': 410, 'height': 409, 'widthPercent': 0.45, 'rescaleHeight': False, 'trialN': 41, 'loaded': True, 'loadedTime': 2139.0999999940395, 'positionName': 'RIGHT', 'positionCoords': [998.4, 335.5], 'bid': 2.54}]",65171.90000000596,1669830388241,mashed potato,luckycharms,7.13,2.54,-4.59,mashed potato,1236.699999988079,1237,1237.199999988079,True,u,66917.69999998808,1745.7999999821186,1669830389986,1745,HRV,HRV_0120,2022-11-30 17:49:28
42,"[{'imgObject': {}, 'id': 'strawberries', 'src': '/static/foodstim60/strawberries.jpg', 'key': 'u', 'origWidth': 410, 'origHeight': 410, 'width': 410, 'height': 410, 'widthPercent': 0.45, 'rescaleHeight': False, 'trialN': 42, 'loaded': True, 'loadedTime': 5003.0999999940395, 'positionName': 'LEFT', 'positionCoords': [511.6, 335], 'bid': 5.03}, {'imgObject': {}, 'id': 'grilled chicken strips', 'src': '/static/foodstim60/grilled chicken strips.jpg', 'key': 'i', 'origWidth': 410, 'origHeight': 411, 'width': 410, 'height': 411, 'widthPercent': 0.45, 'rescaleHeight': False, 'trialN': 42, 'loaded': True, 'loadedTime': 3795.300000011921, 'positionName': 'RIGHT', 'positionCoords': [998.4, 334.5], 'bid': 0.51}]",66918.0,1669830389987,strawberries,grilled chicken strips,5.03,0.51,-4.5200000000000005,strawberries,1154.800000011921,1155,1155.199999988079,True,u,68578.19999998808,1660.199999988079,1669830391647,1660,HRV,HRV_0120,2022-11-30 17:49:28
43,"[{'imgObject': {}, 'id': 'steak', 'src': '/static/foodstim60/steak.jpg', 'key': 'u', 'origWidth': 410, 'origHeight': 410, 'width': 410, 'height': 410, 'widthPercent': 0.45, 'rescaleHeight': False, 'trialN': 43, 'loaded': True, 'loadedTime': 5040.5, 'positionName': 'LEFT', 'positionCoords': [511.6, 335], 'bid': 4.97}, {'imgObject': {}, 'id': 'luckycharms', 'src': '/static/foodstim60/luckycharms.jpg', 'key': 'i', 'origWidth': 410, 'origHeight': 409, 'width': 410, 'height': 409, 'widthPercent': 0.45, 'rescaleHeight': False, 'trialN': 43, 'loaded': True, 'loadedTime': 2139.0999999940395, 'positionName': 'RIGHT', 'positionCoords': [998.4, 335.5], 'bid': 2.54}]",68578.5,1669830391647,steak,luckycharms,4.97,2.54,-2.4299999999999997,steak,653.9000000059605,655,654.4000000059605,True,u,69744.80000001192,1166.300000011921,1669830392814,1167,HRV,HRV_0120,2022-11-30 17:49:28
44,"[{'imgObject': {}, 'id': 'rigatoni and sauce', 'src': '/static/foodstim60/rigatoni and sauce.jpg', 'key': 'u', 'origWidth': 410, 'origHeight': 411, 'width': 410, 'height': 411, 'widthPercent': 0.45, 'rescaleHeight': False, 'trialN': 44, 'loaded': True, 'loadedTime': 2145.9000000059605, 'positionName': 'LEFT', 'positionCoords': [511.6, 334.5], 'bid': 6.23}, {'imgObject': {}, 'id': 'salad w chicken', 'src': '/static/foodstim60/salad w chicken.jpg', 'key': 'i', 'origWidth': 411, 'origHeight': 411, 'width': 411, 'height': 411, 'widthPercent': 0.45, 'rescaleHeight': False, 'trialN': 44, 'loaded': True, 'loadedTime': 2348, 'positionName': 'RIGHT', 'positionCoords': [998.4, 334.5], 'bid': 5.0200000000000005}]",69745.09999999404,1669830392814,rigatoni and sauce,salad w chicken,6.23,5.0200000000000005,-1.21,rigatoni and sauce,623.4000000059605,623,623.7000000178814,True,u,70877.5,1132.4000000059605,1669830393946,1132,HRV,HRV_0120,2022-11-30 17:49:28
45,"[{'imgObject': {}, 'id': 'fried eggs', 'src': '/static/foodstim60/fried eggs.jpg', 'key': 'u', 'origWidth': 410, 'origHeight': 410, 'width': 410, 'height': 410, 'widthPercent': 0.45, 'rescaleHeight': False, 'trialN': 45, 'loaded': True, 'loadedTime': 2474.199999988079, 'positionName': 'LEFT', 'positionCoords': [511.6, 335], 'bid': 7.94}, {'imgObject': {}, 'id': 'raspberries', 'src': '/static/foodstim60/raspberries.jpg', 'key': 'i', 'origWidth': 411, 'origHeight': 411, 'width': 411, 'height': 411, 'widthPercent': 0.45, 'rescaleHeight': False, 'trialN': 45, 'loaded': True, 'loadedTime': 2463.5, 'positionName': 'RIGHT', 'positionCoords': [998.4, 334.5], 'bid': 8.85}]",70877.80000001192,1669830393947,fried eggs,raspberries,7.94,8.85,0.9099999999999993,fried eggs,610.7999999821186,611,611.2999999821186,True,u,72000.59999999404,1122.7999999821186,1669830395069,1122,HRV,HRV_0120,2022-11-30 17:49:28
46,"[{'imgObject': {}, 'id': 'eggsalad', 'src': '/static/foodstim60/eggsalad.jpg', 'key': 'u', 'origWidth': 410, 'origHeight': 409, 'width': 410, 'height': 409, 'widthPercent': 0.45, 'rescaleHeight': False, 'trialN': 46, 'loaded': True, 'loadedTime': 4269, 'positionName': 'LEFT', 'positionCoords': [511.6, 335.5], 'bid': 0.89}, {'imgObject': {}, 'id': 'apple slices', 'src': '/static/foodstim60/apple slices.jpg', 'key': 'i', 'origWidth': 409, 'origHeight': 410, 'width': 409, 'height': 410, 'widthPercent': 0.45, 'rescaleHeight': False, 'trialN': 46, 'loaded': True, 'loadedTime': 5048.5999999940395, 'positionName': 'RIGHT', 'positionCoords': [998.4, 335], 'bid': 5.08}]",72000.69999998808,1669830395069,eggsalad,apple slices,0.89,5.08,4.19,apple slices,831.6000000238419,832,831.9000000059605,True,i,73350.59999999404,1349.9000000059605,1669830396419,1350,HRV,HRV_0120,2022-11-30 17:49:28
47,"[{'imgObject': {}, 'id': 'baked potato', 'src': '/static/foodstim60/baked potato.jpg', 'key': 'u', 'origWidth': 409, 'origHeight': 410, 'width': 409, 'height': 410, 'widthPercent': 0.45, 'rescaleHeight': False, 'trialN': 47, 'loaded': True, 'loadedTime': 2380.800000011921, 'positionName': 'LEFT', 'positionCoords': [512.6, 335], 'bid': 0.66}, {'imgObject': {}, 'id': 'cheerios', 'src': '/static/foodstim60/cheerios.jpg', 'key': 'i', 'origWidth': 409, 'origHeight': 410, 'width': 409, 'height': 410, 'widthPercent': 0.45, 'rescaleHeight': False, 'trialN': 47, 'loaded': True, 'loadedTime': 5059, 'positionName': 'RIGHT', 'positionCoords': [998.4, 335], 'bid': 5.04}]",73350.69999998808,1669830396419,baked potato,cheerios,0.66,5.04,4.38,baked potato,825.8000000119209,826,826.1000000238419,True,u,74686.59999999404,1335.9000000059605,1669830397755,1336,HRV,HRV_0120,2022-11-30 17:49:28
48,"[{'imgObject': {}, 'id': 'blueberries', 'src': '/static/foodstim60/blueberries.jpg', 'key': 'u', 'origWidth': 411, 'origHeight': 411, 'width': 411, 'height': 411, 'widthPercent': 0.45, 'rescaleHeight': False, 'trialN': 48, 'loaded': True, 'loadedTime': 2124.699999988079, 'positionName': 'LEFT', 'positionCoords': [510.6, 334.5], 'bid': 5}, {'imgObject': {}, 'id': 'pear', 'src': '/static/foodstim60/pear.jpg', 'key': 'i', 'origWidth': 411, 'origHeight': 410, 'width': 411, 'height': 410, 'widthPercent': 0.45, 'rescaleHeight': False, 'trialN': 48, 'loaded': True, 'loadedTime': 4421.800000011921, 'positionName': 'RIGHT', 'positionCoords': [998.4, 335], 'bid': 5}]",74686.69999998808,1669830397755,blueberries,pear,5.0,5.0,0.0,blueberries,705.9000000059605,707,706.3000000119209,True,u,75898.5,1211.800000011921,1669830398967,1212,HRV,HRV_0120,2022-11-30 17:49:28
49,"[{'imgObject': {}, 'id': 'edamame', 'src': '/static/foodstim60/edamame.jpg', 'key': 'u', 'origWidth': 409, 'origHeight': 410, 'width': 409, 'height': 410, 'widthPercent': 0.45, 'rescaleHeight': False, 'trialN': 49, 'loaded': True, 'loadedTime': 5077.4000000059605, 'positionName': 'LEFT', 'positionCoords': [512.6, 335], 'bid': 3.59}, {'imgObject': {}, 'id': 'grilled chicken strips', 'src': '/static/foodstim60/grilled chicken strips.jpg', 'key': 'i', 'origWidth': 410, 'origHeight': 411, 'width': 410, 'height': 411, 'widthPercent': 0.45, 'rescaleHeight': False, 'trialN': 49, 'loaded': True, 'loadedTime': 3825.5999999940395, 'positionName': 'RIGHT', 'positionCoords': [998.4, 334.5], 'bid': 0.51}]",75898.69999998808,1669830398967,edamame,grilled chicken strips,3.59,0.51,-3.08,grilled chicken strips,941.9000000059605,943,942.3000000119209,True,i,77350.59999999404,1451.9000000059605,1669830400419,1452,HRV,HRV_0120,2022-11-30 17:49:28
50,"[{'imgObject': {}, 'id': 'froot loops w milk', 'src': '/static/foodstim60/froot loops w milk.jpg', 'key': 'u', 'origWidth': 410, 'origHeight': 410, 'width': 410, 'height': 410, 'widthPercent': 0.45, 'rescaleHeight': False, 'trialN': 50, 'loaded': True, 'loadedTime': 5076.4000000059605, 'positionName': 'LEFT', 'positionCoords': [511.6, 335], 'bid': 0.77}, {'imgObject': {}, 'id': 'luckycharms', 'src': '/static/foodstim60/luckycharms.jpg', 'key': 'i', 'origWidth': 410, 'origHeight': 409, 'width': 410, 'height': 409, 'widthPercent': 0.45, 'rescaleHeight': False, 'trialN': 50, 'loaded': True, 'loadedTime': 2138.699999988079, 'positionName': 'RIGHT', 'positionCoords': [998.4, 335.5], 'bid': 2.54}]",77350.69999998808,1669830400419,froot loops w milk,luckycharms,0.77,2.54,1.77,luckycharms,858.0,859,858.3000000119209,True,i,78713.59999999404,1362.9000000059605,1669830401782,1363,HRV,HRV_0120,2022-11-30 17:49:28
51,"[{'imgObject': {}, 'id': 'hashbrowns', 'src': '/static/foodstim60/hashbrowns.jpg', 'key': 'u', 'origWidth': 411, 'origHeight': 410, 'width': 411, 'height': 410, 'widthPercent': 0.45, 'rescaleHeight': False, 'trialN': 51, 'loaded': True, 'loadedTime': 2134.9000000059605, 'positionName': 'LEFT', 'positionCoords': [510.6, 335], 'bid': 2.13}, {'imgObject': {}, 'id': 'ice cream sundae 002', 'src': '/static/foodstim60/ice cream sundae 002.jpg', 'key': 'i', 'origWidth': 409, 'origHeight': 409, 'width': 409, 'height': 409, 'widthPercent': 0.45, 'rescaleHeight': False, 'trialN': 51, 'loaded': True, 'loadedTime': 3974.300000011921, 'positionName': 'RIGHT', 'positionCoords': [998.4, 335.5], 'bid': 0.77}]",78714.0,1669830401783,hashbrowns,ice cream sundae 002,2.13,0.77,-1.3599999999999999,hashbrowns,1398.5999999940395,1399,1399.0999999940395,True,u,80627.80000001192,1913.800000011921,1669830403696,1913,HRV,HRV_0120,2022-11-30 17:49:28
52,"[{'imgObject': {}, 'id': 'popsicles', 'src': '/static/foodstim60/popsicles.jpg', 'key': 'u', 'origWidth': 410, 'origHeight': 410, 'width': 410, 'height': 410, 'widthPercent': 0.45, 'rescaleHeight': False, 'trialN': 52, 'loaded': True, 'loadedTime': 4196.5, 'positionName': 'LEFT', 'positionCoords': [511.6, 335], 'bid': 2.59}, {'imgObject': {}, 'id': 'orange slices', 'src': '/static/foodstim60/orange slices.jpg', 'key': 'i', 'origWidth': 409, 'origHeight': 410, 'width': 409, 'height': 410, 'widthPercent': 0.45, 'rescaleHeight': False, 'trialN': 52, 'loaded': True, 'loadedTime': 4402.5999999940395, 'positionName': 'RIGHT', 'positionCoords': [998.4, 335], 'bid': 0.11}]",80628.19999998808,1669830403697,popsicles,orange slices,2.59,0.11,-2.48,orange slices,732.3000000119209,732,732.6000000238419,True,i,81867.59999999404,1239.4000000059605,1669830404936,1239,HRV,HRV_0120,2022-11-30 17:49:28
53,"[{'imgObject': {}, 'id': 'apple slices', 'src': '/static/foodstim60/apple slices.jpg', 'key': 'u', 'origWidth': 409, 'origHeight': 410, 'width': 409, 'height': 410, 'widthPercent': 0.45, 'rescaleHeight': False, 'trialN': 53, 'loaded': True, 'loadedTime': 5048.300000011921, 'positionName': 'LEFT', 'positionCoords': [512.6, 335], 'bid': 5.08}, {'imgObject': {}, 'id': 'steak', 'src': '/static/foodstim60/steak.jpg', 'key': 'i', 'origWidth': 410, 'origHeight': 410, 'width': 410, 'height': 410, 'widthPercent': 0.45, 'rescaleHeight': False, 'trialN': 53, 'loaded': True, 'loadedTime': 5040.199999988079, 'positionName': 'RIGHT', 'positionCoords': [998.4, 335], 'bid': 4.97}]",81868.09999999404,1669830404937,apple slices,steak,5.08,4.97,-0.11000000000000032,steak,788.7000000178814,789,789.2000000178814,True,i,83173.09999999404,1305.0,1669830406242,1305,HRV,HRV_0120,2022-11-30 17:49:28
54,"[{'imgObject': {}, 'id': 'eggs', 'src': '/static/foodstim60/eggs.jpg', 'key': 'u', 'origWidth': 409, 'origHeight': 409, 'width': 409, 'height': 409, 'widthPercent': 0.45, 'rescaleHeight': False, 'trialN': 54, 'loaded': True, 'loadedTime': 5080.0999999940395, 'positionName': 'LEFT', 'positionCoords': [512.6, 335.5], 'bid': 0.12}, {'imgObject': {}, 'id': 'sushi w_condiments', 'src': '/static/foodstim60/sushi w_condiments.jpg', 'key': 'i', 'origWidth': 410, 'origHeight': 410, 'width': 410, 'height': 410, 'widthPercent': 0.45, 'rescaleHeight': False, 'trialN': 54, 'loaded': True, 'loadedTime': 2358.699999988079, 'positionName': 'RIGHT', 'positionCoords': [998.4, 335], 'bid': 0.09}]",83173.30000001192,1669830406242,eggs,sushi w_condiments,0.12,0.09,-0.03,sushi w_condiments,679.1999999880791,680,679.5,True,i,84366.5,1193.199999988079,1669830407435,1193,HRV,HRV_0120,2022-11-30 17:49:28
55,"[{'imgObject': {}, 'id': 'apple slices', 'src': '/static/foodstim60/apple slices.jpg', 'key': 'u', 'origWidth': 409, 'origHeight': 410, 'width': 409, 'height': 410, 'widthPercent': 0.45, 'rescaleHeight': False, 'trialN': 55, 'loaded': True, 'loadedTime': 5048.5999999940395, 'positionName': 'LEFT', 'positionCoords': [512.6, 335], 'bid': 5.08}, {'imgObject': {}, 'id': 'cherries', 'src': '/static/foodstim60/cherries.jpg', 'key': 'i', 'origWidth': 410, 'origHeight': 411, 'width': 410, 'height': 411, 'widthPercent': 0.45, 'rescaleHeight': False, 'trialN': 55, 'loaded': True, 'loadedTime': 2253, 'positionName': 'RIGHT', 'positionCoords': [998.4, 334.5], 'bid': 5.19}]",84366.69999998808,1669830407435,apple slices,cherries,5.08,5.19,0.11000000000000032,cherries,830.2000000178814,831,830.6000000238419,True,i,85718.69999998808,1352.0,1669830408787,1352,HRV,HRV_0120,2022-11-30 17:49:28
56,"[{'imgObject': {}, 'id': 'turkey sandwich', 'src': '/static/foodstim60/turkey sandwich.jpg', 'key': 'u', 'origWidth': 409, 'origHeight': 409, 'width': 409, 'height': 409, 'widthPercent': 0.45, 'rescaleHeight': False, 'trialN': 56, 'loaded': True, 'loadedTime': 4962.0999999940395, 'positionName': 'LEFT', 'positionCoords': [512.6, 335.5], 'bid': 4.94}, {'imgObject': {}, 'id': 'rigatoni', 'src': '/static/foodstim60/rigatoni.jpg', 'key': 'i', 'origWidth': 411, 'origHeight': 411, 'width': 411, 'height': 411, 'widthPercent': 0.45, 'rescaleHeight': False, 'trialN': 56, 'loaded': True, 'loadedTime': 2267.300000011921, 'positionName': 'RIGHT', 'positionCoords': [998.4, 334.5], 'bid': 5.08}]",85718.90000000596,1669830408788,turkey sandwich,rigatoni,4.94,5.08,0.13999999999999968,turkey sandwich,645.5999999940395,645,645.9000000059605,True,u,86880.5,1161.5999999940395,1669830409949,1161,HRV,HRV_0120,2022-11-30 17:49:28
57,"[{'imgObject': {}, 'id': 'burrito', 'src': '/static/foodstim60/burrito.jpg', 'key': 'u', 'origWidth': 410, 'origHeight': 410, 'width': 410, 'height': 410, 'widthPercent': 0.45, 'rescaleHeight': False, 'trialN': 57, 'loaded': True, 'loadedTime': 2169.300000011921, 'positionName': 'LEFT', 'positionCoords': [511.6, 335], 'bid': 7.47}, {'imgObject': {}, 'id': 'omelette', 'src': '/static/foodstim60/omelette.jpg', 'key': 'i', 'origWidth': 410, 'origHeight': 409, 'width': 410, 'height': 409, 'widthPercent': 0.45, 'rescaleHeight': False, 'trialN': 57, 'loaded': True, 'loadedTime': 2528.0999999940395, 'positionName': 'RIGHT', 'positionCoords': [998.4, 335.5], 'bid': 5.01}]",86880.90000000596,1669830409950,burrito,omelette,7.47,5.01,-2.46,burrito,843.6999999880791,844,844.0,True,u,88237.40000000596,1356.5,1669830411306,1356,HRV,HRV_0120,2022-11-30 17:49:28
58,"[{'imgObject': {}, 'id': 'cheerios', 'src': '/static/foodstim60/cheerios.jpg', 'key': 'u', 'origWidth': 409, 'origHeight': 410, 'width': 409, 'height': 410, 'widthPercent': 0.45, 'rescaleHeight': False, 'trialN': 58, 'loaded': True, 'loadedTime': 5059.0999999940395, 'positionName': 'LEFT', 'positionCoords': [512.6, 335], 'bid': 5.04}, {'imgObject': {}, 'id': 'raspberries', 'src': '/static/foodstim60/raspberries.jpg', 'key': 'i', 'origWidth': 411, 'origHeight': 411, 'width': 411, 'height': 411, 'widthPercent': 0.45, 'rescaleHeight': False, 'trialN': 58, 'loaded': True, 'loadedTime': 2436, 'positionName': 'RIGHT', 'positionCoords': [998.4, 334.5], 'bid': 8.85}]",88237.69999998808,1669830411306,cheerios,raspberries,5.04,8.85,3.8099999999999996,cheerios,686.7000000178814,688,687.2000000178814,True,u,89442.09999999404,1204.4000000059605,1669830412511,1205,HRV,HRV_0120,2022-11-30 17:49:28
59,"[{'imgObject': {}, 'id': 'steak', 'src': '/static/foodstim60/steak.jpg', 'key': 'u', 'origWidth': 410, 'origHeight': 410, 'width': 410, 'height': 410, 'widthPercent': 0.45, 'rescaleHeight': False, 'trialN': 59, 'loaded': True, 'loadedTime': 5041.0999999940395, 'positionName': 'LEFT', 'positionCoords': [511.6, 335], 'bid': 4.97}, {'imgObject': {}, 'id': 'mac & cheese', 'src': '/static/foodstim60/mac & cheese.jpg', 'key': 'i', 'origWidth': 410, 'origHeight': 410, 'width': 410, 'height': 410, 'widthPercent': 0.45, 'rescaleHeight': False, 'trialN': 59, 'loaded': True, 'loadedTime': 2504.5999999940395, 'positionName': 'RIGHT', 'positionCoords': [998.4, 335], 'bid': 3.16}]",89442.40000000596,1669830412511,steak,mac & cheese,4.97,3.16,-1.8099999999999996,steak,594.0,594,594.4000000059605,True,u,90557.0,1114.5999999940395,1669830413626,1115,HRV,HRV_0120,2022-11-30 17:49:28
60,"[{'imgObject': {}, 'id': 'eggsalad', 'src': '/static/foodstim60/eggsalad.jpg', 'key': 'u', 'origWidth': 410, 'origHeight': 409, 'width': 410, 'height': 409, 'widthPercent': 0.45, 'rescaleHeight': False, 'trialN': 60, 'loaded': True, 'loadedTime': 4268.199999988079, 'positionName': 'LEFT', 'positionCoords': [511.6, 335.5], 'bid': 0.89}, {'imgObject': {}, 'id': 'cocktailshrimp', 'src': '/static/foodstim60/cocktailshrimp.jpg', 'key': 'i', 'origWidth': 410, 'origHeight': 410, 'width': 410, 'height': 410, 'widthPercent': 0.45, 'rescaleHeight': False, 'trialN': 60, 'loaded': True, 'loadedTime': 3962.699999988079, 'positionName': 'RIGHT', 'positionCoords': [998.4, 335], 'bid': 0.04}]",90557.19999998808,1669830413626,eggsalad,cocktailshrimp,0.89,0.04,-0.85,cocktailshrimp,695.3000000119209,696,695.7000000178814,True,i,91761.5,1204.300000011921,1669830414830,1204,HRV,HRV_0120,2022-11-30 17:49:28
61,"[{'imgObject': {}, 'id': 'corn cob', 'src': '/static/foodstim60/corn cob.jpg', 'key': 'u', 'origWidth': 411, 'origHeight': 411, 'width': 411, 'height': 411, 'widthPercent': 0.45, 'rescaleHeight': False, 'trialN': 61, 'loaded': True, 'loadedTime': 3745, 'positionName': 'LEFT', 'positionCoords': [510.6, 334.5], 'bid': 0}, {'imgObject': {}, 'id': 'cocktailshrimp', 'src': '/static/foodstim60/cocktailshrimp.jpg', 'key': 'i', 'origWidth': 410, 'origHeight': 410, 'width': 410, 'height': 410, 'widthPercent': 0.45, 'rescaleHeight': False, 'trialN': 61, 'loaded': True, 'loadedTime': 3963.800000011921, 'positionName': 'RIGHT', 'positionCoords': [998.4, 335], 'bid': 0.04}]",91761.69999998808,1669830414830,corn cob,cocktailshrimp,0.0,0.04,0.04,corn cob,786.8000000119209,787,787.1000000238419,True,u,93060.69999998808,1299.0,1669830416129,1299,HRV,HRV_0120,2022-11-30 17:49:28
62,"[{'imgObject': {}, 'id': 'blackbeanswithrice', 'src': '/static/foodstim60/blackbeanswithrice.jpg', 'key': 'u', 'origWidth': 410, 'origHeight': 410, 'width': 410, 'height': 410, 'widthPercent': 0.45, 'rescaleHeight': False, 'trialN': 62, 'loaded': True, 'loadedTime': 4991.0999999940395, 'positionName': 'LEFT', 'positionCoords': [511.6, 335], 'bid': 5.01}, {'imgObject': {}, 'id': 'hotdog w must', 'src': '/static/foodstim60/hotdog w must.jpg', 'key': 'i', 'origWidth': 409, 'origHeight': 409, 'width': 409, 'height': 409, 'widthPercent': 0.45, 'rescaleHeight': False, 'trialN': 62, 'loaded': True, 'loadedTime': 3353.5999999940395, 'positionName': 'RIGHT', 'positionCoords': [998.4, 335.5], 'bid': 0.1}]",93060.90000000596,1669830416130,blackbeanswithrice,hotdog w must,5.01,0.1,-4.91,blackbeanswithrice,760.5,761,761.0,True,u,94332.59999999404,1271.699999988079,1669830417401,1271,HRV,HRV_0120,2022-11-30 17:49:28
63,"[{'imgObject': {}, 'id': 'granola w milk', 'src': '/static/foodstim60/granola w milk.jpg', 'key': 'u', 'origWidth': 410, 'origHeight': 410, 'width': 410, 'height': 410, 'widthPercent': 0.45, 'rescaleHeight': False, 'trialN': 63, 'loaded': True, 'loadedTime': 4946.4000000059605, 'positionName': 'LEFT', 'positionCoords': [511.6, 335], 'bid': 2.94}, {'imgObject': {}, 'id': 'mac & cheese', 'src': '/static/foodstim60/mac & cheese.jpg', 'key': 'i', 'origWidth': 410, 'origHeight': 410, 'width': 410, 'height': 410, 'widthPercent': 0.45, 'rescaleHeight': False, 'trialN': 63, 'loaded': True, 'loadedTime': 2503.0999999940395, 'positionName': 'RIGHT', 'positionCoords': [998.4, 335], 'bid': 3.16}]",94332.80000001192,1669830417402,granola w milk,mac & cheese,2.94,3.16,0.2200000000000002,mac & cheese,719.8999999761581,720,720.2999999821186,True,i,95574.80000001192,1242.0,1669830418643,1241,HRV,HRV_0120,2022-11-30 17:49:28
64,"[{'imgObject': {}, 'id': 'cantaloupe', 'src': '/static/foodstim60/cantaloupe.jpg', 'key': 'u', 'origWidth': 409, 'origHeight': 409, 'width': 409, 'height': 409, 'widthPercent': 0.45, 'rescaleHeight': False, 'trialN': 64, 'loaded': True, 'loadedTime': 2137.5, 'positionName': 'LEFT', 'positionCoords': [512.6, 335.5], 'bid': 0.08}, {'imgObject': {}, 'id': 'veggieswithdip', 'src': '/static/foodstim60/veggieswithdip.jpg', 'key': 'i', 'origWidth': 409, 'origHeight': 409, 'width': 409, 'height': 409, 'widthPercent': 0.45, 'rescaleHeight': False, 'trialN': 64, 'loaded': True, 'loadedTime': 4266.699999988079, 'positionName': 'RIGHT', 'positionCoords': [998.4, 335.5], 'bid': 4.97}]",95575.0,1669830418644,cantaloupe,veggieswithdip,0.08,4.97,4.89,cantaloupe,613.6999999880791,614,614.0999999940395,True,u,96702.09999999404,1127.0999999940395,1669830419771,1127,HRV,HRV_0120,2022-11-30 17:49:28
65,"[{'imgObject': {}, 'id': 'turkey sandwich', 'src': '/static/foodstim60/turkey sandwich.jpg', 'key': 'u', 'origWidth': 409, 'origHeight': 409, 'width': 409, 'height': 409, 'widthPercent': 0.45, 'rescaleHeight': False, 'trialN': 65, 'loaded': True, 'loadedTime': 4963.0999999940395, 'positionName': 'LEFT', 'positionCoords': [512.6, 335.5], 'bid': 4.94}, {'imgObject': {}, 'id': 'corn cob', 'src': '/static/foodstim60/corn cob.jpg', 'key': 'i', 'origWidth': 411, 'origHeight': 411, 'width': 411, 'height': 411, 'widthPercent': 0.45, 'rescaleHeight': False, 'trialN': 65, 'loaded': True, 'loadedTime': 3743.699999988079, 'positionName': 'RIGHT', 'positionCoords': [998.4, 334.5], 'bid': 0}]",96702.30000001192,1669830419771,turkey sandwich,corn cob,4.94,0.0,-4.94,turkey sandwich,718.0999999940395,719,718.5999999940395,True,u,97939.0,1236.699999988079,1669830421008,1237,HRV,HRV_0120,2022-11-30 17:49:28
66,"[{'imgObject': {}, 'id': 'edamame', 'src': '/static/foodstim60/edamame.jpg', 'key': 'u', 'origWidth': 409, 'origHeight': 410, 'width': 409, 'height': 410, 'widthPercent': 0.45, 'rescaleHeight': False, 'trialN': 66, 'loaded': True, 'loadedTime': 5078.5, 'positionName': 'LEFT', 'positionCoords': [512.6, 335], 'bid': 3.59}, {'imgObject': {}, 'id': 'sweetpotato', 'src': '/static/foodstim60/sweetpotato.jpg', 'key': 'i', 'origWidth': 410, 'origHeight': 410, 'width': 410, 'height': 410, 'widthPercent': 0.45, 'rescaleHeight': False, 'trialN': 66, 'loaded': True, 'loadedTime': 2483.9000000059605, 'positionName': 'RIGHT', 'positionCoords': [998.4, 335], 'bid': 4.98}]",97939.40000000596,1669830421008,edamame,sweetpotato,3.59,4.98,1.3900000000000006,sweetpotato,809.1999999880791,810,809.6999999880791,True,i,99269.59999999404,1330.199999988079,1669830422338,1330,HRV,HRV_0120,2022-11-30 17:49:28
67,"[{'imgObject': {}, 'id': 'popsicles', 'src': '/static/foodstim60/popsicles.jpg', 'key': 'u', 'origWidth': 410, 'origHeight': 410, 'width': 410, 'height': 410, 'widthPercent': 0.45, 'rescaleHeight': False, 'trialN': 67, 'loaded': True, 'loadedTime': 4195, 'positionName': 'LEFT', 'positionCoords': [511.6, 335], 'bid': 2.59}, {'imgObject': {}, 'id': 'eggsalad', 'src': '/static/foodstim60/eggsalad.jpg', 'key': 'i', 'origWidth': 410, 'origHeight': 409, 'width': 410, 'height': 409, 'widthPercent': 0.45, 'rescaleHeight': False, 'trialN': 67, 'loaded': True, 'loadedTime': 4267.0999999940395, 'positionName': 'RIGHT', 'positionCoords': [998.4, 335.5], 'bid': 0.89}]",99269.80000001192,1669830422339,popsicles,eggsalad,2.59,0.89,-1.6999999999999997,popsicles,927.7999999821186,928,928.3999999761581,True,u,100720.80000001192,1451.0,1669830423789,1450,HRV,HRV_0120,2022-11-30 17:49:28
68,"[{'imgObject': {}, 'id': 'mango', 'src': '/static/foodstim60/mango.jpg', 'key': 'u', 'origWidth': 411, 'origHeight': 411, 'width': 411, 'height': 411, 'widthPercent': 0.45, 'rescaleHeight': False, 'trialN': 68, 'loaded': True, 'loadedTime': 2309.5, 'positionName': 'LEFT', 'positionCoords': [510.6, 334.5], 'bid': 5.0200000000000005}, {'imgObject': {}, 'id': 'mashed potato', 'src': '/static/foodstim60/mashed potato.jpg', 'key': 'i', 'origWidth': 409, 'origHeight': 409, 'width': 409, 'height': 409, 'widthPercent': 0.45, 'rescaleHeight': False, 'trialN': 68, 'loaded': True, 'loadedTime': 4987.300000011921, 'positionName': 'RIGHT', 'positionCoords': [998.4, 335.5], 'bid': 7.13}]",100721.19999998808,1669830423790,mango,mashed potato,5.0200000000000005,7.13,2.1099999999999994,mango,683.2000000178814,683,683.4000000059605,True,u,101910.40000000596,1189.2000000178814,1669830424979,1189,HRV,HRV_0120,2022-11-30 17:49:28
69,"[{'imgObject': {}, 'id': 'roastedpotatoes', 'src': '/static/foodstim60/roastedpotatoes.jpg', 'key': 'u', 'origWidth': 409, 'origHeight': 410, 'width': 409, 'height': 410, 'widthPercent': 0.45, 'rescaleHeight': False, 'trialN': 69, 'loaded': True, 'loadedTime': 2468.5999999940395, 'positionName': 'LEFT', 'positionCoords': [512.6, 335], 'bid': 2.66}, {'imgObject': {}, 'id': 'burrito', 'src': '/static/foodstim60/burrito.jpg', 'key': 'i', 'origWidth': 410, 'origHeight': 410, 'width': 410, 'height': 410, 'widthPercent': 0.45, 'rescaleHeight': False, 'trialN': 69, 'loaded': True, 'loadedTime': 2169.800000011921, 'positionName': 'RIGHT', 'positionCoords': [998.4, 335], 'bid': 7.47}]",101910.80000001192,1669830424979,roastedpotatoes,burrito,2.66,7.47,4.81,burrito,918.2999999821186,919,918.8999999761581,True,i,103350.09999999404,1439.2999999821186,1669830426419,1440,HRV,HRV_0120,2022-11-30 17:49:28
70,"[{'imgObject': {}, 'id': 'veggieswithdip', 'src': '/static/foodstim60/veggieswithdip.jpg', 'key': 'u', 'origWidth': 409, 'origHeight': 409, 'width': 409, 'height': 409, 'widthPercent': 0.45, 'rescaleHeight': False, 'trialN': 70, 'loaded': True, 'loadedTime': 4266.4000000059605, 'positionName': 'LEFT', 'positionCoords': [512.6, 335.5], 'bid': 4.97}, {'imgObject': {}, 'id': 'sweetpotato', 'src': '/static/foodstim60/sweetpotato.jpg', 'key': 'i', 'origWidth': 410, 'origHeight': 410, 'width': 410, 'height': 410, 'widthPercent': 0.45, 'rescaleHeight': False, 'trialN': 70, 'loaded': True, 'loadedTime': 2483.699999988079, 'positionName': 'RIGHT', 'positionCoords': [998.4, 335], 'bid': 4.98}]",103350.40000000596,1669830426419,veggieswithdip,sweetpotato,4.97,4.98,0.010000000000000675,veggieswithdip,826.2999999821186,827,826.7999999821186,True,u,104691.5,1341.0999999940395,1669830427760,1341,HRV,HRV_0120,2022-11-30 17:49:28
71,"[{'imgObject': {}, 'id': 'mashed potato', 'src': '/static/foodstim60/mashed potato.jpg', 'key': 'u', 'origWidth': 409, 'origHeight': 409, 'width': 409, 'height': 409, 'widthPercent': 0.45, 'rescaleHeight': False, 'trialN': 71, 'loaded': True, 'loadedTime': 4978.9000000059605, 'positionName': 'LEFT', 'positionCoords': [512.6, 335.5], 'bid': 7.13}, {'imgObject': {}, 'id': 'blackbeanswithrice', 'src': '/static/foodstim60/blackbeanswithrice.jpg', 'key': 'i', 'origWidth': 410, 'origHeight': 410, 'width': 410, 'height': 410, 'widthPercent': 0.45, 'rescaleHeight': False, 'trialN': 71, 'loaded': True, 'loadedTime': 5001, 'positionName': 'RIGHT', 'positionCoords': [998.4, 335], 'bid': 5.01}]",104691.80000001192,1669830427760,mashed potato,blackbeanswithrice,7.13,5.01,-2.12,mashed potato,713.0,714,713.5999999940395,True,u,105915.59999999404,1223.7999999821186,1669830428984,1224,HRV,HRV_0120,2022-11-30 17:49:28
72,"[{'imgObject': {}, 'id': 'edamame', 'src': '/static/foodstim60/edamame.jpg', 'key': 'u', 'origWidth': 409, 'origHeight': 410, 'width': 409, 'height': 410, 'widthPercent': 0.45, 'rescaleHeight': False, 'trialN': 72, 'loaded': True, 'loadedTime': 5079, 'positionName': 'LEFT', 'positionCoords': [512.6, 335], 'bid': 3.59}, {'imgObject': {}, 'id': 'raisin bran w milk', 'src': '/static/foodstim60/raisin bran w milk.jpg', 'key': 'i', 'origWidth': 411, 'origHeight': 411, 'width': 411, 'height': 411, 'widthPercent': 0.45, 'rescaleHeight': False, 'trialN': 72, 'loaded': True, 'loadedTime': 5336.5, 'positionName': 'RIGHT', 'positionCoords': [998.4, 334.5], 'bid': 3.5700000000000003}]",105915.90000000596,1669830428985,edamame,raisin bran w milk,3.59,3.5700000000000003,-0.019999999999999574,edamame,960.9000000059605,961,961.1999999880791,True,u,107385.69999998808,1469.7999999821186,1669830430454,1469,HRV,HRV_0120,2022-11-30 17:49:28
73,"[{'imgObject': {}, 'id': 'cherry tomato', 'src': '/static/foodstim60/cherry tomato.jpg', 'key': 'u', 'origWidth': 410, 'origHeight': 410, 'width': 410, 'height': 410, 'widthPercent': 0.45, 'rescaleHeight': False, 'trialN': 73, 'loaded': True, 'loadedTime': 4547.4000000059605, 'positionName': 'LEFT', 'positionCoords': [511.6, 335], 'bid': 1.93}, {'imgObject': {}, 'id': 'bagel plain', 'src': '/static/foodstim60/bagel plain.jpg', 'key': 'i', 'origWidth': 410, 'origHeight': 410, 'width': 410, 'height': 410, 'widthPercent': 0.45, 'rescaleHeight': False, 'trialN': 73, 'loaded': True, 'loadedTime': 2409.4000000059605, 'positionName': 'RIGHT', 'positionCoords': [998.4, 335], 'bid': 6.18}]",107386.09999999404,1669830430455,cherry tomato,bagel plain,1.93,6.18,4.25,bagel plain,706.3000000119209,706,706.5999999940395,True,i,108612.5,1226.4000000059605,1669830431681,1226,HRV,HRV_0120,2022-11-30 17:49:28
74,"[{'imgObject': {}, 'id': 'fruitsalad', 'src': '/static/foodstim60/fruitsalad.jpg', 'key': 'u', 'origWidth': 410, 'origHeight': 410, 'width': 410, 'height': 410, 'widthPercent': 0.45, 'rescaleHeight': False, 'trialN': 74, 'loaded': True, 'loadedTime': 5354.800000011921, 'positionName': 'LEFT', 'positionCoords': [511.6, 335], 'bid': 5.01}, {'imgObject': {}, 'id': 'blackbeanswithrice', 'src': '/static/foodstim60/blackbeanswithrice.jpg', 'key': 'i', 'origWidth': 410, 'origHeight': 410, 'width': 410, 'height': 410, 'widthPercent': 0.45, 'rescaleHeight': False, 'trialN': 74, 'loaded': True, 'loadedTime': 4992.300000011921, 'positionName': 'RIGHT', 'positionCoords': [998.4, 335], 'bid': 5.01}]",108612.90000000596,1669830431681,fruitsalad,blackbeanswithrice,5.01,5.01,0.0,blackbeanswithrice,767.4000000059605,768,767.6999999880791,True,i,109896.30000001192,1283.4000000059605,1669830432965,1284,HRV,HRV_0120,2022-11-30 17:49:28
75,"[{'imgObject': {}, 'id': 'veggieswithdip', 'src': '/static/foodstim60/veggieswithdip.jpg', 'key': 'u', 'origWidth': 409, 'origHeight': 409, 'width': 409, 'height': 409, 'widthPercent': 0.45, 'rescaleHeight': False, 'trialN': 75, 'loaded': True, 'loadedTime': 4264.9000000059605, 'positionName': 'LEFT', 'positionCoords': [512.6, 335.5], 'bid': 4.97}, {'imgObject': {}, 'id': 'raisin bran w milk', 'src': '/static/foodstim60/raisin bran w milk.jpg', 'key': 'i', 'origWidth': 411, 'origHeight': 411, 'width': 411, 'height': 411, 'widthPercent': 0.45, 'rescaleHeight': False, 'trialN': 75, 'loaded': True, 'loadedTime': 5336.699999988079, 'positionName': 'RIGHT', 'positionCoords': [998.4, 334.5], 'bid': 3.5700000000000003}]",109896.5,1669830432965,veggieswithdip,raisin bran w milk,4.97,3.5700000000000003,-1.3999999999999995,veggieswithdip,700.5999999940395,701,701.0999999940395,True,u,111119.80000001192,1223.300000011921,1669830434188,1223,HRV,HRV_0120,2022-11-30 17:49:28
76,"[{'imgObject': {}, 'id': 'granola w milk', 'src': '/static/foodstim60/granola w milk.jpg', 'key': 'u', 'origWidth': 410, 'origHeight': 410, 'width': 410, 'height': 410, 'widthPercent': 0.45, 'rescaleHeight': False, 'trialN': 76, 'loaded': True, 'loadedTime': 4946.5, 'positionName': 'LEFT', 'positionCoords': [511.6, 335], 'bid': 2.94}, {'imgObject': {}, 'id': 'raisin bran w milk', 'src': '/static/foodstim60/raisin bran w milk.jpg', 'key': 'i', 'origWidth': 411, 'origHeight': 411, 'width': 411, 'height': 411, 'widthPercent': 0.45, 'rescaleHeight': False, 'trialN': 76, 'loaded': True, 'loadedTime': 5336.800000011921, 'positionName': 'RIGHT', 'positionCoords': [998.4, 334.5], 'bid': 3.5700000000000003}]",111120.09999999404,1669830434189,granola w milk,raisin bran w milk,2.94,3.5700000000000003,0.6300000000000003,granola w milk,1364.800000011921,1365,1365.4000000059605,True,u,113004.09999999404,1884.0,1669830436073,1884,HRV,HRV_0120,2022-11-30 17:49:28
77,"[{'imgObject': {}, 'id': 'blueberries', 'src': '/static/foodstim60/blueberries.jpg', 'key': 'u', 'origWidth': 411, 'origHeight': 411, 'width': 411, 'height': 411, 'widthPercent': 0.45, 'rescaleHeight': False, 'trialN': 77, 'loaded': True, 'loadedTime': 2110.5, 'positionName': 'LEFT', 'positionCoords': [510.6, 334.5], 'bid': 5}, {'imgObject': {}, 'id': 'shreddedwheatwithmilk', 'src': '/static/foodstim60/shreddedwheatwithmilk.jpg', 'key': 'i', 'origWidth': 410, 'origHeight': 410, 'width': 410, 'height': 410, 'widthPercent': 0.45, 'rescaleHeight': False, 'trialN': 77, 'loaded': True, 'loadedTime': 2283.699999988079, 'positionName': 'RIGHT', 'positionCoords': [998.4, 335], 'bid': 4.94}]",113004.5,1669830436073,blueberries,shreddedwheatwithmilk,5.0,4.94,-0.05999999999999961,shreddedwheatwithmilk,899.9000000059605,900,900.1999999880791,True,i,114415.40000000596,1410.9000000059605,1669830437484,1411,HRV,HRV_0120,2022-11-30 17:49:28
78,"[{'imgObject': {}, 'id': 'sushi w_condiments', 'src': '/static/foodstim60/sushi w_condiments.jpg', 'key': 'u', 'origWidth': 410, 'origHeight': 410, 'width': 410, 'height': 410, 'widthPercent': 0.45, 'rescaleHeight': False, 'trialN': 78, 'loaded': True, 'loadedTime': 2355.0999999940395, 'positionName': 'LEFT', 'positionCoords': [511.6, 335], 'bid': 0.09}, {'imgObject': {}, 'id': 'sweetpotato', 'src': '/static/foodstim60/sweetpotato.jpg', 'key': 'i', 'origWidth': 410, 'origHeight': 410, 'width': 410, 'height': 410, 'widthPercent': 0.45, 'rescaleHeight': False, 'trialN': 78, 'loaded': True, 'loadedTime': 2483.699999988079, 'positionName': 'RIGHT', 'positionCoords': [998.4, 335], 'bid': 4.98}]",114415.69999998808,1669830437484,sushi w_condiments,sweetpotato,0.09,4.98,4.890000000000001,sushi w_condiments,776.9000000059605,777,777.2000000178814,True,u,115711.69999998808,1296.0,1669830438780,1296,HRV,HRV_0120,2022-11-30 17:49:28
79,"[{'imgObject': {}, 'id': 'Tribe humus pita', 'src': '/static/foodstim60/Tribe humus pita.jpg', 'key': 'u', 'origWidth': 411, 'origHeight': 411, 'width': 411, 'height': 411, 'widthPercent': 0.45, 'rescaleHeight': False, 'trialN': 79, 'loaded': True, 'loadedTime': 5427.300000011921, 'positionName': 'LEFT', 'positionCoords': [510.6, 334.5], 'bid': 4.05}, {'imgObject': {}, 'id': 'turkey sandwich', 'src': '/static/foodstim60/turkey sandwich.jpg', 'key': 'i', 'origWidth': 409, 'origHeight': 409, 'width': 409, 'height': 409, 'widthPercent': 0.45, 'rescaleHeight': False, 'trialN': 79, 'loaded': True, 'loadedTime': 4963.0999999940395, 'positionName': 'RIGHT', 'positionCoords': [998.4, 335.5], 'bid': 4.94}]",115712.19999998808,1669830438781,Tribe humus pita,turkey sandwich,4.05,4.94,0.8900000000000006,turkey sandwich,880.4000000059605,881,880.8000000119209,True,i,117100.40000000596,1388.2000000178814,1669830440169,1388,HRV,HRV_0120,2022-11-30 17:49:28
80,"[{'imgObject': {}, 'id': 'fruitsalad', 'src': '/static/foodstim60/fruitsalad.jpg', 'key': 'u', 'origWidth': 410, 'origHeight': 410, 'width': 410, 'height': 410, 'widthPercent': 0.45, 'rescaleHeight': False, 'trialN': 80, 'loaded': True, 'loadedTime': 5358.0999999940395, 'positionName': 'LEFT', 'positionCoords': [511.6, 335], 'bid': 5.01}, {'imgObject': {}, 'id': 'tacos', 'src': '/static/foodstim60/tacos.jpg', 'key': 'i', 'origWidth': 411, 'origHeight': 411, 'width': 411, 'height': 411, 'widthPercent': 0.45, 'rescaleHeight': False, 'trialN': 80, 'loaded': True, 'loadedTime': 2224.4000000059605, 'positionName': 'RIGHT', 'positionCoords': [998.4, 334.5], 'bid': 7.29}]",117100.69999998808,1669830440169,fruitsalad,tacos,5.01,7.29,2.2800000000000002,tacos,708.2000000178814,709,708.6000000238419,True,i,118323.5,1222.800000011921,1669830441392,1223,HRV,HRV_0120,2022-11-30 17:49:28
81,"[{'imgObject': {}, 'id': 'edamame', 'src': '/static/foodstim60/edamame.jpg', 'key': 'u', 'origWidth': 409, 'origHeight': 410, 'width': 409, 'height': 410, 'widthPercent': 0.45, 'rescaleHeight': False, 'trialN': 81, 'loaded': True, 'loadedTime': 5078.9000000059605, 'positionName': 'LEFT', 'positionCoords': [512.6, 335], 'bid': 3.59}, {'imgObject': {}, 'id': 'mac & cheese', 'src': '/static/foodstim60/mac & cheese.jpg', 'key': 'i', 'origWidth': 410, 'origHeight': 410, 'width': 410, 'height': 410, 'widthPercent': 0.45, 'rescaleHeight': False, 'trialN': 81, 'loaded': True, 'loadedTime': 2504.800000011921, 'positionName': 'RIGHT', 'positionCoords': [998.4, 335], 'bid': 3.16}]",118323.80000001192,1669830441392,edamame,mac & cheese,3.59,3.16,-0.4299999999999997,mac & cheese,884.3999999761581,885,884.7999999821186,True,i,119715.59999999404,1391.7999999821186,1669830442784,1392,HRV,HRV_0120,2022-11-30 17:49:28
82,"[{'imgObject': {}, 'id': 'baked potato', 'src': '/static/foodstim60/baked potato.jpg', 'key': 'u', 'origWidth': 409, 'origHeight': 410, 'width': 409, 'height': 410, 'widthPercent': 0.45, 'rescaleHeight': False, 'trialN': 82, 'loaded': True, 'loadedTime': 2380.4000000059605, 'positionName': 'LEFT', 'positionCoords': [512.6, 335], 'bid': 0.66}, {'imgObject': {}, 'id': 'froot loops w milk', 'src': '/static/foodstim60/froot loops w milk.jpg', 'key': 'i', 'origWidth': 410, 'origHeight': 410, 'width': 410, 'height': 410, 'widthPercent': 0.45, 'rescaleHeight': False, 'trialN': 82, 'loaded': True, 'loadedTime': 5076.0999999940395, 'positionName': 'RIGHT', 'positionCoords': [998.4, 335], 'bid': 0.77}]",119715.90000000596,1669830442784,baked potato,froot loops w milk,0.66,0.77,0.10999999999999999,baked potato,1004.4000000059605,1005,1004.9000000059605,True,u,121233.59999999404,1517.699999988079,1669830444302,1518,HRV,HRV_0120,2022-11-30 17:49:28
83,"[{'imgObject': {}, 'id': 'froot loops w milk', 'src': '/static/foodstim60/froot loops w milk.jpg', 'key': 'u', 'origWidth': 410, 'origHeight': 410, 'width': 410, 'height': 410, 'widthPercent': 0.45, 'rescaleHeight': False, 'trialN': 83, 'loaded': True, 'loadedTime': 5076.5, 'positionName': 'LEFT', 'positionCoords': [511.6, 335], 'bid': 0.77}, {'imgObject': {}, 'id': 'rigatoni', 'src': '/static/foodstim60/rigatoni.jpg', 'key': 'i', 'origWidth': 411, 'origHeight': 411, 'width': 411, 'height': 411, 'widthPercent': 0.45, 'rescaleHeight': False, 'trialN': 83, 'loaded': True, 'loadedTime': 2275.699999988079, 'positionName': 'RIGHT', 'positionCoords': [998.4, 334.5], 'bid': 5.08}]",121233.90000000596,1669830444303,froot loops w milk,rigatoni,0.77,5.08,4.3100000000000005,rigatoni,1143.0999999940395,1143,1143.699999988079,True,i,122888.40000000596,1654.5,1669830445957,1654,HRV,HRV_0120,2022-11-30 17:49:28
84,"[{'imgObject': {}, 'id': 'fried eggs', 'src': '/static/foodstim60/fried eggs.jpg', 'key': 'u', 'origWidth': 410, 'origHeight': 410, 'width': 410, 'height': 410, 'widthPercent': 0.45, 'rescaleHeight': False, 'trialN': 84, 'loaded': True, 'loadedTime': 2474.300000011921, 'positionName': 'LEFT', 'positionCoords': [511.6, 335], 'bid': 7.94}, {'imgObject': {}, 'id': 'rigatoni and sauce', 'src': '/static/foodstim60/rigatoni and sauce.jpg', 'key': 'i', 'origWidth': 410, 'origHeight': 411, 'width': 410, 'height': 411, 'widthPercent': 0.45, 'rescaleHeight': False, 'trialN': 84, 'loaded': True, 'loadedTime': 2147.699999988079, 'positionName': 'RIGHT', 'positionCoords': [998.4, 334.5], 'bid': 6.23}]",122888.90000000596,1669830445957,fried eggs,rigatoni and sauce,7.94,6.23,-1.71,fried eggs,623.5,624,623.9000000059605,True,u,124019.40000000596,1130.5,1669830447088,1131,HRV,HRV_0120,2022-11-30 17:49:28
85,"[{'imgObject': {}, 'id': 'bagel and cc', 'src': '/static/foodstim60/bagel and cc.jpg', 'key': 'u', 'origWidth': 410, 'origHeight': 410, 'width': 410, 'height': 410, 'widthPercent': 0.45, 'rescaleHeight': False, 'trialN': 85, 'loaded': True, 'loadedTime': 3911.5999999940395, 'positionName': 'LEFT', 'positionCoords': [511.6, 335], 'bid': 7.72}, {'imgObject': {}, 'id': 'burger', 'src': '/static/foodstim60/burger.jpg', 'key': 'i', 'origWidth': 409, 'origHeight': 409, 'width': 409, 'height': 409, 'widthPercent': 0.45, 'rescaleHeight': False, 'trialN': 85, 'loaded': True, 'loadedTime': 2431.9000000059605, 'positionName': 'RIGHT', 'positionCoords': [998.4, 335.5], 'bid': 7.890000000000001}]",124019.5,1669830447088,bagel and cc,burger,7.72,7.890000000000001,0.17000000000000082,burger,628.8000000119209,629,629.1999999880791,True,i,125153.69999998808,1134.199999988079,1669830448222,1134,HRV,HRV_0120,2022-11-30 17:49:28
86,"[{'imgObject': {}, 'id': 'hotdog w must', 'src': '/static/foodstim60/hotdog w must.jpg', 'key': 'u', 'origWidth': 409, 'origHeight': 409, 'width': 409, 'height': 409, 'widthPercent': 0.45, 'rescaleHeight': False, 'trialN': 86, 'loaded': True, 'loadedTime': 3353.4000000059605, 'positionName': 'LEFT', 'positionCoords': [512.6, 335.5], 'bid': 0.1}, {'imgObject': {}, 'id': 'corn cob', 'src': '/static/foodstim60/corn cob.jpg', 'key': 'i', 'origWidth': 411, 'origHeight': 411, 'width': 411, 'height': 411, 'widthPercent': 0.45, 'rescaleHeight': False, 'trialN': 86, 'loaded': True, 'loadedTime': 3745, 'positionName': 'RIGHT', 'positionCoords': [998.4, 334.5], 'bid': 0}]",125153.90000000596,1669830448223,hotdog w must,corn cob,0.1,0.0,-0.1,hotdog w must,758.5999999940395,759,759.0,True,u,126427.09999999404,1273.199999988079,1669830449496,1273,HRV,HRV_0120,2022-11-30 17:49:28
87,"[{'imgObject': {}, 'id': 'hotdog w must', 'src': '/static/foodstim60/hotdog w must.jpg', 'key': 'u', 'origWidth': 409, 'origHeight': 409, 'width': 409, 'height': 409, 'widthPercent': 0.45, 'rescaleHeight': False, 'trialN': 87, 'loaded': True, 'loadedTime': 3352.4000000059605, 'positionName': 'LEFT', 'positionCoords': [512.6, 335.5], 'bid': 0.1}, {'imgObject': {}, 'id': 'orange slices', 'src': '/static/foodstim60/orange slices.jpg', 'key': 'i', 'origWidth': 409, 'origHeight': 410, 'width': 409, 'height': 410, 'widthPercent': 0.45, 'rescaleHeight': False, 'trialN': 87, 'loaded': True, 'loadedTime': 4402.5999999940395, 'positionName': 'RIGHT', 'positionCoords': [998.4, 335], 'bid': 0.11}]",126427.5,1669830449496,hotdog w must,orange slices,0.1,0.11,0.009999999999999995,hotdog w must,661.0,661,661.3000000119209,True,u,127603.40000000596,1175.9000000059605,1669830450672,1176,HRV,HRV_0120,2022-11-30 17:49:28
88,"[{'imgObject': {}, 'id': 'hotdog w must', 'src': '/static/foodstim60/hotdog w must.jpg', 'key': 'u', 'origWidth': 409, 'origHeight': 409, 'width': 409, 'height': 409, 'widthPercent': 0.45, 'rescaleHeight': False, 'trialN': 88, 'loaded': True, 'loadedTime': 3364.9000000059605, 'positionName': 'LEFT', 'positionCoords': [512.6, 335.5], 'bid': 0.1}, {'imgObject': {}, 'id': 'eggsalad', 'src': '/static/foodstim60/eggsalad.jpg', 'key': 'i', 'origWidth': 410, 'origHeight': 409, 'width': 410, 'height': 409, 'widthPercent': 0.45, 'rescaleHeight': False, 'trialN': 88, 'loaded': True, 'loadedTime': 4268.699999988079, 'positionName': 'RIGHT', 'positionCoords': [998.4, 335.5], 'bid': 0.89}]",127603.69999998808,1669830450672,hotdog w must,eggsalad,0.1,0.89,0.79,hotdog w must,901.4000000059605,902,901.7000000178814,True,u,129011.59999999404,1407.9000000059605,1669830452080,1408,HRV,HRV_0120,2022-11-30 17:49:28
89,"[{'imgObject': {}, 'id': 'ice cream sundae 002', 'src': '/static/foodstim60/ice cream sundae 002.jpg', 'key': 'u', 'origWidth': 409, 'origHeight': 409, 'width': 409, 'height': 409, 'widthPercent': 0.45, 'rescaleHeight': False, 'trialN': 89, 'loaded': True, 'loadedTime': 3974.800000011921, 'positionName': 'LEFT', 'positionCoords': [512.6, 335.5], 'bid': 0.77}, {'imgObject': {}, 'id': 'Grapes', 'src': '/static/foodstim60/Grapes.jpg', 'key': 'i', 'origWidth': 411, 'origHeight': 411, 'width': 411, 'height': 411, 'widthPercent': 0.45, 'rescaleHeight': False, 'trialN': 89, 'loaded': True, 'loadedTime': 5429.0999999940395, 'positionName': 'RIGHT', 'positionCoords': [998.4, 334.5], 'bid': 5.0600000000000005}]",129011.80000001192,1669830452080,ice cream sundae 002,Grapes,0.77,5.0600000000000005,4.290000000000001,ice cream sundae 002,812.5,813,813.0,True,u,130332.80000001192,1321.0,1669830453401,1321,HRV,HRV_0120,2022-11-30 17:49:28
90,"[{'imgObject': {}, 'id': 'strawberries', 'src': '/static/foodstim60/strawberries.jpg', 'key': 'u', 'origWidth': 410, 'origHeight': 410, 'width': 410, 'height': 410, 'widthPercent': 0.45, 'rescaleHeight': False, 'trialN': 90, 'loaded': True, 'loadedTime': 5003.0999999940395, 'positionName': 'LEFT', 'positionCoords': [511.6, 335], 'bid': 5.03}, {'imgObject': {}, 'id': 'tacos', 'src': '/static/foodstim60/tacos.jpg', 'key': 'i', 'origWidth': 411, 'origHeight': 411, 'width': 411, 'height': 411, 'widthPercent': 0.45, 'rescaleHeight': False, 'trialN': 90, 'loaded': True, 'loadedTime': 2224.5, 'positionName': 'RIGHT', 'positionCoords': [998.4, 334.5], 'bid': 7.29}]",132360.09999999404,1669830455429,strawberries,tacos,5.03,7.29,2.26,tacos,816.4000000059605,816,816.5999999940395,True,i,133685.30000001192,1325.2000000178814,1669830456754,1325,HRV,HRV_0120,2022-11-30 17:49:28
91,"[{'imgObject': {}, 'id': 'cheerios', 'src': '/static/foodstim60/cheerios.jpg', 'key': 'u', 'origWidth': 409, 'origHeight': 410, 'width': 409, 'height': 410, 'widthPercent': 0.45, 'rescaleHeight': False, 'trialN': 91, 'loaded': True, 'loadedTime': 5059.199999988079, 'positionName': 'LEFT', 'positionCoords': [512.6, 335], 'bid': 5.04}, {'imgObject': {}, 'id': 'fruitsalad', 'src': '/static/foodstim60/fruitsalad.jpg', 'key': 'i', 'origWidth': 410, 'origHeight': 410, 'width': 410, 'height': 410, 'widthPercent': 0.45, 'rescaleHeight': False, 'trialN': 91, 'loaded': True, 'loadedTime': 5356.0999999940395, 'positionName': 'RIGHT', 'positionCoords': [998.4, 335], 'bid': 5.01}]",133685.40000000596,1669830456754,cheerios,fruitsalad,5.04,5.01,-0.03000000000000025,cheerios,795.0,795,795.2999999821186,True,u,134999.69999998808,1314.2999999821186,1669830458068,1314,HRV,HRV_0120,2022-11-30 17:49:28
92,"[{'imgObject': {}, 'id': 'salmon', 'src': '/static/foodstim60/salmon.jpg', 'key': 'u', 'origWidth': 410, 'origHeight': 409, 'width': 410, 'height': 409, 'widthPercent': 0.45, 'rescaleHeight': False, 'trialN': 92, 'loaded': True, 'loadedTime': 4373.5, 'positionName': 'LEFT', 'positionCoords': [511.6, 335.5], 'bid': 0.09}, {'imgObject': {}, 'id': 'chicken nuggets2', 'src': '/static/foodstim60/chicken nuggets2.jpg', 'key': 'i', 'origWidth': 410, 'origHeight': 409, 'width': 410, 'height': 409, 'widthPercent': 0.45, 'rescaleHeight': False, 'trialN': 92, 'loaded': True, 'loadedTime': 3938.300000011921, 'positionName': 'RIGHT', 'positionCoords': [998.4, 335.5], 'bid': 0.31}]",134999.90000000596,1669830458068,salmon,chicken nuggets2,0.09,0.31,0.22,chicken nuggets2,688.4000000059605,689,688.6999999880791,True,i,136206.40000000596,1206.5,1669830459275,1207,HRV,HRV_0120,2022-11-30 17:49:28
93,"[{'imgObject': {}, 'id': 'seaweed', 'src': '/static/foodstim60/seaweed.jpg', 'key': 'u', 'origWidth': 410, 'origHeight': 410, 'width': 410, 'height': 410, 'widthPercent': 0.45, 'rescaleHeight': False, 'trialN': 93, 'loaded': True, 'loadedTime': 2133.9000000059605, 'positionName': 'LEFT', 'positionCoords': [511.6, 335], 'bid': 0.11}, {'imgObject': {}, 'id': 'olives', 'src': '/static/foodstim60/olives.jpg', 'key': 'i', 'origWidth': 410, 'origHeight': 410, 'width': 410, 'height': 410, 'widthPercent': 0.45, 'rescaleHeight': False, 'trialN': 93, 'loaded': True, 'loadedTime': 2478.199999988079, 'positionName': 'RIGHT', 'positionCoords': [998.4, 335], 'bid': 0.13}]",136206.59999999404,1669830459275,seaweed,olives,0.11,0.13,0.020000000000000004,olives,729.5999999940395,730,730.2000000178814,True,i,137446.69999998808,1240.0999999940395,1669830460515,1240,HRV,HRV_0120,2022-11-30 17:49:28
94,"[{'imgObject': {}, 'id': 'kiwi', 'src': '/static/foodstim60/kiwi.jpg', 'key': 'u', 'origWidth': 410, 'origHeight': 410, 'width': 410, 'height': 410, 'widthPercent': 0.45, 'rescaleHeight': False, 'trialN': 94, 'loaded': True, 'loadedTime': 3780.699999988079, 'positionName': 'LEFT', 'positionCoords': [511.6, 335], 'bid': 9.13}, {'imgObject': {}, 'id': 'raspberries', 'src': '/static/foodstim60/raspberries.jpg', 'key': 'i', 'origWidth': 411, 'origHeight': 411, 'width': 411, 'height': 411, 'widthPercent': 0.45, 'rescaleHeight': False, 'trialN': 94, 'loaded': True, 'loadedTime': 2451.300000011921, 'positionName': 'RIGHT', 'positionCoords': [998.4, 334.5], 'bid': 8.85}]",137446.90000000596,1669830460515,kiwi,raspberries,9.13,8.85,-0.28000000000000114,kiwi,593.5,594,593.9000000059605,True,u,138559.59999999404,1112.699999988079,1669830461628,1113,HRV,HRV_0120,2022-11-30 17:49:28
95,"[{'imgObject': {}, 'id': 'orange slices', 'src': '/static/foodstim60/orange slices.jpg', 'key': 'u', 'origWidth': 409, 'origHeight': 410, 'width': 409, 'height': 410, 'widthPercent': 0.45, 'rescaleHeight': False, 'trialN': 95, 'loaded': True, 'loadedTime': 4402.699999988079, 'positionName': 'LEFT', 'positionCoords': [512.6, 335], 'bid': 0.11}, {'imgObject': {}, 'id': 'chickenfingers', 'src': '/static/foodstim60/chickenfingers.jpg', 'key': 'i', 'origWidth': 410, 'origHeight': 410, 'width': 410, 'height': 410, 'widthPercent': 0.45, 'rescaleHeight': False, 'trialN': 95, 'loaded': True, 'loadedTime': 3756.199999988079, 'positionName': 'RIGHT', 'positionCoords': [998.4, 335], 'bid': 0.95}]",138559.90000000596,1669830461628,orange slices,chickenfingers,0.11,0.95,0.84,chickenfingers,728.6999999880791,730,729.2999999821186,True,i,139799.19999998808,1239.2999999821186,1669830462868,1240,HRV,HRV_0120,2022-11-30 17:49:28
96,"[{'imgObject': {}, 'id': 'mango', 'src': '/static/foodstim60/mango.jpg', 'key': 'u', 'origWidth': 411, 'origHeight': 411, 'width': 411, 'height': 411, 'widthPercent': 0.45, 'rescaleHeight': False, 'trialN': 96, 'loaded': True, 'loadedTime': 2307.800000011921, 'positionName': 'LEFT', 'positionCoords': [510.6, 334.5], 'bid': 5.0200000000000005}, {'imgObject': {}, 'id': 'cheerios', 'src': '/static/foodstim60/cheerios.jpg', 'key': 'i', 'origWidth': 409, 'origHeight': 410, 'width': 409, 'height': 410, 'widthPercent': 0.45, 'rescaleHeight': False, 'trialN': 96, 'loaded': True, 'loadedTime': 5059.0999999940395, 'positionName': 'RIGHT', 'positionCoords': [998.4, 335], 'bid': 5.04}]",139799.5,1669830462868,mango,cheerios,5.0200000000000005,5.04,0.019999999999999574,mango,640.9000000059605,641,641.1999999880791,True,u,140945.90000000596,1146.4000000059605,1669830464014,1146,HRV,HRV_0120,2022-11-30 17:49:28
97,"[{'imgObject': {}, 'id': 'sweetpotato', 'src': '/static/foodstim60/sweetpotato.jpg', 'key': 'u', 'origWidth': 410, 'origHeight': 410, 'width': 410, 'height': 410, 'widthPercent': 0.45, 'rescaleHeight': False, 'trialN': 97, 'loaded': True, 'loadedTime': 2484, 'positionName': 'LEFT', 'positionCoords': [511.6, 335], 'bid': 4.98}, {'imgObject': {}, 'id': 'turkeysandwich', 'src': '/static/foodstim60/turkeysandwich.jpg', 'key': 'i', 'origWidth': 409, 'origHeight': 409, 'width': 409, 'height': 409, 'widthPercent': 0.45, 'rescaleHeight': False, 'trialN': 97, 'loaded': True, 'loadedTime': 2642, 'positionName': 'RIGHT', 'positionCoords': [998.4, 335.5], 'bid': 5.98}]",140946.09999999404,1669830464015,sweetpotato,turkeysandwich,4.98,5.98,1.0,turkeysandwich,566.4000000059605,567,566.8000000119209,True,i,142032.69999998808,1086.5999999940395,1669830465101,1086,HRV,HRV_0120,2022-11-30 17:49:28
98,"[{'imgObject': {}, 'id': 'granola w milk', 'src': '/static/foodstim60/granola w milk.jpg', 'key': 'u', 'origWidth': 410, 'origHeight': 410, 'width': 410, 'height': 410, 'widthPercent': 0.45, 'rescaleHeight': False, 'trialN': 98, 'loaded': True, 'loadedTime': 4945.5999999940395, 'positionName': 'LEFT', 'positionCoords': [511.6, 335], 'bid': 2.94}, {'imgObject': {}, 'id': 'bagel and cc', 'src': '/static/foodstim60/bagel and cc.jpg', 'key': 'i', 'origWidth': 410, 'origHeight': 410, 'width': 410, 'height': 410, 'widthPercent': 0.45, 'rescaleHeight': False, 'trialN': 98, 'loaded': True, 'loadedTime': 3913, 'positionName': 'RIGHT', 'positionCoords': [998.4, 335], 'bid': 7.72}]",142033.0,1669830465102,granola w milk,bagel and cc,2.94,7.72,4.779999999999999,granola w milk,971.5999999940395,972,971.9000000059605,True,u,143521.19999998808,1488.199999988079,1669830466590,1488,HRV,HRV_0120,2022-11-30 17:49:28
99,"[{'imgObject': {}, 'id': 'turkey sandwich', 'src': '/static/foodstim60/turkey sandwich.jpg', 'key': 'u', 'origWidth': 409, 'origHeight': 409, 'width': 409, 'height': 409, 'widthPercent': 0.45, 'rescaleHeight': False, 'trialN': 99, 'loaded': True, 'loadedTime': 4962.800000011921, 'positionName': 'LEFT', 'positionCoords': [512.6, 335.5], 'bid': 4.94}, {'imgObject': {}, 'id': 'steak', 'src': '/static/foodstim60/steak.jpg', 'key': 'i', 'origWidth': 410, 'origHeight': 410, 'width': 410, 'height': 410, 'widthPercent': 0.45, 'rescaleHeight': False, 'trialN': 99, 'loaded': True, 'loadedTime': 5040.5, 'positionName': 'RIGHT', 'positionCoords': [998.4, 335], 'bid': 4.97}]",143521.30000001192,1669830466590,turkey sandwich,steak,4.94,4.97,0.02999999999999936,steak,571.0999999940395,571,571.5999999940395,True,i,144609.69999998808,1088.3999999761581,1669830467678,1088,HRV,HRV_0120,2022-11-30 17:49:28
100,"[{'imgObject': {}, 'id': 'steak', 'src': '/static/foodstim60/steak.jpg', 'key': 'u', 'origWidth': 410, 'origHeight': 410, 'width': 410, 'height': 410, 'widthPercent': 0.45, 'rescaleHeight': False, 'trialN': 100, 'loaded': True, 'loadedTime': 5039.199999988079, 'positionName': 'LEFT', 'positionCoords': [511.6, 335], 'bid': 4.97}, {'imgObject': {}, 'id': 'cocktailshrimp', 'src': '/static/foodstim60/cocktailshrimp.jpg', 'key': 'i', 'origWidth': 410, 'origHeight': 410, 'width': 410, 'height': 410, 'widthPercent': 0.45, 'rescaleHeight': False, 'trialN': 100, 'loaded': True, 'loadedTime': 3963.9000000059605, 'positionName': 'RIGHT', 'positionCoords': [998.4, 335], 'bid': 0.04}]",144609.90000000596,1669830467678,steak,cocktailshrimp,4.97,0.04,-4.93,steak,1098.7999999821186,1100,1099.199999988079,True,u,146224.5,1614.5999999940395,1669830469293,1615,HRV,HRV_0120,2022-11-30 17:49:28
101,"[{'imgObject': {}, 'id': 'ice cream sundae 002', 'src': '/static/foodstim60/ice cream sundae 002.jpg', 'key': 'u', 'origWidth': 409, 'origHeight': 409, 'width': 409, 'height': 409, 'widthPercent': 0.45, 'rescaleHeight': False, 'trialN': 101, 'loaded': True, 'loadedTime': 3973.4000000059605, 'positionName': 'LEFT', 'positionCoords': [512.6, 335.5], 'bid': 0.77}, {'imgObject': {}, 'id': 'froot loops w milk', 'src': '/static/foodstim60/froot loops w milk.jpg', 'key': 'i', 'origWidth': 410, 'origHeight': 410, 'width': 410, 'height': 410, 'widthPercent': 0.45, 'rescaleHeight': False, 'trialN': 101, 'loaded': True, 'loadedTime': 5076.199999988079, 'positionName': 'RIGHT', 'positionCoords': [998.4, 335], 'bid': 0.77}]",146224.80000001192,1669830469293,ice cream sundae 002,froot loops w milk,0.77,0.77,0.0,ice cream sundae 002,595.5999999940395,596,596.0,True,u,147341.19999998808,1116.3999999761581,1669830470410,1117,HRV,HRV_0120,2022-11-30 17:49:28
102,"[{'imgObject': {}, 'id': 'cherries', 'src': '/static/foodstim60/cherries.jpg', 'key': 'u', 'origWidth': 410, 'origHeight': 411, 'width': 410, 'height': 411, 'widthPercent': 0.45, 'rescaleHeight': False, 'trialN': 102, 'loaded': True, 'loadedTime': 2243.699999988079, 'positionName': 'LEFT', 'positionCoords': [511.6, 334.5], 'bid': 5.19}, {'imgObject': {}, 'id': 'mango', 'src': '/static/foodstim60/mango.jpg', 'key': 'i', 'origWidth': 411, 'origHeight': 411, 'width': 411, 'height': 411, 'widthPercent': 0.45, 'rescaleHeight': False, 'trialN': 102, 'loaded': True, 'loadedTime': 2303.9000000059605, 'positionName': 'RIGHT', 'positionCoords': [998.4, 334.5], 'bid': 5.0200000000000005}]",147341.40000000596,1669830470410,cherries,mango,5.19,5.0200000000000005,-0.16999999999999993,cherries,679.0999999940395,680,679.5999999940395,True,u,148534.09999999404,1192.699999988079,1669830471603,1193,HRV,HRV_0120,2022-11-30 17:49:28
103,"[{'imgObject': {}, 'id': 'cherries', 'src': '/static/foodstim60/cherries.jpg', 'key': 'u', 'origWidth': 410, 'origHeight': 411, 'width': 410, 'height': 411, 'widthPercent': 0.45, 'rescaleHeight': False, 'trialN': 103, 'loaded': True, 'loadedTime': 2244.0999999940395, 'positionName': 'LEFT', 'positionCoords': [511.6, 334.5], 'bid': 5.19}, {'imgObject': {}, 'id': 'veggieswithdip', 'src': '/static/foodstim60/veggieswithdip.jpg', 'key': 'i', 'origWidth': 409, 'origHeight': 409, 'width': 409, 'height': 409, 'widthPercent': 0.45, 'rescaleHeight': False, 'trialN': 103, 'loaded': True, 'loadedTime': 4266.4000000059605, 'positionName': 'RIGHT', 'positionCoords': [998.4, 335.5], 'bid': 4.97}]",148534.40000000596,1669830471603,cherries,veggieswithdip,5.19,4.97,-0.22000000000000064,veggieswithdip,606.0,607,606.5,True,i,149653.09999999404,1118.699999988079,1669830472722,1119,HRV,HRV_0120,2022-11-30 17:49:28
104,"[{'imgObject': {}, 'id': 'mac & cheese', 'src': '/static/foodstim60/mac & cheese.jpg', 'key': 'u', 'origWidth': 410, 'origHeight': 410, 'width': 410, 'height': 410, 'widthPercent': 0.45, 'rescaleHeight': False, 'trialN': 104, 'loaded': True, 'loadedTime': 2525, 'positionName': 'LEFT', 'positionCoords': [511.6, 335], 'bid': 3.16}, {'imgObject': {}, 'id': 'burger', 'src': '/static/foodstim60/burger.jpg', 'key': 'i', 'origWidth': 409, 'origHeight': 409, 'width': 409, 'height': 409, 'widthPercent': 0.45, 'rescaleHeight': False, 'trialN': 104, 'loaded': True, 'loadedTime': 2435.699999988079, 'positionName': 'RIGHT', 'positionCoords': [998.4, 335.5], 'bid': 7.890000000000001}]",149653.19999998808,1669830472722,mac & cheese,burger,3.16,7.890000000000001,4.73,burger,655.6000000238419,656,656.1000000238419,True,i,150828.19999998808,1175.0,1669830473897,1175,HRV,HRV_0120,2022-11-30 17:49:28
105,"[{'imgObject': {}, 'id': 'eggs', 'src': '/static/foodstim60/eggs.jpg', 'key': 'u', 'origWidth': 409, 'origHeight': 409, 'width': 409, 'height': 409, 'widthPercent': 0.45, 'rescaleHeight': False, 'trialN': 105, 'loaded': True, 'loadedTime': 5080.300000011921, 'positionName': 'LEFT', 'positionCoords': [512.6, 335.5], 'bid': 0.12}, {'imgObject': {}, 'id': 'banana', 'src': '/static/foodstim60/banana.jpg', 'key': 'i', 'origWidth': 410, 'origHeight': 410, 'width': 410, 'height': 410, 'widthPercent': 0.45, 'rescaleHeight': False, 'trialN': 105, 'loaded': True, 'loadedTime': 2289.300000011921, 'positionName': 'RIGHT', 'positionCoords': [998.4, 335], 'bid': 5.01}]",150828.5,1669830473897,eggs,banana,0.12,5.01,4.89,banana,679.8000000119209,680,680.1999999880791,True,i,152022.19999998808,1193.699999988079,1669830475091,1194,HRV,HRV_0120,2022-11-30 17:49:28
106,"[{'imgObject': {}, 'id': 'hotdog w must', 'src': '/static/foodstim60/hotdog w must.jpg', 'key': 'u', 'origWidth': 409, 'origHeight': 409, 'width': 409, 'height': 409, 'widthPercent': 0.45, 'rescaleHeight': False, 'trialN': 106, 'loaded': True, 'loadedTime': 3364.0999999940395, 'positionName': 'LEFT', 'positionCoords': [512.6, 335.5], 'bid': 0.1}, {'imgObject': {}, 'id': 'lox', 'src': '/static/foodstim60/lox.jpg', 'key': 'i', 'origWidth': 410, 'origHeight': 411, 'width': 410, 'height': 411, 'widthPercent': 0.45, 'rescaleHeight': False, 'trialN': 106, 'loaded': True, 'loadedTime': 4969.5999999940395, 'positionName': 'RIGHT', 'positionCoords': [998.4, 334.5], 'bid': 0.09}]",152022.90000000596,1669830475092,hotdog w must,lox,0.1,0.09,-0.010000000000000009,lox,773.7999999821186,774,774.1999999880791,True,i,153313.69999998808,1290.7999999821186,1669830476382,1290,HRV,HRV_0120,2022-11-30 17:49:28
107,"[{'imgObject': {}, 'id': 'strawberries', 'src': '/static/foodstim60/strawberries.jpg', 'key': 'u', 'origWidth': 410, 'origHeight': 410, 'width': 410, 'height': 410, 'widthPercent': 0.45, 'rescaleHeight': False, 'trialN': 107, 'loaded': True, 'loadedTime': 5003.0999999940395, 'positionName': 'LEFT', 'positionCoords': [511.6, 335], 'bid': 5.03}, {'imgObject': {}, 'id': 'salad w chicken', 'src': '/static/foodstim60/salad w chicken.jpg', 'key': 'i', 'origWidth': 411, 'origHeight': 411, 'width': 411, 'height': 411, 'widthPercent': 0.45, 'rescaleHeight': False, 'trialN': 107, 'loaded': True, 'loadedTime': 2334.699999988079, 'positionName': 'RIGHT', 'positionCoords': [998.4, 334.5], 'bid': 5.0200000000000005}]",153313.90000000596,1669830476383,strawberries,salad w chicken,5.03,5.0200000000000005,-0.009999999999999787,salad w chicken,818.5,818,819.0,True,i,154644.0,1330.0999999940395,1669830477713,1330,HRV,HRV_0120,2022-11-30 17:49:28
108,"[{'imgObject': {}, 'id': 'mango', 'src': '/static/foodstim60/mango.jpg', 'key': 'u', 'origWidth': 411, 'origHeight': 411, 'width': 411, 'height': 411, 'widthPercent': 0.45, 'rescaleHeight': False, 'trialN': 108, 'loaded': True, 'loadedTime': 2308.800000011921, 'positionName': 'LEFT', 'positionCoords': [510.6, 334.5], 'bid': 5.0200000000000005}, {'imgObject': {}, 'id': 'chicken nuggets2', 'src': '/static/foodstim60/chicken nuggets2.jpg', 'key': 'i', 'origWidth': 410, 'origHeight': 409, 'width': 410, 'height': 409, 'widthPercent': 0.45, 'rescaleHeight': False, 'trialN': 108, 'loaded': True, 'loadedTime': 3937.0999999940395, 'positionName': 'RIGHT', 'positionCoords': [998.4, 335.5], 'bid': 0.31}]",154644.5,1669830477713,mango,chicken nuggets2,5.0200000000000005,0.31,-4.710000000000001,chicken nuggets2,823.6999999880791,824,824.0999999940395,True,i,155972.59999999404,1328.0999999940395,1669830479041,1328,HRV,HRV_0120,2022-11-30 17:49:28
