success,trial_type,trial_index,time_elapsed,internal_node_id,Block,TrialNumber,TrialTime,trialTimeDiff,FPS_avg,FPS_med,FPS_mode,TrialDur,winResizeTime,rt,block,button_pressed,MotCoh,MotDir,ColCoh,Color,ChoiceKey,Choice,Accuracy,RT,nFrames,FPS,PPD,missTrial,missTrialMsg,onsetDelay,fullScreenExitTime,canvCenter,TrialType,Score,BlockTrial,stimulus,button_labels,exp,subjectId,date
True,fullscreen,0,353509,0.0-0.0,0.0,1.0,,,,,,,,,,,,,,,,,,,,,,,,,,,,,,,,HRV,HRV_0120,2022-11-30 18:18:38
,wl-check-fps,1,358525,0.0-1.0,0.0,2.0,"[354075.1, 354091.9, 354108.3, 354125.5, 354142.7, 354160.9, 354176.4, 354192.5, 354208.9, 354225.4, 354242.2, 354258.9, 354274.7, 354294.4, 354308.6, 354325.9, 354342.1, 354359.4, 354375, 354392.1, 354408.3, 354425, 354441.8, 354458.4, 354475.1, 354491.4, 354508.7, 354525.6, 354543, 354558.9, 354575.4, 354594.2, 354608.8, 354625.4, 354642.7, 354659.5, 354676.4, 354692.5, 354709.6, 354726.3, 354742.6, 354759.5, 354777.2, 354792.2, 354808.8, 354826.3, 354842.4, 354859.6, 354876.2, 354892.3, 354909.9, 354925.7, 354943.1, 354959.2, 354976, 354993.3, 355009.8, 355026.3, 355042.7, 355060.1, 355076.2, 355092.7, 355109.4, 355126.1, 355142.7, 355159.4, 355175.3, 355192.3, 355208.9, 355225.4, 355243.4, 355259.5, 355276.1, 355292.2, 355309.7, 355325.5, 355343.2, 355359.5, 355376.1, 355392.3, 355409, 355425.9, 355442.9, 355459.5, 355476.2, 355493.3, 355509.7, 355526, 355542.8, 355559.7, 355575.9, 355595.8, 355608.9, 355625, 355642.3, 355659.4, 355676.3, 355692.4, 355709.5, 355725.7, 355742.9, 355759.6, 355776.2, 355792.7, 355809.2, 355826.3, 355842.8, 355859.6, 355876.4, 355892.8, 355909.2, 355926.7, 355942.5, 355959.7, 355976.2, 355992.7, 356010.2, 356026.2, 356043.3, 356059.4, 356076.8, 356092.5, 356109.7, 356126.4, 356142.4, 356159.1, 356175.4, 356192.4, 356208.7, 356225.8, 356242.2, 356258.8, 356275.6, 356292.3, 356309.2, 356326, 356342.5, 356358.5, 356375.8, 356392, 356408.4, 356425.5, 356442.4, 356458.9, 356475.7, 356492.3, 356510.4, 356525.8, 356542.4, 356559.2, 356575.2, 356594.1, 356609, 356625.8, 356642.8, 356659.6, 356675.7, 356692.5, 356709.1, 356727.1, 356742.3, 356758.4, 356775.7, 356792.1, 356808.7, 356824.9, 356842.4, 356858.7, 356875, 356892.1, 356909.1, 356925.3, 356942.1, 356959, 356975.9, 356992.3, 357008.5, 357025.8, 357041.9, 357058.9, 357074.7, 357092.2, 357109.1, 357125.2, 357141.9, 357159.1, 357175.5, 357192.3, 357208.3, 357225, 357242.2, 357258.3, 357275.2, 357292.1, 357308.5, 357325.7, 357342.1, 357358.8, 357376, 357391.7, 357408.7, 357425.9, 357441.8, 357458.7, 357475.7, 357493, 357508.8, 357525.7, 357542.4, 357559.4, 357576.2, 357593.8, 357608.7, 357626.4, 357642.7, 357659.8, 357675.7, 357692.8, 357709.2, 357725.8, 357743.1, 357759.6, 357775.6, 357792.5, 357809.5, 357825.9, 357842.1, 357859.1, 357876, 357892.4, 357909.1, 357925.7, 357942.2, 357958.6, 357976.4, 357993.1, 358009.5, 358025.8, 358042.1, 358058.8, 358075.8, 358091.9, 358108.9, 358125.6, 358142.3, 358158.6, 358175.7, 358192.6, 358208.8, 358225.6, 358242.5, 358258.8, 358275.4, 358292, 358308.8, 358325.7, 358342, 358358.8, 358375.3, 358391.8, 358408.6, 358425.8, 358442.4, 358458.6, 358475.4, 358492.6, 358508.6, 358525.6, 358542.4, 358558.8, 358575.2, 358592, 358608.9, 358625.5, 358642.5, 358658.9, 358675.7, 358692.4, 358708.8, 358725.2, 358742.4, 358759.1, 358775.7, 358792.1, 358809.4, 358825.1, 358842.4, 358859, 358875.5, 358892.5, 358909.3, 358925.6, 358942.2, 358959, 358975.8, 358992.5, 359008.8, 359025.6, 359042.5, 359058.4]","[9.9, 16.8, 16.4, 17.2, 17.2, 18.2, 15.5, 16.1, 16.4, 16.5, 16.8, 16.7, 15.8, 19.7, 14.2, 17.3, 16.2, 17.3, 15.6, 17.1, 16.2, 16.7, 16.8, 16.6, 16.7, 16.3, 17.3, 16.9, 17.4, 15.9, 16.5, 18.8, 14.6, 16.6, 17.3, 16.8, 16.9, 16.1, 17.1, 16.7, 16.3, 16.9, 17.7, 15, 16.6, 17.5, 16.1, 17.2, 16.6, 16.1, 17.6, 15.8, 17.4, 16.1, 16.8, 17.3, 16.5, 16.5, 16.4, 17.4, 16.1, 16.5, 16.7, 16.7, 16.6, 16.7, 15.9, 17, 16.6, 16.5, 18, 16.1, 16.6, 16.1, 17.5, 15.8, 17.7, 16.3, 16.6, 16.2, 16.7, 16.9, 17, 16.6, 16.7, 17.1, 16.4, 16.3, 16.8, 16.9, 16.2, 19.9, 13.1, 16.1, 17.3, 17.1, 16.9, 16.1, 17.1, 16.2, 17.2, 16.7, 16.6, 16.5, 16.5, 17.1, 16.5, 16.8, 16.8, 16.4, 16.4, 17.5, 15.8, 17.2, 16.5, 16.5, 17.5, 16, 17.1, 16.1, 17.4, 15.7, 17.2, 16.7, 16, 16.7, 16.3, 17, 16.3, 17.1, 16.4, 16.6, 16.8, 16.7, 16.9, 16.8, 16.5, 16, 17.3, 16.2, 16.4, 17.1, 16.9, 16.5, 16.8, 16.6, 18.1, 15.4, 16.6, 16.8, 16, 18.9, 14.9, 16.8, 17, 16.8, 16.1, 16.8, 16.6, 18, 15.2, 16.1, 17.3, 16.4, 16.6, 16.2, 17.5, 16.3, 16.3, 17.1, 17, 16.2, 16.8, 16.9, 16.9, 16.4, 16.2, 17.3, 16.1, 17, 15.8, 17.5, 16.9, 16.1, 16.7, 17.2, 16.4, 16.8, 16, 16.7, 17.2, 16.1, 16.9, 16.9, 16.4, 17.2, 16.4, 16.7, 17.2, 15.7, 17, 17.2, 15.9, 16.9, 17, 17.3, 15.8, 16.9, 16.7, 17, 16.8, 17.6, 14.9, 17.7, 16.3, 17.1, 15.9, 17.1, 16.4, 16.6, 17.3, 16.5, 16, 16.9, 17, 16.4, 16.2, 17, 16.9, 16.4, 16.7, 16.6, 16.5, 16.4, 17.8, 16.7, 16.4, 16.3, 16.3, 16.7, 17, 16.1, 17, 16.7, 16.7, 16.3, 17.1, 16.9, 16.2, 16.8, 16.9, 16.3, 16.6, 16.6, 16.8, 16.9, 16.3, 16.8, 16.5, 16.5, 16.8, 17.2, 16.6, 16.2, 16.8, 17.2, 16, 17, 16.8, 16.4, 16.4, 16.8, 16.9, 16.6, 17, 16.4, 16.8, 16.7, 16.4, 16.4, 17.2, 16.7, 16.6, 16.4, 17.3, 15.7, 17.3, 16.6, 16.5, 17, 16.8, 16.3, 16.6, 16.8, 16.8, 16.7, 16.3, 16.8, 16.9, 15.9]",60.0,61.0,60.0,5010.4,[],,,,,,,,,,,,,,,,,,,,,,,,,HRV,HRV_0120,2022-11-30 18:18:38
,wl-html-keyboard-response,2,396743,0.0-2.0-0.0,0.0,3.0,,,,,,,,36193.70000001788,0.0,0,,,,,,,,,,,,,,,,,,,,,,HRV,HRV_0120,2022-11-30 18:18:38
,wl-rdm,3,405589,0.0-3.0-0.0,0.0,4.0,,,,,,,[],,,,0.0,0.0,87.9,0.0,u,0.0,True,990.0999999642372,60.0,60.0,40.0,False,too_early ,3000.0,[],"[960, 540]",ColorTask_Demo,,,,,HRV,HRV_0120,2022-11-30 18:18:38
,wl-rdm,4,411522,0.0-3.0-1.0,0.0,5.0,,,,,,,[],,,,0.0,0.0,87.9,1.0,i,1.0,True,1839.8999999761581,111.0,60.0,40.0,False,,2000.0,[],"[960, 540]",ColorTask_Demo,,,,,HRV,HRV_0120,2022-11-30 18:18:38
,wl-html-keyboard-response,5,416911,0.0-3.0-2.0,0.0,6.0,,,,,,,,3380.699999988079,0.0,0,,,,,,,,,,,,,,,,,,,,,,HRV,HRV_0120,2022-11-30 18:18:38
,wl-rdm,6,423106,0.0-3.1-0.1,0.0,4.0,,,,,,,[],,,,0.0,0.0,87.9,0.0,u,0.0,True,639.2000000178814,39.0,60.0,40.0,False,,3000.0,[],"[960, 540]",ColorTask_Demo,,,,,HRV,HRV_0120,2022-11-30 18:18:38
,wl-rdm,7,427856,0.0-3.1-1.1,0.0,5.0,,,,,,,[],,,,0.0,0.0,87.9,1.0,i,1.0,True,662.6999999880791,40.0,60.0,40.0,False,,2000.0,[],"[960, 540]",ColorTask_Demo,,,,,HRV,HRV_0120,2022-11-30 18:18:38
,wl-html-keyboard-response,8,430766,0.0-3.1-2.1,0.0,6.0,,,,,,,,906.6000000238419,0.0,1,,,,,,,,,,,,,,,,,,,,,,HRV,HRV_0120,2022-11-30 18:18:38
,wl-html-keyboard-response,9,441198,0.0-4.0-0.0,0.0,7.0,,,,,,,,8426.200000017881,0.0,0,,,,,,,,,,,,,,,,,,,,,,HRV,HRV_0120,2022-11-30 18:18:38
,wl-html-keyboard-response,10,464041,0.0-5.0-0.0,0.0,8.0,,,,,,,,20825.0,0.0,0,,,,,,,,,,,,,,,,,,,,,,HRV,HRV_0120,2022-11-30 18:18:38
,wl-rdm,11,465822,0.0-6.0-0.0,0.0,9.0,,,,,,,[],,,,,,87.9,0.0,u,0.0,True,376.7999999821186,23.0,60.0,40.0,False,,318.0355626168151,[],"[960, 540]",ColorTask,1.0,1.0,,,HRV,HRV_0120,2022-11-30 18:18:38
,wl-rdm,12,467922,0.0-6.1-0.1,0.0,10.0,,,,,,,[],,,,,,62.5,1.0,i,1.0,True,772.6999999880791,47.0,60.0,40.0,False,,244.1197461134907,[],"[960, 540]",ColorTask,2.0,2.0,,,HRV,HRV_0120,2022-11-30 18:18:38
,wl-rdm,13,470104,0.0-6.2-0.2,0.0,11.0,,,,,,,[],,,,,,53.2,0.0,u,0.0,True,880.9000000059605,53.0,60.0,40.0,False,,230.34634218837004,[],"[960, 540]",ColorTask,3.0,3.0,,,HRV,HRV_0120,2022-11-30 18:18:38
,wl-rdm,14,472372,0.0-6.3-0.3,0.0,12.0,,,,,,,[],,,,,,53.2,0.0,u,0.0,True,852.5999999940395,52.0,60.0,40.0,False,,336.21423941702574,[],"[960, 540]",ColorTask,4.0,4.0,,,HRV,HRV_0120,2022-11-30 18:18:38
,wl-rdm,15,474520,0.0-6.4-0.4,0.0,13.0,,,,,,,[],,,,,,62.5,0.0,u,0.0,True,847.3000000119209,51.0,60.0,40.0,False,,226.2077524494051,[],"[960, 540]",ColorTask,5.0,5.0,,,HRV,HRV_0120,2022-11-30 18:18:38
,wl-rdm,16,476539,0.0-6.5-0.5,0.0,14.0,,,,,,,[],,,,,,73.6,0.0,u,0.0,True,705.0,43.0,60.0,40.0,False,,222.2218349935941,[],"[960, 540]",ColorTask,6.0,6.0,,,HRV,HRV_0120,2022-11-30 18:18:38
,wl-rdm,17,478589,0.0-6.6-0.6,0.0,15.0,,,,,,,[],,,,,,56.4,0.0,u,0.0,True,671.6999999880791,41.0,60.0,40.0,False,,297.6462525856738,[],"[960, 540]",ColorTask,7.0,7.0,,,HRV,HRV_0120,2022-11-30 18:18:38
,wl-rdm,18,480605,0.0-6.7-0.7,0.0,16.0,,,,,,,[],,,,,,56.4,1.0,i,1.0,True,736.0,45.0,60.0,40.0,False,,203.8653416901961,[],"[960, 540]",ColorTask,8.0,8.0,,,HRV,HRV_0120,2022-11-30 18:18:38
,wl-rdm,19,482655,0.0-6.8-0.8,0.0,17.0,,,,,,,[],,,,,,73.6,0.0,u,0.0,True,641.5999999940395,39.0,60.0,40.0,False,,327.0238988218171,[],"[960, 540]",ColorTask,9.0,9.0,,,HRV,HRV_0120,2022-11-30 18:18:38
,wl-rdm,20,484772,0.0-6.9-0.9,0.0,18.0,,,,,,,[],,,,,,53.2,1.0,i,1.0,True,637.8000000119209,39.0,60.0,40.0,False,,383.7831944443765,[],"[960, 540]",ColorTask,10.0,10.0,,,HRV,HRV_0120,2022-11-30 18:18:38
,wl-rdm,21,487005,0.0-6.10-0.10,0.0,19.0,,,,,,,[],,,,,,53.2,0.0,u,0.0,True,926.5999999940395,56.0,60.0,40.0,False,,225.46402209101717,[],"[960, 540]",ColorTask,11.0,11.0,,,HRV,HRV_0120,2022-11-30 18:18:38
,wl-rdm,22,489022,0.0-6.11-0.11,0.0,20.0,,,,,,,[],,,,,,50.0,0.0,u,0.0,True,737.2999999821186,45.0,60.0,40.0,False,,201.45793016881225,[],"[960, 540]",ColorTask,12.0,12.0,,,HRV,HRV_0120,2022-11-30 18:18:38
,wl-rdm,23,491139,0.0-6.12-0.12,0.0,21.0,,,,,,,[],,,,,,56.4,0.0,u,0.0,True,763.0999999940395,46.0,60.0,40.0,False,,272.7693014579448,[],"[960, 540]",ColorTask,13.0,13.0,,,HRV,HRV_0120,2022-11-30 18:18:38
,wl-rdm,24,493455,0.0-6.13-0.13,0.0,22.0,,,,,,,[],,,,,,56.4,1.0,i,1.0,True,969.4999999701977,59.0,60.0,40.0,False,,254.75626360029156,[],"[960, 540]",ColorTask,14.0,14.0,,,HRV,HRV_0120,2022-11-30 18:18:38
,wl-rdm,25,495755,0.0-6.14-0.14,0.0,23.0,,,,,,,[],,,,,,53.2,0.0,u,0.0,True,878.0999999940395,53.0,60.0,40.0,False,,359.3551556526693,[],"[960, 540]",ColorTask,15.0,15.0,,,HRV,HRV_0120,2022-11-30 18:18:38
,wl-rdm,26,497806,0.0-6.15-0.15,0.0,24.0,,,,,,,[],,,,,,73.6,0.0,u,0.0,True,663.9999999701977,40.0,60.0,40.0,False,,306.65063414834714,[],"[960, 540]",ColorTask,16.0,16.0,,,HRV,HRV_0120,2022-11-30 18:18:38
,wl-rdm,27,499872,0.0-6.16-0.16,0.0,25.0,,,,,,,[],,,,,,53.2,1.0,i,1.0,True,777.3000000119209,47.0,60.0,40.0,False,,221.67167593017882,[],"[960, 540]",ColorTask,17.0,17.0,,,HRV,HRV_0120,2022-11-30 18:18:38
,wl-rdm,28,501839,0.0-6.17-0.17,0.0,26.0,,,,,,,[],,,,,,87.9,0.0,u,0.0,True,579.1000000238419,35.0,60.0,40.0,False,,315.28483405361766,[],"[960, 540]",ColorTask,18.0,18.0,,,HRV,HRV_0120,2022-11-30 18:18:38
,wl-rdm,29,504271,0.0-6.18-0.18,0.0,27.0,,,,,,,[],,,,,,53.2,1.0,u,0.0,False,1128.7000000178814,68.0,60.0,40.0,False,,216.6413779244244,[],"[960, 540]",ColorTask,17.0,19.0,,,HRV,HRV_0120,2022-11-30 18:18:38
,wl-rdm,30,506838,0.0-6.19-0.19,0.0,28.0,,,,,,,[],,,,,,50.0,0.0,u,0.0,True,1163.4000000059605,70.0,60.0,40.0,False,,345.2041387431189,[],"[960, 540]",ColorTask,18.0,20.0,,,HRV,HRV_0120,2022-11-30 18:18:38
,wl-rdm,31,509039,0.0-6.20-0.20,0.0,29.0,,,,,,,[],,,,,,53.2,1.0,i,1.0,True,780.0999999940395,47.0,60.0,40.0,False,,345.45934958472594,[],"[960, 540]",ColorTask,19.0,21.0,,,HRV,HRV_0120,2022-11-30 18:18:38
,wl-rdm,32,511238,0.0-6.21-0.21,0.0,30.0,,,,,,,[],,,,,,73.6,0.0,u,0.0,True,788.2999999821186,48.0,60.0,40.0,False,,324.85882185134363,[],"[960, 540]",ColorTask,20.0,22.0,,,HRV,HRV_0120,2022-11-30 18:18:38
,wl-rdm,33,513888,0.0-6.22-0.22,0.0,31.0,,,,,,,[],,,,,,53.2,0.0,i,1.0,False,1186.5999999940395,72.0,60.0,40.0,False,,368.40501111841974,[],"[960, 540]",ColorTask,19.0,23.0,,,HRV,HRV_0120,2022-11-30 18:18:38
,wl-rdm,34,516487,0.0-6.23-0.23,0.0,32.0,,,,,,,[],,,,,,56.4,0.0,i,1.0,False,1195.199999988079,72.0,60.0,40.0,False,,329.8242437206833,[],"[960, 540]",ColorTask,18.0,24.0,,,HRV,HRV_0120,2022-11-30 18:18:38
,wl-rdm,35,518421,0.0-6.24-0.24,0.0,33.0,,,,,,,[],,,,,,87.9,0.0,u,0.0,True,614.1999999880791,37.0,60.0,40.0,False,,243.4981388625037,[],"[960, 540]",ColorTask,19.0,25.0,,,HRV,HRV_0120,2022-11-30 18:18:38
,wl-rdm,36,520388,0.0-6.25-0.25,0.0,34.0,,,,,,,[],,,,,,87.9,1.0,i,1.0,True,580.5000000298023,35.0,60.0,40.0,False,,329.35843464946817,[],"[960, 540]",ColorTask,20.0,26.0,,,HRV,HRV_0120,2022-11-30 18:18:38
,wl-rdm,37,522305,0.0-6.26-0.26,0.0,35.0,,,,,,,[],,,,,,87.9,0.0,u,0.0,True,538.4000000059605,33.0,60.0,40.0,False,,306.0986375370754,[],"[960, 540]",ColorTask,21.0,27.0,,,HRV,HRV_0120,2022-11-30 18:18:38
,wl-rdm,38,524787,0.0-6.27-0.27,0.0,36.0,,,,,,,[],,,,,,56.4,1.0,i,1.0,True,1048.0999999940395,63.0,60.0,40.0,False,,362.7221689652145,[],"[960, 540]",ColorTask,22.0,28.0,,,HRV,HRV_0120,2022-11-30 18:18:38
,wl-rdm,39,527288,0.0-6.28-0.28,0.0,37.0,,,,,,,[],,,,,,62.5,1.0,i,1.0,True,1070.0999999940395,65.0,60.0,40.0,False,,338.66533448139376,[],"[960, 540]",ColorTask,23.0,29.0,,,HRV,HRV_0120,2022-11-30 18:18:38
,wl-rdm,40,529271,0.0-6.29-0.29,0.0,38.0,,,,,,,[],,,,,,53.2,1.0,u,0.0,False,681.9000000059605,41.0,60.0,40.0,False,,246.65429037448357,[],"[960, 540]",ColorTask,22.0,30.0,,,HRV,HRV_0120,2022-11-30 18:18:38
,wl-rdm,41,531654,0.0-6.30-0.30,0.0,39.0,,,,,,,[],,,,,,56.4,1.0,i,1.0,True,1016.5,61.0,60.0,40.0,False,,287.2968498054433,[],"[960, 540]",ColorTask,23.0,31.0,,,HRV,HRV_0120,2022-11-30 18:18:38
,wl-rdm,42,533622,0.0-6.31-0.31,0.0,40.0,,,,,,,[],,,,,,73.6,0.0,u,0.0,True,686.5999999940395,42.0,60.0,40.0,False,,215.87117066806525,[],"[960, 540]",ColorTask,24.0,32.0,,,HRV,HRV_0120,2022-11-30 18:18:38
,wl-rdm,43,535772,0.0-6.32-0.32,0.0,41.0,,,,,,,[],,,,,,50.0,0.0,i,1.0,False,777.3999999761581,47.0,60.0,40.0,False,,312.1144090096543,[],"[960, 540]",ColorTask,23.0,33.0,,,HRV,HRV_0120,2022-11-30 18:18:38
,wl-rdm,44,538371,0.0-6.33-0.33,0.0,42.0,,,,,,,[],,,,,,50.0,1.0,i,1.0,True,1121.2000000178814,68.0,60.0,40.0,False,,390.2732483601,[],"[960, 540]",ColorTask,24.0,34.0,,,HRV,HRV_0120,2022-11-30 18:18:38
,wl-rdm,45,541121,0.0-6.34-0.34,0.0,43.0,,,,,,,[],,,,,,50.0,0.0,i,1.0,False,1347.800000011921,81.0,60.0,40.0,False,,321.30208740282677,[],"[960, 540]",ColorTask,23.0,35.0,,,HRV,HRV_0120,2022-11-30 18:18:38
,wl-rdm,46,543304,0.0-6.35-0.35,0.0,44.0,,,,,,,[],,,,,,73.6,0.0,u,0.0,True,829.8999999761581,50.0,60.0,40.0,False,,290.0657567009272,[],"[960, 540]",ColorTask,24.0,36.0,,,HRV,HRV_0120,2022-11-30 18:18:38
,wl-rdm,47,545721,0.0-6.36-0.36,0.0,45.0,,,,,,,[],,,,,,50.0,1.0,u,0.0,False,1112.199999988079,67.0,60.0,40.0,False,,229.73790761016193,[],"[960, 540]",ColorTask,23.0,37.0,,,HRV,HRV_0120,2022-11-30 18:18:38
,wl-rdm,48,547738,0.0-6.37-0.37,0.0,46.0,,,,,,,[],,,,,,87.9,1.0,i,1.0,True,662.6999999880791,40.0,60.0,40.0,False,,280.45536341503714,[],"[960, 540]",ColorTask,24.0,38.0,,,HRV,HRV_0120,2022-11-30 18:18:38
,wl-rdm,49,550305,0.0-6.38-0.38,0.0,47.0,,,,,,,[],,,,,,56.4,1.0,i,1.0,True,1205.0999999940395,73.0,60.0,40.0,False,,282.6911860127137,[],"[960, 540]",ColorTask,25.0,39.0,,,HRV,HRV_0120,2022-11-30 18:18:38
,wl-rdm,50,552621,0.0-6.39-0.39,0.0,48.0,,,,,,,[],,,,,,62.5,1.0,i,1.0,True,1026.199999988079,62.0,60.0,40.0,False,,205.0153133926048,[],"[960, 540]",ColorTask,26.0,40.0,,,HRV,HRV_0120,2022-11-30 18:18:38
,wl-rdm,51,554721,0.0-6.40-0.40,0.0,49.0,,,,,,,[],,,,,,73.6,1.0,i,1.0,True,670.4999999701977,41.0,60.0,40.0,False,,346.37468978828787,[],"[960, 540]",ColorTask,27.0,41.0,,,HRV,HRV_0120,2022-11-30 18:18:38
,wl-rdm,52,556753,0.0-6.41-0.41,0.0,50.0,,,,,,,[],,,,,,73.6,1.0,i,1.0,True,643.4999999701977,39.0,60.0,40.0,False,,330.567799459379,[],"[960, 540]",ColorTask,28.0,42.0,,,HRV,HRV_0120,2022-11-30 18:18:38
,wl-rdm,53,559204,0.0-6.42-0.42,0.0,51.0,,,,,,,[],,,,,,56.4,1.0,i,1.0,True,1143.0999999940395,69.0,60.0,40.0,False,,248.15981050777603,[],"[960, 540]",ColorTask,29.0,43.0,,,HRV,HRV_0120,2022-11-30 18:18:38
,wl-rdm,54,561303,0.0-6.43-0.43,0.0,52.0,,,,,,,[],,,,,,87.9,0.0,u,0.0,True,676.5999999940395,41.0,60.0,40.0,False,,351.37468066682754,[],"[960, 540]",ColorTask,30.0,44.0,,,HRV,HRV_0120,2022-11-30 18:18:38
,wl-rdm,55,563704,0.0-6.44-0.44,0.0,53.0,,,,,,,[],,,,,,50.0,1.0,i,1.0,True,1110.5999999940395,67.0,60.0,40.0,False,,213.30549244687512,[],"[960, 540]",ColorTask,31.0,45.0,,,HRV,HRV_0120,2022-11-30 18:18:38
,wl-rdm,56,565854,0.0-6.45-0.45,0.0,54.0,,,,,,,[],,,,,,73.6,0.0,u,0.0,True,736.8999999761581,45.0,60.0,40.0,False,,346.33599005109056,[],"[960, 540]",ColorTask,32.0,46.0,,,HRV,HRV_0120,2022-11-30 18:18:38
,wl-rdm,57,567870,0.0-6.46-0.46,0.0,55.0,,,,,,,[],,,,,,73.6,0.0,u,0.0,True,720.2000000178814,44.0,60.0,40.0,False,,223.40549168393096,[],"[960, 540]",ColorTask,33.0,47.0,,,HRV,HRV_0120,2022-11-30 18:18:38
,wl-rdm,58,569904,0.0-6.47-0.47,0.0,56.0,,,,,,,[],,,,,,87.9,0.0,u,0.0,True,660.7999999821186,40.0,60.0,40.0,False,,284.43860924954384,[],"[960, 540]",ColorTask,34.0,48.0,,,HRV,HRV_0120,2022-11-30 18:18:38
,wl-rdm,59,572421,0.0-6.48-0.48,0.0,57.0,,,,,,,[],,,,,,53.2,1.0,i,1.0,True,1189.0,72.0,60.0,40.0,False,,237.48572462761524,[],"[960, 540]",ColorTask,35.0,49.0,,,HRV,HRV_0120,2022-11-30 18:18:38
,wl-rdm,60,574453,0.0-6.49-0.49,0.0,58.0,,,,,,,[],,,,,,87.9,1.0,i,1.0,True,705.0,43.0,60.0,40.0,False,,239.44531189760187,[],"[960, 540]",ColorTask,36.0,50.0,,,HRV,HRV_0120,2022-11-30 18:18:38
,wl-rdm,61,576854,0.0-6.50-0.50,0.0,59.0,,,,,,,[],,,,,,53.2,1.0,i,1.0,True,1071.4000000059605,65.0,60.0,40.0,False,,239.95726147968404,[],"[960, 540]",ColorTask,37.0,51.0,,,HRV,HRV_0120,2022-11-30 18:18:38
,wl-rdm,62,578854,0.0-6.51-0.51,0.0,60.0,,,,,,,[],,,,,,73.6,1.0,i,1.0,True,644.1999999880791,39.0,60.0,40.0,False,,299.8716824683338,[],"[960, 540]",ColorTask,38.0,52.0,,,HRV,HRV_0120,2022-11-30 18:18:38
,wl-rdm,63,580870,0.0-6.52-0.52,0.0,61.0,,,,,,,[],,,,,,62.5,0.0,u,0.0,True,703.9000000059605,43.0,60.0,40.0,False,,220.42439669859726,[],"[960, 540]",ColorTask,39.0,53.0,,,HRV,HRV_0120,2022-11-30 18:18:38
,wl-rdm,64,583003,0.0-6.53-0.53,0.0,62.0,,,,,,,[],,,,,,50.0,0.0,u,0.0,True,789.5999999940395,48.0,60.0,40.0,False,,258.1015734350018,[],"[960, 540]",ColorTask,40.0,54.0,,,HRV,HRV_0120,2022-11-30 18:18:38
,wl-rdm,65,585638,0.0-6.54-0.54,0.0,63.0,,,,,,,[],,,,,,53.2,1.0,u,0.0,False,1225.1000000238419,74.0,60.0,40.0,False,,340.9510766997177,[],"[960, 540]",ColorTask,39.0,55.0,,,HRV,HRV_0120,2022-11-30 18:18:38
,wl-rdm,66,588154,0.0-6.55-0.55,0.0,64.0,,,,,,,[],,,,,,56.4,0.0,u,0.0,True,1133.2000000178814,68.0,60.0,40.0,False,,304.8007607172803,[],"[960, 540]",ColorTask,40.0,56.0,,,HRV,HRV_0120,2022-11-30 18:18:38
,wl-rdm,67,590288,0.0-6.56-0.56,0.0,65.0,,,,,,,[],,,,,,62.5,1.0,i,1.0,True,807.7000000178814,49.0,60.0,40.0,False,,237.42712384381468,[],"[960, 540]",ColorTask,41.0,57.0,,,HRV,HRV_0120,2022-11-30 18:18:38
,wl-rdm,68,592654,0.0-6.57-0.57,0.0,66.0,,,,,,,[],,,,,,50.0,1.0,u,0.0,False,983.2999999821186,59.0,60.0,40.0,False,,310.25440553909186,[],"[960, 540]",ColorTask,40.0,58.0,,,HRV,HRV_0120,2022-11-30 18:18:38
,wl-rdm,69,594787,0.0-6.58-0.58,0.0,67.0,,,,,,,[],,,,,,87.9,1.0,i,1.0,True,693.0,42.0,60.0,40.0,False,,372.059447596567,[],"[960, 540]",ColorTask,41.0,59.0,,,HRV,HRV_0120,2022-11-30 18:18:38
,wl-rdm,70,596937,0.0-6.59-0.59,0.0,68.0,,,,,,,[],,,,,,73.6,1.0,i,1.0,True,846.7999999821186,51.0,60.0,40.0,False,,224.4433074361516,[],"[960, 540]",ColorTask,42.0,60.0,,,HRV,HRV_0120,2022-11-30 18:18:38
,wl-rdm,71,598922,0.0-6.60-0.60,0.0,69.0,,,,,,,[],,,,,,53.2,0.0,u,0.0,True,655.4000000059605,40.0,60.0,40.0,False,,245.6078422826254,[],"[960, 540]",ColorTask,43.0,61.0,,,HRV,HRV_0120,2022-11-30 18:18:38
,wl-rdm,72,601237,0.0-6.61-0.61,0.0,70.0,,,,,,,[],,,,,,53.2,0.0,u,0.0,True,1008.8000000119209,61.0,60.0,40.0,False,,223.75031570451785,[],"[960, 540]",ColorTask,44.0,62.0,,,HRV,HRV_0120,2022-11-30 18:18:38
,wl-rdm,73,603571,0.0-6.62-0.62,0.0,71.0,,,,,,,[],,,,,,56.4,0.0,u,0.0,True,1028.0,62.0,60.0,40.0,False,,217.6577596430326,[],"[960, 540]",ColorTask,45.0,63.0,,,HRV,HRV_0120,2022-11-30 18:18:38
,wl-rdm,74,605670,0.0-6.63-0.63,0.0,72.0,,,,,,,[],,,,,,62.5,0.0,u,0.0,True,656.0999999940395,40.0,60.0,40.0,False,,370.2303302277167,[],"[960, 540]",ColorTask,46.0,64.0,,,HRV,HRV_0120,2022-11-30 18:18:38
,wl-rdm,75,607671,0.0-6.64-0.64,0.0,73.0,,,,,,,[],,,,,,87.9,1.0,i,1.0,True,666.5999999940395,40.0,60.0,40.0,False,,263.5065382615732,[],"[960, 540]",ColorTask,47.0,65.0,,,HRV,HRV_0120,2022-11-30 18:18:38
,wl-rdm,76,609737,0.0-6.65-0.65,0.0,74.0,,,,,,,[],,,,,,62.5,1.0,u,0.0,False,680.9000000059605,41.0,60.0,40.0,False,,309.1608734097929,[],"[960, 540]",ColorTask,46.0,66.0,,,HRV,HRV_0120,2022-11-30 18:18:38
,wl-rdm,77,612004,0.0-6.66-0.66,0.0,75.0,,,,,,,[],,,,,,62.5,0.0,u,0.0,True,986.5,60.0,60.0,40.0,False,,205.1549855342772,[],"[960, 540]",ColorTask,47.0,67.0,,,HRV,HRV_0120,2022-11-30 18:18:38
,wl-rdm,78,614404,0.0-6.67-0.67,0.0,76.0,,,,,,,[],,,,,,62.5,1.0,i,1.0,True,987.5999999940395,60.0,60.0,40.0,False,,345.2492878696519,[],"[960, 540]",ColorTask,48.0,68.0,,,HRV,HRV_0120,2022-11-30 18:18:38
,wl-rdm,79,616454,0.0-6.68-0.68,0.0,77.0,,,,,,,[],,,,,,87.9,0.0,u,0.0,True,648.6000000238419,39.0,60.0,40.0,False,,317.37194166934125,[],"[960, 540]",ColorTask,49.0,69.0,,,HRV,HRV_0120,2022-11-30 18:18:38
,wl-rdm,80,619187,0.0-6.69-0.69,0.0,78.0,,,,,,,[],,,,,,50.0,0.0,u,0.0,True,1353.699999988079,82.0,60.0,40.0,False,,308.6634162264246,[],"[960, 540]",ColorTask,50.0,70.0,,,HRV,HRV_0120,2022-11-30 18:18:38
,wl-rdm,81,621338,0.0-6.70-0.70,0.0,79.0,,,,,,,[],,,,,,56.4,0.0,u,0.0,True,687.2999999821186,42.0,60.0,40.0,False,,389.32734053751307,[],"[960, 540]",ColorTask,51.0,71.0,,,HRV,HRV_0120,2022-11-30 18:18:38
,wl-rdm,82,623522,0.0-6.71-0.71,0.0,80.0,,,,,,,[],,,,,,56.4,0.0,u,0.0,True,892.9999999701977,54.0,60.0,40.0,False,,206.18890189422333,[],"[960, 540]",ColorTask,52.0,72.0,,,HRV,HRV_0120,2022-11-30 18:18:38
,wl-rdm,83,625671,0.0-6.72-0.72,0.0,81.0,,,,,,,[],,,,,,56.4,0.0,u,0.0,True,770.9000000059605,47.0,60.0,40.0,False,,288.1801669283078,[],"[960, 540]",ColorTask,53.0,73.0,,,HRV,HRV_0120,2022-11-30 18:18:38
,wl-rdm,84,627838,0.0-6.73-0.73,0.0,82.0,,,,,,,[],,,,,,56.4,1.0,u,0.0,False,862.9000000059605,52.0,60.0,40.0,False,,228.94999246544654,[],"[960, 540]",ColorTask,52.0,74.0,,,HRV,HRV_0120,2022-11-30 18:18:38
,wl-rdm,85,629888,0.0-6.74-0.74,0.0,83.0,,,,,,,[],,,,,,73.6,1.0,i,1.0,True,611.0,37.0,60.0,40.0,False,,351.41931013267276,[],"[960, 540]",ColorTask,53.0,75.0,,,HRV,HRV_0120,2022-11-30 18:18:38
,wl-rdm,86,632137,0.0-6.75-0.75,0.0,84.0,,,,,,,[],,,,,,50.0,0.0,u,0.0,True,887.1999999880791,54.0,60.0,40.0,False,,282.4434605548383,[],"[960, 540]",ColorTask,54.0,76.0,,,HRV,HRV_0120,2022-11-30 18:18:38
,wl-rdm,87,634087,0.0-6.76-0.76,0.0,85.0,,,,,,,[],,,,,,62.5,1.0,u,0.0,False,593.5,36.0,60.0,40.0,False,,297.2180850099292,[],"[960, 540]",ColorTask,53.0,77.0,,,HRV,HRV_0120,2022-11-30 18:18:38
,wl-rdm,88,636154,0.0-6.77-0.77,0.0,86.0,,,,,,,[],,,,,,62.5,0.0,u,0.0,True,691.0,42.0,60.0,40.0,False,,297.0119338362991,[],"[960, 540]",ColorTask,54.0,78.0,,,HRV,HRV_0120,2022-11-30 18:18:38
,wl-rdm,89,638171,0.0-6.78-0.78,0.0,87.0,,,,,,,[],,,,,,50.0,1.0,u,0.0,False,657.8999999761581,40.0,60.0,40.0,False,,272.74477762853525,[],"[960, 540]",ColorTask,53.0,79.0,,,HRV,HRV_0120,2022-11-30 18:18:38
,wl-rdm,90,640488,0.0-6.79-0.79,0.0,88.0,,,,,,,[],,,,,,50.0,1.0,u,0.0,False,1011.5,61.0,60.0,40.0,False,,232.9068939368638,[],"[960, 540]",ColorTask,52.0,80.0,,,HRV,HRV_0120,2022-11-30 18:18:38
,wl-rdm,91,642654,0.0-6.80-0.80,0.0,89.0,,,,,,,[],,,,,,62.5,0.0,u,0.0,True,820.3999999761581,50.0,60.0,40.0,False,,272.72495524559906,[],"[960, 540]",ColorTask,53.0,81.0,,,HRV,HRV_0120,2022-11-30 18:18:38
,wl-rdm,92,644620,0.0-6.81-0.81,0.0,90.0,,,,,,,[],,,,,,73.6,1.0,i,1.0,True,572.1999999880791,35.0,60.0,40.0,False,,303.2234433286588,[],"[960, 540]",ColorTask,54.0,82.0,,,HRV,HRV_0120,2022-11-30 18:18:38
,wl-rdm,93,646654,0.0-6.82-0.82,0.0,91.0,,,,,,,[],,,,,,50.0,0.0,u,0.0,True,744.5,45.0,60.0,40.0,False,,228.8818149118788,[],"[960, 540]",ColorTask,55.0,83.0,,,HRV,HRV_0120,2022-11-30 18:18:38
,wl-rdm,94,648772,0.0-6.83-0.83,0.0,92.0,,,,,,,[],,,,,,87.9,1.0,u,0.0,False,840.4999999701977,51.0,60.0,40.0,False,,200.9486587659364,[],"[960, 540]",ColorTask,54.0,84.0,,,HRV,HRV_0120,2022-11-30 18:18:38
,wl-rdm,95,651354,0.0-6.84-0.84,0.0,93.0,,,,,,,[],,,,,,50.0,1.0,i,1.0,True,1109.0,67.0,60.0,40.0,False,,393.20427816552706,[],"[960, 540]",ColorTask,55.0,85.0,,,HRV,HRV_0120,2022-11-30 18:18:38
,wl-rdm,96,653521,0.0-6.85-0.85,0.0,94.0,,,,,,,[],,,,,,73.6,1.0,i,1.0,True,708.6999999880791,43.0,60.0,40.0,False,,387.5355938270933,[],"[960, 540]",ColorTask,56.0,86.0,,,HRV,HRV_0120,2022-11-30 18:18:38
,wl-rdm,97,655654,0.0-6.86-0.86,0.0,95.0,,,,,,,[],,,,,,56.4,1.0,i,1.0,True,715.7000000178814,43.0,60.0,40.0,False,,345.4733445299766,[],"[960, 540]",ColorTask,57.0,87.0,,,HRV,HRV_0120,2022-11-30 18:18:38
,wl-rdm,98,657838,0.0-6.87-0.87,0.0,96.0,,,,,,,[],,,,,,62.5,0.0,u,0.0,True,886.9000000059605,54.0,60.0,40.0,False,,203.02216578724202,[],"[960, 540]",ColorTask,58.0,88.0,,,HRV,HRV_0120,2022-11-30 18:18:38
,wl-rdm,99,660254,0.0-6.88-0.88,0.0,97.0,,,,,,,[],,,,,,62.5,1.0,i,1.0,True,1074.0999999940395,65.0,60.0,40.0,False,,257.04981615598535,[],"[960, 540]",ColorTask,59.0,89.0,,,HRV,HRV_0120,2022-11-30 18:18:38
,wl-rdm,100,662338,0.0-6.89-0.89,0.0,98.0,,,,,,,[],,,,,,62.5,0.0,u,0.0,True,672.5999999940395,41.0,60.0,40.0,False,,318.5915137481579,[],"[960, 540]",ColorTask,60.0,90.0,,,HRV,HRV_0120,2022-11-30 18:18:38
,wl-rdm,101,664487,0.0-6.90-0.90,0.0,99.0,,,,,,,[],,,,,,87.9,0.0,u,0.0,True,823.9000000059605,50.0,60.0,40.0,False,,251.02839824016615,[],"[960, 540]",ColorTask,61.0,91.0,,,HRV,HRV_0120,2022-11-30 18:18:38
,wl-rdm,102,666471,0.0-6.91-0.91,0.0,100.0,,,,,,,[],,,,,,87.9,1.0,i,1.0,True,699.9000000059605,42.0,60.0,40.0,False,,211.29955084976535,[],"[960, 540]",ColorTask,62.0,92.0,,,HRV,HRV_0120,2022-11-30 18:18:38
,wl-rdm,103,668538,0.0-6.92-0.92,0.0,101.0,,,,,,,[],,,,,,87.9,1.0,i,1.0,True,662.7999999821186,40.0,60.0,40.0,False,,317.49994862684787,[],"[960, 540]",ColorTask,63.0,93.0,,,HRV,HRV_0120,2022-11-30 18:18:38
,wl-rdm,104,670604,0.0-6.93-0.93,0.0,102.0,,,,,,,[],,,,,,87.9,1.0,i,1.0,True,636.7999999821186,39.0,60.0,40.0,False,,364.85820210746976,[],"[960, 540]",ColorTask,64.0,94.0,,,HRV,HRV_0120,2022-11-30 18:18:38
,wl-rdm,105,672904,0.0-6.94-0.94,0.0,103.0,,,,,,,[],,,,,,50.0,0.0,u,0.0,True,973.0,59.0,60.0,40.0,False,,239.8460144483888,[],"[960, 540]",ColorTask,65.0,95.0,,,HRV,HRV_0120,2022-11-30 18:18:38
,wl-rdm,106,674937,0.0-6.95-0.95,0.0,104.0,,,,,,,[],,,,,,87.9,0.0,u,0.0,True,713.5999999940395,43.0,60.0,40.0,False,,243.57576104819657,[],"[960, 540]",ColorTask,66.0,96.0,,,HRV,HRV_0120,2022-11-30 18:18:38
,wl-rdm,107,677188,0.0-6.96-0.96,0.0,105.0,,,,,,,[],,,,,,73.6,1.0,i,1.0,True,977.0999999940395,59.0,60.0,40.0,False,,203.41487182315444,[],"[960, 540]",ColorTask,67.0,97.0,,,HRV,HRV_0120,2022-11-30 18:18:38
,wl-rdm,108,679237,0.0-6.97-0.97,0.0,106.0,,,,,,,[],,,,,,73.6,0.0,u,0.0,True,670.5,41.0,60.0,40.0,False,,297.3101955894343,[],"[960, 540]",ColorTask,68.0,98.0,,,HRV,HRV_0120,2022-11-30 18:18:38
,wl-rdm,109,681355,0.0-6.98-0.98,0.0,107.0,,,,,,,[],,,,,,62.5,0.0,i,1.0,False,810.5,49.0,60.0,40.0,False,,246.923487201311,[],"[960, 540]",ColorTask,67.0,99.0,,,HRV,HRV_0120,2022-11-30 18:18:38
,wl-rdm,110,683655,0.0-6.99-0.99,0.0,108.0,,,,,,,[],,,,,,50.0,1.0,u,0.0,False,941.4000000059605,57.0,60.0,40.0,False,,280.29533806479697,[],"[960, 540]",ColorTask,66.0,100.0,,,HRV,HRV_0120,2022-11-30 18:18:38
,wl-rdm,111,685637,0.0-6.100-0.100,0.0,109.0,,,,,,,[],,,,,,56.4,1.0,i,1.0,True,671.6999999880791,41.0,60.0,40.0,False,,219.8426070736162,[],"[960, 540]",ColorTask,67.0,101.0,,,HRV,HRV_0120,2022-11-30 18:18:38
,wl-rdm,112,687921,0.0-6.101-0.101,0.0,110.0,,,,,,,[],,,,,,53.2,1.0,u,0.0,False,970.2999999821186,59.0,60.0,40.0,False,,234.21448611253328,[],"[960, 540]",ColorTask,66.0,102.0,,,HRV,HRV_0120,2022-11-30 18:18:38
,wl-rdm,113,690054,0.0-6.102-0.102,0.0,111.0,,,,,,,[],,,,,,62.5,1.0,i,1.0,True,770.5999999940395,47.0,60.0,40.0,False,,298.40984605615415,[],"[960, 540]",ColorTask,67.0,103.0,,,HRV,HRV_0120,2022-11-30 18:18:38
,wl-rdm,114,692454,0.0-6.103-0.103,0.0,112.0,,,,,,,[],,,,,,53.2,0.0,i,1.0,False,1112.0,67.0,60.0,40.0,False,,210.28076707737299,[],"[960, 540]",ColorTask,66.0,104.0,,,HRV,HRV_0120,2022-11-30 18:18:38
,wl-rdm,115,694937,0.0-6.104-0.104,0.0,113.0,,,,,,,[],,,,,,73.6,1.0,i,1.0,True,1187.2999999821186,72.0,60.0,40.0,False,,202.39596979230615,[],"[960, 540]",ColorTask,67.0,105.0,,,HRV,HRV_0120,2022-11-30 18:18:38
,wl-rdm,116,697070,0.0-6.105-0.105,0.0,114.0,,,,,,,[],,,,,,53.2,0.0,u,0.0,True,820.3000000119209,50.0,60.0,40.0,False,,244.64628329168175,[],"[960, 540]",ColorTask,68.0,106.0,,,HRV,HRV_0120,2022-11-30 18:18:38
,wl-rdm,117,699704,0.0-6.106-0.106,0.0,115.0,,,,,,,[],,,,,,50.0,1.0,u,0.0,False,1253.0,76.0,60.0,40.0,False,,297.46270258723223,[],"[960, 540]",ColorTask,67.0,107.0,,,HRV,HRV_0120,2022-11-30 18:18:38
,wl-rdm,118,702555,0.0-6.107-0.107,0.0,116.0,,,,,,,[],,,,,,56.4,0.0,u,0.0,True,1500.1000000238419,90.0,60.0,40.0,False,,282.52447372278596,[],"[960, 540]",ColorTask,68.0,108.0,,,HRV,HRV_0120,2022-11-30 18:18:38
,wl-html-keyboard-response,119,711605,0.0-7.0-0.0,1.0,117.0,,,,,,,,7034.700000017881,1.0,0,,,,,,,,,,,,,,,,,,,,,,HRV,HRV_0120,2022-11-30 18:18:38
,wl-rdm,120,713821,0.0-8.0-0.0,1.0,118.0,,,,,,,[],,,,,,53.2,0.0,u,0.0,True,896.0999999940395,54.0,60.0,40.0,False,,258.6566663543064,[],"[960, 540]",ColorTask,69.0,1.0,,,HRV,HRV_0120,2022-11-30 18:18:38
,wl-rdm,121,715987,0.0-8.1-0.1,1.0,119.0,,,,,,,[],,,,,,56.4,0.0,i,1.0,False,869.5,53.0,60.0,40.0,False,,212.94727856108054,[],"[960, 540]",ColorTask,68.0,2.0,,,HRV,HRV_0120,2022-11-30 18:18:38
,wl-rdm,122,717920,0.0-8.2-0.2,1.0,120.0,,,,,,,[],,,,,,73.6,0.0,u,0.0,True,588.8000000119209,36.0,60.0,40.0,False,,270.1524059262,[],"[960, 540]",ColorTask,69.0,3.0,,,HRV,HRV_0120,2022-11-30 18:18:38
,wl-rdm,123,720103,0.0-8.3-0.3,1.0,121.0,,,,,,,[],,,,,,56.4,0.0,u,0.0,True,772.4000000059605,47.0,60.0,40.0,False,,317.29099707551956,[],"[960, 540]",ColorTask,70.0,4.0,,,HRV,HRV_0120,2022-11-30 18:18:38
,wl-rdm,124,722038,0.0-8.4-0.4,1.0,122.0,,,,,,,[],,,,,,87.9,1.0,i,1.0,True,575.5999999940395,35.0,60.0,40.0,False,,268.8631738809843,[],"[960, 540]",ColorTask,71.0,5.0,,,HRV,HRV_0120,2022-11-30 18:18:38
,wl-rdm,125,724204,0.0-8.5-0.5,1.0,123.0,,,,,,,[],,,,,,53.2,0.0,u,0.0,True,776.8000000119209,47.0,60.0,40.0,False,,311.5859893051272,[],"[960, 540]",ColorTask,72.0,6.0,,,HRV,HRV_0120,2022-11-30 18:18:38
,wl-rdm,126,726337,0.0-8.6-0.6,1.0,124.0,,,,,,,[],,,,,,56.4,1.0,u,0.0,False,812.0999999940395,49.0,60.0,40.0,False,,260.7138360537715,[],"[960, 540]",ColorTask,71.0,7.0,,,HRV,HRV_0120,2022-11-30 18:18:38
,wl-rdm,127,728254,0.0-8.7-0.7,1.0,125.0,,,,,,,[],,,,,,73.6,1.0,i,1.0,True,648.3999999761581,39.0,60.0,40.0,False,,210.023442305309,[],"[960, 540]",ColorTask,72.0,8.0,,,HRV,HRV_0120,2022-11-30 18:18:38
,wl-rdm,128,730570,0.0-8.8-0.8,1.0,126.0,,,,,,,[],,,,,,53.2,1.0,i,1.0,True,927.8000000119209,56.0,60.0,40.0,False,,320.5393605971265,[],"[960, 540]",ColorTask,73.0,9.0,,,HRV,HRV_0120,2022-11-30 18:18:38
,wl-rdm,129,732853,0.0-8.9-0.9,1.0,127.0,,,,,,,[],,,,,,50.0,1.0,u,0.0,False,924.2999999821186,56.0,60.0,40.0,False,,299.72991462551255,[],"[960, 540]",ColorTask,72.0,10.0,,,HRV,HRV_0120,2022-11-30 18:18:38
,wl-rdm,130,735354,0.0-8.10-0.10,1.0,128.0,,,,,,,[],,,,,,62.5,1.0,i,1.0,True,1204.300000011921,73.0,60.0,40.0,False,,203.5105304104363,[],"[960, 540]",ColorTask,73.0,11.0,,,HRV,HRV_0120,2022-11-30 18:18:38
,wl-rdm,131,737970,0.0-8.11-0.11,1.0,129.0,,,,,,,[],,,,,,50.0,0.0,u,0.0,True,1194.4000000059605,72.0,60.0,40.0,False,,356.937492761791,[],"[960, 540]",ColorTask,74.0,12.0,,,HRV,HRV_0120,2022-11-30 18:18:38
,wl-rdm,132,740086,0.0-8.12-0.12,1.0,130.0,,,,,,,[],,,,,,56.4,0.0,u,0.0,True,757.5,46.0,60.0,40.0,False,,271.94494250491323,[],"[960, 540]",ColorTask,75.0,13.0,,,HRV,HRV_0120,2022-11-30 18:18:38
,wl-rdm,133,742203,0.0-8.13-0.13,1.0,131.0,,,,,,,[],,,,,,53.2,1.0,u,0.0,False,818.5,50.0,60.0,40.0,False,,212.56852802397785,[],"[960, 540]",ColorTask,74.0,14.0,,,HRV,HRV_0120,2022-11-30 18:18:38
,wl-rdm,134,744571,0.0-8.14-0.14,1.0,132.0,,,,,,,[],,,,,,53.2,1.0,u,0.0,False,1019.9000000059605,62.0,60.0,40.0,False,,263.3437239159821,[],"[960, 540]",ColorTask,73.0,15.0,,,HRV,HRV_0120,2022-11-30 18:18:38
,wl-rdm,135,746787,0.0-8.15-0.15,1.0,133.0,,,,,,,[],,,,,,50.0,1.0,u,0.0,False,793.7999999821186,48.0,60.0,40.0,False,,348.7842250475844,[],"[960, 540]",ColorTask,72.0,16.0,,,HRV,HRV_0120,2022-11-30 18:18:38
,wl-rdm,136,749570,0.0-8.16-0.16,1.0,134.0,,,,,,,[],,,,,,56.4,1.0,u,0.0,False,1331.800000011921,80.0,60.0,40.0,False,,385.27269079034306,[],"[960, 540]",ColorTask,71.0,17.0,,,HRV,HRV_0120,2022-11-30 18:18:38
,wl-rdm,137,751954,0.0-8.17-0.17,1.0,135.0,,,,,,,[],,,,,,50.0,0.0,u,0.0,True,1067.199999988079,64.0,60.0,40.0,False,,234.79950527419524,[],"[960, 540]",ColorTask,72.0,18.0,,,HRV,HRV_0120,2022-11-30 18:18:38
,wl-rdm,138,753870,0.0-8.18-0.18,1.0,136.0,,,,,,,[],,,,,,87.9,1.0,i,1.0,True,611.6000000238419,37.0,60.0,40.0,False,,226.092790910413,[],"[960, 540]",ColorTask,73.0,19.0,,,HRV,HRV_0120,2022-11-30 18:18:38
,wl-rdm,139,756204,0.0-8.19-0.19,1.0,137.0,,,,,,,[],,,,,,87.9,1.0,i,1.0,True,871.8000000119209,53.0,60.0,40.0,False,,387.95045552980616,[],"[960, 540]",ColorTask,74.0,20.0,,,HRV,HRV_0120,2022-11-30 18:18:38
,wl-rdm,140,758353,0.0-8.20-0.20,1.0,138.0,,,,,,,[],,,,,,73.6,0.0,u,0.0,True,734.5,44.0,60.0,40.0,False,,333.59281455246673,[],"[960, 540]",ColorTask,75.0,21.0,,,HRV,HRV_0120,2022-11-30 18:18:38
,wl-rdm,141,760621,0.0-8.21-0.21,1.0,139.0,,,,,,,[],,,,,,56.4,1.0,u,0.0,False,862.7999999821186,52.0,60.0,40.0,False,,345.07708640226133,[],"[960, 540]",ColorTask,74.0,22.0,,,HRV,HRV_0120,2022-11-30 18:18:38
,wl-rdm,142,762771,0.0-8.22-0.22,1.0,140.0,,,,,,,[],,,,,,87.9,1.0,i,1.0,True,739.9000000059605,45.0,60.0,40.0,False,,339.9296730029057,[],"[960, 540]",ColorTask,75.0,23.0,,,HRV,HRV_0120,2022-11-30 18:18:38
,wl-rdm,143,765121,0.0-8.23-0.23,1.0,141.0,,,,,,,[],,,,,,62.5,1.0,i,1.0,True,1060.0,64.0,60.0,40.0,False,,209.31710688400312,[],"[960, 540]",ColorTask,76.0,24.0,,,HRV,HRV_0120,2022-11-30 18:18:38
,wl-rdm,144,767937,0.0-8.24-0.24,1.0,142.0,,,,,,,[],,,,,,62.5,1.0,i,1.0,True,1458.0999999940395,88.0,60.0,40.0,False,,274.1060348628099,[],"[960, 540]",ColorTask,77.0,25.0,,,HRV,HRV_0120,2022-11-30 18:18:38
,wl-rdm,145,769953,0.0-8.25-0.25,1.0,143.0,,,,,,,[],,,,,,56.4,0.0,u,0.0,True,740.2000000178814,45.0,60.0,40.0,False,,211.3760004879962,[],"[960, 540]",ColorTask,78.0,26.0,,,HRV,HRV_0120,2022-11-30 18:18:38
,wl-rdm,146,772070,0.0-8.26-0.26,1.0,144.0,,,,,,,[],,,,,,53.2,0.0,u,0.0,True,811.1999999880791,49.0,60.0,40.0,False,,245.39966945572098,[],"[960, 540]",ColorTask,79.0,27.0,,,HRV,HRV_0120,2022-11-30 18:18:38
,wl-rdm,147,774687,0.0-8.27-0.27,1.0,145.0,,,,,,,[],,,,,,53.2,1.0,u,0.0,False,1253.9000000059605,76.0,60.0,40.0,False,,277.1395936827135,[],"[960, 540]",ColorTask,78.0,28.0,,,HRV,HRV_0120,2022-11-30 18:18:38
,wl-rdm,148,777138,0.0-8.28-0.28,1.0,146.0,,,,,,,[],,,,,,53.2,1.0,u,0.0,False,1136.2999999821186,69.0,60.0,40.0,False,,237.0877785934846,[],"[960, 540]",ColorTask,77.0,29.0,,,HRV,HRV_0120,2022-11-30 18:18:38
,wl-rdm,149,779354,0.0-8.29-0.29,1.0,147.0,,,,,,,[],,,,,,62.5,0.0,u,0.0,True,766.9000000059605,46.0,60.0,40.0,False,,371.4630734289222,[],"[960, 540]",ColorTask,78.0,30.0,,,HRV,HRV_0120,2022-11-30 18:18:38
,wl-rdm,150,781405,0.0-8.30-0.30,1.0,148.0,,,,,,,[],,,,,,62.5,0.0,u,0.0,True,636.5,39.0,60.0,40.0,False,,344.4732564023968,[],"[960, 540]",ColorTask,79.0,31.0,,,HRV,HRV_0120,2022-11-30 18:18:38
,wl-rdm,151,783587,0.0-8.31-0.31,1.0,149.0,,,,,,,[],,,,,,50.0,0.0,u,0.0,True,720.9000000059605,44.0,60.0,40.0,False,,395.8591286115647,[],"[960, 540]",ColorTask,80.0,32.0,,,HRV,HRV_0120,2022-11-30 18:18:38
,wl-rdm,152,785871,0.0-8.32-0.32,1.0,150.0,,,,,,,[],,,,,,50.0,1.0,u,0.0,False,872.9000000059605,53.0,60.0,40.0,False,,334.2963852774619,[],"[960, 540]",ColorTask,79.0,33.0,,,HRV,HRV_0120,2022-11-30 18:18:38
,wl-rdm,153,787787,0.0-8.33-0.33,1.0,151.0,,,,,,,[],,,,,,62.5,0.0,u,0.0,True,627.7000000178814,38.0,60.0,40.0,False,,211.7558821302788,[],"[960, 540]",ColorTask,80.0,34.0,,,HRV,HRV_0120,2022-11-30 18:18:38
,wl-rdm,154,789788,0.0-8.34-0.34,1.0,152.0,,,,,,,[],,,,,,73.6,1.0,i,1.0,True,710.3000000119209,43.0,60.0,40.0,False,,221.5283707615544,[],"[960, 540]",ColorTask,81.0,35.0,,,HRV,HRV_0120,2022-11-30 18:18:38
,wl-rdm,155,792287,0.0-8.35-0.35,1.0,153.0,,,,,,,[],,,,,,50.0,0.0,i,1.0,False,1068.0,64.0,60.0,40.0,False,,350.89683092447456,[],"[960, 540]",ColorTask,80.0,36.0,,,HRV,HRV_0120,2022-11-30 18:18:38
,wl-rdm,156,794338,0.0-8.36-0.36,1.0,154.0,,,,,,,[],,,,,,87.9,0.0,u,0.0,True,588.4000000059605,36.0,60.0,40.0,False,,367.24676130912235,[],"[960, 540]",ColorTask,81.0,37.0,,,HRV,HRV_0120,2022-11-30 18:18:38
,wl-rdm,157,796338,0.0-8.37-0.37,1.0,155.0,,,,,,,[],,,,,,62.5,0.0,u,0.0,True,620.9000000059605,38.0,60.0,40.0,False,,289.1219011488002,[],"[960, 540]",ColorTask,82.0,38.0,,,HRV,HRV_0120,2022-11-30 18:18:38
,wl-rdm,158,798355,0.0-8.38-0.38,1.0,156.0,,,,,,,[],,,,,,56.4,0.0,u,0.0,True,687.5999999940395,42.0,60.0,40.0,False,,260.69350082244176,[],"[960, 540]",ColorTask,83.0,39.0,,,HRV,HRV_0120,2022-11-30 18:18:38
,wl-rdm,159,800354,0.0-8.39-0.39,1.0,157.0,,,,,,,[],,,,,,53.2,0.0,u,0.0,True,694.9000000059605,42.0,60.0,40.0,False,,234.35207863162907,[],"[960, 540]",ColorTask,84.0,40.0,,,HRV,HRV_0120,2022-11-30 18:18:38
,wl-rdm,160,802570,0.0-8.40-0.40,1.0,158.0,,,,,,,[],,,,,,50.0,0.0,u,0.0,True,854.4000000059605,52.0,60.0,40.0,False,,267.61099156297223,[],"[960, 540]",ColorTask,85.0,41.0,,,HRV,HRV_0120,2022-11-30 18:18:38
,wl-rdm,161,804504,0.0-8.41-0.41,1.0,159.0,,,,,,,[],,,,,,73.6,1.0,i,1.0,True,472.59999999403954,29.0,60.0,40.0,False,,377.38226833100975,[],"[960, 540]",ColorTask,86.0,42.0,,,HRV,HRV_0120,2022-11-30 18:18:38
,wl-rdm,162,806371,0.0-8.42-0.42,1.0,160.0,,,,,,,[],,,,,,87.9,1.0,i,1.0,True,561.8000000119209,34.0,60.0,40.0,False,,225.09661714979907,[],"[960, 540]",ColorTask,87.0,43.0,,,HRV,HRV_0120,2022-11-30 18:18:38
,wl-rdm,163,808354,0.0-8.43-0.43,1.0,161.0,,,,,,,[],,,,,,87.9,0.0,u,0.0,True,545.5,33.0,60.0,40.0,False,,362.4180013531143,[],"[960, 540]",ColorTask,88.0,44.0,,,HRV,HRV_0120,2022-11-30 18:18:38
,wl-rdm,164,810488,0.0-8.44-0.44,1.0,162.0,,,,,,,[],,,,,,53.2,0.0,i,1.0,False,777.1999999880791,47.0,60.0,40.0,False,,266.48535525473073,[],"[960, 540]",ColorTask,87.0,45.0,,,HRV,HRV_0120,2022-11-30 18:18:38
,wl-rdm,165,813038,0.0-8.45-0.45,1.0,163.0,,,,,,,[],,,,,,56.4,0.0,i,1.0,False,1187.300000011921,72.0,60.0,40.0,False,,267.95316964470294,[],"[960, 540]",ColorTask,86.0,46.0,,,HRV,HRV_0120,2022-11-30 18:18:38
,wl-rdm,166,815021,0.0-8.46-0.46,1.0,164.0,,,,,,,[],,,,,,56.4,0.0,u,0.0,True,704.6000000238419,43.0,60.0,40.0,False,,211.12461693252843,[],"[960, 540]",ColorTask,87.0,47.0,,,HRV,HRV_0120,2022-11-30 18:18:38
,wl-rdm,167,816953,0.0-8.47-0.47,1.0,165.0,,,,,,,[],,,,,,87.9,0.0,u,0.0,True,517.0,31.0,60.0,40.0,False,,335.1037064719361,[],"[960, 540]",ColorTask,88.0,48.0,,,HRV,HRV_0120,2022-11-30 18:18:38
,wl-rdm,168,819371,0.0-8.48-0.48,1.0,166.0,,,,,,,[],,,,,,53.2,0.0,u,0.0,True,956.1999999880791,58.0,60.0,40.0,False,,398.85176663854526,[],"[960, 540]",ColorTask,89.0,49.0,,,HRV,HRV_0120,2022-11-30 18:18:38
,wl-rdm,169,821188,0.0-8.49-0.49,1.0,167.0,,,,,,,[],,,,,,87.9,0.0,u,0.0,True,516.0,31.0,60.0,40.0,False,,226.14758331539898,[],"[960, 540]",ColorTask,90.0,50.0,,,HRV,HRV_0120,2022-11-30 18:18:38
,wl-rdm,170,823237,0.0-8.50-0.50,1.0,168.0,,,,,,,[],,,,,,73.6,1.0,i,1.0,True,745.9000000059605,45.0,60.0,40.0,False,,220.15633401753865,[],"[960, 540]",ColorTask,91.0,51.0,,,HRV,HRV_0120,2022-11-30 18:18:38
,wl-rdm,171,825655,0.0-8.51-0.51,1.0,169.0,,,,,,,[],,,,,,56.4,1.0,u,0.0,False,953.8999999761581,58.0,60.0,40.0,False,,394.54653348795296,[],"[960, 540]",ColorTask,90.0,52.0,,,HRV,HRV_0120,2022-11-30 18:18:38
,wl-rdm,172,827921,0.0-8.52-0.52,1.0,170.0,,,,,,,[],,,,,,56.4,1.0,u,0.0,False,943.6999999880791,57.0,60.0,40.0,False,,244.1224093471784,[],"[960, 540]",ColorTask,89.0,53.0,,,HRV,HRV_0120,2022-11-30 18:18:38
,wl-rdm,173,830837,0.0-8.53-0.53,1.0,171.0,,,,,,,[],,,,,,53.2,0.0,u,0.0,True,1479.4000000059605,89.0,60.0,40.0,False,,380.00041638701396,[],"[960, 540]",ColorTask,90.0,54.0,,,HRV,HRV_0120,2022-11-30 18:18:38
,wl-rdm,174,833122,0.0-8.54-0.54,1.0,172.0,,,,,,,[],,,,,,50.0,0.0,u,0.0,True,987.0999999940395,60.0,60.0,40.0,False,,224.8775734510172,[],"[960, 540]",ColorTask,91.0,55.0,,,HRV,HRV_0120,2022-11-30 18:18:38
,wl-rdm,175,835038,0.0-8.55-0.55,1.0,173.0,,,,,,,[],,,,,,87.9,0.0,u,0.0,True,604.5,37.0,60.0,40.0,False,,243.68128077504684,[],"[960, 540]",ColorTask,92.0,56.0,,,HRV,HRV_0120,2022-11-30 18:18:38
,wl-rdm,176,837105,0.0-8.56-0.56,1.0,174.0,,,,,,,[],,,,,,87.9,0.0,u,0.0,True,604.2999999821186,37.0,60.0,40.0,False,,374.27799324895585,[],"[960, 540]",ColorTask,93.0,57.0,,,HRV,HRV_0120,2022-11-30 18:18:38
,wl-rdm,177,839205,0.0-8.57-0.57,1.0,175.0,,,,,,,[],,,,,,50.0,1.0,u,0.0,False,753.5999999940395,46.0,60.0,40.0,False,,261.13698219479124,[],"[960, 540]",ColorTask,92.0,58.0,,,HRV,HRV_0120,2022-11-30 18:18:38
,wl-rdm,178,841238,0.0-8.58-0.58,1.0,176.0,,,,,,,[],,,,,,62.5,0.0,u,0.0,True,725.9000000059605,44.0,60.0,40.0,False,,247.90839163116132,[],"[960, 540]",ColorTask,93.0,59.0,,,HRV,HRV_0120,2022-11-30 18:18:38
,wl-rdm,179,843121,0.0-8.59-0.59,1.0,177.0,,,,,,,[],,,,,,87.9,0.0,u,0.0,True,571.1999999880791,35.0,60.0,40.0,False,,249.44989668201293,[],"[960, 540]",ColorTask,94.0,60.0,,,HRV,HRV_0120,2022-11-30 18:18:38
,wl-rdm,180,845088,0.0-8.60-0.60,1.0,178.0,,,,,,,[],,,,,,50.0,0.0,u,0.0,True,599.4000000059605,36.0,60.0,40.0,False,,295.2430878631444,[],"[960, 540]",ColorTask,95.0,61.0,,,HRV,HRV_0120,2022-11-30 18:18:38
,wl-rdm,181,847238,0.0-8.61-0.61,1.0,179.0,,,,,,,[],,,,,,62.5,1.0,i,1.0,True,859.2000000178814,52.0,60.0,40.0,False,,202.24854660546362,[],"[960, 540]",ColorTask,96.0,62.0,,,HRV,HRV_0120,2022-11-30 18:18:38
,wl-rdm,182,849304,0.0-8.62-0.62,1.0,180.0,,,,,,,[],,,,,,87.9,0.0,u,0.0,True,696.9000000357628,42.0,60.0,40.0,False,,294.2921852676816,[],"[960, 540]",ColorTask,97.0,63.0,,,HRV,HRV_0120,2022-11-30 18:18:38
,wl-rdm,183,851221,0.0-8.63-0.63,1.0,181.0,,,,,,,[],,,,,,87.9,0.0,u,0.0,True,603.7999999821186,37.0,60.0,40.0,False,,238.9983992650308,[],"[960, 540]",ColorTask,98.0,64.0,,,HRV,HRV_0120,2022-11-30 18:18:38
,wl-rdm,184,853221,0.0-8.64-0.64,1.0,182.0,,,,,,,[],,,,,,62.5,1.0,u,0.0,False,720.3999999761581,44.0,60.0,40.0,False,,212.06387898229477,[],"[960, 540]",ColorTask,97.0,65.0,,,HRV,HRV_0120,2022-11-30 18:18:38
,wl-rdm,185,855655,0.0-8.65-0.65,1.0,183.0,,,,,,,[],,,,,,53.2,1.0,i,1.0,True,1036.5,63.0,60.0,40.0,False,,313.5494185275468,[],"[960, 540]",ColorTask,98.0,66.0,,,HRV,HRV_0120,2022-11-30 18:18:38
,wl-rdm,186,857673,0.0-8.66-0.66,1.0,184.0,,,,,,,[],,,,,,73.6,0.0,u,0.0,True,632.9000000059605,38.0,60.0,40.0,False,,306.6835153317957,[],"[960, 540]",ColorTask,99.0,67.0,,,HRV,HRV_0120,2022-11-30 18:18:38
,wl-rdm,187,859872,0.0-8.67-0.67,1.0,185.0,,,,,,,[],,,,,,50.0,1.0,i,1.0,True,857.8000000119209,52.0,60.0,40.0,False,,282.7165237871372,[],"[960, 540]",ColorTask,100.0,68.0,,,HRV,HRV_0120,2022-11-30 18:18:38
,wl-rdm,188,862238,0.0-8.68-0.68,1.0,186.0,,,,,,,[],,,,,,73.6,0.0,u,0.0,True,1070.2999999821186,65.0,60.0,40.0,False,,204.60095936093387,[],"[960, 540]",ColorTask,101.0,69.0,,,HRV,HRV_0120,2022-11-30 18:18:38
,wl-rdm,189,864621,0.0-8.69-0.69,1.0,187.0,,,,,,,[],,,,,,62.5,1.0,i,1.0,True,924.5,56.0,60.0,40.0,False,,393.382270492883,[],"[960, 540]",ColorTask,102.0,70.0,,,HRV,HRV_0120,2022-11-30 18:18:38
,wl-rdm,190,867154,0.0-8.70-0.70,1.0,188.0,,,,,,,[],,,,,,50.0,1.0,u,0.0,False,1155.0,70.0,60.0,40.0,False,,295.50740521816044,[],"[960, 540]",ColorTask,101.0,71.0,,,HRV,HRV_0120,2022-11-30 18:18:38
,wl-rdm,191,869305,0.0-8.71-0.71,1.0,189.0,,,,,,,[],,,,,,56.4,0.0,i,1.0,False,822.3999999761581,50.0,60.0,40.0,False,,257.66690818170684,[],"[960, 540]",ColorTask,100.0,72.0,,,HRV,HRV_0120,2022-11-30 18:18:38
,wl-rdm,192,871389,0.0-8.72-0.72,1.0,190.0,,,,,,,[],,,,,,53.2,1.0,u,0.0,False,759.5999999940395,46.0,60.0,40.0,False,,251.11189828149,[],"[960, 540]",ColorTask,99.0,73.0,,,HRV,HRV_0120,2022-11-30 18:18:38
,wl-rdm,193,873421,0.0-8.73-0.73,1.0,191.0,,,,,,,[],,,,,,87.9,1.0,i,1.0,True,746.1999999880791,45.0,60.0,40.0,False,,219.86659079283234,[],"[960, 540]",ColorTask,100.0,74.0,,,HRV,HRV_0120,2022-11-30 18:18:38
,wl-rdm,194,875622,0.0-8.74-0.74,1.0,192.0,,,,,,,[],,,,,,62.5,1.0,i,1.0,True,896.9000000059605,54.0,60.0,40.0,False,,224.6797039334348,[],"[960, 540]",ColorTask,101.0,75.0,,,HRV,HRV_0120,2022-11-30 18:18:38
,wl-rdm,195,877705,0.0-8.75-0.75,1.0,193.0,,,,,,,[],,,,,,73.6,1.0,i,1.0,True,626.0,38.0,60.0,40.0,False,,394.189587221661,[],"[960, 540]",ColorTask,102.0,76.0,,,HRV,HRV_0120,2022-11-30 18:18:38
,wl-rdm,196,879955,0.0-8.76-0.76,1.0,194.0,,,,,,,[],,,,,,53.2,1.0,i,1.0,True,882.4000000059605,53.0,60.0,40.0,False,,299.94359839812694,[],"[960, 540]",ColorTask,103.0,77.0,,,HRV,HRV_0120,2022-11-30 18:18:38
,wl-rdm,197,882040,0.0-8.77-0.77,1.0,195.0,,,,,,,[],,,,,,50.0,1.0,i,1.0,True,772.0999999940395,47.0,60.0,40.0,False,,246.35791912873978,[],"[960, 540]",ColorTask,104.0,78.0,,,HRV,HRV_0120,2022-11-30 18:18:38
,wl-rdm,198,884055,0.0-8.78-0.78,1.0,196.0,,,,,,,[],,,,,,62.5,0.0,u,0.0,True,679.2000000178814,41.0,60.0,40.0,False,,255.35004244063518,[],"[960, 540]",ColorTask,105.0,79.0,,,HRV,HRV_0120,2022-11-30 18:18:38
,wl-rdm,199,886221,0.0-8.79-0.79,1.0,197.0,,,,,,,[],,,,,,62.5,1.0,i,1.0,True,729.0999999940395,44.0,60.0,40.0,False,,376.1008546039779,[],"[960, 540]",ColorTask,106.0,80.0,,,HRV,HRV_0120,2022-11-30 18:18:38
,wl-rdm,200,888305,0.0-8.80-0.80,1.0,198.0,,,,,,,[],,,,,,62.5,0.0,u,0.0,True,770.1999999880791,47.0,60.0,40.0,False,,218.42367824424346,[],"[960, 540]",ColorTask,107.0,81.0,,,HRV,HRV_0120,2022-11-30 18:18:38
,wl-rdm,201,890321,0.0-8.81-0.81,1.0,199.0,,,,,,,[],,,,,,73.6,0.0,u,0.0,True,593.7000000178814,36.0,60.0,40.0,False,,333.9752309086459,[],"[960, 540]",ColorTask,108.0,82.0,,,HRV,HRV_0120,2022-11-30 18:18:38
,wl-rdm,202,892255,0.0-8.82-0.82,1.0,200.0,,,,,,,[],,,,,,53.2,0.0,u,0.0,True,544.8000000119209,33.0,60.0,40.0,False,,331.07977658103925,[],"[960, 540]",ColorTask,109.0,83.0,,,HRV,HRV_0120,2022-11-30 18:18:38
,wl-rdm,203,894572,0.0-8.83-0.83,1.0,201.0,,,,,,,[],,,,,,73.6,1.0,i,1.0,True,958.5,58.0,60.0,40.0,False,,282.8629468355045,[],"[960, 540]",ColorTask,110.0,84.0,,,HRV,HRV_0120,2022-11-30 18:18:38
,wl-rdm,204,896822,0.0-8.84-0.84,1.0,202.0,,,,,,,[],,,,,,50.0,1.0,u,0.0,False,813.5,49.0,60.0,40.0,False,,366.77322735361474,[],"[960, 540]",ColorTask,109.0,85.0,,,HRV,HRV_0120,2022-11-30 18:18:38
,wl-rdm,205,899055,0.0-8.85-0.85,1.0,203.0,,,,,,,[],,,,,,62.5,0.0,u,0.0,True,786.9999999701977,48.0,60.0,40.0,False,,370.6645509699034,[],"[960, 540]",ColorTask,110.0,86.0,,,HRV,HRV_0120,2022-11-30 18:18:38
,wl-rdm,206,900973,0.0-8.86-0.86,1.0,204.0,,,,,,,[],,,,,,73.6,0.0,u,0.0,True,578.5,35.0,60.0,40.0,False,,265.68730625283257,[],"[960, 540]",ColorTask,111.0,87.0,,,HRV,HRV_0120,2022-11-30 18:18:38
,wl-rdm,207,902872,0.0-8.87-0.87,1.0,205.0,,,,,,,[],,,,,,53.2,0.0,u,0.0,True,494.40000000596046,30.0,60.0,40.0,False,,346.02155941793734,[],"[960, 540]",ColorTask,112.0,88.0,,,HRV,HRV_0120,2022-11-30 18:18:38
,wl-rdm,208,905055,0.0-8.88-0.88,1.0,206.0,,,,,,,[],,,,,,62.5,1.0,i,1.0,True,790.9000000059605,48.0,60.0,40.0,False,,323.26510890083887,[],"[960, 540]",ColorTask,113.0,89.0,,,HRV,HRV_0120,2022-11-30 18:18:38
,wl-rdm,209,907271,0.0-8.89-0.89,1.0,207.0,,,,,,,[],,,,,,56.4,1.0,i,1.0,True,789.7000000178814,48.0,60.0,40.0,False,,361.1649721537015,[],"[960, 540]",ColorTask,114.0,90.0,,,HRV,HRV_0120,2022-11-30 18:18:38
,wl-rdm,210,909355,0.0-8.90-0.90,1.0,208.0,,,,,,,[],,,,,,56.4,1.0,i,1.0,True,745.5999999940395,45.0,60.0,40.0,False,,265.2326182924738,[],"[960, 540]",ColorTask,115.0,91.0,,,HRV,HRV_0120,2022-11-30 18:18:38
,wl-rdm,211,911305,0.0-8.91-0.91,1.0,209.0,,,,,,,[],,,,,,73.6,0.0,u,0.0,True,638.9000000059605,39.0,60.0,40.0,False,,221.06766649619195,[],"[960, 540]",ColorTask,116.0,92.0,,,HRV,HRV_0120,2022-11-30 18:18:38
,wl-rdm,212,913488,0.0-8.92-0.92,1.0,210.0,,,,,,,[],,,,,,87.9,1.0,i,1.0,True,913.8000000119209,55.0,60.0,40.0,False,,207.89770621931058,[],"[960, 540]",ColorTask,117.0,93.0,,,HRV,HRV_0120,2022-11-30 18:18:38
,wl-rdm,213,915404,0.0-8.93-0.93,1.0,211.0,,,,,,,[],,,,,,73.6,1.0,i,1.0,True,586.7000000178814,36.0,60.0,40.0,False,,250.87009349598392,[],"[960, 540]",ColorTask,118.0,94.0,,,HRV,HRV_0120,2022-11-30 18:18:38
,wl-rdm,214,917855,0.0-8.94-0.94,1.0,212.0,,,,,,,[],,,,,,50.0,0.0,i,1.0,False,1165.2000000178814,70.0,60.0,40.0,False,,229.69578427761854,[],"[960, 540]",ColorTask,117.0,95.0,,,HRV,HRV_0120,2022-11-30 18:18:38
,wl-rdm,215,920137,0.0-8.95-0.95,1.0,213.0,,,,,,,[],,,,,,73.6,0.0,u,0.0,True,912.5999999940395,55.0,60.0,40.0,False,,313.1096690863857,[],"[960, 540]",ColorTask,118.0,96.0,,,HRV,HRV_0120,2022-11-30 18:18:38
,wl-rdm,216,922287,0.0-8.96-0.96,1.0,214.0,,,,,,,[],,,,,,53.2,1.0,i,1.0,True,756.9000000059605,46.0,60.0,40.0,False,,314.973328318673,[],"[960, 540]",ColorTask,119.0,97.0,,,HRV,HRV_0120,2022-11-30 18:18:38
,wl-rdm,217,924421,0.0-8.97-0.97,1.0,215.0,,,,,,,[],,,,,,56.4,1.0,u,0.0,False,677.0999999940395,41.0,60.0,40.0,False,,374.14522713545705,[],"[960, 540]",ColorTask,118.0,98.0,,,HRV,HRV_0120,2022-11-30 18:18:38
,wl-rdm,218,926637,0.0-8.98-0.98,1.0,216.0,,,,,,,[],,,,,,50.0,0.0,u,0.0,True,766.4000000059605,46.0,60.0,40.0,False,,398.39929141895084,[],"[960, 540]",ColorTask,119.0,99.0,,,HRV,HRV_0120,2022-11-30 18:18:38
,wl-rdm,219,928887,0.0-8.99-0.99,1.0,217.0,,,,,,,[],,,,,,73.6,0.0,u,0.0,True,948.0999999940395,57.0,60.0,40.0,False,,227.17032061861883,[],"[960, 540]",ColorTask,120.0,100.0,,,HRV,HRV_0120,2022-11-30 18:18:38
,wl-rdm,220,930988,0.0-8.100-0.100,1.0,218.0,,,,,,,[],,,,,,56.4,0.0,u,0.0,True,759.0,46.0,60.0,40.0,False,,273.534713470714,[],"[960, 540]",ColorTask,121.0,101.0,,,HRV,HRV_0120,2022-11-30 18:18:38
,wl-rdm,221,932787,0.0-8.101-0.101,1.0,219.0,,,,,,,[],,,,,,87.9,1.0,i,1.0,True,529.7999999821186,32.0,60.0,40.0,False,,203.70903940927533,[],"[960, 540]",ColorTask,122.0,102.0,,,HRV,HRV_0120,2022-11-30 18:18:38
,wl-rdm,222,934920,0.0-8.102-0.102,1.0,220.0,,,,,,,[],,,,,,62.5,0.0,u,0.0,True,803.5999999940395,49.0,60.0,40.0,False,,254.7200236850717,[],"[960, 540]",ColorTask,123.0,103.0,,,HRV,HRV_0120,2022-11-30 18:18:38
,wl-rdm,223,937054,0.0-8.103-0.103,1.0,221.0,,,,,,,[],,,,,,73.6,1.0,i,1.0,True,853.1000000238419,52.0,60.0,40.0,False,,200.22314108847692,[],"[960, 540]",ColorTask,124.0,104.0,,,HRV,HRV_0120,2022-11-30 18:18:38
,wl-rdm,224,939203,0.0-8.104-0.104,1.0,222.0,,,,,,,[],,,,,,73.6,1.0,i,1.0,True,872.3000000119209,53.0,60.0,40.0,False,,207.78463282412997,[],"[960, 540]",ColorTask,125.0,105.0,,,HRV,HRV_0120,2022-11-30 18:18:38
,wl-rdm,225,941387,0.0-8.105-0.105,1.0,223.0,,,,,,,[],,,,,,56.4,1.0,i,1.0,True,824.0,50.0,60.0,40.0,False,,280.15326988321283,[],"[960, 540]",ColorTask,126.0,106.0,,,HRV,HRV_0120,2022-11-30 18:18:38
,wl-rdm,226,943471,0.0-8.106-0.106,1.0,224.0,,,,,,,[],,,,,,50.0,1.0,u,0.0,False,712.0999999940395,43.0,60.0,40.0,False,,293.02034493062376,[],"[960, 540]",ColorTask,125.0,107.0,,,HRV,HRV_0120,2022-11-30 18:18:38
,wl-rdm,227,945488,0.0-8.107-0.107,1.0,225.0,,,,,,,[],,,,,,87.9,1.0,i,1.0,True,661.1999999880791,40.0,60.0,40.0,False,,291.40722595972875,[],"[960, 540]",ColorTask,126.0,108.0,,,HRV,HRV_0120,2022-11-30 18:18:38
,wl-html-button-response,228,993185,0.0-9.0-0.0,,,,,,,,,,47689.40000000596,,0,,,,,,,,,,,,,,,,,,,,<h3>End of this session. Thank you!</h3><br>,['Close window'],HRV,HRV_0120,2022-11-30 18:18:38
