success,trial_type,trial_index,time_elapsed,internal_node_id,missTrial,missTrialMsg,Block,TrialNumber,TrialTime,trialTimeDiff,FPS_avg,FPS_med,FPS_mode,TrialDur,winResizeTime,rt,block,button_pressed,MotCoh,MotDir,ColCoh,Color,ChoiceKey,Choice,Accuracy,RT,nFrames,FPS,PPD,onsetDelay,fullScreenExitTime,canvCenter,TrialType,Score,BlockTrial,stimulus,button_labels,exp,subjectId,date
True,fullscreen,0,14850,0.0-0.0,True,undefinedblurEvent ,0.0,0.0,,,,,,,,,,,,,,,,,,,,,,,,,,,,,,HRV,HRV_0216,2022-11-30 19:05:08
,wl-check-fps,1,19902,0.0-1.0,,,0.0,1.0,"[15923.2, 15933.9, 15947.9, 15964.1, 15979.7, 15996.6, 16012.8, 16029.3, 16046.3, 16062.6, 16079.8, 16095.9, 16112.7, 16129.1, 16145.8, 16162.5, 16179.8, 16196.5, 16212.6, 16230.4, 16245.9, 16263, 16279.6, 16296.1, 16313.9, 16329.2, 16346.7, 16362.3, 16382.1, 16399.3, 16415.4, 16432, 16448.7, 16465.3, 16481.7, 16498.8, 16515, 16530.8, 16545.8, 16562.6, 16580.1, 16595.8, 16613.6, 16629.2, 16646.3, 16663.4, 16679.3, 16695.8, 16712.5, 16730.3, 16745.8, 16763.6, 16779.1, 16796.2, 16812.5, 16829.3, 16845.8, 16862.6, 16879.9, 16895.7, 16913.1, 16929.4, 16946.6, 16962.3, 16979.4, 16996.6, 17013.4, 17029.9, 17045.8, 17063.4, 17079.4, 17096.4, 17112.9, 17129.6, 17147, 17161.8, 17179.7, 17195.5, 17213.7, 17229.3, 17246.4, 17264, 17279.4, 17303.6, 17312.8, 17329.6, 17346.5, 17363.1, 17380.7, 17397.3, 17413.9, 17429.9, 17446.9, 17463, 17480.1, 17496.2, 17513.3, 17530.7, 17546.3, 17563.8, 17579.6, 17599, 17613, 17629.6, 17647.5, 17662.6, 17680.8, 17696.1, 17714.1, 17730.5, 17747, 17764.2, 17780.6, 17797.4, 17813.8, 17831.1, 17847.3, 17863.8, 17880.6, 17897.1, 17914.1, 17930.8, 17948.5, 17963.9, 17981.2, 17997.2, 18014, 18030.7, 18047.5, 18064, 18080.5, 18096.7, 18112.5, 18129, 18145.7, 18162.3, 18179.2, 18196.6, 18212.9, 18229.1, 18246, 18262.4, 18279.1, 18295.5, 18315.5, 18331.1, 18345.8, 18362.8, 18379.1, 18395.7, 18412.2, 18429.1, 18445.6, 18462.4, 18479.3, 18495.6, 18512.7, 18529.2, 18545.7, 18562.3, 18579, 18596.2, 18612.2, 18629.4, 18645.6, 18662.2, 18679, 18695.6, 18712.4, 18729.1, 18746, 18762.2, 18779.1, 18795.8, 18812.4, 18829.1, 18845.6, 18862.7, 18879, 18899, 18911.9, 18933.5, 18952, 18963.3, 18981.2, 18996.4, 19013.2, 19030, 19046.4, 19062.8, 19079.5, 19096.2, 19112.8, 19130, 19146.1, 19163.3, 19179.7, 19196.2, 19213, 19229.7, 19246.7, 19262.8, 19279.8, 19296.1, 19330.8, 19345.2, 19361.9, 19379.3, 19399.4, 19426.5, 19432, 19451.5, 19470.7, 19481.3, 19501.4, 19512.5, 19534.6, 19546, 19562.5, 19579.4, 19596.2, 19612.6, 19629.2, 19646, 19661.9, 19682.3, 19696, 19712.5, 19729.2, 19745.2, 19762.8, 19794, 19800, 19815.6, 19831.5, 19850.5, 19865.3, 19883.5, 19897.3, 19916.5, 19931.4, 19948.3, 19965.6, 19983, 20000.4, 20015.9, 20032, 20049, 20065.6, 20082.7, 20099.1, 20115.7, 20132.1, 20150.2, 20165.5, 20181.8, 20199.5, 20217.9, 20232, 20250.6, 20265.7, 20283.7, 20301.9, 20318, 20328.6, 20349.5, 20366.6, 20378.5, 20398.8, 20416.4, 20439.5, 20447.5, 20462.7, 20483.9, 20501.5, 20512.5, 20533.2, 20545.3, 20561.9, 20578.7, 20595.2, 20612.1, 20628.5, 20645.2, 20670.5, 20678.4, 20697.3, 20713.4, 20730.5, 20746.7, 20763.8, 20780.1, 20796.8, 20813.8, 20830.3, 20847, 20863.6, 20880.4, 20896.7, 20913.7]","[30.8, 10.7, 14, 16.2, 15.6, 16.9, 16.2, 16.5, 17, 16.3, 17.2, 16.1, 16.8, 16.4, 16.7, 16.7, 17.3, 16.7, 16.1, 17.8, 15.5, 17.1, 16.6, 16.5, 17.8, 15.3, 17.5, 15.6, 19.8, 17.2, 16.1, 16.6, 16.7, 16.6, 16.4, 17.1, 16.2, 15.8, 15, 16.8, 17.5, 15.7, 17.8, 15.6, 17.1, 17.1, 15.9, 16.5, 16.7, 17.8, 15.5, 17.8, 15.5, 17.1, 16.3, 16.8, 16.5, 16.8, 17.3, 15.8, 17.4, 16.3, 17.2, 15.7, 17.1, 17.2, 16.8, 16.5, 15.9, 17.6, 16, 17, 16.5, 16.7, 17.4, 14.8, 17.9, 15.8, 18.2, 15.6, 17.1, 17.6, 15.4, 24.2, 9.2, 16.8, 16.9, 16.6, 17.6, 16.6, 16.6, 16, 17, 16.1, 17.1, 16.1, 17.1, 17.4, 15.6, 17.5, 15.8, 19.4, 14, 16.6, 17.9, 15.1, 18.2, 15.3, 18, 16.4, 16.5, 17.2, 16.4, 16.8, 16.4, 17.3, 16.2, 16.5, 16.8, 16.5, 17, 16.7, 17.7, 15.4, 17.3, 16, 16.8, 16.7, 16.8, 16.5, 16.5, 16.2, 15.8, 16.5, 16.7, 16.6, 16.9, 17.4, 16.3, 16.2, 16.9, 16.4, 16.7, 16.4, 20, 15.6, 14.7, 17, 16.3, 16.6, 16.5, 16.9, 16.5, 16.8, 16.9, 16.3, 17.1, 16.5, 16.5, 16.6, 16.7, 17.2, 16, 17.2, 16.2, 16.6, 16.8, 16.6, 16.8, 16.7, 16.9, 16.2, 16.9, 16.7, 16.6, 16.7, 16.5, 17.1, 16.3, 20, 12.9, 21.6, 18.5, 11.3, 17.9, 15.2, 16.8, 16.8, 16.4, 16.4, 16.7, 16.7, 16.6, 17.2, 16.1, 17.2, 16.4, 16.5, 16.8, 16.7, 17, 16.1, 17, 16.3, 34.7, 14.4, 16.7, 17.4, 20.1, 27.1, 5.5, 19.5, 19.2, 10.6, 20.1, 11.1, 22.1, 11.4, 16.5, 16.9, 16.8, 16.4, 16.6, 16.8, 15.9, 20.4, 13.7, 16.5, 16.7, 16, 17.6, 31.2, 6, 15.6, 15.9, 19, 14.8, 18.2, 13.8, 19.2, 14.9, 16.9, 17.3, 17.4, 17.4, 15.5, 16.1, 17, 16.6, 17.1, 16.4, 16.6, 16.4, 18.1, 15.3, 16.3, 17.7, 18.4, 14.1, 18.6, 15.1, 18, 18.2, 16.1, 10.6, 20.9, 17.1, 11.9, 20.3, 17.6, 23.1, 8, 15.2, 21.2, 17.6, 11, 20.7, 12.1, 16.6, 16.8, 16.5, 16.9, 16.4, 16.7, 25.3, 7.9, 18.9, 16.1, 17.1, 16.2, 17.1, 16.3, 16.7, 17, 16.5, 16.7, 16.6, 16.8, 16.3, 17]",60.0,60.0,60.0,5037.9,[],,,,,,,,,,,,,,,,,,,,,,,HRV,HRV_0216,2022-11-30 19:05:08
,wl-html-keyboard-response,2,30372,0.0-2.0-0.0,,,0.0,2.0,,,,,,,,8459.0,0.0,0,,,,,,,,,,,,,,,,,,,,HRV,HRV_0216,2022-11-30 19:05:08
,wl-rdm,3,37796,0.0-3.0-0.0,False,,0.0,3.0,,,,,,,[],,,,0.0,0.0,87.9,0.0,u,0.0,True,1747.7999999970198,105.0,60.0,40.0,3000.0,[],"[683, 384]",ColorTask_Demo,,,,,HRV,HRV_0216,2022-11-30 19:05:08
,wl-rdm,4,42329,0.0-3.0-1.0,False,,0.0,4.0,,,,,,,[],,,,0.0,0.0,87.9,1.0,i,1.0,True,441.7000000178814,27.0,60.0,40.0,2000.0,[],"[683, 384]",ColorTask_Demo,,,,,HRV,HRV_0216,2022-11-30 19:05:08
,wl-html-keyboard-response,5,49900,0.0-3.0-2.0,,,0.0,5.0,,,,,,,,5558.4000000059605,0.0,1,,,,,,,,,,,,,,,,,,,,HRV,HRV_0216,2022-11-30 19:05:08
,wl-html-keyboard-response,6,58970,0.0-4.0-0.0,,,0.0,6.0,,,,,,,,7063.0,0.0,0,,,,,,,,,,,,,,,,,,,,HRV,HRV_0216,2022-11-30 19:05:08
,wl-html-keyboard-response,7,74166,0.0-5.0-0.0,,,0.0,7.0,,,,,,,,13190.0,0.0,0,,,,,,,,,,,,,,,,,,,,HRV,HRV_0216,2022-11-30 19:05:08
,wl-rdm,8,77194,0.0-6.0-0.0,False,,0.0,8.0,,,,,,,[],,,,,,62.5,1.0,u,0.0,False,1582.2000000029802,95.0,60.0,40.0,360.3461016980593,[],"[683, 384]",ColorTask,-1.0,1.0,,,HRV,HRV_0216,2022-11-30 19:05:08
,wl-rdm,9,79610,0.0-6.1-0.1,False,,0.0,9.0,,,,,,,[],,,,,,73.6,0.0,u,0.0,True,987.7999999970198,59.0,60.0,40.0,362.5928307785081,[],"[683, 384]",ColorTask,0.0,2.0,,,HRV,HRV_0216,2022-11-30 19:05:08
,wl-rdm,10,81627,0.0-6.2-0.2,False,,0.0,10.0,,,,,,,[],,,,,,56.4,1.0,i,1.0,True,608.0999999940395,35.0,60.0,40.0,337.339096279674,[],"[683, 384]",ColorTask,1.0,3.0,,,HRV,HRV_0216,2022-11-30 19:05:08
,wl-rdm,11,83493,0.0-6.3-0.3,False,,0.0,11.0,,,,,,,[],,,,,,56.4,0.0,i,1.0,False,570.5,34.0,60.0,40.0,215.77965953223134,[],"[683, 384]",ColorTask,0.0,4.0,,,HRV,HRV_0216,2022-11-30 19:05:08
,wl-rdm,12,85562,0.0-6.4-0.4,False,,0.0,12.0,,,,,,,[],,,,,,50.0,0.0,i,1.0,False,640.4999999850988,39.0,60.0,40.0,363.3607470563918,[],"[683, 384]",ColorTask,-1.0,5.0,,,HRV,HRV_0216,2022-11-30 19:05:08
,wl-rdm,13,87344,0.0-6.5-0.5,False,,0.0,13.0,,,,,,,[],,,,,,56.4,1.0,u,0.0,False,461.09999999403954,28.0,60.0,40.0,215.21831555744268,[],"[683, 384]",ColorTask,-2.0,6.0,,,HRV,HRV_0216,2022-11-30 19:05:08
,wl-rdm,14,89411,0.0-6.6-0.6,False,,0.0,14.0,,,,,,,[],,,,,,53.2,0.0,u,0.0,True,725.3999999910593,44.0,60.0,40.0,273.05443455476325,[],"[683, 384]",ColorTask,-1.0,7.0,,,HRV,HRV_0216,2022-11-30 19:05:08
,wl-rdm,15,91327,0.0-6.7-0.7,False,,0.0,15.0,,,,,,,[],,,,,,73.6,1.0,i,1.0,True,612.5999999940395,37.0,60.0,40.0,224.86713398500535,[],"[683, 384]",ColorTask,0.0,8.0,,,HRV,HRV_0216,2022-11-30 19:05:08
,wl-rdm,16,93447,0.0-6.8-0.8,False,,0.0,16.0,,,,,,,[],,,,,,73.6,0.0,u,0.0,True,642.4000000059605,38.0,60.0,40.0,384.1544947536179,[],"[683, 384]",ColorTask,1.0,9.0,,,HRV,HRV_0216,2022-11-30 19:05:08
,wl-rdm,17,95512,0.0-6.9-0.9,False,,0.0,17.0,,,,,,,[],,,,,,62.5,0.0,u,0.0,True,768.5,46.0,60.0,40.0,230.212990273686,[],"[683, 384]",ColorTask,2.0,10.0,,,HRV,HRV_0216,2022-11-30 19:05:08
,wl-rdm,18,98295,0.0-6.10-0.10,False,,0.0,18.0,,,,,,,[],,,,,,56.4,1.0,u,0.0,False,1372.4999999850988,83.0,60.0,40.0,338.015541958142,[],"[683, 384]",ColorTask,1.0,11.0,,,HRV,HRV_0216,2022-11-30 19:05:08
,wl-rdm,19,100626,0.0-6.11-0.11,False,,0.0,19.0,,,,,,,[],,,,,,50.0,0.0,u,0.0,True,923.0,54.0,60.0,40.0,328.62427793757774,[],"[683, 384]",ColorTask,2.0,12.0,,,HRV,HRV_0216,2022-11-30 19:05:08
,wl-rdm,20,103559,0.0-6.12-0.12,False,,0.0,20.0,,,,,,,[],,,,,,53.2,0.0,u,0.0,True,1656.7000000029802,100.0,60.0,40.0,212.51805709625626,[],"[683, 384]",ColorTask,3.0,13.0,,,HRV,HRV_0216,2022-11-30 19:05:08
,wl-rdm,21,105594,0.0-6.13-0.13,False,,0.0,21.0,,,,,,,[],,,,,,73.6,1.0,i,1.0,True,756.2000000029802,45.0,60.0,40.0,205.7450836807337,[],"[683, 384]",ColorTask,4.0,14.0,,,HRV,HRV_0216,2022-11-30 19:05:08
,wl-rdm,22,107593,0.0-6.14-0.14,False,,0.0,22.0,,,,,,,[],,,,,,73.6,1.0,i,1.0,True,623.4000000059605,37.0,60.0,40.0,315.15498746354893,[],"[683, 384]",ColorTask,5.0,15.0,,,HRV,HRV_0216,2022-11-30 19:05:08
,wl-rdm,23,109944,0.0-6.15-0.15,False,,0.0,23.0,,,,,,,[],,,,,,53.2,1.0,u,0.0,False,944.5,57.0,60.0,40.0,316.27953425183927,[],"[683, 384]",ColorTask,4.0,16.0,,,HRV,HRV_0216,2022-11-30 19:05:08
,wl-rdm,24,112427,0.0-6.16-0.16,False,,0.0,24.0,,,,,,,[],,,,,,73.6,1.0,i,1.0,True,1201.9999999850988,72.0,60.0,40.0,208.4661925444306,[],"[683, 384]",ColorTask,5.0,17.0,,,HRV,HRV_0216,2022-11-30 19:05:08
,wl-rdm,25,114800,0.0-6.17-0.17,False,,0.0,25.0,,,,,,,[],,,,,,56.4,1.0,u,0.0,False,925.1000000089407,56.0,60.0,40.0,317.01901885447865,[],"[683, 384]",ColorTask,4.0,18.0,,,HRV,HRV_0216,2022-11-30 19:05:08
,wl-rdm,26,116910,0.0-6.18-0.18,False,,0.0,26.0,,,,,,,[],,,,,,50.0,0.0,i,1.0,False,783.2000000029802,47.0,60.0,40.0,258.60148763365055,[],"[683, 384]",ColorTask,3.0,19.0,,,HRV,HRV_0216,2022-11-30 19:05:08
,wl-rdm,27,119378,0.0-6.19-0.19,False,,0.0,27.0,,,,,,,[],,,,,,62.5,1.0,i,1.0,True,1090.4000000059605,66.0,60.0,40.0,289.33225264907094,[],"[683, 384]",ColorTask,4.0,20.0,,,HRV,HRV_0216,2022-11-30 19:05:08
,wl-rdm,28,121326,0.0-6.20-0.20,False,,0.0,28.0,,,,,,,[],,,,,,53.2,0.0,u,0.0,True,579.2000000029802,35.0,60.0,40.0,274.2276230891107,[],"[683, 384]",ColorTask,5.0,21.0,,,HRV,HRV_0216,2022-11-30 19:05:08
,wl-rdm,29,123259,0.0-6.21-0.21,False,,0.0,29.0,,,,,,,[],,,,,,87.9,0.0,u,0.0,True,663.1999999880791,40.0,60.0,40.0,206.28894333977743,[],"[683, 384]",ColorTask,6.0,22.0,,,HRV,HRV_0216,2022-11-30 19:05:08
,wl-rdm,30,125392,0.0-6.22-0.22,False,,0.0,30.0,,,,,,,[],,,,,,62.5,1.0,i,1.0,True,656.1000000089407,40.0,60.0,40.0,391.2817414791843,[],"[683, 384]",ColorTask,7.0,23.0,,,HRV,HRV_0216,2022-11-30 19:05:08
,wl-rdm,31,127742,0.0-6.23-0.23,False,,0.0,31.0,,,,,,,[],,,,,,50.0,0.0,u,0.0,True,939.4000000208616,57.0,60.0,40.0,323.7311579324047,[],"[683, 384]",ColorTask,8.0,24.0,,,HRV,HRV_0216,2022-11-30 19:05:08
,wl-rdm,32,129743,0.0-6.24-0.24,False,,0.0,32.0,,,,,,,[],,,,,,62.5,0.0,u,0.0,True,672.9000000059605,41.0,60.0,40.0,271.72615256727454,[],"[683, 384]",ColorTask,9.0,25.0,,,HRV,HRV_0216,2022-11-30 19:05:08
,wl-rdm,33,131758,0.0-6.25-0.25,False,,0.0,33.0,,,,,,,[],,,,,,87.9,1.0,i,1.0,True,623.0,38.0,60.0,40.0,303.5598623470614,[],"[683, 384]",ColorTask,10.0,26.0,,,HRV,HRV_0216,2022-11-30 19:05:08
,wl-rdm,34,134442,0.0-6.26-0.26,False,,0.0,34.0,,,,,,,[],,,,,,50.0,1.0,i,1.0,True,1342.2000000029802,78.0,60.0,40.0,270.97740520874106,[],"[683, 384]",ColorTask,11.0,27.0,,,HRV,HRV_0216,2022-11-30 19:05:08
,wl-rdm,35,136575,0.0-6.27-0.27,False,,0.0,35.0,,,,,,,[],,,,,,56.4,0.0,u,0.0,True,792.8999999761581,48.0,60.0,40.0,247.61466738651018,[],"[683, 384]",ColorTask,12.0,28.0,,,HRV,HRV_0216,2022-11-30 19:05:08
,wl-rdm,36,138658,0.0-6.28-0.28,False,,0.0,36.0,,,,,,,[],,,,,,62.5,1.0,i,1.0,True,633.9000000059605,39.0,60.0,40.0,361.1293703933092,[],"[683, 384]",ColorTask,13.0,29.0,,,HRV,HRV_0216,2022-11-30 19:05:08
,wl-rdm,37,140926,0.0-6.29-0.29,False,,0.0,37.0,,,,,,,[],,,,,,53.2,1.0,u,0.0,False,975.2999999821186,57.0,60.0,40.0,216.95907446947197,[],"[683, 384]",ColorTask,12.0,30.0,,,HRV,HRV_0216,2022-11-30 19:05:08
,wl-rdm,38,143010,0.0-6.30-0.30,False,,0.0,38.0,,,,,,,[],,,,,,53.2,1.0,i,1.0,True,726.5,44.0,60.0,40.0,258.8476418076931,[],"[683, 384]",ColorTask,13.0,31.0,,,HRV,HRV_0216,2022-11-30 19:05:08
,wl-rdm,39,144910,0.0-6.31-0.31,False,,0.0,39.0,,,,,,,[],,,,,,87.9,1.0,i,1.0,True,590.7999999970198,36.0,60.0,40.0,234.7083220389647,[],"[683, 384]",ColorTask,14.0,32.0,,,HRV,HRV_0216,2022-11-30 19:05:08
,wl-rdm,40,147192,0.0-6.32-0.32,False,,0.0,40.0,,,,,,,[],,,,,,56.4,0.0,u,0.0,True,859.7999999970198,52.0,60.0,40.0,336.24256056076104,[],"[683, 384]",ColorTask,15.0,33.0,,,HRV,HRV_0216,2022-11-30 19:05:08
,wl-rdm,41,149058,0.0-6.33-0.33,False,,0.0,41.0,,,,,,,[],,,,,,87.9,0.0,u,0.0,True,541.7999999970198,33.0,60.0,40.0,244.73418154414176,[],"[683, 384]",ColorTask,16.0,34.0,,,HRV,HRV_0216,2022-11-30 19:05:08
,wl-rdm,42,150893,0.0-6.34-0.34,False,,0.0,42.0,,,,,,,[],,,,,,56.4,1.0,u,0.0,False,560.8999999910593,34.0,60.0,40.0,211.85768737914853,[],"[683, 384]",ColorTask,15.0,35.0,,,HRV,HRV_0216,2022-11-30 19:05:08
,wl-rdm,43,153444,0.0-6.35-0.35,False,,0.0,43.0,,,,,,,[],,,,,,53.2,1.0,u,0.0,False,1141.800000011921,69.0,60.0,40.0,341.47934337759966,[],"[683, 384]",ColorTask,14.0,36.0,,,HRV,HRV_0216,2022-11-30 19:05:08
,wl-rdm,44,155576,0.0-6.36-0.36,False,,0.0,44.0,,,,,,,[],,,,,,56.4,1.0,u,0.0,False,669.6000000089407,40.0,60.0,40.0,384.65407697022613,[],"[683, 384]",ColorTask,13.0,37.0,,,HRV,HRV_0216,2022-11-30 19:05:08
,wl-rdm,45,157708,0.0-6.37-0.37,False,,0.0,45.0,,,,,,,[],,,,,,73.6,1.0,i,1.0,True,745.2999999970198,45.0,60.0,40.0,288.84753205955417,[],"[683, 384]",ColorTask,14.0,38.0,,,HRV,HRV_0216,2022-11-30 19:05:08
,wl-rdm,46,159791,0.0-6.38-0.38,False,,0.0,46.0,,,,,,,[],,,,,,56.4,0.0,u,0.0,True,624.7000000029802,37.0,60.0,40.0,399.03266010025857,[],"[683, 384]",ColorTask,15.0,39.0,,,HRV,HRV_0216,2022-11-30 19:05:08
,wl-rdm,47,162009,0.0-6.39-0.39,False,,0.0,47.0,,,,,,,[],,,,,,73.6,1.0,i,1.0,True,913.0999999940395,55.0,60.0,40.0,234.25321903526572,[],"[683, 384]",ColorTask,16.0,40.0,,,HRV,HRV_0216,2022-11-30 19:05:08
,wl-rdm,48,164058,0.0-6.40-0.40,False,,0.0,48.0,,,,,,,[],,,,,,56.4,1.0,i,1.0,True,657.4000000059605,40.0,60.0,40.0,302.7779359016754,[],"[683, 384]",ColorTask,17.0,41.0,,,HRV,HRV_0216,2022-11-30 19:05:08
,wl-rdm,49,165990,0.0-6.41-0.41,False,,0.0,49.0,,,,,,,[],,,,,,87.9,0.0,u,0.0,True,519.2000000029802,31.0,60.0,40.0,328.99507183775626,[],"[683, 384]",ColorTask,18.0,42.0,,,HRV,HRV_0216,2022-11-30 19:05:08
,wl-rdm,50,167808,0.0-6.42-0.42,False,,0.0,50.0,,,,,,,[],,,,,,56.4,0.0,u,0.0,True,509.90000000596046,31.0,60.0,40.0,222.65519784009348,[],"[683, 384]",ColorTask,19.0,43.0,,,HRV,HRV_0216,2022-11-30 19:05:08
,wl-rdm,51,169690,0.0-6.43-0.43,False,,0.0,51.0,,,,,,,[],,,,,,87.9,0.0,u,0.0,True,537.2999999970198,33.0,60.0,40.0,271.62140446908194,[],"[683, 384]",ColorTask,20.0,44.0,,,HRV,HRV_0216,2022-11-30 19:05:08
,wl-rdm,52,171641,0.0-6.44-0.44,False,,0.0,52.0,,,,,,,[],,,,,,73.6,1.0,i,1.0,True,525.8999999910593,32.0,60.0,40.0,354.3759892568113,[],"[683, 384]",ColorTask,21.0,45.0,,,HRV,HRV_0216,2022-11-30 19:05:08
,wl-rdm,53,173660,0.0-6.45-0.45,False,,0.0,53.0,,,,,,,[],,,,,,53.2,1.0,u,0.0,False,714.5000000149012,43.0,60.0,40.0,223.65277984933385,[],"[683, 384]",ColorTask,20.0,46.0,,,HRV,HRV_0216,2022-11-30 19:05:08
,wl-rdm,54,175658,0.0-6.46-0.46,False,,0.0,54.0,,,,,,,[],,,,,,87.9,0.0,u,0.0,True,652.5999999940395,40.0,60.0,40.0,279.8240929390953,[],"[683, 384]",ColorTask,21.0,47.0,,,HRV,HRV_0216,2022-11-30 19:05:08
,wl-rdm,55,177739,0.0-6.47-0.47,False,,0.0,55.0,,,,,,,[],,,,,,56.4,1.0,u,0.0,False,630.5,38.0,60.0,40.0,357.5489589719866,[],"[683, 384]",ColorTask,20.0,48.0,,,HRV,HRV_0216,2022-11-30 19:05:08
,wl-rdm,56,179656,0.0-6.48-0.48,False,,0.0,56.0,,,,,,,[],,,,,,50.0,0.0,i,1.0,False,480.0,29.0,60.0,40.0,374.7114708573091,[],"[683, 384]",ColorTask,19.0,49.0,,,HRV,HRV_0216,2022-11-30 19:05:08
,wl-rdm,57,181474,0.0-6.49-0.49,False,,0.0,57.0,,,,,,,[],,,,,,87.9,1.0,u,0.0,False,440.1000000089407,26.0,60.0,40.0,306.82632770394633,[],"[683, 384]",ColorTask,18.0,50.0,,,HRV,HRV_0216,2022-11-30 19:05:08
,wl-rdm,58,183642,0.0-6.50-0.50,False,,0.0,58.0,,,,,,,[],,,,,,50.0,1.0,u,0.0,False,715.3999999910593,42.0,60.0,40.0,392.0704095269175,[],"[683, 384]",ColorTask,17.0,51.0,,,HRV,HRV_0216,2022-11-30 19:05:08
,wl-rdm,59,185456,0.0-6.51-0.51,False,,0.0,59.0,,,,,,,[],,,,,,62.5,1.0,u,0.0,False,536.7999999970198,33.0,60.0,40.0,206.3641631060627,[],"[683, 384]",ColorTask,16.0,52.0,,,HRV,HRV_0216,2022-11-30 19:05:08
,wl-rdm,60,187390,0.0-6.52-0.52,False,,0.0,60.0,,,,,,,[],,,,,,87.9,1.0,i,1.0,True,546.5,33.0,60.0,40.0,310.6424466432916,[],"[683, 384]",ColorTask,17.0,53.0,,,HRV,HRV_0216,2022-11-30 19:05:08
,wl-rdm,61,189659,0.0-6.53-0.53,False,,0.0,61.0,,,,,,,[],,,,,,73.6,0.0,u,0.0,True,851.7000000178814,51.0,60.0,40.0,327.1209270917734,[],"[683, 384]",ColorTask,18.0,54.0,,,HRV,HRV_0216,2022-11-30 19:05:08
,wl-rdm,62,191523,0.0-6.54-0.54,False,,0.0,62.0,,,,,,,[],,,,,,62.5,0.0,u,0.0,True,544.1000000089407,33.0,60.0,40.0,244.75920920264076,[],"[683, 384]",ColorTask,19.0,55.0,,,HRV,HRV_0216,2022-11-30 19:05:08
,wl-rdm,63,193491,0.0-6.55-0.55,False,,0.0,63.0,,,,,,,[],,,,,,87.9,0.0,u,0.0,True,595.4000000059605,36.0,60.0,40.0,312.6651131965289,[],"[683, 384]",ColorTask,20.0,56.0,,,HRV,HRV_0216,2022-11-30 19:05:08
,wl-rdm,64,195608,0.0-6.56-0.56,False,,0.0,64.0,,,,,,,[],,,,,,87.9,1.0,i,1.0,True,704.8000000119209,41.0,60.0,40.0,318.9086690430467,[],"[683, 384]",ColorTask,21.0,57.0,,,HRV,HRV_0216,2022-11-30 19:05:08
,wl-rdm,65,197474,0.0-6.57-0.57,False,,0.0,65.0,,,,,,,[],,,,,,87.9,1.0,i,1.0,True,569.7999999970198,35.0,60.0,40.0,217.290279440498,[],"[683, 384]",ColorTask,22.0,58.0,,,HRV,HRV_0216,2022-11-30 19:05:08
,wl-rdm,66,199912,0.0-6.58-0.58,False,,0.0,66.0,,,,,,,[],,,,,,53.2,1.0,u,0.0,False,1084.7999999970198,64.0,60.0,40.0,277.66855831343986,[],"[683, 384]",ColorTask,21.0,59.0,,,HRV,HRV_0216,2022-11-30 19:05:08
,wl-rdm,67,201908,0.0-6.59-0.59,False,,0.0,67.0,,,,,,,[],,,,,,53.2,1.0,i,1.0,True,546.0999999940395,33.0,60.0,40.0,376.80308710407826,[],"[683, 384]",ColorTask,22.0,60.0,,,HRV,HRV_0216,2022-11-30 19:05:08
,wl-rdm,68,203654,0.0-6.60-0.60,False,,0.0,68.0,,,,,,,[],,,,,,62.5,1.0,i,1.0,True,406.3999999910593,25.0,60.0,40.0,262.8990362982751,[],"[683, 384]",ColorTask,23.0,61.0,,,HRV,HRV_0216,2022-11-30 19:05:08
,wl-rdm,69,205540,0.0-6.61-0.61,False,,0.0,69.0,,,,,,,[],,,,,,62.5,0.0,u,0.0,True,594.9000000059605,36.0,60.0,40.0,228.06501592243546,[],"[683, 384]",ColorTask,24.0,62.0,,,HRV,HRV_0216,2022-11-30 19:05:08
,wl-rdm,70,207477,0.0-6.62-0.62,False,,0.0,70.0,,,,,,,[],,,,,,62.5,0.0,u,0.0,True,529.4000000059605,29.0,60.0,40.0,321.77397485457965,[],"[683, 384]",ColorTask,25.0,63.0,,,HRV,HRV_0216,2022-11-30 19:05:08
,wl-rdm,71,209405,0.0-6.63-0.63,False,,0.0,71.0,,,,,,,[],,,,,,87.9,0.0,u,0.0,True,455.90000000596046,28.0,60.0,40.0,383.5798277640205,[],"[683, 384]",ColorTask,26.0,64.0,,,HRV,HRV_0216,2022-11-30 19:05:08
,wl-rdm,72,211491,0.0-6.64-0.64,False,,0.0,72.0,,,,,,,[],,,,,,62.5,0.0,i,1.0,False,712.2999999821186,43.0,60.0,40.0,303.02788318058185,[],"[683, 384]",ColorTask,25.0,65.0,,,HRV,HRV_0216,2022-11-30 19:05:08
,wl-rdm,73,213739,0.0-6.65-0.65,False,,0.0,73.0,,,,,,,[],,,,,,56.4,1.0,u,0.0,False,917.7999999970198,55.0,60.0,40.0,248.62284230234158,[],"[683, 384]",ColorTask,24.0,66.0,,,HRV,HRV_0216,2022-11-30 19:05:08
,wl-rdm,74,216023,0.0-6.66-0.66,False,,0.0,74.0,,,,,,,[],,,,,,62.5,1.0,i,1.0,True,933.9000000059605,56.0,60.0,40.0,264.1614817133996,[],"[683, 384]",ColorTask,25.0,67.0,,,HRV,HRV_0216,2022-11-30 19:05:08
,wl-rdm,75,218256,0.0-6.67-0.67,False,,0.0,75.0,,,,,,,[],,,,,,50.0,0.0,i,1.0,False,890.2999999970198,53.0,60.0,40.0,271.73381916188555,[],"[683, 384]",ColorTask,24.0,68.0,,,HRV,HRV_0216,2022-11-30 19:05:08
,wl-rdm,76,220355,0.0-6.68-0.68,False,,0.0,76.0,,,,,,,[],,,,,,53.2,1.0,i,1.0,True,692.6000000089407,39.0,60.0,40.0,322.5633285351946,[],"[683, 384]",ColorTask,25.0,69.0,,,HRV,HRV_0216,2022-11-30 19:05:08
,wl-rdm,77,222390,0.0-6.69-0.69,False,,0.0,77.0,,,,,,,[],,,,,,53.2,1.0,i,1.0,True,591.7999999970198,36.0,60.0,40.0,365.3878496184657,[],"[683, 384]",ColorTask,26.0,70.0,,,HRV,HRV_0216,2022-11-30 19:05:08
,wl-rdm,78,224421,0.0-6.70-0.70,False,,0.0,78.0,,,,,,,[],,,,,,62.5,0.0,u,0.0,True,596.0999999940395,36.0,60.0,40.0,363.77558564517454,[],"[683, 384]",ColorTask,27.0,71.0,,,HRV,HRV_0216,2022-11-30 19:05:08
,wl-rdm,79,226354,0.0-6.71-0.71,False,,0.0,79.0,,,,,,,[],,,,,,50.0,1.0,u,0.0,False,590.5999999940395,34.0,60.0,40.0,260.18384323035013,[],"[683, 384]",ColorTask,26.0,72.0,,,HRV,HRV_0216,2022-11-30 19:05:08
,wl-rdm,80,228121,0.0-6.72-0.72,False,,0.0,80.0,,,,,,,[],,,,,,53.2,0.0,u,0.0,True,448.59999999403954,27.0,60.0,40.0,236.45901993144116,[],"[683, 384]",ColorTask,27.0,73.0,,,HRV,HRV_0216,2022-11-30 19:05:08
,wl-rdm,81,230204,0.0-6.73-0.73,False,,0.0,81.0,,,,,,,[],,,,,,50.0,1.0,u,0.0,False,688.4000000059605,41.0,60.0,40.0,326.2223877693041,[],"[683, 384]",ColorTask,26.0,74.0,,,HRV,HRV_0216,2022-11-30 19:05:08
,wl-rdm,82,232107,0.0-6.74-0.74,False,,0.0,82.0,,,,,,,[],,,,,,56.4,0.0,i,1.0,False,506.6000000089407,31.0,60.0,40.0,309.9506839291794,[],"[683, 384]",ColorTask,25.0,75.0,,,HRV,HRV_0216,2022-11-30 19:05:08
,wl-rdm,83,234221,0.0-6.75-0.75,False,,0.0,83.0,,,,,,,[],,,,,,50.0,1.0,u,0.0,False,699.4000000059605,43.0,60.0,40.0,329.1106633127032,[],"[683, 384]",ColorTask,24.0,76.0,,,HRV,HRV_0216,2022-11-30 19:05:08
,wl-rdm,84,236239,0.0-6.76-0.76,False,,0.0,84.0,,,,,,,[],,,,,,73.6,0.0,u,0.0,True,738.2999999970198,44.0,60.0,40.0,205.62797142009921,[],"[683, 384]",ColorTask,25.0,77.0,,,HRV,HRV_0216,2022-11-30 19:05:08
,wl-rdm,85,238641,0.0-6.77-0.77,False,,0.0,85.0,,,,,,,[],,,,,,50.0,1.0,i,1.0,True,1007.4000000059605,61.0,60.0,40.0,306.338429533091,[],"[683, 384]",ColorTask,26.0,78.0,,,HRV,HRV_0216,2022-11-30 19:05:08
,wl-rdm,86,241044,0.0-6.78-0.78,False,,0.0,86.0,,,,,,,[],,,,,,56.4,0.0,u,0.0,True,928.6000000089407,44.0,60.0,40.0,285.9543530824949,[],"[683, 384]",ColorTask,27.0,79.0,,,HRV,HRV_0216,2022-11-30 19:05:08
,wl-rdm,87,243238,0.0-6.79-0.79,False,,0.0,87.0,,,,,,,[],,,,,,50.0,0.0,i,1.0,False,886.3999999910593,53.0,60.0,40.0,217.1314833202995,[],"[683, 384]",ColorTask,26.0,80.0,,,HRV,HRV_0216,2022-11-30 19:05:08
,wl-rdm,88,245175,0.0-6.80-0.80,False,,0.0,88.0,,,,,,,[],,,,,,56.4,0.0,u,0.0,True,663.5000000149012,39.0,60.0,40.0,214.09617815835492,[],"[683, 384]",ColorTask,27.0,81.0,,,HRV,HRV_0216,2022-11-30 19:05:08
,wl-rdm,89,247172,0.0-6.81-0.81,False,,0.0,89.0,,,,,,,[],,,,,,87.9,1.0,u,0.0,False,524.2999999970198,32.0,60.0,40.0,397.849228168821,[],"[683, 384]",ColorTask,26.0,82.0,,,HRV,HRV_0216,2022-11-30 19:05:08
,wl-rdm,90,249138,0.0-6.82-0.82,False,,0.0,90.0,,,,,,,[],,,,,,87.9,1.0,i,1.0,True,607.8999999910593,37.0,60.0,40.0,290.1593024995395,[],"[683, 384]",ColorTask,27.0,83.0,,,HRV,HRV_0216,2022-11-30 19:05:08
,wl-rdm,91,251236,0.0-6.83-0.83,False,,0.0,91.0,,,,,,,[],,,,,,53.2,0.0,u,0.0,True,611.7000000029802,34.0,60.0,40.0,395.42681960625845,[],"[683, 384]",ColorTask,28.0,84.0,,,HRV,HRV_0216,2022-11-30 19:05:08
,wl-rdm,92,253286,0.0-6.84-0.84,False,,0.0,92.0,,,,,,,[],,,,,,53.2,0.0,i,1.0,False,631.2999999970198,38.0,60.0,40.0,364.2744028998644,[],"[683, 384]",ColorTask,27.0,85.0,,,HRV,HRV_0216,2022-11-30 19:05:08
,wl-rdm,93,255258,0.0-6.85-0.85,False,,0.0,93.0,,,,,,,[],,,,,,62.5,1.0,u,0.0,False,610.2000000029802,37.0,60.0,40.0,272.9190898753103,[],"[683, 384]",ColorTask,26.0,86.0,,,HRV,HRV_0216,2022-11-30 19:05:08
,wl-rdm,94,257135,0.0-6.86-0.86,False,,0.0,94.0,,,,,,,[],,,,,,73.6,1.0,i,1.0,True,527.1000000089407,31.0,60.0,40.0,233.13122884152236,[],"[683, 384]",ColorTask,27.0,87.0,,,HRV,HRV_0216,2022-11-30 19:05:08
,wl-rdm,95,259104,0.0-6.87-0.87,False,,0.0,95.0,,,,,,,[],,,,,,62.5,1.0,i,1.0,True,632.0999999940395,38.0,60.0,40.0,250.26601798520161,[],"[683, 384]",ColorTask,28.0,88.0,,,HRV,HRV_0216,2022-11-30 19:05:08
,wl-rdm,96,261372,0.0-6.88-0.88,False,,0.0,96.0,,,,,,,[],,,,,,73.6,0.0,u,0.0,True,868.0999999940395,52.0,60.0,40.0,344.87711518576646,[],"[683, 384]",ColorTask,29.0,89.0,,,HRV,HRV_0216,2022-11-30 19:05:08
,wl-rdm,97,263670,0.0-6.89-0.89,False,,0.0,97.0,,,,,,,[],,,,,,50.0,1.0,u,0.0,False,888.8000000119209,52.0,60.0,40.0,323.7845305652784,[],"[683, 384]",ColorTask,28.0,90.0,,,HRV,HRV_0216,2022-11-30 19:05:08
,wl-rdm,98,265486,0.0-6.90-0.90,False,,0.0,98.0,,,,,,,[],,,,,,73.6,0.0,i,1.0,False,447.90000000596046,27.0,60.0,40.0,283.37632968169856,[],"[683, 384]",ColorTask,27.0,91.0,,,HRV,HRV_0216,2022-11-30 19:05:08
,wl-rdm,99,267269,0.0-6.91-0.91,False,,0.0,99.0,,,,,,,[],,,,,,73.6,0.0,u,0.0,True,439.70000000298023,27.0,60.0,40.0,273.2968290869798,[],"[683, 384]",ColorTask,28.0,92.0,,,HRV,HRV_0216,2022-11-30 19:05:08
,wl-rdm,100,269299,0.0-6.92-0.92,False,,0.0,100.0,,,,,,,[],,,,,,53.2,0.0,i,1.0,False,588.2000000029802,36.0,60.0,40.0,346.32318973489737,[],"[683, 384]",ColorTask,27.0,93.0,,,HRV,HRV_0216,2022-11-30 19:05:08
,wl-rdm,101,271186,0.0-6.93-0.93,False,,0.0,101.0,,,,,,,[],,,,,,50.0,0.0,i,1.0,False,574.1999999880791,35.0,60.0,40.0,219.8776871822709,[],"[683, 384]",ColorTask,26.0,94.0,,,HRV,HRV_0216,2022-11-30 19:05:08
,wl-rdm,102,273136,0.0-6.94-0.94,False,,0.0,102.0,,,,,,,[],,,,,,53.2,0.0,u,0.0,True,666.2000000029802,41.0,60.0,40.0,218.45370824805732,[],"[683, 384]",ColorTask,27.0,95.0,,,HRV,HRV_0216,2022-11-30 19:05:08
,wl-rdm,103,275401,0.0-6.95-0.95,False,,0.0,103.0,,,,,,,[],,,,,,50.0,0.0,u,0.0,True,824.3000000119209,47.0,60.0,40.0,339.15275932807424,[],"[683, 384]",ColorTask,28.0,96.0,,,HRV,HRV_0216,2022-11-30 19:05:08
,wl-rdm,104,277769,0.0-6.96-0.96,False,,0.0,104.0,,,,,,,[],,,,,,50.0,1.0,i,1.0,True,1045.6000000089407,63.0,60.0,40.0,246.61820416008464,[],"[683, 384]",ColorTask,29.0,97.0,,,HRV,HRV_0216,2022-11-30 19:05:08
,wl-rdm,105,280219,0.0-6.97-0.97,False,,0.0,105.0,,,,,,,[],,,,,,73.6,0.0,i,1.0,False,988.7999999970198,60.0,60.0,40.0,387.9189609582649,[],"[683, 384]",ColorTask,28.0,98.0,,,HRV,HRV_0216,2022-11-30 19:05:08
,wl-rdm,106,282370,0.0-6.98-0.98,False,,0.0,106.0,,,,,,,[],,,,,,87.9,0.0,u,0.0,True,699.4000000059605,41.0,60.0,40.0,380.6513470664518,[],"[683, 384]",ColorTask,29.0,99.0,,,HRV,HRV_0216,2022-11-30 19:05:08
,wl-rdm,107,284584,0.0-6.99-0.99,False,,0.0,107.0,,,,,,,[],,,,,,56.4,0.0,i,1.0,False,690.0999999940395,42.0,60.0,40.0,389.79164175567814,[],"[683, 384]",ColorTask,28.0,100.0,,,HRV,HRV_0216,2022-11-30 19:05:08
,wl-rdm,108,286735,0.0-6.100-0.100,False,,0.0,108.0,,,,,,,[],,,,,,62.5,0.0,u,0.0,True,820.2000000029802,49.0,60.0,40.0,240.3030314473956,[],"[683, 384]",ColorTask,29.0,101.0,,,HRV,HRV_0216,2022-11-30 19:05:08
,wl-rdm,109,288735,0.0-6.101-0.101,False,,0.0,109.0,,,,,,,[],,,,,,73.6,1.0,i,1.0,True,609.0999999940395,37.0,60.0,40.0,307.00472550233064,[],"[683, 384]",ColorTask,30.0,102.0,,,HRV,HRV_0216,2022-11-30 19:05:08
,wl-rdm,110,290769,0.0-6.102-0.102,False,,0.0,110.0,,,,,,,[],,,,,,87.9,1.0,i,1.0,True,704.7999999970198,43.0,60.0,40.0,253.11655617221464,[],"[683, 384]",ColorTask,31.0,103.0,,,HRV,HRV_0216,2022-11-30 19:05:08
,wl-rdm,111,292851,0.0-6.103-0.103,False,,0.0,111.0,,,,,,,[],,,,,,53.2,0.0,u,0.0,True,724.5000000149012,44.0,60.0,40.0,303.77802323292195,[],"[683, 384]",ColorTask,32.0,104.0,,,HRV,HRV_0216,2022-11-30 19:05:08
,wl-rdm,112,295001,0.0-6.104-0.104,False,,0.0,112.0,,,,,,,[],,,,,,62.5,0.0,u,0.0,True,752.4999999850988,44.0,60.0,40.0,329.5010732241486,[],"[683, 384]",ColorTask,33.0,105.0,,,HRV,HRV_0216,2022-11-30 19:05:08
,wl-rdm,113,297102,0.0-6.105-0.105,False,,0.0,113.0,,,,,,,[],,,,,,73.6,0.0,u,0.0,True,670.5,41.0,60.0,40.0,354.2277117426974,[],"[683, 384]",ColorTask,34.0,106.0,,,HRV,HRV_0216,2022-11-30 19:05:08
,wl-rdm,114,299151,0.0-6.106-0.106,False,,0.0,114.0,,,,,,,[],,,,,,87.9,0.0,u,0.0,True,660.7000000029802,40.0,60.0,40.0,304.32443700939467,[],"[683, 384]",ColorTask,35.0,107.0,,,HRV,HRV_0216,2022-11-30 19:05:08
,wl-rdm,115,301336,0.0-6.107-0.107,False,,0.0,115.0,,,,,,,[],,,,,,50.0,1.0,i,1.0,True,859.7000000029802,52.0,60.0,40.0,265.69756596212795,[],"[683, 384]",ColorTask,36.0,108.0,,,HRV,HRV_0216,2022-11-30 19:05:08
,wl-html-keyboard-response,116,308859,0.0-7.0-0.0,,,1.0,116.0,,,,,,,,5509.5,1.0,0,,,,,,,,,,,,,,,,,,,,HRV,HRV_0216,2022-11-30 19:05:08
,wl-rdm,117,310884,0.0-8.0-0.0,False,,1.0,117.0,,,,,,,[],,,,,,87.9,0.0,u,0.0,True,734.7000000029802,44.0,60.0,40.0,204.72287281534452,[],"[683, 384]",ColorTask,37.0,1.0,,,HRV,HRV_0216,2022-11-30 19:05:08
,wl-rdm,118,312783,0.0-8.1-0.1,False,,1.0,118.0,,,,,,,[],,,,,,73.6,0.0,u,0.0,True,536.0000000149012,33.0,60.0,40.0,271.2567679950806,[],"[683, 384]",ColorTask,38.0,2.0,,,HRV,HRV_0216,2022-11-30 19:05:08
,wl-rdm,119,314750,0.0-8.2-0.2,False,,1.0,119.0,,,,,,,[],,,,,,87.9,0.0,u,0.0,True,689.1000000089407,41.0,60.0,40.0,202.14068437501737,[],"[683, 384]",ColorTask,39.0,3.0,,,HRV,HRV_0216,2022-11-30 19:05:08
,wl-rdm,120,316550,0.0-8.3-0.3,False,,1.0,120.0,,,,,,,[],,,,,,73.6,1.0,i,1.0,True,509.29999999701977,31.0,60.0,40.0,217.1496856230798,[],"[683, 384]",ColorTask,40.0,4.0,,,HRV,HRV_0216,2022-11-30 19:05:08
,wl-rdm,121,318533,0.0-8.4-0.4,False,,1.0,121.0,,,,,,,[],,,,,,53.2,0.0,i,1.0,False,616.8000000119209,37.0,60.0,40.0,292.56179554637157,[],"[683, 384]",ColorTask,39.0,5.0,,,HRV,HRV_0216,2022-11-30 19:05:08
,wl-rdm,122,320318,0.0-8.5-0.5,False,,1.0,122.0,,,,,,,[],,,,,,56.4,1.0,i,1.0,True,485.5,30.0,60.0,40.0,231.21604775245808,[],"[683, 384]",ColorTask,40.0,6.0,,,HRV,HRV_0216,2022-11-30 19:05:08
,wl-rdm,123,322200,0.0-8.6-0.6,False,,1.0,123.0,,,,,,,[],,,,,,87.9,0.0,u,0.0,True,560.1000000089407,34.0,60.0,40.0,261.46741620101733,[],"[683, 384]",ColorTask,41.0,7.0,,,HRV,HRV_0216,2022-11-30 19:05:08
,wl-rdm,124,324285,0.0-8.7-0.7,False,,1.0,124.0,,,,,,,[],,,,,,73.6,0.0,u,0.0,True,793.4000000059605,48.0,60.0,40.0,230.44633544021474,[],"[683, 384]",ColorTask,42.0,8.0,,,HRV,HRV_0216,2022-11-30 19:05:08
,wl-rdm,125,326284,0.0-8.8-0.8,False,,1.0,125.0,,,,,,,[],,,,,,87.9,1.0,i,1.0,True,608.0000000149012,34.0,60.0,40.0,306.46645711227393,[],"[683, 384]",ColorTask,43.0,9.0,,,HRV,HRV_0216,2022-11-30 19:05:08
,wl-rdm,126,328699,0.0-8.9-0.9,False,,1.0,126.0,,,,,,,[],,,,,,53.2,1.0,i,1.0,True,1092.5000000149012,66.0,60.0,40.0,244.74860009378102,[],"[683, 384]",ColorTask,44.0,10.0,,,HRV,HRV_0216,2022-11-30 19:05:08
,wl-rdm,127,330616,0.0-8.10-0.10,False,,1.0,127.0,,,,,,,[],,,,,,73.6,1.0,i,1.0,True,580.4000000059605,35.0,60.0,40.0,259.75699319171116,[],"[683, 384]",ColorTask,45.0,11.0,,,HRV,HRV_0216,2022-11-30 19:05:08
,wl-rdm,128,332850,0.0-8.11-0.11,False,,1.0,128.0,,,,,,,[],,,,,,53.2,1.0,i,1.0,True,911.3000000119209,55.0,60.0,40.0,245.64007445816247,[],"[683, 384]",ColorTask,46.0,12.0,,,HRV,HRV_0216,2022-11-30 19:05:08
,wl-rdm,129,335099,0.0-8.12-0.12,False,,1.0,129.0,,,,,,,[],,,,,,50.0,1.0,i,1.0,True,902.0,54.0,60.0,40.0,280.42960862056475,[],"[683, 384]",ColorTask,47.0,13.0,,,HRV,HRV_0216,2022-11-30 19:05:08
,wl-rdm,130,336933,0.0-8.13-0.13,False,,1.0,130.0,,,,,,,[],,,,,,73.6,0.0,u,0.0,True,548.5999999940395,33.0,60.0,40.0,218.26903350082122,[],"[683, 384]",ColorTask,48.0,14.0,,,HRV,HRV_0216,2022-11-30 19:05:08
,wl-rdm,131,339015,0.0-8.14-0.14,False,,1.0,131.0,,,,,,,[],,,,,,73.6,1.0,i,1.0,True,681.2000000029802,38.0,60.0,40.0,319.2235426338951,[],"[683, 384]",ColorTask,49.0,15.0,,,HRV,HRV_0216,2022-11-30 19:05:08
,wl-rdm,132,341532,0.0-8.15-0.15,False,,1.0,132.0,,,,,,,[],,,,,,53.2,0.0,u,0.0,True,1158.5,70.0,60.0,40.0,277.1679839402605,[],"[683, 384]",ColorTask,50.0,16.0,,,HRV,HRV_0216,2022-11-30 19:05:08
,wl-rdm,133,343451,0.0-8.16-0.16,False,,1.0,133.0,,,,,,,[],,,,,,73.6,0.0,u,0.0,True,556.3999999910593,34.0,60.0,40.0,265.94895651894797,[],"[683, 384]",ColorTask,51.0,17.0,,,HRV,HRV_0216,2022-11-30 19:05:08
,wl-rdm,134,345317,0.0-8.17-0.17,False,,1.0,134.0,,,,,,,[],,,,,,50.0,1.0,u,0.0,False,520.5999999940395,31.0,60.0,40.0,245.03912663666213,[],"[683, 384]",ColorTask,50.0,18.0,,,HRV,HRV_0216,2022-11-30 19:05:08
,wl-rdm,135,347452,0.0-8.18-0.18,False,,1.0,135.0,,,,,,,[],,,,,,56.4,0.0,u,0.0,True,771.0999999940395,47.0,60.0,40.0,284.39277946479905,[],"[683, 384]",ColorTask,51.0,19.0,,,HRV,HRV_0216,2022-11-30 19:05:08
,wl-rdm,136,349449,0.0-8.19-0.19,False,,1.0,136.0,,,,,,,[],,,,,,87.9,1.0,i,1.0,True,579.8999999910593,35.0,60.0,40.0,336.147749334815,[],"[683, 384]",ColorTask,52.0,20.0,,,HRV,HRV_0216,2022-11-30 19:05:08
,wl-rdm,137,351466,0.0-8.20-0.20,False,,1.0,137.0,,,,,,,[],,,,,,56.4,1.0,i,1.0,True,687.6000000089407,42.0,60.0,40.0,244.19587291227174,[],"[683, 384]",ColorTask,53.0,21.0,,,HRV,HRV_0216,2022-11-30 19:05:08
,wl-rdm,138,353733,0.0-8.21-0.21,False,,1.0,138.0,,,,,,,[],,,,,,50.0,1.0,u,0.0,False,891.4999999850988,54.0,60.0,40.0,305.2432113444925,[],"[683, 384]",ColorTask,52.0,22.0,,,HRV,HRV_0216,2022-11-30 19:05:08
,wl-rdm,139,356049,0.0-8.22-0.22,False,,1.0,139.0,,,,,,,[],,,,,,62.5,1.0,i,1.0,True,878.8999999910593,53.0,60.0,40.0,363.67960875456345,[],"[683, 384]",ColorTask,53.0,23.0,,,HRV,HRV_0216,2022-11-30 19:05:08
,wl-rdm,140,358403,0.0-8.23-0.23,False,,1.0,140.0,,,,,,,[],,,,,,53.2,0.0,u,0.0,True,891.7999999970198,47.0,60.0,40.0,386.5905246195814,[],"[683, 384]",ColorTask,54.0,24.0,,,HRV,HRV_0216,2022-11-30 19:05:08
,wl-rdm,141,360500,0.0-8.24-0.24,False,,1.0,141.0,,,,,,,[],,,,,,62.5,0.0,u,0.0,True,811.3999999910593,49.0,60.0,40.0,211.0592585200916,[],"[683, 384]",ColorTask,55.0,25.0,,,HRV,HRV_0216,2022-11-30 19:05:08
,wl-rdm,142,362399,0.0-8.25-0.25,False,,1.0,142.0,,,,,,,[],,,,,,73.6,1.0,i,1.0,True,539.2000000029802,33.0,60.0,40.0,278.1304350319087,[],"[683, 384]",ColorTask,56.0,26.0,,,HRV,HRV_0216,2022-11-30 19:05:08
,wl-rdm,143,365069,0.0-8.26-0.26,False,,1.0,143.0,,,,,,,[],,,,,,62.5,0.0,u,0.0,True,1354.800000011921,81.0,60.0,40.0,219.28706234875912,[],"[683, 384]",ColorTask,57.0,27.0,,,HRV,HRV_0216,2022-11-30 19:05:08
,wl-rdm,144,367148,0.0-8.27-0.27,False,,1.0,144.0,,,,,,,[],,,,,,53.2,1.0,i,1.0,True,723.1000000089407,44.0,60.0,40.0,263.8158781199487,[],"[683, 384]",ColorTask,58.0,28.0,,,HRV,HRV_0216,2022-11-30 19:05:08
,wl-rdm,145,369066,0.0-8.28-0.28,False,,1.0,145.0,,,,,,,[],,,,,,87.9,0.0,u,0.0,True,640.3000000119209,39.0,60.0,40.0,211.1698956321533,[],"[683, 384]",ColorTask,59.0,29.0,,,HRV,HRV_0216,2022-11-30 19:05:08
,wl-rdm,146,371763,0.0-8.29-0.29,False,,1.0,146.0,,,,,,,[],,,,,,53.2,0.0,u,0.0,True,1334.7000000029802,79.0,60.0,40.0,267.093830041287,[],"[683, 384]",ColorTask,60.0,30.0,,,HRV,HRV_0216,2022-11-30 19:05:08
,wl-rdm,147,374132,0.0-8.30-0.30,False,,1.0,147.0,,,,,,,[],,,,,,53.2,0.0,i,1.0,False,938.3000000119209,57.0,60.0,40.0,351.8495077170177,[],"[683, 384]",ColorTask,59.0,31.0,,,HRV,HRV_0216,2022-11-30 19:05:08
,wl-rdm,148,376171,0.0-8.31-0.31,False,,1.0,148.0,,,,,,,[],,,,,,56.4,1.0,i,1.0,True,687.5999999940395,42.0,60.0,40.0,281.54809952524636,[],"[683, 384]",ColorTask,60.0,32.0,,,HRV,HRV_0216,2022-11-30 19:05:08
,wl-rdm,149,378230,0.0-8.32-0.32,False,,1.0,149.0,,,,,,,[],,,,,,87.9,1.0,i,1.0,True,691.6000000089407,41.0,60.0,40.0,312.0720672262652,[],"[683, 384]",ColorTask,61.0,33.0,,,HRV,HRV_0216,2022-11-30 19:05:08
,wl-rdm,150,380615,0.0-8.33-0.33,False,,1.0,150.0,,,,,,,[],,,,,,62.5,1.0,u,0.0,False,1090.5999999940395,66.0,60.0,40.0,227.42072886965698,[],"[683, 384]",ColorTask,60.0,34.0,,,HRV,HRV_0216,2022-11-30 19:05:08
,wl-rdm,151,382831,0.0-8.34-0.34,False,,1.0,151.0,,,,,,,[],,,,,,62.5,0.0,i,1.0,False,823.1000000089407,50.0,60.0,40.0,322.177967965927,[],"[683, 384]",ColorTask,59.0,35.0,,,HRV,HRV_0216,2022-11-30 19:05:08
,wl-rdm,152,384880,0.0-8.35-0.35,False,,1.0,152.0,,,,,,,[],,,,,,50.0,1.0,i,1.0,True,758.3999999910593,46.0,60.0,40.0,207.45174582781016,[],"[683, 384]",ColorTask,60.0,36.0,,,HRV,HRV_0216,2022-11-30 19:05:08
,wl-rdm,153,387366,0.0-8.36-0.36,False,,1.0,153.0,,,,,,,[],,,,,,53.2,1.0,i,1.0,True,1123.5999999940395,68.0,60.0,40.0,285.2556980778661,[],"[683, 384]",ColorTask,61.0,37.0,,,HRV,HRV_0216,2022-11-30 19:05:08
,wl-rdm,154,389447,0.0-8.37-0.37,False,,1.0,154.0,,,,,,,[],,,,,,73.6,0.0,u,0.0,True,780.7999999970198,47.0,60.0,40.0,228.1121670792824,[],"[683, 384]",ColorTask,62.0,38.0,,,HRV,HRV_0216,2022-11-30 19:05:08
,wl-rdm,155,391481,0.0-8.38-0.38,False,,1.0,155.0,,,,,,,[],,,,,,87.9,0.0,u,0.0,True,711.2000000029802,42.0,60.0,40.0,266.5638400117287,[],"[683, 384]",ColorTask,63.0,39.0,,,HRV,HRV_0216,2022-11-30 19:05:08
,wl-rdm,156,393948,0.0-8.39-0.39,False,,1.0,156.0,,,,,,,[],,,,,,50.0,0.0,i,1.0,False,1117.2000000178814,67.0,60.0,40.0,274.7391084572792,[],"[683, 384]",ColorTask,62.0,40.0,,,HRV,HRV_0216,2022-11-30 19:05:08
,wl-rdm,157,395963,0.0-8.40-0.40,False,,1.0,157.0,,,,,,,[],,,,,,62.5,0.0,u,0.0,True,637.9000000059605,39.0,60.0,40.0,316.7135392162032,[],"[683, 384]",ColorTask,63.0,41.0,,,HRV,HRV_0216,2022-11-30 19:05:08
,wl-rdm,158,398133,0.0-8.41-0.41,False,,1.0,158.0,,,,,,,[],,,,,,87.9,1.0,i,1.0,True,700.3000000119209,42.0,60.0,40.0,367.3475232115362,[],"[683, 384]",ColorTask,64.0,42.0,,,HRV,HRV_0216,2022-11-30 19:05:08
,wl-rdm,159,400719,0.0-8.42-0.42,False,,1.0,159.0,,,,,,,[],,,,,,62.5,1.0,u,0.0,False,1279.300000011921,77.0,60.0,40.0,204.57825389112784,[],"[683, 384]",ColorTask,63.0,43.0,,,HRV,HRV_0216,2022-11-30 19:05:08
,wl-rdm,160,403013,0.0-8.43-0.43,False,,1.0,160.0,,,,,,,[],,,,,,50.0,0.0,u,0.0,True,995.2000000029802,60.0,60.0,40.0,202.74341909085706,[],"[683, 384]",ColorTask,64.0,44.0,,,HRV,HRV_0216,2022-11-30 19:05:08
,wl-rdm,161,404997,0.0-8.44-0.44,False,,1.0,161.0,,,,,,,[],,,,,,53.2,1.0,i,1.0,True,594.0999999940395,34.0,60.0,40.0,328.01420241238986,[],"[683, 384]",ColorTask,65.0,45.0,,,HRV,HRV_0216,2022-11-30 19:05:08
,wl-rdm,162,406962,0.0-8.45-0.45,False,,1.0,162.0,,,,,,,[],,,,,,87.9,1.0,i,1.0,True,606.4999999850988,37.0,60.0,40.0,274.0981644200631,[],"[683, 384]",ColorTask,66.0,46.0,,,HRV,HRV_0216,2022-11-30 19:05:08
,wl-rdm,163,409379,0.0-8.46-0.46,False,,1.0,163.0,,,,,,,[],,,,,,73.6,1.0,i,1.0,True,1069.5000000149012,64.0,60.0,40.0,272.4354181336863,[],"[683, 384]",ColorTask,67.0,47.0,,,HRV,HRV_0216,2022-11-30 19:05:08
,wl-rdm,164,411346,0.0-8.47-0.47,False,,1.0,164.0,,,,,,,[],,,,,,53.2,0.0,u,0.0,True,683.4000000059605,41.0,60.0,40.0,215.15885128838283,[],"[683, 384]",ColorTask,68.0,48.0,,,HRV,HRV_0216,2022-11-30 19:05:08
,wl-rdm,165,413596,0.0-8.48-0.48,False,,1.0,165.0,,,,,,,[],,,,,,73.6,0.0,u,0.0,True,939.2000000029802,57.0,60.0,40.0,233.88148895850185,[],"[683, 384]",ColorTask,69.0,49.0,,,HRV,HRV_0216,2022-11-30 19:05:08
,wl-rdm,166,416044,0.0-8.49-0.49,False,,1.0,166.0,,,,,,,[],,,,,,50.0,1.0,i,1.0,True,1102.2000000029802,64.0,60.0,40.0,276.96626359244925,[],"[683, 384]",ColorTask,70.0,50.0,,,HRV,HRV_0216,2022-11-30 19:05:08
,wl-rdm,167,418782,0.0-8.50-0.50,False,,1.0,167.0,,,,,,,[],,,,,,56.4,0.0,u,0.0,True,1318.0999999940395,78.0,60.0,40.0,330.5702349414197,[],"[683, 384]",ColorTask,71.0,51.0,,,HRV,HRV_0216,2022-11-30 19:05:08
,wl-rdm,168,422245,0.0-8.51-0.51,False,,1.0,168.0,,,,,,,[],,,,,,50.0,1.0,i,1.0,True,2093.800000011921,125.0,60.0,40.0,296.40568756676925,[],"[683, 384]",ColorTask,72.0,52.0,,,HRV,HRV_0216,2022-11-30 19:05:08
,wl-rdm,169,424898,0.0-8.52-0.52,False,,1.0,169.0,,,,,,,[],,,,,,62.5,0.0,u,0.0,True,1193.7999999970198,72.0,60.0,40.0,370.82808150564813,[],"[683, 384]",ColorTask,73.0,53.0,,,HRV,HRV_0216,2022-11-30 19:05:08
,wl-rdm,170,427845,0.0-8.53-0.53,False,,1.0,170.0,,,,,,,[],,,,,,56.4,1.0,i,1.0,True,1534.9000000059605,91.0,60.0,40.0,341.3447691413576,[],"[683, 384]",ColorTask,74.0,54.0,,,HRV,HRV_0216,2022-11-30 19:05:08
,wl-rdm,171,430030,0.0-8.54-0.54,False,,1.0,171.0,,,,,,,[],,,,,,87.9,1.0,i,1.0,True,906.4000000059605,53.0,60.0,40.0,213.6386904621729,[],"[683, 384]",ColorTask,75.0,55.0,,,HRV,HRV_0216,2022-11-30 19:05:08
,wl-rdm,172,432828,0.0-8.55-0.55,False,,1.0,172.0,,,,,,,[],,,,,,62.5,1.0,i,1.0,True,1444.2999999970198,87.0,60.0,40.0,298.3310654600348,[],"[683, 384]",ColorTask,76.0,56.0,,,HRV,HRV_0216,2022-11-30 19:05:08
,wl-rdm,173,435478,0.0-8.56-0.56,False,,1.0,173.0,,,,,,,[],,,,,,53.2,1.0,i,1.0,True,1276.4000000059605,76.0,60.0,40.0,302.67049950519197,[],"[683, 384]",ColorTask,77.0,57.0,,,HRV,HRV_0216,2022-11-30 19:05:08
,wl-rdm,174,437945,0.0-8.57-0.57,False,,1.0,174.0,,,,,,,[],,,,,,73.6,1.0,i,1.0,True,1185.300000011921,72.0,60.0,40.0,214.16113121541963,[],"[683, 384]",ColorTask,78.0,58.0,,,HRV,HRV_0216,2022-11-30 19:05:08
,wl-rdm,175,440395,0.0-8.58-0.58,False,,1.0,175.0,,,,,,,[],,,,,,56.4,1.0,u,0.0,False,1087.7000000029802,66.0,60.0,40.0,294.7445197945865,[],"[683, 384]",ColorTask,77.0,59.0,,,HRV,HRV_0216,2022-11-30 19:05:08
,wl-rdm,176,443495,0.0-8.59-0.59,False,,1.0,176.0,,,,,,,[],,,,,,56.4,0.0,i,1.0,False,1771.5,107.0,60.0,40.0,252.78936287761522,[],"[683, 384]",ColorTask,76.0,60.0,,,HRV,HRV_0216,2022-11-30 19:05:08
,wl-rdm,177,446060,0.0-8.60-0.60,False,,1.0,177.0,,,,,,,[],,,,,,56.4,1.0,i,1.0,True,1216.7999999970198,72.0,60.0,40.0,267.3910226637274,[],"[683, 384]",ColorTask,77.0,61.0,,,HRV,HRV_0216,2022-11-30 19:05:08
,wl-rdm,178,448528,0.0-8.61-0.61,False,,1.0,178.0,,,,,,,[],,,,,,50.0,0.0,u,0.0,True,1131.4000000059605,68.0,60.0,40.0,255.89082651189096,[],"[683, 384]",ColorTask,78.0,62.0,,,HRV,HRV_0216,2022-11-30 19:05:08
,wl-rdm,179,450628,0.0-8.62-0.62,False,,1.0,179.0,,,,,,,[],,,,,,56.4,0.0,u,0.0,True,796.7000000178814,47.0,60.0,40.0,221.91258582245365,[],"[683, 384]",ColorTask,79.0,63.0,,,HRV,HRV_0216,2022-11-30 19:05:08
,wl-rdm,180,453694,0.0-8.63-0.63,False,,1.0,180.0,,,,,,,[],,,,,,50.0,0.0,i,1.0,False,1795.0,108.0,60.0,40.0,213.89998484232126,[],"[683, 384]",ColorTask,78.0,64.0,,,HRV,HRV_0216,2022-11-30 19:05:08
,wl-rdm,181,455943,0.0-8.64-0.64,False,,1.0,181.0,,,,,,,[],,,,,,53.2,1.0,u,0.0,False,894.0,53.0,60.0,40.0,283.6310355670798,[],"[683, 384]",ColorTask,77.0,65.0,,,HRV,HRV_0216,2022-11-30 19:05:08
,wl-rdm,182,458679,0.0-8.65-0.65,False,,1.0,182.0,,,,,,,[],,,,,,62.5,0.0,u,0.0,True,1350.800000011921,81.0,60.0,40.0,287.26309825477335,[],"[683, 384]",ColorTask,78.0,66.0,,,HRV,HRV_0216,2022-11-30 19:05:08
,wl-rdm,183,460914,0.0-8.66-0.66,False,,1.0,183.0,,,,,,,[],,,,,,87.9,0.0,u,0.0,True,890.3000000119209,54.0,60.0,40.0,266.05845885746913,[],"[683, 384]",ColorTask,79.0,67.0,,,HRV,HRV_0216,2022-11-30 19:05:08
,wl-rdm,184,463213,0.0-8.67-0.67,False,,1.0,184.0,,,,,,,[],,,,,,53.2,0.0,i,1.0,False,974.4000000059605,59.0,60.0,40.0,224.9140453022219,[],"[683, 384]",ColorTask,78.0,68.0,,,HRV,HRV_0216,2022-11-30 19:05:08
,wl-rdm,185,465477,0.0-8.68-0.68,False,,1.0,185.0,,,,,,,[],,,,,,56.4,0.0,u,0.0,True,813.5000000149012,49.0,60.0,40.0,356.92954238050476,[],"[683, 384]",ColorTask,79.0,69.0,,,HRV,HRV_0216,2022-11-30 19:05:08
,wl-rdm,186,468178,0.0-8.69-0.69,False,,1.0,186.0,,,,,,,[],,,,,,50.0,1.0,u,0.0,False,1389.0999999940395,84.0,60.0,40.0,250.17859307246098,[],"[683, 384]",ColorTask,78.0,70.0,,,HRV,HRV_0216,2022-11-30 19:05:08
,wl-rdm,187,470859,0.0-8.70-0.70,False,,1.0,187.0,,,,,,,[],,,,,,62.5,1.0,u,0.0,False,1230.2999999970198,74.0,60.0,40.0,365.12023785184647,[],"[683, 384]",ColorTask,77.0,71.0,,,HRV,HRV_0216,2022-11-30 19:05:08
,wl-rdm,188,473011,0.0-8.71-0.71,False,,1.0,188.0,,,,,,,[],,,,,,56.4,1.0,u,0.0,False,871.5,51.0,60.0,40.0,208.40193213266892,[],"[683, 384]",ColorTask,76.0,72.0,,,HRV,HRV_0216,2022-11-30 19:05:08
,wl-rdm,189,475028,0.0-8.72-0.72,False,,1.0,189.0,,,,,,,[],,,,,,87.9,1.0,i,1.0,True,667.2000000029802,40.0,60.0,40.0,285.8846952788613,[],"[683, 384]",ColorTask,77.0,73.0,,,HRV,HRV_0216,2022-11-30 19:05:08
,wl-rdm,190,477661,0.0-8.73-0.73,False,,1.0,190.0,,,,,,,[],,,,,,56.4,0.0,u,0.0,True,1353.7000000029802,79.0,60.0,40.0,206.50838661997372,[],"[683, 384]",ColorTask,78.0,74.0,,,HRV,HRV_0216,2022-11-30 19:05:08
,wl-rdm,191,479942,0.0-8.74-0.74,False,,1.0,191.0,,,,,,,[],,,,,,56.4,0.0,u,0.0,True,965.1000000089407,56.0,60.0,40.0,227.93477910128354,[],"[683, 384]",ColorTask,79.0,75.0,,,HRV,HRV_0216,2022-11-30 19:05:08
,wl-rdm,192,482093,0.0-8.75-0.75,False,,1.0,192.0,,,,,,,[],,,,,,62.5,1.0,i,1.0,True,789.2999999970198,47.0,60.0,40.0,294.1641270881637,[],"[683, 384]",ColorTask,80.0,76.0,,,HRV,HRV_0216,2022-11-30 19:05:08
,wl-rdm,193,484709,0.0-8.76-0.76,False,,1.0,193.0,,,,,,,[],,,,,,50.0,0.0,i,1.0,False,1338.699999988079,81.0,60.0,40.0,207.41792021548991,[],"[683, 384]",ColorTask,79.0,77.0,,,HRV,HRV_0216,2022-11-30 19:05:08
,wl-rdm,194,486844,0.0-8.77-0.77,False,,1.0,194.0,,,,,,,[],,,,,,53.2,0.0,i,1.0,False,809.6000000089407,48.0,60.0,40.0,257.58831415741065,[],"[683, 384]",ColorTask,78.0,78.0,,,HRV,HRV_0216,2022-11-30 19:05:08
,wl-rdm,195,488577,0.0-8.78-0.78,False,,1.0,195.0,,,,,,,[],,,,,,62.5,1.0,i,1.0,True,427.6000000089407,26.0,60.0,40.0,230.45172908276942,[],"[683, 384]",ColorTask,79.0,79.0,,,HRV,HRV_0216,2022-11-30 19:05:08
,wl-rdm,196,490425,0.0-8.79-0.79,False,,1.0,196.0,,,,,,,[],,,,,,62.5,0.0,u,0.0,True,538.5,33.0,60.0,40.0,226.42515118759607,[],"[683, 384]",ColorTask,80.0,80.0,,,HRV,HRV_0216,2022-11-30 19:05:08
,wl-rdm,197,492480,0.0-8.80-0.80,False,,1.0,197.0,,,,,,,[],,,,,,87.9,1.0,i,1.0,True,762.3999999910593,46.0,60.0,40.0,234.75543093064215,[],"[683, 384]",ColorTask,81.0,81.0,,,HRV,HRV_0216,2022-11-30 19:05:08
,wl-rdm,198,494926,0.0-8.81-0.81,False,,1.0,198.0,,,,,,,[],,,,,,56.4,1.0,u,0.0,False,1151.5,69.0,60.0,40.0,220.63560194889203,[],"[683, 384]",ColorTask,80.0,82.0,,,HRV,HRV_0216,2022-11-30 19:05:08
,wl-rdm,199,497111,0.0-8.82-0.82,False,,1.0,199.0,,,,,,,[],,,,,,62.5,1.0,i,1.0,True,854.5,52.0,60.0,40.0,221.78900416849734,[],"[683, 384]",ColorTask,81.0,83.0,,,HRV,HRV_0216,2022-11-30 19:05:08
,wl-rdm,200,499293,0.0-8.83-0.83,False,,1.0,200.0,,,,,,,[],,,,,,87.9,0.0,u,0.0,True,812.8999999910593,49.0,60.0,40.0,272.158268512816,[],"[683, 384]",ColorTask,82.0,84.0,,,HRV,HRV_0216,2022-11-30 19:05:08
,wl-rdm,201,501978,0.0-8.84-0.84,False,,1.0,201.0,,,,,,,[],,,,,,50.0,0.0,u,0.0,True,1359.9000000059605,81.0,60.0,40.0,245.89708200891712,[],"[683, 384]",ColorTask,83.0,85.0,,,HRV,HRV_0216,2022-11-30 19:05:08
,wl-rdm,202,504742,0.0-8.85-0.85,False,,1.0,202.0,,,,,,,[],,,,,,73.6,0.0,u,0.0,True,1439.2000000029802,87.0,60.0,40.0,264.92210941191126,[],"[683, 384]",ColorTask,84.0,86.0,,,HRV,HRV_0216,2022-11-30 19:05:08
,wl-rdm,203,507057,0.0-8.86-0.86,False,,1.0,203.0,,,,,,,[],,,,,,73.6,1.0,i,1.0,True,885.7999999970198,51.0,60.0,40.0,363.26875843573845,[],"[683, 384]",ColorTask,85.0,87.0,,,HRV,HRV_0216,2022-11-30 19:05:08
,wl-rdm,204,510309,0.0-8.87-0.87,False,,1.0,204.0,,,,,,,[],,,,,,62.5,0.0,u,0.0,True,1940.0999999940395,117.0,60.0,40.0,230.24440065635144,[],"[683, 384]",ColorTask,86.0,88.0,,,HRV,HRV_0216,2022-11-30 19:05:08
,wl-rdm,205,512761,0.0-8.88-0.88,False,,1.0,205.0,,,,,,,[],,,,,,62.5,0.0,u,0.0,True,1171.4000000059605,71.0,60.0,40.0,217.4425816311998,[],"[683, 384]",ColorTask,87.0,89.0,,,HRV,HRV_0216,2022-11-30 19:05:08
,wl-rdm,206,515343,0.0-8.89-0.89,False,,1.0,206.0,,,,,,,[],,,,,,50.0,0.0,i,1.0,False,1289.7999999970198,78.0,60.0,40.0,217.33807930007248,[],"[683, 384]",ColorTask,86.0,90.0,,,HRV,HRV_0216,2022-11-30 19:05:08
,wl-rdm,207,518359,0.0-8.90-0.90,False,,1.0,207.0,,,,,,,[],,,,,,62.5,1.0,i,1.0,True,1699.2000000029802,102.0,60.0,40.0,228.586255097278,[],"[683, 384]",ColorTask,87.0,91.0,,,HRV,HRV_0216,2022-11-30 19:05:08
,wl-rdm,208,521326,0.0-8.91-0.91,False,,1.0,208.0,,,,,,,[],,,,,,50.0,1.0,i,1.0,True,1594.1000000089407,96.0,60.0,40.0,300.7990183509967,[],"[683, 384]",ColorTask,88.0,92.0,,,HRV,HRV_0216,2022-11-30 19:05:08
,wl-rdm,209,523592,0.0-8.92-0.92,False,,1.0,209.0,,,,,,,[],,,,,,73.6,1.0,i,1.0,True,975.1000000089407,59.0,60.0,40.0,204.4494390835497,[],"[683, 384]",ColorTask,89.0,93.0,,,HRV,HRV_0216,2022-11-30 19:05:08
,wl-rdm,210,526841,0.0-8.93-0.93,False,,1.0,210.0,,,,,,,[],,,,,,73.6,0.0,u,0.0,True,1776.3999999910593,106.0,60.0,40.0,385.4936188999651,[],"[683, 384]",ColorTask,90.0,94.0,,,HRV,HRV_0216,2022-11-30 19:05:08
,wl-rdm,211,529090,0.0-8.94-0.94,False,,1.0,211.0,,,,,,,[],,,,,,87.9,0.0,u,0.0,True,910.4000000059605,54.0,60.0,40.0,261.1950467544957,[],"[683, 384]",ColorTask,91.0,95.0,,,HRV,HRV_0216,2022-11-30 19:05:08
,wl-rdm,212,531423,0.0-8.95-0.95,False,,1.0,212.0,,,,,,,[],,,,,,53.2,1.0,u,0.0,False,1002.4000000059605,59.0,60.0,40.0,251.7223571175785,[],"[683, 384]",ColorTask,90.0,96.0,,,HRV,HRV_0216,2022-11-30 19:05:08
,wl-rdm,213,534074,0.0-8.96-0.96,False,,1.0,213.0,,,,,,,[],,,,,,50.0,0.0,i,1.0,False,1334.2999999970198,78.0,60.0,40.0,241.87676100830274,[],"[683, 384]",ColorTask,89.0,97.0,,,HRV,HRV_0216,2022-11-30 19:05:08
,wl-rdm,214,535861,0.0-8.97-0.97,False,,1.0,214.0,,,,,,,[],,,,,,56.4,0.0,i,1.0,False,324.09999999403954,20.0,60.0,40.0,388.0242418552401,[],"[683, 384]",ColorTask,88.0,98.0,,,HRV,HRV_0216,2022-11-30 19:05:08
,wl-rdm,215,537258,0.0-8.98-0.98,True,too_early ,1.0,214.0,,,,,,,[],,,,,,53.2,0.0,i,,,843.7000000029802,0.0,60.0,40.0,363.2933316255326,[],"[683, 384]",ColorTask,87.0,99.0,,,HRV,HRV_0216,2022-11-30 19:05:08
,wl-rdm,216,540045,0.0-8.99-0.99,False,,1.0,215.0,,,,,,,[],,,,,,56.4,0.0,i,1.0,False,1443.5999999940395,85.0,60.0,40.0,233.8107388830009,[],"[683, 384]",ColorTask,86.0,100.0,,,HRV,HRV_0216,2022-11-30 19:05:08
,wl-rdm,217,542091,0.0-8.100-0.100,False,,1.0,216.0,,,,,,,[],,,,,,73.6,1.0,i,1.0,True,764.0999999791384,46.0,60.0,40.0,214.0964830228663,[],"[683, 384]",ColorTask,87.0,101.0,,,HRV,HRV_0216,2022-11-30 19:05:08
,wl-rdm,218,544791,0.0-8.101-0.101,False,,1.0,217.0,,,,,,,[],,,,,,56.4,1.0,u,0.0,False,1290.6000000089407,78.0,60.0,40.0,344.48705049281057,[],"[683, 384]",ColorTask,86.0,102.0,,,HRV,HRV_0216,2022-11-30 19:05:08
,wl-rdm,219,546823,0.0-8.102-0.102,False,,1.0,218.0,,,,,,,[],,,,,,87.9,1.0,i,1.0,True,745.2999999970198,42.0,60.0,40.0,211.65313770711543,[],"[683, 384]",ColorTask,87.0,103.0,,,HRV,HRV_0216,2022-11-30 19:05:08
,wl-rdm,220,549089,0.0-8.103-0.103,False,,1.0,219.0,,,,,,,[],,,,,,50.0,1.0,u,0.0,False,966.5,58.0,60.0,40.0,242.30087702631013,[],"[683, 384]",ColorTask,86.0,104.0,,,HRV,HRV_0216,2022-11-30 19:05:08
,wl-rdm,221,551374,0.0-8.104-0.104,False,,1.0,220.0,,,,,,,[],,,,,,53.2,1.0,u,0.0,False,905.2000000029802,55.0,60.0,40.0,314.79175812564677,[],"[683, 384]",ColorTask,85.0,105.0,,,HRV,HRV_0216,2022-11-30 19:05:08
,wl-rdm,222,553239,0.0-8.105-0.105,False,,1.0,221.0,,,,,,,[],,,,,,73.6,0.0,u,0.0,True,579.5999999940395,35.0,60.0,40.0,217.1143870728165,[],"[683, 384]",ColorTask,86.0,106.0,,,HRV,HRV_0216,2022-11-30 19:05:08
,wl-rdm,223,556606,0.0-8.106-0.106,False,,1.0,222.0,,,,,,,[],,,,,,53.2,0.0,i,1.0,False,2090.5,126.0,60.0,40.0,214.31654760241605,[],"[683, 384]",ColorTask,85.0,107.0,,,HRV,HRV_0216,2022-11-30 19:05:08
,wl-rdm,224,558776,0.0-8.107-0.107,False,,1.0,223.0,,,,,,,[],,,,,,50.0,0.0,i,1.0,False,754.0,44.0,60.0,40.0,331.1756130644825,[],"[683, 384]",ColorTask,84.0,108.0,,,HRV,HRV_0216,2022-11-30 19:05:08
,wl-rdm,225,560724,0.0-8.108-0.108,False,,1.0,224.0,,,,,,,[],,,,,,87.9,0.0,u,0.0,True,564.2000000029802,32.0,60.0,40.0,318.60410080478835,[],"[683, 384]",ColorTask,85.0,109.0,,,HRV,HRV_0216,2022-11-30 19:05:08
,wl-html-button-response,226,564929,0.0-9.0-0.0,,,,,,,,,,,,4193.100000008941,,0,,,,,,,,,,,,,,,,,,<h3>End of this session. Thank you!</h3><br>,['Close window'],HRV,HRV_0216,2022-11-30 19:05:08
