trialN,stimuli,trialStartTime,trialStartTime_UNIX,stimulus1,stimulus2,stimulus1Bid,stimulus2Bid,delta,selected,rsp,rt,rt_UNIX,receivedResponse,trialEndTime,trialDuration,trialEndTime_UNIX,trialDuration_UNIX,rt_perfnow,exp,subjectId,date
0,"[{'imgObject': {}, 'id': 'fried eggs', 'src': '/static/foodstim60/fried eggs.jpg', 'key': 'u', 'origWidth': 410, 'origHeight': 410, 'width': 410, 'height': 410, 'widthPercent': 0.45, 'rescaleHeight': False, 'trialN': 0, 'loaded': True, 'loadedTime': 4032.5, 'positionName': 'LEFT', 'positionCoords': [245.68, 179], 'bid': 5.36}, {'imgObject': {}, 'id': 'eggs', 'src': '/static/foodstim60/eggs.jpg', 'key': 'i', 'origWidth': 409, 'origHeight': 409, 'width': 409, 'height': 409, 'widthPercent': 0.45, 'rescaleHeight': False, 'trialN': 0, 'loaded': True, 'loadedTime': 4185.100000008941, 'positionName': 'RIGHT', 'positionCoords': [710.32, 179.5], 'bid': 5.3}]",8944.79999999702,1669833394494,fried eggs,eggs,5.36,5.3,-0.0600000000000005,NaN,NaN,NaN,NaN,False,12963.60000000894,4018.800000011921,1669833398513,4019,,HRV,HRV_0216,2022-11-30 18:41:50
1,"[{'imgObject': {}, 'id': 'tacos', 'src': '/static/foodstim60/tacos.jpg', 'key': 'u', 'origWidth': 411, 'origHeight': 411, 'width': 411, 'height': 411, 'widthPercent': 0.45, 'rescaleHeight': False, 'trialN': 1, 'loaded': True, 'loadedTime': 4191.9000000059605, 'positionName': 'LEFT', 'positionCoords': [244.68, 178.5], 'bid': 7.97}, {'imgObject': {}, 'id': 'roastedpotatoes', 'src': '/static/foodstim60/roastedpotatoes.jpg', 'key': 'i', 'origWidth': 409, 'origHeight': 410, 'width': 409, 'height': 410, 'widthPercent': 0.45, 'rescaleHeight': False, 'trialN': 1, 'loaded': True, 'loadedTime': 4150.600000008941, 'positionName': 'RIGHT', 'positionCoords': [710.32, 179], 'bid': 7.95}]",12964.29999999702,1669833398514,tacos,roastedpotatoes,7.97,7.95,-0.019999999999999574,NaN,NaN,NaN,NaN,False,16966.79999999702,4002.5,1669833402516,4002,,HRV,HRV_0216,2022-11-30 18:41:50
2,"[{'imgObject': {}, 'id': 'salad w chicken', 'src': '/static/foodstim60/salad w chicken.jpg', 'key': 'u', 'origWidth': 411, 'origHeight': 411, 'width': 411, 'height': 411, 'widthPercent': 0.45, 'rescaleHeight': False, 'trialN': 2, 'loaded': True, 'loadedTime': 4178, 'positionName': 'LEFT', 'positionCoords': [244.68, 178.5], 'bid': 8.2}, {'imgObject': {}, 'id': 'ice cream sundae 002', 'src': '/static/foodstim60/ice cream sundae 002.jpg', 'key': 'i', 'origWidth': 409, 'origHeight': 409, 'width': 409, 'height': 409, 'widthPercent': 0.45, 'rescaleHeight': False, 'trialN': 2, 'loaded': True, 'loadedTime': 4246.79999999702, 'positionName': 'RIGHT', 'positionCoords': [710.32, 179.5], 'bid': 8.39}]",16967.40000000596,1669833402517,salad w chicken,ice cream sundae 002,8.2,8.39,0.19000000000000128,NaN,NaN,NaN,NaN,False,20968.79999999702,4001.3999999910593,1669833406518,4001,,HRV,HRV_0216,2022-11-30 18:41:50
3,"[{'imgObject': {}, 'id': 'cherries', 'src': '/static/foodstim60/cherries.jpg', 'key': 'u', 'origWidth': 410, 'origHeight': 411, 'width': 410, 'height': 411, 'widthPercent': 0.45, 'rescaleHeight': False, 'trialN': 3, 'loaded': True, 'loadedTime': 4345.79999999702, 'positionName': 'LEFT', 'positionCoords': [245.68, 178.5], 'bid': 9.08}, {'imgObject': {}, 'id': 'turkeysandwich', 'src': '/static/foodstim60/turkeysandwich.jpg', 'key': 'i', 'origWidth': 409, 'origHeight': 409, 'width': 409, 'height': 409, 'widthPercent': 0.45, 'rescaleHeight': False, 'trialN': 3, 'loaded': True, 'loadedTime': 4475.600000008941, 'positionName': 'RIGHT', 'positionCoords': [710.32, 179.5], 'bid': 7.5}]",20969.5,1669833406519,cherries,turkeysandwich,9.08,7.5,-1.58,cherries,u,1722.2999999970198,1726,True,23205.29999999702,2235.7999999970198,1669833408755,2236,1725.9000000059605,HRV,HRV_0216,2022-11-30 18:41:50
4,"[{'imgObject': {}, 'id': 'banana', 'src': '/static/foodstim60/banana.jpg', 'key': 'u', 'origWidth': 410, 'origHeight': 410, 'width': 410, 'height': 410, 'widthPercent': 0.45, 'rescaleHeight': False, 'trialN': 4, 'loaded': True, 'loadedTime': 4633.29999999702, 'positionName': 'LEFT', 'positionCoords': [245.68, 179], 'bid': 7.43}, {'imgObject': {}, 'id': 'burrito', 'src': '/static/foodstim60/burrito.jpg', 'key': 'i', 'origWidth': 410, 'origHeight': 410, 'width': 410, 'height': 410, 'widthPercent': 0.45, 'rescaleHeight': False, 'trialN': 4, 'loaded': True, 'loadedTime': 4634.100000008941, 'positionName': 'RIGHT', 'positionCoords': [710.32, 179], 'bid': 7.1000000000000005}]",23206.90000000596,1669833408756,banana,burrito,7.43,7.1000000000000005,-0.3299999999999992,burrito,i,855.7000000029802,858,True,24565.40000000596,1358.5,1669833410115,1359,857.5999999940395,HRV,HRV_0216,2022-11-30 18:41:50
5,"[{'imgObject': {}, 'id': 'strawberries', 'src': '/static/foodstim60/strawberries.jpg', 'key': 'u', 'origWidth': 410, 'origHeight': 410, 'width': 410, 'height': 410, 'widthPercent': 0.45, 'rescaleHeight': False, 'trialN': 5, 'loaded': True, 'loadedTime': 4866.79999999702, 'positionName': 'LEFT', 'positionCoords': [245.68, 179], 'bid': 9.24}, {'imgObject': {}, 'id': 'orange slices', 'src': '/static/foodstim60/orange slices.jpg', 'key': 'i', 'origWidth': 409, 'origHeight': 410, 'width': 409, 'height': 410, 'widthPercent': 0.45, 'rescaleHeight': False, 'trialN': 5, 'loaded': True, 'loadedTime': 4975, 'positionName': 'RIGHT', 'positionCoords': [710.32, 179], 'bid': 9.64}]",24566.5,1669833410116,strawberries,orange slices,9.24,9.64,0.40000000000000036,orange slices,i,931,933,True,26000.79999999702,1434.2999999970198,1669833411550,1434,933.5,HRV,HRV_0216,2022-11-30 18:41:50
6,"[{'imgObject': {}, 'id': 'cantaloupe', 'src': '/static/foodstim60/cantaloupe.jpg', 'key': 'u', 'origWidth': 409, 'origHeight': 409, 'width': 409, 'height': 409, 'widthPercent': 0.45, 'rescaleHeight': False, 'trialN': 6, 'loaded': True, 'loadedTime': 4987, 'positionName': 'LEFT', 'positionCoords': [246.68, 179.5], 'bid': 8.74}, {'imgObject': {}, 'id': 'froot loops w milk', 'src': '/static/foodstim60/froot loops w milk.jpg', 'key': 'i', 'origWidth': 410, 'origHeight': 410, 'width': 410, 'height': 410, 'widthPercent': 0.45, 'rescaleHeight': False, 'trialN': 6, 'loaded': True, 'loadedTime': 5187.9000000059605, 'positionName': 'RIGHT', 'positionCoords': [710.32, 179], 'bid': 8.1}]",26001.40000000596,1669833411551,cantaloupe,froot loops w milk,8.74,8.1,-0.6400000000000006,froot loops w milk,i,2642,2645,True,29147.79999999702,3146.3999999910593,1669833414697,3146,2645.5999999940395,HRV,HRV_0216,2022-11-30 18:41:50
7,"[{'imgObject': {}, 'id': 'salmon', 'src': '/static/foodstim60/salmon.jpg', 'key': 'u', 'origWidth': 410, 'origHeight': 409, 'width': 410, 'height': 409, 'widthPercent': 0.45, 'rescaleHeight': False, 'trialN': 7, 'loaded': True, 'loadedTime': 5292.4000000059605, 'positionName': 'LEFT', 'positionCoords': [245.68, 179.5], 'bid': 8.25}, {'imgObject': {}, 'id': 'cantaloupe', 'src': '/static/foodstim60/cantaloupe.jpg', 'key': 'i', 'origWidth': 409, 'origHeight': 409, 'width': 409, 'height': 409, 'widthPercent': 0.45, 'rescaleHeight': False, 'trialN': 7, 'loaded': True, 'loadedTime': 4975.79999999702, 'positionName': 'RIGHT', 'positionCoords': [710.32, 179.5], 'bid': 8.74}]",29148.90000000596,1669833414698,salmon,cantaloupe,8.25,8.74,0.4900000000000002,cantaloupe,i,909.8999999910593,916,True,30565.90000000596,1417.0,1669833416115,1417,915.2999999970198,HRV,HRV_0216,2022-11-30 18:41:50
8,"[{'imgObject': {}, 'id': 'mac & cheese', 'src': '/static/foodstim60/mac & cheese.jpg', 'key': 'u', 'origWidth': 410, 'origHeight': 410, 'width': 410, 'height': 410, 'widthPercent': 0.45, 'rescaleHeight': False, 'trialN': 8, 'loaded': True, 'loadedTime': 5306.79999999702, 'positionName': 'LEFT', 'positionCoords': [245.68, 179], 'bid': 7.91}, {'imgObject': {}, 'id': 'grilled chicken strips', 'src': '/static/foodstim60/grilled chicken strips.jpg', 'key': 'i', 'origWidth': 410, 'origHeight': 411, 'width': 410, 'height': 411, 'widthPercent': 0.45, 'rescaleHeight': False, 'trialN': 8, 'loaded': True, 'loadedTime': 5416, 'positionName': 'RIGHT', 'positionCoords': [710.32, 178.5], 'bid': 7.47}]",30566.70000000298,1669833416116,mac & cheese,grilled chicken strips,7.91,7.47,-0.4400000000000004,mac & cheese,u,728.5,731,True,31799.70000000298,1233.0,1669833417349,1233,731.2000000029802,HRV,HRV_0216,2022-11-30 18:41:50
9,"[{'imgObject': {}, 'id': 'banana', 'src': '/static/foodstim60/banana.jpg', 'key': 'u', 'origWidth': 410, 'origHeight': 410, 'width': 410, 'height': 410, 'widthPercent': 0.45, 'rescaleHeight': False, 'trialN': 9, 'loaded': True, 'loadedTime': 4624.79999999702, 'positionName': 'LEFT', 'positionCoords': [245.68, 179], 'bid': 7.43}, {'imgObject': {}, 'id': 'eggsalad', 'src': '/static/foodstim60/eggsalad.jpg', 'key': 'i', 'origWidth': 410, 'origHeight': 409, 'width': 410, 'height': 409, 'widthPercent': 0.45, 'rescaleHeight': False, 'trialN': 9, 'loaded': True, 'loadedTime': 5552.20000000298, 'positionName': 'RIGHT', 'positionCoords': [710.32, 179.5], 'bid': 3.5700000000000003}]",31800.5,1669833417350,banana,eggsalad,7.43,3.5700000000000003,-3.8599999999999994,banana,u,1880.6000000089407,1886,True,34187.10000000894,2386.6000000089407,1669833419736,2386,1885.9000000059605,HRV,HRV_0216,2022-11-30 18:41:50
10,"[{'imgObject': {}, 'id': 'cherries', 'src': '/static/foodstim60/cherries.jpg', 'key': 'u', 'origWidth': 410, 'origHeight': 411, 'width': 410, 'height': 411, 'widthPercent': 0.45, 'rescaleHeight': False, 'trialN': 10, 'loaded': True, 'loadedTime': 4348.100000008941, 'positionName': 'LEFT', 'positionCoords': [245.68, 178.5], 'bid': 9.08}, {'imgObject': {}, 'id': 'Grapes', 'src': '/static/foodstim60/Grapes.jpg', 'key': 'i', 'origWidth': 411, 'origHeight': 411, 'width': 411, 'height': 411, 'widthPercent': 0.45, 'rescaleHeight': False, 'trialN': 10, 'loaded': True, 'loadedTime': 5566.79999999702, 'positionName': 'RIGHT', 'positionCoords': [710.32, 178.5], 'bid': 9.01}]",34187.79999999702,1669833419737,cherries,Grapes,9.08,9.01,-0.07000000000000028,Grapes,i,2301.300000011921,2304,True,36992.90000000596,2805.1000000089407,1669833422542,2805,2303.5,HRV,HRV_0216,2022-11-30 18:41:50
11,"[{'imgObject': {}, 'id': 'raisin bran w milk', 'src': '/static/foodstim60/raisin bran w milk.jpg', 'key': 'u', 'origWidth': 411, 'origHeight': 411, 'width': 411, 'height': 411, 'widthPercent': 0.45, 'rescaleHeight': False, 'trialN': 11, 'loaded': True, 'loadedTime': 5723.5, 'positionName': 'LEFT', 'positionCoords': [244.68, 178.5], 'bid': 8.27}, {'imgObject': {}, 'id': 'salmon', 'src': '/static/foodstim60/salmon.jpg', 'key': 'i', 'origWidth': 410, 'origHeight': 409, 'width': 410, 'height': 409, 'widthPercent': 0.45, 'rescaleHeight': False, 'trialN': 11, 'loaded': True, 'loadedTime': 5190.600000008941, 'positionName': 'RIGHT', 'positionCoords': [710.32, 179.5], 'bid': 8.25}]",36994.5,1669833422544,raisin bran w milk,salmon,8.27,8.25,-0.019999999999999574,salmon,i,3239.2000000029802,3243,True,40739.0,3744.5,1669833426288,3744,3242.7000000029802,HRV,HRV_0216,2022-11-30 18:41:50
12,"[{'imgObject': {}, 'id': 'cherry tomato', 'src': '/static/foodstim60/cherry tomato.jpg', 'key': 'u', 'origWidth': 410, 'origHeight': 410, 'width': 410, 'height': 410, 'widthPercent': 0.45, 'rescaleHeight': False, 'trialN': 12, 'loaded': True, 'loadedTime': 5940.100000008941, 'positionName': 'LEFT', 'positionCoords': [245.68, 179], 'bid': 6.11}, {'imgObject': {}, 'id': 'baked potato', 'src': '/static/foodstim60/baked potato.jpg', 'key': 'i', 'origWidth': 409, 'origHeight': 410, 'width': 409, 'height': 410, 'widthPercent': 0.45, 'rescaleHeight': False, 'trialN': 12, 'loaded': True, 'loadedTime': 6135, 'positionName': 'RIGHT', 'positionCoords': [710.32, 179], 'bid': 3.31}]",40739.5,1669833426289,cherry tomato,baked potato,6.11,3.31,-2.8000000000000003,cherry tomato,u,1361.6000000089407,1376,True,42617.40000000596,1877.9000000059605,1669833428167,1878,1376.2999999970198,HRV,HRV_0216,2022-11-30 18:41:50
13,"[{'imgObject': {}, 'id': 'hashbrowns', 'src': '/static/foodstim60/hashbrowns.jpg', 'key': 'u', 'origWidth': 411, 'origHeight': 410, 'width': 411, 'height': 410, 'widthPercent': 0.45, 'rescaleHeight': False, 'trialN': 13, 'loaded': True, 'loadedTime': 6152.600000008941, 'positionName': 'LEFT', 'positionCoords': [244.68, 179], 'bid': 4.37}, {'imgObject': {}, 'id': 'lox', 'src': '/static/foodstim60/lox.jpg', 'key': 'i', 'origWidth': 410, 'origHeight': 411, 'width': 410, 'height': 411, 'widthPercent': 0.45, 'rescaleHeight': False, 'trialN': 13, 'loaded': True, 'loadedTime': 6369.79999999702, 'positionName': 'RIGHT', 'positionCoords': [710.32, 178.5], 'bid': 1.06}]",42618.20000000298,1669833428168,hashbrowns,lox,4.37,1.06,-3.31,hashbrowns,u,2286.7000000029802,2289,True,45408.0,2789.7999999970198,1669833430957,2789,2289.0999999940395,HRV,HRV_0216,2022-11-30 18:41:50
14,"[{'imgObject': {}, 'id': 'cherry tomato', 'src': '/static/foodstim60/cherry tomato.jpg', 'key': 'u', 'origWidth': 410, 'origHeight': 410, 'width': 410, 'height': 410, 'widthPercent': 0.45, 'rescaleHeight': False, 'trialN': 14, 'loaded': True, 'loadedTime': 5932.79999999702, 'positionName': 'LEFT', 'positionCoords': [245.68, 179], 'bid': 6.11}, {'imgObject': {}, 'id': 'popsicles', 'src': '/static/foodstim60/popsicles.jpg', 'key': 'i', 'origWidth': 410, 'origHeight': 410, 'width': 410, 'height': 410, 'widthPercent': 0.45, 'rescaleHeight': False, 'trialN': 14, 'loaded': True, 'loadedTime': 6526.5, 'positionName': 'RIGHT', 'positionCoords': [710.32, 179], 'bid': 6.24}]",45409.0,1669833430958,cherry tomato,popsicles,6.11,6.24,0.1299999999999999,popsicles,i,1083,1087,True,46996.90000000596,1587.9000000059605,1669833432546,1588,1087.0,HRV,HRV_0216,2022-11-30 18:41:50
15,"[{'imgObject': {}, 'id': 'sweetpotato', 'src': '/static/foodstim60/sweetpotato.jpg', 'key': 'u', 'origWidth': 410, 'origHeight': 410, 'width': 410, 'height': 410, 'widthPercent': 0.45, 'rescaleHeight': False, 'trialN': 15, 'loaded': True, 'loadedTime': 6529.70000000298, 'positionName': 'LEFT', 'positionCoords': [245.68, 179], 'bid': 2.99}, {'imgObject': {}, 'id': 'bagel plain', 'src': '/static/foodstim60/bagel plain.jpg', 'key': 'i', 'origWidth': 410, 'origHeight': 410, 'width': 410, 'height': 410, 'widthPercent': 0.45, 'rescaleHeight': False, 'trialN': 15, 'loaded': True, 'loadedTime': 6672.5, 'positionName': 'RIGHT', 'positionCoords': [710.32, 179], 'bid': 3.0500000000000003}]",46997.79999999702,1669833432547,sweetpotato,bagel plain,2.99,3.0500000000000003,0.06000000000000005,sweetpotato,u,1089,1093,True,48591.90000000596,1594.1000000089407,1669833434141,1594,1092.4000000059605,HRV,HRV_0216,2022-11-30 18:41:50
16,"[{'imgObject': {}, 'id': 'burger', 'src': '/static/foodstim60/burger.jpg', 'key': 'u', 'origWidth': 409, 'origHeight': 409, 'width': 409, 'height': 409, 'widthPercent': 0.45, 'rescaleHeight': False, 'trialN': 16, 'loaded': True, 'loadedTime': 6683.5, 'positionName': 'LEFT', 'positionCoords': [246.68, 179.5], 'bid': 7.6}, {'imgObject': {}, 'id': 'cocktailshrimp', 'src': '/static/foodstim60/cocktailshrimp.jpg', 'key': 'i', 'origWidth': 410, 'origHeight': 410, 'width': 410, 'height': 410, 'widthPercent': 0.45, 'rescaleHeight': False, 'trialN': 16, 'loaded': True, 'loadedTime': 6793.600000008941, 'positionName': 'RIGHT', 'positionCoords': [710.32, 179], 'bid': 4.44}]",48592.90000000596,1669833434142,burger,cocktailshrimp,7.6,4.44,-3.1599999999999993,burger,u,1815.2000000029802,1818,True,50911.70000000298,2318.7999999970198,1669833436461,2319,1818.0,HRV,HRV_0216,2022-11-30 18:41:50
17,"[{'imgObject': {}, 'id': 'bagel and cc', 'src': '/static/foodstim60/bagel and cc.jpg', 'key': 'u', 'origWidth': 410, 'origHeight': 410, 'width': 410, 'height': 410, 'widthPercent': 0.45, 'rescaleHeight': False, 'trialN': 17, 'loaded': True, 'loadedTime': 6934.70000000298, 'positionName': 'LEFT', 'positionCoords': [245.68, 179], 'bid': 3.38}, {'imgObject': {}, 'id': 'baked potato', 'src': '/static/foodstim60/baked potato.jpg', 'key': 'i', 'origWidth': 409, 'origHeight': 410, 'width': 409, 'height': 410, 'widthPercent': 0.45, 'rescaleHeight': False, 'trialN': 17, 'loaded': True, 'loadedTime': 6132.600000008941, 'positionName': 'RIGHT', 'positionCoords': [710.32, 179], 'bid': 3.31}]",50912.40000000596,1669833436462,bagel and cc,baked potato,3.38,3.31,-0.06999999999999984,baked potato,i,1645.2999999970198,1650,True,53064.20000000298,2151.7999999970198,1669833438614,2152,1650.7000000029802,HRV,HRV_0216,2022-11-30 18:41:50
18,"[{'imgObject': {}, 'id': 'chickenfingers', 'src': '/static/foodstim60/chickenfingers.jpg', 'key': 'u', 'origWidth': 410, 'origHeight': 410, 'width': 410, 'height': 410, 'widthPercent': 0.45, 'rescaleHeight': False, 'trialN': 18, 'loaded': True, 'loadedTime': 6960.9000000059605, 'positionName': 'LEFT', 'positionCoords': [245.68, 179], 'bid': 8.23}, {'imgObject': {}, 'id': 'Grapes', 'src': '/static/foodstim60/Grapes.jpg', 'key': 'i', 'origWidth': 411, 'origHeight': 411, 'width': 411, 'height': 411, 'widthPercent': 0.45, 'rescaleHeight': False, 'trialN': 18, 'loaded': True, 'loadedTime': 5567.79999999702, 'positionName': 'RIGHT', 'positionCoords': [710.32, 178.5], 'bid': 9.01}]",53064.79999999702,1669833438614,chickenfingers,Grapes,8.23,9.01,0.7799999999999994,Grapes,i,1977.6000000089407,1983,True,55549.20000000298,2484.4000000059605,1669833441099,2485,1983.300000011921,HRV,HRV_0216,2022-11-30 18:41:50
19,"[{'imgObject': {}, 'id': 'hotdog w must', 'src': '/static/foodstim60/hotdog w must.jpg', 'key': 'u', 'origWidth': 409, 'origHeight': 409, 'width': 409, 'height': 409, 'widthPercent': 0.45, 'rescaleHeight': False, 'trialN': 19, 'loaded': True, 'loadedTime': 7150.100000008941, 'positionName': 'LEFT', 'positionCoords': [246.68, 179.5], 'bid': 2.18}, {'imgObject': {}, 'id': 'edamame', 'src': '/static/foodstim60/edamame.jpg', 'key': 'i', 'origWidth': 409, 'origHeight': 410, 'width': 409, 'height': 410, 'widthPercent': 0.45, 'rescaleHeight': False, 'trialN': 19, 'loaded': True, 'loadedTime': 7151, 'positionName': 'RIGHT', 'positionCoords': [710.32, 179], 'bid': 2.05}]",55549.79999999702,1669833441099,hotdog w must,edamame,2.18,2.05,-0.13000000000000034,edamame,i,1916.7000000029802,1921,True,57971.20000000298,2421.4000000059605,1669833443521,2422,1920.9000000059605,HRV,HRV_0216,2022-11-30 18:41:50
20,"[{'imgObject': {}, 'id': 'fruitsalad', 'src': '/static/foodstim60/fruitsalad.jpg', 'key': 'u', 'origWidth': 410, 'origHeight': 410, 'width': 410, 'height': 410, 'widthPercent': 0.45, 'rescaleHeight': False, 'trialN': 20, 'loaded': True, 'loadedTime': 7306.5, 'positionName': 'LEFT', 'positionCoords': [245.68, 179], 'bid': 8.89}, {'imgObject': {}, 'id': 'cherries', 'src': '/static/foodstim60/cherries.jpg', 'key': 'i', 'origWidth': 410, 'origHeight': 411, 'width': 410, 'height': 411, 'widthPercent': 0.45, 'rescaleHeight': False, 'trialN': 20, 'loaded': True, 'loadedTime': 4350.100000008941, 'positionName': 'RIGHT', 'positionCoords': [710.32, 178.5], 'bid': 9.08}]",57971.60000000894,1669833443521,fruitsalad,cherries,8.89,9.08,0.1899999999999995,fruitsalad,u,1168.3999999910593,1171,True,59643.29999999702,1671.699999988079,1669833445193,1672,1171.199999988079,HRV,HRV_0216,2022-11-30 18:41:50
21,"[{'imgObject': {}, 'id': 'fruitsalad', 'src': '/static/foodstim60/fruitsalad.jpg', 'key': 'u', 'origWidth': 410, 'origHeight': 410, 'width': 410, 'height': 410, 'widthPercent': 0.45, 'rescaleHeight': False, 'trialN': 21, 'loaded': True, 'loadedTime': 7172.600000008941, 'positionName': 'LEFT', 'positionCoords': [245.68, 179], 'bid': 8.89}, {'imgObject': {}, 'id': 'steak', 'src': '/static/foodstim60/steak.jpg', 'key': 'i', 'origWidth': 410, 'origHeight': 410, 'width': 410, 'height': 410, 'widthPercent': 0.45, 'rescaleHeight': False, 'trialN': 21, 'loaded': True, 'loadedTime': 7450, 'positionName': 'RIGHT', 'positionCoords': [710.32, 179], 'bid': 8.77}]",59643.70000000298,1669833445193,fruitsalad,steak,8.89,8.77,-0.120000000000001,NaN,NaN,NaN,NaN,False,63646.60000000894,4002.9000000059605,1669833449196,4003,,HRV,HRV_0216,2022-11-30 18:41:50
22,"[{'imgObject': {}, 'id': 'raisin bran w milk', 'src': '/static/foodstim60/raisin bran w milk.jpg', 'key': 'u', 'origWidth': 411, 'origHeight': 411, 'width': 411, 'height': 411, 'widthPercent': 0.45, 'rescaleHeight': False, 'trialN': 22, 'loaded': True, 'loadedTime': 5724.600000008941, 'positionName': 'LEFT', 'positionCoords': [244.68, 178.5], 'bid': 8.27}, {'imgObject': {}, 'id': 'blueberries', 'src': '/static/foodstim60/blueberries.jpg', 'key': 'i', 'origWidth': 411, 'origHeight': 411, 'width': 411, 'height': 411, 'widthPercent': 0.45, 'rescaleHeight': False, 'trialN': 22, 'loaded': True, 'loadedTime': 7462.600000008941, 'positionName': 'RIGHT', 'positionCoords': [710.32, 178.5], 'bid': 8.11}]",63647.40000000596,1669833449197,raisin bran w milk,blueberries,8.27,8.11,-0.16000000000000014,blueberries,i,2693.7000000029802,2696,True,66845.40000000596,3198.0,1669833452395,3198,2696.7999999970198,HRV,HRV_0216,2022-11-30 18:41:50
23,"[{'imgObject': {}, 'id': 'blueberries', 'src': '/static/foodstim60/blueberries.jpg', 'key': 'u', 'origWidth': 411, 'origHeight': 411, 'width': 411, 'height': 411, 'widthPercent': 0.45, 'rescaleHeight': False, 'trialN': 23, 'loaded': True, 'loadedTime': 7638.600000008941, 'positionName': 'LEFT', 'positionCoords': [244.68, 178.5], 'bid': 8.11}, {'imgObject': {}, 'id': 'salad w chicken', 'src': '/static/foodstim60/salad w chicken.jpg', 'key': 'i', 'origWidth': 411, 'origHeight': 411, 'width': 411, 'height': 411, 'widthPercent': 0.45, 'rescaleHeight': False, 'trialN': 23, 'loaded': True, 'loadedTime': 4171.9000000059605, 'positionName': 'RIGHT', 'positionCoords': [710.32, 178.5], 'bid': 8.2}]",66846.60000000894,1669833452396,blueberries,salad w chicken,8.11,8.2,0.08999999999999986,salad w chicken,i,1643.3999999910593,1652,True,68999.60000000894,2153.0,1669833454549,2153,1651.8999999910593,HRV,HRV_0216,2022-11-30 18:41:50
24,"[{'imgObject': {}, 'id': 'raspberries', 'src': '/static/foodstim60/raspberries.jpg', 'key': 'u', 'origWidth': 411, 'origHeight': 411, 'width': 411, 'height': 411, 'widthPercent': 0.45, 'rescaleHeight': False, 'trialN': 24, 'loaded': True, 'loadedTime': 7646.9000000059605, 'positionName': 'LEFT', 'positionCoords': [244.68, 178.5], 'bid': 8.73}, {'imgObject': {}, 'id': 'cheerios', 'src': '/static/foodstim60/cheerios.jpg', 'key': 'i', 'origWidth': 409, 'origHeight': 410, 'width': 409, 'height': 410, 'widthPercent': 0.45, 'rescaleHeight': False, 'trialN': 24, 'loaded': True, 'loadedTime': 7652.29999999702, 'positionName': 'RIGHT', 'positionCoords': [710.32, 179], 'bid': 8.03}]",69000.5,1669833454550,raspberries,cheerios,8.73,8.03,-0.7000000000000011,raspberries,u,1395.7000000029802,1402,True,70903.20000000298,1902.7000000029802,1669833456453,1903,1402.0,HRV,HRV_0216,2022-11-30 18:41:50
25,"[{'imgObject': {}, 'id': 'olives', 'src': '/static/foodstim60/olives.jpg', 'key': 'u', 'origWidth': 410, 'origHeight': 410, 'width': 410, 'height': 410, 'widthPercent': 0.45, 'rescaleHeight': False, 'trialN': 25, 'loaded': True, 'loadedTime': 7758.9000000059605, 'positionName': 'LEFT', 'positionCoords': [245.68, 179], 'bid': 8.19}, {'imgObject': {}, 'id': 'bagel and cc', 'src': '/static/foodstim60/bagel and cc.jpg', 'key': 'i', 'origWidth': 410, 'origHeight': 410, 'width': 410, 'height': 410, 'widthPercent': 0.45, 'rescaleHeight': False, 'trialN': 25, 'loaded': True, 'loadedTime': 6938, 'positionName': 'RIGHT', 'positionCoords': [710.32, 179], 'bid': 3.38}]",70904.29999999702,1669833456454,olives,bagel and cc,8.19,3.38,-4.81,olives,u,1673.800000011921,1677,True,73082.90000000596,2178.6000000089407,1669833458632,2178,1677.5,HRV,HRV_0216,2022-11-30 18:41:50
26,"[{'imgObject': {}, 'id': 'cherries', 'src': '/static/foodstim60/cherries.jpg', 'key': 'u', 'origWidth': 410, 'origHeight': 411, 'width': 410, 'height': 411, 'widthPercent': 0.45, 'rescaleHeight': False, 'trialN': 26, 'loaded': True, 'loadedTime': 4334.4000000059605, 'positionName': 'LEFT', 'positionCoords': [245.68, 178.5], 'bid': 9.08}, {'imgObject': {}, 'id': 'salmon', 'src': '/static/foodstim60/salmon.jpg', 'key': 'i', 'origWidth': 410, 'origHeight': 409, 'width': 410, 'height': 409, 'widthPercent': 0.45, 'rescaleHeight': False, 'trialN': 26, 'loaded': True, 'loadedTime': 5201.600000008941, 'positionName': 'RIGHT', 'positionCoords': [710.32, 179.5], 'bid': 8.25}]",73083.29999999702,1669833458633,cherries,salmon,9.08,8.25,-0.8300000000000001,salmon,i,1079.9000000059605,1083,True,74668.70000000298,1585.4000000059605,1669833460218,1585,1083.4000000059605,HRV,HRV_0216,2022-11-30 18:41:50
27,"[{'imgObject': {}, 'id': 'turkey sandwich', 'src': '/static/foodstim60/turkey sandwich.jpg', 'key': 'u', 'origWidth': 409, 'origHeight': 409, 'width': 409, 'height': 409, 'widthPercent': 0.45, 'rescaleHeight': False, 'trialN': 27, 'loaded': True, 'loadedTime': 7796.600000008941, 'positionName': 'LEFT', 'positionCoords': [246.68, 179.5], 'bid': 7.43}, {'imgObject': {}, 'id': 'roastedpotatoes', 'src': '/static/foodstim60/roastedpotatoes.jpg', 'key': 'i', 'origWidth': 409, 'origHeight': 410, 'width': 409, 'height': 410, 'widthPercent': 0.45, 'rescaleHeight': False, 'trialN': 27, 'loaded': True, 'loadedTime': 4142.4000000059605, 'positionName': 'RIGHT', 'positionCoords': [710.32, 179], 'bid': 7.95}]",74669.10000000894,1669833460218,turkey sandwich,roastedpotatoes,7.43,7.95,0.5200000000000005,NaN,NaN,NaN,NaN,False,78670.60000000894,4001.5,1669833464220,4002,,HRV,HRV_0216,2022-11-30 18:41:50
28,"[{'imgObject': {}, 'id': 'grilled chicken strips', 'src': '/static/foodstim60/grilled chicken strips.jpg', 'key': 'u', 'origWidth': 410, 'origHeight': 411, 'width': 410, 'height': 411, 'widthPercent': 0.45, 'rescaleHeight': False, 'trialN': 28, 'loaded': True, 'loadedTime': 5416.70000000298, 'positionName': 'LEFT', 'positionCoords': [245.68, 178.5], 'bid': 7.47}, {'imgObject': {}, 'id': 'cheerios', 'src': '/static/foodstim60/cheerios.jpg', 'key': 'i', 'origWidth': 409, 'origHeight': 410, 'width': 409, 'height': 410, 'widthPercent': 0.45, 'rescaleHeight': False, 'trialN': 28, 'loaded': True, 'loadedTime': 7661.9000000059605, 'positionName': 'RIGHT', 'positionCoords': [710.32, 179], 'bid': 8.03}]",78671.0,1669833464220,grilled chicken strips,cheerios,7.47,8.03,0.5599999999999996,cheerios,i,1778.5,1784,True,80956.20000000298,2285.2000000029802,1669833466505,2285,1783.7999999970198,HRV,HRV_0216,2022-11-30 18:41:50
29,"[{'imgObject': {}, 'id': 'grilled chicken strips', 'src': '/static/foodstim60/grilled chicken strips.jpg', 'key': 'u', 'origWidth': 410, 'origHeight': 411, 'width': 410, 'height': 411, 'widthPercent': 0.45, 'rescaleHeight': False, 'trialN': 29, 'loaded': True, 'loadedTime': 5416.4000000059605, 'positionName': 'LEFT', 'positionCoords': [245.68, 178.5], 'bid': 7.47}, {'imgObject': {}, 'id': 'turkeysandwich', 'src': '/static/foodstim60/turkeysandwich.jpg', 'key': 'i', 'origWidth': 409, 'origHeight': 409, 'width': 409, 'height': 409, 'widthPercent': 0.45, 'rescaleHeight': False, 'trialN': 29, 'loaded': True, 'loadedTime': 4472.5, 'positionName': 'RIGHT', 'positionCoords': [710.32, 179.5], 'bid': 7.5}]",80956.79999999702,1669833466506,grilled chicken strips,turkeysandwich,7.47,7.5,0.03000000000000025,grilled chicken strips,u,599.5,602,True,82059.90000000596,1103.1000000089407,1669833467609,1103,602.2000000029802,HRV,HRV_0216,2022-11-30 18:41:50
30,"[{'imgObject': {}, 'id': 'cantaloupe', 'src': '/static/foodstim60/cantaloupe.jpg', 'key': 'u', 'origWidth': 409, 'origHeight': 409, 'width': 409, 'height': 409, 'widthPercent': 0.45, 'rescaleHeight': False, 'trialN': 30, 'loaded': True, 'loadedTime': 4988.20000000298, 'positionName': 'LEFT', 'positionCoords': [246.68, 179.5], 'bid': 8.74}, {'imgObject': {}, 'id': 'Tribe humus pita', 'src': '/static/foodstim60/Tribe humus pita.jpg', 'key': 'i', 'origWidth': 411, 'origHeight': 411, 'width': 411, 'height': 411, 'widthPercent': 0.45, 'rescaleHeight': False, 'trialN': 30, 'loaded': True, 'loadedTime': 7808.79999999702, 'positionName': 'RIGHT', 'positionCoords': [710.32, 178.5], 'bid': 6.5}]",82060.79999999702,1669833467610,cantaloupe,Tribe humus pita,8.74,6.5,-2.24,Tribe humus pita,i,267.6000000089407,273,True,82835.10000000894,774.3000000119209,1669833468384,774,272.80000001192093,HRV,HRV_0216,2022-11-30 18:41:50
31,"[{'imgObject': {}, 'id': 'blueberries', 'src': '/static/foodstim60/blueberries.jpg', 'key': 'u', 'origWidth': 411, 'origHeight': 411, 'width': 411, 'height': 411, 'widthPercent': 0.45, 'rescaleHeight': False, 'trialN': 31, 'loaded': True, 'loadedTime': 7508.20000000298, 'positionName': 'LEFT', 'positionCoords': [244.68, 178.5], 'bid': 8.11}, {'imgObject': {}, 'id': 'granola w milk', 'src': '/static/foodstim60/granola w milk.jpg', 'key': 'i', 'origWidth': 410, 'origHeight': 410, 'width': 410, 'height': 410, 'widthPercent': 0.45, 'rescaleHeight': False, 'trialN': 31, 'loaded': True, 'loadedTime': 7813.600000008941, 'positionName': 'RIGHT', 'positionCoords': [710.32, 179], 'bid': 7.51}]",82835.70000000298,1669833468385,blueberries,granola w milk,8.11,7.51,-0.5999999999999996,granola w milk,i,500,505,True,83841.5,1005.7999999970198,1669833469391,1006,504.79999999701977,HRV,HRV_0216,2022-11-30 18:41:50
32,"[{'imgObject': {}, 'id': 'mac & cheese', 'src': '/static/foodstim60/mac & cheese.jpg', 'key': 'u', 'origWidth': 410, 'origHeight': 410, 'width': 410, 'height': 410, 'widthPercent': 0.45, 'rescaleHeight': False, 'trialN': 32, 'loaded': True, 'loadedTime': 5294.100000008941, 'positionName': 'LEFT', 'positionCoords': [245.68, 179], 'bid': 7.91}, {'imgObject': {}, 'id': 'seaweed', 'src': '/static/foodstim60/seaweed.jpg', 'key': 'i', 'origWidth': 410, 'origHeight': 410, 'width': 410, 'height': 410, 'widthPercent': 0.45, 'rescaleHeight': False, 'trialN': 32, 'loaded': True, 'loadedTime': 7842.4000000059605, 'positionName': 'RIGHT', 'positionCoords': [710.32, 179], 'bid': 0.5700000000000001}]",83842.5,1669833469392,mac & cheese,seaweed,7.91,0.5700000000000001,-7.34,mac & cheese,u,866.2000000029802,869,True,85213.5,1371.0,1669833470763,1371,869.2999999970198,HRV,HRV_0216,2022-11-30 18:41:50
33,"[{'imgObject': {}, 'id': 'omelette', 'src': '/static/foodstim60/omelette.jpg', 'key': 'u', 'origWidth': 410, 'origHeight': 409, 'width': 410, 'height': 409, 'widthPercent': 0.45, 'rescaleHeight': False, 'trialN': 33, 'loaded': True, 'loadedTime': 8183.600000008941, 'positionName': 'LEFT', 'positionCoords': [245.68, 179.5], 'bid': 4.41}, {'imgObject': {}, 'id': 'eggs', 'src': '/static/foodstim60/eggs.jpg', 'key': 'i', 'origWidth': 409, 'origHeight': 409, 'width': 409, 'height': 409, 'widthPercent': 0.45, 'rescaleHeight': False, 'trialN': 33, 'loaded': True, 'loadedTime': 4189.100000008941, 'positionName': 'RIGHT', 'positionCoords': [710.32, 179.5], 'bid': 5.3}]",85214.40000000596,1669833470764,omelette,eggs,4.41,5.3,0.8899999999999997,omelette,u,2114.5999999940395,2119,True,87834.60000000894,2620.2000000029802,1669833473384,2620,2119.2999999970198,HRV,HRV_0216,2022-11-30 18:41:50
34,"[{'imgObject': {}, 'id': 'seaweed', 'src': '/static/foodstim60/seaweed.jpg', 'key': 'u', 'origWidth': 410, 'origHeight': 410, 'width': 410, 'height': 410, 'widthPercent': 0.45, 'rescaleHeight': False, 'trialN': 34, 'loaded': True, 'loadedTime': 7844.600000008941, 'positionName': 'LEFT', 'positionCoords': [245.68, 179], 'bid': 0.5700000000000001}, {'imgObject': {}, 'id': 'fried eggs', 'src': '/static/foodstim60/fried eggs.jpg', 'key': 'i', 'origWidth': 410, 'origHeight': 410, 'width': 410, 'height': 410, 'widthPercent': 0.45, 'rescaleHeight': False, 'trialN': 34, 'loaded': True, 'loadedTime': 4030.7000000029802, 'positionName': 'RIGHT', 'positionCoords': [710.32, 179], 'bid': 5.36}]",87835.40000000596,1669833473385,seaweed,fried eggs,0.5700000000000001,5.36,4.79,fried eggs,i,792.8999999910593,796,True,89131.90000000596,1296.5,1669833474681,1296,796.2000000029802,HRV,HRV_0216,2022-11-30 18:41:50
35,"[{'imgObject': {}, 'id': 'fried eggs', 'src': '/static/foodstim60/fried eggs.jpg', 'key': 'u', 'origWidth': 410, 'origHeight': 410, 'width': 410, 'height': 410, 'widthPercent': 0.45, 'rescaleHeight': False, 'trialN': 35, 'loaded': True, 'loadedTime': 4035.7999999970198, 'positionName': 'LEFT', 'positionCoords': [245.68, 179], 'bid': 5.36}, {'imgObject': {}, 'id': 'cocktailshrimp', 'src': '/static/foodstim60/cocktailshrimp.jpg', 'key': 'i', 'origWidth': 410, 'origHeight': 410, 'width': 410, 'height': 410, 'widthPercent': 0.45, 'rescaleHeight': False, 'trialN': 35, 'loaded': True, 'loadedTime': 6791.600000008941, 'positionName': 'RIGHT', 'positionCoords': [710.32, 179], 'bid': 4.44}]",89132.29999999702,1669833474682,fried eggs,cocktailshrimp,5.36,4.44,-0.9199999999999999,fried eggs,u,3205.300000011921,3209,True,92843.20000000298,3710.9000000059605,1669833478393,3711,3209.7000000029802,HRV,HRV_0216,2022-11-30 18:41:50
36,"[{'imgObject': {}, 'id': 'grilled chicken strips', 'src': '/static/foodstim60/grilled chicken strips.jpg', 'key': 'u', 'origWidth': 410, 'origHeight': 411, 'width': 410, 'height': 411, 'widthPercent': 0.45, 'rescaleHeight': False, 'trialN': 36, 'loaded': True, 'loadedTime': 5415, 'positionName': 'LEFT', 'positionCoords': [245.68, 178.5], 'bid': 7.47}, {'imgObject': {}, 'id': 'rigatoni', 'src': '/static/foodstim60/rigatoni.jpg', 'key': 'i', 'origWidth': 411, 'origHeight': 411, 'width': 411, 'height': 411, 'widthPercent': 0.45, 'rescaleHeight': False, 'trialN': 36, 'loaded': True, 'loadedTime': 8202.5, 'positionName': 'RIGHT', 'positionCoords': [710.32, 178.5], 'bid': 4.03}]",92843.70000000298,1669833478393,grilled chicken strips,rigatoni,7.47,4.03,-3.4399999999999995,grilled chicken strips,u,760.4000000059605,762,True,94106.5,1262.7999999970198,1669833479656,1263,762.0999999940395,HRV,HRV_0216,2022-11-30 18:41:50
37,"[{'imgObject': {}, 'id': 'froot loops w milk', 'src': '/static/foodstim60/froot loops w milk.jpg', 'key': 'u', 'origWidth': 410, 'origHeight': 410, 'width': 410, 'height': 410, 'widthPercent': 0.45, 'rescaleHeight': False, 'trialN': 37, 'loaded': True, 'loadedTime': 5175.4000000059605, 'positionName': 'LEFT', 'positionCoords': [245.68, 179], 'bid': 8.1}, {'imgObject': {}, 'id': 'cheerios', 'src': '/static/foodstim60/cheerios.jpg', 'key': 'i', 'origWidth': 409, 'origHeight': 410, 'width': 409, 'height': 410, 'widthPercent': 0.45, 'rescaleHeight': False, 'trialN': 37, 'loaded': True, 'loadedTime': 7658.29999999702, 'positionName': 'RIGHT', 'positionCoords': [710.32, 179], 'bid': 8.03}]",94107.79999999702,1669833479657,froot loops w milk,cheerios,8.1,8.03,-0.07000000000000028,froot loops w milk,u,663.2000000029802,669,True,95277.79999999702,1170.0,1669833480827,1170,668.6000000089407,HRV,HRV_0216,2022-11-30 18:41:50
38,"[{'imgObject': {}, 'id': 'mango', 'src': '/static/foodstim60/mango.jpg', 'key': 'u', 'origWidth': 411, 'origHeight': 411, 'width': 411, 'height': 411, 'widthPercent': 0.45, 'rescaleHeight': False, 'trialN': 38, 'loaded': True, 'loadedTime': 8044.29999999702, 'positionName': 'LEFT', 'positionCoords': [244.68, 178.5], 'bid': 9.18}, {'imgObject': {}, 'id': 'cantaloupe', 'src': '/static/foodstim60/cantaloupe.jpg', 'key': 'i', 'origWidth': 409, 'origHeight': 409, 'width': 409, 'height': 409, 'widthPercent': 0.45, 'rescaleHeight': False, 'trialN': 38, 'loaded': True, 'loadedTime': 4986.20000000298, 'positionName': 'RIGHT', 'positionCoords': [710.32, 179.5], 'bid': 8.74}]",95278.70000000298,1669833480828,mango,cantaloupe,9.18,8.74,-0.4399999999999995,mango,u,1860.7999999970198,1863,True,97642.10000000894,2363.4000000059605,1669833483191,2363,1862.9000000059605,HRV,HRV_0216,2022-11-30 18:41:50
39,"[{'imgObject': {}, 'id': 'turkey sandwich', 'src': '/static/foodstim60/turkey sandwich.jpg', 'key': 'u', 'origWidth': 409, 'origHeight': 409, 'width': 409, 'height': 409, 'widthPercent': 0.45, 'rescaleHeight': False, 'trialN': 39, 'loaded': True, 'loadedTime': 7797.79999999702, 'positionName': 'LEFT', 'positionCoords': [246.68, 179.5], 'bid': 7.43}, {'imgObject': {}, 'id': 'steak', 'src': '/static/foodstim60/steak.jpg', 'key': 'i', 'origWidth': 410, 'origHeight': 410, 'width': 410, 'height': 410, 'widthPercent': 0.45, 'rescaleHeight': False, 'trialN': 39, 'loaded': True, 'loadedTime': 7415.70000000298, 'positionName': 'RIGHT', 'positionCoords': [710.32, 179], 'bid': 8.77}]",97642.60000000894,1669833483192,turkey sandwich,steak,7.43,8.77,1.3399999999999999,steak,i,740.2999999970198,746,True,98892.0,1249.3999999910593,1669833484441,1249,746.3999999910593,HRV,HRV_0216,2022-11-30 18:41:50
40,"[{'imgObject': {}, 'id': 'strawberries', 'src': '/static/foodstim60/strawberries.jpg', 'key': 'u', 'origWidth': 410, 'origHeight': 410, 'width': 410, 'height': 410, 'widthPercent': 0.45, 'rescaleHeight': False, 'trialN': 40, 'loaded': True, 'loadedTime': 4868.20000000298, 'positionName': 'LEFT', 'positionCoords': [245.68, 179], 'bid': 9.24}, {'imgObject': {}, 'id': 'luckycharms', 'src': '/static/foodstim60/luckycharms.jpg', 'key': 'i', 'origWidth': 410, 'origHeight': 409, 'width': 410, 'height': 409, 'widthPercent': 0.45, 'rescaleHeight': False, 'trialN': 40, 'loaded': True, 'loadedTime': 8052.9000000059605, 'positionName': 'RIGHT', 'positionCoords': [710.32, 179.5], 'bid': 8.42}]",98892.90000000596,1669833484442,strawberries,luckycharms,9.24,8.42,-0.8200000000000003,strawberries,u,1295.7999999970198,1301,True,100694.79999999702,1801.8999999910593,1669833486244,1802,1300.2999999970198,HRV,HRV_0216,2022-11-30 18:41:50
41,"[{'imgObject': {}, 'id': 'bagel plain', 'src': '/static/foodstim60/bagel plain.jpg', 'key': 'u', 'origWidth': 410, 'origHeight': 410, 'width': 410, 'height': 410, 'widthPercent': 0.45, 'rescaleHeight': False, 'trialN': 41, 'loaded': True, 'loadedTime': 6659.9000000059605, 'positionName': 'LEFT', 'positionCoords': [245.68, 179], 'bid': 3.0500000000000003}, {'imgObject': {}, 'id': 'Tribe humus pita', 'src': '/static/foodstim60/Tribe humus pita.jpg', 'key': 'i', 'origWidth': 411, 'origHeight': 411, 'width': 411, 'height': 411, 'widthPercent': 0.45, 'rescaleHeight': False, 'trialN': 41, 'loaded': True, 'loadedTime': 7813, 'positionName': 'RIGHT', 'positionCoords': [710.32, 178.5], 'bid': 6.5}]",100695.70000000298,1669833486245,bagel plain,Tribe humus pita,3.0500000000000003,6.5,3.4499999999999997,Tribe humus pita,i,952.7999999970198,955,True,102150.79999999702,1455.0999999940395,1669833487700,1455,954.5999999940395,HRV,HRV_0216,2022-11-30 18:41:50
42,"[{'imgObject': {}, 'id': 'bagel and cc', 'src': '/static/foodstim60/bagel and cc.jpg', 'key': 'u', 'origWidth': 410, 'origHeight': 410, 'width': 410, 'height': 410, 'widthPercent': 0.45, 'rescaleHeight': False, 'trialN': 42, 'loaded': True, 'loadedTime': 6957.4000000059605, 'positionName': 'LEFT', 'positionCoords': [245.68, 179], 'bid': 3.38}, {'imgObject': {}, 'id': 'lox', 'src': '/static/foodstim60/lox.jpg', 'key': 'i', 'origWidth': 410, 'origHeight': 411, 'width': 410, 'height': 411, 'widthPercent': 0.45, 'rescaleHeight': False, 'trialN': 42, 'loaded': True, 'loadedTime': 6361, 'positionName': 'RIGHT', 'positionCoords': [710.32, 178.5], 'bid': 1.06}]",102151.20000000298,1669833487701,bagel and cc,lox,3.38,1.06,-2.32,bagel and cc,u,1391.2000000029802,1396,True,104048.60000000894,1897.4000000059605,1669833489598,1897,1396.7000000029802,HRV,HRV_0216,2022-11-30 18:41:50
43,"[{'imgObject': {}, 'id': 'turkeysandwich', 'src': '/static/foodstim60/turkeysandwich.jpg', 'key': 'u', 'origWidth': 409, 'origHeight': 409, 'width': 409, 'height': 409, 'widthPercent': 0.45, 'rescaleHeight': False, 'trialN': 43, 'loaded': True, 'loadedTime': 4474, 'positionName': 'LEFT', 'positionCoords': [246.68, 179.5], 'bid': 7.5}, {'imgObject': {}, 'id': 'sushi w_condiments', 'src': '/static/foodstim60/sushi w_condiments.jpg', 'key': 'i', 'origWidth': 410, 'origHeight': 410, 'width': 410, 'height': 410, 'widthPercent': 0.45, 'rescaleHeight': False, 'trialN': 43, 'loaded': True, 'loadedTime': 8174.9000000059605, 'positionName': 'RIGHT', 'positionCoords': [710.32, 179], 'bid': 7.92}]",104049.60000000894,1669833489599,turkeysandwich,sushi w_condiments,7.5,7.92,0.41999999999999993,turkeysandwich,u,1234.5,1239,True,105789.60000000894,1740.0,1669833491339,1740,1239.3999999910593,HRV,HRV_0216,2022-11-30 18:41:50
44,"[{'imgObject': {}, 'id': 'shreddedwheatwithmilk', 'src': '/static/foodstim60/shreddedwheatwithmilk.jpg', 'key': 'u', 'origWidth': 410, 'origHeight': 410, 'width': 410, 'height': 410, 'widthPercent': 0.45, 'rescaleHeight': False, 'trialN': 44, 'loaded': True, 'loadedTime': 8215.29999999702, 'positionName': 'LEFT', 'positionCoords': [245.68, 179], 'bid': 7.57}, {'imgObject': {}, 'id': 'omelette', 'src': '/static/foodstim60/omelette.jpg', 'key': 'i', 'origWidth': 410, 'origHeight': 409, 'width': 410, 'height': 409, 'widthPercent': 0.45, 'rescaleHeight': False, 'trialN': 44, 'loaded': True, 'loadedTime': 8192.10000000894, 'positionName': 'RIGHT', 'positionCoords': [710.32, 179.5], 'bid': 4.41}]",105790.20000000298,1669833491340,shreddedwheatwithmilk,omelette,7.57,4.41,-3.16,shreddedwheatwithmilk,u,1720.7000000029802,1723,True,108014.90000000596,2224.7000000029802,1669833493564,2224,1723.7999999970198,HRV,HRV_0216,2022-11-30 18:41:50
45,"[{'imgObject': {}, 'id': 'omelette', 'src': '/static/foodstim60/omelette.jpg', 'key': 'u', 'origWidth': 410, 'origHeight': 409, 'width': 410, 'height': 409, 'widthPercent': 0.45, 'rescaleHeight': False, 'trialN': 45, 'loaded': True, 'loadedTime': 8199.5, 'positionName': 'LEFT', 'positionCoords': [245.68, 179.5], 'bid': 4.41}, {'imgObject': {}, 'id': 'edamame', 'src': '/static/foodstim60/edamame.jpg', 'key': 'i', 'origWidth': 409, 'origHeight': 410, 'width': 409, 'height': 410, 'widthPercent': 0.45, 'rescaleHeight': False, 'trialN': 45, 'loaded': True, 'loadedTime': 7162.5, 'positionName': 'RIGHT', 'positionCoords': [710.32, 179], 'bid': 2.05}]",108015.70000000298,1669833493565,omelette,edamame,4.41,2.05,-2.3600000000000003,edamame,i,1942.2999999970198,1945,True,110461.5,2445.7999999970198,1669833496011,2446,1945.0999999940395,HRV,HRV_0216,2022-11-30 18:41:50
46,"[{'imgObject': {}, 'id': 'bagel plain', 'src': '/static/foodstim60/bagel plain.jpg', 'key': 'u', 'origWidth': 410, 'origHeight': 410, 'width': 410, 'height': 410, 'widthPercent': 0.45, 'rescaleHeight': False, 'trialN': 46, 'loaded': True, 'loadedTime': 6643.5, 'positionName': 'LEFT', 'positionCoords': [245.68, 179], 'bid': 3.0500000000000003}, {'imgObject': {}, 'id': 'froot loops w milk', 'src': '/static/foodstim60/froot loops w milk.jpg', 'key': 'i', 'origWidth': 410, 'origHeight': 410, 'width': 410, 'height': 410, 'widthPercent': 0.45, 'rescaleHeight': False, 'trialN': 46, 'loaded': True, 'loadedTime': 5189.600000008941, 'positionName': 'RIGHT', 'positionCoords': [710.32, 179], 'bid': 8.1}]",110462.20000000298,1669833496012,bagel plain,froot loops w milk,3.0500000000000003,8.1,5.049999999999999,froot loops w milk,i,756.9000000059605,758,True,111722.0,1259.7999999970198,1669833497271,1259,758.9000000059605,HRV,HRV_0216,2022-11-30 18:41:50
47,"[{'imgObject': {}, 'id': 'mango', 'src': '/static/foodstim60/mango.jpg', 'key': 'u', 'origWidth': 411, 'origHeight': 411, 'width': 411, 'height': 411, 'widthPercent': 0.45, 'rescaleHeight': False, 'trialN': 47, 'loaded': True, 'loadedTime': 8037.9000000059605, 'positionName': 'LEFT', 'positionCoords': [244.68, 178.5], 'bid': 9.18}, {'imgObject': {}, 'id': 'strawberries', 'src': '/static/foodstim60/strawberries.jpg', 'key': 'i', 'origWidth': 410, 'origHeight': 410, 'width': 410, 'height': 410, 'widthPercent': 0.45, 'rescaleHeight': False, 'trialN': 47, 'loaded': True, 'loadedTime': 4788.4000000059605, 'positionName': 'RIGHT', 'positionCoords': [710.32, 179], 'bid': 9.24}]",111722.79999999702,1669833497272,mango,strawberries,9.18,9.24,0.0600000000000005,mango,u,849.1000000089407,853,True,113077.0,1354.2000000029802,1669833498626,1354,852.7000000029802,HRV,HRV_0216,2022-11-30 18:41:50
48,"[{'imgObject': {}, 'id': 'Tribe humus pita', 'src': '/static/foodstim60/Tribe humus pita.jpg', 'key': 'u', 'origWidth': 411, 'origHeight': 411, 'width': 411, 'height': 411, 'widthPercent': 0.45, 'rescaleHeight': False, 'trialN': 48, 'loaded': True, 'loadedTime': 7812.100000008941, 'positionName': 'LEFT', 'positionCoords': [244.68, 178.5], 'bid': 6.5}, {'imgObject': {}, 'id': 'mac & cheese', 'src': '/static/foodstim60/mac & cheese.jpg', 'key': 'i', 'origWidth': 410, 'origHeight': 410, 'width': 410, 'height': 410, 'widthPercent': 0.45, 'rescaleHeight': False, 'trialN': 48, 'loaded': True, 'loadedTime': 5297.5, 'positionName': 'RIGHT', 'positionCoords': [710.32, 179], 'bid': 7.91}]",113078.20000000298,1669833498628,Tribe humus pita,mac & cheese,6.5,7.91,1.4100000000000001,mac & cheese,i,729.9000000059605,734,True,114313.70000000298,1235.5,1669833499863,1235,734.5,HRV,HRV_0216,2022-11-30 18:41:50
49,"[{'imgObject': {}, 'id': 'shreddedwheatwithmilk', 'src': '/static/foodstim60/shreddedwheatwithmilk.jpg', 'key': 'u', 'origWidth': 410, 'origHeight': 410, 'width': 410, 'height': 410, 'widthPercent': 0.45, 'rescaleHeight': False, 'trialN': 49, 'loaded': True, 'loadedTime': 8205.70000000298, 'positionName': 'LEFT', 'positionCoords': [245.68, 179], 'bid': 7.57}, {'imgObject': {}, 'id': 'granola w milk', 'src': '/static/foodstim60/granola w milk.jpg', 'key': 'i', 'origWidth': 410, 'origHeight': 410, 'width': 410, 'height': 410, 'widthPercent': 0.45, 'rescaleHeight': False, 'trialN': 49, 'loaded': True, 'loadedTime': 7825.70000000298, 'positionName': 'RIGHT', 'positionCoords': [710.32, 179], 'bid': 7.51}]",114314.29999999702,1669833499864,shreddedwheatwithmilk,granola w milk,7.57,7.51,-0.0600000000000005,granola w milk,i,981.4000000059605,985,True,115799.90000000596,1485.6000000089407,1669833501349,1485,985.2000000029802,HRV,HRV_0216,2022-11-30 18:41:50
50,"[{'imgObject': {}, 'id': 'raisin bran w milk', 'src': '/static/foodstim60/raisin bran w milk.jpg', 'key': 'u', 'origWidth': 411, 'origHeight': 411, 'width': 411, 'height': 411, 'widthPercent': 0.45, 'rescaleHeight': False, 'trialN': 50, 'loaded': True, 'loadedTime': 5723.9000000059605, 'positionName': 'LEFT', 'positionCoords': [244.68, 178.5], 'bid': 8.27}, {'imgObject': {}, 'id': 'mashed potato', 'src': '/static/foodstim60/mashed potato.jpg', 'key': 'i', 'origWidth': 409, 'origHeight': 409, 'width': 409, 'height': 409, 'widthPercent': 0.45, 'rescaleHeight': False, 'trialN': 50, 'loaded': True, 'loadedTime': 8224.70000000298, 'positionName': 'RIGHT', 'positionCoords': [710.32, 179.5], 'bid': 8.36}]",115800.29999999702,1669833501350,raisin bran w milk,mashed potato,8.27,8.36,0.08999999999999986,raisin bran w milk,u,1682.2000000029802,1686,True,117988.0,2187.7000000029802,1669833503537,2187,1686.4000000059605,HRV,HRV_0216,2022-11-30 18:41:50
51,"[{'imgObject': {}, 'id': 'blueberries', 'src': '/static/foodstim60/blueberries.jpg', 'key': 'u', 'origWidth': 411, 'origHeight': 411, 'width': 411, 'height': 411, 'widthPercent': 0.45, 'rescaleHeight': False, 'trialN': 51, 'loaded': True, 'loadedTime': 7610, 'positionName': 'LEFT', 'positionCoords': [244.68, 178.5], 'bid': 8.11}, {'imgObject': {}, 'id': 'apple slices', 'src': '/static/foodstim60/apple slices.jpg', 'key': 'i', 'origWidth': 409, 'origHeight': 410, 'width': 409, 'height': 410, 'widthPercent': 0.45, 'rescaleHeight': False, 'trialN': 51, 'loaded': True, 'loadedTime': 8363.60000000894, 'positionName': 'RIGHT', 'positionCoords': [710.32, 179], 'bid': 8.74}]",117989.0,1669833503538,blueberries,apple slices,8.11,8.74,0.6300000000000008,blueberries,u,823.1000000089407,826,True,119315.40000000596,1326.4000000059605,1669833504865,1327,825.6000000089407,HRV,HRV_0216,2022-11-30 18:41:50
52,"[{'imgObject': {}, 'id': 'banana', 'src': '/static/foodstim60/banana.jpg', 'key': 'u', 'origWidth': 410, 'origHeight': 410, 'width': 410, 'height': 410, 'widthPercent': 0.45, 'rescaleHeight': False, 'trialN': 52, 'loaded': True, 'loadedTime': 4632.20000000298, 'positionName': 'LEFT', 'positionCoords': [245.68, 179], 'bid': 7.43}, {'imgObject': {}, 'id': 'turkey sandwich', 'src': '/static/foodstim60/turkey sandwich.jpg', 'key': 'i', 'origWidth': 409, 'origHeight': 409, 'width': 409, 'height': 409, 'widthPercent': 0.45, 'rescaleHeight': False, 'trialN': 52, 'loaded': True, 'loadedTime': 7797.29999999702, 'positionName': 'RIGHT', 'positionCoords': [710.32, 179.5], 'bid': 7.43}]",119316.10000000894,1669833504865,banana,turkey sandwich,7.43,7.43,0.0,turkey sandwich,i,736.5999999940395,741,True,120557.90000000596,1241.7999999970198,1669833506107,1242,740.5999999940395,HRV,HRV_0216,2022-11-30 18:41:50
53,"[{'imgObject': {}, 'id': 'sushi w_condiments', 'src': '/static/foodstim60/sushi w_condiments.jpg', 'key': 'u', 'origWidth': 410, 'origHeight': 410, 'width': 410, 'height': 410, 'widthPercent': 0.45, 'rescaleHeight': False, 'trialN': 53, 'loaded': True, 'loadedTime': 8182.9000000059605, 'positionName': 'LEFT', 'positionCoords': [245.68, 179], 'bid': 7.92}, {'imgObject': {}, 'id': 'lox', 'src': '/static/foodstim60/lox.jpg', 'key': 'i', 'origWidth': 410, 'origHeight': 411, 'width': 410, 'height': 411, 'widthPercent': 0.45, 'rescaleHeight': False, 'trialN': 53, 'loaded': True, 'loadedTime': 6370.20000000298, 'positionName': 'RIGHT', 'positionCoords': [710.32, 178.5], 'bid': 1.06}]",120558.60000000894,1669833506108,sushi w_condiments,lox,7.92,1.06,-6.859999999999999,sushi w_condiments,u,772.3999999910593,776,True,121834.90000000596,1276.2999999970198,1669833507384,1276,775.7999999970198,HRV,HRV_0216,2022-11-30 18:41:50
54,"[{'imgObject': {}, 'id': 'yogurt no spoon', 'src': '/static/foodstim60/yogurt no spoon.jpg', 'key': 'u', 'origWidth': 411, 'origHeight': 410, 'width': 411, 'height': 410, 'widthPercent': 0.45, 'rescaleHeight': False, 'trialN': 54, 'loaded': True, 'loadedTime': 8364.5, 'positionName': 'LEFT', 'positionCoords': [244.68, 179], 'bid': 8.41}, {'imgObject': {}, 'id': 'chickenfingers', 'src': '/static/foodstim60/chickenfingers.jpg', 'key': 'i', 'origWidth': 410, 'origHeight': 410, 'width': 410, 'height': 410, 'widthPercent': 0.45, 'rescaleHeight': False, 'trialN': 54, 'loaded': True, 'loadedTime': 6994.70000000298, 'positionName': 'RIGHT', 'positionCoords': [710.32, 179], 'bid': 8.23}]",121835.5,1669833507385,yogurt no spoon,chickenfingers,8.41,8.23,-0.17999999999999972,yogurt no spoon,u,769.2999999970198,772,True,123108.20000000298,1272.7000000029802,1669833508658,1273,772.1000000089407,HRV,HRV_0216,2022-11-30 18:41:50
55,"[{'imgObject': {}, 'id': 'luckycharms', 'src': '/static/foodstim60/luckycharms.jpg', 'key': 'u', 'origWidth': 410, 'origHeight': 409, 'width': 410, 'height': 409, 'widthPercent': 0.45, 'rescaleHeight': False, 'trialN': 55, 'loaded': True, 'loadedTime': 8049.20000000298, 'positionName': 'LEFT', 'positionCoords': [245.68, 179.5], 'bid': 8.42}, {'imgObject': {}, 'id': 'yogurt no spoon', 'src': '/static/foodstim60/yogurt no spoon.jpg', 'key': 'i', 'origWidth': 411, 'origHeight': 410, 'width': 411, 'height': 410, 'widthPercent': 0.45, 'rescaleHeight': False, 'trialN': 55, 'loaded': True, 'loadedTime': 8367.10000000894, 'positionName': 'RIGHT', 'positionCoords': [710.32, 179], 'bid': 8.41}]",123109.0,1669833508658,luckycharms,yogurt no spoon,8.42,8.41,-0.009999999999999787,yogurt no spoon,i,975.7999999970198,978,True,124587.0,1478.0,1669833510136,1478,977.5,HRV,HRV_0216,2022-11-30 18:41:50
56,"[{'imgObject': {}, 'id': 'sushi w_condiments', 'src': '/static/foodstim60/sushi w_condiments.jpg', 'key': 'u', 'origWidth': 410, 'origHeight': 410, 'width': 410, 'height': 410, 'widthPercent': 0.45, 'rescaleHeight': False, 'trialN': 56, 'loaded': True, 'loadedTime': 8181.4000000059605, 'positionName': 'LEFT', 'positionCoords': [245.68, 179], 'bid': 7.92}, {'imgObject': {}, 'id': 'avocado', 'src': '/static/foodstim60/avocado.jpg', 'key': 'i', 'origWidth': 409, 'origHeight': 409, 'width': 409, 'height': 409, 'widthPercent': 0.45, 'rescaleHeight': False, 'trialN': 56, 'loaded': True, 'loadedTime': 8382.10000000894, 'positionName': 'RIGHT', 'positionCoords': [710.32, 179.5], 'bid': 7.88}]",124587.40000000596,1669833510137,sushi w_condiments,avocado,7.92,7.88,-0.040000000000000036,sushi w_condiments,u,1406.8999999910593,1410,True,126498.0,1910.5999999940395,1669833512047,1910,1410.0,HRV,HRV_0216,2022-11-30 18:41:50
57,"[{'imgObject': {}, 'id': 'eggs', 'src': '/static/foodstim60/eggs.jpg', 'key': 'u', 'origWidth': 409, 'origHeight': 409, 'width': 409, 'height': 409, 'widthPercent': 0.45, 'rescaleHeight': False, 'trialN': 57, 'loaded': True, 'loadedTime': 4179.9000000059605, 'positionName': 'LEFT', 'positionCoords': [246.68, 179.5], 'bid': 5.3}, {'imgObject': {}, 'id': 'avocado', 'src': '/static/foodstim60/avocado.jpg', 'key': 'i', 'origWidth': 409, 'origHeight': 409, 'width': 409, 'height': 409, 'widthPercent': 0.45, 'rescaleHeight': False, 'trialN': 57, 'loaded': True, 'loadedTime': 8381, 'positionName': 'RIGHT', 'positionCoords': [710.32, 179.5], 'bid': 7.88}]",126498.60000000894,1669833512048,eggs,avocado,5.3,7.88,2.58,avocado,i,847.7999999970198,851,True,127850.10000000894,1351.5,1669833513399,1351,850.8999999910593,HRV,HRV_0216,2022-11-30 18:41:50
58,"[{'imgObject': {}, 'id': 'hotdog w must', 'src': '/static/foodstim60/hotdog w must.jpg', 'key': 'u', 'origWidth': 409, 'origHeight': 409, 'width': 409, 'height': 409, 'widthPercent': 0.45, 'rescaleHeight': False, 'trialN': 58, 'loaded': True, 'loadedTime': 7148, 'positionName': 'LEFT', 'positionCoords': [246.68, 179.5], 'bid': 2.18}, {'imgObject': {}, 'id': 'corn cob', 'src': '/static/foodstim60/corn cob.jpg', 'key': 'i', 'origWidth': 411, 'origHeight': 411, 'width': 411, 'height': 411, 'widthPercent': 0.45, 'rescaleHeight': False, 'trialN': 58, 'loaded': True, 'loadedTime': 8385.5, 'positionName': 'RIGHT', 'positionCoords': [710.32, 178.5], 'bid': 6.25}]",127850.70000000298,1669833513400,hotdog w must,corn cob,2.18,6.25,4.07,corn cob,i,903.5,905,True,129256.10000000894,1405.4000000059605,1669833514805,1405,905.0,HRV,HRV_0216,2022-11-30 18:41:50
59,"[{'imgObject': {}, 'id': 'hashbrowns', 'src': '/static/foodstim60/hashbrowns.jpg', 'key': 'u', 'origWidth': 411, 'origHeight': 410, 'width': 411, 'height': 410, 'widthPercent': 0.45, 'rescaleHeight': False, 'trialN': 59, 'loaded': True, 'loadedTime': 6316, 'positionName': 'LEFT', 'positionCoords': [244.68, 179], 'bid': 4.37}, {'imgObject': {}, 'id': 'rigatoni', 'src': '/static/foodstim60/rigatoni.jpg', 'key': 'i', 'origWidth': 411, 'origHeight': 411, 'width': 411, 'height': 411, 'widthPercent': 0.45, 'rescaleHeight': False, 'trialN': 59, 'loaded': True, 'loadedTime': 8200.10000000894, 'positionName': 'RIGHT', 'positionCoords': [710.32, 178.5], 'bid': 4.03}]",129256.5,1669833514806,hashbrowns,rigatoni,4.37,4.03,-0.33999999999999986,hashbrowns,u,1220.2999999970198,1222,True,130979.29999999702,1722.7999999970198,1669833516529,1723,1222.2999999970198,HRV,HRV_0216,2022-11-30 18:41:50
60,"[{'imgObject': {}, 'id': 'blueberries', 'src': '/static/foodstim60/blueberries.jpg', 'key': 'u', 'origWidth': 411, 'origHeight': 411, 'width': 411, 'height': 411, 'widthPercent': 0.45, 'rescaleHeight': False, 'trialN': 60, 'loaded': True, 'loadedTime': 7507.4000000059605, 'positionName': 'LEFT', 'positionCoords': [244.68, 178.5], 'bid': 8.11}, {'imgObject': {}, 'id': 'olives', 'src': '/static/foodstim60/olives.jpg', 'key': 'i', 'origWidth': 410, 'origHeight': 410, 'width': 410, 'height': 410, 'widthPercent': 0.45, 'rescaleHeight': False, 'trialN': 60, 'loaded': True, 'loadedTime': 7758.600000008941, 'positionName': 'RIGHT', 'positionCoords': [710.32, 179], 'bid': 8.19}]",130979.70000000298,1669833516529,blueberries,olives,8.11,8.19,0.08000000000000007,blueberries,u,699,705,True,132185.40000000596,1205.7000000029802,1669833517735,1206,705.0,HRV,HRV_0216,2022-11-30 18:41:50
61,"[{'imgObject': {}, 'id': 'granola w milk', 'src': '/static/foodstim60/granola w milk.jpg', 'key': 'u', 'origWidth': 410, 'origHeight': 410, 'width': 410, 'height': 410, 'widthPercent': 0.45, 'rescaleHeight': False, 'trialN': 61, 'loaded': True, 'loadedTime': 7831.70000000298, 'positionName': 'LEFT', 'positionCoords': [245.68, 179], 'bid': 7.51}, {'imgObject': {}, 'id': 'mango', 'src': '/static/foodstim60/mango.jpg', 'key': 'i', 'origWidth': 411, 'origHeight': 411, 'width': 411, 'height': 411, 'widthPercent': 0.45, 'rescaleHeight': False, 'trialN': 61, 'loaded': True, 'loadedTime': 8045.79999999702, 'positionName': 'RIGHT', 'positionCoords': [710.32, 178.5], 'bid': 9.18}]",132185.90000000596,1669833517735,granola w milk,mango,7.51,9.18,1.67,mango,i,757.2999999970198,762,True,133448.70000000298,1262.7999999970198,1669833518998,1263,761.7999999970198,HRV,HRV_0216,2022-11-30 18:41:50
62,"[{'imgObject': {}, 'id': 'corn cob', 'src': '/static/foodstim60/corn cob.jpg', 'key': 'u', 'origWidth': 411, 'origHeight': 411, 'width': 411, 'height': 411, 'widthPercent': 0.45, 'rescaleHeight': False, 'trialN': 62, 'loaded': True, 'loadedTime': 8397.29999999702, 'positionName': 'LEFT', 'positionCoords': [244.68, 178.5], 'bid': 6.25}, {'imgObject': {}, 'id': 'veggieswithdip', 'src': '/static/foodstim60/veggieswithdip.jpg', 'key': 'i', 'origWidth': 409, 'origHeight': 409, 'width': 409, 'height': 409, 'widthPercent': 0.45, 'rescaleHeight': False, 'trialN': 62, 'loaded': True, 'loadedTime': 8436.20000000298, 'positionName': 'RIGHT', 'positionCoords': [710.32, 179.5], 'bid': 8.46}]",133449.40000000596,1669833518999,corn cob,veggieswithdip,6.25,8.46,2.210000000000001,veggieswithdip,i,817,821,True,134771.0,1321.5999999940395,1669833520320,1321,820.8999999910593,HRV,HRV_0216,2022-11-30 18:41:50
63,"[{'imgObject': {}, 'id': 'blackbeanswithrice', 'src': '/static/foodstim60/blackbeanswithrice.jpg', 'key': 'u', 'origWidth': 410, 'origHeight': 410, 'width': 410, 'height': 410, 'widthPercent': 0.45, 'rescaleHeight': False, 'trialN': 63, 'loaded': True, 'loadedTime': 8699.29999999702, 'positionName': 'LEFT', 'positionCoords': [245.68, 179], 'bid': 4.16}, {'imgObject': {}, 'id': 'salmon', 'src': '/static/foodstim60/salmon.jpg', 'key': 'i', 'origWidth': 410, 'origHeight': 409, 'width': 410, 'height': 409, 'widthPercent': 0.45, 'rescaleHeight': False, 'trialN': 63, 'loaded': True, 'loadedTime': 5293.20000000298, 'positionName': 'RIGHT', 'positionCoords': [710.32, 179.5], 'bid': 8.25}]",134771.70000000298,1669833520321,blackbeanswithrice,salmon,4.16,8.25,4.09,salmon,i,887.9000000059605,890,True,136162.40000000596,1390.7000000029802,1669833521712,1391,889.9000000059605,HRV,HRV_0216,2022-11-30 18:41:50
64,"[{'imgObject': {}, 'id': 'mac & cheese', 'src': '/static/foodstim60/mac & cheese.jpg', 'key': 'u', 'origWidth': 410, 'origHeight': 410, 'width': 410, 'height': 410, 'widthPercent': 0.45, 'rescaleHeight': False, 'trialN': 64, 'loaded': True, 'loadedTime': 5305.600000008941, 'positionName': 'LEFT', 'positionCoords': [245.68, 179], 'bid': 7.91}, {'imgObject': {}, 'id': 'sushi w_condiments', 'src': '/static/foodstim60/sushi w_condiments.jpg', 'key': 'i', 'origWidth': 410, 'origHeight': 410, 'width': 410, 'height': 410, 'widthPercent': 0.45, 'rescaleHeight': False, 'trialN': 64, 'loaded': True, 'loadedTime': 8177.600000008941, 'positionName': 'RIGHT', 'positionCoords': [710.32, 179], 'bid': 7.92}]",136163.20000000298,1669833521712,mac & cheese,sushi w_condiments,7.91,7.92,0.009999999999999787,mac & cheese,u,878.5999999940395,884,True,137548.40000000596,1385.2000000029802,1669833523098,1386,883.4000000059605,HRV,HRV_0216,2022-11-30 18:41:50
65,"[{'imgObject': {}, 'id': 'burrito', 'src': '/static/foodstim60/burrito.jpg', 'key': 'u', 'origWidth': 410, 'origHeight': 410, 'width': 410, 'height': 410, 'widthPercent': 0.45, 'rescaleHeight': False, 'trialN': 65, 'loaded': True, 'loadedTime': 4640.70000000298, 'positionName': 'LEFT', 'positionCoords': [245.68, 179], 'bid': 7.1000000000000005}, {'imgObject': {}, 'id': 'fried eggs', 'src': '/static/foodstim60/fried eggs.jpg', 'key': 'i', 'origWidth': 410, 'origHeight': 410, 'width': 410, 'height': 410, 'widthPercent': 0.45, 'rescaleHeight': False, 'trialN': 65, 'loaded': True, 'loadedTime': 4005.7000000029802, 'positionName': 'RIGHT', 'positionCoords': [710.32, 179], 'bid': 5.36}]",137549.10000000894,1669833523098,burrito,fried eggs,7.1000000000000005,5.36,-1.7400000000000002,burrito,u,1055.5,1070,True,139120.20000000298,1571.0999999940395,1669833524669,1571,1069.7999999970198,HRV,HRV_0216,2022-11-30 18:41:50
66,"[{'imgObject': {}, 'id': 'granola w milk', 'src': '/static/foodstim60/granola w milk.jpg', 'key': 'u', 'origWidth': 410, 'origHeight': 410, 'width': 410, 'height': 410, 'widthPercent': 0.45, 'rescaleHeight': False, 'trialN': 66, 'loaded': True, 'loadedTime': 7823.20000000298, 'positionName': 'LEFT', 'positionCoords': [245.68, 179], 'bid': 7.51}, {'imgObject': {}, 'id': 'grilled chicken strips', 'src': '/static/foodstim60/grilled chicken strips.jpg', 'key': 'i', 'origWidth': 410, 'origHeight': 411, 'width': 410, 'height': 411, 'widthPercent': 0.45, 'rescaleHeight': False, 'trialN': 66, 'loaded': True, 'loadedTime': 5417.9000000059605, 'positionName': 'RIGHT', 'positionCoords': [710.32, 178.5], 'bid': 7.47}]",139120.5,1669833524670,granola w milk,grilled chicken strips,7.51,7.47,-0.040000000000000036,grilled chicken strips,i,1024.9000000059605,1027,True,140649.10000000894,1528.6000000089407,1669833526198,1528,1026.9000000059605,HRV,HRV_0216,2022-11-30 18:41:50
67,"[{'imgObject': {}, 'id': 'orange slices', 'src': '/static/foodstim60/orange slices.jpg', 'key': 'u', 'origWidth': 409, 'origHeight': 410, 'width': 409, 'height': 410, 'widthPercent': 0.45, 'rescaleHeight': False, 'trialN': 67, 'loaded': True, 'loadedTime': 4877.9000000059605, 'positionName': 'LEFT', 'positionCoords': [246.68, 179], 'bid': 9.64}, {'imgObject': {}, 'id': 'raspberries', 'src': '/static/foodstim60/raspberries.jpg', 'key': 'i', 'origWidth': 411, 'origHeight': 411, 'width': 411, 'height': 411, 'widthPercent': 0.45, 'rescaleHeight': False, 'trialN': 67, 'loaded': True, 'loadedTime': 7644.600000008941, 'positionName': 'RIGHT', 'positionCoords': [710.32, 178.5], 'bid': 8.73}]",140650.40000000596,1669833526200,orange slices,raspberries,9.64,8.73,-0.9100000000000001,orange slices,u,890.3999999910593,893,True,142045.40000000596,1395.0,1669833527595,1395,893.2000000029802,HRV,HRV_0216,2022-11-30 18:41:50
68,"[{'imgObject': {}, 'id': 'raisin bran w milk', 'src': '/static/foodstim60/raisin bran w milk.jpg', 'key': 'u', 'origWidth': 411, 'origHeight': 411, 'width': 411, 'height': 411, 'widthPercent': 0.45, 'rescaleHeight': False, 'trialN': 68, 'loaded': True, 'loadedTime': 5725.79999999702, 'positionName': 'LEFT', 'positionCoords': [244.68, 178.5], 'bid': 8.27}, {'imgObject': {}, 'id': 'omelette', 'src': '/static/foodstim60/omelette.jpg', 'key': 'i', 'origWidth': 410, 'origHeight': 409, 'width': 410, 'height': 409, 'widthPercent': 0.45, 'rescaleHeight': False, 'trialN': 68, 'loaded': True, 'loadedTime': 8198.79999999702, 'positionName': 'RIGHT', 'positionCoords': [710.32, 179.5], 'bid': 4.41}]",142045.90000000596,1669833527595,raisin bran w milk,omelette,8.27,4.41,-3.8599999999999994,raisin bran w milk,u,2054.0999999940395,2057,True,144603.70000000298,2557.7999999970198,1669833530153,2558,2056.5,HRV,HRV_0216,2022-11-30 18:41:50
69,"[{'imgObject': {}, 'id': 'lox', 'src': '/static/foodstim60/lox.jpg', 'key': 'u', 'origWidth': 410, 'origHeight': 411, 'width': 410, 'height': 411, 'widthPercent': 0.45, 'rescaleHeight': False, 'trialN': 69, 'loaded': True, 'loadedTime': 6355.4000000059605, 'positionName': 'LEFT', 'positionCoords': [245.68, 178.5], 'bid': 1.06}, {'imgObject': {}, 'id': 'cherry tomato', 'src': '/static/foodstim60/cherry tomato.jpg', 'key': 'i', 'origWidth': 410, 'origHeight': 410, 'width': 410, 'height': 410, 'widthPercent': 0.45, 'rescaleHeight': False, 'trialN': 69, 'loaded': True, 'loadedTime': 5933.70000000298, 'positionName': 'RIGHT', 'positionCoords': [710.32, 179], 'bid': 6.11}]",144604.10000000894,1669833530153,lox,cherry tomato,1.06,6.11,5.050000000000001,cherry tomato,i,688.5,718,True,145822.70000000298,1218.5999999940395,1669833531372,1219,717.3999999910593,HRV,HRV_0216,2022-11-30 18:41:50
70,"[{'imgObject': {}, 'id': 'tacos', 'src': '/static/foodstim60/tacos.jpg', 'key': 'u', 'origWidth': 411, 'origHeight': 411, 'width': 411, 'height': 411, 'widthPercent': 0.45, 'rescaleHeight': False, 'trialN': 70, 'loaded': True, 'loadedTime': 4227.20000000298, 'positionName': 'LEFT', 'positionCoords': [244.68, 178.5], 'bid': 7.97}, {'imgObject': {}, 'id': 'froot loops w milk', 'src': '/static/foodstim60/froot loops w milk.jpg', 'key': 'i', 'origWidth': 410, 'origHeight': 410, 'width': 410, 'height': 410, 'widthPercent': 0.45, 'rescaleHeight': False, 'trialN': 70, 'loaded': True, 'loadedTime': 5188.100000008941, 'positionName': 'RIGHT', 'positionCoords': [710.32, 179], 'bid': 8.1}]",145824.60000000894,1669833531374,tacos,froot loops w milk,7.97,8.1,0.1299999999999999,tacos,u,855.5999999940395,860,True,147185.5,1360.8999999910593,1669833532735,1361,859.8999999910593,HRV,HRV_0216,2022-11-30 18:41:50
71,"[{'imgObject': {}, 'id': 'yogurt no spoon', 'src': '/static/foodstim60/yogurt no spoon.jpg', 'key': 'u', 'origWidth': 411, 'origHeight': 410, 'width': 411, 'height': 410, 'widthPercent': 0.45, 'rescaleHeight': False, 'trialN': 71, 'loaded': True, 'loadedTime': 8370.60000000894, 'positionName': 'LEFT', 'positionCoords': [244.68, 179], 'bid': 8.41}, {'imgObject': {}, 'id': 'cherries', 'src': '/static/foodstim60/cherries.jpg', 'key': 'i', 'origWidth': 410, 'origHeight': 411, 'width': 410, 'height': 411, 'widthPercent': 0.45, 'rescaleHeight': False, 'trialN': 71, 'loaded': True, 'loadedTime': 4344.600000008941, 'positionName': 'RIGHT', 'positionCoords': [710.32, 178.5], 'bid': 9.08}]",147186.29999999702,1669833532736,yogurt no spoon,cherries,8.41,9.08,0.6699999999999999,yogurt no spoon,u,870.5,875,True,148562.20000000298,1375.9000000059605,1669833534112,1376,875.4000000059605,HRV,HRV_0216,2022-11-30 18:41:50
72,"[{'imgObject': {}, 'id': 'mac & cheese', 'src': '/static/foodstim60/mac & cheese.jpg', 'key': 'u', 'origWidth': 410, 'origHeight': 410, 'width': 410, 'height': 410, 'widthPercent': 0.45, 'rescaleHeight': False, 'trialN': 72, 'loaded': True, 'loadedTime': 5407.4000000059605, 'positionName': 'LEFT', 'positionCoords': [245.68, 179], 'bid': 7.91}, {'imgObject': {}, 'id': 'yogurt no spoon', 'src': '/static/foodstim60/yogurt no spoon.jpg', 'key': 'i', 'origWidth': 411, 'origHeight': 410, 'width': 411, 'height': 410, 'widthPercent': 0.45, 'rescaleHeight': False, 'trialN': 72, 'loaded': True, 'loadedTime': 8367.79999999702, 'positionName': 'RIGHT', 'positionCoords': [710.32, 179], 'bid': 8.41}]",148562.60000000894,1669833534112,mac & cheese,yogurt no spoon,7.91,8.41,0.5,mac & cheese,u,626.7999999970198,636,True,149701.40000000596,1138.7999999970198,1669833535251,1139,636.2999999970198,HRV,HRV_0216,2022-11-30 18:41:50
73,"[{'imgObject': {}, 'id': 'burger', 'src': '/static/foodstim60/burger.jpg', 'key': 'u', 'origWidth': 409, 'origHeight': 409, 'width': 409, 'height': 409, 'widthPercent': 0.45, 'rescaleHeight': False, 'trialN': 73, 'loaded': True, 'loadedTime': 6781.9000000059605, 'positionName': 'LEFT', 'positionCoords': [246.68, 179.5], 'bid': 7.6}, {'imgObject': {}, 'id': 'kiwi', 'src': '/static/foodstim60/kiwi.jpg', 'key': 'i', 'origWidth': 410, 'origHeight': 410, 'width': 410, 'height': 410, 'widthPercent': 0.45, 'rescaleHeight': False, 'trialN': 73, 'loaded': True, 'loadedTime': 8722.79999999702, 'positionName': 'RIGHT', 'positionCoords': [710.32, 179], 'bid': 9.33}]",149702.40000000596,1669833535252,burger,kiwi,7.6,9.33,1.7300000000000004,kiwi,i,946.5,951,True,151155.60000000894,1453.2000000029802,1669833536705,1453,951.7000000029802,HRV,HRV_0216,2022-11-30 18:41:50
74,"[{'imgObject': {}, 'id': 'avocado', 'src': '/static/foodstim60/avocado.jpg', 'key': 'u', 'origWidth': 409, 'origHeight': 409, 'width': 409, 'height': 409, 'widthPercent': 0.45, 'rescaleHeight': False, 'trialN': 74, 'loaded': True, 'loadedTime': 8380.40000000596, 'positionName': 'LEFT', 'positionCoords': [246.68, 179.5], 'bid': 7.88}, {'imgObject': {}, 'id': 'chickenfingers', 'src': '/static/foodstim60/chickenfingers.jpg', 'key': 'i', 'origWidth': 410, 'origHeight': 410, 'width': 410, 'height': 410, 'widthPercent': 0.45, 'rescaleHeight': False, 'trialN': 74, 'loaded': True, 'loadedTime': 6970.5, 'positionName': 'RIGHT', 'positionCoords': [710.32, 179], 'bid': 8.23}]",151156.70000000298,1669833536706,avocado,chickenfingers,7.88,8.23,0.35000000000000053,chickenfingers,i,713.2999999970198,720,True,152378.60000000894,1221.9000000059605,1669833537928,1222,719.5999999940395,HRV,HRV_0216,2022-11-30 18:41:50
75,"[{'imgObject': {}, 'id': 'ice cream sundae 002', 'src': '/static/foodstim60/ice cream sundae 002.jpg', 'key': 'u', 'origWidth': 409, 'origHeight': 409, 'width': 409, 'height': 409, 'widthPercent': 0.45, 'rescaleHeight': False, 'trialN': 75, 'loaded': True, 'loadedTime': 4253.20000000298, 'positionName': 'LEFT', 'positionCoords': [246.68, 179.5], 'bid': 8.39}, {'imgObject': {}, 'id': 'Grapes', 'src': '/static/foodstim60/Grapes.jpg', 'key': 'i', 'origWidth': 411, 'origHeight': 411, 'width': 411, 'height': 411, 'widthPercent': 0.45, 'rescaleHeight': False, 'trialN': 75, 'loaded': True, 'loadedTime': 5706.79999999702, 'positionName': 'RIGHT', 'positionCoords': [710.32, 178.5], 'bid': 9.01}]",152379.79999999702,1669833537929,ice cream sundae 002,Grapes,8.39,9.01,0.6199999999999992,ice cream sundae 002,u,1281.1000000089407,1283,True,154163.60000000894,1783.800000011921,1669833539713,1784,1282.9000000059605,HRV,HRV_0216,2022-11-30 18:41:50
76,"[{'imgObject': {}, 'id': 'Grapes', 'src': '/static/foodstim60/Grapes.jpg', 'key': 'u', 'origWidth': 411, 'origHeight': 411, 'width': 411, 'height': 411, 'widthPercent': 0.45, 'rescaleHeight': False, 'trialN': 76, 'loaded': True, 'loadedTime': 5565.9000000059605, 'positionName': 'LEFT', 'positionCoords': [244.68, 178.5], 'bid': 9.01}, {'imgObject': {}, 'id': 'steak', 'src': '/static/foodstim60/steak.jpg', 'key': 'i', 'origWidth': 410, 'origHeight': 410, 'width': 410, 'height': 410, 'widthPercent': 0.45, 'rescaleHeight': False, 'trialN': 76, 'loaded': True, 'loadedTime': 7449, 'positionName': 'RIGHT', 'positionCoords': [710.32, 179], 'bid': 8.77}]",154164.20000000298,1669833539714,Grapes,steak,9.01,8.77,-0.2400000000000002,Grapes,u,3319.4000000059605,3322,True,157987.70000000298,3823.5,1669833543537,3823,3322.0999999940395,HRV,HRV_0216,2022-11-30 18:41:50
77,"[{'imgObject': {}, 'id': 'rigatoni and sauce', 'src': '/static/foodstim60/rigatoni and sauce.jpg', 'key': 'u', 'origWidth': 410, 'origHeight': 411, 'width': 410, 'height': 411, 'widthPercent': 0.45, 'rescaleHeight': False, 'trialN': 77, 'loaded': True, 'loadedTime': 8855.79999999702, 'positionName': 'LEFT', 'positionCoords': [245.68, 178.5], 'bid': 6.33}, {'imgObject': {}, 'id': 'cocktailshrimp', 'src': '/static/foodstim60/cocktailshrimp.jpg', 'key': 'i', 'origWidth': 410, 'origHeight': 410, 'width': 410, 'height': 410, 'widthPercent': 0.45, 'rescaleHeight': False, 'trialN': 77, 'loaded': True, 'loadedTime': 6793, 'positionName': 'RIGHT', 'positionCoords': [710.32, 179], 'bid': 4.44}]",157988.10000000894,1669833543537,rigatoni and sauce,cocktailshrimp,6.33,4.44,-1.8899999999999997,cocktailshrimp,i,687.5,711,True,159199.5,1211.3999999910593,1669833544749,1212,710.0999999940395,HRV,HRV_0216,2022-11-30 18:41:50
78,"[{'imgObject': {}, 'id': 'hotdog w must', 'src': '/static/foodstim60/hotdog w must.jpg', 'key': 'u', 'origWidth': 409, 'origHeight': 409, 'width': 409, 'height': 409, 'widthPercent': 0.45, 'rescaleHeight': False, 'trialN': 78, 'loaded': True, 'loadedTime': 7136, 'positionName': 'LEFT', 'positionCoords': [246.68, 179.5], 'bid': 2.18}, {'imgObject': {}, 'id': 'tacos', 'src': '/static/foodstim60/tacos.jpg', 'key': 'i', 'origWidth': 411, 'origHeight': 411, 'width': 411, 'height': 411, 'widthPercent': 0.45, 'rescaleHeight': False, 'trialN': 78, 'loaded': True, 'loadedTime': 4198.600000008941, 'positionName': 'RIGHT', 'positionCoords': [710.32, 178.5], 'bid': 7.97}]",159199.79999999702,1669833544749,hotdog w must,tacos,2.18,7.97,5.789999999999999,tacos,i,812.4000000059605,819,True,160520.60000000894,1320.800000011921,1669833546070,1321,818.9000000059605,HRV,HRV_0216,2022-11-30 18:41:50
79,"[{'imgObject': {}, 'id': 'chicken nuggets2', 'src': '/static/foodstim60/chicken nuggets2.jpg', 'key': 'u', 'origWidth': 410, 'origHeight': 409, 'width': 410, 'height': 409, 'widthPercent': 0.45, 'rescaleHeight': False, 'trialN': 79, 'loaded': True, 'loadedTime': 8867, 'positionName': 'LEFT', 'positionCoords': [245.68, 179.5], 'bid': 8.26}, {'imgObject': {}, 'id': 'mango', 'src': '/static/foodstim60/mango.jpg', 'key': 'i', 'origWidth': 411, 'origHeight': 411, 'width': 411, 'height': 411, 'widthPercent': 0.45, 'rescaleHeight': False, 'trialN': 79, 'loaded': True, 'loadedTime': 8044.9000000059605, 'positionName': 'RIGHT', 'positionCoords': [710.32, 178.5], 'bid': 9.18}]",160521.40000000596,1669833546071,chicken nuggets2,mango,8.26,9.18,0.9199999999999999,chicken nuggets2,u,713.7999999970198,716,True,161739.0,1217.5999999940395,1669833547288,1217,716.5,HRV,HRV_0216,2022-11-30 18:41:50
80,"[{'imgObject': {}, 'id': 'popsicles', 'src': '/static/foodstim60/popsicles.jpg', 'key': 'u', 'origWidth': 410, 'origHeight': 410, 'width': 410, 'height': 410, 'widthPercent': 0.45, 'rescaleHeight': False, 'trialN': 80, 'loaded': True, 'loadedTime': 6508.4000000059605, 'positionName': 'LEFT', 'positionCoords': [245.68, 179], 'bid': 6.24}, {'imgObject': {}, 'id': 'bagel and cc', 'src': '/static/foodstim60/bagel and cc.jpg', 'key': 'i', 'origWidth': 410, 'origHeight': 410, 'width': 410, 'height': 410, 'widthPercent': 0.45, 'rescaleHeight': False, 'trialN': 80, 'loaded': True, 'loadedTime': 6937.600000008941, 'positionName': 'RIGHT', 'positionCoords': [710.32, 179], 'bid': 3.38}]",161739.70000000298,1669833547289,popsicles,bagel and cc,6.24,3.38,-2.8600000000000003,bagel and cc,i,587.2999999970198,590,True,162830.5,1090.7999999970198,1669833548380,1091,589.5999999940395,HRV,HRV_0216,2022-11-30 18:41:50
81,"[{'imgObject': {}, 'id': 'steak', 'src': '/static/foodstim60/steak.jpg', 'key': 'u', 'origWidth': 410, 'origHeight': 410, 'width': 410, 'height': 410, 'widthPercent': 0.45, 'rescaleHeight': False, 'trialN': 81, 'loaded': True, 'loadedTime': 7462, 'positionName': 'LEFT', 'positionCoords': [245.68, 179], 'bid': 8.77}, {'imgObject': {}, 'id': 'raisin bran w milk', 'src': '/static/foodstim60/raisin bran w milk.jpg', 'key': 'i', 'origWidth': 411, 'origHeight': 411, 'width': 411, 'height': 411, 'widthPercent': 0.45, 'rescaleHeight': False, 'trialN': 81, 'loaded': True, 'loadedTime': 5711.9000000059605, 'positionName': 'RIGHT', 'positionCoords': [710.32, 178.5], 'bid': 8.27}]",162831.5,1669833548381,steak,raisin bran w milk,8.77,8.27,-0.5,steak,u,928.1000000089407,931,True,164263.20000000298,1431.7000000029802,1669833549813,1432,930.7999999970198,HRV,HRV_0216,2022-11-30 18:41:50
82,"[{'imgObject': {}, 'id': 'rigatoni', 'src': '/static/foodstim60/rigatoni.jpg', 'key': 'u', 'origWidth': 411, 'origHeight': 411, 'width': 411, 'height': 411, 'widthPercent': 0.45, 'rescaleHeight': False, 'trialN': 82, 'loaded': True, 'loadedTime': 8205.10000000894, 'positionName': 'LEFT', 'positionCoords': [244.68, 178.5], 'bid': 4.03}, {'imgObject': {}, 'id': 'hotdog w must', 'src': '/static/foodstim60/hotdog w must.jpg', 'key': 'i', 'origWidth': 409, 'origHeight': 409, 'width': 409, 'height': 409, 'widthPercent': 0.45, 'rescaleHeight': False, 'trialN': 82, 'loaded': True, 'loadedTime': 7148.79999999702, 'positionName': 'RIGHT', 'positionCoords': [710.32, 179.5], 'bid': 2.18}]",164263.70000000298,1669833549813,rigatoni,hotdog w must,4.03,2.18,-1.85,hotdog w must,i,938.2999999970198,942,True,165707.0,1443.2999999970198,1669833551256,1443,942.4000000059605,HRV,HRV_0216,2022-11-30 18:41:50
83,"[{'imgObject': {}, 'id': 'seaweed', 'src': '/static/foodstim60/seaweed.jpg', 'key': 'u', 'origWidth': 410, 'origHeight': 410, 'width': 410, 'height': 410, 'widthPercent': 0.45, 'rescaleHeight': False, 'trialN': 83, 'loaded': True, 'loadedTime': 7843, 'positionName': 'LEFT', 'positionCoords': [245.68, 179], 'bid': 0.5700000000000001}, {'imgObject': {}, 'id': 'edamame', 'src': '/static/foodstim60/edamame.jpg', 'key': 'i', 'origWidth': 409, 'origHeight': 410, 'width': 409, 'height': 410, 'widthPercent': 0.45, 'rescaleHeight': False, 'trialN': 83, 'loaded': True, 'loadedTime': 7161.79999999702, 'positionName': 'RIGHT', 'positionCoords': [710.32, 179], 'bid': 2.05}]",165709.79999999702,1669833551259,seaweed,edamame,0.5700000000000001,2.05,1.4799999999999998,edamame,i,848.2000000029802,853,True,167063.90000000596,1354.1000000089407,1669833552613,1354,852.7000000029802,HRV,HRV_0216,2022-11-30 18:41:50
84,"[{'imgObject': {}, 'id': 'tacos', 'src': '/static/foodstim60/tacos.jpg', 'key': 'u', 'origWidth': 411, 'origHeight': 411, 'width': 411, 'height': 411, 'widthPercent': 0.45, 'rescaleHeight': False, 'trialN': 84, 'loaded': True, 'loadedTime': 4196.4000000059605, 'positionName': 'LEFT', 'positionCoords': [244.68, 178.5], 'bid': 7.97}, {'imgObject': {}, 'id': 'shreddedwheatwithmilk', 'src': '/static/foodstim60/shreddedwheatwithmilk.jpg', 'key': 'i', 'origWidth': 410, 'origHeight': 410, 'width': 410, 'height': 410, 'widthPercent': 0.45, 'rescaleHeight': False, 'trialN': 84, 'loaded': True, 'loadedTime': 8215, 'positionName': 'RIGHT', 'positionCoords': [710.32, 179], 'bid': 7.57}]",167064.70000000298,1669833552614,tacos,shreddedwheatwithmilk,7.97,7.57,-0.39999999999999947,tacos,u,748.7000000029802,752,True,168316.90000000596,1252.2000000029802,1669833553866,1252,751.7999999970198,HRV,HRV_0216,2022-11-30 18:41:50
85,"[{'imgObject': {}, 'id': 'rigatoni', 'src': '/static/foodstim60/rigatoni.jpg', 'key': 'u', 'origWidth': 411, 'origHeight': 411, 'width': 411, 'height': 411, 'widthPercent': 0.45, 'rescaleHeight': False, 'trialN': 85, 'loaded': True, 'loadedTime': 8203.40000000596, 'positionName': 'LEFT', 'positionCoords': [244.68, 178.5], 'bid': 4.03}, {'imgObject': {}, 'id': 'rigatoni and sauce', 'src': '/static/foodstim60/rigatoni and sauce.jpg', 'key': 'i', 'origWidth': 410, 'origHeight': 411, 'width': 410, 'height': 411, 'widthPercent': 0.45, 'rescaleHeight': False, 'trialN': 85, 'loaded': True, 'loadedTime': 8843.10000000894, 'positionName': 'RIGHT', 'positionCoords': [710.32, 178.5], 'bid': 6.33}]",168317.20000000298,1669833553867,rigatoni,rigatoni and sauce,4.03,6.33,2.3,rigatoni and sauce,i,996.4000000059605,1002,True,169821.90000000596,1504.7000000029802,1669833555371,1504,1002.7000000029802,HRV,HRV_0216,2022-11-30 18:41:50
86,"[{'imgObject': {}, 'id': 'yogurt no spoon', 'src': '/static/foodstim60/yogurt no spoon.jpg', 'key': 'u', 'origWidth': 411, 'origHeight': 410, 'width': 411, 'height': 410, 'widthPercent': 0.45, 'rescaleHeight': False, 'trialN': 86, 'loaded': True, 'loadedTime': 8371.5, 'positionName': 'LEFT', 'positionCoords': [244.68, 179], 'bid': 8.41}, {'imgObject': {}, 'id': 'fried eggs', 'src': '/static/foodstim60/fried eggs.jpg', 'key': 'i', 'origWidth': 410, 'origHeight': 410, 'width': 410, 'height': 410, 'widthPercent': 0.45, 'rescaleHeight': False, 'trialN': 86, 'loaded': True, 'loadedTime': 4031.7999999970198, 'positionName': 'RIGHT', 'positionCoords': [710.32, 179], 'bid': 5.36}]",169823.0,1669833555372,yogurt no spoon,fried eggs,8.41,5.36,-3.05,yogurt no spoon,u,764.2999999970198,768,True,171092.79999999702,1269.7999999970198,1669833556642,1270,768.1000000089407,HRV,HRV_0216,2022-11-30 18:41:50
87,"[{'imgObject': {}, 'id': 'mashed potato', 'src': '/static/foodstim60/mashed potato.jpg', 'key': 'u', 'origWidth': 409, 'origHeight': 409, 'width': 409, 'height': 409, 'widthPercent': 0.45, 'rescaleHeight': False, 'trialN': 87, 'loaded': True, 'loadedTime': 8225.10000000894, 'positionName': 'LEFT', 'positionCoords': [246.68, 179.5], 'bid': 8.36}, {'imgObject': {}, 'id': 'chicken nuggets2', 'src': '/static/foodstim60/chicken nuggets2.jpg', 'key': 'i', 'origWidth': 410, 'origHeight': 409, 'width': 410, 'height': 409, 'widthPercent': 0.45, 'rescaleHeight': False, 'trialN': 87, 'loaded': True, 'loadedTime': 8867.5, 'positionName': 'RIGHT', 'positionCoords': [710.32, 179.5], 'bid': 8.26}]",171094.20000000298,1669833556644,mashed potato,chicken nuggets2,8.36,8.26,-0.09999999999999964,chicken nuggets2,i,768.5,775,True,172370.90000000596,1276.7000000029802,1669833557920,1276,775.9000000059605,HRV,HRV_0216,2022-11-30 18:41:50
88,"[{'imgObject': {}, 'id': 'hotdog w must', 'src': '/static/foodstim60/hotdog w must.jpg', 'key': 'u', 'origWidth': 409, 'origHeight': 409, 'width': 409, 'height': 409, 'widthPercent': 0.45, 'rescaleHeight': False, 'trialN': 88, 'loaded': True, 'loadedTime': 7149.4000000059605, 'positionName': 'LEFT', 'positionCoords': [246.68, 179.5], 'bid': 2.18}, {'imgObject': {}, 'id': 'lox', 'src': '/static/foodstim60/lox.jpg', 'key': 'i', 'origWidth': 410, 'origHeight': 411, 'width': 410, 'height': 411, 'widthPercent': 0.45, 'rescaleHeight': False, 'trialN': 88, 'loaded': True, 'loadedTime': 6316.70000000298, 'positionName': 'RIGHT', 'positionCoords': [710.32, 178.5], 'bid': 1.06}]",172371.90000000596,1669833557921,hotdog w must,lox,2.18,1.06,-1.12,hotdog w must,u,753.7000000029802,757,True,173630.70000000298,1258.7999999970198,1669833559180,1259,756.8999999910593,HRV,HRV_0216,2022-11-30 18:41:50
89,"[{'imgObject': {}, 'id': 'cocktailshrimp', 'src': '/static/foodstim60/cocktailshrimp.jpg', 'key': 'u', 'origWidth': 410, 'origHeight': 410, 'width': 410, 'height': 410, 'widthPercent': 0.45, 'rescaleHeight': False, 'trialN': 89, 'loaded': True, 'loadedTime': 6793.9000000059605, 'positionName': 'LEFT', 'positionCoords': [245.68, 179], 'bid': 4.44}, {'imgObject': {}, 'id': 'mashed potato', 'src': '/static/foodstim60/mashed potato.jpg', 'key': 'i', 'origWidth': 409, 'origHeight': 409, 'width': 409, 'height': 409, 'widthPercent': 0.45, 'rescaleHeight': False, 'trialN': 89, 'loaded': True, 'loadedTime': 8215.90000000596, 'positionName': 'RIGHT', 'positionCoords': [710.32, 179.5], 'bid': 8.36}]",173631.70000000298,1669833559181,cocktailshrimp,mashed potato,4.44,8.36,3.919999999999999,cocktailshrimp,u,1096.2000000029802,1103,True,175235.70000000298,1604.0,1669833560785,1604,1102.9000000059605,HRV,HRV_0216,2022-11-30 18:41:50
90,"[{'imgObject': {}, 'id': 'avocado', 'src': '/static/foodstim60/avocado.jpg', 'key': 'u', 'origWidth': 409, 'origHeight': 409, 'width': 409, 'height': 409, 'widthPercent': 0.45, 'rescaleHeight': False, 'trialN': 90, 'loaded': True, 'loadedTime': 8372.5, 'positionName': 'LEFT', 'positionCoords': [246.68, 179.5], 'bid': 7.88}, {'imgObject': {}, 'id': 'froot loops w milk', 'src': '/static/foodstim60/froot loops w milk.jpg', 'key': 'i', 'origWidth': 410, 'origHeight': 410, 'width': 410, 'height': 410, 'widthPercent': 0.45, 'rescaleHeight': False, 'trialN': 90, 'loaded': True, 'loadedTime': 5170.20000000298, 'positionName': 'RIGHT', 'positionCoords': [710.32, 179], 'bid': 8.1}]",178122.40000000596,1669833563672,avocado,froot loops w milk,7.88,8.1,0.21999999999999975,froot loops w milk,i,1542.5999999940395,1545,True,180167.79999999702,2045.3999999910593,1669833565717,2045,1545.0,HRV,HRV_0216,2022-11-30 18:41:50
91,"[{'imgObject': {}, 'id': 'cherry tomato', 'src': '/static/foodstim60/cherry tomato.jpg', 'key': 'u', 'origWidth': 410, 'origHeight': 410, 'width': 410, 'height': 410, 'widthPercent': 0.45, 'rescaleHeight': False, 'trialN': 91, 'loaded': True, 'loadedTime': 5918.9000000059605, 'positionName': 'LEFT', 'positionCoords': [245.68, 179], 'bid': 6.11}, {'imgObject': {}, 'id': 'corn cob', 'src': '/static/foodstim60/corn cob.jpg', 'key': 'i', 'origWidth': 411, 'origHeight': 411, 'width': 411, 'height': 411, 'widthPercent': 0.45, 'rescaleHeight': False, 'trialN': 91, 'loaded': True, 'loadedTime': 8391.79999999702, 'positionName': 'RIGHT', 'positionCoords': [710.32, 178.5], 'bid': 6.25}]",180168.20000000298,1669833565718,cherry tomato,corn cob,6.11,6.25,0.13999999999999968,corn cob,i,1019.7999999970198,1021,True,181690.0,1521.7999999970198,1669833567239,1521,1021.4000000059605,HRV,HRV_0216,2022-11-30 18:41:50
92,"[{'imgObject': {}, 'id': 'veggieswithdip', 'src': '/static/foodstim60/veggieswithdip.jpg', 'key': 'u', 'origWidth': 409, 'origHeight': 409, 'width': 409, 'height': 409, 'widthPercent': 0.45, 'rescaleHeight': False, 'trialN': 92, 'loaded': True, 'loadedTime': 8426.5, 'positionName': 'LEFT', 'positionCoords': [246.68, 179.5], 'bid': 8.46}, {'imgObject': {}, 'id': 'kiwi', 'src': '/static/foodstim60/kiwi.jpg', 'key': 'i', 'origWidth': 410, 'origHeight': 410, 'width': 410, 'height': 410, 'widthPercent': 0.45, 'rescaleHeight': False, 'trialN': 92, 'loaded': True, 'loadedTime': 8699.70000000298, 'positionName': 'RIGHT', 'positionCoords': [710.32, 179], 'bid': 9.33}]",181690.70000000298,1669833567240,veggieswithdip,kiwi,8.46,9.33,0.8699999999999992,kiwi,i,758.7000000029802,761,True,182952.40000000596,1261.7000000029802,1669833568502,1262,761.2000000029802,HRV,HRV_0216,2022-11-30 18:41:50
93,"[{'imgObject': {}, 'id': 'apple slices', 'src': '/static/foodstim60/apple slices.jpg', 'key': 'u', 'origWidth': 409, 'origHeight': 410, 'width': 409, 'height': 410, 'widthPercent': 0.45, 'rescaleHeight': False, 'trialN': 93, 'loaded': True, 'loadedTime': 8354.10000000894, 'positionName': 'LEFT', 'positionCoords': [246.68, 179], 'bid': 8.74}, {'imgObject': {}, 'id': 'burrito', 'src': '/static/foodstim60/burrito.jpg', 'key': 'i', 'origWidth': 410, 'origHeight': 410, 'width': 410, 'height': 410, 'widthPercent': 0.45, 'rescaleHeight': False, 'trialN': 93, 'loaded': True, 'loadedTime': 4645.70000000298, 'positionName': 'RIGHT', 'positionCoords': [710.32, 179], 'bid': 7.1000000000000005}]",182953.90000000596,1669833568503,apple slices,burrito,8.74,7.1000000000000005,-1.6399999999999997,burrito,i,924.7999999970198,928,True,184382.40000000596,1428.5,1669833569932,1429,928.0,HRV,HRV_0216,2022-11-30 18:41:50
94,"[{'imgObject': {}, 'id': 'chicken nuggets2', 'src': '/static/foodstim60/chicken nuggets2.jpg', 'key': 'u', 'origWidth': 410, 'origHeight': 409, 'width': 410, 'height': 409, 'widthPercent': 0.45, 'rescaleHeight': False, 'trialN': 94, 'loaded': True, 'loadedTime': 8860.60000000894, 'positionName': 'LEFT', 'positionCoords': [245.68, 179.5], 'bid': 8.26}, {'imgObject': {}, 'id': 'luckycharms', 'src': '/static/foodstim60/luckycharms.jpg', 'key': 'i', 'origWidth': 410, 'origHeight': 409, 'width': 410, 'height': 409, 'widthPercent': 0.45, 'rescaleHeight': False, 'trialN': 94, 'loaded': True, 'loadedTime': 8053.9000000059605, 'positionName': 'RIGHT', 'positionCoords': [710.32, 179.5], 'bid': 8.42}]",184382.79999999702,1669833569932,chicken nuggets2,luckycharms,8.26,8.42,0.16000000000000014,chicken nuggets2,u,1107.5,1111,True,185994.20000000298,1611.4000000059605,1669833571543,1611,1110.800000011921,HRV,HRV_0216,2022-11-30 18:41:50
95,"[{'imgObject': {}, 'id': 'cherry tomato', 'src': '/static/foodstim60/cherry tomato.jpg', 'key': 'u', 'origWidth': 410, 'origHeight': 410, 'width': 410, 'height': 410, 'widthPercent': 0.45, 'rescaleHeight': False, 'trialN': 95, 'loaded': True, 'loadedTime': 5726.5, 'positionName': 'LEFT', 'positionCoords': [245.68, 179], 'bid': 6.11}, {'imgObject': {}, 'id': 'turkey sandwich', 'src': '/static/foodstim60/turkey sandwich.jpg', 'key': 'i', 'origWidth': 409, 'origHeight': 409, 'width': 409, 'height': 409, 'widthPercent': 0.45, 'rescaleHeight': False, 'trialN': 95, 'loaded': True, 'loadedTime': 7788.29999999702, 'positionName': 'RIGHT', 'positionCoords': [710.32, 179.5], 'bid': 7.43}]",185994.90000000596,1669833571544,cherry tomato,turkey sandwich,6.11,7.43,1.3199999999999994,turkey sandwich,i,979.8999999910593,982,True,187477.5,1482.5999999940395,1669833573027,1483,982.0999999940395,HRV,HRV_0216,2022-11-30 18:41:50
96,"[{'imgObject': {}, 'id': 'corn cob', 'src': '/static/foodstim60/corn cob.jpg', 'key': 'u', 'origWidth': 411, 'origHeight': 411, 'width': 411, 'height': 411, 'widthPercent': 0.45, 'rescaleHeight': False, 'trialN': 96, 'loaded': True, 'loadedTime': 8398.40000000596, 'positionName': 'LEFT', 'positionCoords': [244.68, 178.5], 'bid': 6.25}, {'imgObject': {}, 'id': 'omelette', 'src': '/static/foodstim60/omelette.jpg', 'key': 'i', 'origWidth': 410, 'origHeight': 409, 'width': 410, 'height': 409, 'widthPercent': 0.45, 'rescaleHeight': False, 'trialN': 96, 'loaded': True, 'loadedTime': 8191.4000000059605, 'positionName': 'RIGHT', 'positionCoords': [710.32, 179.5], 'bid': 4.41}]",187478.40000000596,1669833573028,corn cob,omelette,6.25,4.41,-1.8399999999999999,corn cob,u,1887.5,1896,True,189876.40000000596,2398.0,1669833575426,2398,1896.5,HRV,HRV_0216,2022-11-30 18:41:50
97,"[{'imgObject': {}, 'id': 'corn cob', 'src': '/static/foodstim60/corn cob.jpg', 'key': 'u', 'origWidth': 411, 'origHeight': 411, 'width': 411, 'height': 411, 'widthPercent': 0.45, 'rescaleHeight': False, 'trialN': 97, 'loaded': True, 'loadedTime': 8383, 'positionName': 'LEFT', 'positionCoords': [244.68, 178.5], 'bid': 6.25}, {'imgObject': {}, 'id': 'eggsalad', 'src': '/static/foodstim60/eggsalad.jpg', 'key': 'i', 'origWidth': 410, 'origHeight': 409, 'width': 410, 'height': 409, 'widthPercent': 0.45, 'rescaleHeight': False, 'trialN': 97, 'loaded': True, 'loadedTime': 5550.20000000298, 'positionName': 'RIGHT', 'positionCoords': [710.32, 179.5], 'bid': 3.5700000000000003}]",189878.10000000894,1669833575427,corn cob,eggsalad,6.25,3.5700000000000003,-2.6799999999999997,corn cob,u,878.0999999940395,886,True,191264.5,1386.3999999910593,1669833576814,1387,885.2999999970198,HRV,HRV_0216,2022-11-30 18:41:50
98,"[{'imgObject': {}, 'id': 'cantaloupe', 'src': '/static/foodstim60/cantaloupe.jpg', 'key': 'u', 'origWidth': 409, 'origHeight': 409, 'width': 409, 'height': 409, 'widthPercent': 0.45, 'rescaleHeight': False, 'trialN': 98, 'loaded': True, 'loadedTime': 4987.70000000298, 'positionName': 'LEFT', 'positionCoords': [246.68, 179.5], 'bid': 8.74}, {'imgObject': {}, 'id': 'veggieswithdip', 'src': '/static/foodstim60/veggieswithdip.jpg', 'key': 'i', 'origWidth': 409, 'origHeight': 409, 'width': 409, 'height': 409, 'widthPercent': 0.45, 'rescaleHeight': False, 'trialN': 98, 'loaded': True, 'loadedTime': 8426, 'positionName': 'RIGHT', 'positionCoords': [710.32, 179.5], 'bid': 8.46}]",191265.20000000298,1669833576814,cantaloupe,veggieswithdip,8.74,8.46,-0.27999999999999936,veggieswithdip,i,1376.0999999940395,1389,True,193154.29999999702,1889.0999999940395,1669833578704,1890,1388.5999999940395,HRV,HRV_0216,2022-11-30 18:41:50
99,"[{'imgObject': {}, 'id': 'cocktailshrimp', 'src': '/static/foodstim60/cocktailshrimp.jpg', 'key': 'u', 'origWidth': 410, 'origHeight': 410, 'width': 410, 'height': 410, 'widthPercent': 0.45, 'rescaleHeight': False, 'trialN': 99, 'loaded': True, 'loadedTime': 6782.70000000298, 'positionName': 'LEFT', 'positionCoords': [245.68, 179], 'bid': 4.44}, {'imgObject': {}, 'id': 'hotdog w must', 'src': '/static/foodstim60/hotdog w must.jpg', 'key': 'i', 'origWidth': 409, 'origHeight': 409, 'width': 409, 'height': 409, 'widthPercent': 0.45, 'rescaleHeight': False, 'trialN': 99, 'loaded': True, 'loadedTime': 7149.79999999702, 'positionName': 'RIGHT', 'positionCoords': [710.32, 179.5], 'bid': 2.18}]",193154.90000000596,1669833578704,cocktailshrimp,hotdog w must,4.44,2.18,-2.2600000000000002,cocktailshrimp,u,854.5,862,True,194517.10000000894,1362.2000000029802,1669833580066,1362,861.5,HRV,HRV_0216,2022-11-30 18:41:50
100,"[{'imgObject': {}, 'id': 'omelette', 'src': '/static/foodstim60/omelette.jpg', 'key': 'u', 'origWidth': 410, 'origHeight': 409, 'width': 410, 'height': 409, 'widthPercent': 0.45, 'rescaleHeight': False, 'trialN': 100, 'loaded': True, 'loadedTime': 8193.10000000894, 'positionName': 'LEFT', 'positionCoords': [245.68, 179.5], 'bid': 4.41}, {'imgObject': {}, 'id': 'cocktailshrimp', 'src': '/static/foodstim60/cocktailshrimp.jpg', 'key': 'i', 'origWidth': 410, 'origHeight': 410, 'width': 410, 'height': 410, 'widthPercent': 0.45, 'rescaleHeight': False, 'trialN': 100, 'loaded': True, 'loadedTime': 6792.20000000298, 'positionName': 'RIGHT', 'positionCoords': [710.32, 179], 'bid': 4.44}]",194517.79999999702,1669833580067,omelette,cocktailshrimp,4.41,4.44,0.03000000000000025,cocktailshrimp,i,1185,1190,True,196209.70000000298,1691.9000000059605,1669833581759,1692,1190.4000000059605,HRV,HRV_0216,2022-11-30 18:41:50
101,"[{'imgObject': {}, 'id': 'banana', 'src': '/static/foodstim60/banana.jpg', 'key': 'u', 'origWidth': 410, 'origHeight': 410, 'width': 410, 'height': 410, 'widthPercent': 0.45, 'rescaleHeight': False, 'trialN': 101, 'loaded': True, 'loadedTime': 4623, 'positionName': 'LEFT', 'positionCoords': [245.68, 179], 'bid': 7.43}, {'imgObject': {}, 'id': 'fruitsalad', 'src': '/static/foodstim60/fruitsalad.jpg', 'key': 'i', 'origWidth': 410, 'origHeight': 410, 'width': 410, 'height': 410, 'widthPercent': 0.45, 'rescaleHeight': False, 'trialN': 101, 'loaded': True, 'loadedTime': 7305.70000000298, 'positionName': 'RIGHT', 'positionCoords': [710.32, 179], 'bid': 8.89}]",196210.5,1669833581760,banana,fruitsalad,7.43,8.89,1.4600000000000009,fruitsalad,i,746.5,749,True,197460.5,1250.0,1669833583010,1250,749.0,HRV,HRV_0216,2022-11-30 18:41:50
102,"[{'imgObject': {}, 'id': 'mashed potato', 'src': '/static/foodstim60/mashed potato.jpg', 'key': 'u', 'origWidth': 409, 'origHeight': 409, 'width': 409, 'height': 409, 'widthPercent': 0.45, 'rescaleHeight': False, 'trialN': 102, 'loaded': True, 'loadedTime': 8353.40000000596, 'positionName': 'LEFT', 'positionCoords': [246.68, 179.5], 'bid': 8.36}, {'imgObject': {}, 'id': 'kiwi', 'src': '/static/foodstim60/kiwi.jpg', 'key': 'i', 'origWidth': 410, 'origHeight': 410, 'width': 410, 'height': 410, 'widthPercent': 0.45, 'rescaleHeight': False, 'trialN': 102, 'loaded': True, 'loadedTime': 8711.29999999702, 'positionName': 'RIGHT', 'positionCoords': [710.32, 179], 'bid': 9.33}]",197461.20000000298,1669833583011,mashed potato,kiwi,8.36,9.33,0.9700000000000006,kiwi,i,556.7999999970198,559,True,198521.20000000298,1060.0,1669833584071,1060,559.2999999970198,HRV,HRV_0216,2022-11-30 18:41:50
103,"[{'imgObject': {}, 'id': 'raspberries', 'src': '/static/foodstim60/raspberries.jpg', 'key': 'u', 'origWidth': 411, 'origHeight': 411, 'width': 411, 'height': 411, 'widthPercent': 0.45, 'rescaleHeight': False, 'trialN': 103, 'loaded': True, 'loadedTime': 7645.29999999702, 'positionName': 'LEFT', 'positionCoords': [244.68, 178.5], 'bid': 8.73}, {'imgObject': {}, 'id': 'veggieswithdip', 'src': '/static/foodstim60/veggieswithdip.jpg', 'key': 'i', 'origWidth': 409, 'origHeight': 409, 'width': 409, 'height': 409, 'widthPercent': 0.45, 'rescaleHeight': False, 'trialN': 103, 'loaded': True, 'loadedTime': 8432.20000000298, 'positionName': 'RIGHT', 'positionCoords': [710.32, 179.5], 'bid': 8.46}]",198521.79999999702,1669833584071,raspberries,veggieswithdip,8.73,8.46,-0.2699999999999996,veggieswithdip,i,571.4000000059605,578,True,199602.5,1080.7000000029802,1669833585152,1081,578.0,HRV,HRV_0216,2022-11-30 18:41:50
104,"[{'imgObject': {}, 'id': 'granola w milk', 'src': '/static/foodstim60/granola w milk.jpg', 'key': 'u', 'origWidth': 410, 'origHeight': 410, 'width': 410, 'height': 410, 'widthPercent': 0.45, 'rescaleHeight': False, 'trialN': 104, 'loaded': True, 'loadedTime': 7823.79999999702, 'positionName': 'LEFT', 'positionCoords': [245.68, 179], 'bid': 7.51}, {'imgObject': {}, 'id': 'roastedpotatoes', 'src': '/static/foodstim60/roastedpotatoes.jpg', 'key': 'i', 'origWidth': 409, 'origHeight': 410, 'width': 409, 'height': 410, 'widthPercent': 0.45, 'rescaleHeight': False, 'trialN': 104, 'loaded': True, 'loadedTime': 4137.70000000298, 'positionName': 'RIGHT', 'positionCoords': [710.32, 179], 'bid': 7.95}]",199604.20000000298,1669833585154,granola w milk,roastedpotatoes,7.51,7.95,0.4400000000000004,roastedpotatoes,i,1122.7999999970198,1126,True,201231.40000000596,1627.2000000029802,1669833586781,1627,1126.5,HRV,HRV_0216,2022-11-30 18:41:50
105,"[{'imgObject': {}, 'id': 'sweetpotato', 'src': '/static/foodstim60/sweetpotato.jpg', 'key': 'u', 'origWidth': 410, 'origHeight': 410, 'width': 410, 'height': 410, 'widthPercent': 0.45, 'rescaleHeight': False, 'trialN': 105, 'loaded': True, 'loadedTime': 6635.79999999702, 'positionName': 'LEFT', 'positionCoords': [245.68, 179], 'bid': 2.99}, {'imgObject': {}, 'id': 'baked potato', 'src': '/static/foodstim60/baked potato.jpg', 'key': 'i', 'origWidth': 409, 'origHeight': 410, 'width': 409, 'height': 410, 'widthPercent': 0.45, 'rescaleHeight': False, 'trialN': 105, 'loaded': True, 'loadedTime': 6126, 'positionName': 'RIGHT', 'positionCoords': [710.32, 179], 'bid': 3.31}]",201232.0,1669833586781,sweetpotato,baked potato,2.99,3.31,0.31999999999999984,sweetpotato,u,931.5,935,True,202667.60000000894,1435.6000000089407,1669833588217,1436,935.2000000029802,HRV,HRV_0216,2022-11-30 18:41:50
106,"[{'imgObject': {}, 'id': 'sweetpotato', 'src': '/static/foodstim60/sweetpotato.jpg', 'key': 'u', 'origWidth': 410, 'origHeight': 410, 'width': 410, 'height': 410, 'widthPercent': 0.45, 'rescaleHeight': False, 'trialN': 106, 'loaded': True, 'loadedTime': 6640.100000008941, 'positionName': 'LEFT', 'positionCoords': [245.68, 179], 'bid': 2.99}, {'imgObject': {}, 'id': 'blackbeanswithrice', 'src': '/static/foodstim60/blackbeanswithrice.jpg', 'key': 'i', 'origWidth': 410, 'origHeight': 410, 'width': 410, 'height': 410, 'widthPercent': 0.45, 'rescaleHeight': False, 'trialN': 106, 'loaded': True, 'loadedTime': 8692.40000000596, 'positionName': 'RIGHT', 'positionCoords': [710.32, 179], 'bid': 4.16}]",202668.20000000298,1669833588218,sweetpotato,blackbeanswithrice,2.99,4.16,1.17,sweetpotato,u,1213,1217,True,204386.70000000298,1718.5,1669833589936,1718,1217.5999999940395,HRV,HRV_0216,2022-11-30 18:41:50
107,"[{'imgObject': {}, 'id': 'orange slices', 'src': '/static/foodstim60/orange slices.jpg', 'key': 'u', 'origWidth': 409, 'origHeight': 410, 'width': 409, 'height': 410, 'widthPercent': 0.45, 'rescaleHeight': False, 'trialN': 107, 'loaded': True, 'loadedTime': 4873.5, 'positionName': 'LEFT', 'positionCoords': [246.68, 179], 'bid': 9.64}, {'imgObject': {}, 'id': 'kiwi', 'src': '/static/foodstim60/kiwi.jpg', 'key': 'i', 'origWidth': 410, 'origHeight': 410, 'width': 410, 'height': 410, 'widthPercent': 0.45, 'rescaleHeight': False, 'trialN': 107, 'loaded': True, 'loadedTime': 8715.40000000596, 'positionName': 'RIGHT', 'positionCoords': [710.32, 179], 'bid': 9.33}]",204388.20000000298,1669833589938,orange slices,kiwi,9.64,9.33,-0.3100000000000005,orange slices,u,770.7000000029802,774,True,205664.20000000298,1276.0,1669833591214,1276,774.4000000059605,HRV,HRV_0216,2022-11-30 18:41:50
108,"[{'imgObject': {}, 'id': 'sweetpotato', 'src': '/static/foodstim60/sweetpotato.jpg', 'key': 'u', 'origWidth': 410, 'origHeight': 410, 'width': 410, 'height': 410, 'widthPercent': 0.45, 'rescaleHeight': False, 'trialN': 108, 'loaded': True, 'loadedTime': 6634.4000000059605, 'positionName': 'LEFT', 'positionCoords': [245.68, 179], 'bid': 2.99}, {'imgObject': {}, 'id': 'cheerios', 'src': '/static/foodstim60/cheerios.jpg', 'key': 'i', 'origWidth': 409, 'origHeight': 410, 'width': 409, 'height': 410, 'widthPercent': 0.45, 'rescaleHeight': False, 'trialN': 108, 'loaded': True, 'loadedTime': 7657.4000000059605, 'positionName': 'RIGHT', 'positionCoords': [710.32, 179], 'bid': 8.03}]",205665.79999999702,1669833591215,sweetpotato,cheerios,2.99,8.03,5.039999999999999,sweetpotato,u,1038.4000000059605,1044,True,207209.90000000596,1544.1000000089407,1669833592759,1544,1043.5,HRV,HRV_0216,2022-11-30 18:41:50
