trialN,stimuli,question,trialStartTime,trialStartTime_UNIX,stimulus1,trialEvents,rt,receivedResponse,rating,trialEndTime,trialDuration,stimulus1Loaded,exp,subjectId,date
0,"[{'imgObject': {}, 'id': 'blueberries', 'src': '/static/foodstim60/blueberries.jpg', 'key': 'NaN', 'origWidth': 411, 'origHeight': 411, 'width': 411, 'height': 411, 'widthPercent': 0.8, 'rescaleHeight': True, 'trialN': 0, 'loaded': True, 'loadedTime': 3135, 'positionName': 'CENTER', 'positionCoords': [754.5, 334.5]}]",Rate how much you want to eat this food from 0 (least) to 10 (most).,3673.0,1669829756712,blueberries,"[{'event': 'onblur', 'details': 'out of focus', 'performance time': 4874.600000023842, 'date time': 1669829757914}, {'event': 'onfocus', 'details': 'in focus', 'performance time': 7484.800000011921, 'date time': 1669829760524}, {'event': 'fullscreenchange', 'details': 'fullscreenexit', 'performance time': 8286.600000023842, 'date time': 1669829761326}]",7054.100000023842,True,7.88,10727.100000023842,7054.100000023842,True,HRV,HRV_0114,2022-11-30 17:37:50
1,"[{'imgObject': {}, 'id': 'bagel plain', 'src': '/static/foodstim60/bagel plain.jpg', 'key': 'NaN', 'origWidth': 410, 'origHeight': 410, 'width': 410, 'height': 410, 'widthPercent': 0.8, 'rescaleHeight': True, 'trialN': 1, 'loaded': True, 'loadedTime': 10730.100000023842, 'positionName': 'CENTER', 'positionCoords': [755, 279.5]}]",Rate how much you want to eat this food from 0 (least) to 10 (most).,10728.200000047684,1669829763767,bagel plain,,1223.0,True,6.12,11951.200000047684,1223.0,True,HRV,HRV_0114,2022-11-30 17:37:50
2,"[{'imgObject': {}, 'id': 'roastedpotatoes', 'src': '/static/foodstim60/roastedpotatoes.jpg', 'key': 'NaN', 'origWidth': 409, 'origHeight': 410, 'width': 409, 'height': 410, 'widthPercent': 0.8, 'rescaleHeight': True, 'trialN': 2, 'loaded': True, 'loadedTime': 11954.5, 'positionName': 'CENTER', 'positionCoords': [755.5, 279.5]}]",Rate how much you want to eat this food from 0 (least) to 10 (most).,11952.0,1669829764991,roastedpotatoes,,1278.9000000357628,True,9.120000000000001,13230.900000035763,1278.9000000357628,True,HRV,HRV_0114,2022-11-30 17:37:50
3,"[{'imgObject': {}, 'id': 'apple slices', 'src': '/static/foodstim60/apple slices.jpg', 'key': 'NaN', 'origWidth': 409, 'origHeight': 410, 'width': 409, 'height': 410, 'widthPercent': 0.8, 'rescaleHeight': True, 'trialN': 3, 'loaded': True, 'loadedTime': 13233.600000023842, 'positionName': 'CENTER', 'positionCoords': [755.5, 279.5]}]",Rate how much you want to eat this food from 0 (least) to 10 (most).,13231.700000047684,1669829766271,apple slices,,1271.3999999761581,True,6.87,14503.100000023842,1271.3999999761581,True,HRV,HRV_0114,2022-11-30 17:37:50
4,"[{'imgObject': {}, 'id': 'Tribe humus pita', 'src': '/static/foodstim60/Tribe humus pita.jpg', 'key': 'NaN', 'origWidth': 411, 'origHeight': 411, 'width': 411, 'height': 411, 'widthPercent': 0.8, 'rescaleHeight': True, 'trialN': 4, 'loaded': True, 'loadedTime': 14505.700000047684, 'positionName': 'CENTER', 'positionCoords': [754.5, 279]}]",Rate how much you want to eat this food from 0 (least) to 10 (most).,14503.700000047684,1669829767543,Tribe humus pita,"[{'event': 'onblur', 'details': 'out of focus', 'performance time': 15137.200000047684, 'date time': 1669829768176}, {'event': 'onfocus', 'details': 'in focus', 'performance time': 19402.900000035763, 'date time': 1669829772442}]",6335.5,True,8.11,20839.200000047684,6335.5,True,HRV,HRV_0114,2022-11-30 17:37:50
5,"[{'imgObject': {}, 'id': 'chicken nuggets2', 'src': '/static/foodstim60/chicken nuggets2.jpg', 'key': 'NaN', 'origWidth': 410, 'origHeight': 409, 'width': 410, 'height': 409, 'widthPercent': 0.8, 'rescaleHeight': True, 'trialN': 5, 'loaded': True, 'loadedTime': 20841.900000035763, 'positionName': 'CENTER', 'positionCoords': [755, 280]}]",Rate how much you want to eat this food from 0 (least) to 10 (most).,20840.0,1669829773879,chicken nuggets2,,1495.0,True,9.23,22335.0,1495.0,True,HRV,HRV_0114,2022-11-30 17:37:50
6,"[{'imgObject': {}, 'id': 'chickenfingers', 'src': '/static/foodstim60/chickenfingers.jpg', 'key': 'NaN', 'origWidth': 410, 'origHeight': 410, 'width': 410, 'height': 410, 'widthPercent': 0.8, 'rescaleHeight': True, 'trialN': 6, 'loaded': True, 'loadedTime': 22337.600000023842, 'positionName': 'CENTER', 'positionCoords': [755, 279.5]}]",Rate how much you want to eat this food from 0 (least) to 10 (most).,22335.700000047684,1669829775375,chickenfingers,,1255.199999988079,True,8.47,23590.900000035763,1255.199999988079,True,HRV,HRV_0114,2022-11-30 17:37:50
7,"[{'imgObject': {}, 'id': 'rigatoni', 'src': '/static/foodstim60/rigatoni.jpg', 'key': 'NaN', 'origWidth': 411, 'origHeight': 411, 'width': 411, 'height': 411, 'widthPercent': 0.8, 'rescaleHeight': True, 'trialN': 7, 'loaded': True, 'loadedTime': 23593.600000023842, 'positionName': 'CENTER', 'positionCoords': [754.5, 279]}]",Rate how much you want to eat this food from 0 (least) to 10 (most).,23591.700000047684,1669829776631,rigatoni,,1216.2999999523163,True,9.33,24808.0,1216.2999999523163,True,HRV,HRV_0114,2022-11-30 17:37:50
8,"[{'imgObject': {}, 'id': 'eggs', 'src': '/static/foodstim60/eggs.jpg', 'key': 'NaN', 'origWidth': 409, 'origHeight': 409, 'width': 409, 'height': 409, 'widthPercent': 0.8, 'rescaleHeight': True, 'trialN': 8, 'loaded': True, 'loadedTime': 24811.200000047684, 'positionName': 'CENTER', 'positionCoords': [755.5, 280]}]",Rate how much you want to eat this food from 0 (least) to 10 (most).,24808.900000035763,1669829777848,eggs,,1702.0,True,8.45,26510.900000035763,1702.0,True,HRV,HRV_0114,2022-11-30 17:37:50
9,"[{'imgObject': {}, 'id': 'yogurt no spoon', 'src': '/static/foodstim60/yogurt no spoon.jpg', 'key': 'NaN', 'origWidth': 411, 'origHeight': 410, 'width': 411, 'height': 410, 'widthPercent': 0.8, 'rescaleHeight': True, 'trialN': 9, 'loaded': True, 'loadedTime': 26514.5, 'positionName': 'CENTER', 'positionCoords': [754.5, 279.5]}]",Rate how much you want to eat this food from 0 (least) to 10 (most).,26511.80000001192,1669829779551,yogurt no spoon,,1567.9000000357628,True,8.51,28079.700000047684,1567.9000000357628,True,HRV,HRV_0114,2022-11-30 17:37:50
10,"[{'imgObject': {}, 'id': 'salmon', 'src': '/static/foodstim60/salmon.jpg', 'key': 'NaN', 'origWidth': 410, 'origHeight': 409, 'width': 410, 'height': 409, 'widthPercent': 0.8, 'rescaleHeight': True, 'trialN': 10, 'loaded': True, 'loadedTime': 28082.400000035763, 'positionName': 'CENTER', 'positionCoords': [755, 280]}]",Rate how much you want to eat this food from 0 (least) to 10 (most).,28080.400000035763,1669829781119,salmon,,1759.0,True,1.93,29839.400000035763,1759.0,True,HRV,HRV_0114,2022-11-30 17:37:50
11,"[{'imgObject': {}, 'id': 'edamame', 'src': '/static/foodstim60/edamame.jpg', 'key': 'NaN', 'origWidth': 409, 'origHeight': 410, 'width': 409, 'height': 410, 'widthPercent': 0.8, 'rescaleHeight': True, 'trialN': 11, 'loaded': True, 'loadedTime': 29842.100000023842, 'positionName': 'CENTER', 'positionCoords': [755.5, 279.5]}]",Rate how much you want to eat this food from 0 (least) to 10 (most).,29840.100000023842,1669829782879,edamame,,1726.800000011921,True,8.59,31566.900000035763,1726.800000011921,True,HRV,HRV_0114,2022-11-30 17:37:50
12,"[{'imgObject': {}, 'id': 'mac & cheese', 'src': '/static/foodstim60/mac & cheese.jpg', 'key': 'NaN', 'origWidth': 410, 'origHeight': 410, 'width': 410, 'height': 410, 'widthPercent': 0.8, 'rescaleHeight': True, 'trialN': 12, 'loaded': True, 'loadedTime': 31569.900000035763, 'positionName': 'CENTER', 'positionCoords': [755, 279.5]}]",Rate how much you want to eat this food from 0 (least) to 10 (most).,31567.900000035763,1669829784607,mac & cheese,,1191.0,True,9.370000000000001,32758.900000035763,1191.0,True,HRV,HRV_0114,2022-11-30 17:37:50
13,"[{'imgObject': {}, 'id': 'mashed potato', 'src': '/static/foodstim60/mashed potato.jpg', 'key': 'NaN', 'origWidth': 409, 'origHeight': 409, 'width': 409, 'height': 409, 'widthPercent': 0.8, 'rescaleHeight': True, 'trialN': 13, 'loaded': True, 'loadedTime': 32762.700000047684, 'positionName': 'CENTER', 'positionCoords': [755.5, 280]}]",Rate how much you want to eat this food from 0 (least) to 10 (most).,32759.700000047684,1669829785799,mashed potato,,1463.5,True,9.86,34223.200000047684,1463.5,True,HRV,HRV_0114,2022-11-30 17:37:50
14,"[{'imgObject': {}, 'id': 'hashbrowns', 'src': '/static/foodstim60/hashbrowns.jpg', 'key': 'NaN', 'origWidth': 411, 'origHeight': 410, 'width': 411, 'height': 410, 'widthPercent': 0.8, 'rescaleHeight': True, 'trialN': 14, 'loaded': True, 'loadedTime': 34226.700000047684, 'positionName': 'CENTER', 'positionCoords': [754.5, 279.5]}]",Rate how much you want to eat this food from 0 (least) to 10 (most).,34224.0,1669829787263,hashbrowns,,2151.0,True,1.05,36375.0,2151.0,True,HRV,HRV_0114,2022-11-30 17:37:50
15,"[{'imgObject': {}, 'id': 'popsicles', 'src': '/static/foodstim60/popsicles.jpg', 'key': 'NaN', 'origWidth': 410, 'origHeight': 410, 'width': 410, 'height': 410, 'widthPercent': 0.8, 'rescaleHeight': True, 'trialN': 15, 'loaded': True, 'loadedTime': 36378.200000047684, 'positionName': 'CENTER', 'positionCoords': [755, 279.5]}]",Rate how much you want to eat this food from 0 (least) to 10 (most).,36376.10000002384,1669829789415,popsicles,,1135.199999988079,True,5.83,37511.30000001192,1135.199999988079,True,HRV,HRV_0114,2022-11-30 17:37:50
16,"[{'imgObject': {}, 'id': 'ice cream sundae 002', 'src': '/static/foodstim60/ice cream sundae 002.jpg', 'key': 'NaN', 'origWidth': 409, 'origHeight': 409, 'width': 409, 'height': 409, 'widthPercent': 0.8, 'rescaleHeight': True, 'trialN': 16, 'loaded': True, 'loadedTime': 37514.10000002384, 'positionName': 'CENTER', 'positionCoords': [755.5, 280]}]",Rate how much you want to eat this food from 0 (least) to 10 (most).,37512.10000002384,1669829790551,ice cream sundae 002,,1151.0,True,8.08,38663.10000002384,1151.0,True,HRV,HRV_0114,2022-11-30 17:37:50
17,"[{'imgObject': {}, 'id': 'mango', 'src': '/static/foodstim60/mango.jpg', 'key': 'NaN', 'origWidth': 411, 'origHeight': 411, 'width': 411, 'height': 411, 'widthPercent': 0.8, 'rescaleHeight': True, 'trialN': 17, 'loaded': True, 'loadedTime': 38666.200000047684, 'positionName': 'CENTER', 'positionCoords': [754.5, 279]}]",Rate how much you want to eat this food from 0 (least) to 10 (most).,38664.10000002384,1669829791703,mango,,1366.800000011921,True,1.82,40030.90000003576,1366.800000011921,True,HRV,HRV_0114,2022-11-30 17:37:50
18,"[{'imgObject': {}, 'id': 'avocado', 'src': '/static/foodstim60/avocado.jpg', 'key': 'NaN', 'origWidth': 409, 'origHeight': 409, 'width': 409, 'height': 409, 'widthPercent': 0.8, 'rescaleHeight': True, 'trialN': 18, 'loaded': True, 'loadedTime': 40033.80000001192, 'positionName': 'CENTER', 'positionCoords': [755.5, 280]}]",Rate how much you want to eat this food from 0 (least) to 10 (most).,40031.700000047684,1669829793071,avocado,,2063.2999999523163,True,5.5,42095.0,2063.2999999523163,True,HRV,HRV_0114,2022-11-30 17:37:50
19,"[{'imgObject': {}, 'id': 'baked potato', 'src': '/static/foodstim60/baked potato.jpg', 'key': 'NaN', 'origWidth': 409, 'origHeight': 410, 'width': 409, 'height': 410, 'widthPercent': 0.8, 'rescaleHeight': True, 'trialN': 19, 'loaded': True, 'loadedTime': 42098, 'positionName': 'CENTER', 'positionCoords': [755.5, 279.5]}]",Rate how much you want to eat this food from 0 (least) to 10 (most).,42095.80000001192,1669829795135,baked potato,,1351.199999988079,True,7.91,43447.0,1351.199999988079,True,HRV,HRV_0114,2022-11-30 17:37:50
20,"[{'imgObject': {}, 'id': 'olives', 'src': '/static/foodstim60/olives.jpg', 'key': 'NaN', 'origWidth': 410, 'origHeight': 410, 'width': 410, 'height': 410, 'widthPercent': 0.8, 'rescaleHeight': True, 'trialN': 20, 'loaded': True, 'loadedTime': 43450.10000002384, 'positionName': 'CENTER', 'positionCoords': [755, 279.5]}]",Rate how much you want to eat this food from 0 (least) to 10 (most).,43448.0,1669829796487,olives,,1566.9000000357628,True,3.81,45014.90000003576,1566.9000000357628,True,HRV,HRV_0114,2022-11-30 17:37:50
21,"[{'imgObject': {}, 'id': 'luckycharms', 'src': '/static/foodstim60/luckycharms.jpg', 'key': 'NaN', 'origWidth': 410, 'origHeight': 409, 'width': 410, 'height': 409, 'widthPercent': 0.8, 'rescaleHeight': True, 'trialN': 21, 'loaded': True, 'loadedTime': 45018, 'positionName': 'CENTER', 'positionCoords': [755, 280]}]",Rate how much you want to eat this food from 0 (least) to 10 (most).,45015.80000001192,1669829798055,luckycharms,,1407.199999988079,True,7.71,46423.0,1407.199999988079,True,HRV,HRV_0114,2022-11-30 17:37:50
22,"[{'imgObject': {}, 'id': 'cheerios', 'src': '/static/foodstim60/cheerios.jpg', 'key': 'NaN', 'origWidth': 409, 'origHeight': 410, 'width': 409, 'height': 410, 'widthPercent': 0.8, 'rescaleHeight': True, 'trialN': 22, 'loaded': True, 'loadedTime': 46426.200000047684, 'positionName': 'CENTER', 'positionCoords': [755.5, 279.5]}]",Rate how much you want to eat this food from 0 (least) to 10 (most).,46424.0,1669829799463,cheerios,,1407.0,True,4.08,47831.0,1407.0,True,HRV,HRV_0114,2022-11-30 17:37:50
23,"[{'imgObject': {}, 'id': 'fried eggs', 'src': '/static/foodstim60/fried eggs.jpg', 'key': 'NaN', 'origWidth': 410, 'origHeight': 410, 'width': 410, 'height': 410, 'widthPercent': 0.8, 'rescaleHeight': True, 'trialN': 23, 'loaded': True, 'loadedTime': 47833.5, 'positionName': 'CENTER', 'positionCoords': [755, 279.5]}]",Rate how much you want to eat this food from 0 (least) to 10 (most).,47831.700000047684,1669829800871,fried eggs,,1599.5,True,5.14,49431.200000047684,1599.5,True,HRV,HRV_0114,2022-11-30 17:37:50
24,"[{'imgObject': {}, 'id': 'shreddedwheatwithmilk', 'src': '/static/foodstim60/shreddedwheatwithmilk.jpg', 'key': 'NaN', 'origWidth': 410, 'origHeight': 410, 'width': 410, 'height': 410, 'widthPercent': 0.8, 'rescaleHeight': True, 'trialN': 24, 'loaded': True, 'loadedTime': 49433.80000001192, 'positionName': 'CENTER', 'positionCoords': [755, 279.5]}]",Rate how much you want to eat this food from 0 (least) to 10 (most).,49432.0,1669829802471,shreddedwheatwithmilk,,1303.1000000238419,True,3.86,50735.10000002384,1303.1000000238419,True,HRV,HRV_0114,2022-11-30 17:37:50
25,"[{'imgObject': {}, 'id': 'banana', 'src': '/static/foodstim60/banana.jpg', 'key': 'NaN', 'origWidth': 410, 'origHeight': 410, 'width': 410, 'height': 410, 'widthPercent': 0.8, 'rescaleHeight': True, 'trialN': 25, 'loaded': True, 'loadedTime': 50737.700000047684, 'positionName': 'CENTER', 'positionCoords': [755, 279.5]}]",Rate how much you want to eat this food from 0 (least) to 10 (most).,50736.0,1669829803775,banana,,1423.0,True,3.44,52159.0,1423.0,True,HRV,HRV_0114,2022-11-30 17:37:50
26,"[{'imgObject': {}, 'id': 'veggieswithdip', 'src': '/static/foodstim60/veggieswithdip.jpg', 'key': 'NaN', 'origWidth': 409, 'origHeight': 409, 'width': 409, 'height': 409, 'widthPercent': 0.8, 'rescaleHeight': True, 'trialN': 26, 'loaded': True, 'loadedTime': 52161.200000047684, 'positionName': 'CENTER', 'positionCoords': [755.5, 280]}]",Rate how much you want to eat this food from 0 (least) to 10 (most).,52159.60000002384,1669829805199,veggieswithdip,,1375.800000011921,True,6.88,53535.40000003576,1375.800000011921,True,HRV,HRV_0114,2022-11-30 17:37:50
27,"[{'imgObject': {}, 'id': 'cocktailshrimp', 'src': '/static/foodstim60/cocktailshrimp.jpg', 'key': 'NaN', 'origWidth': 410, 'origHeight': 410, 'width': 410, 'height': 410, 'widthPercent': 0.8, 'rescaleHeight': True, 'trialN': 27, 'loaded': True, 'loadedTime': 53540, 'positionName': 'CENTER', 'positionCoords': [755, 279.5]}]",Rate how much you want to eat this food from 0 (least) to 10 (most).,53536.90000003576,1669829806576,cocktailshrimp,,1262.3999999761581,True,8.46,54799.30000001192,1262.3999999761581,True,HRV,HRV_0114,2022-11-30 17:37:50
28,"[{'imgObject': {}, 'id': 'cantaloupe', 'src': '/static/foodstim60/cantaloupe.jpg', 'key': 'NaN', 'origWidth': 409, 'origHeight': 409, 'width': 409, 'height': 409, 'widthPercent': 0.8, 'rescaleHeight': True, 'trialN': 28, 'loaded': True, 'loadedTime': 54802.30000001192, 'positionName': 'CENTER', 'positionCoords': [755.5, 280]}]",Rate how much you want to eat this food from 0 (least) to 10 (most).,54800.40000003576,1669829807839,cantaloupe,,1742.800000011921,True,0.51,56543.200000047684,1742.800000011921,True,HRV,HRV_0114,2022-11-30 17:37:50
29,"[{'imgObject': {}, 'id': 'raisin bran w milk', 'src': '/static/foodstim60/raisin bran w milk.jpg', 'key': 'NaN', 'origWidth': 411, 'origHeight': 411, 'width': 411, 'height': 411, 'widthPercent': 0.8, 'rescaleHeight': True, 'trialN': 29, 'loaded': True, 'loadedTime': 56545.90000003576, 'positionName': 'CENTER', 'positionCoords': [754.5, 279]}]",Rate how much you want to eat this food from 0 (least) to 10 (most).,56544.0,1669829809583,raisin bran w milk,,1079.0,True,7.140000000000001,57623.0,1079.0,True,HRV,HRV_0114,2022-11-30 17:37:50
30,"[{'imgObject': {}, 'id': 'omelette', 'src': '/static/foodstim60/omelette.jpg', 'key': 'NaN', 'origWidth': 410, 'origHeight': 409, 'width': 410, 'height': 409, 'widthPercent': 0.8, 'rescaleHeight': True, 'trialN': 30, 'loaded': True, 'loadedTime': 57627.80000001192, 'positionName': 'CENTER', 'positionCoords': [755, 280]}]",Rate how much you want to eat this food from 0 (least) to 10 (most).,57624.0,1669829810663,omelette,,1615.2000000476837,True,2.98,59239.200000047684,1615.2000000476837,True,HRV,HRV_0114,2022-11-30 17:37:50
31,"[{'imgObject': {}, 'id': 'bagel and cc', 'src': '/static/foodstim60/bagel and cc.jpg', 'key': 'NaN', 'origWidth': 410, 'origHeight': 410, 'width': 410, 'height': 410, 'widthPercent': 0.8, 'rescaleHeight': True, 'trialN': 31, 'loaded': True, 'loadedTime': 59242.200000047684, 'positionName': 'CENTER', 'positionCoords': [755, 279.5]}]",Rate how much you want to eat this food from 0 (least) to 10 (most).,59240.0,1669829812278,bagel and cc,,1023.5,True,6.63,60263.5,1023.5,True,HRV,HRV_0114,2022-11-30 17:37:50
32,"[{'imgObject': {}, 'id': 'rigatoni and sauce', 'src': '/static/foodstim60/rigatoni and sauce.jpg', 'key': 'NaN', 'origWidth': 410, 'origHeight': 411, 'width': 410, 'height': 411, 'widthPercent': 0.8, 'rescaleHeight': True, 'trialN': 32, 'loaded': True, 'loadedTime': 60266.40000003576, 'positionName': 'CENTER', 'positionCoords': [755, 279]}]",Rate how much you want to eat this food from 0 (least) to 10 (most).,60264.40000003576,1669829813302,rigatoni and sauce,,1150.5999999642372,True,9.25,61415.0,1150.5999999642372,True,HRV,HRV_0114,2022-11-30 17:37:50
33,"[{'imgObject': {}, 'id': 'froot loops w milk', 'src': '/static/foodstim60/froot loops w milk.jpg', 'key': 'NaN', 'origWidth': 410, 'origHeight': 410, 'width': 410, 'height': 410, 'widthPercent': 0.8, 'rescaleHeight': True, 'trialN': 33, 'loaded': True, 'loadedTime': 61417.80000001192, 'positionName': 'CENTER', 'positionCoords': [755, 279.5]}]",Rate how much you want to eat this food from 0 (least) to 10 (most).,61415.80000001192,1669829814454,froot loops w milk,,1183.4000000357628,True,8.92,62599.200000047684,1183.4000000357628,True,HRV,HRV_0114,2022-11-30 17:37:50
34,"[{'imgObject': {}, 'id': 'steak', 'src': '/static/foodstim60/steak.jpg', 'key': 'NaN', 'origWidth': 410, 'origHeight': 410, 'width': 410, 'height': 410, 'widthPercent': 0.8, 'rescaleHeight': True, 'trialN': 34, 'loaded': True, 'loadedTime': 62602.10000002384, 'positionName': 'CENTER', 'positionCoords': [755, 279.5]}]",Rate how much you want to eat this food from 0 (least) to 10 (most).,62600.10000002384,1669829815638,steak,,1150.800000011921,True,9.76,63750.90000003576,1150.800000011921,True,HRV,HRV_0114,2022-11-30 17:37:50
35,"[{'imgObject': {}, 'id': 'cherries', 'src': '/static/foodstim60/cherries.jpg', 'key': 'NaN', 'origWidth': 410, 'origHeight': 411, 'width': 410, 'height': 411, 'widthPercent': 0.8, 'rescaleHeight': True, 'trialN': 35, 'loaded': True, 'loadedTime': 63753.90000003576, 'positionName': 'CENTER', 'positionCoords': [755, 279]}]",Rate how much you want to eat this food from 0 (least) to 10 (most).,63751.90000003576,1669829816790,cherries,,911.0999999642372,True,7.75,64663.0,911.0999999642372,True,HRV,HRV_0114,2022-11-30 17:37:50
36,"[{'imgObject': {}, 'id': 'burger', 'src': '/static/foodstim60/burger.jpg', 'key': 'NaN', 'origWidth': 409, 'origHeight': 409, 'width': 409, 'height': 409, 'widthPercent': 0.8, 'rescaleHeight': True, 'trialN': 36, 'loaded': True, 'loadedTime': 64665.90000003576, 'positionName': 'CENTER', 'positionCoords': [755.5, 280]}]",Rate how much you want to eat this food from 0 (least) to 10 (most).,64663.90000003576,1669829817702,burger,,1039.300000011921,True,8.83,65703.20000004768,1039.300000011921,True,HRV,HRV_0114,2022-11-30 17:37:50
37,"[{'imgObject': {}, 'id': 'fruitsalad', 'src': '/static/foodstim60/fruitsalad.jpg', 'key': 'NaN', 'origWidth': 410, 'origHeight': 410, 'width': 410, 'height': 410, 'widthPercent': 0.8, 'rescaleHeight': True, 'trialN': 37, 'loaded': True, 'loadedTime': 65706.30000001192, 'positionName': 'CENTER', 'positionCoords': [755, 279.5]}]",Rate how much you want to eat this food from 0 (least) to 10 (most).,65704.20000004768,1669829818742,fruitsalad,,1559.699999988079,True,6.83,67263.90000003576,1559.699999988079,True,HRV,HRV_0114,2022-11-30 17:37:50
38,"[{'imgObject': {}, 'id': 'hotdog w must', 'src': '/static/foodstim60/hotdog w must.jpg', 'key': 'NaN', 'origWidth': 409, 'origHeight': 409, 'width': 409, 'height': 409, 'widthPercent': 0.8, 'rescaleHeight': True, 'trialN': 38, 'loaded': True, 'loadedTime': 67267.10000002384, 'positionName': 'CENTER', 'positionCoords': [755.5, 280]}]",Rate how much you want to eat this food from 0 (least) to 10 (most).,67264.80000001192,1669829820303,hotdog w must,,1958.4000000357628,True,3.0,69223.20000004768,1958.4000000357628,True,HRV,HRV_0114,2022-11-30 17:37:50
39,"[{'imgObject': {}, 'id': 'grilled chicken strips', 'src': '/static/foodstim60/grilled chicken strips.jpg', 'key': 'NaN', 'origWidth': 410, 'origHeight': 411, 'width': 410, 'height': 411, 'widthPercent': 0.8, 'rescaleHeight': True, 'trialN': 39, 'loaded': True, 'loadedTime': 69226.90000003576, 'positionName': 'CENTER', 'positionCoords': [755, 279]}]",Rate how much you want to eat this food from 0 (least) to 10 (most).,69224.10000002384,1669829822262,grilled chicken strips,,1095.199999988079,True,6.41,70319.30000001192,1095.199999988079,True,HRV,HRV_0114,2022-11-30 17:37:50
40,"[{'imgObject': {}, 'id': 'granola w milk', 'src': '/static/foodstim60/granola w milk.jpg', 'key': 'NaN', 'origWidth': 410, 'origHeight': 410, 'width': 410, 'height': 410, 'widthPercent': 0.8, 'rescaleHeight': True, 'trialN': 40, 'loaded': True, 'loadedTime': 70321.60000002384, 'positionName': 'CENTER', 'positionCoords': [755, 279.5]}]",Rate how much you want to eat this food from 0 (least) to 10 (most).,70320.10000002384,1669829823358,granola w milk,,1398.8999999761581,True,1.67,71719.0,1398.8999999761581,True,HRV,HRV_0114,2022-11-30 17:37:50
41,"[{'imgObject': {}, 'id': 'seaweed', 'src': '/static/foodstim60/seaweed.jpg', 'key': 'NaN', 'origWidth': 410, 'origHeight': 410, 'width': 410, 'height': 410, 'widthPercent': 0.8, 'rescaleHeight': True, 'trialN': 41, 'loaded': True, 'loadedTime': 71721.80000001192, 'positionName': 'CENTER', 'positionCoords': [755, 279.5]}]",Rate how much you want to eat this food from 0 (least) to 10 (most).,71719.80000001192,1669829824758,seaweed,,1511.5,True,1.5,73231.30000001192,1511.5,True,HRV,HRV_0114,2022-11-30 17:37:50
42,"[{'imgObject': {}, 'id': 'turkey sandwich', 'src': '/static/foodstim60/turkey sandwich.jpg', 'key': 'NaN', 'origWidth': 409, 'origHeight': 409, 'width': 409, 'height': 409, 'widthPercent': 0.8, 'rescaleHeight': True, 'trialN': 42, 'loaded': True, 'loadedTime': 73234.40000003576, 'positionName': 'CENTER', 'positionCoords': [755.5, 280]}]",Rate how much you want to eat this food from 0 (least) to 10 (most).,73232.20000004768,1669829826270,turkey sandwich,,1303.699999988079,True,7.47,74535.90000003576,1303.699999988079,True,HRV,HRV_0114,2022-11-30 17:37:50
43,"[{'imgObject': {}, 'id': 'lox', 'src': '/static/foodstim60/lox.jpg', 'key': 'NaN', 'origWidth': 410, 'origHeight': 411, 'width': 410, 'height': 411, 'widthPercent': 0.8, 'rescaleHeight': True, 'trialN': 43, 'loaded': True, 'loadedTime': 74539.10000002384, 'positionName': 'CENTER', 'positionCoords': [755, 279]}]",Rate how much you want to eat this food from 0 (least) to 10 (most).,74537.10000002384,1669829827575,lox,,20942.0,True,7.38,95479.10000002384,20942.0,True,HRV,HRV_0114,2022-11-30 17:37:50
44,"[{'imgObject': {}, 'id': 'orange slices', 'src': '/static/foodstim60/orange slices.jpg', 'key': 'NaN', 'origWidth': 409, 'origHeight': 410, 'width': 409, 'height': 410, 'widthPercent': 0.8, 'rescaleHeight': True, 'trialN': 44, 'loaded': True, 'loadedTime': 95482.5, 'positionName': 'CENTER', 'positionCoords': [755.5, 279.5]}]",Rate how much you want to eat this food from 0 (least) to 10 (most).,95480.5,1669829848518,orange slices,,2815.0,True,8.69,98295.5,2815.0,True,HRV,HRV_0114,2022-11-30 17:37:50
45,"[{'imgObject': {}, 'id': 'raspberries', 'src': '/static/foodstim60/raspberries.jpg', 'key': 'NaN', 'origWidth': 411, 'origHeight': 411, 'width': 411, 'height': 411, 'widthPercent': 0.8, 'rescaleHeight': True, 'trialN': 45, 'loaded': True, 'loadedTime': 98298.20000004768, 'positionName': 'CENTER', 'positionCoords': [754.5, 279]}]",Rate how much you want to eat this food from 0 (least) to 10 (most).,98296.30000001192,1669829851334,raspberries,,1494.800000011921,True,9.15,99791.10000002384,1494.800000011921,True,HRV,HRV_0114,2022-11-30 17:37:50
46,"[{'imgObject': {}, 'id': 'kiwi', 'src': '/static/foodstim60/kiwi.jpg', 'key': 'NaN', 'origWidth': 410, 'origHeight': 410, 'width': 410, 'height': 410, 'widthPercent': 0.8, 'rescaleHeight': True, 'trialN': 46, 'loaded': True, 'loadedTime': 99793.90000003576, 'positionName': 'CENTER', 'positionCoords': [755, 279.5]}]",Rate how much you want to eat this food from 0 (least) to 10 (most).,99791.90000003576,1669829852830,kiwi,,1143.0999999642372,True,6.97,100935.0,1143.0999999642372,True,HRV,HRV_0114,2022-11-30 17:37:50
47,"[{'imgObject': {}, 'id': 'pear', 'src': '/static/foodstim60/pear.jpg', 'key': 'NaN', 'origWidth': 411, 'origHeight': 410, 'width': 411, 'height': 410, 'widthPercent': 0.8, 'rescaleHeight': True, 'trialN': 47, 'loaded': True, 'loadedTime': 100937.70000004768, 'positionName': 'CENTER', 'positionCoords': [754.5, 279.5]}]",Rate how much you want to eat this food from 0 (least) to 10 (most).,100935.70000004768,1669829853974,pear,,711.2999999523163,True,9.120000000000001,101647.0,711.2999999523163,True,HRV,HRV_0114,2022-11-30 17:37:50
48,"[{'imgObject': {}, 'id': 'burrito', 'src': '/static/foodstim60/burrito.jpg', 'key': 'NaN', 'origWidth': 410, 'origHeight': 410, 'width': 410, 'height': 410, 'widthPercent': 0.8, 'rescaleHeight': True, 'trialN': 48, 'loaded': True, 'loadedTime': 101649.80000001192, 'positionName': 'CENTER', 'positionCoords': [755, 279.5]}]",Rate how much you want to eat this food from 0 (least) to 10 (most).,101647.80000001192,1669829854686,burrito,,1391.199999988079,True,9.0,103039.0,1391.199999988079,True,HRV,HRV_0114,2022-11-30 17:37:50
49,"[{'imgObject': {}, 'id': 'cherry tomato', 'src': '/static/foodstim60/cherry tomato.jpg', 'key': 'NaN', 'origWidth': 410, 'origHeight': 410, 'width': 410, 'height': 410, 'widthPercent': 0.8, 'rescaleHeight': True, 'trialN': 49, 'loaded': True, 'loadedTime': 103041.80000001192, 'positionName': 'CENTER', 'positionCoords': [755, 279.5]}]",Rate how much you want to eat this food from 0 (least) to 10 (most).,103039.80000001192,1669829856078,cherry tomato,,1191.5,True,9.56,104231.30000001192,1191.5,True,HRV,HRV_0114,2022-11-30 17:37:50
50,"[{'imgObject': {}, 'id': 'sweetpotato', 'src': '/static/foodstim60/sweetpotato.jpg', 'key': 'NaN', 'origWidth': 410, 'origHeight': 410, 'width': 410, 'height': 410, 'widthPercent': 0.8, 'rescaleHeight': True, 'trialN': 50, 'loaded': True, 'loadedTime': 104234.40000003576, 'positionName': 'CENTER', 'positionCoords': [755, 279.5]}]",Rate how much you want to eat this food from 0 (least) to 10 (most).,104232.40000003576,1669829857270,sweetpotato,,1398.5999999642372,True,9.3,105631.0,1398.5999999642372,True,HRV,HRV_0114,2022-11-30 17:37:50
51,"[{'imgObject': {}, 'id': 'eggsalad', 'src': '/static/foodstim60/eggsalad.jpg', 'key': 'NaN', 'origWidth': 410, 'origHeight': 409, 'width': 410, 'height': 409, 'widthPercent': 0.8, 'rescaleHeight': True, 'trialN': 51, 'loaded': True, 'loadedTime': 105633.90000003576, 'positionName': 'CENTER', 'positionCoords': [755, 280]}]",Rate how much you want to eat this food from 0 (least) to 10 (most).,105631.90000003576,1669829858670,eggsalad,,1847.3999999761581,True,7.97,107479.30000001192,1847.3999999761581,True,HRV,HRV_0114,2022-11-30 17:37:50
52,"[{'imgObject': {}, 'id': 'blackbeanswithrice', 'src': '/static/foodstim60/blackbeanswithrice.jpg', 'key': 'NaN', 'origWidth': 410, 'origHeight': 410, 'width': 410, 'height': 410, 'widthPercent': 0.8, 'rescaleHeight': True, 'trialN': 52, 'loaded': True, 'loadedTime': 107482.40000003576, 'positionName': 'CENTER', 'positionCoords': [755, 279.5]}]",Rate how much you want to eat this food from 0 (least) to 10 (most).,107480.20000004768,1669829860518,blackbeanswithrice,,1135.0999999642372,True,8.53,108615.30000001192,1135.0999999642372,True,HRV,HRV_0114,2022-11-30 17:37:50
53,"[{'imgObject': {}, 'id': 'Grapes', 'src': '/static/foodstim60/Grapes.jpg', 'key': 'NaN', 'origWidth': 411, 'origHeight': 411, 'width': 411, 'height': 411, 'widthPercent': 0.8, 'rescaleHeight': True, 'trialN': 53, 'loaded': True, 'loadedTime': 108620.60000002384, 'positionName': 'CENTER', 'positionCoords': [754.5, 279]}]",Rate how much you want to eat this food from 0 (least) to 10 (most).,108616.80000001192,1669829861655,Grapes,,678.1999999880791,True,8.540000000000001,109295.0,678.1999999880791,True,HRV,HRV_0114,2022-11-30 17:37:50
54,"[{'imgObject': {}, 'id': 'salad w chicken', 'src': '/static/foodstim60/salad w chicken.jpg', 'key': 'NaN', 'origWidth': 411, 'origHeight': 411, 'width': 411, 'height': 411, 'widthPercent': 0.8, 'rescaleHeight': True, 'trialN': 54, 'loaded': True, 'loadedTime': 109298.10000002384, 'positionName': 'CENTER', 'positionCoords': [754.5, 279]}]",Rate how much you want to eat this food from 0 (least) to 10 (most).,109295.90000003576,1669829862334,salad w chicken,,2655.099999964237,True,6.53,111951.0,2655.099999964237,True,HRV,HRV_0114,2022-11-30 17:37:50
55,"[{'imgObject': {}, 'id': 'corn cob', 'src': '/static/foodstim60/corn cob.jpg', 'key': 'NaN', 'origWidth': 411, 'origHeight': 411, 'width': 411, 'height': 411, 'widthPercent': 0.8, 'rescaleHeight': True, 'trialN': 55, 'loaded': True, 'loadedTime': 111954, 'positionName': 'CENTER', 'positionCoords': [754.5, 279]}]",Rate how much you want to eat this food from 0 (least) to 10 (most).,111952.10000002384,1669829864990,corn cob,,846.8000000119209,True,7.94,112798.90000003576,846.8000000119209,True,HRV,HRV_0114,2022-11-30 17:37:50
56,"[{'imgObject': {}, 'id': 'tacos', 'src': '/static/foodstim60/tacos.jpg', 'key': 'NaN', 'origWidth': 411, 'origHeight': 411, 'width': 411, 'height': 411, 'widthPercent': 0.8, 'rescaleHeight': True, 'trialN': 56, 'loaded': True, 'loadedTime': 112802.10000002384, 'positionName': 'CENTER', 'positionCoords': [754.5, 279]}]",Rate how much you want to eat this food from 0 (least) to 10 (most).,112800.0,1669829865838,tacos,,1031.1000000238419,True,9.38,113831.10000002384,1031.1000000238419,True,HRV,HRV_0114,2022-11-30 17:37:50
57,"[{'imgObject': {}, 'id': 'turkeysandwich', 'src': '/static/foodstim60/turkeysandwich.jpg', 'key': 'NaN', 'origWidth': 409, 'origHeight': 409, 'width': 409, 'height': 409, 'widthPercent': 0.8, 'rescaleHeight': True, 'trialN': 57, 'loaded': True, 'loadedTime': 113834.30000001192, 'positionName': 'CENTER', 'positionCoords': [755.5, 280]}]",Rate how much you want to eat this food from 0 (least) to 10 (most).,113832.10000002384,1669829866870,turkeysandwich,,1063.300000011921,True,7.26,114895.40000003576,1063.300000011921,True,HRV,HRV_0114,2022-11-30 17:37:50
58,"[{'imgObject': {}, 'id': 'sushi w_condiments', 'src': '/static/foodstim60/sushi w_condiments.jpg', 'key': 'NaN', 'origWidth': 410, 'origHeight': 410, 'width': 410, 'height': 410, 'widthPercent': 0.8, 'rescaleHeight': True, 'trialN': 58, 'loaded': True, 'loadedTime': 114898, 'positionName': 'CENTER', 'positionCoords': [755, 279.5]}]",Rate how much you want to eat this food from 0 (least) to 10 (most).,114896.20000004768,1669829867934,sushi w_condiments,,967.1999999880791,True,8.870000000000001,115863.40000003576,967.1999999880791,True,HRV,HRV_0114,2022-11-30 17:37:50
59,"[{'imgObject': {}, 'id': 'strawberries', 'src': '/static/foodstim60/strawberries.jpg', 'key': 'NaN', 'origWidth': 410, 'origHeight': 410, 'width': 410, 'height': 410, 'widthPercent': 0.8, 'rescaleHeight': True, 'trialN': 59, 'loaded': True, 'loadedTime': 115865.70000004768, 'positionName': 'CENTER', 'positionCoords': [755, 279.5]}]",Rate how much you want to eat this food from 0 (least) to 10 (most).,115864.10000002384,1669829868902,strawberries,,990.8999999761581,True,8.34,116855.0,990.8999999761581,True,HRV,HRV_0114,2022-11-30 17:37:50
