success,trial_type,trial_index,time_elapsed,internal_node_id,Block,TrialNumber,TrialTime,trialTimeDiff,FPS_avg,FPS_med,FPS_mode,TrialDur,winResizeTime,rt,block,button_pressed,MotCoh,MotDir,ColCoh,Color,ChoiceKey,Choice,Accuracy,RT,nFrames,FPS,PPD,missTrial,missTrialMsg,onsetDelay,fullScreenExitTime,canvCenter,TrialType,Score,BlockTrial,stimulus,button_labels,exp,subjectId,date
True,fullscreen,0,1520,0.0-0.0,0.0,1.0,,,,,,,,,,,,,,,,,,,,,,,,,,,,,,,,HRV,HRV_0114,2022-11-30 18:34:44
,wl-check-fps,1,6505,0.0-1.0,0.0,2.0,"[1793, 1793.4, 1808.4, 1825.3, 1842, 1858.4, 1875.5, 1892.6, 1908.6, 1925.4, 1943.5, 1958.9, 1976, 1992.3, 2008.5, 2025.6, 2043.7, 2058.7, 2075, 2092, 2108.7, 2126, 2142.7, 2158.9, 2175.6, 2193.2, 2209.3, 2226.1, 2242.5, 2258.3, 2275.1, 2291.5, 2308.2, 2324.8, 2342, 2358.8, 2374.9, 2391.8, 2408.5, 2425.3, 2441.9, 2458.3, 2474.9, 2491.7, 2508.5, 2524.7, 2541.8, 2558.4, 2574.7, 2591.4, 2608.1, 2624.9, 2642.1, 2658.5, 2674.8, 2691.6, 2707.9, 2724.5, 2741.7, 2757.9, 2775, 2791.3, 2808.5, 2825, 2841.9, 2857.9, 2875.1, 2891.4, 2908.2, 2924.7, 2941.3, 2958.4, 2974.3, 2991.8, 3008, 3024.9, 3041.6, 3058, 3074.5, 3091, 3107.6, 3124.5, 3141.3, 3158.2, 3174.4, 3191.7, 3207.6, 3224.2, 3241.3, 3259.1, 3274.8, 3291.1, 3307.9, 3325.2, 3341.5, 3359.2, 3374.2, 3391.3, 3407.8, 3424.6, 3441, 3457.8, 3474.5, 3491.2, 3507.8, 3525, 3541.2, 3557.9, 3574.4, 3590.9, 3607.5, 3624.4, 3642.7, 3657.6, 3674.2, 3690.9, 3707.7, 3724.2, 3740.8, 3757.2, 3774.8, 3791, 3808.1, 3824.3, 3841, 3857.6, 3874.6, 3890.7, 3907.5, 3924.5, 3940.8, 3957.3, 3974.2, 3990.9, 4008.2, 4024.2, 4040.9, 4057.8, 4074, 4090.6, 4107.7, 4124.3, 4140.5, 4157.3, 4175.2, 4190.5, 4207.2, 4224.1, 4240.8, 4258.2, 4274.5, 4290.7, 4307.2, 4324.1, 4340.9, 4357.4, 4374, 4390.5, 4408.1, 4423.9, 4441.5, 4457.3, 4475.3, 4490.7, 4507, 4523.9, 4541.5, 4557.9, 4573.7, 4590.7, 4607.5, 4623.9, 4641.4, 4657.2, 4674.1, 4690.4, 4707.7, 4723.7, 4740.9, 4757.9, 4773.8, 4790.6, 4807.4, 4824.8, 4840.4, 4856.9, 4873.9, 4890.2, 4907, 4923.7, 4940.7, 4957.5, 4973.7, 4991.9, 5007.5, 5023.8, 5040.1, 5057.2, 5073.9, 5090.3, 5106.9, 5123.6, 5140.4, 5157.1, 5173.6, 5190.7, 5206.9, 5223.1, 5240.1, 5257.1, 5274.4, 5290, 5307, 5324, 5341.4, 5356.6, 5373.3, 5389.8, 5406.9, 5423.8, 5440.7, 5457.7, 5473.5, 5490.4, 5508.4, 5525.5, 5540.9, 5558.8, 5573.9, 5589.9, 5607.2, 5623.5, 5641.7, 5657.6, 5674.2, 5690.6, 5708.4, 5724.4, 5740.5, 5757.1, 5774.1, 5790.9, 5807.9, 5824.1, 5840.6, 5857.2, 5874.2, 5890.7, 5906.5, 5923, 5940.1, 5956.8, 5973.9, 5990.3, 6008.4, 6023.5, 6040, 6056.6, 6073.4, 6089.6, 6107.3, 6124.4, 6140.5, 6156.1, 6173.1, 6190.7, 6206, 6223.4, 6239.6, 6256.3, 6273.1, 6289.8, 6306.8, 6323.3, 6340.4, 6356, 6372.9, 6389.9, 6406.6, 6423.3, 6439.8, 6456.3, 6473.4, 6490, 6506.1, 6523, 6540.2, 6556.9, 6572.8, 6589.7, 6606.2, 6622.7, 6640.7, 6656.1, 6673, 6689.7, 6706.2, 6722.7, 6739.4, 6756.6]","[2.2, 0.4, 15, 16.9, 16.7, 16.4, 17.1, 17.1, 16, 16.8, 18.1, 15.4, 17.1, 16.3, 16.2, 17.1, 18.1, 15, 16.3, 17, 16.7, 17.3, 16.7, 16.2, 16.7, 17.6, 16.1, 16.8, 16.4, 15.8, 16.8, 16.4, 16.7, 16.6, 17.2, 16.8, 16.1, 16.9, 16.7, 16.8, 16.6, 16.4, 16.6, 16.8, 16.8, 16.2, 17.1, 16.6, 16.3, 16.7, 16.7, 16.8, 17.2, 16.4, 16.3, 16.8, 16.3, 16.6, 17.2, 16.2, 17.1, 16.3, 17.2, 16.5, 16.9, 16, 17.2, 16.3, 16.8, 16.5, 16.6, 17.1, 15.9, 17.5, 16.2, 16.9, 16.7, 16.4, 16.5, 16.5, 16.6, 16.9, 16.8, 16.9, 16.2, 17.3, 15.9, 16.6, 17.1, 17.8, 15.7, 16.3, 16.8, 17.3, 16.3, 17.7, 15, 17.1, 16.5, 16.8, 16.4, 16.8, 16.7, 16.7, 16.6, 17.2, 16.2, 16.7, 16.5, 16.5, 16.6, 16.9, 18.3, 14.9, 16.6, 16.7, 16.8, 16.5, 16.6, 16.4, 17.6, 16.2, 17.1, 16.2, 16.7, 16.6, 17, 16.1, 16.8, 17, 16.3, 16.5, 16.9, 16.7, 17.3, 16, 16.7, 16.9, 16.2, 16.6, 17.1, 16.6, 16.2, 16.8, 17.9, 15.3, 16.7, 16.9, 16.7, 17.4, 16.3, 16.2, 16.5, 16.9, 16.8, 16.5, 16.6, 16.5, 17.6, 15.8, 17.6, 15.8, 18, 15.4, 16.3, 16.9, 17.6, 16.4, 15.8, 17, 16.8, 16.4, 17.5, 15.8, 16.9, 16.3, 17.3, 16, 17.2, 17, 15.9, 16.8, 16.8, 17.4, 15.6, 16.5, 17, 16.3, 16.8, 16.7, 17, 16.8, 16.2, 18.2, 15.6, 16.3, 16.3, 17.1, 16.7, 16.4, 16.6, 16.7, 16.8, 16.7, 16.5, 17.1, 16.2, 16.2, 17, 17, 17.3, 15.6, 17, 17, 17.4, 15.2, 16.7, 16.5, 17.1, 16.9, 16.9, 17, 15.8, 16.9, 18, 17.1, 15.4, 17.9, 15.1, 16, 17.3, 16.3, 18.2, 15.9, 16.6, 16.4, 17.8, 16, 16.1, 16.6, 17, 16.8, 17, 16.2, 16.5, 16.6, 17, 16.5, 15.8, 16.5, 17.1, 16.7, 17.1, 16.4, 18.1, 15.1, 16.5, 16.6, 16.8, 16.2, 17.7, 17.1, 16.1, 15.6, 17, 17.6, 15.3, 17.4, 16.2, 16.7, 16.8, 16.7, 17, 16.5, 17.1, 15.6, 16.9, 17, 16.7, 16.7, 16.5, 16.5, 17.1, 16.6, 16.1, 16.9, 17.2, 16.7, 15.9, 16.9, 16.5, 16.5, 18, 15.4, 16.9, 16.7, 16.5, 16.5, 16.7, 17.2]",60.0,59.0,60.0,4982.3,[],,,,,,,,,,,,,,,,,,,,,,,,,HRV,HRV_0114,2022-11-30 18:34:44
,wl-html-keyboard-response,2,13975,0.0-2.0-0.0,0.0,3.0,,,,,,,,5463.300000011921,0.0,0,,,,,,,,,,,,,,,,,,,,,,HRV,HRV_0114,2022-11-30 18:34:44
,wl-rdm,3,21362,0.0-3.0-0.0,0.0,4.0,,,,,,,[],,,,0.0,0.0,87.9,0.0,u,0.0,True,1800.5999999642372,109.0,60.0,40.0,False,,3000.0,[],"[960, 540]",ColorTask_Demo,,,,,HRV,HRV_0114,2022-11-30 18:34:44
,wl-rdm,4,36955,0.0-3.0-1.0,0.0,5.0,,,,,,,[],,,,0.0,0.0,87.9,1.0,i,1.0,True,1944.9000000357628,117.0,60.0,40.0,False,too_early ,2000.0,[],"[960, 540]",ColorTask_Demo,,,,,HRV,HRV_0114,2022-11-30 18:34:44
,wl-html-keyboard-response,5,39239,0.0-3.0-2.0,0.0,6.0,,,,,,,,278.0,0.0,1,,,,,,,,,,,,,,,,,,,,,,HRV,HRV_0114,2022-11-30 18:34:44
,wl-html-keyboard-response,6,199055,0.0-4.0-0.0,0.0,6.0,,,,,,,,157809.60000002384,0.0,0,,,,,,,,,,,,True,undefinedblurEvent ,,,,,,,,,HRV,HRV_0114,2022-11-30 18:34:44
,wl-html-keyboard-response,7,206911,0.0-5.0-0.0,0.0,7.0,,,,,,,,5849.599999964237,0.0,0,,,,,,,,,,,,,,,,,,,,,,HRV,HRV_0114,2022-11-30 18:34:44
,wl-rdm,8,211221,0.0-6.0-0.0,0.0,7.0,,,,,,,[],,,,,,62.5,0.0,u,,,3057.400000035763,179.0,60.0,40.0,True,RT_timeout ,204.35909100643738,[],"[960, 540]",ColorTask,-1.0,1.0,,,HRV,HRV_0114,2022-11-30 18:34:44
,wl-rdm,9,213220,0.0-6.1-0.1,0.0,8.0,,,,,,,[],,,,,,87.9,0.0,u,0.0,True,553.7999999523163,34.0,60.0,40.0,False,,364.3731075045969,[],"[960, 540]",ColorTask,0.0,2.0,,,HRV,HRV_0114,2022-11-30 18:34:44
,wl-rdm,10,215068,0.0-6.2-0.2,0.0,9.0,,,,,,,[],,,,,,50.0,0.0,u,0.0,True,502.4000000357628,31.0,60.0,40.0,False,,260.9236597327293,[],"[960, 540]",ColorTask,1.0,3.0,,,HRV,HRV_0114,2022-11-30 18:34:44
,wl-rdm,11,217068,0.0-6.3-0.3,0.0,10.0,,,,,,,[],,,,,,53.2,0.0,u,0.0,True,694.8000000119209,42.0,60.0,40.0,False,,216.42212865811123,[],"[960, 540]",ColorTask,2.0,4.0,,,HRV,HRV_0114,2022-11-30 18:34:44
,wl-rdm,12,218983,0.0-6.4-0.4,0.0,11.0,,,,,,,[],,,,,,73.6,1.0,i,1.0,True,602.1000000238419,37.0,60.0,40.0,False,,216.4701505061793,[],"[960, 540]",ColorTask,3.0,5.0,,,HRV,HRV_0114,2022-11-30 18:34:44
,wl-rdm,13,221116,0.0-6.5-0.5,0.0,12.0,,,,,,,[],,,,,,73.6,1.0,i,1.0,True,678.8000000119209,41.0,60.0,40.0,False,,376.7844423732803,[],"[960, 540]",ColorTask,4.0,6.0,,,HRV,HRV_0114,2022-11-30 18:34:44
,wl-rdm,14,223114,0.0-6.6-0.6,0.0,13.0,,,,,,,[],,,,,,87.9,1.0,i,1.0,True,612.9000000357628,37.0,60.0,40.0,False,,301.1413044002917,[],"[960, 540]",ColorTask,5.0,7.0,,,HRV,HRV_0114,2022-11-30 18:34:44
,wl-rdm,15,225331,0.0-6.7-0.7,0.0,14.0,,,,,,,[],,,,,,62.5,0.0,u,0.0,True,788.3000000119209,48.0,60.0,40.0,False,,336.4687601302201,[],"[960, 540]",ColorTask,6.0,8.0,,,HRV,HRV_0114,2022-11-30 18:34:44
,wl-rdm,16,227528,0.0-6.8-0.8,0.0,15.0,,,,,,,[],,,,,,56.4,0.0,i,1.0,False,881.0999999642372,53.0,60.0,40.0,False,,237.5407985136229,[],"[960, 540]",ColorTask,5.0,9.0,,,HRV,HRV_0114,2022-11-30 18:34:44
,wl-rdm,17,229494,0.0-6.9-0.9,0.0,16.0,,,,,,,[],,,,,,62.5,1.0,u,0.0,False,525.3999999761581,32.0,60.0,40.0,False,,361.68791937287864,[],"[960, 540]",ColorTask,4.0,10.0,,,HRV,HRV_0114,2022-11-30 18:34:44
,wl-rdm,18,231794,0.0-6.10-0.10,0.0,17.0,,,,,,,[],,,,,,87.9,0.0,u,0.0,True,906.9000000357628,55.0,60.0,40.0,False,,309.96798279070106,[],"[960, 540]",ColorTask,5.0,11.0,,,HRV,HRV_0114,2022-11-30 18:34:44
,wl-rdm,19,233676,0.0-6.11-0.11,0.0,18.0,,,,,,,[],,,,,,56.4,1.0,i,1.0,True,460.30000001192093,28.0,60.0,40.0,False,,348.51207743864916,[],"[960, 540]",ColorTask,6.0,12.0,,,HRV,HRV_0114,2022-11-30 18:34:44
,wl-rdm,20,235808,0.0-6.12-0.12,0.0,19.0,,,,,,,[],,,,,,50.0,1.0,u,0.0,False,798.3999999761581,48.0,60.0,40.0,False,,265.94446160735106,[],"[960, 540]",ColorTask,5.0,13.0,,,HRV,HRV_0114,2022-11-30 18:34:44
,wl-rdm,21,238056,0.0-6.13-0.13,0.0,20.0,,,,,,,[],,,,,,56.4,0.0,u,0.0,True,812.7999999523163,49.0,60.0,40.0,False,,378.881871941175,[],"[960, 540]",ColorTask,6.0,14.0,,,HRV,HRV_0114,2022-11-30 18:34:44
,wl-rdm,22,240306,0.0-6.14-0.14,0.0,21.0,,,,,,,[],,,,,,50.0,1.0,u,0.0,False,829.3000000119209,50.0,60.0,40.0,False,,355.4158189402791,[],"[960, 540]",ColorTask,5.0,15.0,,,HRV,HRV_0114,2022-11-30 18:34:44
,wl-rdm,23,242305,0.0-6.15-0.15,0.0,22.0,,,,,,,[],,,,,,73.6,1.0,u,0.0,False,680.7999999523163,41.0,60.0,40.0,False,,244.62717595998527,[],"[960, 540]",ColorTask,4.0,16.0,,,HRV,HRV_0114,2022-11-30 18:34:44
,wl-rdm,24,244387,0.0-6.16-0.16,0.0,23.0,,,,,,,[],,,,,,87.9,0.0,u,0.0,True,710.3999999761581,43.0,60.0,40.0,False,,302.5179291132566,[],"[960, 540]",ColorTask,5.0,17.0,,,HRV,HRV_0114,2022-11-30 18:34:44
,wl-rdm,25,246820,0.0-6.17-0.17,0.0,24.0,,,,,,,[],,,,,,50.0,0.0,u,0.0,True,961.6999999880791,58.0,60.0,40.0,False,,394.88185189775754,[],"[960, 540]",ColorTask,6.0,18.0,,,HRV,HRV_0114,2022-11-30 18:34:44
,wl-rdm,26,248735,0.0-6.18-0.18,0.0,25.0,,,,,,,[],,,,,,73.6,0.0,i,1.0,False,640.1999999880791,39.0,60.0,40.0,False,,214.8616685602174,[],"[960, 540]",ColorTask,5.0,19.0,,,HRV,HRV_0114,2022-11-30 18:34:44
,wl-rdm,27,250517,0.0-6.19-0.19,0.0,26.0,,,,,,,[],,,,,,53.2,0.0,u,0.0,True,435.10000002384186,27.0,60.0,40.0,False,,256.5365046345147,[],"[960, 540]",ColorTask,6.0,20.0,,,HRV,HRV_0114,2022-11-30 18:34:44
,wl-rdm,28,252634,0.0-6.20-0.20,0.0,27.0,,,,,,,[],,,,,,56.4,1.0,u,0.0,False,746.8000000119209,45.0,60.0,40.0,False,,288.92032953667183,[],"[960, 540]",ColorTask,5.0,21.0,,,HRV,HRV_0114,2022-11-30 18:34:44
,wl-rdm,29,254866,0.0-6.21-0.21,0.0,28.0,,,,,,,[],,,,,,62.5,0.0,u,0.0,True,847.1999999880791,51.0,60.0,40.0,False,,315.98441842550113,[],"[960, 540]",ColorTask,6.0,22.0,,,HRV,HRV_0114,2022-11-30 18:34:44
,wl-rdm,30,256915,0.0-6.22-0.22,0.0,29.0,,,,,,,[],,,,,,56.4,1.0,i,1.0,True,679.4000000357628,41.0,60.0,40.0,False,,285.0915565090579,[],"[960, 540]",ColorTask,7.0,23.0,,,HRV,HRV_0114,2022-11-30 18:34:44
,wl-rdm,31,259098,0.0-6.23-0.23,0.0,30.0,,,,,,,[],,,,,,53.2,0.0,u,0.0,True,772.5,47.0,60.0,40.0,False,,347.4227433340553,[],"[960, 540]",ColorTask,8.0,24.0,,,HRV,HRV_0114,2022-11-30 18:34:44
,wl-rdm,32,261246,0.0-6.24-0.24,0.0,31.0,,,,,,,[],,,,,,62.5,1.0,u,0.0,False,691.8999999761581,42.0,60.0,40.0,False,,394.6791664919824,[],"[960, 540]",ColorTask,7.0,25.0,,,HRV,HRV_0114,2022-11-30 18:34:44
,wl-rdm,33,263162,0.0-6.25-0.25,0.0,32.0,,,,,,,[],,,,,,56.4,0.0,u,0.0,True,629.7000000476837,38.0,60.0,40.0,False,,231.47357939796203,[],"[960, 540]",ColorTask,8.0,26.0,,,HRV,HRV_0114,2022-11-30 18:34:44
,wl-rdm,34,265512,0.0-6.26-0.26,0.0,33.0,,,,,,,[],,,,,,53.2,1.0,i,1.0,True,875.5,53.0,60.0,40.0,False,,389.7543229087306,[],"[960, 540]",ColorTask,9.0,27.0,,,HRV,HRV_0114,2022-11-30 18:34:44
,wl-rdm,35,267760,0.0-6.27-0.27,0.0,34.0,,,,,,,[],,,,,,56.4,1.0,i,1.0,True,807.8999999761581,49.0,60.0,40.0,False,,358.8435107760513,[],"[960, 540]",ColorTask,10.0,28.0,,,HRV,HRV_0114,2022-11-30 18:34:44
,wl-rdm,36,269859,0.0-6.28-0.28,0.0,35.0,,,,,,,[],,,,,,87.9,0.0,i,1.0,False,720.3000000119209,44.0,60.0,40.0,False,,312.99750342608223,[],"[960, 540]",ColorTask,9.0,29.0,,,HRV,HRV_0114,2022-11-30 18:34:44
,wl-rdm,37,271858,0.0-6.29-0.29,0.0,36.0,,,,,,,[],,,,,,87.9,1.0,i,1.0,True,688.4000000357628,42.0,60.0,40.0,False,,217.13650182916507,[],"[960, 540]",ColorTask,10.0,30.0,,,HRV,HRV_0114,2022-11-30 18:34:44
,wl-rdm,38,274041,0.0-6.30-0.30,0.0,37.0,,,,,,,[],,,,,,73.6,1.0,i,1.0,True,784.3000000119209,48.0,60.0,40.0,False,,300.84535103846827,[],"[960, 540]",ColorTask,11.0,31.0,,,HRV,HRV_0114,2022-11-30 18:34:44
,wl-rdm,39,276023,0.0-6.31-0.31,0.0,38.0,,,,,,,[],,,,,,73.6,0.0,i,1.0,False,625.3000000119209,38.0,60.0,40.0,False,,286.36679654316345,[],"[960, 540]",ColorTask,10.0,32.0,,,HRV,HRV_0114,2022-11-30 18:34:44
,wl-rdm,40,278422,0.0-6.32-0.32,0.0,39.0,,,,,,,[],,,,,,56.4,0.0,u,0.0,True,1102.3999999761581,67.0,60.0,40.0,False,,207.0807521542744,[],"[960, 540]",ColorTask,11.0,33.0,,,HRV,HRV_0114,2022-11-30 18:34:44
,wl-rdm,41,280238,0.0-6.33-0.33,0.0,40.0,,,,,,,[],,,,,,73.6,0.0,u,0.0,True,535.3999999761581,33.0,60.0,40.0,False,,214.93968225336664,[],"[960, 540]",ColorTask,12.0,34.0,,,HRV,HRV_0114,2022-11-30 18:34:44
,wl-rdm,42,282636,0.0-6.34-0.34,0.0,41.0,,,,,,,[],,,,,,73.6,0.0,u,0.0,True,1003.6999999880791,61.0,60.0,40.0,False,,302.68341109394976,[],"[960, 540]",ColorTask,13.0,35.0,,,HRV,HRV_0114,2022-11-30 18:34:44
,wl-rdm,43,284835,0.0-6.35-0.35,0.0,42.0,,,,,,,[],,,,,,50.0,1.0,i,1.0,True,778.3000000119209,47.0,60.0,40.0,False,,350.8120586699057,[],"[960, 540]",ColorTask,14.0,36.0,,,HRV,HRV_0114,2022-11-30 18:34:44
,wl-rdm,44,286801,0.0-6.36-0.36,0.0,43.0,,,,,,,[],,,,,,53.2,1.0,i,1.0,True,540.0,33.0,60.0,40.0,False,,345.38800362201914,[],"[960, 540]",ColorTask,15.0,37.0,,,HRV,HRV_0114,2022-11-30 18:34:44
,wl-rdm,45,288499,0.0-6.37-0.37,0.0,44.0,,,,,,,[],,,,,,62.5,1.0,i,1.0,True,404.19999998807907,25.0,60.0,40.0,False,,209.59404266853568,[],"[960, 540]",ColorTask,16.0,38.0,,,HRV,HRV_0114,2022-11-30 18:34:44
,wl-rdm,46,290549,0.0-6.38-0.38,0.0,45.0,,,,,,,[],,,,,,56.4,0.0,i,1.0,False,577.4000000357628,35.0,60.0,40.0,False,,393.60087679036917,[],"[960, 540]",ColorTask,15.0,39.0,,,HRV,HRV_0114,2022-11-30 18:34:44
,wl-rdm,47,292431,0.0-6.39-0.39,0.0,46.0,,,,,,,[],,,,,,53.2,1.0,u,0.0,False,507.19999998807907,31.0,60.0,40.0,False,,286.53831143102474,[],"[960, 540]",ColorTask,14.0,40.0,,,HRV,HRV_0114,2022-11-30 18:34:44
,wl-rdm,48,295663,0.0-6.40-0.40,0.0,47.0,,,,,,,[],,,,,,87.9,0.0,i,1.0,False,1836.199999988079,111.0,60.0,40.0,False,,325.3968910786862,[],"[960, 540]",ColorTask,13.0,41.0,,,HRV,HRV_0114,2022-11-30 18:34:44
,wl-rdm,49,297812,0.0-6.41-0.41,0.0,48.0,,,,,,,[],,,,,,73.6,1.0,i,1.0,True,669.8999999761581,41.0,60.0,40.0,False,,388.2439283173767,[],"[960, 540]",ColorTask,14.0,42.0,,,HRV,HRV_0114,2022-11-30 18:34:44
,wl-rdm,50,299828,0.0-6.42-0.42,0.0,49.0,,,,,,,[],,,,,,73.6,1.0,i,1.0,True,727.5,44.0,60.0,40.0,False,,218.99039326480369,[],"[960, 540]",ColorTask,15.0,43.0,,,HRV,HRV_0114,2022-11-30 18:34:44
,wl-rdm,51,301994,0.0-6.43-0.43,0.0,50.0,,,,,,,[],,,,,,56.4,1.0,i,1.0,True,739.3000000119209,45.0,60.0,40.0,False,,340.14505550269473,[],"[960, 540]",ColorTask,16.0,44.0,,,HRV,HRV_0114,2022-11-30 18:34:44
,wl-rdm,52,304226,0.0-6.44-0.44,0.0,51.0,,,,,,,[],,,,,,62.5,0.0,u,0.0,True,872.5,53.0,60.0,40.0,False,,276.352481780219,[],"[960, 540]",ColorTask,17.0,45.0,,,HRV,HRV_0114,2022-11-30 18:34:44
,wl-rdm,53,306275,0.0-6.45-0.45,0.0,52.0,,,,,,,[],,,,,,56.4,0.0,i,1.0,False,705.0,43.0,60.0,40.0,False,,263.5072776613446,[],"[960, 540]",ColorTask,16.0,46.0,,,HRV,HRV_0114,2022-11-30 18:34:44
,wl-rdm,54,308357,0.0-6.46-0.46,0.0,53.0,,,,,,,[],,,,,,53.2,0.0,u,0.0,True,692.3999999761581,42.0,60.0,40.0,False,,320.25281796655923,[],"[960, 540]",ColorTask,17.0,47.0,,,HRV,HRV_0114,2022-11-30 18:34:44
,wl-rdm,55,310389,0.0-6.47-0.47,0.0,54.0,,,,,,,[],,,,,,87.9,0.0,u,0.0,True,627.0999999642372,38.0,60.0,40.0,False,,331.8987531519173,[],"[960, 540]",ColorTask,18.0,48.0,,,HRV,HRV_0114,2022-11-30 18:34:44
,wl-rdm,56,312372,0.0-6.48-0.48,0.0,55.0,,,,,,,[],,,,,,62.5,1.0,i,1.0,True,654.3000000119209,40.0,60.0,40.0,False,,249.23974523163346,[],"[960, 540]",ColorTask,19.0,49.0,,,HRV,HRV_0114,2022-11-30 18:34:44
,wl-rdm,57,314421,0.0-6.49-0.49,0.0,56.0,,,,,,,[],,,,,,87.9,0.0,u,0.0,True,703.1999999880791,43.0,60.0,40.0,False,,264.62248647047517,[],"[960, 540]",ColorTask,20.0,50.0,,,HRV,HRV_0114,2022-11-30 18:34:44
,wl-rdm,58,316303,0.0-6.50-0.50,0.0,57.0,,,,,,,[],,,,,,87.9,1.0,i,1.0,True,574.3999999761581,35.0,60.0,40.0,False,,249.04164492027093,[],"[960, 540]",ColorTask,21.0,51.0,,,HRV,HRV_0114,2022-11-30 18:34:44
,wl-rdm,59,318735,0.0-6.51-0.51,0.0,58.0,,,,,,,[],,,,,,62.5,0.0,u,0.0,True,1125.3999999761581,68.0,60.0,40.0,False,,225.63609221785833,[],"[960, 540]",ColorTask,22.0,52.0,,,HRV,HRV_0114,2022-11-30 18:34:44
,wl-rdm,60,321500,0.0-6.52-0.52,0.0,59.0,,,,,,,[],,,,,,53.2,1.0,i,1.0,True,1385.800000011921,84.0,60.0,40.0,False,,292.9282526376383,[],"[960, 540]",ColorTask,23.0,53.0,,,HRV,HRV_0114,2022-11-30 18:34:44
,wl-rdm,61,323716,0.0-6.53-0.53,0.0,60.0,,,,,,,[],,,,,,56.4,0.0,u,0.0,True,745.1999999880791,45.0,60.0,40.0,False,,389.86171003941723,[],"[960, 540]",ColorTask,24.0,54.0,,,HRV,HRV_0114,2022-11-30 18:34:44
,wl-rdm,62,325748,0.0-6.54-0.54,0.0,61.0,,,,,,,[],,,,,,87.9,1.0,i,1.0,True,728.5999999642372,44.0,60.0,40.0,False,,232.3658500596633,[],"[960, 540]",ColorTask,25.0,55.0,,,HRV,HRV_0114,2022-11-30 18:34:44
,wl-rdm,63,327563,0.0-6.55-0.55,0.0,62.0,,,,,,,[],,,,,,73.6,1.0,i,1.0,True,528.5,32.0,60.0,40.0,False,,209.3848969196726,[],"[960, 540]",ColorTask,26.0,56.0,,,HRV,HRV_0114,2022-11-30 18:34:44
,wl-rdm,64,329346,0.0-6.56-0.56,0.0,63.0,,,,,,,[],,,,,,56.4,1.0,i,1.0,True,438.10000002384186,27.0,60.0,40.0,False,,268.51896594321886,[],"[960, 540]",ColorTask,27.0,57.0,,,HRV,HRV_0114,2022-11-30 18:34:44
,wl-rdm,65,331328,0.0-6.57-0.57,0.0,64.0,,,,,,,[],,,,,,62.5,1.0,i,1.0,True,581.7000000476837,35.0,60.0,40.0,False,,317.60144551522893,[],"[960, 540]",ColorTask,28.0,58.0,,,HRV,HRV_0114,2022-11-30 18:34:44
,wl-rdm,66,333377,0.0-6.58-0.58,0.0,65.0,,,,,,,[],,,,,,50.0,1.0,i,1.0,True,581.1999999880791,35.0,60.0,40.0,False,,393.4090808736913,[],"[960, 540]",ColorTask,29.0,59.0,,,HRV,HRV_0114,2022-11-30 18:34:44
,wl-rdm,67,335110,0.0-6.59-0.59,0.0,66.0,,,,,,,[],,,,,,87.9,1.0,i,1.0,True,418.69999998807907,26.0,60.0,40.0,False,,231.9989889399978,[],"[960, 540]",ColorTask,30.0,60.0,,,HRV,HRV_0114,2022-11-30 18:34:44
,wl-rdm,68,337208,0.0-6.60-0.60,0.0,67.0,,,,,,,[],,,,,,62.5,1.0,u,0.0,False,665.0,40.0,60.0,40.0,False,,356.4117017981833,[],"[960, 540]",ColorTask,29.0,61.0,,,HRV,HRV_0114,2022-11-30 18:34:44
,wl-rdm,69,339392,0.0-6.61-0.61,0.0,68.0,,,,,,,[],,,,,,50.0,0.0,i,1.0,False,751.8000000119209,46.0,60.0,40.0,False,,335.9752452860419,[],"[960, 540]",ColorTask,28.0,62.0,,,HRV,HRV_0114,2022-11-30 18:34:44
,wl-rdm,70,341407,0.0-6.62-0.62,0.0,69.0,,,,,,,[],,,,,,62.5,1.0,i,1.0,True,625.4000000357628,38.0,60.0,40.0,False,,302.8567896267676,[],"[960, 540]",ColorTask,29.0,63.0,,,HRV,HRV_0114,2022-11-30 18:34:44
,wl-rdm,71,343489,0.0-6.63-0.63,0.0,70.0,,,,,,,[],,,,,,50.0,1.0,i,1.0,True,789.5,48.0,60.0,40.0,False,,215.69060132187698,[],"[960, 540]",ColorTask,30.0,64.0,,,HRV,HRV_0114,2022-11-30 18:34:44
,wl-rdm,72,345523,0.0-6.64-0.64,0.0,71.0,,,,,,,[],,,,,,56.4,1.0,i,1.0,True,705.7999999523163,43.0,60.0,40.0,False,,243.28268963105194,[],"[960, 540]",ColorTask,31.0,65.0,,,HRV,HRV_0114,2022-11-30 18:34:44
,wl-rdm,73,348237,0.0-6.65-0.65,0.0,72.0,,,,,,,[],,,,,,62.5,0.0,i,1.0,False,1426.1000000238419,86.0,60.0,40.0,False,,226.33667008208747,[],"[960, 540]",ColorTask,30.0,66.0,,,HRV,HRV_0114,2022-11-30 18:34:44
,wl-rdm,74,350352,0.0-6.66-0.66,0.0,73.0,,,,,,,[],,,,,,73.6,0.0,u,0.0,True,640.5,39.0,60.0,40.0,False,,385.0422218301031,[],"[960, 540]",ColorTask,31.0,67.0,,,HRV,HRV_0114,2022-11-30 18:34:44
,wl-rdm,75,352535,0.0-6.67-0.67,0.0,74.0,,,,,,,[],,,,,,53.2,0.0,i,1.0,False,857.7999999523163,52.0,60.0,40.0,False,,250.831187262538,[],"[960, 540]",ColorTask,30.0,68.0,,,HRV,HRV_0114,2022-11-30 18:34:44
,wl-rdm,76,354601,0.0-6.68-0.68,0.0,75.0,,,,,,,[],,,,,,62.5,0.0,u,0.0,True,773.3000000119209,47.0,60.0,40.0,False,,208.61572779999003,[],"[960, 540]",ColorTask,31.0,69.0,,,HRV,HRV_0114,2022-11-30 18:34:44
,wl-rdm,77,356883,0.0-6.69-0.69,0.0,76.0,,,,,,,[],,,,,,50.0,0.0,i,1.0,False,804.5999999642372,49.0,60.0,40.0,False,,393.8921819330479,[],"[960, 540]",ColorTask,30.0,70.0,,,HRV,HRV_0114,2022-11-30 18:34:44
,wl-rdm,78,359232,0.0-6.70-0.70,0.0,77.0,,,,,,,[],,,,,,62.5,0.0,u,0.0,True,915.8000000119209,55.0,60.0,40.0,False,,356.7106022084519,[],"[960, 540]",ColorTask,31.0,71.0,,,HRV,HRV_0114,2022-11-30 18:34:44
,wl-rdm,79,361663,0.0-6.71-0.71,0.0,78.0,,,,,,,[],,,,,,50.0,0.0,u,0.0,True,1140.6000000238419,69.0,60.0,40.0,False,,204.5986215338946,[],"[960, 540]",ColorTask,32.0,72.0,,,HRV,HRV_0114,2022-11-30 18:34:44
,wl-rdm,80,363747,0.0-6.72-0.72,0.0,79.0,,,,,,,[],,,,,,53.2,0.0,u,0.0,True,779.6000000238419,47.0,60.0,40.0,False,,232.8798440277102,[],"[960, 540]",ColorTask,33.0,73.0,,,HRV,HRV_0114,2022-11-30 18:34:44
,wl-rdm,81,365595,0.0-6.73-0.73,0.0,80.0,,,,,,,[],,,,,,73.6,1.0,u,0.0,False,462.10000002384186,28.0,60.0,40.0,False,,327.2630423909243,[],"[960, 540]",ColorTask,32.0,74.0,,,HRV,HRV_0114,2022-11-30 18:34:44
,wl-rdm,82,367444,0.0-6.74-0.74,0.0,81.0,,,,,,,[],,,,,,50.0,1.0,i,1.0,True,519.6999999880791,32.0,60.0,40.0,False,,241.211180669028,[],"[960, 540]",ColorTask,33.0,75.0,,,HRV,HRV_0114,2022-11-30 18:34:44
,wl-rdm,83,369460,0.0-6.75-0.75,0.0,82.0,,,,,,,[],,,,,,73.6,0.0,u,0.0,True,686.6999999880791,42.0,60.0,40.0,False,,243.04455253827933,[],"[960, 540]",ColorTask,34.0,76.0,,,HRV,HRV_0114,2022-11-30 18:34:44
,wl-rdm,84,371743,0.0-6.76-0.76,0.0,83.0,,,,,,,[],,,,,,53.2,0.0,i,1.0,False,876.2000000476837,52.0,60.0,40.0,False,,325.8922592679657,[],"[960, 540]",ColorTask,33.0,77.0,,,HRV,HRV_0114,2022-11-30 18:34:44
,wl-rdm,85,374390,0.0-6.77-0.77,0.0,84.0,,,,,,,[],,,,,,73.6,0.0,u,0.0,True,1301.699999988079,79.0,60.0,40.0,False,,261.1618927706599,[],"[960, 540]",ColorTask,34.0,78.0,,,HRV,HRV_0114,2022-11-30 18:34:44
,wl-rdm,86,376473,0.0-6.78-0.78,0.0,85.0,,,,,,,[],,,,,,87.9,1.0,i,1.0,True,672.6999999880791,41.0,60.0,40.0,False,,320.7766002142673,[],"[960, 540]",ColorTask,35.0,79.0,,,HRV,HRV_0114,2022-11-30 18:34:44
,wl-rdm,87,378521,0.0-6.79-0.79,0.0,86.0,,,,,,,[],,,,,,62.5,1.0,i,1.0,True,646.1000000238419,39.0,60.0,40.0,False,,323.083553564785,[],"[960, 540]",ColorTask,36.0,80.0,,,HRV,HRV_0114,2022-11-30 18:34:44
,wl-rdm,88,380305,0.0-6.80-0.80,0.0,87.0,,,,,,,[],,,,,,50.0,1.0,i,1.0,True,481.3000000715256,29.0,60.0,40.0,False,,247.18243244883368,[],"[960, 540]",ColorTask,37.0,81.0,,,HRV,HRV_0114,2022-11-30 18:34:44
,wl-rdm,89,382554,0.0-6.81-0.81,0.0,88.0,,,,,,,[],,,,,,73.6,0.0,u,0.0,True,797.1999999880791,48.0,60.0,40.0,False,,376.59494571471805,[],"[960, 540]",ColorTask,38.0,82.0,,,HRV,HRV_0114,2022-11-30 18:34:44
,wl-rdm,90,384836,0.0-6.82-0.82,0.0,89.0,,,,,,,[],,,,,,53.2,1.0,i,1.0,True,918.4000000357628,56.0,60.0,40.0,False,,271.69981223227256,[],"[960, 540]",ColorTask,39.0,83.0,,,HRV,HRV_0114,2022-11-30 18:34:44
,wl-rdm,91,387068,0.0-6.83-0.83,0.0,90.0,,,,,,,[],,,,,,53.2,0.0,i,1.0,False,902.0999999642372,55.0,60.0,40.0,False,,249.52102726854042,[],"[960, 540]",ColorTask,38.0,84.0,,,HRV,HRV_0114,2022-11-30 18:34:44
,wl-rdm,92,389101,0.0-6.84-0.84,0.0,91.0,,,,,,,[],,,,,,56.4,0.0,u,0.0,True,735.5,45.0,60.0,40.0,False,,217.27700653607582,[],"[960, 540]",ColorTask,39.0,85.0,,,HRV,HRV_0114,2022-11-30 18:34:44
,wl-rdm,93,391116,0.0-6.85-0.85,0.0,92.0,,,,,,,[],,,,,,73.6,0.0,u,0.0,True,536.5,33.0,60.0,40.0,False,,390.55145307603374,[],"[960, 540]",ColorTask,40.0,86.0,,,HRV,HRV_0114,2022-11-30 18:34:44
,wl-rdm,94,393000,0.0-6.86-0.86,0.0,93.0,,,,,,,[],,,,,,53.2,0.0,i,1.0,False,585.1000000238419,36.0,60.0,40.0,False,,224.66247346239027,[],"[960, 540]",ColorTask,39.0,87.0,,,HRV,HRV_0114,2022-11-30 18:34:44
,wl-rdm,95,395014,0.0-6.87-0.87,0.0,94.0,,,,,,,[],,,,,,87.9,1.0,i,1.0,True,601.8000000119209,37.0,60.0,40.0,False,,319.2052604988896,[],"[960, 540]",ColorTask,40.0,88.0,,,HRV,HRV_0114,2022-11-30 18:34:44
,wl-rdm,96,396913,0.0-6.88-0.88,0.0,95.0,,,,,,,[],,,,,,73.6,1.0,i,1.0,True,589.6999999880791,36.0,60.0,40.0,False,,228.39460497922948,[],"[960, 540]",ColorTask,41.0,89.0,,,HRV,HRV_0114,2022-11-30 18:34:44
,wl-rdm,97,399312,0.0-6.89-0.89,0.0,96.0,,,,,,,[],,,,,,56.4,0.0,i,1.0,False,967.1999999880791,59.0,60.0,40.0,False,,335.41542337601743,[],"[960, 540]",ColorTask,40.0,90.0,,,HRV,HRV_0114,2022-11-30 18:34:44
,wl-rdm,98,401294,0.0-6.90-0.90,0.0,97.0,,,,,,,[],,,,,,50.0,1.0,i,1.0,True,601.1000000238419,37.0,60.0,40.0,False,,305.6762896880695,[],"[960, 540]",ColorTask,41.0,91.0,,,HRV,HRV_0114,2022-11-30 18:34:44
,wl-rdm,99,404226,0.0-6.91-0.91,0.0,98.0,,,,,,,[],,,,,,53.2,1.0,i,1.0,True,1463.2000000476837,88.0,60.0,40.0,False,,398.14330657145376,[],"[960, 540]",ColorTask,42.0,92.0,,,HRV,HRV_0114,2022-11-30 18:34:44
,wl-rdm,100,406358,0.0-6.92-0.92,0.0,99.0,,,,,,,[],,,,,,62.5,0.0,u,0.0,True,800.8999999761581,49.0,60.0,40.0,False,,243.27505856498752,[],"[960, 540]",ColorTask,43.0,93.0,,,HRV,HRV_0114,2022-11-30 18:34:44
,wl-rdm,101,408424,0.0-6.93-0.93,0.0,100.0,,,,,,,[],,,,,,50.0,0.0,u,0.0,True,774.0000000596046,47.0,60.0,40.0,False,,209.92325665951503,[],"[960, 540]",ColorTask,44.0,94.0,,,HRV,HRV_0114,2022-11-30 18:34:44
,wl-rdm,102,410573,0.0-6.94-0.94,0.0,101.0,,,,,,,[],,,,,,53.2,1.0,i,1.0,True,860.7999999523163,52.0,60.0,40.0,False,,211.5372939985822,[],"[960, 540]",ColorTask,45.0,95.0,,,HRV,HRV_0114,2022-11-30 18:34:44
,wl-rdm,103,412672,0.0-6.95-0.95,0.0,102.0,,,,,,,[],,,,,,50.0,0.0,i,1.0,False,741.1000000238419,45.0,60.0,40.0,False,,275.80801157097295,[],"[960, 540]",ColorTask,44.0,96.0,,,HRV,HRV_0114,2022-11-30 18:34:44
,wl-rdm,104,414704,0.0-6.96-0.96,0.0,103.0,,,,,,,[],,,,,,87.9,0.0,u,0.0,True,590.8000000119209,36.0,60.0,40.0,False,,356.1818779202946,[],"[960, 540]",ColorTask,45.0,97.0,,,HRV,HRV_0114,2022-11-30 18:34:44
,wl-rdm,105,417020,0.0-6.97-0.97,0.0,104.0,,,,,,,[],,,,,,50.0,1.0,u,0.0,False,937.3999999761581,57.0,60.0,40.0,False,,292.32587536577876,[],"[960, 540]",ColorTask,44.0,98.0,,,HRV,HRV_0114,2022-11-30 18:34:44
,wl-rdm,106,419319,0.0-6.98-0.98,0.0,105.0,,,,,,,[],,,,,,50.0,0.0,i,1.0,False,984.0000000596046,60.0,60.0,40.0,False,,218.4074353017868,[],"[960, 540]",ColorTask,43.0,99.0,,,HRV,HRV_0114,2022-11-30 18:34:44
,wl-rdm,107,421417,0.0-6.99-0.99,0.0,106.0,,,,,,,[],,,,,,56.4,1.0,u,0.0,False,763.6999999880791,46.0,60.0,40.0,False,,257.4850462083214,[],"[960, 540]",ColorTask,42.0,100.0,,,HRV,HRV_0114,2022-11-30 18:34:44
,wl-rdm,108,423366,0.0-6.100-0.100,0.0,107.0,,,,,,,[],,,,,,62.5,1.0,i,1.0,True,625.1999999880791,38.0,60.0,40.0,False,,246.41752199080514,[],"[960, 540]",ColorTask,43.0,101.0,,,HRV,HRV_0114,2022-11-30 18:34:44
,wl-rdm,109,425249,0.0-6.101-0.101,0.0,108.0,,,,,,,[],,,,,,87.9,1.0,i,1.0,True,547.5999999642372,33.0,60.0,40.0,False,,265.66554241453065,[],"[960, 540]",ColorTask,44.0,102.0,,,HRV,HRV_0114,2022-11-30 18:34:44
,wl-rdm,110,427131,0.0-6.102-0.102,0.0,109.0,,,,,,,[],,,,,,62.5,0.0,i,1.0,False,395.19999998807907,24.0,60.0,40.0,False,,399.970377992326,[],"[960, 540]",ColorTask,43.0,103.0,,,HRV,HRV_0114,2022-11-30 18:34:44
,wl-rdm,111,429030,0.0-6.103-0.103,0.0,110.0,,,,,,,[],,,,,,53.2,1.0,i,1.0,True,592.1999999880791,36.0,60.0,40.0,False,,227.57082339093793,[],"[960, 540]",ColorTask,44.0,104.0,,,HRV,HRV_0114,2022-11-30 18:34:44
,wl-rdm,112,430896,0.0-6.104-0.104,0.0,111.0,,,,,,,[],,,,,,87.9,1.0,i,1.0,True,465.0,28.0,60.0,40.0,False,,320.40720753012425,[],"[960, 540]",ColorTask,45.0,105.0,,,HRV,HRV_0114,2022-11-30 18:34:44
,wl-rdm,113,432962,0.0-6.105-0.105,0.0,112.0,,,,,,,[],,,,,,56.4,1.0,i,1.0,True,714.5000000596046,43.0,60.0,40.0,False,,275.8262404780889,[],"[960, 540]",ColorTask,46.0,106.0,,,HRV,HRV_0114,2022-11-30 18:34:44
,wl-rdm,114,434927,0.0-6.106-0.106,0.0,113.0,,,,,,,[],,,,,,87.9,0.0,u,0.0,True,632.3000000119209,38.0,60.0,40.0,False,,257.8697514845738,[],"[960, 540]",ColorTask,47.0,107.0,,,HRV,HRV_0114,2022-11-30 18:34:44
,wl-rdm,115,437576,0.0-6.107-0.107,0.0,114.0,,,,,,,[],,,,,,53.2,1.0,u,0.0,False,1272.800000011921,77.0,60.0,40.0,False,,294.4097109235331,[],"[960, 540]",ColorTask,46.0,108.0,,,HRV,HRV_0114,2022-11-30 18:34:44
,wl-rdm,116,439692,0.0-6.108-0.108,0.0,115.0,,,,,,,[],,,,,,50.0,0.0,i,1.0,False,678.0,41.0,60.0,40.0,False,,351.50641318028954,[],"[960, 540]",ColorTask,45.0,109.0,,,HRV,HRV_0114,2022-11-30 18:34:44
,wl-html-keyboard-response,117,597639,0.0-7.0-0.0,1.0,115.0,,,,,,,,155939.39999997616,1.0,0,,,,,,,,,,,,True,undefinedblurEvent ,,,,,,,,,HRV,HRV_0114,2022-11-30 18:34:44
,wl-rdm,118,599948,0.0-8.0-0.0,1.0,116.0,,,,,,,[],,,,,,73.6,0.0,u,0.0,True,1003.5999999642372,61.0,60.0,40.0,False,,226.27722759153906,[],"[960, 540]",ColorTask,46.0,1.0,,,HRV,HRV_0114,2022-11-30 18:34:44
,wl-rdm,119,601980,0.0-8.1-0.1,1.0,117.0,,,,,,,[],,,,,,87.9,1.0,i,1.0,True,601.3999999761581,37.0,60.0,40.0,False,,339.2111085169771,[],"[960, 540]",ColorTask,47.0,2.0,,,HRV,HRV_0114,2022-11-30 18:34:44
,wl-rdm,120,604229,0.0-8.2-0.2,1.0,118.0,,,,,,,[],,,,,,73.6,0.0,u,0.0,True,885.1000000238419,54.0,60.0,40.0,False,,279.52483184950233,[],"[960, 540]",ColorTask,48.0,3.0,,,HRV,HRV_0114,2022-11-30 18:34:44
,wl-rdm,121,606428,0.0-8.3-0.3,1.0,119.0,,,,,,,[],,,,,,56.4,0.0,i,1.0,False,735.3000000119209,45.0,60.0,40.0,False,,372.3252655485457,[],"[960, 540]",ColorTask,47.0,4.0,,,HRV,HRV_0114,2022-11-30 18:34:44
,wl-rdm,122,608460,0.0-8.4-0.4,1.0,120.0,,,,,,,[],,,,,,53.2,0.0,u,0.0,True,610.8999999761581,37.0,60.0,40.0,False,,341.350867036929,[],"[960, 540]",ColorTask,48.0,5.0,,,HRV,HRV_0114,2022-11-30 18:34:44
,wl-rdm,123,610493,0.0-8.5-0.5,1.0,121.0,,,,,,,[],,,,,,73.6,0.0,i,1.0,False,651.8000000119209,40.0,60.0,40.0,False,,297.29155393231235,[],"[960, 540]",ColorTask,47.0,6.0,,,HRV,HRV_0114,2022-11-30 18:34:44
,wl-rdm,124,612525,0.0-8.6-0.6,1.0,122.0,,,,,,,[],,,,,,53.2,0.0,u,0.0,True,692.3000000119209,42.0,60.0,40.0,False,,265.5022046120173,[],"[960, 540]",ColorTask,48.0,7.0,,,HRV,HRV_0114,2022-11-30 18:34:44
,wl-rdm,125,614641,0.0-8.7-0.7,1.0,123.0,,,,,,,[],,,,,,50.0,1.0,u,0.0,False,646.6999999880791,39.0,60.0,40.0,False,,383.7165449705499,[],"[960, 540]",ColorTask,47.0,8.0,,,HRV,HRV_0114,2022-11-30 18:34:44
,wl-rdm,126,616790,0.0-8.8-0.8,1.0,124.0,,,,,,,[],,,,,,62.5,0.0,u,0.0,True,841.5999999642372,51.0,60.0,40.0,False,,230.50114419771964,[],"[960, 540]",ColorTask,48.0,9.0,,,HRV,HRV_0114,2022-11-30 18:34:44
,wl-rdm,127,618723,0.0-8.9-0.9,1.0,125.0,,,,,,,[],,,,,,62.5,1.0,u,0.0,False,620.1000000238419,38.0,60.0,40.0,False,,240.46912440118575,[],"[960, 540]",ColorTask,47.0,10.0,,,HRV,HRV_0114,2022-11-30 18:34:44
,wl-rdm,128,620788,0.0-8.10-0.10,1.0,126.0,,,,,,,[],,,,,,56.4,0.0,u,0.0,True,736.0,45.0,60.0,40.0,False,,238.89476757623055,[],"[960, 540]",ColorTask,48.0,11.0,,,HRV,HRV_0114,2022-11-30 18:34:44
,wl-rdm,129,622837,0.0-8.11-0.11,1.0,127.0,,,,,,,[],,,,,,87.9,1.0,u,0.0,False,635.7999999523163,39.0,60.0,40.0,False,,319.63922443287714,[],"[960, 540]",ColorTask,47.0,12.0,,,HRV,HRV_0114,2022-11-30 18:34:44
,wl-rdm,130,624903,0.0-8.12-0.12,1.0,128.0,,,,,,,[],,,,,,87.9,0.0,u,0.0,True,600.9000000357628,36.0,60.0,40.0,False,,391.47708422860353,[],"[960, 540]",ColorTask,48.0,13.0,,,HRV,HRV_0114,2022-11-30 18:34:44
,wl-rdm,131,626602,0.0-8.13-0.13,1.0,129.0,,,,,,,[],,,,,,62.5,1.0,i,1.0,True,413.49999994039536,25.0,60.0,40.0,False,,207.21756132031416,[],"[960, 540]",ColorTask,49.0,14.0,,,HRV,HRV_0114,2022-11-30 18:34:44
,wl-rdm,132,628651,0.0-8.14-0.14,1.0,130.0,,,,,,,[],,,,,,53.2,0.0,u,0.0,True,670.3000000119209,41.0,60.0,40.0,False,,295.96718064314484,[],"[960, 540]",ColorTask,50.0,15.0,,,HRV,HRV_0114,2022-11-30 18:34:44
,wl-rdm,133,630850,0.0-8.15-0.15,1.0,131.0,,,,,,,[],,,,,,50.0,0.0,i,1.0,False,888.0999999642372,54.0,60.0,40.0,False,,242.18795445314717,[],"[960, 540]",ColorTask,49.0,16.0,,,HRV,HRV_0114,2022-11-30 18:34:44
,wl-rdm,134,632699,0.0-8.16-0.16,1.0,132.0,,,,,,,[],,,,,,87.9,1.0,i,1.0,True,487.10000002384186,30.0,60.0,40.0,False,,273.64961547528753,[],"[960, 540]",ColorTask,50.0,17.0,,,HRV,HRV_0114,2022-11-30 18:34:44
,wl-rdm,135,634964,0.0-8.17-0.17,1.0,133.0,,,,,,,[],,,,,,50.0,1.0,u,0.0,False,951.5,58.0,60.0,40.0,False,,232.57105431310083,[],"[960, 540]",ColorTask,49.0,18.0,,,HRV,HRV_0114,2022-11-30 18:34:44
,wl-rdm,136,637180,0.0-8.18-0.18,1.0,134.0,,,,,,,[],,,,,,50.0,1.0,i,1.0,True,944.2000000476837,57.0,60.0,40.0,False,,212.25132544254316,[],"[960, 540]",ColorTask,50.0,19.0,,,HRV,HRV_0114,2022-11-30 18:34:44
,wl-rdm,137,639146,0.0-8.19-0.19,1.0,135.0,,,,,,,[],,,,,,73.6,0.0,u,0.0,True,687.3000000119209,42.0,60.0,40.0,False,,203.26210947609445,[],"[960, 540]",ColorTask,51.0,20.0,,,HRV,HRV_0114,2022-11-30 18:34:44
,wl-rdm,138,641311,0.0-8.20-0.20,1.0,136.0,,,,,,,[],,,,,,73.6,0.0,u,0.0,True,801.1999999880791,49.0,60.0,40.0,False,,269.60457648280806,[],"[960, 540]",ColorTask,52.0,21.0,,,HRV,HRV_0114,2022-11-30 18:34:44
,wl-rdm,139,643527,0.0-8.21-0.21,1.0,137.0,,,,,,,[],,,,,,50.0,1.0,i,1.0,True,758.8000000119209,46.0,60.0,40.0,False,,379.4157393570276,[],"[960, 540]",ColorTask,53.0,22.0,,,HRV,HRV_0114,2022-11-30 18:34:44
,wl-rdm,140,645526,0.0-8.22-0.22,1.0,138.0,,,,,,,[],,,,,,53.2,0.0,i,1.0,False,709.4000000357628,43.0,60.0,40.0,False,,211.56974242231593,[],"[960, 540]",ColorTask,52.0,23.0,,,HRV,HRV_0114,2022-11-30 18:34:44
,wl-rdm,141,647842,0.0-8.23-0.23,1.0,139.0,,,,,,,[],,,,,,56.4,1.0,i,1.0,True,1022.2000000476837,62.0,60.0,40.0,False,,205.29279360721287,[],"[960, 540]",ColorTask,53.0,24.0,,,HRV,HRV_0114,2022-11-30 18:34:44
,wl-rdm,142,649807,0.0-8.24-0.24,1.0,140.0,,,,,,,[],,,,,,53.2,0.0,u,0.0,True,666.5,40.0,60.0,40.0,False,,234.13321392945062,[],"[960, 540]",ColorTask,54.0,25.0,,,HRV,HRV_0114,2022-11-30 18:34:44
,wl-rdm,143,651906,0.0-8.25-0.25,1.0,141.0,,,,,,,[],,,,,,50.0,0.0,u,0.0,True,812.8000000119209,49.0,60.0,40.0,False,,231.56902979137743,[],"[960, 540]",ColorTask,55.0,26.0,,,HRV,HRV_0114,2022-11-30 18:34:44
,wl-rdm,144,654138,0.0-8.26-0.26,1.0,142.0,,,,,,,[],,,,,,62.5,1.0,i,1.0,True,911.9000000357628,55.0,60.0,40.0,False,,242.40285827100269,[],"[960, 540]",ColorTask,56.0,27.0,,,HRV,HRV_0114,2022-11-30 18:34:44
,wl-rdm,145,656287,0.0-8.27-0.27,1.0,143.0,,,,,,,[],,,,,,50.0,1.0,u,0.0,False,840.5999999642372,51.0,60.0,40.0,False,,232.77509372711407,[],"[960, 540]",ColorTask,55.0,28.0,,,HRV,HRV_0114,2022-11-30 18:34:44
,wl-rdm,146,658286,0.0-8.28-0.28,1.0,144.0,,,,,,,[],,,,,,87.9,0.0,u,0.0,True,591.4000000357628,36.0,60.0,40.0,False,,318.31576703822225,[],"[960, 540]",ColorTask,56.0,29.0,,,HRV,HRV_0114,2022-11-30 18:34:44
,wl-rdm,147,660185,0.0-8.29-0.29,1.0,145.0,,,,,,,[],,,,,,87.9,1.0,i,1.0,True,620.7000000476837,38.0,60.0,40.0,False,,215.41664422433362,[],"[960, 540]",ColorTask,57.0,30.0,,,HRV,HRV_0114,2022-11-30 18:34:44
,wl-rdm,148,662350,0.0-8.30-0.30,1.0,146.0,,,,,,,[],,,,,,50.0,1.0,u,0.0,False,768.1999999880791,47.0,60.0,40.0,False,,299.52766655504547,[],"[960, 540]",ColorTask,56.0,31.0,,,HRV,HRV_0114,2022-11-30 18:34:44
,wl-rdm,149,664417,0.0-8.31-0.31,1.0,147.0,,,,,,,[],,,,,,87.9,1.0,u,0.0,False,755.8000000119209,46.0,60.0,40.0,False,,223.55150616251245,[],"[960, 540]",ColorTask,55.0,32.0,,,HRV,HRV_0114,2022-11-30 18:34:44
,wl-rdm,150,666632,0.0-8.32-0.32,1.0,148.0,,,,,,,[],,,,,,53.2,0.0,i,1.0,False,806.9000000357628,49.0,60.0,40.0,False,,317.961752962196,[],"[960, 540]",ColorTask,54.0,33.0,,,HRV,HRV_0114,2022-11-30 18:34:44
,wl-rdm,151,668614,0.0-8.33-0.33,1.0,149.0,,,,,,,[],,,,,,73.6,1.0,i,1.0,True,534.1000000238419,32.0,60.0,40.0,False,,370.0743714903928,[],"[960, 540]",ColorTask,55.0,34.0,,,HRV,HRV_0114,2022-11-30 18:34:44
,wl-rdm,152,670647,0.0-8.34-0.34,1.0,150.0,,,,,,,[],,,,,,53.2,0.0,u,0.0,True,707.5,43.0,60.0,40.0,False,,247.43946910158525,[],"[960, 540]",ColorTask,56.0,35.0,,,HRV,HRV_0114,2022-11-30 18:34:44
,wl-rdm,153,672912,0.0-8.35-0.35,1.0,151.0,,,,,,,[],,,,,,53.2,1.0,i,1.0,True,822.5,50.0,60.0,40.0,False,,375.5790540888653,[],"[960, 540]",ColorTask,57.0,36.0,,,HRV,HRV_0114,2022-11-30 18:34:44
,wl-rdm,154,675161,0.0-8.36-0.36,1.0,152.0,,,,,,,[],,,,,,56.4,1.0,i,1.0,True,813.8999999761581,49.0,60.0,40.0,False,,349.7481964798382,[],"[960, 540]",ColorTask,58.0,37.0,,,HRV,HRV_0114,2022-11-30 18:34:44
,wl-rdm,155,677210,0.0-8.37-0.37,1.0,153.0,,,,,,,[],,,,,,56.4,1.0,i,1.0,True,737.1999999880791,45.0,60.0,40.0,False,,219.4496974072173,[],"[960, 540]",ColorTask,59.0,38.0,,,HRV,HRV_0114,2022-11-30 18:34:44
,wl-rdm,156,679310,0.0-8.38-0.38,1.0,154.0,,,,,,,[],,,,,,73.6,0.0,u,0.0,True,735.1000000238419,45.0,60.0,40.0,False,,281.6516555123576,[],"[960, 540]",ColorTask,60.0,39.0,,,HRV,HRV_0114,2022-11-30 18:34:44
,wl-rdm,157,681275,0.0-8.39-0.39,1.0,155.0,,,,,,,[],,,,,,62.5,0.0,i,1.0,False,679.0999999642372,41.0,60.0,40.0,False,,214.77117147445685,[],"[960, 540]",ColorTask,59.0,40.0,,,HRV,HRV_0114,2022-11-30 18:34:44
,wl-rdm,158,683423,0.0-8.40-0.40,1.0,156.0,,,,,,,[],,,,,,50.0,0.0,i,1.0,False,701.0,43.0,60.0,40.0,False,,358.89590823839734,[],"[960, 540]",ColorTask,58.0,41.0,,,HRV,HRV_0114,2022-11-30 18:34:44
,wl-rdm,159,685488,0.0-8.41-0.41,1.0,157.0,,,,,,,[],,,,,,87.9,1.0,i,1.0,True,729.1000000238419,44.0,60.0,40.0,False,,251.45898376106564,[],"[960, 540]",ColorTask,59.0,42.0,,,HRV,HRV_0114,2022-11-30 18:34:44
,wl-rdm,160,687605,0.0-8.42-0.42,1.0,158.0,,,,,,,[],,,,,,62.5,1.0,i,1.0,True,758.3000000715256,46.0,60.0,40.0,False,,276.9445604538904,[],"[960, 540]",ColorTask,60.0,43.0,,,HRV,HRV_0114,2022-11-30 18:34:44
,wl-rdm,161,689704,0.0-8.43-0.43,1.0,159.0,,,,,,,[],,,,,,56.4,0.0,u,0.0,True,706.0,43.0,60.0,40.0,False,,313.6693123632904,[],"[960, 540]",ColorTask,61.0,44.0,,,HRV,HRV_0114,2022-11-30 18:34:44
,wl-rdm,162,691821,0.0-8.44-0.44,1.0,160.0,,,,,,,[],,,,,,53.2,1.0,u,0.0,False,710.1999999880791,43.0,60.0,40.0,False,,344.44880622200293,[],"[960, 540]",ColorTask,60.0,45.0,,,HRV,HRV_0114,2022-11-30 18:34:44
,wl-rdm,163,694118,0.0-8.45-0.45,1.0,161.0,,,,,,,[],,,,,,62.5,1.0,i,1.0,True,833.8999999165535,51.0,60.0,40.0,False,,380.34723861044796,[],"[960, 540]",ColorTask,61.0,46.0,,,HRV,HRV_0114,2022-11-30 18:34:44
,wl-rdm,164,695984,0.0-8.46-0.46,1.0,162.0,,,,,,,[],,,,,,73.6,1.0,i,1.0,True,580.1999999880791,35.0,60.0,40.0,False,,226.31145276404618,[],"[960, 540]",ColorTask,62.0,47.0,,,HRV,HRV_0114,2022-11-30 18:34:44
,wl-rdm,165,697950,0.0-8.47-0.47,1.0,163.0,,,,,,,[],,,,,,62.5,0.0,i,1.0,False,590.4000000357628,36.0,60.0,40.0,False,,309.14857795343653,[],"[960, 540]",ColorTask,61.0,48.0,,,HRV,HRV_0114,2022-11-30 18:34:44
,wl-rdm,166,700132,0.0-8.48-0.48,1.0,164.0,,,,,,,[],,,,,,53.2,0.0,u,0.0,True,743.5,45.0,60.0,40.0,False,,358.2991696025577,[],"[960, 540]",ColorTask,62.0,49.0,,,HRV,HRV_0114,2022-11-30 18:34:44
,wl-rdm,167,702331,0.0-8.49-0.49,1.0,165.0,,,,,,,[],,,,,,62.5,0.0,i,1.0,False,843.6000000238419,51.0,60.0,40.0,False,,296.5093577051698,[],"[960, 540]",ColorTask,61.0,50.0,,,HRV,HRV_0114,2022-11-30 18:34:44
,wl-rdm,168,704430,0.0-8.50-0.50,1.0,166.0,,,,,,,[],,,,,,87.9,1.0,i,1.0,True,807.5999999642372,49.0,60.0,40.0,False,,211.30929181313957,[],"[960, 540]",ColorTask,62.0,51.0,,,HRV,HRV_0114,2022-11-30 18:34:44
,wl-rdm,169,706696,0.0-8.51-0.51,1.0,167.0,,,,,,,[],,,,,,50.0,0.0,u,0.0,True,822.6000000238419,50.0,60.0,40.0,False,,359.09861736906106,[],"[960, 540]",ColorTask,63.0,52.0,,,HRV,HRV_0114,2022-11-30 18:34:44
,wl-rdm,170,709277,0.0-8.52-0.52,1.0,168.0,,,,,,,[],,,,,,87.9,0.0,i,1.0,False,1284.5000000596046,78.0,60.0,40.0,False,,214.42652707279797,[],"[960, 540]",ColorTask,62.0,53.0,,,HRV,HRV_0114,2022-11-30 18:34:44
,wl-rdm,171,711043,0.0-8.53-0.53,1.0,169.0,,,,,,,[],,,,,,87.9,0.0,u,0.0,True,318.80000001192093,20.0,60.0,40.0,False,,374.4211683195566,[],"[960, 540]",ColorTask,63.0,54.0,,,HRV,HRV_0114,2022-11-30 18:34:44
,wl-rdm,172,712976,0.0-8.54-0.54,1.0,170.0,,,,,,,[],,,,,,53.2,1.0,i,1.0,True,613.0999999642372,37.0,60.0,40.0,False,,257.690022507357,[],"[960, 540]",ColorTask,64.0,55.0,,,HRV,HRV_0114,2022-11-30 18:34:44
,wl-rdm,173,715075,0.0-8.55-0.55,1.0,171.0,,,,,,,[],,,,,,53.2,1.0,u,0.0,False,670.2999999523163,41.0,60.0,40.0,False,,337.9306015628615,[],"[960, 540]",ColorTask,63.0,56.0,,,HRV,HRV_0114,2022-11-30 18:34:44
,wl-rdm,174,716940,0.0-8.56-0.56,1.0,172.0,,,,,,,[],,,,,,53.2,1.0,i,1.0,True,442.39999997615814,27.0,60.0,40.0,False,,334.33824155560694,[],"[960, 540]",ColorTask,64.0,57.0,,,HRV,HRV_0114,2022-11-30 18:34:44
,wl-rdm,175,718873,0.0-8.57-0.57,1.0,173.0,,,,,,,[],,,,,,62.5,0.0,i,1.0,False,596.0,36.0,60.0,40.0,False,,251.7248721144417,[],"[960, 540]",ColorTask,63.0,58.0,,,HRV,HRV_0114,2022-11-30 18:34:44
,wl-rdm,176,720789,0.0-8.58-0.58,1.0,174.0,,,,,,,[],,,,,,73.6,1.0,i,1.0,True,527.0999999642372,32.0,60.0,40.0,False,,307.25342129910837,[],"[960, 540]",ColorTask,64.0,59.0,,,HRV,HRV_0114,2022-11-30 18:34:44
,wl-rdm,177,723620,0.0-8.59-0.59,1.0,175.0,,,,,,,[],,,,,,50.0,1.0,i,1.0,True,1425.5999999642372,86.0,60.0,40.0,False,,340.01438553378597,[],"[960, 540]",ColorTask,65.0,60.0,,,HRV,HRV_0114,2022-11-30 18:34:44
,wl-rdm,178,725520,0.0-8.60-0.60,1.0,176.0,,,,,,,[],,,,,,62.5,0.0,i,1.0,False,440.39999997615814,27.0,60.0,40.0,False,,374.42383261596126,[],"[960, 540]",ColorTask,64.0,61.0,,,HRV,HRV_0114,2022-11-30 18:34:44
,wl-rdm,179,727868,0.0-8.61-0.61,1.0,177.0,,,,,,,[],,,,,,56.4,0.0,i,1.0,False,893.3999999761581,54.0,60.0,40.0,False,,396.39764551079907,[],"[960, 540]",ColorTask,63.0,62.0,,,HRV,HRV_0114,2022-11-30 18:34:44
,wl-rdm,180,729684,0.0-8.62-0.62,1.0,178.0,,,,,,,[],,,,,,56.4,1.0,i,1.0,True,509.69999998807907,31.0,60.0,40.0,False,,233.29037367099727,[],"[960, 540]",ColorTask,64.0,63.0,,,HRV,HRV_0114,2022-11-30 18:34:44
,wl-rdm,181,731683,0.0-8.63-0.63,1.0,179.0,,,,,,,[],,,,,,87.9,0.0,u,0.0,True,660.8000000119209,40.0,60.0,40.0,False,,279.0920981260957,[],"[960, 540]",ColorTask,65.0,64.0,,,HRV,HRV_0114,2022-11-30 18:34:44
,wl-rdm,182,733583,0.0-8.64-0.64,1.0,180.0,,,,,,,[],,,,,,87.9,0.0,u,0.0,True,457.10000002384186,28.0,60.0,40.0,False,,379.18856161412367,[],"[960, 540]",ColorTask,66.0,65.0,,,HRV,HRV_0114,2022-11-30 18:34:44
,wl-rdm,183,735614,0.0-8.65-0.65,1.0,181.0,,,,,,,[],,,,,,56.4,0.0,i,1.0,False,685.0,42.0,60.0,40.0,False,,278.0048605916307,[],"[960, 540]",ColorTask,65.0,66.0,,,HRV,HRV_0114,2022-11-30 18:34:44
,wl-rdm,184,738047,0.0-8.66-0.66,1.0,182.0,,,,,,,[],,,,,,62.5,0.0,u,0.0,True,967.4999999403954,59.0,60.0,40.0,False,,379.1687766351605,[],"[960, 540]",ColorTask,66.0,67.0,,,HRV,HRV_0114,2022-11-30 18:34:44
,wl-rdm,185,740212,0.0-8.67-0.67,1.0,183.0,,,,,,,[],,,,,,62.5,1.0,i,1.0,True,684.3000000715256,42.0,60.0,40.0,False,,396.6664736453241,[],"[960, 540]",ColorTask,67.0,68.0,,,HRV,HRV_0114,2022-11-30 18:34:44
,wl-rdm,186,742295,0.0-8.68-0.68,1.0,184.0,,,,,,,[],,,,,,56.4,0.0,u,0.0,True,684.0999999642372,41.0,60.0,40.0,False,,326.4088706217407,[],"[960, 540]",ColorTask,68.0,69.0,,,HRV,HRV_0114,2022-11-30 18:34:44
,wl-rdm,187,744444,0.0-8.69-0.69,1.0,185.0,,,,,,,[],,,,,,62.5,0.0,i,1.0,False,711.1000000238419,43.0,60.0,40.0,False,,363.0437789114095,[],"[960, 540]",ColorTask,67.0,70.0,,,HRV,HRV_0114,2022-11-30 18:34:44
,wl-rdm,188,746543,0.0-8.70-0.70,1.0,186.0,,,,,,,[],,,,,,73.6,0.0,i,1.0,False,757.6999999880791,46.0,60.0,40.0,False,,280.95095486356513,[],"[960, 540]",ColorTask,66.0,71.0,,,HRV,HRV_0114,2022-11-30 18:34:44
,wl-rdm,189,748509,0.0-8.71-0.71,1.0,187.0,,,,,,,[],,,,,,50.0,0.0,u,0.0,True,692.3999999761581,42.0,60.0,40.0,False,,209.59846290886992,[],"[960, 540]",ColorTask,67.0,72.0,,,HRV,HRV_0114,2022-11-30 18:34:44
,wl-rdm,190,750340,0.0-8.72-0.72,1.0,188.0,,,,,,,[],,,,,,87.9,0.0,u,0.0,True,508.5,31.0,60.0,40.0,False,,263.9702868815894,[],"[960, 540]",ColorTask,68.0,73.0,,,HRV,HRV_0114,2022-11-30 18:34:44
,wl-rdm,191,752273,0.0-8.73-0.73,1.0,189.0,,,,,,,[],,,,,,50.0,1.0,i,1.0,True,603.7999999523163,37.0,60.0,40.0,False,,250.57989714835725,[],"[960, 540]",ColorTask,69.0,74.0,,,HRV,HRV_0114,2022-11-30 18:34:44
,wl-rdm,192,754089,0.0-8.74-0.74,1.0,190.0,,,,,,,[],,,,,,87.9,1.0,i,1.0,True,529.5,32.0,60.0,40.0,False,,222.2942948526017,[],"[960, 540]",ColorTask,70.0,75.0,,,HRV,HRV_0114,2022-11-30 18:34:44
,wl-rdm,193,755822,0.0-8.75-0.75,1.0,191.0,,,,,,,[],,,,,,56.4,1.0,i,1.0,True,457.7999999523163,28.0,60.0,40.0,False,,215.63808616833703,[],"[960, 540]",ColorTask,71.0,76.0,,,HRV,HRV_0114,2022-11-30 18:34:44
,wl-rdm,194,757820,0.0-8.76-0.76,1.0,192.0,,,,,,,[],,,,,,56.4,0.0,u,0.0,True,718.6999999284744,44.0,60.0,40.0,False,,202.47942137623318,[],"[960, 540]",ColorTask,72.0,77.0,,,HRV,HRV_0114,2022-11-30 18:34:44
,wl-rdm,195,759786,0.0-8.77-0.77,1.0,193.0,,,,,,,[],,,,,,73.6,1.0,u,0.0,False,604.3000000119209,37.0,60.0,40.0,False,,270.5364164167462,[],"[960, 540]",ColorTask,71.0,78.0,,,HRV,HRV_0114,2022-11-30 18:34:44
,wl-rdm,196,761719,0.0-8.78-0.78,1.0,194.0,,,,,,,[],,,,,,50.0,0.0,i,1.0,False,584.4000000357628,36.0,60.0,40.0,False,,263.2247757495537,[],"[960, 540]",ColorTask,70.0,79.0,,,HRV,HRV_0114,2022-11-30 18:34:44
,wl-rdm,197,763784,0.0-8.79-0.79,1.0,195.0,,,,,,,[],,,,,,87.9,0.0,u,0.0,True,668.4000000357628,41.0,60.0,40.0,False,,304.3287822055398,[],"[960, 540]",ColorTask,71.0,80.0,,,HRV,HRV_0114,2022-11-30 18:34:44
,wl-rdm,198,766000,0.0-8.80-0.80,1.0,196.0,,,,,,,[],,,,,,50.0,0.0,u,0.0,True,748.1000000238419,45.0,60.0,40.0,False,,390.39279734327476,[],"[960, 540]",ColorTask,72.0,81.0,,,HRV,HRV_0114,2022-11-30 18:34:44
,wl-rdm,199,768132,0.0-8.81-0.81,1.0,197.0,,,,,,,[],,,,,,50.0,1.0,i,1.0,True,676.9000000357628,41.0,60.0,40.0,False,,376.24609684273594,[],"[960, 540]",ColorTask,73.0,82.0,,,HRV,HRV_0114,2022-11-30 18:34:44
,wl-rdm,200,770098,0.0-8.82-0.82,1.0,198.0,,,,,,,[],,,,,,73.6,1.0,i,1.0,True,519.5,32.0,60.0,40.0,False,,382.71165325021474,[],"[960, 540]",ColorTask,74.0,83.0,,,HRV,HRV_0114,2022-11-30 18:34:44
,wl-rdm,201,774130,0.0-8.83-0.83,1.0,199.0,,,,,,,[],,,,,,53.2,1.0,i,1.0,True,2736.9999999403954,165.0,60.0,40.0,False,,214.86536872032963,[],"[960, 540]",ColorTask,75.0,84.0,,,HRV,HRV_0114,2022-11-30 18:34:44
,wl-rdm,202,777244,0.0-8.84-0.84,1.0,200.0,,,,,,,[],,,,,,73.6,0.0,u,0.0,True,1742.1000000238419,105.0,60.0,40.0,False,,306.074458672064,[],"[960, 540]",ColorTask,76.0,85.0,,,HRV,HRV_0114,2022-11-30 18:34:44
,wl-rdm,203,779244,0.0-8.85-0.85,1.0,201.0,,,,,,,[],,,,,,62.5,1.0,i,1.0,True,644.4000000357628,39.0,60.0,40.0,False,,287.13031265175124,[],"[960, 540]",ColorTask,77.0,86.0,,,HRV,HRV_0114,2022-11-30 18:34:44
,wl-rdm,204,781743,0.0-8.86-0.86,1.0,202.0,,,,,,,[],,,,,,62.5,1.0,u,0.0,False,1150.6000000238419,70.0,60.0,40.0,False,,262.366960668216,[],"[960, 540]",ColorTask,76.0,87.0,,,HRV,HRV_0114,2022-11-30 18:34:44
,wl-rdm,205,783975,0.0-8.87-0.87,1.0,203.0,,,,,,,[],,,,,,56.4,0.0,u,0.0,True,834.1999999880791,51.0,60.0,40.0,False,,305.5517764892791,[],"[960, 540]",ColorTask,77.0,88.0,,,HRV,HRV_0114,2022-11-30 18:34:44
,wl-rdm,206,787223,0.0-8.88-0.88,1.0,204.0,,,,,,,[],,,,,,53.2,1.0,u,0.0,False,1849.9999999403954,111.0,60.0,40.0,False,,326.0637692141802,[],"[960, 540]",ColorTask,76.0,89.0,,,HRV,HRV_0114,2022-11-30 18:34:44
,wl-rdm,207,789122,0.0-8.89-0.89,1.0,205.0,,,,,,,[],,,,,,62.5,1.0,i,1.0,True,612.0,37.0,60.0,40.0,False,,215.6118954539962,[],"[960, 540]",ColorTask,77.0,90.0,,,HRV,HRV_0114,2022-11-30 18:34:44
,wl-rdm,208,791505,0.0-8.90-0.90,1.0,206.0,,,,,,,[],,,,,,56.4,1.0,u,0.0,False,1080.0,65.0,60.0,40.0,False,,221.09897187298023,[],"[960, 540]",ColorTask,76.0,91.0,,,HRV,HRV_0114,2022-11-30 18:34:44
,wl-rdm,209,793637,0.0-8.91-0.91,1.0,207.0,,,,,,,[],,,,,,73.6,0.0,i,1.0,False,741.5,45.0,60.0,40.0,False,,319.5639772745519,[],"[960, 540]",ColorTask,75.0,92.0,,,HRV,HRV_0114,2022-11-30 18:34:44
,wl-rdm,210,797968,0.0-8.92-0.92,1.0,207.0,,,,,,,[],,,,,,50.0,0.0,,,,,179.0,60.0,40.0,True,RT_timeout ,220.12083848404467,[],"[960, 540]",ColorTask,74.0,93.0,,,HRV,HRV_0114,2022-11-30 18:34:44
,wl-rdm,211,802348,0.0-8.93-0.93,1.0,207.0,,,,,,,[],,,,,,73.6,1.0,,,,,179.0,60.0,40.0,True,RT_timeout ,289.7393116841738,[],"[960, 540]",ColorTask,73.0,94.0,,,HRV,HRV_0114,2022-11-30 18:34:44
,wl-rdm,212,806730,0.0-8.94-0.94,1.0,207.0,,,,,,,[],,,,,,56.4,1.0,,,,,179.0,60.0,40.0,True,RT_timeout ,294.29386906673534,[],"[960, 540]",ColorTask,72.0,95.0,,,HRV,HRV_0114,2022-11-30 18:34:44
,wl-rdm,213,807813,0.0-8.95-0.95,1.0,207.0,,,,,,,[],,,,,,62.5,0.0,u,,,276.39999997615814,0.0,60.0,40.0,True,too_early ,320.5639891742725,[],"[960, 540]",ColorTask,71.0,96.0,,,HRV,HRV_0114,2022-11-30 18:34:44
,wl-rdm,214,809480,0.0-8.96-0.96,1.0,208.0,,,,,,,[],,,,,,73.6,1.0,i,1.0,True,367.60000002384186,23.0,60.0,40.0,False,,216.37478325506794,[],"[960, 540]",ColorTask,72.0,97.0,,,HRV,HRV_0114,2022-11-30 18:34:44
,wl-rdm,215,811212,0.0-8.97-0.97,1.0,209.0,,,,,,,[],,,,,,87.9,0.0,i,1.0,False,385.80000001192093,24.0,60.0,40.0,False,,269.46762252581806,[],"[960, 540]",ColorTask,71.0,98.0,,,HRV,HRV_0114,2022-11-30 18:34:44
,wl-rdm,216,812928,0.0-8.98-0.98,1.0,210.0,,,,,,,[],,,,,,53.2,1.0,i,1.0,True,384.30000001192093,24.0,60.0,40.0,False,,256.65738409844914,[],"[960, 540]",ColorTask,72.0,99.0,,,HRV,HRV_0114,2022-11-30 18:34:44
,wl-rdm,217,814760,0.0-8.99-0.99,1.0,211.0,,,,,,,[],,,,,,73.6,1.0,i,1.0,True,351.2000000476837,22.0,60.0,40.0,False,,399.7271301686352,[],"[960, 540]",ColorTask,73.0,100.0,,,HRV,HRV_0114,2022-11-30 18:34:44
,wl-rdm,218,816659,0.0-8.100-0.100,1.0,212.0,,,,,,,[],,,,,,56.4,1.0,i,1.0,True,478.60000002384186,29.0,60.0,40.0,False,,340.5681116267266,[],"[960, 540]",ColorTask,74.0,101.0,,,HRV,HRV_0114,2022-11-30 18:34:44
,wl-rdm,219,818358,0.0-8.101-0.101,1.0,213.0,,,,,,,[],,,,,,56.4,1.0,i,1.0,True,384.80000001192093,24.0,60.0,40.0,False,,236.67003498616288,[],"[960, 540]",ColorTask,75.0,102.0,,,HRV,HRV_0114,2022-11-30 18:34:44
,wl-rdm,220,820107,0.0-8.102-0.102,1.0,214.0,,,,,,,[],,,,,,50.0,0.0,i,1.0,False,444.39999997615814,27.0,60.0,40.0,False,,243.9778581191089,[],"[960, 540]",ColorTask,74.0,103.0,,,HRV,HRV_0114,2022-11-30 18:34:44
,wl-rdm,221,822190,0.0-8.103-0.103,1.0,215.0,,,,,,,[],,,,,,73.6,1.0,u,0.0,False,617.0,38.0,60.0,40.0,False,,369.42594112743484,[],"[960, 540]",ColorTask,73.0,104.0,,,HRV,HRV_0114,2022-11-30 18:34:44
,wl-rdm,222,824189,0.0-8.104-0.104,1.0,216.0,,,,,,,[],,,,,,56.4,0.0,u,0.0,True,710.8000000119209,43.0,60.0,40.0,False,,203.61353982826625,[],"[960, 540]",ColorTask,74.0,105.0,,,HRV,HRV_0114,2022-11-30 18:34:44
,wl-rdm,223,826171,0.0-8.105-0.105,1.0,217.0,,,,,,,[],,,,,,50.0,0.0,u,0.0,True,687.3999999761581,42.0,60.0,40.0,False,,204.30967667340462,[],"[960, 540]",ColorTask,75.0,106.0,,,HRV,HRV_0114,2022-11-30 18:34:44
,wl-rdm,224,828037,0.0-8.106-0.106,1.0,218.0,,,,,,,[],,,,,,53.2,1.0,u,0.0,False,442.10000002384186,27.0,60.0,40.0,False,,335.13518959844134,[],"[960, 540]",ColorTask,74.0,107.0,,,HRV,HRV_0114,2022-11-30 18:34:44
,wl-rdm,225,830318,0.0-8.107-0.107,1.0,219.0,,,,,,,[],,,,,,62.5,0.0,u,0.0,True,841.4000000357628,51.0,60.0,40.0,False,,355.4842099589256,[],"[960, 540]",ColorTask,75.0,108.0,,,HRV,HRV_0114,2022-11-30 18:34:44
,wl-rdm,226,832350,0.0-8.108-0.108,1.0,220.0,,,,,,,[],,,,,,73.6,1.0,i,1.0,True,706.0999999642372,43.0,60.0,40.0,False,,236.5427678793907,[],"[960, 540]",ColorTask,76.0,109.0,,,HRV,HRV_0114,2022-11-30 18:34:44
,wl-rdm,227,834350,0.0-8.109-0.109,1.0,221.0,,,,,,,[],,,,,,56.4,1.0,i,1.0,True,550.8000000119209,34.0,60.0,40.0,False,,372.7412094545199,[],"[960, 540]",ColorTask,77.0,110.0,,,HRV,HRV_0114,2022-11-30 18:34:44
,wl-rdm,228,836499,0.0-8.110-0.110,1.0,222.0,,,,,,,[],,,,,,53.2,0.0,i,1.0,False,802.5999999642372,49.0,60.0,40.0,False,,279.78898752240224,[],"[960, 540]",ColorTask,76.0,111.0,,,HRV,HRV_0114,2022-11-30 18:34:44
,wl-rdm,229,838614,0.0-8.111-0.111,1.0,223.0,,,,,,,[],,,,,,87.9,1.0,i,1.0,True,651.9000000357628,40.0,60.0,40.0,False,,375.53006640724277,[],"[960, 540]",ColorTask,77.0,112.0,,,HRV,HRV_0114,2022-11-30 18:34:44
,wl-html-button-response,230,843289,0.0-9.0-0.0,,,,,,,,,,4673.300000011921,,0,,,,,,,,,,,,,,,,,,,,<h3>End of this session. Thank you!</h3><br>,['Close window'],HRV,HRV_0114,2022-11-30 18:34:44
