trialN,stimuli,trialStartTime,trialStartTime_UNIX,stimulus1,stimulus2,stimulus1Bid,stimulus2Bid,delta,selected,rt,rt_UNIX,rt_perfnow,receivedResponse,rsp,trialEndTime,trialDuration,trialEndTime_UNIX,trialDuration_UNIX,trialEvents,exp,subjectId,date
0,"[{'imgObject': {}, 'id': 'strawberries', 'src': '/static/foodstim60/strawberries.jpg', 'key': 'u', 'origWidth': 410, 'origHeight': 410, 'width': 410, 'height': 410, 'widthPercent': 0.45, 'rescaleHeight': False, 'trialN': 0, 'loaded': True, 'loadedTime': 3907.5, 'positionName': 'LEFT', 'positionCoords': [511.6, 335], 'bid': 8.63}, {'imgObject': {}, 'id': 'blackbeanswithrice', 'src': '/static/foodstim60/blackbeanswithrice.jpg', 'key': 'i', 'origWidth': 410, 'origHeight': 410, 'width': 410, 'height': 410, 'widthPercent': 0.45, 'rescaleHeight': False, 'trialN': 0, 'loaded': True, 'loadedTime': 4007.699999988079, 'positionName': 'RIGHT', 'positionCoords': [998.4, 335], 'bid': 8.34}]",4848.100000023842,1669830599377,strawberries,blackbeanswithrice,8.63,8.34,-0.2900000000000009,strawberries,1986.8999999761581,1987,1987.5999999642372,True,u,7338.5,2490.399999976158,1669830601867,2490,,HRV,HRV_0114,2022-11-30 18:01:10
1,"[{'imgObject': {}, 'id': 'chickenfingers', 'src': '/static/foodstim60/chickenfingers.jpg', 'key': 'u', 'origWidth': 410, 'origHeight': 410, 'width': 410, 'height': 410, 'widthPercent': 0.45, 'rescaleHeight': False, 'trialN': 1, 'loaded': True, 'loadedTime': 4116.600000023842, 'positionName': 'LEFT', 'positionCoords': [511.6, 335], 'bid': 8.8}, {'imgObject': {}, 'id': 'apple slices', 'src': '/static/foodstim60/apple slices.jpg', 'key': 'i', 'origWidth': 409, 'origHeight': 410, 'width': 409, 'height': 410, 'widthPercent': 0.45, 'rescaleHeight': False, 'trialN': 1, 'loaded': True, 'loadedTime': 4170.199999988079, 'positionName': 'RIGHT', 'positionCoords': [998.4, 335], 'bid': 7.97}]",7338.800000011921,1669830601867,chickenfingers,apple slices,8.8,7.97,-0.830000000000001,chickenfingers,1207.8999999761581,1209,1208.300000011921,True,u,9050.399999976158,1711.5999999642372,1669830603579,1712,,HRV,HRV_0114,2022-11-30 18:01:10
2,"[{'imgObject': {}, 'id': 'luckycharms', 'src': '/static/foodstim60/luckycharms.jpg', 'key': 'u', 'origWidth': 410, 'origHeight': 409, 'width': 410, 'height': 409, 'widthPercent': 0.45, 'rescaleHeight': False, 'trialN': 2, 'loaded': True, 'loadedTime': 4253.300000011921, 'positionName': 'LEFT', 'positionCoords': [511.6, 335.5], 'bid': 8.84}, {'imgObject': {}, 'id': 'edamame', 'src': '/static/foodstim60/edamame.jpg', 'key': 'i', 'origWidth': 409, 'origHeight': 410, 'width': 409, 'height': 410, 'widthPercent': 0.45, 'rescaleHeight': False, 'trialN': 2, 'loaded': True, 'loadedTime': 4319.600000023842, 'positionName': 'RIGHT', 'positionCoords': [998.4, 335], 'bid': 8.81}]",9050.600000023842,1669830603579,luckycharms,edamame,8.84,8.81,-0.02999999999999936,luckycharms,848.5999999642372,849,848.8999999761581,True,u,10403.0,1352.3999999761581,1669830604932,1353,,HRV,HRV_0114,2022-11-30 18:01:10
3,"[{'imgObject': {}, 'id': 'shreddedwheatwithmilk', 'src': '/static/foodstim60/shreddedwheatwithmilk.jpg', 'key': 'u', 'origWidth': 410, 'origHeight': 410, 'width': 410, 'height': 410, 'widthPercent': 0.45, 'rescaleHeight': False, 'trialN': 3, 'loaded': True, 'loadedTime': 4442.600000023842, 'positionName': 'LEFT', 'positionCoords': [511.6, 335], 'bid': 3.61}, {'imgObject': {}, 'id': 'yogurt no spoon', 'src': '/static/foodstim60/yogurt no spoon.jpg', 'key': 'i', 'origWidth': 411, 'origHeight': 410, 'width': 411, 'height': 410, 'widthPercent': 0.45, 'rescaleHeight': False, 'trialN': 3, 'loaded': True, 'loadedTime': 4467.5, 'positionName': 'RIGHT', 'positionCoords': [998.4, 335], 'bid': 6.16}]",10403.100000023842,1669830604932,shreddedwheatwithmilk,yogurt no spoon,3.61,6.16,2.5500000000000003,yogurt no spoon,807.7999999523163,808,808.0,True,i,11714.699999988079,1311.5999999642372,1669830606243,1311,,HRV,HRV_0114,2022-11-30 18:01:10
4,"[{'imgObject': {}, 'id': 'mac & cheese', 'src': '/static/foodstim60/mac & cheese.jpg', 'key': 'u', 'origWidth': 410, 'origHeight': 410, 'width': 410, 'height': 410, 'widthPercent': 0.45, 'rescaleHeight': False, 'trialN': 4, 'loaded': True, 'loadedTime': 3952.899999976158, 'positionName': 'LEFT', 'positionCoords': [511.6, 335], 'bid': 9.65}, {'imgObject': {}, 'id': 'chickenfingers', 'src': '/static/foodstim60/chickenfingers.jpg', 'key': 'i', 'origWidth': 410, 'origHeight': 410, 'width': 410, 'height': 410, 'widthPercent': 0.45, 'rescaleHeight': False, 'trialN': 4, 'loaded': True, 'loadedTime': 4117.100000023842, 'positionName': 'RIGHT', 'positionCoords': [998.4, 335], 'bid': 8.8}]",11714.800000011921,1669830606243,mac & cheese,chickenfingers,9.65,8.8,-0.8499999999999996,mac & cheese,608.0999999642372,609,608.3000000119209,True,u,12826.699999988079,1111.8999999761581,1669830607355,1112,,HRV,HRV_0114,2022-11-30 18:01:10
5,"[{'imgObject': {}, 'id': 'bagel and cc', 'src': '/static/foodstim60/bagel and cc.jpg', 'key': 'u', 'origWidth': 410, 'origHeight': 410, 'width': 410, 'height': 410, 'widthPercent': 0.45, 'rescaleHeight': False, 'trialN': 5, 'loaded': True, 'loadedTime': 3975.800000011921, 'positionName': 'LEFT', 'positionCoords': [511.6, 335], 'bid': 8.040000000000001}, {'imgObject': {}, 'id': 'shreddedwheatwithmilk', 'src': '/static/foodstim60/shreddedwheatwithmilk.jpg', 'key': 'i', 'origWidth': 410, 'origHeight': 410, 'width': 410, 'height': 410, 'widthPercent': 0.45, 'rescaleHeight': False, 'trialN': 5, 'loaded': True, 'loadedTime': 4402.300000011921, 'positionName': 'RIGHT', 'positionCoords': [998.4, 335], 'bid': 3.61}]",12826.800000011921,1669830607356,bagel and cc,shreddedwheatwithmilk,8.040000000000001,3.61,-4.4300000000000015,bagel and cc,864,864,864.0999999642372,True,u,14194.399999976158,1367.5999999642372,1669830608723,1367,,HRV,HRV_0114,2022-11-30 18:01:10
6,"[{'imgObject': {}, 'id': 'froot loops w milk', 'src': '/static/foodstim60/froot loops w milk.jpg', 'key': 'u', 'origWidth': 410, 'origHeight': 410, 'width': 410, 'height': 410, 'widthPercent': 0.45, 'rescaleHeight': False, 'trialN': 6, 'loaded': True, 'loadedTime': 4024.899999976158, 'positionName': 'LEFT', 'positionCoords': [511.6, 335], 'bid': 7.75}, {'imgObject': {}, 'id': 'steak', 'src': '/static/foodstim60/steak.jpg', 'key': 'i', 'origWidth': 410, 'origHeight': 410, 'width': 410, 'height': 410, 'widthPercent': 0.45, 'rescaleHeight': False, 'trialN': 6, 'loaded': True, 'loadedTime': 4150.800000011921, 'positionName': 'RIGHT', 'positionCoords': [998.4, 335], 'bid': 7.83}]",14194.600000023842,1669830608723,froot loops w milk,steak,7.75,7.83,0.08000000000000007,steak,680.3999999761581,681,680.5,True,i,15378.0,1183.3999999761581,1669830609907,1184,,HRV,HRV_0114,2022-11-30 18:01:10
7,"[{'imgObject': {}, 'id': 'salmon', 'src': '/static/foodstim60/salmon.jpg', 'key': 'u', 'origWidth': 410, 'origHeight': 409, 'width': 410, 'height': 409, 'widthPercent': 0.45, 'rescaleHeight': False, 'trialN': 7, 'loaded': True, 'loadedTime': 4203.399999976158, 'positionName': 'LEFT', 'positionCoords': [511.6, 335.5], 'bid': 3.82}, {'imgObject': {}, 'id': 'eggsalad', 'src': '/static/foodstim60/eggsalad.jpg', 'key': 'i', 'origWidth': 410, 'origHeight': 409, 'width': 410, 'height': 409, 'widthPercent': 0.45, 'rescaleHeight': False, 'trialN': 7, 'loaded': True, 'loadedTime': 4223.399999976158, 'positionName': 'RIGHT', 'positionCoords': [998.4, 335.5], 'bid': 3.72}]",15378.100000023842,1669830609907,salmon,eggsalad,3.82,3.72,-0.09999999999999964,salmon,1128.699999988079,1129,1128.8999999761581,True,u,17010.69999998808,1632.5999999642372,1669830611539,1632,,HRV,HRV_0114,2022-11-30 18:01:10
8,"[{'imgObject': {}, 'id': 'salad w chicken', 'src': '/static/foodstim60/salad w chicken.jpg', 'key': 'u', 'origWidth': 411, 'origHeight': 411, 'width': 411, 'height': 411, 'widthPercent': 0.45, 'rescaleHeight': False, 'trialN': 8, 'loaded': True, 'loadedTime': 4269.899999976158, 'positionName': 'LEFT', 'positionCoords': [510.6, 334.5], 'bid': 8.47}, {'imgObject': {}, 'id': 'eggs', 'src': '/static/foodstim60/eggs.jpg', 'key': 'i', 'origWidth': 409, 'origHeight': 409, 'width': 409, 'height': 409, 'widthPercent': 0.45, 'rescaleHeight': False, 'trialN': 8, 'loaded': True, 'loadedTime': 4318.399999976158, 'positionName': 'RIGHT', 'positionCoords': [998.4, 335.5], 'bid': 8.92}]",17010.899999976158,1669830611540,salad w chicken,eggs,8.47,8.92,0.4499999999999993,salad w chicken,1471.9000000357628,1472,1472.0,True,u,18986.0,1975.1000000238419,1669830613515,1975,,HRV,HRV_0114,2022-11-30 18:01:10
9,"[{'imgObject': {}, 'id': 'corn cob', 'src': '/static/foodstim60/corn cob.jpg', 'key': 'u', 'origWidth': 411, 'origHeight': 411, 'width': 411, 'height': 411, 'widthPercent': 0.45, 'rescaleHeight': False, 'trialN': 9, 'loaded': True, 'loadedTime': 4367, 'positionName': 'LEFT', 'positionCoords': [510.6, 334.5], 'bid': 7.41}, {'imgObject': {}, 'id': 'grilled chicken strips', 'src': '/static/foodstim60/grilled chicken strips.jpg', 'key': 'i', 'origWidth': 410, 'origHeight': 411, 'width': 410, 'height': 411, 'widthPercent': 0.45, 'rescaleHeight': False, 'trialN': 9, 'loaded': True, 'loadedTime': 4402.199999988079, 'positionName': 'RIGHT', 'positionCoords': [998.4, 334.5], 'bid': 7.930000000000001}]",18986.19999998808,1669830613515,corn cob,grilled chicken strips,7.41,7.930000000000001,0.5200000000000005,corn cob,656.8000000119209,657,657.1000000238419,True,u,20147.19999998808,1161.0,1669830614676,1161,,HRV,HRV_0114,2022-11-30 18:01:10
10,"[{'imgObject': {}, 'id': 'cherry tomato', 'src': '/static/foodstim60/cherry tomato.jpg', 'key': 'u', 'origWidth': 410, 'origHeight': 410, 'width': 410, 'height': 410, 'widthPercent': 0.45, 'rescaleHeight': False, 'trialN': 10, 'loaded': True, 'loadedTime': 4483.800000011921, 'positionName': 'LEFT', 'positionCoords': [511.6, 335], 'bid': 8.620000000000001}, {'imgObject': {}, 'id': 'lox', 'src': '/static/foodstim60/lox.jpg', 'key': 'i', 'origWidth': 410, 'origHeight': 411, 'width': 410, 'height': 411, 'widthPercent': 0.45, 'rescaleHeight': False, 'trialN': 10, 'loaded': True, 'loadedTime': 4550.300000011921, 'positionName': 'RIGHT', 'positionCoords': [998.4, 334.5], 'bid': 8.71}]",20147.30000001192,1669830614676,cherry tomato,lox,8.620000000000001,8.71,0.08999999999999986,lox,975.6999999880791,976,976.0,True,i,21626.80000001192,1479.5,1669830616156,1480,,HRV,HRV_0114,2022-11-30 18:01:10
11,"[{'imgObject': {}, 'id': 'chicken nuggets2', 'src': '/static/foodstim60/chicken nuggets2.jpg', 'key': 'u', 'origWidth': 410, 'origHeight': 409, 'width': 410, 'height': 409, 'widthPercent': 0.45, 'rescaleHeight': False, 'trialN': 11, 'loaded': True, 'loadedTime': 4551.5, 'positionName': 'LEFT', 'positionCoords': [511.6, 335.5], 'bid': 8.92}, {'imgObject': {}, 'id': 'pear', 'src': '/static/foodstim60/pear.jpg', 'key': 'i', 'origWidth': 411, 'origHeight': 410, 'width': 411, 'height': 410, 'widthPercent': 0.45, 'rescaleHeight': False, 'trialN': 11, 'loaded': True, 'loadedTime': 4585.399999976158, 'positionName': 'RIGHT', 'positionCoords': [998.4, 335], 'bid': 8.870000000000001}]",21626.899999976158,1669830616156,chicken nuggets2,pear,8.92,8.870000000000001,-0.049999999999998934,chicken nuggets2,1896.1000000238419,1896,1896.4000000357628,True,u,24026.899999976158,2400.0,1669830618556,2400,,HRV,HRV_0114,2022-11-30 18:01:10
12,"[{'imgObject': {}, 'id': 'olives', 'src': '/static/foodstim60/olives.jpg', 'key': 'u', 'origWidth': 410, 'origHeight': 410, 'width': 410, 'height': 410, 'widthPercent': 0.45, 'rescaleHeight': False, 'trialN': 12, 'loaded': True, 'loadedTime': 4587.699999988079, 'positionName': 'LEFT', 'positionCoords': [511.6, 335], 'bid': 3.67}, {'imgObject': {}, 'id': 'hotdog w must', 'src': '/static/foodstim60/hotdog w must.jpg', 'key': 'i', 'origWidth': 409, 'origHeight': 409, 'width': 409, 'height': 409, 'widthPercent': 0.45, 'rescaleHeight': False, 'trialN': 12, 'loaded': True, 'loadedTime': 4588.899999976158, 'positionName': 'RIGHT', 'positionCoords': [998.4, 335.5], 'bid': 3.76}]",24027.0,1669830618556,olives,hotdog w must,3.67,3.76,0.08999999999999986,hotdog w must,631.8999999761581,632,632.1000000238419,True,i,25162.30000001192,1135.300000011921,1669830619691,1135,,HRV,HRV_0114,2022-11-30 18:01:10
13,"[{'imgObject': {}, 'id': 'kiwi', 'src': '/static/foodstim60/kiwi.jpg', 'key': 'u', 'origWidth': 410, 'origHeight': 410, 'width': 410, 'height': 410, 'widthPercent': 0.45, 'rescaleHeight': False, 'trialN': 13, 'loaded': True, 'loadedTime': 4590.899999976158, 'positionName': 'LEFT', 'positionCoords': [511.6, 335], 'bid': 7.65}, {'imgObject': {}, 'id': 'orange slices', 'src': '/static/foodstim60/orange slices.jpg', 'key': 'i', 'origWidth': 409, 'origHeight': 410, 'width': 409, 'height': 410, 'widthPercent': 0.45, 'rescaleHeight': False, 'trialN': 13, 'loaded': True, 'loadedTime': 4594.100000023842, 'positionName': 'RIGHT', 'positionCoords': [998.4, 335], 'bid': 8.27}]",25162.5,1669830619691,kiwi,orange slices,7.65,8.27,0.6199999999999992,orange slices,1016.5,1017,1016.8000000119209,True,i,26682.19999998808,1519.699999988079,1669830621211,1520,,HRV,HRV_0114,2022-11-30 18:01:10
14,"[{'imgObject': {}, 'id': 'kiwi', 'src': '/static/foodstim60/kiwi.jpg', 'key': 'u', 'origWidth': 410, 'origHeight': 410, 'width': 410, 'height': 410, 'widthPercent': 0.45, 'rescaleHeight': False, 'trialN': 14, 'loaded': True, 'loadedTime': 4592.100000023842, 'positionName': 'LEFT', 'positionCoords': [511.6, 335], 'bid': 7.65}, {'imgObject': {}, 'id': 'mac & cheese', 'src': '/static/foodstim60/mac & cheese.jpg', 'key': 'i', 'origWidth': 410, 'origHeight': 410, 'width': 410, 'height': 410, 'widthPercent': 0.45, 'rescaleHeight': False, 'trialN': 14, 'loaded': True, 'loadedTime': 3938.300000011921, 'positionName': 'RIGHT', 'positionCoords': [998.4, 335], 'bid': 9.65}]",26682.30000001192,1669830621211,kiwi,mac & cheese,7.65,9.65,2.0,mac & cheese,704.6999999880791,705,704.8999999761581,True,i,27890.100000023842,1207.800000011921,1669830622419,1208,,HRV,HRV_0114,2022-11-30 18:01:10
15,"[{'imgObject': {}, 'id': 'ice cream sundae 002', 'src': '/static/foodstim60/ice cream sundae 002.jpg', 'key': 'u', 'origWidth': 409, 'origHeight': 409, 'width': 409, 'height': 409, 'widthPercent': 0.45, 'rescaleHeight': False, 'trialN': 15, 'loaded': True, 'loadedTime': 4594.199999988079, 'positionName': 'LEFT', 'positionCoords': [512.6, 335.5], 'bid': 8.14}, {'imgObject': {}, 'id': 'rigatoni', 'src': '/static/foodstim60/rigatoni.jpg', 'key': 'i', 'origWidth': 411, 'origHeight': 411, 'width': 411, 'height': 411, 'widthPercent': 0.45, 'rescaleHeight': False, 'trialN': 15, 'loaded': True, 'loadedTime': 4596.800000011921, 'positionName': 'RIGHT', 'positionCoords': [998.4, 334.5], 'bid': 8.040000000000001}]",27890.19999998808,1669830622419,ice cream sundae 002,rigatoni,8.14,8.040000000000001,-0.09999999999999964,rigatoni,1680.6000000238419,1681,1680.800000011921,True,i,30074.19999998808,2184.0,1669830624603,2184,,HRV,HRV_0114,2022-11-30 18:01:10
16,"[{'imgObject': {}, 'id': 'corn cob', 'src': '/static/foodstim60/corn cob.jpg', 'key': 'u', 'origWidth': 411, 'origHeight': 411, 'width': 411, 'height': 411, 'widthPercent': 0.45, 'rescaleHeight': False, 'trialN': 16, 'loaded': True, 'loadedTime': 4350.699999988079, 'positionName': 'LEFT', 'positionCoords': [510.6, 334.5], 'bid': 7.41}, {'imgObject': {}, 'id': 'turkey sandwich', 'src': '/static/foodstim60/turkey sandwich.jpg', 'key': 'i', 'origWidth': 409, 'origHeight': 409, 'width': 409, 'height': 409, 'widthPercent': 0.45, 'rescaleHeight': False, 'trialN': 16, 'loaded': True, 'loadedTime': 4598, 'positionName': 'RIGHT', 'positionCoords': [998.4, 335.5], 'bid': 7.35}]",30074.30000001192,1669830624603,corn cob,turkey sandwich,7.41,7.35,-0.0600000000000005,corn cob,1272.5,1273,1272.800000011921,True,u,31850.30000001192,1776.0,1669830626379,1776,,HRV,HRV_0114,2022-11-30 18:01:10
17,"[{'imgObject': {}, 'id': 'cherries', 'src': '/static/foodstim60/cherries.jpg', 'key': 'u', 'origWidth': 410, 'origHeight': 411, 'width': 410, 'height': 411, 'widthPercent': 0.45, 'rescaleHeight': False, 'trialN': 17, 'loaded': True, 'loadedTime': 4600.300000011921, 'positionName': 'LEFT', 'positionCoords': [511.6, 334.5], 'bid': 8.45}, {'imgObject': {}, 'id': 'cheerios', 'src': '/static/foodstim60/cheerios.jpg', 'key': 'i', 'origWidth': 409, 'origHeight': 410, 'width': 409, 'height': 410, 'widthPercent': 0.45, 'rescaleHeight': False, 'trialN': 17, 'loaded': True, 'loadedTime': 4637.600000023842, 'positionName': 'RIGHT', 'positionCoords': [998.4, 335], 'bid': 3.96}]",31850.399999976158,1669830626379,cherries,cheerios,8.45,3.96,-4.489999999999999,cherries,744.5,745,744.6000000238419,True,u,33099.39999997616,1249.0,1669830627628,1249,,HRV,HRV_0114,2022-11-30 18:01:10
18,"[{'imgObject': {}, 'id': 'raspberries', 'src': '/static/foodstim60/raspberries.jpg', 'key': 'u', 'origWidth': 411, 'origHeight': 411, 'width': 411, 'height': 411, 'widthPercent': 0.45, 'rescaleHeight': False, 'trialN': 18, 'loaded': True, 'loadedTime': 4653.100000023842, 'positionName': 'LEFT', 'positionCoords': [510.6, 334.5], 'bid': 7.16}, {'imgObject': {}, 'id': 'grilled chicken strips', 'src': '/static/foodstim60/grilled chicken strips.jpg', 'key': 'i', 'origWidth': 410, 'origHeight': 411, 'width': 410, 'height': 411, 'widthPercent': 0.45, 'rescaleHeight': False, 'trialN': 18, 'loaded': True, 'loadedTime': 4384.199999988079, 'positionName': 'RIGHT', 'positionCoords': [998.4, 334.5], 'bid': 7.930000000000001}]",33099.60000002384,1669830627628,raspberries,grilled chicken strips,7.16,7.930000000000001,0.7700000000000005,raspberries,783.5999999642372,784,783.7999999523163,True,u,34386.89999997616,1287.2999999523163,1669830628916,1288,,HRV,HRV_0114,2022-11-30 18:01:10
19,"[{'imgObject': {}, 'id': 'raisin bran w milk', 'src': '/static/foodstim60/raisin bran w milk.jpg', 'key': 'u', 'origWidth': 411, 'origHeight': 411, 'width': 411, 'height': 411, 'widthPercent': 0.45, 'rescaleHeight': False, 'trialN': 19, 'loaded': True, 'loadedTime': 4654, 'positionName': 'LEFT', 'positionCoords': [510.6, 334.5], 'bid': 6.4}, {'imgObject': {}, 'id': 'olives', 'src': '/static/foodstim60/olives.jpg', 'key': 'i', 'origWidth': 410, 'origHeight': 410, 'width': 410, 'height': 410, 'widthPercent': 0.45, 'rescaleHeight': False, 'trialN': 19, 'loaded': True, 'loadedTime': 4586.300000011921, 'positionName': 'RIGHT', 'positionCoords': [998.4, 335], 'bid': 3.67}]",34387.0,1669830628916,raisin bran w milk,olives,6.4,3.67,-2.7300000000000004,olives,920.1000000238419,920,920.3999999761581,True,i,35810.30000001192,1423.300000011921,1669830630339,1423,,HRV,HRV_0114,2022-11-30 18:01:10
20,"[{'imgObject': {}, 'id': 'hashbrowns', 'src': '/static/foodstim60/hashbrowns.jpg', 'key': 'u', 'origWidth': 411, 'origHeight': 410, 'width': 411, 'height': 410, 'widthPercent': 0.45, 'rescaleHeight': False, 'trialN': 20, 'loaded': True, 'loadedTime': 4684, 'positionName': 'LEFT', 'positionCoords': [510.6, 335], 'bid': 1.91}, {'imgObject': {}, 'id': 'granola w milk', 'src': '/static/foodstim60/granola w milk.jpg', 'key': 'i', 'origWidth': 410, 'origHeight': 410, 'width': 410, 'height': 410, 'widthPercent': 0.45, 'rescaleHeight': False, 'trialN': 20, 'loaded': True, 'loadedTime': 4685.5, 'positionName': 'RIGHT', 'positionCoords': [998.4, 335], 'bid': 2.2}]",35810.39999997616,1669830630339,hashbrowns,granola w milk,1.91,2.2,0.29000000000000026,granola w milk,1304.4000000357628,1305,1304.6000000238419,True,i,37618.5,1808.1000000238419,1669830632147,1808,,HRV,HRV_0114,2022-11-30 18:01:10
21,"[{'imgObject': {}, 'id': 'rigatoni and sauce', 'src': '/static/foodstim60/rigatoni and sauce.jpg', 'key': 'u', 'origWidth': 410, 'origHeight': 411, 'width': 410, 'height': 411, 'widthPercent': 0.45, 'rescaleHeight': False, 'trialN': 21, 'loaded': True, 'loadedTime': 4685.699999988079, 'positionName': 'LEFT', 'positionCoords': [511.6, 334.5], 'bid': 9.03}, {'imgObject': {}, 'id': 'chicken nuggets2', 'src': '/static/foodstim60/chicken nuggets2.jpg', 'key': 'i', 'origWidth': 410, 'origHeight': 409, 'width': 410, 'height': 409, 'widthPercent': 0.45, 'rescaleHeight': False, 'trialN': 21, 'loaded': True, 'loadedTime': 4551.600000023842, 'positionName': 'RIGHT', 'positionCoords': [998.4, 335.5], 'bid': 8.92}]",37618.69999998808,1669830632147,rigatoni and sauce,chicken nuggets2,9.03,8.92,-0.10999999999999943,rigatoni and sauce,832.1999999880791,833,832.4000000357628,True,u,38954.69999998808,1336.0,1669830633483,1336,,HRV,HRV_0114,2022-11-30 18:01:10
22,"[{'imgObject': {}, 'id': 'cocktailshrimp', 'src': '/static/foodstim60/cocktailshrimp.jpg', 'key': 'u', 'origWidth': 410, 'origHeight': 410, 'width': 410, 'height': 410, 'widthPercent': 0.45, 'rescaleHeight': False, 'trialN': 22, 'loaded': True, 'loadedTime': 4691, 'positionName': 'LEFT', 'positionCoords': [511.6, 335], 'bid': 8.4}, {'imgObject': {}, 'id': 'luckycharms', 'src': '/static/foodstim60/luckycharms.jpg', 'key': 'i', 'origWidth': 410, 'origHeight': 409, 'width': 410, 'height': 409, 'widthPercent': 0.45, 'rescaleHeight': False, 'trialN': 22, 'loaded': True, 'loadedTime': 4253.600000023842, 'positionName': 'RIGHT', 'positionCoords': [998.4, 335.5], 'bid': 8.84}]",38954.80000001192,1669830633484,cocktailshrimp,luckycharms,8.4,8.84,0.4399999999999995,cocktailshrimp,672.0999999642372,672,672.3000000119209,True,u,40130.69999998808,1175.8999999761581,1669830634659,1175,,HRV,HRV_0114,2022-11-30 18:01:10
23,"[{'imgObject': {}, 'id': 'yogurt no spoon', 'src': '/static/foodstim60/yogurt no spoon.jpg', 'key': 'u', 'origWidth': 411, 'origHeight': 410, 'width': 411, 'height': 410, 'widthPercent': 0.45, 'rescaleHeight': False, 'trialN': 23, 'loaded': True, 'loadedTime': 4450.199999988079, 'positionName': 'LEFT', 'positionCoords': [510.6, 335], 'bid': 6.16}, {'imgObject': {}, 'id': 'raspberries', 'src': '/static/foodstim60/raspberries.jpg', 'key': 'i', 'origWidth': 411, 'origHeight': 411, 'width': 411, 'height': 411, 'widthPercent': 0.45, 'rescaleHeight': False, 'trialN': 23, 'loaded': True, 'loadedTime': 4653, 'positionName': 'RIGHT', 'positionCoords': [998.4, 334.5], 'bid': 7.16}]",40130.69999998808,1669830634659,yogurt no spoon,raspberries,6.16,7.16,1.0,yogurt no spoon,744.4000000357628,745,744.6000000238419,True,u,41378.30000001192,1247.6000000238419,1669830635907,1248,,HRV,HRV_0114,2022-11-30 18:01:10
24,"[{'imgObject': {}, 'id': 'steak', 'src': '/static/foodstim60/steak.jpg', 'key': 'u', 'origWidth': 410, 'origHeight': 410, 'width': 410, 'height': 410, 'widthPercent': 0.45, 'rescaleHeight': False, 'trialN': 24, 'loaded': True, 'loadedTime': 4119.100000023842, 'positionName': 'LEFT', 'positionCoords': [511.6, 335], 'bid': 7.83}, {'imgObject': {}, 'id': 'Grapes', 'src': '/static/foodstim60/Grapes.jpg', 'key': 'i', 'origWidth': 411, 'origHeight': 411, 'width': 411, 'height': 411, 'widthPercent': 0.45, 'rescaleHeight': False, 'trialN': 24, 'loaded': True, 'loadedTime': 4704.600000023842, 'positionName': 'RIGHT', 'positionCoords': [998.4, 334.5], 'bid': 7.33}]",41378.39999997616,1669830635907,steak,Grapes,7.83,7.33,-0.5,steak,704.5,705,704.8000000119209,True,u,42586.30000001192,1207.9000000357628,1669830637115,1208,,HRV,HRV_0114,2022-11-30 18:01:10
25,"[{'imgObject': {}, 'id': 'fried eggs', 'src': '/static/foodstim60/fried eggs.jpg', 'key': 'u', 'origWidth': 410, 'origHeight': 410, 'width': 410, 'height': 410, 'widthPercent': 0.45, 'rescaleHeight': False, 'trialN': 25, 'loaded': True, 'loadedTime': 4707.199999988079, 'positionName': 'LEFT', 'positionCoords': [511.6, 335], 'bid': 5.94}, {'imgObject': {}, 'id': 'strawberries', 'src': '/static/foodstim60/strawberries.jpg', 'key': 'i', 'origWidth': 410, 'origHeight': 410, 'width': 410, 'height': 410, 'widthPercent': 0.45, 'rescaleHeight': False, 'trialN': 25, 'loaded': True, 'loadedTime': 3890, 'positionName': 'RIGHT', 'positionCoords': [998.4, 335], 'bid': 8.63}]",42586.39999997616,1669830637115,fried eggs,strawberries,5.94,8.63,2.6900000000000004,strawberries,960.3000000119209,961,960.5,True,i,44050.19999998808,1463.800000011921,1669830638579,1464,,HRV,HRV_0114,2022-11-30 18:01:10
26,"[{'imgObject': {}, 'id': 'avocado', 'src': '/static/foodstim60/avocado.jpg', 'key': 'u', 'origWidth': 409, 'origHeight': 409, 'width': 409, 'height': 409, 'widthPercent': 0.45, 'rescaleHeight': False, 'trialN': 26, 'loaded': True, 'loadedTime': 4740.5, 'positionName': 'LEFT', 'positionCoords': [512.6, 335.5], 'bid': 5.65}, {'imgObject': {}, 'id': 'popsicles', 'src': '/static/foodstim60/popsicles.jpg', 'key': 'i', 'origWidth': 410, 'origHeight': 410, 'width': 410, 'height': 410, 'widthPercent': 0.45, 'rescaleHeight': False, 'trialN': 26, 'loaded': True, 'loadedTime': 4847.300000011921, 'positionName': 'RIGHT', 'positionCoords': [998.4, 335], 'bid': 5.5600000000000005}]",44050.30000001192,1669830638579,avocado,popsicles,5.65,5.5600000000000005,-0.08999999999999986,popsicles,1016.5999999642372,1017,1016.8000000119209,True,i,45570.39999997616,1520.0999999642372,1669830640099,1520,,HRV,HRV_0114,2022-11-30 18:01:10
27,"[{'imgObject': {}, 'id': 'banana', 'src': '/static/foodstim60/banana.jpg', 'key': 'u', 'origWidth': 410, 'origHeight': 410, 'width': 410, 'height': 410, 'widthPercent': 0.45, 'rescaleHeight': False, 'trialN': 27, 'loaded': True, 'loadedTime': 4759.5, 'positionName': 'LEFT', 'positionCoords': [511.6, 335], 'bid': 3.45}, {'imgObject': {}, 'id': 'seaweed', 'src': '/static/foodstim60/seaweed.jpg', 'key': 'i', 'origWidth': 410, 'origHeight': 410, 'width': 410, 'height': 410, 'widthPercent': 0.45, 'rescaleHeight': False, 'trialN': 27, 'loaded': True, 'loadedTime': 4778.5, 'positionName': 'RIGHT', 'positionCoords': [998.4, 335], 'bid': 3.02}]",45570.5,1669830640099,banana,seaweed,3.45,3.02,-0.43000000000000016,banana,960.3000000119209,961,960.5,True,u,47034.39999997616,1463.8999999761581,1669830641563,1464,,HRV,HRV_0114,2022-11-30 18:01:10
28,"[{'imgObject': {}, 'id': 'cherry tomato', 'src': '/static/foodstim60/cherry tomato.jpg', 'key': 'u', 'origWidth': 410, 'origHeight': 410, 'width': 410, 'height': 410, 'widthPercent': 0.45, 'rescaleHeight': False, 'trialN': 28, 'loaded': True, 'loadedTime': 4484.800000011921, 'positionName': 'LEFT', 'positionCoords': [511.6, 335], 'bid': 8.620000000000001}, {'imgObject': {}, 'id': 'rigatoni and sauce', 'src': '/static/foodstim60/rigatoni and sauce.jpg', 'key': 'i', 'origWidth': 410, 'origHeight': 411, 'width': 410, 'height': 411, 'widthPercent': 0.45, 'rescaleHeight': False, 'trialN': 28, 'loaded': True, 'loadedTime': 4688.199999988079, 'positionName': 'RIGHT', 'positionCoords': [998.4, 334.5], 'bid': 9.03}]",47034.80000001192,1669830641563,cherry tomato,rigatoni and sauce,8.620000000000001,9.03,0.40999999999999837,rigatoni and sauce,648,649,648.1999999880791,True,i,48186.39999997616,1151.5999999642372,1669830642715,1152,,HRV,HRV_0114,2022-11-30 18:01:10
29,"[{'imgObject': {}, 'id': 'tacos', 'src': '/static/foodstim60/tacos.jpg', 'key': 'u', 'origWidth': 411, 'origHeight': 411, 'width': 411, 'height': 411, 'widthPercent': 0.45, 'rescaleHeight': False, 'trialN': 29, 'loaded': True, 'loadedTime': 4778.899999976158, 'positionName': 'LEFT', 'positionCoords': [510.6, 334.5], 'bid': 8.790000000000001}, {'imgObject': {}, 'id': 'edamame', 'src': '/static/foodstim60/edamame.jpg', 'key': 'i', 'origWidth': 409, 'origHeight': 410, 'width': 409, 'height': 410, 'widthPercent': 0.45, 'rescaleHeight': False, 'trialN': 29, 'loaded': True, 'loadedTime': 4334.899999976158, 'positionName': 'RIGHT', 'positionCoords': [998.4, 335], 'bid': 8.81}]",48186.5,1669830642715,tacos,edamame,8.790000000000001,8.81,0.019999999999999574,tacos,824.1999999880791,825,824.5,True,u,49514.89999997616,1328.3999999761581,1669830644044,1329,,HRV,HRV_0114,2022-11-30 18:01:10
30,"[{'imgObject': {}, 'id': 'cherry tomato', 'src': '/static/foodstim60/cherry tomato.jpg', 'key': 'u', 'origWidth': 410, 'origHeight': 410, 'width': 410, 'height': 410, 'widthPercent': 0.45, 'rescaleHeight': False, 'trialN': 30, 'loaded': True, 'loadedTime': 4484.699999988079, 'positionName': 'LEFT', 'positionCoords': [511.6, 335], 'bid': 8.620000000000001}, {'imgObject': {}, 'id': 'froot loops w milk', 'src': '/static/foodstim60/froot loops w milk.jpg', 'key': 'i', 'origWidth': 410, 'origHeight': 410, 'width': 410, 'height': 410, 'widthPercent': 0.45, 'rescaleHeight': False, 'trialN': 30, 'loaded': True, 'loadedTime': 4049.300000011921, 'positionName': 'RIGHT', 'positionCoords': [998.4, 335], 'bid': 7.75}]",49515.0,1669830644044,cherry tomato,froot loops w milk,8.620000000000001,7.75,-0.870000000000001,froot loops w milk,1304.199999988079,1304,1304.300000011921,True,i,51323.60000002384,1808.6000000238419,1669830645852,1808,,HRV,HRV_0114,2022-11-30 18:01:10
31,"[{'imgObject': {}, 'id': 'rigatoni and sauce', 'src': '/static/foodstim60/rigatoni and sauce.jpg', 'key': 'u', 'origWidth': 410, 'origHeight': 411, 'width': 410, 'height': 411, 'widthPercent': 0.45, 'rescaleHeight': False, 'trialN': 31, 'loaded': True, 'loadedTime': 4689.899999976158, 'positionName': 'LEFT', 'positionCoords': [511.6, 334.5], 'bid': 9.03}, {'imgObject': {}, 'id': 'chickenfingers', 'src': '/static/foodstim60/chickenfingers.jpg', 'key': 'i', 'origWidth': 410, 'origHeight': 410, 'width': 410, 'height': 410, 'widthPercent': 0.45, 'rescaleHeight': False, 'trialN': 31, 'loaded': True, 'loadedTime': 4099.399999976158, 'positionName': 'RIGHT', 'positionCoords': [998.4, 335], 'bid': 8.8}]",51323.69999998808,1669830645852,rigatoni and sauce,chickenfingers,9.03,8.8,-0.22999999999999865,rigatoni and sauce,583.3000000119209,584,583.4000000357628,True,u,52410.5,1086.800000011921,1669830646939,1087,,HRV,HRV_0114,2022-11-30 18:01:10
32,"[{'imgObject': {}, 'id': 'lox', 'src': '/static/foodstim60/lox.jpg', 'key': 'u', 'origWidth': 410, 'origHeight': 411, 'width': 410, 'height': 411, 'widthPercent': 0.45, 'rescaleHeight': False, 'trialN': 32, 'loaded': True, 'loadedTime': 4501.199999988079, 'positionName': 'LEFT', 'positionCoords': [511.6, 334.5], 'bid': 8.71}, {'imgObject': {}, 'id': 'mashed potato', 'src': '/static/foodstim60/mashed potato.jpg', 'key': 'i', 'origWidth': 409, 'origHeight': 409, 'width': 409, 'height': 409, 'widthPercent': 0.45, 'rescaleHeight': False, 'trialN': 32, 'loaded': True, 'loadedTime': 4796, 'positionName': 'RIGHT', 'positionCoords': [998.4, 335.5], 'bid': 9.18}]",52410.69999998808,1669830646939,lox,mashed potato,8.71,9.18,0.46999999999999886,lox,664.1000000238419,665,664.1999999880791,True,u,53577.69999998808,1167.0,1669830648106,1167,,HRV,HRV_0114,2022-11-30 18:01:10
33,"[{'imgObject': {}, 'id': 'Tribe humus pita', 'src': '/static/foodstim60/Tribe humus pita.jpg', 'key': 'u', 'origWidth': 411, 'origHeight': 411, 'width': 411, 'height': 411, 'widthPercent': 0.45, 'rescaleHeight': False, 'trialN': 33, 'loaded': True, 'loadedTime': 4796.899999976158, 'positionName': 'LEFT', 'positionCoords': [510.6, 334.5], 'bid': 7.59}, {'imgObject': {}, 'id': 'apple slices', 'src': '/static/foodstim60/apple slices.jpg', 'key': 'i', 'origWidth': 409, 'origHeight': 410, 'width': 409, 'height': 410, 'widthPercent': 0.45, 'rescaleHeight': False, 'trialN': 33, 'loaded': True, 'loadedTime': 4170.300000011921, 'positionName': 'RIGHT', 'positionCoords': [998.4, 335], 'bid': 7.97}]",53577.80000001192,1669830648107,Tribe humus pita,apple slices,7.59,7.97,0.3799999999999999,Tribe humus pita,937.0999999642372,938,937.5999999642372,True,u,55018.69999998808,1440.8999999761581,1669830649548,1441,,HRV,HRV_0114,2022-11-30 18:01:10
34,"[{'imgObject': {}, 'id': 'corn cob', 'src': '/static/foodstim60/corn cob.jpg', 'key': 'u', 'origWidth': 411, 'origHeight': 411, 'width': 411, 'height': 411, 'widthPercent': 0.45, 'rescaleHeight': False, 'trialN': 34, 'loaded': True, 'loadedTime': 4353.600000023842, 'positionName': 'LEFT', 'positionCoords': [510.6, 334.5], 'bid': 7.41}, {'imgObject': {}, 'id': 'cheerios', 'src': '/static/foodstim60/cheerios.jpg', 'key': 'i', 'origWidth': 409, 'origHeight': 410, 'width': 409, 'height': 410, 'widthPercent': 0.45, 'rescaleHeight': False, 'trialN': 34, 'loaded': True, 'loadedTime': 4637.5, 'positionName': 'RIGHT', 'positionCoords': [998.4, 335], 'bid': 3.96}]",55018.80000001192,1669830649548,corn cob,cheerios,7.41,3.96,-3.45,corn cob,608.1999999880791,608,608.3000000119209,True,u,56131.10000002384,1112.300000011921,1669830650660,1112,,HRV,HRV_0114,2022-11-30 18:01:10
35,"[{'imgObject': {}, 'id': 'salmon', 'src': '/static/foodstim60/salmon.jpg', 'key': 'u', 'origWidth': 410, 'origHeight': 409, 'width': 410, 'height': 409, 'widthPercent': 0.45, 'rescaleHeight': False, 'trialN': 35, 'loaded': True, 'loadedTime': 4191, 'positionName': 'LEFT', 'positionCoords': [511.6, 335.5], 'bid': 3.82}, {'imgObject': {}, 'id': 'cocktailshrimp', 'src': '/static/foodstim60/cocktailshrimp.jpg', 'key': 'i', 'origWidth': 410, 'origHeight': 410, 'width': 410, 'height': 410, 'widthPercent': 0.45, 'rescaleHeight': False, 'trialN': 35, 'loaded': True, 'loadedTime': 4691, 'positionName': 'RIGHT', 'positionCoords': [998.4, 335], 'bid': 8.4}]",56131.19999998808,1669830650660,salmon,cocktailshrimp,3.82,8.4,4.58,cocktailshrimp,1095.699999988079,1096,1095.9000000357628,True,i,57730.69999998808,1599.5,1669830652260,1600,,HRV,HRV_0114,2022-11-30 18:01:10
36,"[{'imgObject': {}, 'id': 'apple slices', 'src': '/static/foodstim60/apple slices.jpg', 'key': 'u', 'origWidth': 409, 'origHeight': 410, 'width': 409, 'height': 410, 'widthPercent': 0.45, 'rescaleHeight': False, 'trialN': 36, 'loaded': True, 'loadedTime': 4170, 'positionName': 'LEFT', 'positionCoords': [512.6, 335], 'bid': 7.97}, {'imgObject': {}, 'id': 'veggieswithdip', 'src': '/static/foodstim60/veggieswithdip.jpg', 'key': 'i', 'origWidth': 409, 'origHeight': 409, 'width': 409, 'height': 409, 'widthPercent': 0.45, 'rescaleHeight': False, 'trialN': 36, 'loaded': True, 'loadedTime': 4813.899999976158, 'positionName': 'RIGHT', 'positionCoords': [998.4, 335.5], 'bid': 7.98}]",57730.89999997616,1669830652260,apple slices,veggieswithdip,7.97,7.98,0.010000000000000675,veggieswithdip,896.2000000476837,896,896.4000000357628,True,i,59130.69999998808,1399.800000011921,1669830653660,1400,,HRV,HRV_0114,2022-11-30 18:01:10
37,"[{'imgObject': {}, 'id': 'ice cream sundae 002', 'src': '/static/foodstim60/ice cream sundae 002.jpg', 'key': 'u', 'origWidth': 409, 'origHeight': 409, 'width': 409, 'height': 409, 'widthPercent': 0.45, 'rescaleHeight': False, 'trialN': 37, 'loaded': True, 'loadedTime': 4595.300000011921, 'positionName': 'LEFT', 'positionCoords': [512.6, 335.5], 'bid': 8.14}, {'imgObject': {}, 'id': 'Tribe humus pita', 'src': '/static/foodstim60/Tribe humus pita.jpg', 'key': 'i', 'origWidth': 411, 'origHeight': 411, 'width': 411, 'height': 411, 'widthPercent': 0.45, 'rescaleHeight': False, 'trialN': 37, 'loaded': True, 'loadedTime': 4812.600000023842, 'positionName': 'RIGHT', 'positionCoords': [998.4, 334.5], 'bid': 7.59}]",59130.89999997616,1669830653660,ice cream sundae 002,Tribe humus pita,8.14,7.59,-0.5500000000000007,Tribe humus pita,823.8000000119209,824,824.0,True,i,60459.10000002384,1328.2000000476837,1669830654988,1328,,HRV,HRV_0114,2022-11-30 18:01:10
38,"[{'imgObject': {}, 'id': 'baked potato', 'src': '/static/foodstim60/baked potato.jpg', 'key': 'u', 'origWidth': 409, 'origHeight': 410, 'width': 409, 'height': 410, 'widthPercent': 0.45, 'rescaleHeight': False, 'trialN': 38, 'loaded': True, 'loadedTime': 4814.899999976158, 'positionName': 'LEFT', 'positionCoords': [512.6, 335], 'bid': 8.51}, {'imgObject': {}, 'id': 'strawberries', 'src': '/static/foodstim60/strawberries.jpg', 'key': 'i', 'origWidth': 410, 'origHeight': 410, 'width': 410, 'height': 410, 'widthPercent': 0.45, 'rescaleHeight': False, 'trialN': 38, 'loaded': True, 'loadedTime': 3891.800000011921, 'positionName': 'RIGHT', 'positionCoords': [998.4, 335], 'bid': 8.63}]",60459.19999998808,1669830654988,baked potato,strawberries,8.51,8.63,0.120000000000001,strawberries,1087.4000000357628,1088,1087.699999988079,True,i,62050.60000002384,1591.4000000357628,1669830656580,1592,,HRV,HRV_0114,2022-11-30 18:01:10
39,"[{'imgObject': {}, 'id': 'chickenfingers', 'src': '/static/foodstim60/chickenfingers.jpg', 'key': 'u', 'origWidth': 410, 'origHeight': 410, 'width': 410, 'height': 410, 'widthPercent': 0.45, 'rescaleHeight': False, 'trialN': 39, 'loaded': True, 'loadedTime': 4086.100000023842, 'positionName': 'LEFT', 'positionCoords': [511.6, 335], 'bid': 8.8}, {'imgObject': {}, 'id': 'luckycharms', 'src': '/static/foodstim60/luckycharms.jpg', 'key': 'i', 'origWidth': 410, 'origHeight': 409, 'width': 410, 'height': 409, 'widthPercent': 0.45, 'rescaleHeight': False, 'trialN': 39, 'loaded': True, 'loadedTime': 4238.100000023842, 'positionName': 'RIGHT', 'positionCoords': [998.4, 335.5], 'bid': 8.84}]",62050.80000001192,1669830656580,chickenfingers,luckycharms,8.8,8.84,0.03999999999999915,luckycharms,712.0999999642372,712,712.3000000119209,True,i,63266.39999997616,1215.5999999642372,1669830657796,1216,,HRV,HRV_0114,2022-11-30 18:01:10
40,"[{'imgObject': {}, 'id': 'luckycharms', 'src': '/static/foodstim60/luckycharms.jpg', 'key': 'u', 'origWidth': 410, 'origHeight': 409, 'width': 410, 'height': 409, 'widthPercent': 0.45, 'rescaleHeight': False, 'trialN': 40, 'loaded': True, 'loadedTime': 4253.800000011921, 'positionName': 'LEFT', 'positionCoords': [511.6, 335.5], 'bid': 8.84}, {'imgObject': {}, 'id': 'rigatoni', 'src': '/static/foodstim60/rigatoni.jpg', 'key': 'i', 'origWidth': 411, 'origHeight': 411, 'width': 411, 'height': 411, 'widthPercent': 0.45, 'rescaleHeight': False, 'trialN': 40, 'loaded': True, 'loadedTime': 4596.699999988079, 'positionName': 'RIGHT', 'positionCoords': [998.4, 334.5], 'bid': 8.040000000000001}]",63266.5,1669830657796,luckycharms,rigatoni,8.84,8.040000000000001,-0.7999999999999989,rigatoni,664.1999999880791,664,664.5,True,i,64434.39999997616,1167.8999999761581,1669830658964,1168,,HRV,HRV_0114,2022-11-30 18:01:10
41,"[{'imgObject': {}, 'id': 'blueberries', 'src': '/static/foodstim60/blueberries.jpg', 'key': 'u', 'origWidth': 411, 'origHeight': 411, 'width': 411, 'height': 411, 'widthPercent': 0.45, 'rescaleHeight': False, 'trialN': 41, 'loaded': True, 'loadedTime': 4834.199999988079, 'positionName': 'LEFT', 'positionCoords': [510.6, 334.5], 'bid': 6.8}, {'imgObject': {}, 'id': 'banana', 'src': '/static/foodstim60/banana.jpg', 'key': 'i', 'origWidth': 410, 'origHeight': 410, 'width': 410, 'height': 410, 'widthPercent': 0.45, 'rescaleHeight': False, 'trialN': 41, 'loaded': True, 'loadedTime': 4741.5, 'positionName': 'RIGHT', 'positionCoords': [998.4, 335], 'bid': 3.45}]",64434.60000002384,1669830658964,blueberries,banana,6.8,3.45,-3.3499999999999996,blueberries,792.1999999880791,792,792.3999999761581,True,u,65729.89999997616,1295.2999999523163,1669830660259,1295,,HRV,HRV_0114,2022-11-30 18:01:10
42,"[{'imgObject': {}, 'id': 'eggsalad', 'src': '/static/foodstim60/eggsalad.jpg', 'key': 'u', 'origWidth': 410, 'origHeight': 409, 'width': 410, 'height': 409, 'widthPercent': 0.45, 'rescaleHeight': False, 'trialN': 42, 'loaded': True, 'loadedTime': 4223.5, 'positionName': 'LEFT', 'positionCoords': [511.6, 335.5], 'bid': 3.72}, {'imgObject': {}, 'id': 'bagel plain', 'src': '/static/foodstim60/bagel plain.jpg', 'key': 'i', 'origWidth': 410, 'origHeight': 410, 'width': 410, 'height': 410, 'widthPercent': 0.45, 'rescaleHeight': False, 'trialN': 42, 'loaded': True, 'loadedTime': 4835.100000023842, 'positionName': 'RIGHT', 'positionCoords': [998.4, 335], 'bid': 7.31}]",65730.0,1669830660259,eggsalad,bagel plain,3.72,7.31,3.5899999999999994,bagel plain,889.3000000119209,890,889.6000000238419,True,i,67122.30000001192,1392.300000011921,1669830661651,1392,,HRV,HRV_0114,2022-11-30 18:01:10
43,"[{'imgObject': {}, 'id': 'tacos', 'src': '/static/foodstim60/tacos.jpg', 'key': 'u', 'origWidth': 411, 'origHeight': 411, 'width': 411, 'height': 411, 'widthPercent': 0.45, 'rescaleHeight': False, 'trialN': 43, 'loaded': True, 'loadedTime': 4779.699999988079, 'positionName': 'LEFT', 'positionCoords': [510.6, 334.5], 'bid': 8.790000000000001}, {'imgObject': {}, 'id': 'raisin bran w milk', 'src': '/static/foodstim60/raisin bran w milk.jpg', 'key': 'i', 'origWidth': 411, 'origHeight': 411, 'width': 411, 'height': 411, 'widthPercent': 0.45, 'rescaleHeight': False, 'trialN': 43, 'loaded': True, 'loadedTime': 4653.199999988079, 'positionName': 'RIGHT', 'positionCoords': [998.4, 334.5], 'bid': 6.4}]",67122.5,1669830661652,tacos,raisin bran w milk,8.790000000000001,6.4,-2.3900000000000006,tacos,592.6000000238419,592,592.8000000119209,True,u,68219.60000002384,1097.1000000238419,1669830662749,1097,,HRV,HRV_0114,2022-11-30 18:01:10
44,"[{'imgObject': {}, 'id': 'steak', 'src': '/static/foodstim60/steak.jpg', 'key': 'u', 'origWidth': 410, 'origHeight': 410, 'width': 410, 'height': 410, 'widthPercent': 0.45, 'rescaleHeight': False, 'trialN': 44, 'loaded': True, 'loadedTime': 4136.899999976158, 'positionName': 'LEFT', 'positionCoords': [511.6, 335], 'bid': 7.83}, {'imgObject': {}, 'id': 'kiwi', 'src': '/static/foodstim60/kiwi.jpg', 'key': 'i', 'origWidth': 410, 'origHeight': 410, 'width': 410, 'height': 410, 'widthPercent': 0.45, 'rescaleHeight': False, 'trialN': 44, 'loaded': True, 'loadedTime': 4591.800000011921, 'positionName': 'RIGHT', 'positionCoords': [998.4, 335], 'bid': 7.65}]",68219.69999998808,1669830662749,steak,kiwi,7.83,7.65,-0.17999999999999972,steak,655.1000000238419,655,655.3000000119209,True,u,69379.19999998808,1159.5,1669830663908,1159,,HRV,HRV_0114,2022-11-30 18:01:10
45,"[{'imgObject': {}, 'id': 'cocktailshrimp', 'src': '/static/foodstim60/cocktailshrimp.jpg', 'key': 'u', 'origWidth': 410, 'origHeight': 410, 'width': 410, 'height': 410, 'widthPercent': 0.45, 'rescaleHeight': False, 'trialN': 45, 'loaded': True, 'loadedTime': 4691, 'positionName': 'LEFT', 'positionCoords': [511.6, 335], 'bid': 8.4}, {'imgObject': {}, 'id': 'blackbeanswithrice', 'src': '/static/foodstim60/blackbeanswithrice.jpg', 'key': 'i', 'origWidth': 410, 'origHeight': 410, 'width': 410, 'height': 410, 'widthPercent': 0.45, 'rescaleHeight': False, 'trialN': 45, 'loaded': True, 'loadedTime': 4024.300000011921, 'positionName': 'RIGHT', 'positionCoords': [998.4, 335], 'bid': 8.34}]",69379.30000001192,1669830663908,cocktailshrimp,blackbeanswithrice,8.4,8.34,-0.0600000000000005,cocktailshrimp,663.5999999642372,664,663.6999999880791,True,u,70546.69999998808,1167.3999999761581,1669830665076,1168,,HRV,HRV_0114,2022-11-30 18:01:10
46,"[{'imgObject': {}, 'id': 'Tribe humus pita', 'src': '/static/foodstim60/Tribe humus pita.jpg', 'key': 'u', 'origWidth': 411, 'origHeight': 411, 'width': 411, 'height': 411, 'widthPercent': 0.45, 'rescaleHeight': False, 'trialN': 46, 'loaded': True, 'loadedTime': 4796.899999976158, 'positionName': 'LEFT', 'positionCoords': [510.6, 334.5], 'bid': 7.59}, {'imgObject': {}, 'id': 'burrito', 'src': '/static/foodstim60/burrito.jpg', 'key': 'i', 'origWidth': 410, 'origHeight': 410, 'width': 410, 'height': 410, 'widthPercent': 0.45, 'rescaleHeight': False, 'trialN': 46, 'loaded': True, 'loadedTime': 4836, 'positionName': 'RIGHT', 'positionCoords': [998.4, 335], 'bid': 9.32}]",70546.80000001192,1669830665076,Tribe humus pita,burrito,7.59,9.32,1.7300000000000004,Tribe humus pita,736,736,736.0999999642372,True,u,71786.19999998808,1239.3999999761581,1669830666315,1239,,HRV,HRV_0114,2022-11-30 18:01:10
47,"[{'imgObject': {}, 'id': 'corn cob', 'src': '/static/foodstim60/corn cob.jpg', 'key': 'u', 'origWidth': 411, 'origHeight': 411, 'width': 411, 'height': 411, 'widthPercent': 0.45, 'rescaleHeight': False, 'trialN': 47, 'loaded': True, 'loadedTime': 4366.800000011921, 'positionName': 'LEFT', 'positionCoords': [510.6, 334.5], 'bid': 7.41}, {'imgObject': {}, 'id': 'mashed potato', 'src': '/static/foodstim60/mashed potato.jpg', 'key': 'i', 'origWidth': 409, 'origHeight': 409, 'width': 409, 'height': 409, 'widthPercent': 0.45, 'rescaleHeight': False, 'trialN': 47, 'loaded': True, 'loadedTime': 4795, 'positionName': 'RIGHT', 'positionCoords': [998.4, 335.5], 'bid': 9.18}]",71786.30000001192,1669830666315,corn cob,mashed potato,7.41,9.18,1.7699999999999996,mashed potato,2032.699999988079,2033,2032.8999999761581,True,i,74321.80000001192,2535.5,1669830668851,2536,,HRV,HRV_0114,2022-11-30 18:01:10
48,"[{'imgObject': {}, 'id': 'veggieswithdip', 'src': '/static/foodstim60/veggieswithdip.jpg', 'key': 'u', 'origWidth': 409, 'origHeight': 409, 'width': 409, 'height': 409, 'widthPercent': 0.45, 'rescaleHeight': False, 'trialN': 48, 'loaded': True, 'loadedTime': 4814, 'positionName': 'LEFT', 'positionCoords': [512.6, 335.5], 'bid': 7.98}, {'imgObject': {}, 'id': 'kiwi', 'src': '/static/foodstim60/kiwi.jpg', 'key': 'i', 'origWidth': 410, 'origHeight': 410, 'width': 410, 'height': 410, 'widthPercent': 0.45, 'rescaleHeight': False, 'trialN': 48, 'loaded': True, 'loadedTime': 4591.800000011921, 'positionName': 'RIGHT', 'positionCoords': [998.4, 335], 'bid': 7.65}]",74322.0,1669830668851,veggieswithdip,kiwi,7.98,7.65,-0.33000000000000007,veggieswithdip,593.3000000119209,594,593.5,True,u,75418.80000001192,1096.800000011921,1669830669948,1097,,HRV,HRV_0114,2022-11-30 18:01:10
49,"[{'imgObject': {}, 'id': 'yogurt no spoon', 'src': '/static/foodstim60/yogurt no spoon.jpg', 'key': 'u', 'origWidth': 411, 'origHeight': 410, 'width': 411, 'height': 410, 'widthPercent': 0.45, 'rescaleHeight': False, 'trialN': 49, 'loaded': True, 'loadedTime': 4467.600000023842, 'positionName': 'LEFT', 'positionCoords': [510.6, 335], 'bid': 6.16}, {'imgObject': {}, 'id': 'fried eggs', 'src': '/static/foodstim60/fried eggs.jpg', 'key': 'i', 'origWidth': 410, 'origHeight': 410, 'width': 410, 'height': 410, 'widthPercent': 0.45, 'rescaleHeight': False, 'trialN': 49, 'loaded': True, 'loadedTime': 4704.899999976158, 'positionName': 'RIGHT', 'positionCoords': [998.4, 335], 'bid': 5.94}]",75418.80000001192,1669830669948,yogurt no spoon,fried eggs,6.16,5.94,-0.21999999999999975,yogurt no spoon,800.3000000119209,800,800.5,True,u,76723.0,1304.199999988079,1669830671252,1304,,HRV,HRV_0114,2022-11-30 18:01:10
50,"[{'imgObject': {}, 'id': 'chickenfingers', 'src': '/static/foodstim60/chickenfingers.jpg', 'key': 'u', 'origWidth': 410, 'origHeight': 410, 'width': 410, 'height': 410, 'widthPercent': 0.45, 'rescaleHeight': False, 'trialN': 50, 'loaded': True, 'loadedTime': 4102.199999988079, 'positionName': 'LEFT', 'positionCoords': [511.6, 335], 'bid': 8.8}, {'imgObject': {}, 'id': 'tacos', 'src': '/static/foodstim60/tacos.jpg', 'key': 'i', 'origWidth': 411, 'origHeight': 411, 'width': 411, 'height': 411, 'widthPercent': 0.45, 'rescaleHeight': False, 'trialN': 50, 'loaded': True, 'loadedTime': 4779.600000023842, 'positionName': 'RIGHT', 'positionCoords': [998.4, 334.5], 'bid': 8.790000000000001}]",76723.19999998808,1669830671252,chickenfingers,tacos,8.8,8.790000000000001,-0.009999999999999787,tacos,735.9000000357628,737,736.1999999880791,True,i,77962.30000001192,1239.1000000238419,1669830672491,1239,,HRV,HRV_0114,2022-11-30 18:01:10
51,"[{'imgObject': {}, 'id': 'burrito', 'src': '/static/foodstim60/burrito.jpg', 'key': 'u', 'origWidth': 410, 'origHeight': 410, 'width': 410, 'height': 410, 'widthPercent': 0.45, 'rescaleHeight': False, 'trialN': 51, 'loaded': True, 'loadedTime': 4836, 'positionName': 'LEFT', 'positionCoords': [511.6, 335], 'bid': 9.32}, {'imgObject': {}, 'id': 'mac & cheese', 'src': '/static/foodstim60/mac & cheese.jpg', 'key': 'i', 'origWidth': 410, 'origHeight': 410, 'width': 410, 'height': 410, 'widthPercent': 0.45, 'rescaleHeight': False, 'trialN': 51, 'loaded': True, 'loadedTime': 3937.399999976158, 'positionName': 'RIGHT', 'positionCoords': [998.4, 335], 'bid': 9.65}]",77962.30000001192,1669830672492,burrito,mac & cheese,9.32,9.65,0.33000000000000007,mac & cheese,600.6999999880791,600,600.8999999761581,True,i,79066.30000001192,1104.0,1669830673595,1103,,HRV,HRV_0114,2022-11-30 18:01:10
52,"[{'imgObject': {}, 'id': 'banana', 'src': '/static/foodstim60/banana.jpg', 'key': 'u', 'origWidth': 410, 'origHeight': 410, 'width': 410, 'height': 410, 'widthPercent': 0.45, 'rescaleHeight': False, 'trialN': 52, 'loaded': True, 'loadedTime': 4760, 'positionName': 'LEFT', 'positionCoords': [511.6, 335], 'bid': 3.45}, {'imgObject': {}, 'id': 'shreddedwheatwithmilk', 'src': '/static/foodstim60/shreddedwheatwithmilk.jpg', 'key': 'i', 'origWidth': 410, 'origHeight': 410, 'width': 410, 'height': 410, 'widthPercent': 0.45, 'rescaleHeight': False, 'trialN': 52, 'loaded': True, 'loadedTime': 4420.399999976158, 'positionName': 'RIGHT', 'positionCoords': [998.4, 335], 'bid': 3.61}]",79066.30000001192,1669830673596,banana,shreddedwheatwithmilk,3.45,3.61,0.1599999999999997,banana,1088.5999999642372,1088,1088.8999999761581,True,u,80658.5,1592.199999988079,1669830675188,1592,,HRV,HRV_0114,2022-11-30 18:01:10
53,"[{'imgObject': {}, 'id': 'edamame', 'src': '/static/foodstim60/edamame.jpg', 'key': 'u', 'origWidth': 409, 'origHeight': 410, 'width': 409, 'height': 410, 'widthPercent': 0.45, 'rescaleHeight': False, 'trialN': 53, 'loaded': True, 'loadedTime': 4335.100000023842, 'positionName': 'LEFT', 'positionCoords': [512.6, 335], 'bid': 8.81}, {'imgObject': {}, 'id': 'sweetpotato', 'src': '/static/foodstim60/sweetpotato.jpg', 'key': 'i', 'origWidth': 410, 'origHeight': 410, 'width': 410, 'height': 410, 'widthPercent': 0.45, 'rescaleHeight': False, 'trialN': 53, 'loaded': True, 'loadedTime': 4836.100000023842, 'positionName': 'RIGHT', 'positionCoords': [998.4, 335], 'bid': 9.16}]",80658.5,1669830675188,edamame,sweetpotato,8.81,9.16,0.34999999999999964,sweetpotato,752.1999999880791,752,752.5,True,i,81915.0,1256.5,1669830676444,1256,,HRV,HRV_0114,2022-11-30 18:01:10
54,"[{'imgObject': {}, 'id': 'cocktailshrimp', 'src': '/static/foodstim60/cocktailshrimp.jpg', 'key': 'u', 'origWidth': 410, 'origHeight': 410, 'width': 410, 'height': 410, 'widthPercent': 0.45, 'rescaleHeight': False, 'trialN': 54, 'loaded': True, 'loadedTime': 4690.100000023842, 'positionName': 'LEFT', 'positionCoords': [511.6, 335], 'bid': 8.4}, {'imgObject': {}, 'id': 'lox', 'src': '/static/foodstim60/lox.jpg', 'key': 'i', 'origWidth': 410, 'origHeight': 411, 'width': 410, 'height': 411, 'widthPercent': 0.45, 'rescaleHeight': False, 'trialN': 54, 'loaded': True, 'loadedTime': 4535, 'positionName': 'RIGHT', 'positionCoords': [998.4, 334.5], 'bid': 8.71}]",81915.10000002384,1669830676444,cocktailshrimp,lox,8.4,8.71,0.3100000000000005,cocktailshrimp,759.5999999642372,760,759.7999999523163,True,u,83178.39999997616,1263.2999999523163,1669830677708,1264,,HRV,HRV_0114,2022-11-30 18:01:10
55,"[{'imgObject': {}, 'id': 'burrito', 'src': '/static/foodstim60/burrito.jpg', 'key': 'u', 'origWidth': 410, 'origHeight': 410, 'width': 410, 'height': 410, 'widthPercent': 0.45, 'rescaleHeight': False, 'trialN': 55, 'loaded': True, 'loadedTime': 4836.100000023842, 'positionName': 'LEFT', 'positionCoords': [511.6, 335], 'bid': 9.32}, {'imgObject': {}, 'id': 'tacos', 'src': '/static/foodstim60/tacos.jpg', 'key': 'i', 'origWidth': 411, 'origHeight': 411, 'width': 411, 'height': 411, 'widthPercent': 0.45, 'rescaleHeight': False, 'trialN': 55, 'loaded': True, 'loadedTime': 4779.899999976158, 'positionName': 'RIGHT', 'positionCoords': [998.4, 334.5], 'bid': 8.790000000000001}]",83178.5,1669830677708,burrito,tacos,9.32,8.790000000000001,-0.5299999999999994,burrito,712.3000000119209,712,712.5,True,u,84394.60000002384,1216.1000000238419,1669830678924,1216,,HRV,HRV_0114,2022-11-30 18:01:10
56,"[{'imgObject': {}, 'id': 'eggsalad', 'src': '/static/foodstim60/eggsalad.jpg', 'key': 'u', 'origWidth': 410, 'origHeight': 409, 'width': 410, 'height': 409, 'widthPercent': 0.45, 'rescaleHeight': False, 'trialN': 56, 'loaded': True, 'loadedTime': 4221.100000023842, 'positionName': 'LEFT', 'positionCoords': [511.6, 335.5], 'bid': 3.72}, {'imgObject': {}, 'id': 'granola w milk', 'src': '/static/foodstim60/granola w milk.jpg', 'key': 'i', 'origWidth': 410, 'origHeight': 410, 'width': 410, 'height': 410, 'widthPercent': 0.45, 'rescaleHeight': False, 'trialN': 56, 'loaded': True, 'loadedTime': 4684.699999988079, 'positionName': 'RIGHT', 'positionCoords': [998.4, 335], 'bid': 2.2}]",84394.69999998808,1669830678924,eggsalad,granola w milk,3.72,2.2,-1.52,eggsalad,968.1999999880791,968,968.4000000357628,True,u,85866.5,1471.800000011921,1669830680396,1472,,HRV,HRV_0114,2022-11-30 18:01:10
57,"[{'imgObject': {}, 'id': 'burger', 'src': '/static/foodstim60/burger.jpg', 'key': 'u', 'origWidth': 409, 'origHeight': 409, 'width': 409, 'height': 409, 'widthPercent': 0.45, 'rescaleHeight': False, 'trialN': 57, 'loaded': True, 'loadedTime': 4837.800000011921, 'positionName': 'LEFT', 'positionCoords': [512.6, 335.5], 'bid': 7.15}, {'imgObject': {}, 'id': 'pear', 'src': '/static/foodstim60/pear.jpg', 'key': 'i', 'origWidth': 411, 'origHeight': 410, 'width': 411, 'height': 410, 'widthPercent': 0.45, 'rescaleHeight': False, 'trialN': 57, 'loaded': True, 'loadedTime': 4585.899999976158, 'positionName': 'RIGHT', 'positionCoords': [998.4, 335], 'bid': 8.870000000000001}]",85866.5,1669830680396,burger,pear,7.15,8.870000000000001,1.7200000000000006,burger,840.1999999880791,840,840.5,True,u,87211.30000001192,1344.800000011921,1669830681740,1344,,HRV,HRV_0114,2022-11-30 18:01:10
58,"[{'imgObject': {}, 'id': 'apple slices', 'src': '/static/foodstim60/apple slices.jpg', 'key': 'u', 'origWidth': 409, 'origHeight': 410, 'width': 409, 'height': 410, 'widthPercent': 0.45, 'rescaleHeight': False, 'trialN': 58, 'loaded': True, 'loadedTime': 4151.899999976158, 'positionName': 'LEFT', 'positionCoords': [512.6, 335], 'bid': 7.97}, {'imgObject': {}, 'id': 'seaweed', 'src': '/static/foodstim60/seaweed.jpg', 'key': 'i', 'origWidth': 410, 'origHeight': 410, 'width': 410, 'height': 410, 'widthPercent': 0.45, 'rescaleHeight': False, 'trialN': 58, 'loaded': True, 'loadedTime': 4778.300000011921, 'positionName': 'RIGHT', 'positionCoords': [998.4, 335], 'bid': 3.02}]",87211.39999997616,1669830681741,apple slices,seaweed,7.97,3.02,-4.949999999999999,apple slices,864.8000000119209,865,865.0,True,u,88578.80000001192,1367.4000000357628,1669830683108,1367,,HRV,HRV_0114,2022-11-30 18:01:10
59,"[{'imgObject': {}, 'id': 'mango', 'src': '/static/foodstim60/mango.jpg', 'key': 'u', 'origWidth': 411, 'origHeight': 411, 'width': 411, 'height': 411, 'widthPercent': 0.45, 'rescaleHeight': False, 'trialN': 59, 'loaded': True, 'loadedTime': 4839.5, 'positionName': 'LEFT', 'positionCoords': [510.6, 334.5], 'bid': 1.79}, {'imgObject': {}, 'id': 'shreddedwheatwithmilk', 'src': '/static/foodstim60/shreddedwheatwithmilk.jpg', 'key': 'i', 'origWidth': 410, 'origHeight': 410, 'width': 410, 'height': 410, 'widthPercent': 0.45, 'rescaleHeight': False, 'trialN': 59, 'loaded': True, 'loadedTime': 4420.600000023842, 'positionName': 'RIGHT', 'positionCoords': [998.4, 335], 'bid': 3.61}]",88578.89999997616,1669830683108,mango,shreddedwheatwithmilk,1.79,3.61,1.8199999999999998,shreddedwheatwithmilk,864.2000000476837,864,864.4000000357628,True,i,89946.0,1367.1000000238419,1669830684475,1367,,HRV,HRV_0114,2022-11-30 18:01:10
60,"[{'imgObject': {}, 'id': 'sweetpotato', 'src': '/static/foodstim60/sweetpotato.jpg', 'key': 'u', 'origWidth': 410, 'origHeight': 410, 'width': 410, 'height': 410, 'widthPercent': 0.45, 'rescaleHeight': False, 'trialN': 60, 'loaded': True, 'loadedTime': 4836.600000023842, 'positionName': 'LEFT', 'positionCoords': [511.6, 335], 'bid': 9.16}, {'imgObject': {}, 'id': 'burrito', 'src': '/static/foodstim60/burrito.jpg', 'key': 'i', 'origWidth': 410, 'origHeight': 410, 'width': 410, 'height': 410, 'widthPercent': 0.45, 'rescaleHeight': False, 'trialN': 60, 'loaded': True, 'loadedTime': 4835.800000011921, 'positionName': 'RIGHT', 'positionCoords': [998.4, 335], 'bid': 9.32}]",89946.10000002384,1669830684475,sweetpotato,burrito,9.16,9.32,0.16000000000000014,burrito,624.5999999642372,625,624.8999999761581,True,i,91074.69999998808,1128.5999999642372,1669830685604,1129,,HRV,HRV_0114,2022-11-30 18:01:10
61,"[{'imgObject': {}, 'id': 'fruitsalad', 'src': '/static/foodstim60/fruitsalad.jpg', 'key': 'u', 'origWidth': 410, 'origHeight': 410, 'width': 410, 'height': 410, 'widthPercent': 0.45, 'rescaleHeight': False, 'trialN': 61, 'loaded': True, 'loadedTime': 4840.600000023842, 'positionName': 'LEFT', 'positionCoords': [511.6, 335], 'bid': 4.13}, {'imgObject': {}, 'id': 'Tribe humus pita', 'src': '/static/foodstim60/Tribe humus pita.jpg', 'key': 'i', 'origWidth': 411, 'origHeight': 411, 'width': 411, 'height': 411, 'widthPercent': 0.45, 'rescaleHeight': False, 'trialN': 61, 'loaded': True, 'loadedTime': 4796.100000023842, 'positionName': 'RIGHT', 'positionCoords': [998.4, 334.5], 'bid': 7.59}]",91074.80000001192,1669830685604,fruitsalad,Tribe humus pita,4.13,7.59,3.46,Tribe humus pita,1167.8999999761581,1168,1168.0999999642372,True,i,92746.30000001192,1671.5,1669830687276,1672,,HRV,HRV_0114,2022-11-30 18:01:10
62,"[{'imgObject': {}, 'id': 'grilled chicken strips', 'src': '/static/foodstim60/grilled chicken strips.jpg', 'key': 'u', 'origWidth': 410, 'origHeight': 411, 'width': 410, 'height': 411, 'widthPercent': 0.45, 'rescaleHeight': False, 'trialN': 62, 'loaded': True, 'loadedTime': 4402.100000023842, 'positionName': 'LEFT', 'positionCoords': [511.6, 334.5], 'bid': 7.930000000000001}, {'imgObject': {}, 'id': 'granola w milk', 'src': '/static/foodstim60/granola w milk.jpg', 'key': 'i', 'origWidth': 410, 'origHeight': 410, 'width': 410, 'height': 410, 'widthPercent': 0.45, 'rescaleHeight': False, 'trialN': 62, 'loaded': True, 'loadedTime': 4685.300000011921, 'positionName': 'RIGHT', 'positionCoords': [998.4, 335], 'bid': 2.2}]",92746.5,1669830687276,grilled chicken strips,granola w milk,7.930000000000001,2.2,-5.73,grilled chicken strips,752.3000000119209,752,752.5,True,u,94002.0,1255.5,1669830688531,1255,,HRV,HRV_0114,2022-11-30 18:01:10
63,"[{'imgObject': {}, 'id': 'mango', 'src': '/static/foodstim60/mango.jpg', 'key': 'u', 'origWidth': 411, 'origHeight': 411, 'width': 411, 'height': 411, 'widthPercent': 0.45, 'rescaleHeight': False, 'trialN': 63, 'loaded': True, 'loadedTime': 4839.5, 'positionName': 'LEFT', 'positionCoords': [510.6, 334.5], 'bid': 1.79}, {'imgObject': {}, 'id': 'salmon', 'src': '/static/foodstim60/salmon.jpg', 'key': 'i', 'origWidth': 410, 'origHeight': 409, 'width': 410, 'height': 409, 'widthPercent': 0.45, 'rescaleHeight': False, 'trialN': 63, 'loaded': True, 'loadedTime': 4204, 'positionName': 'RIGHT', 'positionCoords': [998.4, 335.5], 'bid': 3.82}]",94002.10000002384,1669830688531,mango,salmon,1.79,3.82,2.03,salmon,1744.8999999761581,1745,1745.0999999642372,True,i,96250.19999998808,2248.099999964237,1669830690779,2248,,HRV,HRV_0114,2022-11-30 18:01:10
64,"[{'imgObject': {}, 'id': 'Tribe humus pita', 'src': '/static/foodstim60/Tribe humus pita.jpg', 'key': 'u', 'origWidth': 411, 'origHeight': 411, 'width': 411, 'height': 411, 'widthPercent': 0.45, 'rescaleHeight': False, 'trialN': 64, 'loaded': True, 'loadedTime': 4812.899999976158, 'positionName': 'LEFT', 'positionCoords': [510.6, 334.5], 'bid': 7.59}, {'imgObject': {}, 'id': 'kiwi', 'src': '/static/foodstim60/kiwi.jpg', 'key': 'i', 'origWidth': 410, 'origHeight': 410, 'width': 410, 'height': 410, 'widthPercent': 0.45, 'rescaleHeight': False, 'trialN': 64, 'loaded': True, 'loadedTime': 4592.199999988079, 'positionName': 'RIGHT', 'positionCoords': [998.4, 335], 'bid': 7.65}]",96250.30000001192,1669830690779,Tribe humus pita,kiwi,7.59,7.65,0.0600000000000005,Tribe humus pita,984.8999999761581,986,985.1999999880791,True,u,97738.60000002384,1488.300000011921,1669830692268,1489,,HRV,HRV_0114,2022-11-30 18:01:10
65,"[{'imgObject': {}, 'id': 'raspberries', 'src': '/static/foodstim60/raspberries.jpg', 'key': 'u', 'origWidth': 411, 'origHeight': 411, 'width': 411, 'height': 411, 'widthPercent': 0.45, 'rescaleHeight': False, 'trialN': 65, 'loaded': True, 'loadedTime': 4652.699999988079, 'positionName': 'LEFT', 'positionCoords': [510.6, 334.5], 'bid': 7.16}, {'imgObject': {}, 'id': 'eggs', 'src': '/static/foodstim60/eggs.jpg', 'key': 'i', 'origWidth': 409, 'origHeight': 409, 'width': 409, 'height': 409, 'widthPercent': 0.45, 'rescaleHeight': False, 'trialN': 65, 'loaded': True, 'loadedTime': 4318.899999976158, 'positionName': 'RIGHT', 'positionCoords': [998.4, 335.5], 'bid': 8.92}]",97738.69999998808,1669830692268,raspberries,eggs,7.16,8.92,1.7599999999999998,raspberries,1104.6000000238419,1105,1104.800000011921,True,u,99346.39999997616,1607.699999988079,1669830693876,1608,,HRV,HRV_0114,2022-11-30 18:01:10
66,"[{'imgObject': {}, 'id': 'fruitsalad', 'src': '/static/foodstim60/fruitsalad.jpg', 'key': 'u', 'origWidth': 410, 'origHeight': 410, 'width': 410, 'height': 410, 'widthPercent': 0.45, 'rescaleHeight': False, 'trialN': 66, 'loaded': True, 'loadedTime': 4840.699999988079, 'positionName': 'LEFT', 'positionCoords': [511.6, 335], 'bid': 4.13}, {'imgObject': {}, 'id': 'roastedpotatoes', 'src': '/static/foodstim60/roastedpotatoes.jpg', 'key': 'i', 'origWidth': 409, 'origHeight': 410, 'width': 409, 'height': 410, 'widthPercent': 0.45, 'rescaleHeight': False, 'trialN': 66, 'loaded': True, 'loadedTime': 4842, 'positionName': 'RIGHT', 'positionCoords': [998.4, 335], 'bid': 6.69}]",99346.5,1669830693876,fruitsalad,roastedpotatoes,4.13,6.69,2.5600000000000005,roastedpotatoes,1648.300000011921,1648,1648.5,True,i,101498.10000002384,2151.600000023842,1669830696027,2151,,HRV,HRV_0114,2022-11-30 18:01:10
67,"[{'imgObject': {}, 'id': 'lox', 'src': '/static/foodstim60/lox.jpg', 'key': 'u', 'origWidth': 410, 'origHeight': 411, 'width': 410, 'height': 411, 'widthPercent': 0.45, 'rescaleHeight': False, 'trialN': 67, 'loaded': True, 'loadedTime': 4549.899999976158, 'positionName': 'LEFT', 'positionCoords': [511.6, 334.5], 'bid': 8.71}, {'imgObject': {}, 'id': 'strawberries', 'src': '/static/foodstim60/strawberries.jpg', 'key': 'i', 'origWidth': 410, 'origHeight': 410, 'width': 410, 'height': 410, 'widthPercent': 0.45, 'rescaleHeight': False, 'trialN': 67, 'loaded': True, 'loadedTime': 3891.600000023842, 'positionName': 'RIGHT', 'positionCoords': [998.4, 335], 'bid': 8.63}]",101498.10000002384,1669830696027,lox,strawberries,8.71,8.63,-0.08000000000000007,NaN,NaN,NaN,,False,NaN,105506.39999997616,4008.2999999523163,1669830700036,4009,,HRV,HRV_0114,2022-11-30 18:01:10
68,"[{'imgObject': {}, 'id': 'salmon', 'src': '/static/foodstim60/salmon.jpg', 'key': 'u', 'origWidth': 410, 'origHeight': 409, 'width': 410, 'height': 409, 'widthPercent': 0.45, 'rescaleHeight': False, 'trialN': 68, 'loaded': True, 'loadedTime': 4187.5, 'positionName': 'LEFT', 'positionCoords': [511.6, 335.5], 'bid': 3.82}, {'imgObject': {}, 'id': 'hotdog w must', 'src': '/static/foodstim60/hotdog w must.jpg', 'key': 'i', 'origWidth': 409, 'origHeight': 409, 'width': 409, 'height': 409, 'widthPercent': 0.45, 'rescaleHeight': False, 'trialN': 68, 'loaded': True, 'loadedTime': 4589.699999988079, 'positionName': 'RIGHT', 'positionCoords': [998.4, 335.5], 'bid': 3.76}]",105506.80000001192,1669830700036,salmon,hotdog w must,3.82,3.76,-0.06000000000000005,salmon,2920.300000011921,2921,2920.599999964237,True,u,108930.5,3423.699999988079,1669830703460,3424,,HRV,HRV_0114,2022-11-30 18:01:10
69,"[{'imgObject': {}, 'id': 'omelette', 'src': '/static/foodstim60/omelette.jpg', 'key': 'u', 'origWidth': 410, 'origHeight': 409, 'width': 410, 'height': 409, 'widthPercent': 0.45, 'rescaleHeight': False, 'trialN': 69, 'loaded': True, 'loadedTime': 4842.399999976158, 'positionName': 'LEFT', 'positionCoords': [511.6, 335.5], 'bid': 3.56}, {'imgObject': {}, 'id': 'shreddedwheatwithmilk', 'src': '/static/foodstim60/shreddedwheatwithmilk.jpg', 'key': 'i', 'origWidth': 410, 'origHeight': 410, 'width': 410, 'height': 410, 'widthPercent': 0.45, 'rescaleHeight': False, 'trialN': 69, 'loaded': True, 'loadedTime': 4402.899999976158, 'positionName': 'RIGHT', 'positionCoords': [998.4, 335], 'bid': 3.61}]",108930.60000002384,1669830703460,omelette,shreddedwheatwithmilk,3.56,3.61,0.04999999999999982,shreddedwheatwithmilk,872.5,873,872.6999999880791,True,i,110306.10000002384,1375.5,1669830704835,1375,,HRV,HRV_0114,2022-11-30 18:01:10
70,"[{'imgObject': {}, 'id': 'orange slices', 'src': '/static/foodstim60/orange slices.jpg', 'key': 'u', 'origWidth': 409, 'origHeight': 410, 'width': 409, 'height': 410, 'widthPercent': 0.45, 'rescaleHeight': False, 'trialN': 70, 'loaded': True, 'loadedTime': 4593.899999976158, 'positionName': 'LEFT', 'positionCoords': [512.6, 335], 'bid': 8.27}, {'imgObject': {}, 'id': 'bagel and cc', 'src': '/static/foodstim60/bagel and cc.jpg', 'key': 'i', 'origWidth': 410, 'origHeight': 410, 'width': 410, 'height': 410, 'widthPercent': 0.45, 'rescaleHeight': False, 'trialN': 70, 'loaded': True, 'loadedTime': 3991.699999988079, 'positionName': 'RIGHT', 'positionCoords': [998.4, 335], 'bid': 8.040000000000001}]",110306.10000002384,1669830704835,orange slices,bagel and cc,8.27,8.040000000000001,-0.22999999999999865,bagel and cc,1233.199999988079,1234,1233.5,True,i,112042.89999997616,1736.7999999523163,1669830706572,1737,,HRV,HRV_0114,2022-11-30 18:01:10
71,"[{'imgObject': {}, 'id': 'roastedpotatoes', 'src': '/static/foodstim60/roastedpotatoes.jpg', 'key': 'u', 'origWidth': 409, 'origHeight': 410, 'width': 409, 'height': 410, 'widthPercent': 0.45, 'rescaleHeight': False, 'trialN': 71, 'loaded': True, 'loadedTime': 4841.899999976158, 'positionName': 'LEFT', 'positionCoords': [512.6, 335], 'bid': 6.69}, {'imgObject': {}, 'id': 'eggsalad', 'src': '/static/foodstim60/eggsalad.jpg', 'key': 'i', 'origWidth': 410, 'origHeight': 409, 'width': 410, 'height': 409, 'widthPercent': 0.45, 'rescaleHeight': False, 'trialN': 71, 'loaded': True, 'loadedTime': 4223.199999988079, 'positionName': 'RIGHT', 'positionCoords': [998.4, 335.5], 'bid': 3.72}]",112043.0,1669830706572,roastedpotatoes,eggsalad,6.69,3.72,-2.97,eggsalad,1040.1000000238419,1040,1040.300000011921,True,i,113585.80000001192,1542.800000011921,1669830708115,1543,,HRV,HRV_0114,2022-11-30 18:01:10
72,"[{'imgObject': {}, 'id': 'turkeysandwich', 'src': '/static/foodstim60/turkeysandwich.jpg', 'key': 'u', 'origWidth': 409, 'origHeight': 409, 'width': 409, 'height': 409, 'widthPercent': 0.45, 'rescaleHeight': False, 'trialN': 72, 'loaded': True, 'loadedTime': 4844.5, 'positionName': 'LEFT', 'positionCoords': [512.6, 335.5], 'bid': 7.88}, {'imgObject': {}, 'id': 'lox', 'src': '/static/foodstim60/lox.jpg', 'key': 'i', 'origWidth': 410, 'origHeight': 411, 'width': 410, 'height': 411, 'widthPercent': 0.45, 'rescaleHeight': False, 'trialN': 72, 'loaded': True, 'loadedTime': 4531.800000011921, 'positionName': 'RIGHT', 'positionCoords': [998.4, 334.5], 'bid': 8.71}]",113586.19999998808,1669830708115,turkeysandwich,lox,7.88,8.71,0.830000000000001,lox,696.9000000357628,698,697.1999999880791,True,i,114786.89999997616,1200.699999988079,1669830709316,1201,,HRV,HRV_0114,2022-11-30 18:01:10
73,"[{'imgObject': {}, 'id': 'sushi w_condiments', 'src': '/static/foodstim60/sushi w_condiments.jpg', 'key': 'u', 'origWidth': 410, 'origHeight': 410, 'width': 410, 'height': 410, 'widthPercent': 0.45, 'rescaleHeight': False, 'trialN': 73, 'loaded': True, 'loadedTime': 4845.399999976158, 'positionName': 'LEFT', 'positionCoords': [511.6, 335], 'bid': 7.07}, {'imgObject': {}, 'id': 'raspberries', 'src': '/static/foodstim60/raspberries.jpg', 'key': 'i', 'origWidth': 411, 'origHeight': 411, 'width': 411, 'height': 411, 'widthPercent': 0.45, 'rescaleHeight': False, 'trialN': 73, 'loaded': True, 'loadedTime': 4638.399999976158, 'positionName': 'RIGHT', 'positionCoords': [998.4, 334.5], 'bid': 7.16}]",114787.0,1669830709316,sushi w_condiments,raspberries,7.07,7.16,0.08999999999999986,sushi w_condiments,728,728,728.3000000119209,True,u,116018.30000001192,1231.300000011921,1669830710547,1231,,HRV,HRV_0114,2022-11-30 18:01:10
74,"[{'imgObject': {}, 'id': 'olives', 'src': '/static/foodstim60/olives.jpg', 'key': 'u', 'origWidth': 410, 'origHeight': 410, 'width': 410, 'height': 410, 'widthPercent': 0.45, 'rescaleHeight': False, 'trialN': 74, 'loaded': True, 'loadedTime': 4587, 'positionName': 'LEFT', 'positionCoords': [511.6, 335], 'bid': 3.67}, {'imgObject': {}, 'id': 'hashbrowns', 'src': '/static/foodstim60/hashbrowns.jpg', 'key': 'i', 'origWidth': 411, 'origHeight': 410, 'width': 411, 'height': 410, 'widthPercent': 0.45, 'rescaleHeight': False, 'trialN': 74, 'loaded': True, 'loadedTime': 4684.199999988079, 'positionName': 'RIGHT', 'positionCoords': [998.4, 335], 'bid': 1.91}]",116018.39999997616,1669830710547,olives,hashbrowns,3.67,1.91,-1.76,hashbrowns,616.6000000238419,617,616.8000000119209,True,i,117138.69999998808,1120.300000011921,1669830711668,1121,,HRV,HRV_0114,2022-11-30 18:01:10
75,"[{'imgObject': {}, 'id': 'rigatoni and sauce', 'src': '/static/foodstim60/rigatoni and sauce.jpg', 'key': 'u', 'origWidth': 410, 'origHeight': 411, 'width': 410, 'height': 411, 'widthPercent': 0.45, 'rescaleHeight': False, 'trialN': 75, 'loaded': True, 'loadedTime': 4686.399999976158, 'positionName': 'LEFT', 'positionCoords': [511.6, 334.5], 'bid': 9.03}, {'imgObject': {}, 'id': 'Grapes', 'src': '/static/foodstim60/Grapes.jpg', 'key': 'i', 'origWidth': 411, 'origHeight': 411, 'width': 411, 'height': 411, 'widthPercent': 0.45, 'rescaleHeight': False, 'trialN': 75, 'loaded': True, 'loadedTime': 4691.699999988079, 'positionName': 'RIGHT', 'positionCoords': [998.4, 334.5], 'bid': 7.33}]",117138.80000001192,1669830711668,rigatoni and sauce,Grapes,9.03,7.33,-1.6999999999999993,rigatoni and sauce,760,760,760.0999999642372,True,u,118402.80000001192,1264.0,1669830712932,1264,,HRV,HRV_0114,2022-11-30 18:01:10
76,"[{'imgObject': {}, 'id': 'hashbrowns', 'src': '/static/foodstim60/hashbrowns.jpg', 'key': 'u', 'origWidth': 411, 'origHeight': 410, 'width': 411, 'height': 410, 'widthPercent': 0.45, 'rescaleHeight': False, 'trialN': 76, 'loaded': True, 'loadedTime': 4683.199999988079, 'positionName': 'LEFT', 'positionCoords': [510.6, 335], 'bid': 1.91}, {'imgObject': {}, 'id': 'yogurt no spoon', 'src': '/static/foodstim60/yogurt no spoon.jpg', 'key': 'i', 'origWidth': 411, 'origHeight': 410, 'width': 411, 'height': 410, 'widthPercent': 0.45, 'rescaleHeight': False, 'trialN': 76, 'loaded': True, 'loadedTime': 4467.100000023842, 'positionName': 'RIGHT', 'positionCoords': [998.4, 335], 'bid': 6.16}]",118402.80000001192,1669830712932,hashbrowns,yogurt no spoon,1.91,6.16,4.25,yogurt no spoon,840.5999999642372,841,840.8000000119209,True,i,119747.10000002384,1344.300000011921,1669830714276,1344,,HRV,HRV_0114,2022-11-30 18:01:10
77,"[{'imgObject': {}, 'id': 'mango', 'src': '/static/foodstim60/mango.jpg', 'key': 'u', 'origWidth': 411, 'origHeight': 411, 'width': 411, 'height': 411, 'widthPercent': 0.45, 'rescaleHeight': False, 'trialN': 77, 'loaded': True, 'loadedTime': 4839, 'positionName': 'LEFT', 'positionCoords': [510.6, 334.5], 'bid': 1.79}, {'imgObject': {}, 'id': 'cantaloupe', 'src': '/static/foodstim60/cantaloupe.jpg', 'key': 'i', 'origWidth': 409, 'origHeight': 409, 'width': 409, 'height': 409, 'widthPercent': 0.45, 'rescaleHeight': False, 'trialN': 77, 'loaded': True, 'loadedTime': 4846.399999976158, 'positionName': 'RIGHT', 'positionCoords': [998.4, 335.5], 'bid': 0.12}]",119747.19999998808,1669830714276,mango,cantaloupe,1.79,0.12,-1.67,cantaloupe,1055.699999988079,1056,1056.0,True,i,121306.60000002384,1559.4000000357628,1669830715836,1560,,HRV,HRV_0114,2022-11-30 18:01:10
78,"[{'imgObject': {}, 'id': 'seaweed', 'src': '/static/foodstim60/seaweed.jpg', 'key': 'u', 'origWidth': 410, 'origHeight': 410, 'width': 410, 'height': 410, 'widthPercent': 0.45, 'rescaleHeight': False, 'trialN': 78, 'loaded': True, 'loadedTime': 4760.100000023842, 'positionName': 'LEFT', 'positionCoords': [511.6, 335], 'bid': 3.02}, {'imgObject': {}, 'id': 'popsicles', 'src': '/static/foodstim60/popsicles.jpg', 'key': 'i', 'origWidth': 410, 'origHeight': 410, 'width': 410, 'height': 410, 'widthPercent': 0.45, 'rescaleHeight': False, 'trialN': 78, 'loaded': True, 'loadedTime': 4847.300000011921, 'positionName': 'RIGHT', 'positionCoords': [998.4, 335], 'bid': 5.5600000000000005}]",121306.60000002384,1669830715836,seaweed,popsicles,3.02,5.5600000000000005,2.5400000000000005,popsicles,864.1999999880791,864,864.3999999761581,True,i,122675.30000001192,1368.699999988079,1669830717204,1368,,HRV,HRV_0114,2022-11-30 18:01:10
79,"[{'imgObject': {}, 'id': 'edamame', 'src': '/static/foodstim60/edamame.jpg', 'key': 'u', 'origWidth': 409, 'origHeight': 410, 'width': 409, 'height': 410, 'widthPercent': 0.45, 'rescaleHeight': False, 'trialN': 79, 'loaded': True, 'loadedTime': 4335.199999988079, 'positionName': 'LEFT', 'positionCoords': [512.6, 335], 'bid': 8.81}, {'imgObject': {}, 'id': 'veggieswithdip', 'src': '/static/foodstim60/veggieswithdip.jpg', 'key': 'i', 'origWidth': 409, 'origHeight': 409, 'width': 409, 'height': 409, 'widthPercent': 0.45, 'rescaleHeight': False, 'trialN': 79, 'loaded': True, 'loadedTime': 4813.899999976158, 'positionName': 'RIGHT', 'positionCoords': [998.4, 335.5], 'bid': 7.98}]",122675.39999997616,1669830717204,edamame,veggieswithdip,8.81,7.98,-0.8300000000000001,veggieswithdip,664.7000000476837,665,664.8000000119209,True,i,123842.5,1167.1000000238419,1669830718371,1167,,HRV,HRV_0114,2022-11-30 18:01:10
80,"[{'imgObject': {}, 'id': 'mashed potato', 'src': '/static/foodstim60/mashed potato.jpg', 'key': 'u', 'origWidth': 409, 'origHeight': 409, 'width': 409, 'height': 409, 'widthPercent': 0.45, 'rescaleHeight': False, 'trialN': 80, 'loaded': True, 'loadedTime': 4796.100000023842, 'positionName': 'LEFT', 'positionCoords': [512.6, 335.5], 'bid': 9.18}, {'imgObject': {}, 'id': 'cherries', 'src': '/static/foodstim60/cherries.jpg', 'key': 'i', 'origWidth': 410, 'origHeight': 411, 'width': 410, 'height': 411, 'widthPercent': 0.45, 'rescaleHeight': False, 'trialN': 80, 'loaded': True, 'loadedTime': 4600.899999976158, 'positionName': 'RIGHT', 'positionCoords': [998.4, 334.5], 'bid': 8.45}]",123842.60000002384,1669830718371,mashed potato,cherries,9.18,8.45,-0.7300000000000004,cherries,1504.699999988079,1506,1505.0,True,i,125850.19999998808,2007.5999999642372,1669830720379,2008,,HRV,HRV_0114,2022-11-30 18:01:10
81,"[{'imgObject': {}, 'id': 'apple slices', 'src': '/static/foodstim60/apple slices.jpg', 'key': 'u', 'origWidth': 409, 'origHeight': 410, 'width': 409, 'height': 410, 'widthPercent': 0.45, 'rescaleHeight': False, 'trialN': 81, 'loaded': True, 'loadedTime': 4152, 'positionName': 'LEFT', 'positionCoords': [512.6, 335], 'bid': 7.97}, {'imgObject': {}, 'id': 'bagel plain', 'src': '/static/foodstim60/bagel plain.jpg', 'key': 'i', 'origWidth': 410, 'origHeight': 410, 'width': 410, 'height': 410, 'widthPercent': 0.45, 'rescaleHeight': False, 'trialN': 81, 'loaded': True, 'loadedTime': 4834.300000011921, 'positionName': 'RIGHT', 'positionCoords': [998.4, 335], 'bid': 7.31}]",125850.30000001192,1669830720379,apple slices,bagel plain,7.97,7.31,-0.6600000000000001,bagel plain,608.5,609,608.6999999880791,True,i,126962.19999998808,1111.8999999761581,1669830721491,1112,,HRV,HRV_0114,2022-11-30 18:01:10
82,"[{'imgObject': {}, 'id': 'salad w chicken', 'src': '/static/foodstim60/salad w chicken.jpg', 'key': 'u', 'origWidth': 411, 'origHeight': 411, 'width': 411, 'height': 411, 'widthPercent': 0.45, 'rescaleHeight': False, 'trialN': 82, 'loaded': True, 'loadedTime': 4269.199999988079, 'positionName': 'LEFT', 'positionCoords': [510.6, 334.5], 'bid': 8.47}, {'imgObject': {}, 'id': 'bagel and cc', 'src': '/static/foodstim60/bagel and cc.jpg', 'key': 'i', 'origWidth': 410, 'origHeight': 410, 'width': 410, 'height': 410, 'widthPercent': 0.45, 'rescaleHeight': False, 'trialN': 82, 'loaded': True, 'loadedTime': 3990.899999976158, 'positionName': 'RIGHT', 'positionCoords': [998.4, 335], 'bid': 8.040000000000001}]",126962.60000002384,1669830721491,salad w chicken,bagel and cc,8.47,8.040000000000001,-0.4299999999999997,salad w chicken,816.5,817,816.7999999523163,True,u,128283.0,1320.3999999761581,1669830722812,1321,,HRV,HRV_0114,2022-11-30 18:01:10
83,"[{'imgObject': {}, 'id': 'ice cream sundae 002', 'src': '/static/foodstim60/ice cream sundae 002.jpg', 'key': 'u', 'origWidth': 409, 'origHeight': 409, 'width': 409, 'height': 409, 'widthPercent': 0.45, 'rescaleHeight': False, 'trialN': 83, 'loaded': True, 'loadedTime': 4594.899999976158, 'positionName': 'LEFT', 'positionCoords': [512.6, 335.5], 'bid': 8.14}, {'imgObject': {}, 'id': 'orange slices', 'src': '/static/foodstim60/orange slices.jpg', 'key': 'i', 'origWidth': 409, 'origHeight': 410, 'width': 409, 'height': 410, 'widthPercent': 0.45, 'rescaleHeight': False, 'trialN': 83, 'loaded': True, 'loadedTime': 4593.600000023842, 'positionName': 'RIGHT', 'positionCoords': [998.4, 335], 'bid': 8.27}]",128283.0,1669830722812,ice cream sundae 002,orange slices,8.14,8.27,0.129999999999999,orange slices,623.6999999880791,624,624.0,True,i,129410.69999998808,1127.699999988079,1669830723940,1128,,HRV,HRV_0114,2022-11-30 18:01:10
84,"[{'imgObject': {}, 'id': 'salad w chicken', 'src': '/static/foodstim60/salad w chicken.jpg', 'key': 'u', 'origWidth': 411, 'origHeight': 411, 'width': 411, 'height': 411, 'widthPercent': 0.45, 'rescaleHeight': False, 'trialN': 84, 'loaded': True, 'loadedTime': 4270, 'positionName': 'LEFT', 'positionCoords': [510.6, 334.5], 'bid': 8.47}, {'imgObject': {}, 'id': 'fruitsalad', 'src': '/static/foodstim60/fruitsalad.jpg', 'key': 'i', 'origWidth': 410, 'origHeight': 410, 'width': 410, 'height': 410, 'widthPercent': 0.45, 'rescaleHeight': False, 'trialN': 84, 'loaded': True, 'loadedTime': 4839.899999976158, 'positionName': 'RIGHT', 'positionCoords': [998.4, 335], 'bid': 4.13}]",129410.80000001192,1669830723940,salad w chicken,fruitsalad,8.47,4.13,-4.340000000000001,salad w chicken,640.3000000119209,640,640.5999999642372,True,u,130554.60000002384,1143.800000011921,1669830725084,1144,,HRV,HRV_0114,2022-11-30 18:01:10
85,"[{'imgObject': {}, 'id': 'rigatoni and sauce', 'src': '/static/foodstim60/rigatoni and sauce.jpg', 'key': 'u', 'origWidth': 410, 'origHeight': 411, 'width': 410, 'height': 411, 'widthPercent': 0.45, 'rescaleHeight': False, 'trialN': 85, 'loaded': True, 'loadedTime': 4690, 'positionName': 'LEFT', 'positionCoords': [511.6, 334.5], 'bid': 9.03}, {'imgObject': {}, 'id': 'blackbeanswithrice', 'src': '/static/foodstim60/blackbeanswithrice.jpg', 'key': 'i', 'origWidth': 410, 'origHeight': 410, 'width': 410, 'height': 410, 'widthPercent': 0.45, 'rescaleHeight': False, 'trialN': 85, 'loaded': True, 'loadedTime': 4007.800000011921, 'positionName': 'RIGHT', 'positionCoords': [998.4, 335], 'bid': 8.34}]",130554.80000001192,1669830725084,rigatoni and sauce,blackbeanswithrice,9.03,8.34,-0.6899999999999995,rigatoni and sauce,680.3999999761581,680,680.5999999642372,True,u,131739.10000002384,1184.300000011921,1669830726268,1184,,HRV,HRV_0114,2022-11-30 18:01:10
86,"[{'imgObject': {}, 'id': 'hashbrowns', 'src': '/static/foodstim60/hashbrowns.jpg', 'key': 'u', 'origWidth': 411, 'origHeight': 410, 'width': 411, 'height': 410, 'widthPercent': 0.45, 'rescaleHeight': False, 'trialN': 86, 'loaded': True, 'loadedTime': 4684.5, 'positionName': 'LEFT', 'positionCoords': [510.6, 335], 'bid': 1.91}, {'imgObject': {}, 'id': 'cheerios', 'src': '/static/foodstim60/cheerios.jpg', 'key': 'i', 'origWidth': 409, 'origHeight': 410, 'width': 409, 'height': 410, 'widthPercent': 0.45, 'rescaleHeight': False, 'trialN': 86, 'loaded': True, 'loadedTime': 4636.699999988079, 'positionName': 'RIGHT', 'positionCoords': [998.4, 335], 'bid': 3.96}]",131739.19999998808,1669830726268,hashbrowns,cheerios,1.91,3.96,2.05,cheerios,1247.800000011921,1248,1248.1000000238419,True,i,133490.69999998808,1751.5,1669830728020,1752,,HRV,HRV_0114,2022-11-30 18:01:10
87,"[{'imgObject': {}, 'id': 'burger', 'src': '/static/foodstim60/burger.jpg', 'key': 'u', 'origWidth': 409, 'origHeight': 409, 'width': 409, 'height': 409, 'widthPercent': 0.45, 'rescaleHeight': False, 'trialN': 87, 'loaded': True, 'loadedTime': 4836.899999976158, 'positionName': 'LEFT', 'positionCoords': [512.6, 335.5], 'bid': 7.15}, {'imgObject': {}, 'id': 'turkeysandwich', 'src': '/static/foodstim60/turkeysandwich.jpg', 'key': 'i', 'origWidth': 409, 'origHeight': 409, 'width': 409, 'height': 409, 'widthPercent': 0.45, 'rescaleHeight': False, 'trialN': 87, 'loaded': True, 'loadedTime': 4844.600000023842, 'positionName': 'RIGHT', 'positionCoords': [998.4, 335.5], 'bid': 7.88}]",133490.80000001192,1669830728020,burger,turkeysandwich,7.15,7.88,0.7299999999999995,burger,616.8000000119209,617,617.0,True,u,134609.89999997616,1119.0999999642372,1669830729139,1119,,HRV,HRV_0114,2022-11-30 18:01:10
88,"[{'imgObject': {}, 'id': 'fruitsalad', 'src': '/static/foodstim60/fruitsalad.jpg', 'key': 'u', 'origWidth': 410, 'origHeight': 410, 'width': 410, 'height': 410, 'widthPercent': 0.45, 'rescaleHeight': False, 'trialN': 88, 'loaded': True, 'loadedTime': 4841.199999988079, 'positionName': 'LEFT', 'positionCoords': [511.6, 335], 'bid': 4.13}, {'imgObject': {}, 'id': 'granola w milk', 'src': '/static/foodstim60/granola w milk.jpg', 'key': 'i', 'origWidth': 410, 'origHeight': 410, 'width': 410, 'height': 410, 'widthPercent': 0.45, 'rescaleHeight': False, 'trialN': 88, 'loaded': True, 'loadedTime': 4685.399999976158, 'positionName': 'RIGHT', 'positionCoords': [998.4, 335], 'bid': 2.2}]",134610.0,1669830729139,fruitsalad,granola w milk,4.13,2.2,-1.9299999999999997,granola w milk,1345,1345,1345.300000011921,True,i,136459.60000002384,1849.6000000238419,1669830730989,1850,,HRV,HRV_0114,2022-11-30 18:01:10
89,"[{'imgObject': {}, 'id': 'hotdog w must', 'src': '/static/foodstim60/hotdog w must.jpg', 'key': 'u', 'origWidth': 409, 'origHeight': 409, 'width': 409, 'height': 409, 'widthPercent': 0.45, 'rescaleHeight': False, 'trialN': 89, 'loaded': True, 'loadedTime': 4590.399999976158, 'positionName': 'LEFT', 'positionCoords': [512.6, 335.5], 'bid': 3.76}, {'imgObject': {}, 'id': 'Grapes', 'src': '/static/foodstim60/Grapes.jpg', 'key': 'i', 'origWidth': 411, 'origHeight': 411, 'width': 411, 'height': 411, 'widthPercent': 0.45, 'rescaleHeight': False, 'trialN': 89, 'loaded': True, 'loadedTime': 4691, 'positionName': 'RIGHT', 'positionCoords': [998.4, 334.5], 'bid': 7.33}]",136459.69999998808,1669830730989,hotdog w must,Grapes,3.76,7.33,3.5700000000000003,hotdog w must,935.4000000357628,935,935.6000000238419,True,u,137898.39999997616,1438.699999988079,1669830732427,1438,,HRV,HRV_0114,2022-11-30 18:01:10
90,"[{'imgObject': {}, 'id': 'turkeysandwich', 'src': '/static/foodstim60/turkeysandwich.jpg', 'key': 'u', 'origWidth': 409, 'origHeight': 409, 'width': 409, 'height': 409, 'widthPercent': 0.45, 'rescaleHeight': False, 'trialN': 90, 'loaded': True, 'loadedTime': 4844.699999988079, 'positionName': 'LEFT', 'positionCoords': [512.6, 335.5], 'bid': 7.88}, {'imgObject': {}, 'id': 'apple slices', 'src': '/static/foodstim60/apple slices.jpg', 'key': 'i', 'origWidth': 409, 'origHeight': 410, 'width': 409, 'height': 410, 'widthPercent': 0.45, 'rescaleHeight': False, 'trialN': 90, 'loaded': True, 'loadedTime': 4151.199999988079, 'positionName': 'RIGHT', 'positionCoords': [998.4, 335], 'bid': 7.97}]",538979.1999999881,1669831133507,turkeysandwich,apple slices,7.88,7.97,0.08999999999999986,turkeysandwich,2151.900000035763,2152,2152.199999988079,True,u,541634.6000000238,2655.400000035763,1669831136162,2655,"[{'event': 'fullscreenchange', 'details': 'fullscreenenter', 'performance time': 538979.8999999762, 'date time': 1669831133507}]",HRV,HRV_0114,2022-11-30 18:01:10
91,"[{'imgObject': {}, 'id': 'sushi w_condiments', 'src': '/static/foodstim60/sushi w_condiments.jpg', 'key': 'u', 'origWidth': 410, 'origHeight': 410, 'width': 410, 'height': 410, 'widthPercent': 0.45, 'rescaleHeight': False, 'trialN': 91, 'loaded': True, 'loadedTime': 4844.800000011921, 'positionName': 'LEFT', 'positionCoords': [511.6, 335], 'bid': 7.07}, {'imgObject': {}, 'id': 'avocado', 'src': '/static/foodstim60/avocado.jpg', 'key': 'i', 'origWidth': 409, 'origHeight': 409, 'width': 409, 'height': 409, 'widthPercent': 0.45, 'rescaleHeight': False, 'trialN': 91, 'loaded': True, 'loadedTime': 4740.800000011921, 'positionName': 'RIGHT', 'positionCoords': [998.4, 335.5], 'bid': 5.65}]",541634.6999999881,1669831136162,sushi w_condiments,avocado,7.07,5.65,-1.42,sushi w_condiments,728.5,729,728.6999999880791,True,u,542866.8999999762,1232.199999988079,1669831137394,1232,,HRV,HRV_0114,2022-11-30 18:01:10
92,"[{'imgObject': {}, 'id': 'Grapes', 'src': '/static/foodstim60/Grapes.jpg', 'key': 'u', 'origWidth': 411, 'origHeight': 411, 'width': 411, 'height': 411, 'widthPercent': 0.45, 'rescaleHeight': False, 'trialN': 92, 'loaded': True, 'loadedTime': 4691.899999976158, 'positionName': 'LEFT', 'positionCoords': [510.6, 334.5], 'bid': 7.33}, {'imgObject': {}, 'id': 'veggieswithdip', 'src': '/static/foodstim60/veggieswithdip.jpg', 'key': 'i', 'origWidth': 409, 'origHeight': 409, 'width': 409, 'height': 409, 'widthPercent': 0.45, 'rescaleHeight': False, 'trialN': 92, 'loaded': True, 'loadedTime': 4813.100000023842, 'positionName': 'RIGHT', 'positionCoords': [998.4, 335.5], 'bid': 7.98}]",542867.0,1669831137394,Grapes,veggieswithdip,7.33,7.98,0.6500000000000004,veggieswithdip,608.6000000238419,609,608.8000000119209,True,i,543979.1999999881,1112.199999988079,1669831138506,1112,,HRV,HRV_0114,2022-11-30 18:01:10
93,"[{'imgObject': {}, 'id': 'baked potato', 'src': '/static/foodstim60/baked potato.jpg', 'key': 'u', 'origWidth': 409, 'origHeight': 410, 'width': 409, 'height': 410, 'widthPercent': 0.45, 'rescaleHeight': False, 'trialN': 93, 'loaded': True, 'loadedTime': 4814.899999976158, 'positionName': 'LEFT', 'positionCoords': [512.6, 335], 'bid': 8.51}, {'imgObject': {}, 'id': 'cherry tomato', 'src': '/static/foodstim60/cherry tomato.jpg', 'key': 'i', 'origWidth': 410, 'origHeight': 410, 'width': 410, 'height': 410, 'widthPercent': 0.45, 'rescaleHeight': False, 'trialN': 93, 'loaded': True, 'loadedTime': 4484.899999976158, 'positionName': 'RIGHT', 'positionCoords': [998.4, 335], 'bid': 8.620000000000001}]",543979.1999999881,1669831138507,baked potato,cherry tomato,8.51,8.620000000000001,0.11000000000000121,cherry tomato,528.3000000119209,528,528.4000000357628,True,i,545010.6000000238,1031.4000000357628,1669831139538,1031,,HRV,HRV_0114,2022-11-30 18:01:10
94,"[{'imgObject': {}, 'id': 'blueberries', 'src': '/static/foodstim60/blueberries.jpg', 'key': 'u', 'origWidth': 411, 'origHeight': 411, 'width': 411, 'height': 411, 'widthPercent': 0.45, 'rescaleHeight': False, 'trialN': 94, 'loaded': True, 'loadedTime': 4815.600000023842, 'positionName': 'LEFT', 'positionCoords': [510.6, 334.5], 'bid': 6.8}, {'imgObject': {}, 'id': 'burger', 'src': '/static/foodstim60/burger.jpg', 'key': 'i', 'origWidth': 409, 'origHeight': 409, 'width': 409, 'height': 409, 'widthPercent': 0.45, 'rescaleHeight': False, 'trialN': 94, 'loaded': True, 'loadedTime': 4838, 'positionName': 'RIGHT', 'positionCoords': [998.4, 335.5], 'bid': 7.15}]",545010.6000000238,1669831139538,blueberries,burger,6.8,7.15,0.35000000000000053,blueberries,529.2999999523163,529,529.5,True,u,546042.6999999881,1032.0999999642372,1669831140570,1032,,HRV,HRV_0114,2022-11-30 18:01:10
95,"[{'imgObject': {}, 'id': 'Tribe humus pita', 'src': '/static/foodstim60/Tribe humus pita.jpg', 'key': 'u', 'origWidth': 411, 'origHeight': 411, 'width': 411, 'height': 411, 'widthPercent': 0.45, 'rescaleHeight': False, 'trialN': 95, 'loaded': True, 'loadedTime': 4813, 'positionName': 'LEFT', 'positionCoords': [510.6, 334.5], 'bid': 7.59}, {'imgObject': {}, 'id': 'froot loops w milk', 'src': '/static/foodstim60/froot loops w milk.jpg', 'key': 'i', 'origWidth': 410, 'origHeight': 410, 'width': 410, 'height': 410, 'widthPercent': 0.45, 'rescaleHeight': False, 'trialN': 95, 'loaded': True, 'loadedTime': 4049.100000023842, 'positionName': 'RIGHT', 'positionCoords': [998.4, 335], 'bid': 7.75}]",546043.0,1669831140570,Tribe humus pita,froot loops w milk,7.59,7.75,0.16000000000000014,Tribe humus pita,1176.300000011921,1177,1176.5,True,u,547722.5,1679.5,1669831142250,1680,,HRV,HRV_0114,2022-11-30 18:01:10
96,"[{'imgObject': {}, 'id': 'chicken nuggets2', 'src': '/static/foodstim60/chicken nuggets2.jpg', 'key': 'u', 'origWidth': 410, 'origHeight': 409, 'width': 410, 'height': 409, 'widthPercent': 0.45, 'rescaleHeight': False, 'trialN': 96, 'loaded': True, 'loadedTime': 4579.600000023842, 'positionName': 'LEFT', 'positionCoords': [511.6, 335.5], 'bid': 8.92}, {'imgObject': {}, 'id': 'tacos', 'src': '/static/foodstim60/tacos.jpg', 'key': 'i', 'origWidth': 411, 'origHeight': 411, 'width': 411, 'height': 411, 'widthPercent': 0.45, 'rescaleHeight': False, 'trialN': 96, 'loaded': True, 'loadedTime': 4779.899999976158, 'positionName': 'RIGHT', 'positionCoords': [998.4, 334.5], 'bid': 8.790000000000001}]",547722.6000000238,1669831142250,chicken nuggets2,tacos,8.92,8.790000000000001,-0.129999999999999,tacos,648.8999999761581,649,649.0999999642372,True,i,548874.6000000238,1152.0,1669831143402,1152,,HRV,HRV_0114,2022-11-30 18:01:10
97,"[{'imgObject': {}, 'id': 'turkey sandwich', 'src': '/static/foodstim60/turkey sandwich.jpg', 'key': 'u', 'origWidth': 409, 'origHeight': 409, 'width': 409, 'height': 409, 'widthPercent': 0.45, 'rescaleHeight': False, 'trialN': 97, 'loaded': True, 'loadedTime': 4598.199999988079, 'positionName': 'LEFT', 'positionCoords': [512.6, 335.5], 'bid': 7.35}, {'imgObject': {}, 'id': 'turkeysandwich', 'src': '/static/foodstim60/turkeysandwich.jpg', 'key': 'i', 'origWidth': 409, 'origHeight': 409, 'width': 409, 'height': 409, 'widthPercent': 0.45, 'rescaleHeight': False, 'trialN': 97, 'loaded': True, 'loadedTime': 4843.899999976158, 'positionName': 'RIGHT', 'positionCoords': [998.4, 335.5], 'bid': 7.88}]",548874.8999999762,1669831143402,turkey sandwich,turkeysandwich,7.35,7.88,0.5300000000000002,turkey sandwich,808.5,809,808.7000000476837,True,u,550186.6000000238,1311.7000000476837,1669831144714,1312,,HRV,HRV_0114,2022-11-30 18:01:10
98,"[{'imgObject': {}, 'id': 'hashbrowns', 'src': '/static/foodstim60/hashbrowns.jpg', 'key': 'u', 'origWidth': 411, 'origHeight': 410, 'width': 411, 'height': 410, 'widthPercent': 0.45, 'rescaleHeight': False, 'trialN': 98, 'loaded': True, 'loadedTime': 4684.199999988079, 'positionName': 'LEFT', 'positionCoords': [510.6, 335], 'bid': 1.91}, {'imgObject': {}, 'id': 'cantaloupe', 'src': '/static/foodstim60/cantaloupe.jpg', 'key': 'i', 'origWidth': 409, 'origHeight': 409, 'width': 409, 'height': 409, 'widthPercent': 0.45, 'rescaleHeight': False, 'trialN': 98, 'loaded': True, 'loadedTime': 4846.300000011921, 'positionName': 'RIGHT', 'positionCoords': [998.4, 335.5], 'bid': 0.12}]",550186.6999999881,1669831144714,hashbrowns,cantaloupe,1.91,0.12,-1.79,hashbrowns,1216.5,1217,1216.699999988079,True,u,551906.6999999881,1720.0,1669831146434,1720,,HRV,HRV_0114,2022-11-30 18:01:10
99,"[{'imgObject': {}, 'id': 'corn cob', 'src': '/static/foodstim60/corn cob.jpg', 'key': 'u', 'origWidth': 411, 'origHeight': 411, 'width': 411, 'height': 411, 'widthPercent': 0.45, 'rescaleHeight': False, 'trialN': 99, 'loaded': True, 'loadedTime': 4366.5, 'positionName': 'LEFT', 'positionCoords': [510.6, 334.5], 'bid': 7.41}, {'imgObject': {}, 'id': 'bagel and cc', 'src': '/static/foodstim60/bagel and cc.jpg', 'key': 'i', 'origWidth': 410, 'origHeight': 410, 'width': 410, 'height': 410, 'widthPercent': 0.45, 'rescaleHeight': False, 'trialN': 99, 'loaded': True, 'loadedTime': 3975.100000023842, 'positionName': 'RIGHT', 'positionCoords': [998.4, 335], 'bid': 8.040000000000001}]",551906.8999999762,1669831146434,corn cob,bagel and cc,7.41,8.040000000000001,0.6300000000000008,corn cob,1016.3000000119209,1017,1016.5,True,u,553426.0,1519.1000000238419,1669831147953,1519,,HRV,HRV_0114,2022-11-30 18:01:10
100,"[{'imgObject': {}, 'id': 'sushi w_condiments', 'src': '/static/foodstim60/sushi w_condiments.jpg', 'key': 'u', 'origWidth': 410, 'origHeight': 410, 'width': 410, 'height': 410, 'widthPercent': 0.45, 'rescaleHeight': False, 'trialN': 100, 'loaded': True, 'loadedTime': 4845.300000011921, 'positionName': 'LEFT', 'positionCoords': [511.6, 335], 'bid': 7.07}, {'imgObject': {}, 'id': 'luckycharms', 'src': '/static/foodstim60/luckycharms.jpg', 'key': 'i', 'origWidth': 410, 'origHeight': 409, 'width': 410, 'height': 409, 'widthPercent': 0.45, 'rescaleHeight': False, 'trialN': 100, 'loaded': True, 'loadedTime': 4239.199999988079, 'positionName': 'RIGHT', 'positionCoords': [998.4, 335.5], 'bid': 8.84}]",553426.1000000238,1669831147953,sushi w_condiments,luckycharms,7.07,8.84,1.7699999999999996,sushi w_condiments,857.0999999642372,858,857.2999999523163,True,u,554786.1999999881,1360.0999999642372,1669831149313,1360,,HRV,HRV_0114,2022-11-30 18:01:10
101,"[{'imgObject': {}, 'id': 'strawberries', 'src': '/static/foodstim60/strawberries.jpg', 'key': 'u', 'origWidth': 410, 'origHeight': 410, 'width': 410, 'height': 410, 'widthPercent': 0.45, 'rescaleHeight': False, 'trialN': 101, 'loaded': True, 'loadedTime': 3907.899999976158, 'positionName': 'LEFT', 'positionCoords': [511.6, 335], 'bid': 8.63}, {'imgObject': {}, 'id': 'sweetpotato', 'src': '/static/foodstim60/sweetpotato.jpg', 'key': 'i', 'origWidth': 410, 'origHeight': 410, 'width': 410, 'height': 410, 'widthPercent': 0.45, 'rescaleHeight': False, 'trialN': 101, 'loaded': True, 'loadedTime': 4836.699999988079, 'positionName': 'RIGHT', 'positionCoords': [998.4, 335], 'bid': 9.16}]",554786.3000000119,1669831149314,strawberries,sweetpotato,8.63,9.16,0.5299999999999994,strawberries,600.8000000119209,601,601.0999999642372,True,u,555890.8999999762,1104.5999999642372,1669831150418,1104,,HRV,HRV_0114,2022-11-30 18:01:10
102,"[{'imgObject': {}, 'id': 'cherries', 'src': '/static/foodstim60/cherries.jpg', 'key': 'u', 'origWidth': 410, 'origHeight': 411, 'width': 410, 'height': 411, 'widthPercent': 0.45, 'rescaleHeight': False, 'trialN': 102, 'loaded': True, 'loadedTime': 4601.100000023842, 'positionName': 'LEFT', 'positionCoords': [511.6, 334.5], 'bid': 8.45}, {'imgObject': {}, 'id': 'pear', 'src': '/static/foodstim60/pear.jpg', 'key': 'i', 'origWidth': 411, 'origHeight': 410, 'width': 411, 'height': 410, 'widthPercent': 0.45, 'rescaleHeight': False, 'trialN': 102, 'loaded': True, 'loadedTime': 4585.300000011921, 'positionName': 'RIGHT', 'positionCoords': [998.4, 335], 'bid': 8.870000000000001}]",555891.0,1669831150418,cherries,pear,8.45,8.870000000000001,0.4200000000000017,cherries,528.1999999880791,529,528.3000000119209,True,u,556922.8000000119,1031.800000011921,1669831151450,1032,,HRV,HRV_0114,2022-11-30 18:01:10
103,"[{'imgObject': {}, 'id': 'sushi w_condiments', 'src': '/static/foodstim60/sushi w_condiments.jpg', 'key': 'u', 'origWidth': 410, 'origHeight': 410, 'width': 410, 'height': 410, 'widthPercent': 0.45, 'rescaleHeight': False, 'trialN': 103, 'loaded': True, 'loadedTime': 4845.5, 'positionName': 'LEFT', 'positionCoords': [511.6, 335], 'bid': 7.07}, {'imgObject': {}, 'id': 'omelette', 'src': '/static/foodstim60/omelette.jpg', 'key': 'i', 'origWidth': 410, 'origHeight': 409, 'width': 410, 'height': 409, 'widthPercent': 0.45, 'rescaleHeight': False, 'trialN': 103, 'loaded': True, 'loadedTime': 4843.300000011921, 'positionName': 'RIGHT', 'positionCoords': [998.4, 335.5], 'bid': 3.56}]",556922.8999999762,1669831151450,sushi w_condiments,omelette,7.07,3.56,-3.5100000000000002,sushi w_condiments,632.7000000476837,633,632.9000000357628,True,u,558058.6000000238,1135.7000000476837,1669831152586,1136,,HRV,HRV_0114,2022-11-30 18:01:10
104,"[{'imgObject': {}, 'id': 'olives', 'src': '/static/foodstim60/olives.jpg', 'key': 'u', 'origWidth': 410, 'origHeight': 410, 'width': 410, 'height': 410, 'widthPercent': 0.45, 'rescaleHeight': False, 'trialN': 104, 'loaded': True, 'loadedTime': 4588, 'positionName': 'LEFT', 'positionCoords': [511.6, 335], 'bid': 3.67}, {'imgObject': {}, 'id': 'raspberries', 'src': '/static/foodstim60/raspberries.jpg', 'key': 'i', 'origWidth': 411, 'origHeight': 411, 'width': 411, 'height': 411, 'widthPercent': 0.45, 'rescaleHeight': False, 'trialN': 104, 'loaded': True, 'loadedTime': 4653, 'positionName': 'RIGHT', 'positionCoords': [998.4, 334.5], 'bid': 7.16}]",558058.6000000238,1669831152586,olives,raspberries,3.67,7.16,3.49,raspberries,696.5999999642372,697,696.7999999523163,True,i,559258.3999999762,1199.7999999523163,1669831153786,1200,,HRV,HRV_0114,2022-11-30 18:01:10
105,"[{'imgObject': {}, 'id': 'avocado', 'src': '/static/foodstim60/avocado.jpg', 'key': 'u', 'origWidth': 409, 'origHeight': 409, 'width': 409, 'height': 409, 'widthPercent': 0.45, 'rescaleHeight': False, 'trialN': 105, 'loaded': True, 'loadedTime': 4724.399999976158, 'positionName': 'LEFT', 'positionCoords': [512.6, 335.5], 'bid': 5.65}, {'imgObject': {}, 'id': 'cherry tomato', 'src': '/static/foodstim60/cherry tomato.jpg', 'key': 'i', 'origWidth': 410, 'origHeight': 410, 'width': 410, 'height': 410, 'widthPercent': 0.45, 'rescaleHeight': False, 'trialN': 105, 'loaded': True, 'loadedTime': 4500.800000011921, 'positionName': 'RIGHT', 'positionCoords': [998.4, 335], 'bid': 8.620000000000001}]",559258.5,1669831153786,avocado,cherry tomato,5.65,8.620000000000001,2.9700000000000006,cherry tomato,681.1999999880791,681,681.5,True,i,560442.8999999762,1184.3999999761581,1669831154970,1184,,HRV,HRV_0114,2022-11-30 18:01:10
106,"[{'imgObject': {}, 'id': 'rigatoni', 'src': '/static/foodstim60/rigatoni.jpg', 'key': 'u', 'origWidth': 411, 'origHeight': 411, 'width': 411, 'height': 411, 'widthPercent': 0.45, 'rescaleHeight': False, 'trialN': 106, 'loaded': True, 'loadedTime': 4595.699999988079, 'positionName': 'LEFT', 'positionCoords': [510.6, 334.5], 'bid': 8.040000000000001}, {'imgObject': {}, 'id': 'turkey sandwich', 'src': '/static/foodstim60/turkey sandwich.jpg', 'key': 'i', 'origWidth': 409, 'origHeight': 409, 'width': 409, 'height': 409, 'widthPercent': 0.45, 'rescaleHeight': False, 'trialN': 106, 'loaded': True, 'loadedTime': 4598, 'positionName': 'RIGHT', 'positionCoords': [998.4, 335.5], 'bid': 7.35}]",560443.0,1669831154970,rigatoni,turkey sandwich,8.040000000000001,7.35,-0.6900000000000013,rigatoni,632.1999999880791,633,632.3999999761581,True,u,561578.6000000238,1135.6000000238419,1669831156106,1136,,HRV,HRV_0114,2022-11-30 18:01:10
107,"[{'imgObject': {}, 'id': 'popsicles', 'src': '/static/foodstim60/popsicles.jpg', 'key': 'u', 'origWidth': 410, 'origHeight': 410, 'width': 410, 'height': 410, 'widthPercent': 0.45, 'rescaleHeight': False, 'trialN': 107, 'loaded': True, 'loadedTime': 4846.699999988079, 'positionName': 'LEFT', 'positionCoords': [511.6, 335], 'bid': 5.5600000000000005}, {'imgObject': {}, 'id': 'cheerios', 'src': '/static/foodstim60/cheerios.jpg', 'key': 'i', 'origWidth': 409, 'origHeight': 410, 'width': 409, 'height': 410, 'widthPercent': 0.45, 'rescaleHeight': False, 'trialN': 107, 'loaded': True, 'loadedTime': 4623, 'positionName': 'RIGHT', 'positionCoords': [998.4, 335], 'bid': 3.96}]",561578.6999999881,1669831156106,popsicles,cheerios,5.5600000000000005,3.96,-1.6000000000000005,popsicles,912.5,913,912.6999999880791,True,u,562994.6999999881,1416.0,1669831157522,1416,,HRV,HRV_0114,2022-11-30 18:01:10
