trialN,stimuli,trialStartTime,trialStartTime_UNIX,stimulus1,stimulus2,stimulus1Bid,stimulus2Bid,delta,selected,rt,rt_UNIX,rt_perfnow,receivedResponse,rsp,trialEndTime,trialDuration,trialEndTime_UNIX,trialDuration_UNIX,exp,subjectId,date
0,"[{'imgObject': {}, 'id': 'sushi w_condiments', 'src': '/static/foodstim60/sushi w_condiments.jpg', 'key': 'u', 'origWidth': 410, 'origHeight': 410, 'width': 410, 'height': 410, 'widthPercent': 0.45, 'rescaleHeight': False, 'trialN': 0, 'loaded': True, 'loadedTime': 1941.2999999523163, 'positionName': 'LEFT', 'positionCoords': [2047.6, 515], 'bid': 9.24}, {'imgObject': {}, 'id': 'turkey sandwich', 'src': '/static/foodstim60/turkey sandwich.jpg', 'key': 'i', 'origWidth': 409, 'origHeight': 409, 'width': 409, 'height': 409, 'widthPercent': 0.45, 'rescaleHeight': False, 'trialN': 0, 'loaded': True, 'loadedTime': 2038.8999999761581, 'positionName': 'RIGHT', 'positionCoords': [2662.4, 515.5], 'bid': 7.140000000000001}]",3418.1999999284744,1669829250336,sushi w_condiments,turkey sandwich,9.24,7.140000000000001,-2.0999999999999996,sushi w_condiments,911.3000000715256,912,912.6000000238419,True,u,4840.799999952316,1422.6000000238419,1669829251758,1422,HRV,HRV_0040,2022-11-30 17:32:43
1,"[{'imgObject': {}, 'id': 'omelette', 'src': '/static/foodstim60/omelette.jpg', 'key': 'u', 'origWidth': 410, 'origHeight': 409, 'width': 410, 'height': 409, 'widthPercent': 0.45, 'rescaleHeight': False, 'trialN': 1, 'loaded': True, 'loadedTime': 2103.5, 'positionName': 'LEFT', 'positionCoords': [2047.6, 515.5], 'bid': 3.64}, {'imgObject': {}, 'id': 'burrito', 'src': '/static/foodstim60/burrito.jpg', 'key': 'i', 'origWidth': 410, 'origHeight': 410, 'width': 410, 'height': 410, 'widthPercent': 0.45, 'rescaleHeight': False, 'trialN': 1, 'loaded': True, 'loadedTime': 2129.600000023842, 'positionName': 'RIGHT', 'positionCoords': [2662.4, 515], 'bid': 3.2}]",4840.899999976158,1669829251759,omelette,burrito,3.64,3.2,-0.43999999999999995,omelette,1237.6000000238419,1237,1237.7999999523163,True,u,6593.600000023842,1752.7000000476837,1669829253511,1752,HRV,HRV_0040,2022-11-30 17:32:43
2,"[{'imgObject': {}, 'id': 'fried eggs', 'src': '/static/foodstim60/fried eggs.jpg', 'key': 'u', 'origWidth': 410, 'origHeight': 410, 'width': 410, 'height': 410, 'widthPercent': 0.45, 'rescaleHeight': False, 'trialN': 2, 'loaded': True, 'loadedTime': 2270.399999976158, 'positionName': 'LEFT', 'positionCoords': [2047.6, 515], 'bid': 5.16}, {'imgObject': {}, 'id': 'chicken nuggets2', 'src': '/static/foodstim60/chicken nuggets2.jpg', 'key': 'i', 'origWidth': 410, 'origHeight': 409, 'width': 410, 'height': 409, 'widthPercent': 0.45, 'rescaleHeight': False, 'trialN': 2, 'loaded': True, 'loadedTime': 2384.899999976158, 'positionName': 'RIGHT', 'positionCoords': [2662.4, 515.5], 'bid': 4.44}]",6593.699999928474,1669829253511,fried eggs,chicken nuggets2,5.16,4.44,-0.7199999999999998,fried eggs,1063.7000000476837,1064,1064.0,True,u,8170.399999976158,1576.7000000476837,1669829255088,1577,HRV,HRV_0040,2022-11-30 17:32:43
3,"[{'imgObject': {}, 'id': 'baked potato', 'src': '/static/foodstim60/baked potato.jpg', 'key': 'u', 'origWidth': 409, 'origHeight': 410, 'width': 409, 'height': 410, 'widthPercent': 0.45, 'rescaleHeight': False, 'trialN': 3, 'loaded': True, 'loadedTime': 1958.2999999523163, 'positionName': 'LEFT', 'positionCoords': [2048.6, 515], 'bid': 3}, {'imgObject': {}, 'id': 'turkeysandwich', 'src': '/static/foodstim60/turkeysandwich.jpg', 'key': 'i', 'origWidth': 409, 'origHeight': 409, 'width': 409, 'height': 409, 'widthPercent': 0.45, 'rescaleHeight': False, 'trialN': 3, 'loaded': True, 'loadedTime': 2062.6999999284744, 'positionName': 'RIGHT', 'positionCoords': [2662.4, 515.5], 'bid': 6.44}]",8170.5,1669829255088,baked potato,turkeysandwich,3.0,6.44,3.4400000000000004,turkeysandwich,925.8999999761581,926,926.1999999284744,True,i,9603.100000023842,1432.6000000238419,1669829256520,1432,HRV,HRV_0040,2022-11-30 17:32:43
4,"[{'imgObject': {}, 'id': 'banana', 'src': '/static/foodstim60/banana.jpg', 'key': 'u', 'origWidth': 410, 'origHeight': 410, 'width': 410, 'height': 410, 'widthPercent': 0.45, 'rescaleHeight': False, 'trialN': 4, 'loaded': True, 'loadedTime': 2189.899999976158, 'positionName': 'LEFT', 'positionCoords': [2047.6, 515], 'bid': 4.92}, {'imgObject': {}, 'id': 'eggsalad', 'src': '/static/foodstim60/eggsalad.jpg', 'key': 'i', 'origWidth': 410, 'origHeight': 409, 'width': 410, 'height': 409, 'widthPercent': 0.45, 'rescaleHeight': False, 'trialN': 4, 'loaded': True, 'loadedTime': 2222.5, 'positionName': 'RIGHT', 'positionCoords': [2662.4, 515.5], 'bid': 4.99}]",9603.199999928474,1669829256520,banana,eggsalad,4.92,4.99,0.07000000000000028,banana,1473.5,1474,1473.7000000476837,True,u,11591.699999928474,1988.5,1669829258509,1989,HRV,HRV_0040,2022-11-30 17:32:43
5,"[{'imgObject': {}, 'id': 'rigatoni and sauce', 'src': '/static/foodstim60/rigatoni and sauce.jpg', 'key': 'u', 'origWidth': 410, 'origHeight': 411, 'width': 410, 'height': 411, 'widthPercent': 0.45, 'rescaleHeight': False, 'trialN': 5, 'loaded': True, 'loadedTime': 2335.6999999284744, 'positionName': 'LEFT', 'positionCoords': [2047.6, 514.5], 'bid': 3.82}, {'imgObject': {}, 'id': 'banana', 'src': '/static/foodstim60/banana.jpg', 'key': 'i', 'origWidth': 410, 'origHeight': 410, 'width': 410, 'height': 410, 'widthPercent': 0.45, 'rescaleHeight': False, 'trialN': 5, 'loaded': True, 'loadedTime': 2173.100000023842, 'positionName': 'RIGHT', 'positionCoords': [2662.4, 515], 'bid': 4.92}]",11591.799999952316,1669829258509,rigatoni and sauce,banana,3.82,4.92,1.1,banana,885.7000000476837,886,886.0,True,i,12993.100000023842,1401.3000000715256,1669829259910,1401,HRV,HRV_0040,2022-11-30 17:32:43
6,"[{'imgObject': {}, 'id': 'sweetpotato', 'src': '/static/foodstim60/sweetpotato.jpg', 'key': 'u', 'origWidth': 410, 'origHeight': 410, 'width': 410, 'height': 410, 'widthPercent': 0.45, 'rescaleHeight': False, 'trialN': 6, 'loaded': True, 'loadedTime': 2393.7999999523163, 'positionName': 'LEFT', 'positionCoords': [2047.6, 515], 'bid': 0.44}, {'imgObject': {}, 'id': 'salmon', 'src': '/static/foodstim60/salmon.jpg', 'key': 'i', 'origWidth': 410, 'origHeight': 409, 'width': 410, 'height': 409, 'widthPercent': 0.45, 'rescaleHeight': False, 'trialN': 6, 'loaded': True, 'loadedTime': 2459.100000023842, 'positionName': 'RIGHT', 'positionCoords': [2662.4, 515.5], 'bid': 0.66}]",12993.199999928474,1669829259910,sweetpotato,salmon,0.44,0.66,0.22000000000000003,salmon,1613.3000000715256,1614,1613.6000000238419,True,i,15123.5,2130.3000000715256,1669829262041,2131,HRV,HRV_0040,2022-11-30 17:32:43
7,"[{'imgObject': {}, 'id': 'cantaloupe', 'src': '/static/foodstim60/cantaloupe.jpg', 'key': 'u', 'origWidth': 409, 'origHeight': 409, 'width': 409, 'height': 409, 'widthPercent': 0.45, 'rescaleHeight': False, 'trialN': 7, 'loaded': True, 'loadedTime': 2475.5, 'positionName': 'LEFT', 'positionCoords': [2048.6, 515.5], 'bid': 2.23}, {'imgObject': {}, 'id': 'Grapes', 'src': '/static/foodstim60/Grapes.jpg', 'key': 'i', 'origWidth': 411, 'origHeight': 411, 'width': 411, 'height': 411, 'widthPercent': 0.45, 'rescaleHeight': False, 'trialN': 7, 'loaded': True, 'loadedTime': 2515.1999999284744, 'positionName': 'RIGHT', 'positionCoords': [2662.4, 514.5], 'bid': 4.63}]",15123.699999928474,1669829262041,cantaloupe,Grapes,2.23,4.63,2.4,Grapes,1215.7000000476837,1216,1216.1000000238419,True,i,16848.600000023842,1724.9000000953674,1669829263766,1725,HRV,HRV_0040,2022-11-30 17:32:43
8,"[{'imgObject': {}, 'id': 'mashed potato', 'src': '/static/foodstim60/mashed potato.jpg', 'key': 'u', 'origWidth': 409, 'origHeight': 409, 'width': 409, 'height': 409, 'widthPercent': 0.45, 'rescaleHeight': False, 'trialN': 8, 'loaded': True, 'loadedTime': 2539.7999999523163, 'positionName': 'LEFT', 'positionCoords': [2048.6, 515.5], 'bid': 2.88}, {'imgObject': {}, 'id': 'kiwi', 'src': '/static/foodstim60/kiwi.jpg', 'key': 'i', 'origWidth': 410, 'origHeight': 410, 'width': 410, 'height': 410, 'widthPercent': 0.45, 'rescaleHeight': False, 'trialN': 8, 'loaded': True, 'loadedTime': 2588.6999999284744, 'positionName': 'RIGHT', 'positionCoords': [2662.4, 515], 'bid': 2.9}]",16848.699999928474,1669829263766,mashed potato,kiwi,2.88,2.9,0.020000000000000018,mashed potato,1198.8000000715256,1199,1198.9000000953674,True,u,18550.5,1701.8000000715256,1669829265468,1702,HRV,HRV_0040,2022-11-30 17:32:43
9,"[{'imgObject': {}, 'id': 'cherries', 'src': '/static/foodstim60/cherries.jpg', 'key': 'u', 'origWidth': 410, 'origHeight': 411, 'width': 410, 'height': 411, 'widthPercent': 0.45, 'rescaleHeight': False, 'trialN': 9, 'loaded': True, 'loadedTime': 2612.600000023842, 'positionName': 'LEFT', 'positionCoords': [2047.6, 514.5], 'bid': 7.25}, {'imgObject': {}, 'id': 'raspberries', 'src': '/static/foodstim60/raspberries.jpg', 'key': 'i', 'origWidth': 411, 'origHeight': 411, 'width': 411, 'height': 411, 'widthPercent': 0.45, 'rescaleHeight': False, 'trialN': 9, 'loaded': True, 'loadedTime': 2636.5, 'positionName': 'RIGHT', 'positionCoords': [2662.4, 514.5], 'bid': 7.66}]",18550.699999928474,1669829265468,cherries,raspberries,7.25,7.66,0.41000000000000014,raspberries,881.8000000715256,882,882.0,True,i,19941.600000023842,1390.9000000953674,1669829266859,1391,HRV,HRV_0040,2022-11-30 17:32:43
10,"[{'imgObject': {}, 'id': 'Tribe humus pita', 'src': '/static/foodstim60/Tribe humus pita.jpg', 'key': 'u', 'origWidth': 411, 'origHeight': 411, 'width': 411, 'height': 411, 'widthPercent': 0.45, 'rescaleHeight': False, 'trialN': 10, 'loaded': True, 'loadedTime': 2693.600000023842, 'positionName': 'LEFT', 'positionCoords': [2046.6, 514.5], 'bid': 5.8}, {'imgObject': {}, 'id': 'tacos', 'src': '/static/foodstim60/tacos.jpg', 'key': 'i', 'origWidth': 411, 'origHeight': 411, 'width': 411, 'height': 411, 'widthPercent': 0.45, 'rescaleHeight': False, 'trialN': 10, 'loaded': True, 'loadedTime': 2710, 'positionName': 'RIGHT', 'positionCoords': [2662.4, 514.5], 'bid': 6.97}]",19941.699999928474,1669829266859,Tribe humus pita,tacos,5.8,6.97,1.17,tacos,1124.8000000715256,1125,1125.0,True,i,21576.0,1634.3000000715256,1669829268493,1634,HRV,HRV_0040,2022-11-30 17:32:43
11,"[{'imgObject': {}, 'id': 'raspberries', 'src': '/static/foodstim60/raspberries.jpg', 'key': 'u', 'origWidth': 411, 'origHeight': 411, 'width': 411, 'height': 411, 'widthPercent': 0.45, 'rescaleHeight': False, 'trialN': 11, 'loaded': True, 'loadedTime': 2652.899999976158, 'positionName': 'LEFT', 'positionCoords': [2046.6, 514.5], 'bid': 7.66}, {'imgObject': {}, 'id': 'turkey sandwich', 'src': '/static/foodstim60/turkey sandwich.jpg', 'key': 'i', 'origWidth': 409, 'origHeight': 409, 'width': 409, 'height': 409, 'widthPercent': 0.45, 'rescaleHeight': False, 'trialN': 11, 'loaded': True, 'loadedTime': 2014.7999999523163, 'positionName': 'RIGHT', 'positionCoords': [2662.4, 515.5], 'bid': 7.140000000000001}]",21576.100000023842,1669829268493,raspberries,turkey sandwich,7.66,7.140000000000001,-0.5199999999999996,turkey sandwich,1363.5999999046326,1364,1363.7999999523163,True,i,23450.399999976158,1874.2999999523163,1669829270368,1875,HRV,HRV_0040,2022-11-30 17:32:43
12,"[{'imgObject': {}, 'id': 'banana', 'src': '/static/foodstim60/banana.jpg', 'key': 'u', 'origWidth': 410, 'origHeight': 410, 'width': 410, 'height': 410, 'widthPercent': 0.45, 'rescaleHeight': False, 'trialN': 12, 'loaded': True, 'loadedTime': 2214.100000023842, 'positionName': 'LEFT', 'positionCoords': [2047.6, 515], 'bid': 4.92}, {'imgObject': {}, 'id': 'burrito', 'src': '/static/foodstim60/burrito.jpg', 'key': 'i', 'origWidth': 410, 'origHeight': 410, 'width': 410, 'height': 410, 'widthPercent': 0.45, 'rescaleHeight': False, 'trialN': 12, 'loaded': True, 'loadedTime': 2130.2999999523163, 'positionName': 'RIGHT', 'positionCoords': [2662.4, 515], 'bid': 3.2}]",23450.5,1669829270368,banana,burrito,4.92,3.2,-1.7199999999999998,banana,1269.8999999761581,1270,1270.2999999523163,True,u,25225.199999928474,1774.6999999284744,1669829272143,1775,HRV,HRV_0040,2022-11-30 17:32:43
13,"[{'imgObject': {}, 'id': 'cherry tomato', 'src': '/static/foodstim60/cherry tomato.jpg', 'key': 'u', 'origWidth': 410, 'origHeight': 410, 'width': 410, 'height': 410, 'widthPercent': 0.45, 'rescaleHeight': False, 'trialN': 13, 'loaded': True, 'loadedTime': 2728.1999999284744, 'positionName': 'LEFT', 'positionCoords': [2047.6, 515], 'bid': 5}, {'imgObject': {}, 'id': 'eggs', 'src': '/static/foodstim60/eggs.jpg', 'key': 'i', 'origWidth': 409, 'origHeight': 409, 'width': 409, 'height': 409, 'widthPercent': 0.45, 'rescaleHeight': False, 'trialN': 13, 'loaded': True, 'loadedTime': 2761.7999999523163, 'positionName': 'RIGHT', 'positionCoords': [2662.4, 515.5], 'bid': 5.3100000000000005}]",25225.399999976158,1669829272143,cherry tomato,eggs,5.0,5.3100000000000005,0.3100000000000005,eggs,840.0,840,840.2000000476837,True,i,26567.5,1342.1000000238419,1669829273485,1342,HRV,HRV_0040,2022-11-30 17:32:43
14,"[{'imgObject': {}, 'id': 'raisin bran w milk', 'src': '/static/foodstim60/raisin bran w milk.jpg', 'key': 'u', 'origWidth': 411, 'origHeight': 411, 'width': 411, 'height': 411, 'widthPercent': 0.45, 'rescaleHeight': False, 'trialN': 14, 'loaded': True, 'loadedTime': 2778.2999999523163, 'positionName': 'LEFT', 'positionCoords': [2046.6, 514.5], 'bid': 1.75}, {'imgObject': {}, 'id': 'sweetpotato', 'src': '/static/foodstim60/sweetpotato.jpg', 'key': 'i', 'origWidth': 410, 'origHeight': 410, 'width': 410, 'height': 410, 'widthPercent': 0.45, 'rescaleHeight': False, 'trialN': 14, 'loaded': True, 'loadedTime': 2417, 'positionName': 'RIGHT', 'positionCoords': [2662.4, 515], 'bid': 0.44}]",26567.600000023842,1669829273485,raisin bran w milk,sweetpotato,1.75,0.44,-1.31,raisin bran w milk,1015.8999999761581,1016,1016.0999999046326,True,u,28098.0,1530.3999999761581,1669829275015,1530,HRV,HRV_0040,2022-11-30 17:32:43
15,"[{'imgObject': {}, 'id': 'blueberries', 'src': '/static/foodstim60/blueberries.jpg', 'key': 'u', 'origWidth': 411, 'origHeight': 411, 'width': 411, 'height': 411, 'widthPercent': 0.45, 'rescaleHeight': False, 'trialN': 15, 'loaded': True, 'loadedTime': 2836.5, 'positionName': 'LEFT', 'positionCoords': [2046.6, 514.5], 'bid': 1.13}, {'imgObject': {}, 'id': 'salmon', 'src': '/static/foodstim60/salmon.jpg', 'key': 'i', 'origWidth': 410, 'origHeight': 409, 'width': 410, 'height': 409, 'widthPercent': 0.45, 'rescaleHeight': False, 'trialN': 15, 'loaded': True, 'loadedTime': 2449.899999976158, 'positionName': 'RIGHT', 'positionCoords': [2662.4, 515.5], 'bid': 0.66}]",28098.199999928474,1669829275015,blueberries,salmon,1.13,0.66,-0.46999999999999986,blueberries,1087.3000000715256,1088,1087.5,True,u,29693.299999952316,1595.1000000238419,1669829276611,1596,HRV,HRV_0040,2022-11-30 17:32:43
16,"[{'imgObject': {}, 'id': 'raisin bran w milk', 'src': '/static/foodstim60/raisin bran w milk.jpg', 'key': 'u', 'origWidth': 411, 'origHeight': 411, 'width': 411, 'height': 411, 'widthPercent': 0.45, 'rescaleHeight': False, 'trialN': 16, 'loaded': True, 'loadedTime': 2803.100000023842, 'positionName': 'LEFT', 'positionCoords': [2046.6, 514.5], 'bid': 1.75}, {'imgObject': {}, 'id': 'roastedpotatoes', 'src': '/static/foodstim60/roastedpotatoes.jpg', 'key': 'i', 'origWidth': 409, 'origHeight': 410, 'width': 409, 'height': 410, 'widthPercent': 0.45, 'rescaleHeight': False, 'trialN': 16, 'loaded': True, 'loadedTime': 2853.399999976158, 'positionName': 'RIGHT', 'positionCoords': [2662.4, 515], 'bid': 4.3100000000000005}]",29693.5,1669829276611,raisin bran w milk,roastedpotatoes,1.75,4.3100000000000005,2.5600000000000005,roastedpotatoes,1065.0,1065,1065.1999999284744,True,i,31264.5,1571.0,1669829278182,1571,HRV,HRV_0040,2022-11-30 17:32:43
17,"[{'imgObject': {}, 'id': 'roastedpotatoes', 'src': '/static/foodstim60/roastedpotatoes.jpg', 'key': 'u', 'origWidth': 409, 'origHeight': 410, 'width': 409, 'height': 410, 'widthPercent': 0.45, 'rescaleHeight': False, 'trialN': 17, 'loaded': True, 'loadedTime': 2853.6999999284744, 'positionName': 'LEFT', 'positionCoords': [2048.6, 515], 'bid': 4.3100000000000005}, {'imgObject': {}, 'id': 'raspberries', 'src': '/static/foodstim60/raspberries.jpg', 'key': 'i', 'origWidth': 411, 'origHeight': 411, 'width': 411, 'height': 411, 'widthPercent': 0.45, 'rescaleHeight': False, 'trialN': 17, 'loaded': True, 'loadedTime': 2637.2999999523163, 'positionName': 'RIGHT', 'positionCoords': [2662.4, 514.5], 'bid': 7.66}]",31264.699999928474,1669829278182,roastedpotatoes,raspberries,4.3100000000000005,7.66,3.3499999999999996,raspberries,769.8000000715256,770,770.0,True,i,32557.100000023842,1292.4000000953674,1669829279474,1292,HRV,HRV_0040,2022-11-30 17:32:43
18,"[{'imgObject': {}, 'id': 'grilled chicken strips', 'src': '/static/foodstim60/grilled chicken strips.jpg', 'key': 'u', 'origWidth': 410, 'origHeight': 411, 'width': 410, 'height': 411, 'widthPercent': 0.45, 'rescaleHeight': False, 'trialN': 18, 'loaded': True, 'loadedTime': 2870.100000023842, 'positionName': 'LEFT', 'positionCoords': [2047.6, 514.5], 'bid': 5.9}, {'imgObject': {}, 'id': 'bagel plain', 'src': '/static/foodstim60/bagel plain.jpg', 'key': 'i', 'origWidth': 410, 'origHeight': 410, 'width': 410, 'height': 410, 'widthPercent': 0.45, 'rescaleHeight': False, 'trialN': 18, 'loaded': True, 'loadedTime': 2895.399999976158, 'positionName': 'RIGHT', 'positionCoords': [2662.4, 515], 'bid': 5.86}]",32557.199999928474,1669829279474,grilled chicken strips,bagel plain,5.9,5.86,-0.040000000000000036,grilled chicken strips,1441.5,1442,1441.8000000715256,True,u,34503.60000002384,1946.4000000953674,1669829281421,1947,HRV,HRV_0040,2022-11-30 17:32:43
19,"[{'imgObject': {}, 'id': 'steak', 'src': '/static/foodstim60/steak.jpg', 'key': 'u', 'origWidth': 410, 'origHeight': 410, 'width': 410, 'height': 410, 'widthPercent': 0.45, 'rescaleHeight': False, 'trialN': 19, 'loaded': True, 'loadedTime': 2911.7999999523163, 'positionName': 'LEFT', 'positionCoords': [2047.6, 515], 'bid': 6.08}, {'imgObject': {}, 'id': 'avocado', 'src': '/static/foodstim60/avocado.jpg', 'key': 'i', 'origWidth': 409, 'origHeight': 409, 'width': 409, 'height': 409, 'widthPercent': 0.45, 'rescaleHeight': False, 'trialN': 19, 'loaded': True, 'loadedTime': 2945.5, 'positionName': 'RIGHT', 'positionCoords': [2662.4, 515.5], 'bid': 5.63}]",34503.799999952316,1669829281421,steak,avocado,6.08,5.63,-0.4500000000000002,steak,753.7000000476837,754,753.8999999761581,True,u,35760.39999997616,1256.6000000238419,1669829282678,1257,HRV,HRV_0040,2022-11-30 17:32:43
20,"[{'imgObject': {}, 'id': 'granola w milk', 'src': '/static/foodstim60/granola w milk.jpg', 'key': 'u', 'origWidth': 410, 'origHeight': 410, 'width': 410, 'height': 410, 'widthPercent': 0.45, 'rescaleHeight': False, 'trialN': 20, 'loaded': True, 'loadedTime': 2961.1999999284744, 'positionName': 'LEFT', 'positionCoords': [2047.6, 515], 'bid': 1.55}, {'imgObject': {}, 'id': 'blackbeanswithrice', 'src': '/static/foodstim60/blackbeanswithrice.jpg', 'key': 'i', 'origWidth': 410, 'origHeight': 410, 'width': 410, 'height': 410, 'widthPercent': 0.45, 'rescaleHeight': False, 'trialN': 20, 'loaded': True, 'loadedTime': 2985.899999976158, 'positionName': 'RIGHT', 'positionCoords': [2662.4, 515], 'bid': 1.55}]",35760.5,1669829282678,granola w milk,blackbeanswithrice,1.55,1.55,0.0,granola w milk,1133.0,1133,1133.1999999284744,True,u,37411.60000002384,1651.1000000238419,1669829284329,1651,HRV,HRV_0040,2022-11-30 17:32:43
21,"[{'imgObject': {}, 'id': 'cherries', 'src': '/static/foodstim60/cherries.jpg', 'key': 'u', 'origWidth': 410, 'origHeight': 411, 'width': 410, 'height': 411, 'widthPercent': 0.45, 'rescaleHeight': False, 'trialN': 21, 'loaded': True, 'loadedTime': 2604.6999999284744, 'positionName': 'LEFT', 'positionCoords': [2047.6, 514.5], 'bid': 7.25}, {'imgObject': {}, 'id': 'rigatoni and sauce', 'src': '/static/foodstim60/rigatoni and sauce.jpg', 'key': 'i', 'origWidth': 410, 'origHeight': 411, 'width': 410, 'height': 411, 'widthPercent': 0.45, 'rescaleHeight': False, 'trialN': 21, 'loaded': True, 'loadedTime': 2311.2999999523163, 'positionName': 'RIGHT', 'positionCoords': [2662.4, 514.5], 'bid': 3.82}]",37411.799999952316,1669829284329,cherries,rigatoni and sauce,7.25,3.82,-3.43,cherries,853.8999999761581,854,854.2000000476837,True,u,38777.89999997616,1366.1000000238419,1669829285695,1366,HRV,HRV_0040,2022-11-30 17:32:43
22,"[{'imgObject': {}, 'id': 'bagel and cc', 'src': '/static/foodstim60/bagel and cc.jpg', 'key': 'u', 'origWidth': 410, 'origHeight': 410, 'width': 410, 'height': 410, 'widthPercent': 0.45, 'rescaleHeight': False, 'trialN': 22, 'loaded': True, 'loadedTime': 3027, 'positionName': 'LEFT', 'positionCoords': [2047.6, 515], 'bid': 6.5}, {'imgObject': {}, 'id': 'strawberries', 'src': '/static/foodstim60/strawberries.jpg', 'key': 'i', 'origWidth': 410, 'origHeight': 410, 'width': 410, 'height': 410, 'widthPercent': 0.45, 'rescaleHeight': False, 'trialN': 22, 'loaded': True, 'loadedTime': 3035.5, 'positionName': 'RIGHT', 'positionCoords': [2662.4, 515], 'bid': 6.41}]",38778.10000002384,1669829285695,bagel and cc,strawberries,6.5,6.41,-0.08999999999999986,bagel and cc,867.2999999523163,868,867.5999999046326,True,u,40149.0,1370.8999999761581,1669829287066,1371,HRV,HRV_0040,2022-11-30 17:32:43
23,"[{'imgObject': {}, 'id': 'orange slices', 'src': '/static/foodstim60/orange slices.jpg', 'key': 'u', 'origWidth': 409, 'origHeight': 410, 'width': 409, 'height': 410, 'widthPercent': 0.45, 'rescaleHeight': False, 'trialN': 23, 'loaded': True, 'loadedTime': 3052.6999999284744, 'positionName': 'LEFT', 'positionCoords': [2048.6, 515], 'bid': 2.91}, {'imgObject': {}, 'id': 'cheerios', 'src': '/static/foodstim60/cheerios.jpg', 'key': 'i', 'origWidth': 409, 'origHeight': 410, 'width': 409, 'height': 410, 'widthPercent': 0.45, 'rescaleHeight': False, 'trialN': 23, 'loaded': True, 'loadedTime': 3069.5, 'positionName': 'RIGHT', 'positionCoords': [2662.4, 515], 'bid': 2}]",40149.199999928474,1669829287066,orange slices,cheerios,2.91,2.0,-0.9100000000000001,cheerios,1008.3000000715256,1009,1008.5,True,i,41665.0,1515.8000000715256,1669829288582,1516,HRV,HRV_0040,2022-11-30 17:32:43
24,"[{'imgObject': {}, 'id': 'sweetpotato', 'src': '/static/foodstim60/sweetpotato.jpg', 'key': 'u', 'origWidth': 410, 'origHeight': 410, 'width': 410, 'height': 410, 'widthPercent': 0.45, 'rescaleHeight': False, 'trialN': 24, 'loaded': True, 'loadedTime': 2385.100000023842, 'positionName': 'LEFT', 'positionCoords': [2047.6, 515], 'bid': 0.44}, {'imgObject': {}, 'id': 'seaweed', 'src': '/static/foodstim60/seaweed.jpg', 'key': 'i', 'origWidth': 410, 'origHeight': 410, 'width': 410, 'height': 410, 'widthPercent': 0.45, 'rescaleHeight': False, 'trialN': 24, 'loaded': True, 'loadedTime': 3111.1999999284744, 'positionName': 'RIGHT', 'positionCoords': [2662.4, 515], 'bid': 2.66}]",41665.10000002384,1669829288582,sweetpotato,seaweed,0.44,2.66,2.22,sweetpotato,1347.3999999761581,1348,1347.5999999046326,True,u,43519.5,1854.3999999761581,1669829290437,1855,HRV,HRV_0040,2022-11-30 17:32:43
25,"[{'imgObject': {}, 'id': 'baked potato', 'src': '/static/foodstim60/baked potato.jpg', 'key': 'u', 'origWidth': 409, 'origHeight': 410, 'width': 409, 'height': 410, 'widthPercent': 0.45, 'rescaleHeight': False, 'trialN': 25, 'loaded': True, 'loadedTime': 1982.1000000238419, 'positionName': 'LEFT', 'positionCoords': [2048.6, 515], 'bid': 3}, {'imgObject': {}, 'id': 'shreddedwheatwithmilk', 'src': '/static/foodstim60/shreddedwheatwithmilk.jpg', 'key': 'i', 'origWidth': 410, 'origHeight': 410, 'width': 410, 'height': 410, 'widthPercent': 0.45, 'rescaleHeight': False, 'trialN': 25, 'loaded': True, 'loadedTime': 3111.399999976158, 'positionName': 'RIGHT', 'positionCoords': [2662.4, 515], 'bid': 1.73}]",43519.60000002384,1669829290437,baked potato,shreddedwheatwithmilk,3.0,1.73,-1.27,shreddedwheatwithmilk,1747.0,1747,1747.1999999284744,True,i,45782.39999997616,2262.7999999523163,1669829292700,2263,HRV,HRV_0040,2022-11-30 17:32:43
26,"[{'imgObject': {}, 'id': 'blueberries', 'src': '/static/foodstim60/blueberries.jpg', 'key': 'u', 'origWidth': 411, 'origHeight': 411, 'width': 411, 'height': 411, 'widthPercent': 0.45, 'rescaleHeight': False, 'trialN': 26, 'loaded': True, 'loadedTime': 2820.1999999284744, 'positionName': 'LEFT', 'positionCoords': [2046.6, 514.5], 'bid': 1.13}, {'imgObject': {}, 'id': 'lox', 'src': '/static/foodstim60/lox.jpg', 'key': 'i', 'origWidth': 410, 'origHeight': 411, 'width': 410, 'height': 411, 'widthPercent': 0.45, 'rescaleHeight': False, 'trialN': 26, 'loaded': True, 'loadedTime': 3138.6999999284744, 'positionName': 'RIGHT', 'positionCoords': [2662.4, 514.5], 'bid': 0.71}]",45782.5,1669829292700,blueberries,lox,1.13,0.71,-0.41999999999999993,blueberries,1849.0,1849,1849.2999999523163,True,u,48147.39999997616,2364.899999976158,1669829295065,2365,HRV,HRV_0040,2022-11-30 17:32:43
27,"[{'imgObject': {}, 'id': 'Grapes', 'src': '/static/foodstim60/Grapes.jpg', 'key': 'u', 'origWidth': 411, 'origHeight': 411, 'width': 411, 'height': 411, 'widthPercent': 0.45, 'rescaleHeight': False, 'trialN': 27, 'loaded': True, 'loadedTime': 2499, 'positionName': 'LEFT', 'positionCoords': [2046.6, 514.5], 'bid': 4.63}, {'imgObject': {}, 'id': 'eggs', 'src': '/static/foodstim60/eggs.jpg', 'key': 'i', 'origWidth': 409, 'origHeight': 409, 'width': 409, 'height': 409, 'widthPercent': 0.45, 'rescaleHeight': False, 'trialN': 27, 'loaded': True, 'loadedTime': 2778.2999999523163, 'positionName': 'RIGHT', 'positionCoords': [2662.4, 515.5], 'bid': 5.3100000000000005}]",48147.5,1669829295065,Grapes,eggs,4.63,5.3100000000000005,0.6800000000000006,eggs,692.8999999761581,693,693.1000000238419,True,i,49348.0,1200.5,1669829296265,1200,HRV,HRV_0040,2022-11-30 17:32:43
28,"[{'imgObject': {}, 'id': 'turkey sandwich', 'src': '/static/foodstim60/turkey sandwich.jpg', 'key': 'u', 'origWidth': 409, 'origHeight': 409, 'width': 409, 'height': 409, 'widthPercent': 0.45, 'rescaleHeight': False, 'trialN': 28, 'loaded': True, 'loadedTime': 2039.1000000238419, 'positionName': 'LEFT', 'positionCoords': [2048.6, 515.5], 'bid': 7.140000000000001}, {'imgObject': {}, 'id': 'burger', 'src': '/static/foodstim60/burger.jpg', 'key': 'i', 'origWidth': 409, 'origHeight': 409, 'width': 409, 'height': 409, 'widthPercent': 0.45, 'rescaleHeight': False, 'trialN': 28, 'loaded': True, 'loadedTime': 3177.6999999284744, 'positionName': 'RIGHT', 'positionCoords': [2662.4, 515.5], 'bid': 5.82}]",49348.10000002384,1669829296265,turkey sandwich,burger,7.140000000000001,5.82,-1.3200000000000003,turkey sandwich,1796.3999999761581,1797,1796.5999999046326,True,u,51659.39999997616,2311.2999999523163,1669829298577,2312,HRV,HRV_0040,2022-11-30 17:32:43
29,"[{'imgObject': {}, 'id': 'fruitsalad', 'src': '/static/foodstim60/fruitsalad.jpg', 'key': 'u', 'origWidth': 410, 'origHeight': 410, 'width': 410, 'height': 410, 'widthPercent': 0.45, 'rescaleHeight': False, 'trialN': 29, 'loaded': True, 'loadedTime': 3178.100000023842, 'positionName': 'LEFT', 'positionCoords': [2047.6, 515], 'bid': 5.45}, {'imgObject': {}, 'id': 'chickenfingers', 'src': '/static/foodstim60/chickenfingers.jpg', 'key': 'i', 'origWidth': 410, 'origHeight': 410, 'width': 410, 'height': 410, 'widthPercent': 0.45, 'rescaleHeight': False, 'trialN': 29, 'loaded': True, 'loadedTime': 3196.2999999523163, 'positionName': 'RIGHT', 'positionCoords': [2662.4, 515], 'bid': 4.8100000000000005}]",51659.5,1669829298577,fruitsalad,chickenfingers,5.45,4.8100000000000005,-0.6399999999999997,chickenfingers,1207.0,1207,1207.1999999284744,True,i,53388.89999997616,1729.3999999761581,1669829300306,1729,HRV,HRV_0040,2022-11-30 17:32:43
30,"[{'imgObject': {}, 'id': 'bagel plain', 'src': '/static/foodstim60/bagel plain.jpg', 'key': 'u', 'origWidth': 410, 'origHeight': 410, 'width': 410, 'height': 410, 'widthPercent': 0.45, 'rescaleHeight': False, 'trialN': 30, 'loaded': True, 'loadedTime': 2903, 'positionName': 'LEFT', 'positionCoords': [2047.6, 515], 'bid': 5.86}, {'imgObject': {}, 'id': 'cherries', 'src': '/static/foodstim60/cherries.jpg', 'key': 'i', 'origWidth': 410, 'origHeight': 411, 'width': 410, 'height': 411, 'widthPercent': 0.45, 'rescaleHeight': False, 'trialN': 30, 'loaded': True, 'loadedTime': 2605, 'positionName': 'RIGHT', 'positionCoords': [2662.4, 514.5], 'bid': 7.25}]",53389.10000002384,1669829300306,bagel plain,cherries,5.86,7.25,1.3899999999999997,bagel plain,667.2999999523163,668,667.5,True,u,54562.39999997616,1173.2999999523163,1669829301480,1174,HRV,HRV_0040,2022-11-30 17:32:43
31,"[{'imgObject': {}, 'id': 'lox', 'src': '/static/foodstim60/lox.jpg', 'key': 'u', 'origWidth': 410, 'origHeight': 411, 'width': 410, 'height': 411, 'widthPercent': 0.45, 'rescaleHeight': False, 'trialN': 31, 'loaded': True, 'loadedTime': 3139.6999999284744, 'positionName': 'LEFT', 'positionCoords': [2047.6, 514.5], 'bid': 0.71}, {'imgObject': {}, 'id': 'luckycharms', 'src': '/static/foodstim60/luckycharms.jpg', 'key': 'i', 'origWidth': 410, 'origHeight': 409, 'width': 410, 'height': 409, 'widthPercent': 0.45, 'rescaleHeight': False, 'trialN': 31, 'loaded': True, 'loadedTime': 3212.100000023842, 'positionName': 'RIGHT', 'positionCoords': [2662.4, 515.5], 'bid': 1.67}]",54562.60000002384,1669829301480,lox,luckycharms,0.71,1.67,0.96,luckycharms,1356.0999999046326,1356,1356.2999999523163,True,i,56431.5,1868.8999999761581,1669829303349,1869,HRV,HRV_0040,2022-11-30 17:32:43
32,"[{'imgObject': {}, 'id': 'corn cob', 'src': '/static/foodstim60/corn cob.jpg', 'key': 'u', 'origWidth': 411, 'origHeight': 411, 'width': 411, 'height': 411, 'widthPercent': 0.45, 'rescaleHeight': False, 'trialN': 32, 'loaded': True, 'loadedTime': 3261.2999999523163, 'positionName': 'LEFT', 'positionCoords': [2046.6, 514.5], 'bid': 7.85}, {'imgObject': {}, 'id': 'steak', 'src': '/static/foodstim60/steak.jpg', 'key': 'i', 'origWidth': 410, 'origHeight': 410, 'width': 410, 'height': 410, 'widthPercent': 0.45, 'rescaleHeight': False, 'trialN': 32, 'loaded': True, 'loadedTime': 2928.6999999284744, 'positionName': 'RIGHT', 'positionCoords': [2662.4, 515], 'bid': 6.08}]",56431.699999928474,1669829303349,corn cob,steak,7.85,6.08,-1.7699999999999996,steak,886.8000000715256,887,887.0,True,i,57829.799999952316,1398.1000000238419,1669829304747,1398,HRV,HRV_0040,2022-11-30 17:32:43
33,"[{'imgObject': {}, 'id': 'fruitsalad', 'src': '/static/foodstim60/fruitsalad.jpg', 'key': 'u', 'origWidth': 410, 'origHeight': 410, 'width': 410, 'height': 410, 'widthPercent': 0.45, 'rescaleHeight': False, 'trialN': 33, 'loaded': True, 'loadedTime': 3195.600000023842, 'positionName': 'LEFT', 'positionCoords': [2047.6, 515], 'bid': 5.45}, {'imgObject': {}, 'id': 'bagel and cc', 'src': '/static/foodstim60/bagel and cc.jpg', 'key': 'i', 'origWidth': 410, 'origHeight': 410, 'width': 410, 'height': 410, 'widthPercent': 0.45, 'rescaleHeight': False, 'trialN': 33, 'loaded': True, 'loadedTime': 3018.600000023842, 'positionName': 'RIGHT', 'positionCoords': [2662.4, 515], 'bid': 6.5}]",57830.0,1669829304747,fruitsalad,bagel and cc,5.45,6.5,1.0499999999999998,bagel and cc,937.5,938,937.6999999284744,True,i,59279.39999997616,1449.3999999761581,1669829306197,1450,HRV,HRV_0040,2022-11-30 17:32:43
34,"[{'imgObject': {}, 'id': 'popsicles', 'src': '/static/foodstim60/popsicles.jpg', 'key': 'u', 'origWidth': 410, 'origHeight': 410, 'width': 410, 'height': 410, 'widthPercent': 0.45, 'rescaleHeight': False, 'trialN': 34, 'loaded': True, 'loadedTime': 3269.100000023842, 'positionName': 'LEFT', 'positionCoords': [2047.6, 515], 'bid': 2.29}, {'imgObject': {}, 'id': 'bagel plain', 'src': '/static/foodstim60/bagel plain.jpg', 'key': 'i', 'origWidth': 410, 'origHeight': 410, 'width': 410, 'height': 410, 'widthPercent': 0.45, 'rescaleHeight': False, 'trialN': 34, 'loaded': True, 'loadedTime': 2887.2999999523163, 'positionName': 'RIGHT', 'positionCoords': [2662.4, 515], 'bid': 5.86}]",59279.60000002384,1669829306197,popsicles,bagel plain,2.29,5.86,3.5700000000000003,bagel plain,1049.8999999761581,1050,1050.0999999046326,True,i,60832.299999952316,1552.6999999284744,1669829307749,1552,HRV,HRV_0040,2022-11-30 17:32:43
35,"[{'imgObject': {}, 'id': 'turkeysandwich', 'src': '/static/foodstim60/turkeysandwich.jpg', 'key': 'u', 'origWidth': 409, 'origHeight': 409, 'width': 409, 'height': 409, 'widthPercent': 0.45, 'rescaleHeight': False, 'trialN': 35, 'loaded': True, 'loadedTime': 2062.899999976158, 'positionName': 'LEFT', 'positionCoords': [2048.6, 515.5], 'bid': 6.44}, {'imgObject': {}, 'id': 'eggs', 'src': '/static/foodstim60/eggs.jpg', 'key': 'i', 'origWidth': 409, 'origHeight': 409, 'width': 409, 'height': 409, 'widthPercent': 0.45, 'rescaleHeight': False, 'trialN': 35, 'loaded': True, 'loadedTime': 2778.100000023842, 'positionName': 'RIGHT', 'positionCoords': [2662.4, 515.5], 'bid': 5.3100000000000005}]",60832.39999997616,1669829307750,turkeysandwich,eggs,6.44,5.3100000000000005,-1.13,turkeysandwich,1192.2000000476837,1192,1192.3999999761581,True,u,62541.0,1708.6000000238419,1669829309458,1708,HRV,HRV_0040,2022-11-30 17:32:43
36,"[{'imgObject': {}, 'id': 'luckycharms', 'src': '/static/foodstim60/luckycharms.jpg', 'key': 'u', 'origWidth': 410, 'origHeight': 409, 'width': 410, 'height': 409, 'widthPercent': 0.45, 'rescaleHeight': False, 'trialN': 36, 'loaded': True, 'loadedTime': 3219.899999976158, 'positionName': 'LEFT', 'positionCoords': [2047.6, 515.5], 'bid': 1.67}, {'imgObject': {}, 'id': 'shreddedwheatwithmilk', 'src': '/static/foodstim60/shreddedwheatwithmilk.jpg', 'key': 'i', 'origWidth': 410, 'origHeight': 410, 'width': 410, 'height': 410, 'widthPercent': 0.45, 'rescaleHeight': False, 'trialN': 36, 'loaded': True, 'loadedTime': 3119.899999976158, 'positionName': 'RIGHT', 'positionCoords': [2662.4, 515], 'bid': 1.73}]",62541.199999928474,1669829309458,luckycharms,shreddedwheatwithmilk,1.67,1.73,0.06000000000000005,luckycharms,923.3000000715256,924,923.4000000953674,True,u,63972.60000002384,1431.4000000953674,1669829310890,1432,HRV,HRV_0040,2022-11-30 17:32:43
37,"[{'imgObject': {}, 'id': 'chicken nuggets2', 'src': '/static/foodstim60/chicken nuggets2.jpg', 'key': 'u', 'origWidth': 410, 'origHeight': 409, 'width': 410, 'height': 409, 'widthPercent': 0.45, 'rescaleHeight': False, 'trialN': 37, 'loaded': True, 'loadedTime': 2344.2999999523163, 'positionName': 'LEFT', 'positionCoords': [2047.6, 515.5], 'bid': 4.44}, {'imgObject': {}, 'id': 'roastedpotatoes', 'src': '/static/foodstim60/roastedpotatoes.jpg', 'key': 'i', 'origWidth': 409, 'origHeight': 410, 'width': 409, 'height': 410, 'widthPercent': 0.45, 'rescaleHeight': False, 'trialN': 37, 'loaded': True, 'loadedTime': 2845.5, 'positionName': 'RIGHT', 'positionCoords': [2662.4, 515], 'bid': 4.3100000000000005}]",63972.699999928474,1669829310890,chicken nuggets2,roastedpotatoes,4.44,4.3100000000000005,-0.1299999999999999,roastedpotatoes,1765.7000000476837,1766,1765.9000000953674,True,i,66255.0,2282.3000000715256,1669829313172,2282,HRV,HRV_0040,2022-11-30 17:32:43
38,"[{'imgObject': {}, 'id': 'orange slices', 'src': '/static/foodstim60/orange slices.jpg', 'key': 'u', 'origWidth': 409, 'origHeight': 410, 'width': 409, 'height': 410, 'widthPercent': 0.45, 'rescaleHeight': False, 'trialN': 38, 'loaded': True, 'loadedTime': 3060.6999999284744, 'positionName': 'LEFT', 'positionCoords': [2048.6, 515], 'bid': 2.91}, {'imgObject': {}, 'id': 'mashed potato', 'src': '/static/foodstim60/mashed potato.jpg', 'key': 'i', 'origWidth': 409, 'origHeight': 409, 'width': 409, 'height': 409, 'widthPercent': 0.45, 'rescaleHeight': False, 'trialN': 38, 'loaded': True, 'loadedTime': 2556, 'positionName': 'RIGHT', 'positionCoords': [2662.4, 515.5], 'bid': 2.88}]",66255.10000002384,1669829313172,orange slices,mashed potato,2.91,2.88,-0.03000000000000025,mashed potato,885.6999999284744,886,885.8999999761581,True,i,67655.0,1399.8999999761581,1669829314572,1400,HRV,HRV_0040,2022-11-30 17:32:43
39,"[{'imgObject': {}, 'id': 'eggsalad', 'src': '/static/foodstim60/eggsalad.jpg', 'key': 'u', 'origWidth': 410, 'origHeight': 409, 'width': 410, 'height': 409, 'widthPercent': 0.45, 'rescaleHeight': False, 'trialN': 39, 'loaded': True, 'loadedTime': 2214.5, 'positionName': 'LEFT', 'positionCoords': [2047.6, 515.5], 'bid': 4.99}, {'imgObject': {}, 'id': 'roastedpotatoes', 'src': '/static/foodstim60/roastedpotatoes.jpg', 'key': 'i', 'origWidth': 409, 'origHeight': 410, 'width': 409, 'height': 410, 'widthPercent': 0.45, 'rescaleHeight': False, 'trialN': 39, 'loaded': True, 'loadedTime': 2844.600000023842, 'positionName': 'RIGHT', 'positionCoords': [2662.4, 515], 'bid': 4.3100000000000005}]",67655.10000002384,1669829314572,eggsalad,roastedpotatoes,4.99,4.3100000000000005,-0.6799999999999997,roastedpotatoes,1385.2999999523163,1386,1385.5999999046326,True,i,69542.60000002384,1887.5,1669829316460,1888,HRV,HRV_0040,2022-11-30 17:32:43
40,"[{'imgObject': {}, 'id': 'cheerios', 'src': '/static/foodstim60/cheerios.jpg', 'key': 'u', 'origWidth': 409, 'origHeight': 410, 'width': 409, 'height': 410, 'widthPercent': 0.45, 'rescaleHeight': False, 'trialN': 40, 'loaded': True, 'loadedTime': 3068.7999999523163, 'positionName': 'LEFT', 'positionCoords': [2048.6, 515], 'bid': 2}, {'imgObject': {}, 'id': 'cantaloupe', 'src': '/static/foodstim60/cantaloupe.jpg', 'key': 'i', 'origWidth': 409, 'origHeight': 409, 'width': 409, 'height': 409, 'widthPercent': 0.45, 'rescaleHeight': False, 'trialN': 40, 'loaded': True, 'loadedTime': 2466.899999976158, 'positionName': 'RIGHT', 'positionCoords': [2662.4, 515.5], 'bid': 2.23}]",69542.69999992847,1669829316460,cheerios,cantaloupe,2.0,2.23,0.22999999999999998,cheerios,1248.7000000476837,1249,1248.9000000953674,True,u,71302.5,1759.8000000715256,1669829318220,1760,HRV,HRV_0040,2022-11-30 17:32:43
41,"[{'imgObject': {}, 'id': 'bagel and cc', 'src': '/static/foodstim60/bagel and cc.jpg', 'key': 'u', 'origWidth': 410, 'origHeight': 410, 'width': 410, 'height': 410, 'widthPercent': 0.45, 'rescaleHeight': False, 'trialN': 41, 'loaded': True, 'loadedTime': 3035.2999999523163, 'positionName': 'LEFT', 'positionCoords': [2047.6, 515], 'bid': 6.5}, {'imgObject': {}, 'id': 'burrito', 'src': '/static/foodstim60/burrito.jpg', 'key': 'i', 'origWidth': 410, 'origHeight': 410, 'width': 410, 'height': 410, 'widthPercent': 0.45, 'rescaleHeight': False, 'trialN': 41, 'loaded': True, 'loadedTime': 2156.399999976158, 'positionName': 'RIGHT', 'positionCoords': [2662.4, 515], 'bid': 3.2}]",71302.60000002384,1669829318220,bagel and cc,burrito,6.5,3.2,-3.3,bagel and cc,1419.8999999761581,1420,1420.0999999046326,True,u,73242.39999997616,1939.7999999523163,1669829320160,1940,HRV,HRV_0040,2022-11-30 17:32:43
42,"[{'imgObject': {}, 'id': 'mashed potato', 'src': '/static/foodstim60/mashed potato.jpg', 'key': 'u', 'origWidth': 409, 'origHeight': 409, 'width': 409, 'height': 409, 'widthPercent': 0.45, 'rescaleHeight': False, 'trialN': 42, 'loaded': True, 'loadedTime': 2532, 'positionName': 'LEFT', 'positionCoords': [2048.6, 515.5], 'bid': 2.88}, {'imgObject': {}, 'id': 'steak', 'src': '/static/foodstim60/steak.jpg', 'key': 'i', 'origWidth': 410, 'origHeight': 410, 'width': 410, 'height': 410, 'widthPercent': 0.45, 'rescaleHeight': False, 'trialN': 42, 'loaded': True, 'loadedTime': 2928.399999976158, 'positionName': 'RIGHT', 'positionCoords': [2662.4, 515], 'bid': 6.08}]",73242.5,1669829320160,mashed potato,steak,2.88,6.08,3.2,steak,1766.0,1766,1766.1999999284744,True,i,75510.19999992847,2267.6999999284744,1669829322428,2268,HRV,HRV_0040,2022-11-30 17:32:43
43,"[{'imgObject': {}, 'id': 'chicken nuggets2', 'src': '/static/foodstim60/chicken nuggets2.jpg', 'key': 'u', 'origWidth': 410, 'origHeight': 409, 'width': 410, 'height': 409, 'widthPercent': 0.45, 'rescaleHeight': False, 'trialN': 43, 'loaded': True, 'loadedTime': 2368.7999999523163, 'positionName': 'LEFT', 'positionCoords': [2047.6, 515.5], 'bid': 4.44}, {'imgObject': {}, 'id': 'cheerios', 'src': '/static/foodstim60/cheerios.jpg', 'key': 'i', 'origWidth': 409, 'origHeight': 410, 'width': 409, 'height': 410, 'widthPercent': 0.45, 'rescaleHeight': False, 'trialN': 43, 'loaded': True, 'loadedTime': 3069.399999976158, 'positionName': 'RIGHT', 'positionCoords': [2662.4, 515], 'bid': 2}]",75510.29999995232,1669829322428,chicken nuggets2,cheerios,4.44,2.0,-2.4400000000000004,chicken nuggets2,2162.399999976158,2162,2162.7000000476837,True,u,78174.89999997616,2664.600000023842,1669829325092,2664,HRV,HRV_0040,2022-11-30 17:32:43
44,"[{'imgObject': {}, 'id': 'hashbrowns', 'src': '/static/foodstim60/hashbrowns.jpg', 'key': 'u', 'origWidth': 411, 'origHeight': 410, 'width': 411, 'height': 410, 'widthPercent': 0.45, 'rescaleHeight': False, 'trialN': 44, 'loaded': True, 'loadedTime': 3298.6999999284744, 'positionName': 'LEFT', 'positionCoords': [2046.6, 515], 'bid': 5.51}, {'imgObject': {}, 'id': 'mac & cheese', 'src': '/static/foodstim60/mac & cheese.jpg', 'key': 'i', 'origWidth': 410, 'origHeight': 410, 'width': 410, 'height': 410, 'widthPercent': 0.45, 'rescaleHeight': False, 'trialN': 44, 'loaded': True, 'loadedTime': 3328.600000023842, 'positionName': 'RIGHT', 'positionCoords': [2662.4, 515], 'bid': 6.5600000000000005}]",78175.0,1669829325092,hashbrowns,mac & cheese,5.51,6.5600000000000005,1.0500000000000007,mac & cheese,1060.6000000238419,1061,1060.7999999523163,True,i,79752.19999992847,1577.1999999284744,1669829326670,1578,HRV,HRV_0040,2022-11-30 17:32:43
45,"[{'imgObject': {}, 'id': 'froot loops w milk', 'src': '/static/foodstim60/froot loops w milk.jpg', 'key': 'u', 'origWidth': 410, 'origHeight': 410, 'width': 410, 'height': 410, 'widthPercent': 0.45, 'rescaleHeight': False, 'trialN': 45, 'loaded': True, 'loadedTime': 3347.1999999284744, 'positionName': 'LEFT', 'positionCoords': [2047.6, 515], 'bid': 1.45}, {'imgObject': {}, 'id': 'baked potato', 'src': '/static/foodstim60/baked potato.jpg', 'key': 'i', 'origWidth': 409, 'origHeight': 410, 'width': 409, 'height': 410, 'widthPercent': 0.45, 'rescaleHeight': False, 'trialN': 45, 'loaded': True, 'loadedTime': 1990.8999999761581, 'positionName': 'RIGHT', 'positionCoords': [2662.4, 515], 'bid': 3}]",79752.29999995232,1669829326670,froot loops w milk,baked potato,1.45,3.0,1.55,froot loops w milk,1262.3000000715256,1262,1262.5,True,u,81527.89999997616,1775.6000000238419,1669829328445,1775,HRV,HRV_0040,2022-11-30 17:32:43
46,"[{'imgObject': {}, 'id': 'cheerios', 'src': '/static/foodstim60/cheerios.jpg', 'key': 'u', 'origWidth': 409, 'origHeight': 410, 'width': 409, 'height': 410, 'widthPercent': 0.45, 'rescaleHeight': False, 'trialN': 46, 'loaded': True, 'loadedTime': 3077.5, 'positionName': 'LEFT', 'positionCoords': [2048.6, 515], 'bid': 2}, {'imgObject': {}, 'id': 'popsicles', 'src': '/static/foodstim60/popsicles.jpg', 'key': 'i', 'origWidth': 410, 'origHeight': 410, 'width': 410, 'height': 410, 'widthPercent': 0.45, 'rescaleHeight': False, 'trialN': 46, 'loaded': True, 'loadedTime': 3269.399999976158, 'positionName': 'RIGHT', 'positionCoords': [2662.4, 515], 'bid': 2.29}]",81528.0,1669829328446,cheerios,popsicles,2.0,2.29,0.29000000000000004,cheerios,834.5,834,834.6000000238419,True,u,82873.10000002384,1345.1000000238419,1669829329791,1345,HRV,HRV_0040,2022-11-30 17:32:43
47,"[{'imgObject': {}, 'id': 'steak', 'src': '/static/foodstim60/steak.jpg', 'key': 'u', 'origWidth': 410, 'origHeight': 410, 'width': 410, 'height': 410, 'widthPercent': 0.45, 'rescaleHeight': False, 'trialN': 47, 'loaded': True, 'loadedTime': 2920.100000023842, 'positionName': 'LEFT', 'positionCoords': [2047.6, 515], 'bid': 6.08}, {'imgObject': {}, 'id': 'eggsalad', 'src': '/static/foodstim60/eggsalad.jpg', 'key': 'i', 'origWidth': 410, 'origHeight': 409, 'width': 410, 'height': 409, 'widthPercent': 0.45, 'rescaleHeight': False, 'trialN': 47, 'loaded': True, 'loadedTime': 2238.6999999284744, 'positionName': 'RIGHT', 'positionCoords': [2662.4, 515.5], 'bid': 4.99}]",82873.29999995232,1669829329791,steak,eggsalad,6.08,4.99,-1.0899999999999999,steak,803.1000000238419,803,803.5,True,u,84184.19999992847,1310.8999999761581,1669829331102,1311,HRV,HRV_0040,2022-11-30 17:32:43
48,"[{'imgObject': {}, 'id': 'olives', 'src': '/static/foodstim60/olives.jpg', 'key': 'u', 'origWidth': 410, 'origHeight': 410, 'width': 410, 'height': 410, 'widthPercent': 0.45, 'rescaleHeight': False, 'trialN': 48, 'loaded': True, 'loadedTime': 3347.5, 'positionName': 'LEFT', 'positionCoords': [2047.6, 515], 'bid': 5.55}, {'imgObject': {}, 'id': 'salad w chicken', 'src': '/static/foodstim60/salad w chicken.jpg', 'key': 'i', 'origWidth': 411, 'origHeight': 411, 'width': 411, 'height': 411, 'widthPercent': 0.45, 'rescaleHeight': False, 'trialN': 48, 'loaded': True, 'loadedTime': 3357.7999999523163, 'positionName': 'RIGHT', 'positionCoords': [2662.4, 514.5], 'bid': 5.58}]",84184.39999997616,1669829331102,olives,salad w chicken,5.55,5.58,0.03000000000000025,salad w chicken,1182.0,1182,1182.2999999523163,True,i,85880.5,1696.1000000238419,1669829332798,1696,HRV,HRV_0040,2022-11-30 17:32:43
49,"[{'imgObject': {}, 'id': 'raspberries', 'src': '/static/foodstim60/raspberries.jpg', 'key': 'u', 'origWidth': 411, 'origHeight': 411, 'width': 411, 'height': 411, 'widthPercent': 0.45, 'rescaleHeight': False, 'trialN': 49, 'loaded': True, 'loadedTime': 2644.899999976158, 'positionName': 'LEFT', 'positionCoords': [2046.6, 514.5], 'bid': 7.66}, {'imgObject': {}, 'id': 'grilled chicken strips', 'src': '/static/foodstim60/grilled chicken strips.jpg', 'key': 'i', 'origWidth': 410, 'origHeight': 411, 'width': 410, 'height': 411, 'widthPercent': 0.45, 'rescaleHeight': False, 'trialN': 49, 'loaded': True, 'loadedTime': 2886.899999976158, 'positionName': 'RIGHT', 'positionCoords': [2662.4, 514.5], 'bid': 5.9}]",85880.69999992847,1669829332798,raspberries,grilled chicken strips,7.66,5.9,-1.7599999999999998,grilled chicken strips,639.7000000476837,640,640.0,True,i,87033.10000002384,1152.4000000953674,1669829333951,1153,HRV,HRV_0040,2022-11-30 17:32:43
50,"[{'imgObject': {}, 'id': 'Tribe humus pita', 'src': '/static/foodstim60/Tribe humus pita.jpg', 'key': 'u', 'origWidth': 411, 'origHeight': 411, 'width': 411, 'height': 411, 'widthPercent': 0.45, 'rescaleHeight': False, 'trialN': 50, 'loaded': True, 'loadedTime': 2701.7999999523163, 'positionName': 'LEFT', 'positionCoords': [2046.6, 514.5], 'bid': 5.8}, {'imgObject': {}, 'id': 'hashbrowns', 'src': '/static/foodstim60/hashbrowns.jpg', 'key': 'i', 'origWidth': 411, 'origHeight': 410, 'width': 411, 'height': 410, 'widthPercent': 0.45, 'rescaleHeight': False, 'trialN': 50, 'loaded': True, 'loadedTime': 3269.5, 'positionName': 'RIGHT', 'positionCoords': [2662.4, 515], 'bid': 5.51}]",87033.29999995232,1669829333951,Tribe humus pita,hashbrowns,5.8,5.51,-0.29000000000000004,hashbrowns,1613.3999999761581,1613,1613.6000000238419,True,i,89164.69999992847,2131.399999976158,1669829336082,2131,HRV,HRV_0040,2022-11-30 17:32:43
51,"[{'imgObject': {}, 'id': 'chickenfingers', 'src': '/static/foodstim60/chickenfingers.jpg', 'key': 'u', 'origWidth': 410, 'origHeight': 410, 'width': 410, 'height': 410, 'widthPercent': 0.45, 'rescaleHeight': False, 'trialN': 51, 'loaded': True, 'loadedTime': 3196.2999999523163, 'positionName': 'LEFT', 'positionCoords': [2047.6, 515], 'bid': 4.8100000000000005}, {'imgObject': {}, 'id': 'Grapes', 'src': '/static/foodstim60/Grapes.jpg', 'key': 'i', 'origWidth': 411, 'origHeight': 411, 'width': 411, 'height': 411, 'widthPercent': 0.45, 'rescaleHeight': False, 'trialN': 51, 'loaded': True, 'loadedTime': 2507.5, 'positionName': 'RIGHT', 'positionCoords': [2662.4, 514.5], 'bid': 4.63}]",89164.89999997616,1669829336082,chickenfingers,Grapes,4.8100000000000005,4.63,-0.1800000000000006,chickenfingers,1470.6000000238419,1471,1470.7999999523163,True,u,91154.79999995232,1989.8999999761581,1669829338072,1990,HRV,HRV_0040,2022-11-30 17:32:43
52,"[{'imgObject': {}, 'id': 'froot loops w milk', 'src': '/static/foodstim60/froot loops w milk.jpg', 'key': 'u', 'origWidth': 410, 'origHeight': 410, 'width': 410, 'height': 410, 'widthPercent': 0.45, 'rescaleHeight': False, 'trialN': 52, 'loaded': True, 'loadedTime': 3338.899999976158, 'positionName': 'LEFT', 'positionCoords': [2047.6, 515], 'bid': 1.45}, {'imgObject': {}, 'id': 'granola w milk', 'src': '/static/foodstim60/granola w milk.jpg', 'key': 'i', 'origWidth': 410, 'origHeight': 410, 'width': 410, 'height': 410, 'widthPercent': 0.45, 'rescaleHeight': False, 'trialN': 52, 'loaded': True, 'loadedTime': 2969.1999999284744, 'positionName': 'RIGHT', 'positionCoords': [2662.4, 515], 'bid': 1.55}]",91154.89999997616,1669829338072,froot loops w milk,granola w milk,1.45,1.55,0.10000000000000009,froot loops w milk,1071.6000000238419,1072,1071.7999999523163,True,u,92747.0,1592.1000000238419,1669829339664,1592,HRV,HRV_0040,2022-11-30 17:32:43
53,"[{'imgObject': {}, 'id': 'popsicles', 'src': '/static/foodstim60/popsicles.jpg', 'key': 'u', 'origWidth': 410, 'origHeight': 410, 'width': 410, 'height': 410, 'widthPercent': 0.45, 'rescaleHeight': False, 'trialN': 53, 'loaded': True, 'loadedTime': 3269.399999976158, 'positionName': 'LEFT', 'positionCoords': [2047.6, 515], 'bid': 2.29}, {'imgObject': {}, 'id': 'chickenfingers', 'src': '/static/foodstim60/chickenfingers.jpg', 'key': 'i', 'origWidth': 410, 'origHeight': 410, 'width': 410, 'height': 410, 'widthPercent': 0.45, 'rescaleHeight': False, 'trialN': 53, 'loaded': True, 'loadedTime': 3196.2999999523163, 'positionName': 'RIGHT', 'positionCoords': [2662.4, 515], 'bid': 4.8100000000000005}]",92747.10000002384,1669829339665,popsicles,chickenfingers,2.29,4.8100000000000005,2.5200000000000005,chickenfingers,1118.3999999761581,1118,1118.5999999046326,True,i,94379.89999997616,1632.7999999523163,1669829341297,1632,HRV,HRV_0040,2022-11-30 17:32:43
54,"[{'imgObject': {}, 'id': 'kiwi', 'src': '/static/foodstim60/kiwi.jpg', 'key': 'u', 'origWidth': 410, 'origHeight': 410, 'width': 410, 'height': 410, 'widthPercent': 0.45, 'rescaleHeight': False, 'trialN': 54, 'loaded': True, 'loadedTime': 2572.100000023842, 'positionName': 'LEFT', 'positionCoords': [2047.6, 515], 'bid': 2.9}, {'imgObject': {}, 'id': 'pear', 'src': '/static/foodstim60/pear.jpg', 'key': 'i', 'origWidth': 411, 'origHeight': 410, 'width': 411, 'height': 410, 'widthPercent': 0.45, 'rescaleHeight': False, 'trialN': 54, 'loaded': True, 'loadedTime': 3373.6999999284744, 'positionName': 'RIGHT', 'positionCoords': [2662.4, 515], 'bid': 3.8}]",94380.0,1669829341297,kiwi,pear,2.9,3.8,0.8999999999999999,pear,1472.6000000238419,1473,1472.8999999761581,True,i,96368.79999995232,1988.7999999523163,1669829343286,1989,HRV,HRV_0040,2022-11-30 17:32:43
55,"[{'imgObject': {}, 'id': 'yogurt no spoon', 'src': '/static/foodstim60/yogurt no spoon.jpg', 'key': 'u', 'origWidth': 411, 'origHeight': 410, 'width': 411, 'height': 410, 'widthPercent': 0.45, 'rescaleHeight': False, 'trialN': 55, 'loaded': True, 'loadedTime': 3382.399999976158, 'positionName': 'LEFT', 'positionCoords': [2046.6, 515], 'bid': 1.46}, {'imgObject': {}, 'id': 'seaweed', 'src': '/static/foodstim60/seaweed.jpg', 'key': 'i', 'origWidth': 410, 'origHeight': 410, 'width': 410, 'height': 410, 'widthPercent': 0.45, 'rescaleHeight': False, 'trialN': 55, 'loaded': True, 'loadedTime': 3094.6999999284744, 'positionName': 'RIGHT', 'positionCoords': [2662.4, 515], 'bid': 2.66}]",96369.0,1669829343286,yogurt no spoon,seaweed,1.46,2.66,1.2000000000000002,yogurt no spoon,1123.5,1124,1123.6999999284744,True,u,98007.39999997616,1638.3999999761581,1669829344925,1639,HRV,HRV_0040,2022-11-30 17:32:43
56,"[{'imgObject': {}, 'id': 'yogurt no spoon', 'src': '/static/foodstim60/yogurt no spoon.jpg', 'key': 'u', 'origWidth': 411, 'origHeight': 410, 'width': 411, 'height': 410, 'widthPercent': 0.45, 'rescaleHeight': False, 'trialN': 56, 'loaded': True, 'loadedTime': 3373.6999999284744, 'positionName': 'LEFT', 'positionCoords': [2046.6, 515], 'bid': 1.46}, {'imgObject': {}, 'id': 'fruitsalad', 'src': '/static/foodstim60/fruitsalad.jpg', 'key': 'i', 'origWidth': 410, 'origHeight': 410, 'width': 410, 'height': 410, 'widthPercent': 0.45, 'rescaleHeight': False, 'trialN': 56, 'loaded': True, 'loadedTime': 3186.600000023842, 'positionName': 'RIGHT', 'positionCoords': [2662.4, 515], 'bid': 5.45}]",98007.60000002384,1669829344925,yogurt no spoon,fruitsalad,1.46,5.45,3.99,fruitsalad,929.1999999284744,930,929.5,True,i,99447.69999992847,1440.0999999046326,1669829346365,1440,HRV,HRV_0040,2022-11-30 17:32:43
57,"[{'imgObject': {}, 'id': 'chickenfingers', 'src': '/static/foodstim60/chickenfingers.jpg', 'key': 'u', 'origWidth': 410, 'origHeight': 410, 'width': 410, 'height': 410, 'widthPercent': 0.45, 'rescaleHeight': False, 'trialN': 57, 'loaded': True, 'loadedTime': 3203.399999976158, 'positionName': 'LEFT', 'positionCoords': [2047.6, 515], 'bid': 4.8100000000000005}, {'imgObject': {}, 'id': 'salad w chicken', 'src': '/static/foodstim60/salad w chicken.jpg', 'key': 'i', 'origWidth': 411, 'origHeight': 411, 'width': 411, 'height': 411, 'widthPercent': 0.45, 'rescaleHeight': False, 'trialN': 57, 'loaded': True, 'loadedTime': 3364.6999999284744, 'positionName': 'RIGHT', 'positionCoords': [2662.4, 514.5], 'bid': 5.58}]",99447.89999997616,1669829346365,chickenfingers,salad w chicken,4.8100000000000005,5.58,0.7699999999999996,chickenfingers,1564.6000000238419,1565,1564.7999999523163,True,u,101524.79999995232,2076.899999976158,1669829348442,2077,HRV,HRV_0040,2022-11-30 17:32:43
58,"[{'imgObject': {}, 'id': 'ice cream sundae 002', 'src': '/static/foodstim60/ice cream sundae 002.jpg', 'key': 'u', 'origWidth': 409, 'origHeight': 409, 'width': 409, 'height': 409, 'widthPercent': 0.45, 'rescaleHeight': False, 'trialN': 58, 'loaded': True, 'loadedTime': 3383, 'positionName': 'LEFT', 'positionCoords': [2048.6, 515.5], 'bid': 3.5700000000000003}, {'imgObject': {}, 'id': 'mac & cheese', 'src': '/static/foodstim60/mac & cheese.jpg', 'key': 'i', 'origWidth': 410, 'origHeight': 410, 'width': 410, 'height': 410, 'widthPercent': 0.45, 'rescaleHeight': False, 'trialN': 58, 'loaded': True, 'loadedTime': 3309.2999999523163, 'positionName': 'RIGHT', 'positionCoords': [2662.4, 515], 'bid': 6.5600000000000005}]",101525.0,1669829348442,ice cream sundae 002,mac & cheese,3.5700000000000003,6.5600000000000005,2.99,mac & cheese,972.5,973,972.6999999284744,True,i,103006.0,1481.0,1669829349923,1481,HRV,HRV_0040,2022-11-30 17:32:43
59,"[{'imgObject': {}, 'id': 'tacos', 'src': '/static/foodstim60/tacos.jpg', 'key': 'u', 'origWidth': 411, 'origHeight': 411, 'width': 411, 'height': 411, 'widthPercent': 0.45, 'rescaleHeight': False, 'trialN': 59, 'loaded': True, 'loadedTime': 2710.7999999523163, 'positionName': 'LEFT', 'positionCoords': [2046.6, 514.5], 'bid': 6.97}, {'imgObject': {}, 'id': 'olives', 'src': '/static/foodstim60/olives.jpg', 'key': 'i', 'origWidth': 410, 'origHeight': 410, 'width': 410, 'height': 410, 'widthPercent': 0.45, 'rescaleHeight': False, 'trialN': 59, 'loaded': True, 'loadedTime': 3356.899999976158, 'positionName': 'RIGHT', 'positionCoords': [2662.4, 515], 'bid': 5.55}]",103006.10000002384,1669829349924,tacos,olives,6.97,5.55,-1.42,tacos,868.5999999046326,869,869.0999999046326,True,u,104394.5,1388.3999999761581,1669829351312,1388,HRV,HRV_0040,2022-11-30 17:32:43
60,"[{'imgObject': {}, 'id': 'kiwi', 'src': '/static/foodstim60/kiwi.jpg', 'key': 'u', 'origWidth': 410, 'origHeight': 410, 'width': 410, 'height': 410, 'widthPercent': 0.45, 'rescaleHeight': False, 'trialN': 60, 'loaded': True, 'loadedTime': 2563.7999999523163, 'positionName': 'LEFT', 'positionCoords': [2047.6, 515], 'bid': 2.9}, {'imgObject': {}, 'id': 'lox', 'src': '/static/foodstim60/lox.jpg', 'key': 'i', 'origWidth': 410, 'origHeight': 411, 'width': 410, 'height': 411, 'widthPercent': 0.45, 'rescaleHeight': False, 'trialN': 60, 'loaded': True, 'loadedTime': 3149.100000023842, 'positionName': 'RIGHT', 'positionCoords': [2662.4, 514.5], 'bid': 0.71}]",104394.69999992847,1669829351312,kiwi,lox,2.9,0.71,-2.19,kiwi,882.7000000476837,883,883.0,True,u,105794.0,1399.3000000715256,1669829352711,1399,HRV,HRV_0040,2022-11-30 17:32:43
61,"[{'imgObject': {}, 'id': 'apple slices', 'src': '/static/foodstim60/apple slices.jpg', 'key': 'u', 'origWidth': 409, 'origHeight': 410, 'width': 409, 'height': 410, 'widthPercent': 0.45, 'rescaleHeight': False, 'trialN': 61, 'loaded': True, 'loadedTime': 3383.600000023842, 'positionName': 'LEFT', 'positionCoords': [2048.6, 515], 'bid': 4.41}, {'imgObject': {}, 'id': 'rigatoni', 'src': '/static/foodstim60/rigatoni.jpg', 'key': 'i', 'origWidth': 411, 'origHeight': 411, 'width': 411, 'height': 411, 'widthPercent': 0.45, 'rescaleHeight': False, 'trialN': 61, 'loaded': True, 'loadedTime': 3399.5, 'positionName': 'RIGHT', 'positionCoords': [2662.4, 514.5], 'bid': 1.98}]",105794.10000002384,1669829352712,apple slices,rigatoni,4.41,1.98,-2.43,apple slices,875.2999999523163,875,875.5,True,u,107181.29999995232,1387.1999999284744,1669829354099,1387,HRV,HRV_0040,2022-11-30 17:32:43
62,"[{'imgObject': {}, 'id': 'sweetpotato', 'src': '/static/foodstim60/sweetpotato.jpg', 'key': 'u', 'origWidth': 410, 'origHeight': 410, 'width': 410, 'height': 410, 'widthPercent': 0.45, 'rescaleHeight': False, 'trialN': 62, 'loaded': True, 'loadedTime': 2393.5, 'positionName': 'LEFT', 'positionCoords': [2047.6, 515], 'bid': 0.44}, {'imgObject': {}, 'id': 'banana', 'src': '/static/foodstim60/banana.jpg', 'key': 'i', 'origWidth': 410, 'origHeight': 410, 'width': 410, 'height': 410, 'widthPercent': 0.45, 'rescaleHeight': False, 'trialN': 62, 'loaded': True, 'loadedTime': 2181.1999999284744, 'positionName': 'RIGHT', 'positionCoords': [2662.4, 515], 'bid': 4.92}]",107181.39999997616,1669829354099,sweetpotato,banana,0.44,4.92,4.4799999999999995,banana,936.1000000238419,936,936.2999999523163,True,i,108627.10000002384,1445.7000000476837,1669829355545,1446,HRV,HRV_0040,2022-11-30 17:32:43
63,"[{'imgObject': {}, 'id': 'roastedpotatoes', 'src': '/static/foodstim60/roastedpotatoes.jpg', 'key': 'u', 'origWidth': 409, 'origHeight': 410, 'width': 409, 'height': 410, 'widthPercent': 0.45, 'rescaleHeight': False, 'trialN': 63, 'loaded': True, 'loadedTime': 2845.2999999523163, 'positionName': 'LEFT', 'positionCoords': [2048.6, 515], 'bid': 4.3100000000000005}, {'imgObject': {}, 'id': 'rigatoni and sauce', 'src': '/static/foodstim60/rigatoni and sauce.jpg', 'key': 'i', 'origWidth': 410, 'origHeight': 411, 'width': 410, 'height': 411, 'widthPercent': 0.45, 'rescaleHeight': False, 'trialN': 63, 'loaded': True, 'loadedTime': 2328, 'positionName': 'RIGHT', 'positionCoords': [2662.4, 514.5], 'bid': 3.82}]",108627.10000002384,1669829355545,roastedpotatoes,rigatoni and sauce,4.3100000000000005,3.82,-0.49000000000000066,roastedpotatoes,939.5,939,939.7999999523163,True,u,110081.0,1453.8999999761581,1669829356998,1453,HRV,HRV_0040,2022-11-30 17:32:43
64,"[{'imgObject': {}, 'id': 'burger', 'src': '/static/foodstim60/burger.jpg', 'key': 'u', 'origWidth': 409, 'origHeight': 409, 'width': 409, 'height': 409, 'widthPercent': 0.45, 'rescaleHeight': False, 'trialN': 64, 'loaded': True, 'loadedTime': 3168.399999976158, 'positionName': 'LEFT', 'positionCoords': [2048.6, 515.5], 'bid': 5.82}, {'imgObject': {}, 'id': 'Tribe humus pita', 'src': '/static/foodstim60/Tribe humus pita.jpg', 'key': 'i', 'origWidth': 411, 'origHeight': 411, 'width': 411, 'height': 411, 'widthPercent': 0.45, 'rescaleHeight': False, 'trialN': 64, 'loaded': True, 'loadedTime': 2661.100000023842, 'positionName': 'RIGHT', 'positionCoords': [2662.4, 514.5], 'bid': 5.8}]",110081.10000002384,1669829356999,burger,Tribe humus pita,5.82,5.8,-0.020000000000000462,burger,1067.3999999761581,1067,1067.5999999046326,True,u,111668.89999997616,1587.7999999523163,1669829358586,1587,HRV,HRV_0040,2022-11-30 17:32:43
65,"[{'imgObject': {}, 'id': 'ice cream sundae 002', 'src': '/static/foodstim60/ice cream sundae 002.jpg', 'key': 'u', 'origWidth': 409, 'origHeight': 409, 'width': 409, 'height': 409, 'widthPercent': 0.45, 'rescaleHeight': False, 'trialN': 65, 'loaded': True, 'loadedTime': 3383.100000023842, 'positionName': 'LEFT', 'positionCoords': [2048.6, 515.5], 'bid': 3.5700000000000003}, {'imgObject': {}, 'id': 'burrito', 'src': '/static/foodstim60/burrito.jpg', 'key': 'i', 'origWidth': 410, 'origHeight': 410, 'width': 410, 'height': 410, 'widthPercent': 0.45, 'rescaleHeight': False, 'trialN': 65, 'loaded': True, 'loadedTime': 2147.7999999523163, 'positionName': 'RIGHT', 'positionCoords': [2662.4, 515], 'bid': 3.2}]",111669.0,1669829358586,ice cream sundae 002,burrito,3.5700000000000003,3.2,-0.3700000000000001,burrito,1222.6000000238419,1223,1222.7999999523163,True,i,113411.89999997616,1742.8999999761581,1669829360329,1743,HRV,HRV_0040,2022-11-30 17:32:43
66,"[{'imgObject': {}, 'id': 'cantaloupe', 'src': '/static/foodstim60/cantaloupe.jpg', 'key': 'u', 'origWidth': 409, 'origHeight': 409, 'width': 409, 'height': 409, 'widthPercent': 0.45, 'rescaleHeight': False, 'trialN': 66, 'loaded': True, 'loadedTime': 2459.399999976158, 'positionName': 'LEFT', 'positionCoords': [2048.6, 515.5], 'bid': 2.23}, {'imgObject': {}, 'id': 'seaweed', 'src': '/static/foodstim60/seaweed.jpg', 'key': 'i', 'origWidth': 410, 'origHeight': 410, 'width': 410, 'height': 410, 'widthPercent': 0.45, 'rescaleHeight': False, 'trialN': 66, 'loaded': True, 'loadedTime': 3085.399999976158, 'positionName': 'RIGHT', 'positionCoords': [2662.4, 515], 'bid': 2.66}]",113412.10000002384,1669829360330,cantaloupe,seaweed,2.23,2.66,0.43000000000000016,cantaloupe,946.5,946,946.6999999284744,True,u,114875.0,1462.8999999761581,1669829361792,1462,HRV,HRV_0040,2022-11-30 17:32:43
67,"[{'imgObject': {}, 'id': 'chickenfingers', 'src': '/static/foodstim60/chickenfingers.jpg', 'key': 'u', 'origWidth': 410, 'origHeight': 410, 'width': 410, 'height': 410, 'widthPercent': 0.45, 'rescaleHeight': False, 'trialN': 67, 'loaded': True, 'loadedTime': 3195.6999999284744, 'positionName': 'LEFT', 'positionCoords': [2047.6, 515], 'bid': 4.8100000000000005}, {'imgObject': {}, 'id': 'eggsalad', 'src': '/static/foodstim60/eggsalad.jpg', 'key': 'i', 'origWidth': 410, 'origHeight': 409, 'width': 410, 'height': 409, 'widthPercent': 0.45, 'rescaleHeight': False, 'trialN': 67, 'loaded': True, 'loadedTime': 2222.6999999284744, 'positionName': 'RIGHT', 'positionCoords': [2662.4, 515.5], 'bid': 4.99}]",114875.10000002384,1669829361793,chickenfingers,eggsalad,4.8100000000000005,4.99,0.17999999999999972,chickenfingers,990.3999999761581,990,990.6999999284744,True,u,116367.79999995232,1492.6999999284744,1669829363285,1492,HRV,HRV_0040,2022-11-30 17:32:43
68,"[{'imgObject': {}, 'id': 'mac & cheese', 'src': '/static/foodstim60/mac & cheese.jpg', 'key': 'u', 'origWidth': 410, 'origHeight': 410, 'width': 410, 'height': 410, 'widthPercent': 0.45, 'rescaleHeight': False, 'trialN': 68, 'loaded': True, 'loadedTime': 3317.899999976158, 'positionName': 'LEFT', 'positionCoords': [2047.6, 515], 'bid': 6.5600000000000005}, {'imgObject': {}, 'id': 'edamame', 'src': '/static/foodstim60/edamame.jpg', 'key': 'i', 'origWidth': 409, 'origHeight': 410, 'width': 409, 'height': 410, 'widthPercent': 0.45, 'rescaleHeight': False, 'trialN': 68, 'loaded': True, 'loadedTime': 3400.1999999284744, 'positionName': 'RIGHT', 'positionCoords': [2662.4, 515], 'bid': 7.98}]",116367.89999997616,1669829363285,mac & cheese,edamame,6.5600000000000005,7.98,1.42,mac & cheese,721.6000000238419,722,721.7999999523163,True,u,117596.10000002384,1228.2000000476837,1669829364514,1229,HRV,HRV_0040,2022-11-30 17:32:43
69,"[{'imgObject': {}, 'id': 'apple slices', 'src': '/static/foodstim60/apple slices.jpg', 'key': 'u', 'origWidth': 409, 'origHeight': 410, 'width': 409, 'height': 410, 'widthPercent': 0.45, 'rescaleHeight': False, 'trialN': 69, 'loaded': True, 'loadedTime': 3391.100000023842, 'positionName': 'LEFT', 'positionCoords': [2048.6, 515], 'bid': 4.41}, {'imgObject': {}, 'id': 'cherry tomato', 'src': '/static/foodstim60/cherry tomato.jpg', 'key': 'i', 'origWidth': 410, 'origHeight': 410, 'width': 410, 'height': 410, 'widthPercent': 0.45, 'rescaleHeight': False, 'trialN': 69, 'loaded': True, 'loadedTime': 2752.6999999284744, 'positionName': 'RIGHT', 'positionCoords': [2662.4, 515], 'bid': 5}]",117596.19999992847,1669829364514,apple slices,cherry tomato,4.41,5.0,0.5899999999999999,apple slices,1324.3000000715256,1324,1324.5,True,u,119432.29999995232,1836.1000000238419,1669829366350,1836,HRV,HRV_0040,2022-11-30 17:32:43
70,"[{'imgObject': {}, 'id': 'rigatoni and sauce', 'src': '/static/foodstim60/rigatoni and sauce.jpg', 'key': 'u', 'origWidth': 410, 'origHeight': 411, 'width': 410, 'height': 411, 'widthPercent': 0.45, 'rescaleHeight': False, 'trialN': 70, 'loaded': True, 'loadedTime': 2335.899999976158, 'positionName': 'LEFT', 'positionCoords': [2047.6, 514.5], 'bid': 3.82}, {'imgObject': {}, 'id': 'shreddedwheatwithmilk', 'src': '/static/foodstim60/shreddedwheatwithmilk.jpg', 'key': 'i', 'origWidth': 410, 'origHeight': 410, 'width': 410, 'height': 410, 'widthPercent': 0.45, 'rescaleHeight': False, 'trialN': 70, 'loaded': True, 'loadedTime': 3138.2999999523163, 'positionName': 'RIGHT', 'positionCoords': [2662.4, 515], 'bid': 1.73}]",119432.5,1669829366350,rigatoni and sauce,shreddedwheatwithmilk,3.82,1.73,-2.09,shreddedwheatwithmilk,1109.1999999284744,1110,1109.6000000238419,True,i,121057.79999995232,1625.2999999523163,1669829367975,1625,HRV,HRV_0040,2022-11-30 17:32:43
71,"[{'imgObject': {}, 'id': 'mashed potato', 'src': '/static/foodstim60/mashed potato.jpg', 'key': 'u', 'origWidth': 409, 'origHeight': 409, 'width': 409, 'height': 409, 'widthPercent': 0.45, 'rescaleHeight': False, 'trialN': 71, 'loaded': True, 'loadedTime': 2531.399999976158, 'positionName': 'LEFT', 'positionCoords': [2048.6, 515.5], 'bid': 2.88}, {'imgObject': {}, 'id': 'salmon', 'src': '/static/foodstim60/salmon.jpg', 'key': 'i', 'origWidth': 410, 'origHeight': 409, 'width': 410, 'height': 409, 'widthPercent': 0.45, 'rescaleHeight': False, 'trialN': 71, 'loaded': True, 'loadedTime': 2441.7999999523163, 'positionName': 'RIGHT', 'positionCoords': [2662.4, 515.5], 'bid': 0.66}]",121057.79999995232,1669829367975,mashed potato,salmon,2.88,0.66,-2.2199999999999998,mashed potato,891.7000000476837,892,891.8999999761581,True,u,122470.0,1412.2000000476837,1669829369387,1412,HRV,HRV_0040,2022-11-30 17:32:43
72,"[{'imgObject': {}, 'id': 'apple slices', 'src': '/static/foodstim60/apple slices.jpg', 'key': 'u', 'origWidth': 409, 'origHeight': 410, 'width': 409, 'height': 410, 'widthPercent': 0.45, 'rescaleHeight': False, 'trialN': 72, 'loaded': True, 'loadedTime': 3391.2999999523163, 'positionName': 'LEFT', 'positionCoords': [2048.6, 515], 'bid': 4.41}, {'imgObject': {}, 'id': 'corn cob', 'src': '/static/foodstim60/corn cob.jpg', 'key': 'i', 'origWidth': 411, 'origHeight': 411, 'width': 411, 'height': 411, 'widthPercent': 0.45, 'rescaleHeight': False, 'trialN': 72, 'loaded': True, 'loadedTime': 3236.600000023842, 'positionName': 'RIGHT', 'positionCoords': [2662.4, 514.5], 'bid': 7.85}]",122470.0,1669829369388,apple slices,corn cob,4.41,7.85,3.4399999999999995,corn cob,704.3999999761581,704,704.6999999284744,True,i,123684.39999997616,1214.3999999761581,1669829370602,1214,HRV,HRV_0040,2022-11-30 17:32:43
73,"[{'imgObject': {}, 'id': 'blackbeanswithrice', 'src': '/static/foodstim60/blackbeanswithrice.jpg', 'key': 'u', 'origWidth': 410, 'origHeight': 410, 'width': 410, 'height': 410, 'widthPercent': 0.45, 'rescaleHeight': False, 'trialN': 73, 'loaded': True, 'loadedTime': 2986.5, 'positionName': 'LEFT', 'positionCoords': [2047.6, 515], 'bid': 1.55}, {'imgObject': {}, 'id': 'yogurt no spoon', 'src': '/static/foodstim60/yogurt no spoon.jpg', 'key': 'i', 'origWidth': 411, 'origHeight': 410, 'width': 411, 'height': 410, 'widthPercent': 0.45, 'rescaleHeight': False, 'trialN': 73, 'loaded': True, 'loadedTime': 3382.399999976158, 'positionName': 'RIGHT', 'positionCoords': [2662.4, 515], 'bid': 1.46}]",123684.5,1669829370602,blackbeanswithrice,yogurt no spoon,1.55,1.46,-0.09000000000000008,yogurt no spoon,945.1000000238419,945,945.2999999523163,True,i,125147.60000002384,1463.1000000238419,1669829372065,1463,HRV,HRV_0040,2022-11-30 17:32:43
74,"[{'imgObject': {}, 'id': 'strawberries', 'src': '/static/foodstim60/strawberries.jpg', 'key': 'u', 'origWidth': 410, 'origHeight': 410, 'width': 410, 'height': 410, 'widthPercent': 0.45, 'rescaleHeight': False, 'trialN': 74, 'loaded': True, 'loadedTime': 3052, 'positionName': 'LEFT', 'positionCoords': [2047.6, 515], 'bid': 6.41}, {'imgObject': {}, 'id': 'cherries', 'src': '/static/foodstim60/cherries.jpg', 'key': 'i', 'origWidth': 410, 'origHeight': 411, 'width': 410, 'height': 411, 'widthPercent': 0.45, 'rescaleHeight': False, 'trialN': 74, 'loaded': True, 'loadedTime': 2596.6999999284744, 'positionName': 'RIGHT', 'positionCoords': [2662.4, 514.5], 'bid': 7.25}]",125147.79999995232,1669829372065,strawberries,cherries,6.41,7.25,0.8399999999999999,strawberries,1076.7000000476837,1077,1077.1000000238419,True,u,126735.0,1587.2000000476837,1669829373652,1587,HRV,HRV_0040,2022-11-30 17:32:43
75,"[{'imgObject': {}, 'id': 'fruitsalad', 'src': '/static/foodstim60/fruitsalad.jpg', 'key': 'u', 'origWidth': 410, 'origHeight': 410, 'width': 410, 'height': 410, 'widthPercent': 0.45, 'rescaleHeight': False, 'trialN': 75, 'loaded': True, 'loadedTime': 3195.6999999284744, 'positionName': 'LEFT', 'positionCoords': [2047.6, 515], 'bid': 5.45}, {'imgObject': {}, 'id': 'eggs', 'src': '/static/foodstim60/eggs.jpg', 'key': 'i', 'origWidth': 409, 'origHeight': 409, 'width': 409, 'height': 409, 'widthPercent': 0.45, 'rescaleHeight': False, 'trialN': 75, 'loaded': True, 'loadedTime': 2769.399999976158, 'positionName': 'RIGHT', 'positionCoords': [2662.4, 515.5], 'bid': 5.3100000000000005}]",126735.10000002384,1669829373653,fruitsalad,eggs,5.45,5.3100000000000005,-0.13999999999999968,eggs,727.3999999761581,727,727.6999999284744,True,i,127977.10000002384,1242.0,1669829374895,1242,HRV,HRV_0040,2022-11-30 17:32:43
76,"[{'imgObject': {}, 'id': 'granola w milk', 'src': '/static/foodstim60/granola w milk.jpg', 'key': 'u', 'origWidth': 410, 'origHeight': 410, 'width': 410, 'height': 410, 'widthPercent': 0.45, 'rescaleHeight': False, 'trialN': 76, 'loaded': True, 'loadedTime': 2985.7999999523163, 'positionName': 'LEFT', 'positionCoords': [2047.6, 515], 'bid': 1.55}, {'imgObject': {}, 'id': 'sweetpotato', 'src': '/static/foodstim60/sweetpotato.jpg', 'key': 'i', 'origWidth': 410, 'origHeight': 410, 'width': 410, 'height': 410, 'widthPercent': 0.45, 'rescaleHeight': False, 'trialN': 76, 'loaded': True, 'loadedTime': 2409.399999976158, 'positionName': 'RIGHT', 'positionCoords': [2662.4, 515], 'bid': 0.44}]",127977.19999992847,1669829374895,granola w milk,sweetpotato,1.55,0.44,-1.11,granola w milk,809.3000000715256,809,809.5,True,u,129307.5,1330.3000000715256,1669829376225,1330,HRV,HRV_0040,2022-11-30 17:32:43
77,"[{'imgObject': {}, 'id': 'mashed potato', 'src': '/static/foodstim60/mashed potato.jpg', 'key': 'u', 'origWidth': 409, 'origHeight': 409, 'width': 409, 'height': 409, 'widthPercent': 0.45, 'rescaleHeight': False, 'trialN': 77, 'loaded': True, 'loadedTime': 2539.600000023842, 'positionName': 'LEFT', 'positionCoords': [2048.6, 515.5], 'bid': 2.88}, {'imgObject': {}, 'id': 'omelette', 'src': '/static/foodstim60/omelette.jpg', 'key': 'i', 'origWidth': 410, 'origHeight': 409, 'width': 410, 'height': 409, 'widthPercent': 0.45, 'rescaleHeight': False, 'trialN': 77, 'loaded': True, 'loadedTime': 2079, 'positionName': 'RIGHT', 'positionCoords': [2662.4, 515.5], 'bid': 3.64}]",129307.60000002384,1669829376225,mashed potato,omelette,2.88,3.64,0.7600000000000002,omelette,1459.0,1460,1459.2999999523163,True,i,131270.5,1962.8999999761581,1669829378188,1963,HRV,HRV_0040,2022-11-30 17:32:43
78,"[{'imgObject': {}, 'id': 'cantaloupe', 'src': '/static/foodstim60/cantaloupe.jpg', 'key': 'u', 'origWidth': 409, 'origHeight': 409, 'width': 409, 'height': 409, 'widthPercent': 0.45, 'rescaleHeight': False, 'trialN': 78, 'loaded': True, 'loadedTime': 2491.7999999523163, 'positionName': 'LEFT', 'positionCoords': [2048.6, 515.5], 'bid': 2.23}, {'imgObject': {}, 'id': 'blueberries', 'src': '/static/foodstim60/blueberries.jpg', 'key': 'i', 'origWidth': 411, 'origHeight': 411, 'width': 411, 'height': 411, 'widthPercent': 0.45, 'rescaleHeight': False, 'trialN': 78, 'loaded': True, 'loadedTime': 2819.399999976158, 'positionName': 'RIGHT', 'positionCoords': [2662.4, 514.5], 'bid': 1.13}]",131270.60000002384,1669829378188,cantaloupe,blueberries,2.23,1.13,-1.1,cantaloupe,1238.7999999523163,1240,1239.0,True,u,133028.69999992847,1758.0999999046326,1669829379947,1759,HRV,HRV_0040,2022-11-30 17:32:43
79,"[{'imgObject': {}, 'id': 'pear', 'src': '/static/foodstim60/pear.jpg', 'key': 'u', 'origWidth': 411, 'origHeight': 410, 'width': 411, 'height': 410, 'widthPercent': 0.45, 'rescaleHeight': False, 'trialN': 79, 'loaded': True, 'loadedTime': 3373.399999976158, 'positionName': 'LEFT', 'positionCoords': [2046.6, 515], 'bid': 3.8}, {'imgObject': {}, 'id': 'omelette', 'src': '/static/foodstim60/omelette.jpg', 'key': 'i', 'origWidth': 410, 'origHeight': 409, 'width': 410, 'height': 409, 'widthPercent': 0.45, 'rescaleHeight': False, 'trialN': 79, 'loaded': True, 'loadedTime': 2087.399999976158, 'positionName': 'RIGHT', 'positionCoords': [2662.4, 515.5], 'bid': 3.64}]",133028.79999995232,1669829379947,pear,omelette,3.8,3.64,-0.1599999999999997,pear,1447.7000000476837,1448,1447.8999999761581,True,u,134993.10000002384,1964.3000000715256,1669829381911,1964,HRV,HRV_0040,2022-11-30 17:32:43
80,"[{'imgObject': {}, 'id': 'fruitsalad', 'src': '/static/foodstim60/fruitsalad.jpg', 'key': 'u', 'origWidth': 410, 'origHeight': 410, 'width': 410, 'height': 410, 'widthPercent': 0.45, 'rescaleHeight': False, 'trialN': 80, 'loaded': True, 'loadedTime': 3195.399999976158, 'positionName': 'LEFT', 'positionCoords': [2047.6, 515], 'bid': 5.45}, {'imgObject': {}, 'id': 'roastedpotatoes', 'src': '/static/foodstim60/roastedpotatoes.jpg', 'key': 'i', 'origWidth': 409, 'origHeight': 410, 'width': 409, 'height': 410, 'widthPercent': 0.45, 'rescaleHeight': False, 'trialN': 80, 'loaded': True, 'loadedTime': 2845.5, 'positionName': 'RIGHT', 'positionCoords': [2662.4, 515], 'bid': 4.3100000000000005}]",134993.29999995232,1669829381911,fruitsalad,roastedpotatoes,5.45,4.3100000000000005,-1.1399999999999997,roastedpotatoes,852.2000000476837,853,852.3999999761581,True,i,136350.89999997616,1357.6000000238419,1669829383269,1358,HRV,HRV_0040,2022-11-30 17:32:43
81,"[{'imgObject': {}, 'id': 'steak', 'src': '/static/foodstim60/steak.jpg', 'key': 'u', 'origWidth': 410, 'origHeight': 410, 'width': 410, 'height': 410, 'widthPercent': 0.45, 'rescaleHeight': False, 'trialN': 81, 'loaded': True, 'loadedTime': 2920.399999976158, 'positionName': 'LEFT', 'positionCoords': [2047.6, 515], 'bid': 6.08}, {'imgObject': {}, 'id': 'mango', 'src': '/static/foodstim60/mango.jpg', 'key': 'i', 'origWidth': 411, 'origHeight': 411, 'width': 411, 'height': 411, 'widthPercent': 0.45, 'rescaleHeight': False, 'trialN': 81, 'loaded': True, 'loadedTime': 3408.2999999523163, 'positionName': 'RIGHT', 'positionCoords': [2662.4, 514.5], 'bid': 6.390000000000001}]",136351.0,1669829383269,steak,mango,6.08,6.390000000000001,0.3100000000000005,steak,753.3999999761581,754,753.6999999284744,True,u,137614.89999997616,1263.8999999761581,1669829384533,1264,HRV,HRV_0040,2022-11-30 17:32:43
82,"[{'imgObject': {}, 'id': 'sushi w_condiments', 'src': '/static/foodstim60/sushi w_condiments.jpg', 'key': 'u', 'origWidth': 410, 'origHeight': 410, 'width': 410, 'height': 410, 'widthPercent': 0.45, 'rescaleHeight': False, 'trialN': 82, 'loaded': True, 'loadedTime': 1916.5, 'positionName': 'LEFT', 'positionCoords': [2047.6, 515], 'bid': 9.24}, {'imgObject': {}, 'id': 'edamame', 'src': '/static/foodstim60/edamame.jpg', 'key': 'i', 'origWidth': 409, 'origHeight': 410, 'width': 409, 'height': 410, 'widthPercent': 0.45, 'rescaleHeight': False, 'trialN': 82, 'loaded': True, 'loadedTime': 3400.100000023842, 'positionName': 'RIGHT', 'positionCoords': [2662.4, 515], 'bid': 7.98}]",137615.10000002384,1669829384533,sushi w_condiments,edamame,9.24,7.98,-1.2599999999999998,sushi w_condiments,956.3999999761581,957,956.5999999046326,True,u,139080.79999995232,1465.6999999284744,1669829385999,1466,HRV,HRV_0040,2022-11-30 17:32:43
83,"[{'imgObject': {}, 'id': 'burger', 'src': '/static/foodstim60/burger.jpg', 'key': 'u', 'origWidth': 409, 'origHeight': 409, 'width': 409, 'height': 409, 'widthPercent': 0.45, 'rescaleHeight': False, 'trialN': 83, 'loaded': True, 'loadedTime': 3159.399999976158, 'positionName': 'LEFT', 'positionCoords': [2048.6, 515.5], 'bid': 5.82}, {'imgObject': {}, 'id': 'cocktailshrimp', 'src': '/static/foodstim60/cocktailshrimp.jpg', 'key': 'i', 'origWidth': 410, 'origHeight': 410, 'width': 410, 'height': 410, 'widthPercent': 0.45, 'rescaleHeight': False, 'trialN': 83, 'loaded': True, 'loadedTime': 3416.399999976158, 'positionName': 'RIGHT', 'positionCoords': [2662.4, 515], 'bid': 8.18}]",139080.89999997616,1669829385999,burger,cocktailshrimp,5.82,8.18,2.3599999999999994,cocktailshrimp,1142.6000000238419,1143,1142.7999999523163,True,i,140734.79999995232,1653.8999999761581,1669829387653,1654,HRV,HRV_0040,2022-11-30 17:32:43
84,"[{'imgObject': {}, 'id': 'corn cob', 'src': '/static/foodstim60/corn cob.jpg', 'key': 'u', 'origWidth': 411, 'origHeight': 411, 'width': 411, 'height': 411, 'widthPercent': 0.45, 'rescaleHeight': False, 'trialN': 84, 'loaded': True, 'loadedTime': 3244.7999999523163, 'positionName': 'LEFT', 'positionCoords': [2046.6, 514.5], 'bid': 7.85}, {'imgObject': {}, 'id': 'bagel and cc', 'src': '/static/foodstim60/bagel and cc.jpg', 'key': 'i', 'origWidth': 410, 'origHeight': 410, 'width': 410, 'height': 410, 'widthPercent': 0.45, 'rescaleHeight': False, 'trialN': 84, 'loaded': True, 'loadedTime': 3010.2999999523163, 'positionName': 'RIGHT', 'positionCoords': [2662.4, 515], 'bid': 6.5}]",140734.89999997616,1669829387653,corn cob,bagel and cc,7.85,6.5,-1.3499999999999996,corn cob,737.7000000476837,738,738.0,True,u,141979.29999995232,1244.3999999761581,1669829388897,1244,HRV,HRV_0040,2022-11-30 17:32:43
85,"[{'imgObject': {}, 'id': 'chicken nuggets2', 'src': '/static/foodstim60/chicken nuggets2.jpg', 'key': 'u', 'origWidth': 410, 'origHeight': 409, 'width': 410, 'height': 409, 'widthPercent': 0.45, 'rescaleHeight': False, 'trialN': 85, 'loaded': True, 'loadedTime': 2352, 'positionName': 'LEFT', 'positionCoords': [2047.6, 515.5], 'bid': 4.44}, {'imgObject': {}, 'id': 'apple slices', 'src': '/static/foodstim60/apple slices.jpg', 'key': 'i', 'origWidth': 409, 'origHeight': 410, 'width': 409, 'height': 410, 'widthPercent': 0.45, 'rescaleHeight': False, 'trialN': 85, 'loaded': True, 'loadedTime': 3391.100000023842, 'positionName': 'RIGHT', 'positionCoords': [2662.4, 515], 'bid': 4.41}]",141979.39999997616,1669829388897,chicken nuggets2,apple slices,4.44,4.41,-0.03000000000000025,chicken nuggets2,1777.0,1778,1777.2999999523163,True,u,144271.0,2291.600000023842,1669829391189,2292,HRV,HRV_0040,2022-11-30 17:32:43
86,"[{'imgObject': {}, 'id': 'avocado', 'src': '/static/foodstim60/avocado.jpg', 'key': 'u', 'origWidth': 409, 'origHeight': 409, 'width': 409, 'height': 409, 'widthPercent': 0.45, 'rescaleHeight': False, 'trialN': 86, 'loaded': True, 'loadedTime': 2945.5, 'positionName': 'LEFT', 'positionCoords': [2048.6, 515.5], 'bid': 5.63}, {'imgObject': {}, 'id': 'raspberries', 'src': '/static/foodstim60/raspberries.jpg', 'key': 'i', 'origWidth': 411, 'origHeight': 411, 'width': 411, 'height': 411, 'widthPercent': 0.45, 'rescaleHeight': False, 'trialN': 86, 'loaded': True, 'loadedTime': 2653.2999999523163, 'positionName': 'RIGHT', 'positionCoords': [2662.4, 514.5], 'bid': 7.66}]",144271.10000002384,1669829391189,avocado,raspberries,5.63,7.66,2.0300000000000002,raspberries,689.2999999523163,690,689.5999999046326,True,i,145465.0,1193.8999999761581,1669829392383,1194,HRV,HRV_0040,2022-11-30 17:32:43
87,"[{'imgObject': {}, 'id': 'cherries', 'src': '/static/foodstim60/cherries.jpg', 'key': 'u', 'origWidth': 410, 'origHeight': 411, 'width': 410, 'height': 411, 'widthPercent': 0.45, 'rescaleHeight': False, 'trialN': 87, 'loaded': True, 'loadedTime': 2628.5, 'positionName': 'LEFT', 'positionCoords': [2047.6, 514.5], 'bid': 7.25}, {'imgObject': {}, 'id': 'salad w chicken', 'src': '/static/foodstim60/salad w chicken.jpg', 'key': 'i', 'origWidth': 411, 'origHeight': 411, 'width': 411, 'height': 411, 'widthPercent': 0.45, 'rescaleHeight': False, 'trialN': 87, 'loaded': True, 'loadedTime': 3364.899999976158, 'positionName': 'RIGHT', 'positionCoords': [2662.4, 514.5], 'bid': 5.58}]",145465.10000002384,1669829392383,cherries,salad w chicken,7.25,5.58,-1.67,salad w chicken,1188.5,1189,1188.6999999284744,True,i,147163.69999992847,1698.5999999046326,1669829394082,1699,HRV,HRV_0040,2022-11-30 17:32:43
88,"[{'imgObject': {}, 'id': 'fried eggs', 'src': '/static/foodstim60/fried eggs.jpg', 'key': 'u', 'origWidth': 410, 'origHeight': 410, 'width': 410, 'height': 410, 'widthPercent': 0.45, 'rescaleHeight': False, 'trialN': 88, 'loaded': True, 'loadedTime': 2254.899999976158, 'positionName': 'LEFT', 'positionCoords': [2047.6, 515], 'bid': 5.16}, {'imgObject': {}, 'id': 'cherry tomato', 'src': '/static/foodstim60/cherry tomato.jpg', 'key': 'i', 'origWidth': 410, 'origHeight': 410, 'width': 410, 'height': 410, 'widthPercent': 0.45, 'rescaleHeight': False, 'trialN': 88, 'loaded': True, 'loadedTime': 2744.2999999523163, 'positionName': 'RIGHT', 'positionCoords': [2662.4, 515], 'bid': 5}]",147163.89999997616,1669829394082,fried eggs,cherry tomato,5.16,5.0,-0.16000000000000014,fried eggs,910.5,911,910.7999999523163,True,u,148584.0,1420.1000000238419,1669829395502,1420,HRV,HRV_0040,2022-11-30 17:32:43
89,"[{'imgObject': {}, 'id': 'grilled chicken strips', 'src': '/static/foodstim60/grilled chicken strips.jpg', 'key': 'u', 'origWidth': 410, 'origHeight': 411, 'width': 410, 'height': 411, 'widthPercent': 0.45, 'rescaleHeight': False, 'trialN': 89, 'loaded': True, 'loadedTime': 2861.5, 'positionName': 'LEFT', 'positionCoords': [2047.6, 514.5], 'bid': 5.9}, {'imgObject': {}, 'id': 'salad w chicken', 'src': '/static/foodstim60/salad w chicken.jpg', 'key': 'i', 'origWidth': 411, 'origHeight': 411, 'width': 411, 'height': 411, 'widthPercent': 0.45, 'rescaleHeight': False, 'trialN': 89, 'loaded': True, 'loadedTime': 3357, 'positionName': 'RIGHT', 'positionCoords': [2662.4, 514.5], 'bid': 5.58}]",148584.19999992847,1669829395502,grilled chicken strips,salad w chicken,5.9,5.58,-0.3200000000000003,grilled chicken strips,668.2000000476837,669,668.5,True,u,149767.0,1182.8000000715256,1669829396685,1183,HRV,HRV_0040,2022-11-30 17:32:43
90,"[{'imgObject': {}, 'id': 'hotdog w must', 'src': '/static/foodstim60/hotdog w must.jpg', 'key': 'u', 'origWidth': 409, 'origHeight': 409, 'width': 409, 'height': 409, 'widthPercent': 0.45, 'rescaleHeight': False, 'trialN': 90, 'loaded': True, 'loadedTime': 3416.899999976158, 'positionName': 'LEFT', 'positionCoords': [2048.6, 515.5], 'bid': 5.57}, {'imgObject': {}, 'id': 'turkey sandwich', 'src': '/static/foodstim60/turkey sandwich.jpg', 'key': 'i', 'origWidth': 409, 'origHeight': 409, 'width': 409, 'height': 409, 'widthPercent': 0.45, 'rescaleHeight': False, 'trialN': 90, 'loaded': True, 'loadedTime': 2031, 'positionName': 'RIGHT', 'positionCoords': [2662.4, 515.5], 'bid': 7.140000000000001}]",167742.10000002384,1669829414660,hotdog w must,turkey sandwich,5.57,7.140000000000001,1.5700000000000003,turkey sandwich,991.2999999523163,992,991.5999999046326,True,i,169240.69999992847,1498.5999999046326,1669829416159,1499,HRV,HRV_0040,2022-11-30 17:32:43
91,"[{'imgObject': {}, 'id': 'fried eggs', 'src': '/static/foodstim60/fried eggs.jpg', 'key': 'u', 'origWidth': 410, 'origHeight': 410, 'width': 410, 'height': 410, 'widthPercent': 0.45, 'rescaleHeight': False, 'trialN': 91, 'loaded': True, 'loadedTime': 2286.600000023842, 'positionName': 'LEFT', 'positionCoords': [2047.6, 515], 'bid': 5.16}, {'imgObject': {}, 'id': 'fruitsalad', 'src': '/static/foodstim60/fruitsalad.jpg', 'key': 'i', 'origWidth': 410, 'origHeight': 410, 'width': 410, 'height': 410, 'widthPercent': 0.45, 'rescaleHeight': False, 'trialN': 91, 'loaded': True, 'loadedTime': 3186.2999999523163, 'positionName': 'RIGHT', 'positionCoords': [2662.4, 515], 'bid': 5.45}]",169240.89999997616,1669829416159,fried eggs,fruitsalad,5.16,5.45,0.29000000000000004,fried eggs,599.5,600,599.7000000476837,True,u,170343.89999997616,1103.0,1669829417262,1103,HRV,HRV_0040,2022-11-30 17:32:43
92,"[{'imgObject': {}, 'id': 'rigatoni', 'src': '/static/foodstim60/rigatoni.jpg', 'key': 'u', 'origWidth': 411, 'origHeight': 411, 'width': 411, 'height': 411, 'widthPercent': 0.45, 'rescaleHeight': False, 'trialN': 92, 'loaded': True, 'loadedTime': 3391.399999976158, 'positionName': 'LEFT', 'positionCoords': [2046.6, 514.5], 'bid': 1.98}, {'imgObject': {}, 'id': 'yogurt no spoon', 'src': '/static/foodstim60/yogurt no spoon.jpg', 'key': 'i', 'origWidth': 411, 'origHeight': 410, 'width': 411, 'height': 410, 'widthPercent': 0.45, 'rescaleHeight': False, 'trialN': 92, 'loaded': True, 'loadedTime': 3374.2999999523163, 'positionName': 'RIGHT', 'positionCoords': [2662.4, 515], 'bid': 1.46}]",170344.0,1669829417262,rigatoni,yogurt no spoon,1.98,1.46,-0.52,yogurt no spoon,818.3999999761581,819,818.6999999284744,True,i,171679.79999995232,1335.7999999523163,1669829418598,1336,HRV,HRV_0040,2022-11-30 17:32:43
93,"[{'imgObject': {}, 'id': 'fried eggs', 'src': '/static/foodstim60/fried eggs.jpg', 'key': 'u', 'origWidth': 410, 'origHeight': 410, 'width': 410, 'height': 410, 'widthPercent': 0.45, 'rescaleHeight': False, 'trialN': 93, 'loaded': True, 'loadedTime': 2278.7999999523163, 'positionName': 'LEFT', 'positionCoords': [2047.6, 515], 'bid': 5.16}, {'imgObject': {}, 'id': 'strawberries', 'src': '/static/foodstim60/strawberries.jpg', 'key': 'i', 'origWidth': 410, 'origHeight': 410, 'width': 410, 'height': 410, 'widthPercent': 0.45, 'rescaleHeight': False, 'trialN': 93, 'loaded': True, 'loadedTime': 3051.7999999523163, 'positionName': 'RIGHT', 'positionCoords': [2662.4, 515], 'bid': 6.41}]",171679.89999997616,1669829418598,fried eggs,strawberries,5.16,6.41,1.25,fried eggs,717.6000000238419,718,717.7999999523163,True,u,172911.89999997616,1232.0,1669829419830,1232,HRV,HRV_0040,2022-11-30 17:32:43
94,"[{'imgObject': {}, 'id': 'shreddedwheatwithmilk', 'src': '/static/foodstim60/shreddedwheatwithmilk.jpg', 'key': 'u', 'origWidth': 410, 'origHeight': 410, 'width': 410, 'height': 410, 'widthPercent': 0.45, 'rescaleHeight': False, 'trialN': 94, 'loaded': True, 'loadedTime': 3138.6999999284744, 'positionName': 'LEFT', 'positionCoords': [2047.6, 515], 'bid': 1.73}, {'imgObject': {}, 'id': 'blueberries', 'src': '/static/foodstim60/blueberries.jpg', 'key': 'i', 'origWidth': 411, 'origHeight': 411, 'width': 411, 'height': 411, 'widthPercent': 0.45, 'rescaleHeight': False, 'trialN': 94, 'loaded': True, 'loadedTime': 2836.6999999284744, 'positionName': 'RIGHT', 'positionCoords': [2662.4, 514.5], 'bid': 1.13}]",172912.19999992847,1669829419830,shreddedwheatwithmilk,blueberries,1.73,1.13,-0.6000000000000001,shreddedwheatwithmilk,1089.3000000715256,1090,1089.5,True,u,174517.69999992847,1605.5,1669829421436,1606,HRV,HRV_0040,2022-11-30 17:32:43
95,"[{'imgObject': {}, 'id': 'turkeysandwich', 'src': '/static/foodstim60/turkeysandwich.jpg', 'key': 'u', 'origWidth': 409, 'origHeight': 409, 'width': 409, 'height': 409, 'widthPercent': 0.45, 'rescaleHeight': False, 'trialN': 95, 'loaded': True, 'loadedTime': 2070.899999976158, 'positionName': 'LEFT', 'positionCoords': [2048.6, 515.5], 'bid': 6.44}, {'imgObject': {}, 'id': 'raspberries', 'src': '/static/foodstim60/raspberries.jpg', 'key': 'i', 'origWidth': 411, 'origHeight': 411, 'width': 411, 'height': 411, 'widthPercent': 0.45, 'rescaleHeight': False, 'trialN': 95, 'loaded': True, 'loadedTime': 2653.1999999284744, 'positionName': 'RIGHT', 'positionCoords': [2662.4, 514.5], 'bid': 7.66}]",174517.89999997616,1669829421436,turkeysandwich,raspberries,6.44,7.66,1.2199999999999998,turkeysandwich,746.6000000238419,747,746.7999999523163,True,u,175778.69999992847,1260.7999999523163,1669829422697,1261,HRV,HRV_0040,2022-11-30 17:32:43
96,"[{'imgObject': {}, 'id': 'rigatoni and sauce', 'src': '/static/foodstim60/rigatoni and sauce.jpg', 'key': 'u', 'origWidth': 410, 'origHeight': 411, 'width': 410, 'height': 411, 'widthPercent': 0.45, 'rescaleHeight': False, 'trialN': 96, 'loaded': True, 'loadedTime': 2302.6999999284744, 'positionName': 'LEFT', 'positionCoords': [2047.6, 514.5], 'bid': 3.82}, {'imgObject': {}, 'id': 'apple slices', 'src': '/static/foodstim60/apple slices.jpg', 'key': 'i', 'origWidth': 409, 'origHeight': 410, 'width': 409, 'height': 410, 'widthPercent': 0.45, 'rescaleHeight': False, 'trialN': 96, 'loaded': True, 'loadedTime': 3390.899999976158, 'positionName': 'RIGHT', 'positionCoords': [2662.4, 515], 'bid': 4.41}]",175778.79999995232,1669829422697,rigatoni and sauce,apple slices,3.82,4.41,0.5900000000000003,apple slices,1449.8999999761581,1450,1450.1000000238419,True,i,177744.79999995232,1966.0,1669829424663,1966,HRV,HRV_0040,2022-11-30 17:32:43
97,"[{'imgObject': {}, 'id': 'eggsalad', 'src': '/static/foodstim60/eggsalad.jpg', 'key': 'u', 'origWidth': 410, 'origHeight': 409, 'width': 410, 'height': 409, 'widthPercent': 0.45, 'rescaleHeight': False, 'trialN': 97, 'loaded': True, 'loadedTime': 2246.399999976158, 'positionName': 'LEFT', 'positionCoords': [2047.6, 515.5], 'bid': 4.99}, {'imgObject': {}, 'id': 'salmon', 'src': '/static/foodstim60/salmon.jpg', 'key': 'i', 'origWidth': 410, 'origHeight': 409, 'width': 410, 'height': 409, 'widthPercent': 0.45, 'rescaleHeight': False, 'trialN': 97, 'loaded': True, 'loadedTime': 2425.100000023842, 'positionName': 'RIGHT', 'positionCoords': [2662.4, 515.5], 'bid': 0.66}]",177744.89999997616,1669829424663,eggsalad,salmon,4.99,0.66,-4.33,eggsalad,817.6000000238419,818,817.7999999523163,True,u,179076.79999995232,1331.8999999761581,1669829425995,1332,HRV,HRV_0040,2022-11-30 17:32:43
98,"[{'imgObject': {}, 'id': 'ice cream sundae 002', 'src': '/static/foodstim60/ice cream sundae 002.jpg', 'key': 'u', 'origWidth': 409, 'origHeight': 409, 'width': 409, 'height': 409, 'widthPercent': 0.45, 'rescaleHeight': False, 'trialN': 98, 'loaded': True, 'loadedTime': 3382.399999976158, 'positionName': 'LEFT', 'positionCoords': [2048.6, 515.5], 'bid': 3.5700000000000003}, {'imgObject': {}, 'id': 'granola w milk', 'src': '/static/foodstim60/granola w milk.jpg', 'key': 'i', 'origWidth': 410, 'origHeight': 410, 'width': 410, 'height': 410, 'widthPercent': 0.45, 'rescaleHeight': False, 'trialN': 98, 'loaded': True, 'loadedTime': 2978, 'positionName': 'RIGHT', 'positionCoords': [2662.4, 515], 'bid': 1.55}]",179077.0,1669829425995,ice cream sundae 002,granola w milk,3.5700000000000003,1.55,-2.0200000000000005,granola w milk,939.5,940,939.6999999284744,True,i,180523.69999992847,1446.6999999284744,1669829427442,1447,HRV,HRV_0040,2022-11-30 17:32:43
99,"[{'imgObject': {}, 'id': 'cherries', 'src': '/static/foodstim60/cherries.jpg', 'key': 'u', 'origWidth': 410, 'origHeight': 411, 'width': 410, 'height': 411, 'widthPercent': 0.45, 'rescaleHeight': False, 'trialN': 99, 'loaded': True, 'loadedTime': 2620.5, 'positionName': 'LEFT', 'positionCoords': [2047.6, 514.5], 'bid': 7.25}, {'imgObject': {}, 'id': 'tacos', 'src': '/static/foodstim60/tacos.jpg', 'key': 'i', 'origWidth': 411, 'origHeight': 411, 'width': 411, 'height': 411, 'widthPercent': 0.45, 'rescaleHeight': False, 'trialN': 99, 'loaded': True, 'loadedTime': 2710.7999999523163, 'positionName': 'RIGHT', 'positionCoords': [2662.4, 514.5], 'bid': 6.97}]",180523.79999995232,1669829427442,cherries,tacos,7.25,6.97,-0.28000000000000025,tacos,842.8999999761581,843,843.1000000238419,True,i,181883.0,1359.2000000476837,1669829428801,1359,HRV,HRV_0040,2022-11-30 17:32:43
100,"[{'imgObject': {}, 'id': 'baked potato', 'src': '/static/foodstim60/baked potato.jpg', 'key': 'u', 'origWidth': 409, 'origHeight': 410, 'width': 409, 'height': 410, 'widthPercent': 0.45, 'rescaleHeight': False, 'trialN': 100, 'loaded': True, 'loadedTime': 1999.1000000238419, 'positionName': 'LEFT', 'positionCoords': [2048.6, 515], 'bid': 3}, {'imgObject': {}, 'id': 'cantaloupe', 'src': '/static/foodstim60/cantaloupe.jpg', 'key': 'i', 'origWidth': 409, 'origHeight': 409, 'width': 409, 'height': 409, 'widthPercent': 0.45, 'rescaleHeight': False, 'trialN': 100, 'loaded': True, 'loadedTime': 2491.5, 'positionName': 'RIGHT', 'positionCoords': [2662.4, 515.5], 'bid': 2.23}]",181883.10000002384,1669829428801,baked potato,cantaloupe,3.0,2.23,-0.77,baked potato,875.3999999761581,876,875.5999999046326,True,u,183262.10000002384,1379.0,1669829430180,1379,HRV,HRV_0040,2022-11-30 17:32:43
101,"[{'imgObject': {}, 'id': 'banana', 'src': '/static/foodstim60/banana.jpg', 'key': 'u', 'origWidth': 410, 'origHeight': 410, 'width': 410, 'height': 410, 'widthPercent': 0.45, 'rescaleHeight': False, 'trialN': 101, 'loaded': True, 'loadedTime': 2198.100000023842, 'positionName': 'LEFT', 'positionCoords': [2047.6, 515], 'bid': 4.92}, {'imgObject': {}, 'id': 'Grapes', 'src': '/static/foodstim60/Grapes.jpg', 'key': 'i', 'origWidth': 411, 'origHeight': 411, 'width': 411, 'height': 411, 'widthPercent': 0.45, 'rescaleHeight': False, 'trialN': 101, 'loaded': True, 'loadedTime': 2507.1999999284744, 'positionName': 'RIGHT', 'positionCoords': [2662.4, 514.5], 'bid': 4.63}]",183262.19999992847,1669829430180,banana,Grapes,4.92,4.63,-0.29000000000000004,banana,1769.3000000715256,1770,1769.5,True,u,185541.69999992847,2279.5,1669829432460,2280,HRV,HRV_0040,2022-11-30 17:32:43
102,"[{'imgObject': {}, 'id': 'salad w chicken', 'src': '/static/foodstim60/salad w chicken.jpg', 'key': 'u', 'origWidth': 411, 'origHeight': 411, 'width': 411, 'height': 411, 'widthPercent': 0.45, 'rescaleHeight': False, 'trialN': 102, 'loaded': True, 'loadedTime': 3357.6999999284744, 'positionName': 'LEFT', 'positionCoords': [2046.6, 514.5], 'bid': 5.58}, {'imgObject': {}, 'id': 'shreddedwheatwithmilk', 'src': '/static/foodstim60/shreddedwheatwithmilk.jpg', 'key': 'i', 'origWidth': 410, 'origHeight': 410, 'width': 410, 'height': 410, 'widthPercent': 0.45, 'rescaleHeight': False, 'trialN': 102, 'loaded': True, 'loadedTime': 3112, 'positionName': 'RIGHT', 'positionCoords': [2662.4, 515], 'bid': 1.73}]",185541.79999995232,1669829432460,salad w chicken,shreddedwheatwithmilk,5.58,1.73,-3.85,salad w chicken,1260.7000000476837,1261,1260.8999999761581,True,u,187319.79999995232,1778.0,1669829434238,1778,HRV,HRV_0040,2022-11-30 17:32:43
103,"[{'imgObject': {}, 'id': 'mac & cheese', 'src': '/static/foodstim60/mac & cheese.jpg', 'key': 'u', 'origWidth': 410, 'origHeight': 410, 'width': 410, 'height': 410, 'widthPercent': 0.45, 'rescaleHeight': False, 'trialN': 103, 'loaded': True, 'loadedTime': 3328.1999999284744, 'positionName': 'LEFT', 'positionCoords': [2047.6, 515], 'bid': 6.5600000000000005}, {'imgObject': {}, 'id': 'bagel and cc', 'src': '/static/foodstim60/bagel and cc.jpg', 'key': 'i', 'origWidth': 410, 'origHeight': 410, 'width': 410, 'height': 410, 'widthPercent': 0.45, 'rescaleHeight': False, 'trialN': 103, 'loaded': True, 'loadedTime': 3002.5, 'positionName': 'RIGHT', 'positionCoords': [2662.4, 515], 'bid': 6.5}]",187319.89999997616,1669829434238,mac & cheese,bagel and cc,6.5600000000000005,6.5,-0.0600000000000005,mac & cheese,1581.8999999761581,1582,1582.1000000238419,True,u,189407.69999992847,2087.7999999523163,1669829436326,2088,HRV,HRV_0040,2022-11-30 17:32:43
104,"[{'imgObject': {}, 'id': 'turkey sandwich', 'src': '/static/foodstim60/turkey sandwich.jpg', 'key': 'u', 'origWidth': 409, 'origHeight': 409, 'width': 409, 'height': 409, 'widthPercent': 0.45, 'rescaleHeight': False, 'trialN': 104, 'loaded': True, 'loadedTime': 2006.8999999761581, 'positionName': 'LEFT', 'positionCoords': [2048.6, 515.5], 'bid': 7.140000000000001}, {'imgObject': {}, 'id': 'tacos', 'src': '/static/foodstim60/tacos.jpg', 'key': 'i', 'origWidth': 411, 'origHeight': 411, 'width': 411, 'height': 411, 'widthPercent': 0.45, 'rescaleHeight': False, 'trialN': 104, 'loaded': True, 'loadedTime': 2710.6999999284744, 'positionName': 'RIGHT', 'positionCoords': [2662.4, 514.5], 'bid': 6.97}]",189407.89999997616,1669829436326,turkey sandwich,tacos,7.140000000000001,6.97,-0.17000000000000082,tacos,1062.5,1063,1062.7999999523163,True,i,190973.89999997616,1566.0,1669829437892,1566,HRV,HRV_0040,2022-11-30 17:32:43
105,"[{'imgObject': {}, 'id': 'omelette', 'src': '/static/foodstim60/omelette.jpg', 'key': 'u', 'origWidth': 410, 'origHeight': 409, 'width': 410, 'height': 409, 'widthPercent': 0.45, 'rescaleHeight': False, 'trialN': 105, 'loaded': True, 'loadedTime': 2120.899999976158, 'positionName': 'LEFT', 'positionCoords': [2047.6, 515.5], 'bid': 3.64}, {'imgObject': {}, 'id': 'blackbeanswithrice', 'src': '/static/foodstim60/blackbeanswithrice.jpg', 'key': 'i', 'origWidth': 410, 'origHeight': 410, 'width': 410, 'height': 410, 'widthPercent': 0.45, 'rescaleHeight': False, 'trialN': 105, 'loaded': True, 'loadedTime': 3002.1999999284744, 'positionName': 'RIGHT', 'positionCoords': [2662.4, 515], 'bid': 1.55}]",190974.10000002384,1669829437892,omelette,blackbeanswithrice,3.64,1.55,-2.09,omelette,918.3999999761581,919,918.5999999046326,True,u,192404.69999992847,1430.5999999046326,1669829439323,1431,HRV,HRV_0040,2022-11-30 17:32:43
106,"[{'imgObject': {}, 'id': 'burger', 'src': '/static/foodstim60/burger.jpg', 'key': 'u', 'origWidth': 409, 'origHeight': 409, 'width': 409, 'height': 409, 'widthPercent': 0.45, 'rescaleHeight': False, 'trialN': 106, 'loaded': True, 'loadedTime': 3149.5, 'positionName': 'LEFT', 'positionCoords': [2048.6, 515.5], 'bid': 5.82}, {'imgObject': {}, 'id': 'veggieswithdip', 'src': '/static/foodstim60/veggieswithdip.jpg', 'key': 'i', 'origWidth': 409, 'origHeight': 409, 'width': 409, 'height': 409, 'widthPercent': 0.45, 'rescaleHeight': False, 'trialN': 106, 'loaded': True, 'loadedTime': 3417.5, 'positionName': 'RIGHT', 'positionCoords': [2662.4, 515.5], 'bid': 5.63}]",192404.89999997616,1669829439323,burger,veggieswithdip,5.82,5.63,-0.1900000000000004,burger,1858.5,1859,1858.7999999523163,True,u,194771.5,2366.600000023842,1669829441689,2366,HRV,HRV_0040,2022-11-30 17:32:43
107,"[{'imgObject': {}, 'id': 'Tribe humus pita', 'src': '/static/foodstim60/Tribe humus pita.jpg', 'key': 'u', 'origWidth': 411, 'origHeight': 411, 'width': 411, 'height': 411, 'widthPercent': 0.45, 'rescaleHeight': False, 'trialN': 107, 'loaded': True, 'loadedTime': 2677.2999999523163, 'positionName': 'LEFT', 'positionCoords': [2046.6, 514.5], 'bid': 5.8}, {'imgObject': {}, 'id': 'cheerios', 'src': '/static/foodstim60/cheerios.jpg', 'key': 'i', 'origWidth': 409, 'origHeight': 410, 'width': 409, 'height': 410, 'widthPercent': 0.45, 'rescaleHeight': False, 'trialN': 107, 'loaded': True, 'loadedTime': 3069.5, 'positionName': 'RIGHT', 'positionCoords': [2662.4, 515], 'bid': 2}]",194771.60000002384,1669829441690,Tribe humus pita,cheerios,5.8,2.0,-3.8,Tribe humus pita,1543.0,1543,1543.1999999284744,True,u,196825.0,2053.399999976158,1669829443743,2053,HRV,HRV_0040,2022-11-30 17:32:43
