success,trial_type,trial_index,time_elapsed,internal_node_id,Block,TrialNumber,TrialTime,trialTimeDiff,FPS_avg,FPS_med,FPS_mode,TrialDur,winResizeTime,rt,block,button_pressed,MotCoh,MotDir,ColCoh,Color,ChoiceKey,Choice,Accuracy,RT,nFrames,FPS,PPD,missTrial,missTrialMsg,onsetDelay,fullScreenExitTime,canvCenter,TrialType,Score,BlockTrial,stimulus,button_labels,exp,subjectId,date
True,fullscreen,0,2763,0.0-0.0,0.0,1.0,,,,,,,,,,,,,,,,,,,,,,,,,,,,,,,,HRV,HRV_0040,2022-11-30 18:01:34
,wl-check-fps,1,7760,0.0-1.0,0.0,2.0,"[3095.5, 3100.5, 3117.1, 3133.7, 3150.5, 3167.1, 3183.9, 3200.5, 3217.3, 3233.7, 3250.6, 3267.2, 3283.9, 3300.8, 3317.4, 3334.6, 3350.6, 3367.1, 3383.9, 3400.6, 3417.3, 3433.9, 3450.6, 3467.3, 3484, 3500.6, 3517.3, 3533.9, 3550.7, 3567.3, 3584.1, 3600.8, 3617.8, 3634.2, 3650.8, 3667.4, 3684.1, 3700.6, 3717.4, 3734, 3750.7, 3767.4, 3784.1, 3800.6, 3817.5, 3834, 3850.8, 3867.5, 3884.1, 3904.7, 3917.4, 3934.2, 3950.8, 3967.6, 3984.1, 4000.9, 4017.6, 4034.2, 4050.8, 4067.5, 4084.2, 4100.8, 4117.5, 4134.2, 4150.9, 4167.6, 4184.2, 4200.9, 4217.6, 4234.1, 4251, 4267.5, 4284.3, 4302.8, 4317.6, 4334.8, 4351, 4367.6, 4384.3, 4400.9, 4417.6, 4434.2, 4450.9, 4467.6, 4484.2, 4500.9, 4517.7, 4534.2, 4550.9, 4567.8, 4584.5, 4601, 4617.8, 4634.2, 4650.9, 4667.6, 4684.3, 4701, 4717.7, 4734.5, 4751.1, 4767.7, 4784.3, 4800.9, 4817.6, 4834.3, 4851, 4867.6, 4884.3, 4901.1, 4917.8, 4934.6, 4951.2, 4967.8, 4984.4, 5001.1, 5017.8, 5034.5, 5051.2, 5067.8, 5084.5, 5101.1, 5117.8, 5134.6, 5151.2, 5167.8, 5184.6, 5201.3, 5217.9, 5234.5, 5251.3, 5267.8, 5284.5, 5301.2, 5317.9, 5335, 5351.3, 5367.9, 5384.7, 5401.2, 5417.8, 5434.9, 5451.5, 5468, 5484.6, 5501.5, 5518.1, 5534.7, 5551.3, 5568, 5584.7, 5601.3, 5618.1, 5634.6, 5651.5, 5668.1, 5684.9, 5701.4, 5718.2, 5734.8, 5751.4, 5768.1, 5784.8, 5801.4, 5818.2, 5834.8, 5851.4, 5868.1, 5884.9, 5901.6, 5918.1, 5934.7, 5951.5, 5968, 5984.9, 6001.4, 6018.2, 6034.8, 6051.6, 6068.1, 6084.9, 6101.3, 6118.1, 6134.8, 6151.5, 6168.1, 6184.9, 6201.6, 6218.3, 6234.9, 6251.6, 6268.2, 6284.9, 6301.5, 6318.1, 6335, 6351.5, 6368.2, 6385, 6401.6, 6418.3, 6434.9, 6451.5, 6468.1, 6484.9, 6501.5, 6518.2, 6534.8, 6551.6, 6568.3, 6585.1, 6601.8, 6618.4, 6635, 6651.7, 6668.4, 6684.9, 6701.6, 6718.3, 6734.9, 6751.5, 6768.3, 6785, 6801.7, 6818.4, 6835, 6851.7, 6868.4, 6885, 6901.7, 6918.5, 6935.1, 6951.7, 6968.5, 6985.1, 7003.6, 7018.4, 7035, 7051.8, 7068.4, 7085.1, 7101.7, 7118.4, 7135.1, 7151.8, 7168.4, 7185.1, 7201.8, 7218.5, 7235.1, 7251.8, 7268.5, 7285.1, 7301.8, 7318.5, 7335.2, 7351.8, 7368.5, 7385.2, 7401.9, 7418.6, 7435.2, 7451.9, 7468.5, 7485.2, 7501.9, 7518.6, 7535.2, 7551.9, 7568.6, 7585.3, 7601.9, 7618.7, 7635.3, 7651.9, 7668.6, 7685.3, 7702, 7718.6, 7735.3, 7752, 7768.6, 7785.3, 7802, 7818.7, 7835.3, 7852, 7868.7, 7885.4, 7902, 7918.8, 7935.3, 7952.3, 7968.9, 7985.5, 8002.1, 8018.7, 8039.5, 8052.1, 8068.8]","[5.7, 5, 16.6, 16.6, 16.8, 16.6, 16.8, 16.6, 16.8, 16.4, 16.9, 16.6, 16.7, 16.9, 16.6, 17.2, 16, 16.5, 16.8, 16.7, 16.7, 16.6, 16.7, 16.7, 16.7, 16.6, 16.7, 16.6, 16.8, 16.6, 16.8, 16.7, 17, 16.4, 16.6, 16.6, 16.7, 16.5, 16.8, 16.6, 16.7, 16.7, 16.7, 16.5, 16.9, 16.5, 16.8, 16.7, 16.6, 20.6, 12.7, 16.8, 16.6, 16.8, 16.5, 16.8, 16.7, 16.6, 16.6, 16.7, 16.7, 16.6, 16.7, 16.7, 16.7, 16.7, 16.6, 16.7, 16.7, 16.5, 16.9, 16.5, 16.8, 18.5, 14.8, 17.2, 16.2, 16.6, 16.7, 16.6, 16.7, 16.6, 16.7, 16.7, 16.6, 16.7, 16.8, 16.5, 16.7, 16.9, 16.7, 16.5, 16.8, 16.4, 16.7, 16.7, 16.7, 16.7, 16.7, 16.8, 16.6, 16.6, 16.6, 16.6, 16.7, 16.7, 16.7, 16.6, 16.7, 16.8, 16.7, 16.8, 16.6, 16.6, 16.6, 16.7, 16.7, 16.7, 16.7, 16.6, 16.7, 16.6, 16.7, 16.8, 16.6, 16.6, 16.8, 16.7, 16.6, 16.6, 16.8, 16.5, 16.7, 16.7, 16.7, 17.1, 16.3, 16.6, 16.8, 16.5, 16.6, 17.1, 16.6, 16.5, 16.6, 16.9, 16.6, 16.6, 16.6, 16.7, 16.7, 16.6, 16.8, 16.5, 16.9, 16.6, 16.8, 16.5, 16.8, 16.6, 16.6, 16.7, 16.7, 16.6, 16.8, 16.6, 16.6, 16.7, 16.8, 16.7, 16.5, 16.6, 16.8, 16.5, 16.9, 16.5, 16.8, 16.6, 16.8, 16.5, 16.8, 16.4, 16.8, 16.7, 16.7, 16.6, 16.8, 16.7, 16.7, 16.6, 16.7, 16.6, 16.7, 16.6, 16.6, 16.9, 16.5, 16.7, 16.8, 16.6, 16.7, 16.6, 16.6, 16.6, 16.8, 16.6, 16.7, 16.6, 16.8, 16.7, 16.8, 16.7, 16.6, 16.6, 16.7, 16.7, 16.5, 16.7, 16.7, 16.6, 16.6, 16.8, 16.7, 16.7, 16.7, 16.6, 16.7, 16.7, 16.6, 16.7, 16.8, 16.6, 16.6, 16.8, 16.6, 18.5, 14.8, 16.6, 16.8, 16.6, 16.7, 16.6, 16.7, 16.7, 16.7, 16.6, 16.7, 16.7, 16.7, 16.6, 16.7, 16.7, 16.6, 16.7, 16.7, 16.7, 16.6, 16.7, 16.7, 16.7, 16.7, 16.6, 16.7, 16.6, 16.7, 16.7, 16.7, 16.6, 16.7, 16.7, 16.7, 16.6, 16.8, 16.6, 16.6, 16.7, 16.7, 16.7, 16.6, 16.7, 16.7, 16.6, 16.7, 16.7, 16.7, 16.6, 16.7, 16.7, 16.7, 16.6, 16.8, 16.5, 17, 16.6, 16.6, 16.6, 16.6, 20.8, 12.6, 16.7]",60.0,60.0,60.0,4995.6,[],,,,,,,,,,,,,,,,,,,,,,,,,HRV,HRV_0040,2022-11-30 18:01:34
,wl-html-keyboard-response,2,27940,0.0-2.0-0.0,0.0,3.0,,,,,,,,18169.600000023842,0.0,0,,,,,,,,,,,,,,,,,,,,,,HRV,HRV_0040,2022-11-30 18:01:34
,wl-rdm,3,35086,0.0-3.0-0.0,0.0,4.0,,,,,,,[],,,,0.0,0.0,87.9,0.0,u,0.0,True,1592.6999999284744,95.0,60.0,40.0,False,,3000.0,[],"[2560, 720]",ColorTask_Demo,,,,,HRV,HRV_0040,2022-11-30 18:01:34
,wl-rdm,4,39954,0.0-3.0-1.0,0.0,5.0,,,,,,,[],,,,0.0,0.0,87.9,1.0,i,1.0,True,807.3999999761581,49.0,60.0,40.0,False,,2000.0,[],"[2560, 720]",ColorTask_Demo,,,,,HRV,HRV_0040,2022-11-30 18:01:34
,wl-html-keyboard-response,5,46147,0.0-3.0-2.0,0.0,6.0,,,,,,,,4184.899999976158,0.0,1,,,,,,,,,,,,,,,,,,,,,,HRV,HRV_0040,2022-11-30 18:01:34
,wl-html-keyboard-response,6,71707,0.0-4.0-0.0,0.0,7.0,,,,,,,,23555.200000047684,0.0,0,,,,,,,,,,,,,,,,,,,,,,HRV,HRV_0040,2022-11-30 18:01:34
,wl-html-keyboard-response,7,83091,0.0-5.0-0.0,0.0,8.0,,,,,,,,9377.600000023842,0.0,0,,,,,,,,,,,,,,,,,,,,,,HRV,HRV_0040,2022-11-30 18:01:34
,wl-rdm,8,85470,0.0-6.0-0.0,0.0,9.0,,,,,,,[],,,,,,87.9,1.0,i,1.0,True,956.2999999523163,58.0,60.0,40.0,False,,355.9874694426818,[],"[2560, 720]",ColorTask,1.0,1.0,,,HRV,HRV_0040,2022-11-30 18:01:34
,wl-rdm,9,87837,0.0-6.1-0.1,0.0,10.0,,,,,,,[],,,,,,53.2,0.0,u,0.0,True,1015.5999999046326,61.0,60.0,40.0,False,,295.54066386042257,[],"[2560, 720]",ColorTask,2.0,2.0,,,HRV,HRV_0040,2022-11-30 18:01:34
,wl-rdm,10,90071,0.0-6.2-0.2,0.0,11.0,,,,,,,[],,,,,,50.0,1.0,u,0.0,False,943.1000000238419,57.0,60.0,40.0,False,,223.91031792873588,[],"[2560, 720]",ColorTask,1.0,3.0,,,HRV,HRV_0040,2022-11-30 18:01:34
,wl-rdm,11,92106,0.0-6.3-0.3,0.0,12.0,,,,,,,[],,,,,,73.6,0.0,i,1.0,False,620.3999999761581,38.0,60.0,40.0,False,,347.093057680529,[],"[2560, 720]",ColorTask,0.0,4.0,,,HRV,HRV_0040,2022-11-30 18:01:34
,wl-rdm,12,95307,0.0-6.4-0.4,0.0,13.0,,,,,,,[],,,,,,50.0,0.0,i,1.0,False,1898.1000000238419,114.0,60.0,40.0,False,,234.26316511186224,[],"[2560, 720]",ColorTask,-1.0,5.0,,,HRV,HRV_0040,2022-11-30 18:01:34
,wl-rdm,13,97824,0.0-6.5-0.5,0.0,14.0,,,,,,,[],,,,,,53.2,1.0,i,1.0,True,1118.6999999284744,68.0,60.0,40.0,False,,316.708322924141,[],"[2560, 720]",ColorTask,0.0,6.0,,,HRV,HRV_0040,2022-11-30 18:01:34
,wl-rdm,14,100242,0.0-6.6-0.6,0.0,15.0,,,,,,,[],,,,,,62.5,0.0,u,0.0,True,1096.8999999761581,66.0,60.0,40.0,False,,253.86773901064632,[],"[2560, 720]",ColorTask,1.0,7.0,,,HRV,HRV_0040,2022-11-30 18:01:34
,wl-rdm,15,102226,0.0-6.7-0.7,0.0,16.0,,,,,,,[],,,,,,87.9,1.0,i,1.0,True,594.8999999761581,36.0,60.0,40.0,False,,328.3762731816699,[],"[2560, 720]",ColorTask,2.0,8.0,,,HRV,HRV_0040,2022-11-30 18:01:34
,wl-rdm,16,104460,0.0-6.8-0.8,0.0,17.0,,,,,,,[],,,,,,53.2,1.0,i,1.0,True,946.6999999284744,57.0,60.0,40.0,False,,228.68701044200452,[],"[2560, 720]",ColorTask,3.0,9.0,,,HRV,HRV_0040,2022-11-30 18:01:34
,wl-rdm,17,106461,0.0-6.9-0.9,0.0,18.0,,,,,,,[],,,,,,87.9,1.0,i,1.0,True,576.0999999046326,35.0,60.0,40.0,False,,350.9281783084457,[],"[2560, 720]",ColorTask,4.0,10.0,,,HRV,HRV_0040,2022-11-30 18:01:34
,wl-rdm,18,108595,0.0-6.10-0.10,0.0,19.0,,,,,,,[],,,,,,56.4,0.0,u,0.0,True,799.7999999523163,48.0,60.0,40.0,False,,278.4457601185069,[],"[2560, 720]",ColorTask,5.0,11.0,,,HRV,HRV_0040,2022-11-30 18:01:34
,wl-rdm,19,110462,0.0-6.11-0.11,0.0,20.0,,,,,,,[],,,,,,87.9,1.0,i,1.0,True,558.1000000238419,34.0,60.0,40.0,False,,238.38662268533278,[],"[2560, 720]",ColorTask,6.0,12.0,,,HRV,HRV_0040,2022-11-30 18:01:34
,wl-rdm,20,112546,0.0-6.12-0.12,0.0,21.0,,,,,,,[],,,,,,73.6,1.0,i,1.0,True,766.3999999761581,46.0,60.0,40.0,False,,256.83491843575996,[],"[2560, 720]",ColorTask,7.0,13.0,,,HRV,HRV_0040,2022-11-30 18:01:34
,wl-rdm,21,114430,0.0-6.13-0.13,0.0,22.0,,,,,,,[],,,,,,87.9,1.0,i,1.0,True,436.2999999523163,27.0,60.0,40.0,False,,373.2729372338107,[],"[2560, 720]",ColorTask,8.0,14.0,,,HRV,HRV_0040,2022-11-30 18:01:34
,wl-rdm,22,116747,0.0-6.14-0.14,0.0,23.0,,,,,,,[],,,,,,56.4,0.0,u,0.0,True,874.3999999761581,53.0,60.0,40.0,False,,370.69433500212415,[],"[2560, 720]",ColorTask,9.0,15.0,,,HRV,HRV_0040,2022-11-30 18:01:34
,wl-rdm,23,119181,0.0-6.15-0.15,0.0,24.0,,,,,,,[],,,,,,50.0,1.0,i,1.0,True,1126.0999999046326,68.0,60.0,40.0,False,,236.86646901221997,[],"[2560, 720]",ColorTask,10.0,16.0,,,HRV,HRV_0040,2022-11-30 18:01:34
,wl-rdm,24,121732,0.0-6.16-0.16,0.0,25.0,,,,,,,[],,,,,,62.5,0.0,u,0.0,True,1095.6999999284744,66.0,60.0,40.0,False,,376.79684581277695,[],"[2560, 720]",ColorTask,11.0,17.0,,,HRV,HRV_0040,2022-11-30 18:01:34
,wl-rdm,25,124183,0.0-6.17-0.17,0.0,26.0,,,,,,,[],,,,,,56.4,0.0,u,0.0,True,1113.0,67.0,60.0,40.0,False,,250.79833201381254,[],"[2560, 720]",ColorTask,12.0,18.0,,,HRV,HRV_0040,2022-11-30 18:01:34
,wl-rdm,26,126551,0.0-6.18-0.18,0.0,27.0,,,,,,,[],,,,,,53.2,1.0,i,1.0,True,938.2999999523163,57.0,60.0,40.0,False,,360.112683048447,[],"[2560, 720]",ColorTask,13.0,19.0,,,HRV,HRV_0040,2022-11-30 18:01:34
,wl-rdm,27,128318,0.0-6.19-0.19,0.0,28.0,,,,,,,[],,,,,,73.6,1.0,i,1.0,True,420.5,26.0,60.0,40.0,False,,267.4455413204607,[],"[2560, 720]",ColorTask,14.0,20.0,,,HRV,HRV_0040,2022-11-30 18:01:34
,wl-rdm,28,130252,0.0-6.20-0.20,0.0,29.0,,,,,,,[],,,,,,73.6,0.0,u,0.0,True,663.0,40.0,60.0,40.0,False,,206.65508516651445,[],"[2560, 720]",ColorTask,15.0,21.0,,,HRV,HRV_0040,2022-11-30 18:01:34
,wl-rdm,29,132636,0.0-6.21-0.21,0.0,30.0,,,,,,,[],,,,,,87.9,0.0,u,0.0,True,995.1999999284744,60.0,60.0,40.0,False,,317.559537781472,[],"[2560, 720]",ColorTask,16.0,22.0,,,HRV,HRV_0040,2022-11-30 18:01:34
,wl-rdm,30,134720,0.0-6.22-0.22,0.0,31.0,,,,,,,[],,,,,,53.2,0.0,i,1.0,False,702.8999999761581,43.0,60.0,40.0,False,,316.38473915304553,[],"[2560, 720]",ColorTask,15.0,23.0,,,HRV,HRV_0040,2022-11-30 18:01:34
,wl-rdm,31,136904,0.0-6.23-0.23,0.0,32.0,,,,,,,[],,,,,,50.0,0.0,i,1.0,False,891.0,54.0,60.0,40.0,False,,229.91347692827662,[],"[2560, 720]",ColorTask,14.0,24.0,,,HRV,HRV_0040,2022-11-30 18:01:34
,wl-rdm,32,139772,0.0-6.24-0.24,0.0,33.0,,,,,,,[],,,,,,56.4,1.0,i,1.0,True,1551.5,94.0,60.0,40.0,False,,233.5375513902789,[],"[2560, 720]",ColorTask,15.0,25.0,,,HRV,HRV_0040,2022-11-30 18:01:34
,wl-rdm,33,141706,0.0-6.25-0.25,0.0,34.0,,,,,,,[],,,,,,87.9,1.0,i,1.0,True,548.3999999761581,33.0,60.0,40.0,False,,323.22153991397386,[],"[2560, 720]",ColorTask,16.0,26.0,,,HRV,HRV_0040,2022-11-30 18:01:34
,wl-rdm,34,143756,0.0-6.26-0.26,0.0,35.0,,,,,,,[],,,,,,62.5,1.0,i,1.0,True,738.5999999046326,45.0,60.0,40.0,False,,244.0087158422293,[],"[2560, 720]",ColorTask,17.0,27.0,,,HRV,HRV_0040,2022-11-30 18:01:34
,wl-rdm,35,145741,0.0-6.27-0.27,0.0,36.0,,,,,,,[],,,,,,73.6,0.0,u,0.0,True,671.7000000476837,41.0,60.0,40.0,False,,232.32449545616302,[],"[2560, 720]",ColorTask,18.0,28.0,,,HRV,HRV_0040,2022-11-30 18:01:34
,wl-rdm,36,148341,0.0-6.28-0.28,0.0,37.0,,,,,,,[],,,,,,56.4,0.0,i,1.0,False,1233.1999999284744,74.0,60.0,40.0,False,,300.16548835988044,[],"[2560, 720]",ColorTask,17.0,29.0,,,HRV,HRV_0040,2022-11-30 18:01:34
,wl-rdm,37,150859,0.0-6.29-0.29,0.0,38.0,,,,,,,[],,,,,,50.0,0.0,i,1.0,False,1247.2999999523163,75.0,60.0,40.0,False,,209.57138441916447,[],"[2560, 720]",ColorTask,16.0,30.0,,,HRV,HRV_0040,2022-11-30 18:01:34
,wl-rdm,38,153210,0.0-6.30-0.30,0.0,39.0,,,,,,,[],,,,,,53.2,1.0,i,1.0,True,1025.8999999761581,62.0,60.0,40.0,False,,260.4670452148644,[],"[2560, 720]",ColorTask,17.0,31.0,,,HRV,HRV_0040,2022-11-30 18:01:34
,wl-rdm,39,155344,0.0-6.31-0.31,0.0,40.0,,,,,,,[],,,,,,87.9,0.0,u,0.0,True,864.0,52.0,60.0,40.0,False,,213.69468000086485,[],"[2560, 720]",ColorTask,18.0,32.0,,,HRV,HRV_0040,2022-11-30 18:01:34
,wl-rdm,40,157678,0.0-6.32-0.32,0.0,41.0,,,,,,,[],,,,,,50.0,1.0,i,1.0,True,1043.3999999761581,63.0,60.0,40.0,False,,226.21790467697053,[],"[2560, 720]",ColorTask,19.0,33.0,,,HRV,HRV_0040,2022-11-30 18:01:34
,wl-rdm,41,160246,0.0-6.33-0.33,0.0,42.0,,,,,,,[],,,,,,73.6,0.0,u,0.0,True,1189.7999999523163,72.0,60.0,40.0,False,,310.9070925736277,[],"[2560, 720]",ColorTask,20.0,34.0,,,HRV,HRV_0040,2022-11-30 18:01:34
,wl-rdm,42,162513,0.0-6.34-0.34,0.0,43.0,,,,,,,[],,,,,,56.4,0.0,i,1.0,False,918.6000000238419,56.0,60.0,40.0,False,,280.7457717654061,[],"[2560, 720]",ColorTask,19.0,35.0,,,HRV,HRV_0040,2022-11-30 18:01:34
,wl-rdm,43,164564,0.0-6.35-0.35,0.0,44.0,,,,,,,[],,,,,,87.9,0.0,u,0.0,True,668.6999999284744,41.0,60.0,40.0,False,,313.60986049428806,[],"[2560, 720]",ColorTask,20.0,36.0,,,HRV,HRV_0040,2022-11-30 18:01:34
,wl-rdm,44,166781,0.0-6.36-0.36,0.0,45.0,,,,,,,[],,,,,,62.5,0.0,u,0.0,True,939.0,56.0,60.0,40.0,False,,208.11483199415272,[],"[2560, 720]",ColorTask,21.0,37.0,,,HRV,HRV_0040,2022-11-30 18:01:34
,wl-rdm,45,169015,0.0-6.37-0.37,0.0,46.0,,,,,,,[],,,,,,56.4,0.0,i,1.0,False,956.7999999523163,58.0,60.0,40.0,False,,203.50976835279818,[],"[2560, 720]",ColorTask,20.0,38.0,,,HRV,HRV_0040,2022-11-30 18:01:34
,wl-rdm,46,171149,0.0-6.38-0.38,0.0,47.0,,,,,,,[],,,,,,50.0,1.0,i,1.0,True,800.0,48.0,60.0,40.0,False,,280.940598055636,[],"[2560, 720]",ColorTask,21.0,39.0,,,HRV,HRV_0040,2022-11-30 18:01:34
,wl-rdm,47,173167,0.0-6.39-0.39,0.0,48.0,,,,,,,[],,,,,,56.4,0.0,i,1.0,False,692.3999999761581,42.0,60.0,40.0,False,,263.7925358699098,[],"[2560, 720]",ColorTask,20.0,40.0,,,HRV,HRV_0040,2022-11-30 18:01:34
,wl-rdm,48,175284,0.0-6.40-0.40,0.0,49.0,,,,,,,[],,,,,,87.9,0.0,u,0.0,True,769.3999999761581,47.0,60.0,40.0,False,,270.4824790317175,[],"[2560, 720]",ColorTask,21.0,41.0,,,HRV,HRV_0040,2022-11-30 18:01:34
,wl-rdm,49,177251,0.0-6.41-0.41,0.0,50.0,,,,,,,[],,,,,,87.9,1.0,i,1.0,True,640.5999999046326,39.0,60.0,40.0,False,,255.75390983654682,[],"[2560, 720]",ColorTask,22.0,42.0,,,HRV,HRV_0040,2022-11-30 18:01:34
,wl-rdm,50,179386,0.0-6.42-0.42,0.0,51.0,,,,,,,[],,,,,,53.2,0.0,u,0.0,True,794.1000000238419,48.0,60.0,40.0,False,,283.29536023006517,[],"[2560, 720]",ColorTask,23.0,43.0,,,HRV,HRV_0040,2022-11-30 18:01:34
,wl-rdm,51,181820,0.0-6.43-0.43,0.0,52.0,,,,,,,[],,,,,,56.4,1.0,u,0.0,False,1118.1000000238419,68.0,60.0,40.0,False,,240.70161820205257,[],"[2560, 720]",ColorTask,22.0,44.0,,,HRV,HRV_0040,2022-11-30 18:01:34
,wl-rdm,52,184054,0.0-6.44-0.44,0.0,53.0,,,,,,,[],,,,,,73.6,0.0,i,1.0,False,883.3999999761581,53.0,60.0,40.0,False,,278.1062805197961,[],"[2560, 720]",ColorTask,21.0,45.0,,,HRV,HRV_0040,2022-11-30 18:01:34
,wl-rdm,53,186238,0.0-6.45-0.45,0.0,54.0,,,,,,,[],,,,,,62.5,0.0,i,1.0,False,728.6999999284744,44.0,60.0,40.0,False,,385.8301637721779,[],"[2560, 720]",ColorTask,20.0,46.0,,,HRV,HRV_0040,2022-11-30 18:01:34
,wl-rdm,54,188589,0.0-6.46-0.46,0.0,55.0,,,,,,,[],,,,,,62.5,1.0,i,1.0,True,1061.2999999523163,64.0,60.0,40.0,False,,224.65814153775818,[],"[2560, 720]",ColorTask,21.0,47.0,,,HRV,HRV_0040,2022-11-30 18:01:34
,wl-rdm,55,191206,0.0-6.47-0.47,0.0,56.0,,,,,,,[],,,,,,56.4,1.0,i,1.0,True,1277.7000000476837,77.0,60.0,40.0,False,,272.5835523488853,[],"[2560, 720]",ColorTask,22.0,48.0,,,HRV,HRV_0040,2022-11-30 18:01:34
,wl-rdm,56,193274,0.0-6.48-0.48,0.0,57.0,,,,,,,[],,,,,,53.2,1.0,i,1.0,True,667.1000000238419,40.0,60.0,40.0,False,,317.96012937766056,[],"[2560, 720]",ColorTask,23.0,49.0,,,HRV,HRV_0040,2022-11-30 18:01:34
,wl-rdm,57,195925,0.0-6.49-0.49,0.0,58.0,,,,,,,[],,,,,,50.0,0.0,u,0.0,True,1332.0999999046326,80.0,60.0,40.0,False,,250.33124177507116,[],"[2560, 720]",ColorTask,24.0,50.0,,,HRV,HRV_0040,2022-11-30 18:01:34
,wl-rdm,58,198025,0.0-6.50-0.50,0.0,59.0,,,,,,,[],,,,,,73.6,1.0,i,1.0,True,730.2999999523163,44.0,60.0,40.0,False,,308.3298513506443,[],"[2560, 720]",ColorTask,25.0,51.0,,,HRV,HRV_0040,2022-11-30 18:01:34
,wl-rdm,59,200476,0.0-6.51-0.51,0.0,60.0,,,,,,,[],,,,,,56.4,1.0,i,1.0,True,1116.6999999284744,67.0,60.0,40.0,False,,273.7045945262121,[],"[2560, 720]",ColorTask,26.0,52.0,,,HRV,HRV_0040,2022-11-30 18:01:34
,wl-rdm,60,203094,0.0-6.52-0.52,0.0,61.0,,,,,,,[],,,,,,56.4,1.0,i,1.0,True,1296.0,78.0,60.0,40.0,False,,250.46697729823458,[],"[2560, 720]",ColorTask,27.0,53.0,,,HRV,HRV_0040,2022-11-30 18:01:34
,wl-rdm,61,205795,0.0-6.53-0.53,0.0,62.0,,,,,,,[],,,,,,50.0,0.0,u,0.0,True,1403.6000000238419,85.0,60.0,40.0,False,,225.00014530793715,[],"[2560, 720]",ColorTask,28.0,54.0,,,HRV,HRV_0040,2022-11-30 18:01:34
,wl-rdm,62,208096,0.0-6.54-0.54,0.0,63.0,,,,,,,[],,,,,,50.0,0.0,i,1.0,False,986.7999999523163,60.0,60.0,40.0,False,,249.12082430892633,[],"[2560, 720]",ColorTask,27.0,55.0,,,HRV,HRV_0040,2022-11-30 18:01:34
,wl-rdm,63,209980,0.0-6.55-0.55,0.0,64.0,,,,,,,[],,,,,,73.6,1.0,i,1.0,True,592.6999999284744,36.0,60.0,40.0,False,,231.04864663288708,[],"[2560, 720]",ColorTask,28.0,56.0,,,HRV,HRV_0040,2022-11-30 18:01:34
,wl-rdm,64,212314,0.0-6.56-0.56,0.0,65.0,,,,,,,[],,,,,,62.5,1.0,i,1.0,True,995.6999999284744,60.0,60.0,40.0,False,,267.9000811263897,[],"[2560, 720]",ColorTask,29.0,57.0,,,HRV,HRV_0040,2022-11-30 18:01:34
,wl-rdm,65,214748,0.0-6.57-0.57,0.0,66.0,,,,,,,[],,,,,,53.2,0.0,u,0.0,True,1022.0,62.0,60.0,40.0,False,,344.7624822457407,[],"[2560, 720]",ColorTask,30.0,58.0,,,HRV,HRV_0040,2022-11-30 18:01:34
,wl-rdm,66,216682,0.0-6.58-0.58,0.0,67.0,,,,,,,[],,,,,,87.9,0.0,u,0.0,True,603.5999999046326,37.0,60.0,40.0,False,,240.16552074818816,[],"[2560, 720]",ColorTask,31.0,59.0,,,HRV,HRV_0040,2022-11-30 18:01:34
,wl-rdm,67,218749,0.0-6.59-0.59,0.0,68.0,,,,,,,[],,,,,,73.6,1.0,i,1.0,True,773.1999999284744,47.0,60.0,40.0,False,,204.2033729988667,[],"[2560, 720]",ColorTask,32.0,60.0,,,HRV,HRV_0040,2022-11-30 18:01:34
,wl-rdm,68,221050,0.0-6.60-0.60,0.0,69.0,,,,,,,[],,,,,,53.2,1.0,i,1.0,True,919.6999999284744,56.0,60.0,40.0,False,,311.48726115606723,[],"[2560, 720]",ColorTask,33.0,61.0,,,HRV,HRV_0040,2022-11-30 18:01:34
,wl-rdm,69,223651,0.0-6.61-0.61,0.0,70.0,,,,,,,[],,,,,,50.0,1.0,u,0.0,False,1312.3999999761581,79.0,60.0,40.0,False,,219.2862236992497,[],"[2560, 720]",ColorTask,32.0,62.0,,,HRV,HRV_0040,2022-11-30 18:01:34
,wl-rdm,70,225902,0.0-6.62-0.62,0.0,71.0,,,,,,,[],,,,,,73.6,0.0,u,0.0,True,947.8999999761581,57.0,60.0,40.0,False,,243.5056837738183,[],"[2560, 720]",ColorTask,33.0,63.0,,,HRV,HRV_0040,2022-11-30 18:01:34
,wl-rdm,71,228669,0.0-6.63-0.63,0.0,72.0,,,,,,,[],,,,,,53.2,0.0,i,1.0,False,1371.6000000238419,83.0,60.0,40.0,False,,319.72819558023315,[],"[2560, 720]",ColorTask,32.0,64.0,,,HRV,HRV_0040,2022-11-30 18:01:34
,wl-rdm,72,230687,0.0-6.64-0.64,0.0,73.0,,,,,,,[],,,,,,73.6,1.0,i,1.0,True,618.0,38.0,60.0,40.0,False,,320.68133160947747,[],"[2560, 720]",ColorTask,33.0,65.0,,,HRV,HRV_0040,2022-11-30 18:01:34
,wl-rdm,73,232954,0.0-6.65-0.65,0.0,74.0,,,,,,,[],,,,,,53.2,0.0,u,0.0,True,852.7999999523163,51.0,60.0,40.0,False,,339.38707607238723,[],"[2560, 720]",ColorTask,34.0,66.0,,,HRV,HRV_0040,2022-11-30 18:01:34
,wl-rdm,74,234871,0.0-6.66-0.66,0.0,75.0,,,,,,,[],,,,,,56.4,1.0,i,1.0,True,616.5,37.0,60.0,40.0,False,,235.98127391535158,[],"[2560, 720]",ColorTask,35.0,67.0,,,HRV,HRV_0040,2022-11-30 18:01:34
,wl-rdm,75,237189,0.0-6.67-0.67,0.0,76.0,,,,,,,[],,,,,,56.4,0.0,u,0.0,True,969.2000000476837,59.0,60.0,40.0,False,,270.55498697353966,[],"[2560, 720]",ColorTask,36.0,68.0,,,HRV,HRV_0040,2022-11-30 18:01:34
,wl-rdm,76,239523,0.0-6.68-0.68,0.0,77.0,,,,,,,[],,,,,,62.5,1.0,i,1.0,True,986.1999999284744,60.0,60.0,40.0,False,,267.83830614489517,[],"[2560, 720]",ColorTask,37.0,69.0,,,HRV,HRV_0040,2022-11-30 18:01:34
,wl-rdm,77,241357,0.0-6.69-0.69,0.0,78.0,,,,,,,[],,,,,,87.9,1.0,i,1.0,True,493.09999990463257,30.0,60.0,40.0,False,,282.62820111301085,[],"[2560, 720]",ColorTask,38.0,70.0,,,HRV,HRV_0040,2022-11-30 18:01:34
,wl-rdm,78,243758,0.0-6.70-0.70,0.0,79.0,,,,,,,[],,,,,,50.0,0.0,i,1.0,False,942.1999999284744,57.0,60.0,40.0,False,,399.4840192948244,[],"[2560, 720]",ColorTask,37.0,71.0,,,HRV,HRV_0040,2022-11-30 18:01:34
,wl-rdm,79,245692,0.0-6.71-0.71,0.0,80.0,,,,,,,[],,,,,,73.6,1.0,i,1.0,True,628.5999999046326,38.0,60.0,40.0,False,,238.3910565370265,[],"[2560, 720]",ColorTask,38.0,72.0,,,HRV,HRV_0040,2022-11-30 18:01:34
,wl-rdm,80,247843,0.0-6.72-0.72,0.0,81.0,,,,,,,[],,,,,,62.5,0.0,u,0.0,True,807.6000000238419,49.0,60.0,40.0,False,,280.89095675565574,[],"[2560, 720]",ColorTask,39.0,73.0,,,HRV,HRV_0040,2022-11-30 18:01:34
,wl-rdm,81,249910,0.0-6.73-0.73,0.0,82.0,,,,,,,[],,,,,,73.6,1.0,i,1.0,True,608.8999999761581,37.0,60.0,40.0,False,,393.76309242899686,[],"[2560, 720]",ColorTask,40.0,74.0,,,HRV,HRV_0040,2022-11-30 18:01:34
,wl-rdm,82,252278,0.0-6.74-0.74,0.0,83.0,,,,,,,[],,,,,,62.5,0.0,u,0.0,True,991.8999999761581,60.0,60.0,40.0,False,,303.625915053639,[],"[2560, 720]",ColorTask,41.0,75.0,,,HRV,HRV_0040,2022-11-30 18:01:34
,wl-rdm,83,254529,0.0-6.75-0.75,0.0,84.0,,,,,,,[],,,,,,62.5,1.0,i,1.0,True,811.7999999523163,49.0,60.0,40.0,False,,374.76307680263164,[],"[2560, 720]",ColorTask,42.0,76.0,,,HRV,HRV_0040,2022-11-30 18:01:34
,wl-rdm,84,256713,0.0-6.76-0.76,0.0,85.0,,,,,,,[],,,,,,50.0,1.0,i,1.0,True,893.0,54.0,60.0,40.0,False,,232.32518741677546,[],"[2560, 720]",ColorTask,43.0,77.0,,,HRV,HRV_0040,2022-11-30 18:01:34
,wl-rdm,85,258980,0.0-6.77-0.77,0.0,86.0,,,,,,,[],,,,,,53.2,0.0,i,1.0,False,908.3999998569489,55.0,60.0,40.0,False,,286.10032835708216,[],"[2560, 720]",ColorTask,42.0,78.0,,,HRV,HRV_0040,2022-11-30 18:01:34
,wl-rdm,86,262115,0.0-6.78-0.78,0.0,87.0,,,,,,,[],,,,,,56.4,1.0,u,0.0,False,1787.6000000238419,108.0,60.0,40.0,False,,275.5042689351806,[],"[2560, 720]",ColorTask,41.0,79.0,,,HRV,HRV_0040,2022-11-30 18:01:34
,wl-rdm,87,264799,0.0-6.79-0.79,0.0,88.0,,,,,,,[],,,,,,56.4,1.0,i,1.0,True,1333.3999999761581,80.0,60.0,40.0,False,,289.52621449205907,[],"[2560, 720]",ColorTask,42.0,80.0,,,HRV,HRV_0040,2022-11-30 18:01:34
,wl-rdm,88,267350,0.0-6.80-0.80,0.0,89.0,,,,,,,[],,,,,,53.2,1.0,u,0.0,False,1220.6000000238419,74.0,60.0,40.0,False,,257.463442418172,[],"[2560, 720]",ColorTask,41.0,81.0,,,HRV,HRV_0040,2022-11-30 18:01:34
,wl-rdm,89,269684,0.0-6.81-0.81,0.0,90.0,,,,,,,[],,,,,,73.6,0.0,u,0.0,True,934.3999999761581,57.0,60.0,40.0,False,,329.3601146625285,[],"[2560, 720]",ColorTask,42.0,82.0,,,HRV,HRV_0040,2022-11-30 18:01:34
,wl-rdm,90,271635,0.0-6.82-0.82,0.0,91.0,,,,,,,[],,,,,,62.5,1.0,i,1.0,True,672.5,41.0,60.0,40.0,False,,211.19923073337333,[],"[2560, 720]",ColorTask,43.0,83.0,,,HRV,HRV_0040,2022-11-30 18:01:34
,wl-rdm,91,273952,0.0-6.83-0.83,0.0,92.0,,,,,,,[],,,,,,53.2,1.0,i,1.0,True,918.2000000476837,56.0,60.0,40.0,False,,319.62981049176506,[],"[2560, 720]",ColorTask,44.0,84.0,,,HRV,HRV_0040,2022-11-30 18:01:34
,wl-rdm,92,276136,0.0-6.84-0.84,0.0,93.0,,,,,,,[],,,,,,50.0,1.0,i,1.0,True,884.6999999284744,54.0,60.0,40.0,False,,222.85115094325843,[],"[2560, 720]",ColorTask,45.0,85.0,,,HRV,HRV_0040,2022-11-30 18:01:34
,wl-rdm,93,278220,0.0-6.85-0.85,0.0,94.0,,,,,,,[],,,,,,50.0,0.0,i,1.0,False,725.8000000715256,44.0,60.0,40.0,False,,275.338714947885,[],"[2560, 720]",ColorTask,44.0,86.0,,,HRV,HRV_0040,2022-11-30 18:01:34
,wl-rdm,94,280321,0.0-6.86-0.86,0.0,95.0,,,,,,,[],,,,,,73.6,1.0,i,1.0,True,651.7000000476837,40.0,60.0,40.0,False,,375.2663418238135,[],"[2560, 720]",ColorTask,45.0,87.0,,,HRV,HRV_0040,2022-11-30 18:01:34
,wl-rdm,95,282188,0.0-6.87-0.87,0.0,96.0,,,,,,,[],,,,,,87.9,0.0,u,0.0,True,586.5,36.0,60.0,40.0,False,,205.52525997505683,[],"[2560, 720]",ColorTask,46.0,88.0,,,HRV,HRV_0040,2022-11-30 18:01:34
,wl-rdm,96,284206,0.0-6.88-0.88,0.0,97.0,,,,,,,[],,,,,,53.2,0.0,i,1.0,False,593.0,36.0,60.0,40.0,False,,360.9928378478875,[],"[2560, 720]",ColorTask,45.0,89.0,,,HRV,HRV_0040,2022-11-30 18:01:34
,wl-rdm,97,286106,0.0-6.89-0.89,0.0,98.0,,,,,,,[],,,,,,56.4,1.0,i,1.0,True,560.0,34.0,60.0,40.0,False,,273.28055894211695,[],"[2560, 720]",ColorTask,46.0,90.0,,,HRV,HRV_0040,2022-11-30 18:01:34
,wl-rdm,98,288240,0.0-6.90-0.90,0.0,99.0,,,,,,,[],,,,,,73.6,0.0,u,0.0,True,798.3999999761581,48.0,60.0,40.0,False,,269.68061110016635,[],"[2560, 720]",ColorTask,47.0,91.0,,,HRV,HRV_0040,2022-11-30 18:01:34
,wl-rdm,99,290491,0.0-6.91-0.91,0.0,100.0,,,,,,,[],,,,,,56.4,0.0,i,1.0,False,842.6000000238419,51.0,60.0,40.0,False,,340.9174937241445,[],"[2560, 720]",ColorTask,46.0,92.0,,,HRV,HRV_0040,2022-11-30 18:01:34
,wl-rdm,100,292442,0.0-6.92-0.92,0.0,101.0,,,,,,,[],,,,,,62.5,0.0,u,0.0,True,525.3999999761581,32.0,60.0,40.0,False,,355.5019358103692,[],"[2560, 720]",ColorTask,47.0,93.0,,,HRV,HRV_0040,2022-11-30 18:01:34
,wl-rdm,101,294759,0.0-6.93-0.93,0.0,102.0,,,,,,,[],,,,,,53.2,0.0,i,1.0,False,942.5999999046326,57.0,60.0,40.0,False,,302.9414566671597,[],"[2560, 720]",ColorTask,46.0,94.0,,,HRV,HRV_0040,2022-11-30 18:01:34
,wl-rdm,102,296643,0.0-6.94-0.94,0.0,103.0,,,,,,,[],,,,,,87.9,0.0,u,0.0,True,515.0,31.0,60.0,40.0,False,,315.42971167428317,[],"[2560, 720]",ColorTask,47.0,95.0,,,HRV,HRV_0040,2022-11-30 18:01:34
,wl-rdm,103,298710,0.0-6.95-0.95,0.0,104.0,,,,,,,[],,,,,,50.0,1.0,u,0.0,False,728.1000000238419,44.0,60.0,40.0,False,,252.25193994029868,[],"[2560, 720]",ColorTask,46.0,96.0,,,HRV,HRV_0040,2022-11-30 18:01:34
,wl-rdm,104,300578,0.0-6.96-0.96,0.0,105.0,,,,,,,[],,,,,,62.5,1.0,i,1.0,True,583.2000000476837,35.0,60.0,40.0,False,,231.201980489614,[],"[2560, 720]",ColorTask,47.0,97.0,,,HRV,HRV_0040,2022-11-30 18:01:34
,wl-rdm,105,302662,0.0-6.97-0.97,0.0,106.0,,,,,,,[],,,,,,53.2,1.0,i,1.0,True,716.3999999761581,43.0,60.0,40.0,False,,306.43582335000843,[],"[2560, 720]",ColorTask,48.0,98.0,,,HRV,HRV_0040,2022-11-30 18:01:34
,wl-rdm,106,304579,0.0-6.98-0.98,0.0,107.0,,,,,,,[],,,,,,87.9,0.0,u,0.0,True,603.1000000238419,37.0,60.0,40.0,False,,244.90309144026918,[],"[2560, 720]",ColorTask,49.0,99.0,,,HRV,HRV_0040,2022-11-30 18:01:34
,wl-rdm,107,307330,0.0-6.99-0.99,0.0,108.0,,,,,,,[],,,,,,50.0,1.0,u,0.0,False,1442.799999833107,87.0,60.0,40.0,False,,247.33535517687778,[],"[2560, 720]",ColorTask,48.0,100.0,,,HRV,HRV_0040,2022-11-30 18:01:34
,wl-rdm,108,309314,0.0-6.100-0.100,0.0,109.0,,,,,,,[],,,,,,87.9,0.0,u,0.0,True,547.5,33.0,60.0,40.0,False,,382.79415794180454,[],"[2560, 720]",ColorTask,49.0,101.0,,,HRV,HRV_0040,2022-11-30 18:01:34
,wl-rdm,109,312248,0.0-6.101-0.101,0.0,110.0,,,,,,,[],,,,,,62.5,0.0,i,1.0,False,1571.8000000715256,95.0,60.0,40.0,False,,288.30594113763476,[],"[2560, 720]",ColorTask,48.0,102.0,,,HRV,HRV_0040,2022-11-30 18:01:34
,wl-rdm,110,314833,0.0-6.102-0.102,0.0,111.0,,,,,,,[],,,,,,50.0,0.0,i,1.0,False,1137.1000000238419,69.0,60.0,40.0,False,,376.70604852037695,[],"[2560, 720]",ColorTask,47.0,103.0,,,HRV,HRV_0040,2022-11-30 18:01:34
,wl-rdm,111,317483,0.0-6.103-0.103,0.0,112.0,,,,,,,[],,,,,,87.9,1.0,i,1.0,True,1369.5,83.0,60.0,40.0,False,,212.3001305782057,[],"[2560, 720]",ColorTask,48.0,104.0,,,HRV,HRV_0040,2022-11-30 18:01:34
,wl-rdm,112,319584,0.0-6.104-0.104,0.0,113.0,,,,,,,[],,,,,,62.5,1.0,u,0.0,False,681.7000000476837,41.0,60.0,40.0,False,,353.278613280262,[],"[2560, 720]",ColorTask,47.0,105.0,,,HRV,HRV_0040,2022-11-30 18:01:34
,wl-rdm,113,322402,0.0-6.105-0.105,0.0,114.0,,,,,,,[],,,,,,62.5,0.0,u,0.0,True,1399.1000000238419,84.0,60.0,40.0,False,,358.80387204268106,[],"[2560, 720]",ColorTask,48.0,106.0,,,HRV,HRV_0040,2022-11-30 18:01:34
,wl-rdm,114,324569,0.0-6.106-0.106,0.0,115.0,,,,,,,[],,,,,,62.5,1.0,i,1.0,True,897.3999999761581,54.0,60.0,40.0,False,,213.8301770320893,[],"[2560, 720]",ColorTask,49.0,107.0,,,HRV,HRV_0040,2022-11-30 18:01:34
,wl-rdm,115,326687,0.0-6.107-0.107,0.0,116.0,,,,,,,[],,,,,,73.6,0.0,u,0.0,True,789.7999999523163,48.0,60.0,40.0,False,,256.72594695184614,[],"[2560, 720]",ColorTask,50.0,108.0,,,HRV,HRV_0040,2022-11-30 18:01:34
,wl-html-keyboard-response,116,628140,0.0-7.0-0.0,1.0,117.0,,,,,,,,299449.0,1.0,0,,,,,,,,,,,,,,,,,,,,,,HRV,HRV_0040,2022-11-30 18:01:34
,wl-rdm,117,630342,0.0-8.0-0.0,1.0,118.0,,,,,,,[],,,,,,73.6,0.0,u,0.0,True,884.8999999761581,54.0,60.0,40.0,False,,237.4809059060652,[],"[2560, 720]",ColorTask,51.0,1.0,,,HRV,HRV_0040,2022-11-30 18:01:34
,wl-rdm,118,633026,0.0-8.1-0.1,1.0,119.0,,,,,,,[],,,,,,50.0,0.0,u,0.0,True,1292.7000000476837,78.0,60.0,40.0,False,,333.2327339265546,[],"[2560, 720]",ColorTask,52.0,2.0,,,HRV,HRV_0040,2022-11-30 18:01:34
,wl-rdm,119,635600,0.0-8.2-0.2,1.0,120.0,,,,,,,[],,,,,,53.2,0.0,i,1.0,False,1190.3000000715256,72.0,60.0,40.0,False,,303.74040271374713,[],"[2560, 720]",ColorTask,51.0,3.0,,,HRV,HRV_0040,2022-11-30 18:01:34
,wl-rdm,120,637511,0.0-8.3-0.3,1.0,121.0,,,,,,,[],,,,,,50.0,1.0,i,1.0,True,553.1999999284744,34.0,60.0,40.0,False,,285.7657982525908,[],"[2560, 720]",ColorTask,52.0,4.0,,,HRV,HRV_0040,2022-11-30 18:01:34
,wl-rdm,121,639862,0.0-8.4-0.4,1.0,122.0,,,,,,,[],,,,,,73.6,1.0,i,1.0,True,909.6000000238419,55.0,60.0,40.0,False,,368.743246413978,[],"[2560, 720]",ColorTask,53.0,5.0,,,HRV,HRV_0040,2022-11-30 18:01:34
,wl-rdm,122,641996,0.0-8.5-0.5,1.0,123.0,,,,,,,[],,,,,,62.5,1.0,i,1.0,True,732.0,44.0,60.0,40.0,False,,338.2262959969744,[],"[2560, 720]",ColorTask,54.0,6.0,,,HRV,HRV_0040,2022-11-30 18:01:34
,wl-rdm,123,643913,0.0-8.6-0.6,1.0,124.0,,,,,,,[],,,,,,87.9,1.0,i,1.0,True,488.10000002384186,30.0,60.0,40.0,False,,335.6514011856892,[],"[2560, 720]",ColorTask,55.0,7.0,,,HRV,HRV_0040,2022-11-30 18:01:34
,wl-rdm,124,646064,0.0-8.7-0.7,1.0,125.0,,,,,,,[],,,,,,62.5,1.0,i,1.0,True,715.5,43.0,60.0,40.0,False,,375.3464117368693,[],"[2560, 720]",ColorTask,56.0,8.0,,,HRV,HRV_0040,2022-11-30 18:01:34
,wl-rdm,125,648114,0.0-8.8-0.8,1.0,126.0,,,,,,,[],,,,,,87.9,0.0,u,0.0,True,701.6000000238419,43.0,60.0,40.0,False,,279.27844096126296,[],"[2560, 720]",ColorTask,57.0,9.0,,,HRV,HRV_0040,2022-11-30 18:01:34
,wl-rdm,126,650549,0.0-8.9-0.9,1.0,127.0,,,,,,,[],,,,,,73.6,0.0,u,0.0,True,1065.3999999761581,64.0,60.0,40.0,False,,289.1608463990917,[],"[2560, 720]",ColorTask,58.0,10.0,,,HRV,HRV_0040,2022-11-30 18:01:34
,wl-rdm,127,653433,0.0-8.10-0.10,1.0,128.0,,,,,,,[],,,,,,50.0,0.0,i,1.0,False,1475.1000000238419,89.0,60.0,40.0,False,,338.32708113719025,[],"[2560, 720]",ColorTask,57.0,11.0,,,HRV,HRV_0040,2022-11-30 18:01:34
,wl-rdm,128,655317,0.0-8.11-0.11,1.0,129.0,,,,,,,[],,,,,,87.9,1.0,i,1.0,True,562.2999999523163,34.0,60.0,40.0,False,,264.7233429514572,[],"[2560, 720]",ColorTask,58.0,12.0,,,HRV,HRV_0040,2022-11-30 18:01:34
,wl-rdm,129,657468,0.0-8.12-0.12,1.0,130.0,,,,,,,[],,,,,,62.5,0.0,u,0.0,True,815.6000000238419,49.0,60.0,40.0,False,,277.4346698428976,[],"[2560, 720]",ColorTask,59.0,13.0,,,HRV,HRV_0040,2022-11-30 18:01:34
,wl-rdm,130,659402,0.0-8.13-0.13,1.0,131.0,,,,,,,[],,,,,,62.5,1.0,i,1.0,True,630.3000000715256,38.0,60.0,40.0,False,,234.85613878439628,[],"[2560, 720]",ColorTask,60.0,14.0,,,HRV,HRV_0040,2022-11-30 18:01:34
,wl-rdm,131,661469,0.0-8.14-0.14,1.0,132.0,,,,,,,[],,,,,,87.9,1.0,i,1.0,True,795.3999999761581,47.0,60.0,40.0,False,,202.4736402572491,[],"[2560, 720]",ColorTask,61.0,15.0,,,HRV,HRV_0040,2022-11-30 18:01:34
,wl-rdm,132,663553,0.0-8.15-0.15,1.0,133.0,,,,,,,[],,,,,,73.6,1.0,i,1.0,True,616.7000000476837,37.0,60.0,40.0,False,,395.03724501771785,[],"[2560, 720]",ColorTask,62.0,16.0,,,HRV,HRV_0040,2022-11-30 18:01:34
,wl-rdm,133,665604,0.0-8.16-0.16,1.0,134.0,,,,,,,[],,,,,,62.5,1.0,i,1.0,True,661.0,40.0,60.0,40.0,False,,332.2330107586199,[],"[2560, 720]",ColorTask,63.0,17.0,,,HRV,HRV_0040,2022-11-30 18:01:34
,wl-rdm,134,667838,0.0-8.17-0.17,1.0,135.0,,,,,,,[],,,,,,56.4,0.0,u,0.0,True,965.3999999761581,58.0,60.0,40.0,False,,213.0582532555297,[],"[2560, 720]",ColorTask,64.0,18.0,,,HRV,HRV_0040,2022-11-30 18:01:34
,wl-rdm,135,670456,0.0-8.18-0.18,1.0,136.0,,,,,,,[],,,,,,56.4,0.0,u,0.0,True,1331.5,80.0,60.0,40.0,False,,231.31305755684917,[],"[2560, 720]",ColorTask,65.0,19.0,,,HRV,HRV_0040,2022-11-30 18:01:34
,wl-rdm,136,672657,0.0-8.19-0.19,1.0,137.0,,,,,,,[],,,,,,62.5,0.0,u,0.0,True,853.8999999761581,52.0,60.0,40.0,False,,266.7642945025457,[],"[2560, 720]",ColorTask,66.0,20.0,,,HRV,HRV_0040,2022-11-30 18:01:34
,wl-rdm,137,674591,0.0-8.20-0.20,1.0,138.0,,,,,,,[],,,,,,73.6,1.0,i,1.0,True,576.3999999761581,35.0,60.0,40.0,False,,294.16139597859535,[],"[2560, 720]",ColorTask,67.0,21.0,,,HRV,HRV_0040,2022-11-30 18:01:34
,wl-rdm,138,676641,0.0-8.21-0.21,1.0,139.0,,,,,,,[],,,,,,56.4,1.0,i,1.0,True,682.6999999284744,41.0,60.0,40.0,False,,300.1679497486146,[],"[2560, 720]",ColorTask,68.0,22.0,,,HRV,HRV_0040,2022-11-30 18:01:34
,wl-rdm,139,678909,0.0-8.22-0.22,1.0,140.0,,,,,,,[],,,,,,62.5,1.0,i,1.0,True,889.3000000715256,54.0,60.0,40.0,False,,305.68316654588074,[],"[2560, 720]",ColorTask,69.0,23.0,,,HRV,HRV_0040,2022-11-30 18:01:34
,wl-rdm,140,680993,0.0-8.23-0.23,1.0,141.0,,,,,,,[],,,,,,56.4,1.0,i,1.0,True,708.6000000238419,43.0,60.0,40.0,False,,310.8717138843571,[],"[2560, 720]",ColorTask,70.0,24.0,,,HRV,HRV_0040,2022-11-30 18:01:34
,wl-rdm,141,683394,0.0-8.24-0.24,1.0,142.0,,,,,,,[],,,,,,56.4,0.0,u,0.0,True,1119.7000000476837,68.0,60.0,40.0,False,,207.79220599915857,[],"[2560, 720]",ColorTask,71.0,25.0,,,HRV,HRV_0040,2022-11-30 18:01:34
,wl-rdm,142,685278,0.0-8.25-0.25,1.0,143.0,,,,,,,[],,,,,,56.4,0.0,i,1.0,False,464.6999999284744,28.0,60.0,40.0,False,,363.89805866566684,[],"[2560, 720]",ColorTask,70.0,26.0,,,HRV,HRV_0040,2022-11-30 18:01:34
,wl-rdm,143,687879,0.0-8.26-0.26,1.0,144.0,,,,,,,[],,,,,,56.4,0.0,u,0.0,True,1252.299999833107,76.0,60.0,40.0,False,,268.7422964561334,[],"[2560, 720]",ColorTask,71.0,27.0,,,HRV,HRV_0040,2022-11-30 18:01:34
,wl-rdm,144,690313,0.0-8.27-0.27,1.0,145.0,,,,,,,[],,,,,,50.0,1.0,i,1.0,True,1011.9999998807907,61.0,60.0,40.0,False,,365.6066119092098,[],"[2560, 720]",ColorTask,72.0,28.0,,,HRV,HRV_0040,2022-11-30 18:01:34
,wl-rdm,145,692714,0.0-8.28-0.28,1.0,146.0,,,,,,,[],,,,,,56.4,1.0,i,1.0,True,948.1999999284744,57.0,60.0,40.0,False,,398.43447093616254,[],"[2560, 720]",ColorTask,73.0,29.0,,,HRV,HRV_0040,2022-11-30 18:01:34
,wl-rdm,146,694664,0.0-8.29-0.29,1.0,147.0,,,,,,,[],,,,,,53.2,1.0,i,1.0,True,655.1000000238419,40.0,60.0,40.0,False,,219.74053810260617,[],"[2560, 720]",ColorTask,74.0,30.0,,,HRV,HRV_0040,2022-11-30 18:01:34
,wl-rdm,147,697182,0.0-8.30-0.30,1.0,148.0,,,,,,,[],,,,,,62.5,0.0,u,0.0,True,1246.1000000238419,75.0,60.0,40.0,False,,208.47715434226023,[],"[2560, 720]",ColorTask,75.0,31.0,,,HRV,HRV_0040,2022-11-30 18:01:34
,wl-rdm,148,699599,0.0-8.31-0.31,1.0,149.0,,,,,,,[],,,,,,50.0,1.0,i,1.0,True,1147.6999999284744,69.0,60.0,40.0,False,,215.0925163423882,[],"[2560, 720]",ColorTask,76.0,32.0,,,HRV,HRV_0040,2022-11-30 18:01:34
,wl-rdm,149,702784,0.0-8.32-0.32,1.0,150.0,,,,,,,[],,,,,,50.0,0.0,i,1.0,False,1915.3000000715256,115.0,60.0,40.0,False,,210.78643707778986,[],"[2560, 720]",ColorTask,75.0,33.0,,,HRV,HRV_0040,2022-11-30 18:01:34
,wl-rdm,150,705168,0.0-8.33-0.33,1.0,151.0,,,,,,,[],,,,,,73.6,1.0,i,1.0,True,933.1000000238419,56.0,60.0,40.0,False,,374.06577380053466,[],"[2560, 720]",ColorTask,76.0,34.0,,,HRV,HRV_0040,2022-11-30 18:01:34
,wl-rdm,151,707602,0.0-8.34-0.34,1.0,152.0,,,,,,,[],,,,,,62.5,0.0,u,0.0,True,1166.5,70.0,60.0,40.0,False,,207.11625007706542,[],"[2560, 720]",ColorTask,77.0,35.0,,,HRV,HRV_0040,2022-11-30 18:01:34
,wl-rdm,152,710236,0.0-8.35-0.35,1.0,153.0,,,,,,,[],,,,,,53.2,0.0,i,1.0,False,1364.3999999761581,82.0,60.0,40.0,False,,204.3141169461249,[],"[2560, 720]",ColorTask,76.0,36.0,,,HRV,HRV_0040,2022-11-30 18:01:34
,wl-rdm,153,713071,0.0-8.36-0.36,1.0,154.0,,,,,,,[],,,,,,53.2,0.0,i,1.0,False,1414.4000000953674,85.0,60.0,40.0,False,,361.89464992812566,[],"[2560, 720]",ColorTask,75.0,37.0,,,HRV,HRV_0040,2022-11-30 18:01:34
,wl-rdm,154,715371,0.0-8.37-0.37,1.0,155.0,,,,,,,[],,,,,,62.5,0.0,u,0.0,True,1027.9999998807907,62.0,60.0,40.0,False,,212.5119519865758,[],"[2560, 720]",ColorTask,76.0,38.0,,,HRV,HRV_0040,2022-11-30 18:01:34
,wl-rdm,155,717906,0.0-8.38-0.38,1.0,156.0,,,,,,,[],,,,,,50.0,1.0,u,0.0,False,1200.3999999761581,72.0,60.0,40.0,False,,278.33122786852385,[],"[2560, 720]",ColorTask,75.0,39.0,,,HRV,HRV_0040,2022-11-30 18:01:34
,wl-rdm,156,719890,0.0-8.39-0.39,1.0,157.0,,,,,,,[],,,,,,87.9,1.0,i,1.0,True,675.5,41.0,60.0,40.0,False,,233.82174999688283,[],"[2560, 720]",ColorTask,76.0,40.0,,,HRV,HRV_0040,2022-11-30 18:01:34
,wl-rdm,157,722007,0.0-8.40-0.40,1.0,158.0,,,,,,,[],,,,,,50.0,1.0,i,1.0,True,650.8999999761581,40.0,60.0,40.0,False,,393.00308284270017,[],"[2560, 720]",ColorTask,77.0,41.0,,,HRV,HRV_0040,2022-11-30 18:01:34
,wl-rdm,158,724225,0.0-8.41-0.41,1.0,159.0,,,,,,,[],,,,,,50.0,0.0,i,1.0,False,842.5,51.0,60.0,40.0,False,,301.8171442254176,[],"[2560, 720]",ColorTask,76.0,42.0,,,HRV,HRV_0040,2022-11-30 18:01:34
,wl-rdm,159,726275,0.0-8.42-0.42,1.0,160.0,,,,,,,[],,,,,,87.9,0.0,u,0.0,True,673.6999999284744,41.0,60.0,40.0,False,,315.52405014246676,[],"[2560, 720]",ColorTask,77.0,43.0,,,HRV,HRV_0040,2022-11-30 18:01:34
,wl-rdm,160,728726,0.0-8.43-0.43,1.0,161.0,,,,,,,[],,,,,,50.0,0.0,i,1.0,False,1098.7999999523163,66.0,60.0,40.0,False,,287.5921846229581,[],"[2560, 720]",ColorTask,76.0,44.0,,,HRV,HRV_0040,2022-11-30 18:01:34
,wl-rdm,161,730860,0.0-8.44-0.44,1.0,162.0,,,,,,,[],,,,,,62.5,1.0,i,1.0,True,807.3999999761581,49.0,60.0,40.0,False,,263.30190160354084,[],"[2560, 720]",ColorTask,77.0,45.0,,,HRV,HRV_0040,2022-11-30 18:01:34
,wl-rdm,162,733861,0.0-8.45-0.45,1.0,163.0,,,,,,,[],,,,,,73.6,0.0,u,0.0,True,1673.2999999523163,101.0,60.0,40.0,False,,262.98788602443926,[],"[2560, 720]",ColorTask,78.0,46.0,,,HRV,HRV_0040,2022-11-30 18:01:34
,wl-rdm,163,735795,0.0-8.46-0.46,1.0,164.0,,,,,,,[],,,,,,56.4,1.0,i,1.0,True,586.8999999761581,36.0,60.0,40.0,False,,277.84680481584144,[],"[2560, 720]",ColorTask,79.0,47.0,,,HRV,HRV_0040,2022-11-30 18:01:34
,wl-rdm,164,737763,0.0-8.47-0.47,1.0,165.0,,,,,,,[],,,,,,73.6,0.0,u,0.0,True,672.6000000238419,41.0,60.0,40.0,False,,228.05786367999056,[],"[2560, 720]",ColorTask,80.0,48.0,,,HRV,HRV_0040,2022-11-30 18:01:34
,wl-rdm,165,739813,0.0-8.48-0.48,1.0,166.0,,,,,,,[],,,,,,62.5,0.0,u,0.0,True,761.1999999284744,46.0,60.0,40.0,False,,225.23323986261346,[],"[2560, 720]",ColorTask,81.0,49.0,,,HRV,HRV_0040,2022-11-30 18:01:34
,wl-rdm,166,741947,0.0-8.49-0.49,1.0,167.0,,,,,,,[],,,,,,53.2,0.0,i,1.0,False,654.1000000238419,40.0,60.0,40.0,False,,387.457592553559,[],"[2560, 720]",ColorTask,80.0,50.0,,,HRV,HRV_0040,2022-11-30 18:01:34
,wl-rdm,167,744298,0.0-8.50-0.50,1.0,168.0,,,,,,,[],,,,,,73.6,0.0,u,0.0,True,956.5,58.0,60.0,40.0,False,,322.0448729941416,[],"[2560, 720]",ColorTask,81.0,51.0,,,HRV,HRV_0040,2022-11-30 18:01:34
,wl-rdm,168,746482,0.0-8.51-0.51,1.0,169.0,,,,,,,[],,,,,,56.4,1.0,i,1.0,True,825.2000000476837,50.0,60.0,40.0,False,,286.75759091972895,[],"[2560, 720]",ColorTask,82.0,52.0,,,HRV,HRV_0040,2022-11-30 18:01:34
,wl-rdm,169,748817,0.0-8.52-0.52,1.0,170.0,,,,,,,[],,,,,,73.6,0.0,u,0.0,True,999.6000000238419,60.0,60.0,40.0,False,,276.9775881888577,[],"[2560, 720]",ColorTask,83.0,53.0,,,HRV,HRV_0040,2022-11-30 18:01:34
,wl-rdm,170,751517,0.0-8.53-0.53,1.0,171.0,,,,,,,[],,,,,,50.0,0.0,u,0.0,True,1327.6999999284744,80.0,60.0,40.0,False,,296.3926859826504,[],"[2560, 720]",ColorTask,84.0,54.0,,,HRV,HRV_0040,2022-11-30 18:01:34
,wl-rdm,171,754452,0.0-8.54-0.54,1.0,172.0,,,,,,,[],,,,,,53.2,0.0,i,1.0,False,1615.1999999284744,97.0,60.0,40.0,False,,250.39637563194148,[],"[2560, 720]",ColorTask,83.0,55.0,,,HRV,HRV_0040,2022-11-30 18:01:34
,wl-rdm,172,757286,0.0-8.55-0.55,1.0,173.0,,,,,,,[],,,,,,62.5,0.0,i,1.0,False,1508.8999999761581,91.0,60.0,40.0,False,,261.73522339108104,[],"[2560, 720]",ColorTask,82.0,56.0,,,HRV,HRV_0040,2022-11-30 18:01:34
,wl-rdm,173,759220,0.0-8.56-0.56,1.0,174.0,,,,,,,[],,,,,,73.6,1.0,i,1.0,True,540.8999999761581,33.0,60.0,40.0,False,,328.9734380753913,[],"[2560, 720]",ColorTask,83.0,57.0,,,HRV,HRV_0040,2022-11-30 18:01:34
,wl-rdm,174,761254,0.0-8.57-0.57,1.0,175.0,,,,,,,[],,,,,,50.0,1.0,i,1.0,True,725.1999999284744,44.0,60.0,40.0,False,,240.57937928802824,[],"[2560, 720]",ColorTask,84.0,58.0,,,HRV,HRV_0040,2022-11-30 18:01:34
,wl-rdm,175,763321,0.0-8.58-0.58,1.0,176.0,,,,,,,[],,,,,,73.6,0.0,u,0.0,True,655.2000000476837,40.0,60.0,40.0,False,,349.9763086558902,[],"[2560, 720]",ColorTask,85.0,59.0,,,HRV,HRV_0040,2022-11-30 18:01:34
,wl-rdm,176,765405,0.0-8.59-0.59,1.0,177.0,,,,,,,[],,,,,,73.6,1.0,i,1.0,True,639.3999999761581,39.0,60.0,40.0,False,,377.07782262840504,[],"[2560, 720]",ColorTask,86.0,60.0,,,HRV,HRV_0040,2022-11-30 18:01:34
,wl-rdm,177,767740,0.0-8.60-0.60,1.0,178.0,,,,,,,[],,,,,,62.5,1.0,u,0.0,False,877.8000000715256,53.0,60.0,40.0,False,,394.71849469173316,[],"[2560, 720]",ColorTask,85.0,61.0,,,HRV,HRV_0040,2022-11-30 18:01:34
,wl-rdm,178,770024,0.0-8.61-0.61,1.0,179.0,,,,,,,[],,,,,,56.4,1.0,i,1.0,True,894.3999999761581,54.0,60.0,40.0,False,,323.0766891367803,[],"[2560, 720]",ColorTask,86.0,62.0,,,HRV,HRV_0040,2022-11-30 18:01:34
,wl-rdm,179,772741,0.0-8.62-0.62,1.0,180.0,,,,,,,[],,,,,,56.4,1.0,i,1.0,True,1305.3999999761581,79.0,60.0,40.0,False,,347.337951772112,[],"[2560, 720]",ColorTask,87.0,63.0,,,HRV,HRV_0040,2022-11-30 18:01:34
,wl-rdm,180,775142,0.0-8.63-0.63,1.0,181.0,,,,,,,[],,,,,,53.2,1.0,i,1.0,True,975.1000000238419,59.0,60.0,40.0,False,,357.4509615112529,[],"[2560, 720]",ColorTask,88.0,64.0,,,HRV,HRV_0040,2022-11-30 18:01:34
,wl-rdm,181,777343,0.0-8.64-0.64,1.0,182.0,,,,,,,[],,,,,,62.5,0.0,u,0.0,True,820.1999999284744,50.0,60.0,40.0,False,,309.9000140416592,[],"[2560, 720]",ColorTask,89.0,65.0,,,HRV,HRV_0040,2022-11-30 18:01:34
,wl-rdm,182,779444,0.0-8.65-0.65,1.0,183.0,,,,,,,[],,,,,,87.9,0.0,u,0.0,True,724.6000000238419,44.0,60.0,40.0,False,,300.80554484999084,[],"[2560, 720]",ColorTask,90.0,66.0,,,HRV,HRV_0040,2022-11-30 18:01:34
,wl-rdm,183,781461,0.0-8.66-0.66,1.0,184.0,,,,,,,[],,,,,,50.0,0.0,i,1.0,False,722.1999999284744,44.0,60.0,40.0,False,,219.45297228232732,[],"[2560, 720]",ColorTask,89.0,67.0,,,HRV,HRV_0040,2022-11-30 18:01:34
,wl-rdm,184,783978,0.0-8.67-0.67,1.0,185.0,,,,,,,[],,,,,,53.2,0.0,u,0.0,True,1135.3999999761581,69.0,60.0,40.0,False,,308.65658264086363,[],"[2560, 720]",ColorTask,90.0,68.0,,,HRV,HRV_0040,2022-11-30 18:01:34
,wl-rdm,185,786129,0.0-8.68-0.68,1.0,186.0,,,,,,,[],,,,,,56.4,0.0,u,0.0,True,825.8999999761581,50.0,60.0,40.0,False,,258.4858660549737,[],"[2560, 720]",ColorTask,91.0,69.0,,,HRV,HRV_0040,2022-11-30 18:01:34
,wl-rdm,186,788646,0.0-8.69-0.69,1.0,187.0,,,,,,,[],,,,,,53.2,1.0,u,0.0,False,1138.7999999523163,69.0,60.0,40.0,False,,302.58558246092304,[],"[2560, 720]",ColorTask,90.0,70.0,,,HRV,HRV_0040,2022-11-30 18:01:34
,wl-rdm,187,790780,0.0-8.70-0.70,1.0,188.0,,,,,,,[],,,,,,87.9,0.0,u,0.0,True,830.5,50.0,60.0,40.0,False,,235.63385656819923,[],"[2560, 720]",ColorTask,91.0,71.0,,,HRV,HRV_0040,2022-11-30 18:01:34
,wl-rdm,188,793298,0.0-8.71-0.71,1.0,189.0,,,,,,,[],,,,,,56.4,1.0,i,1.0,True,1128.0,68.0,60.0,40.0,False,,317.33271714056593,[],"[2560, 720]",ColorTask,92.0,72.0,,,HRV,HRV_0040,2022-11-30 18:01:34
,wl-rdm,189,795549,0.0-8.72-0.72,1.0,190.0,,,,,,,[],,,,,,62.5,1.0,i,1.0,True,844.6000000238419,51.0,60.0,40.0,False,,344.29834380172304,[],"[2560, 720]",ColorTask,93.0,73.0,,,HRV,HRV_0040,2022-11-30 18:01:34
,wl-rdm,190,797716,0.0-8.73-0.73,1.0,191.0,,,,,,,[],,,,,,50.0,1.0,u,0.0,False,875.3999999761581,53.0,60.0,40.0,False,,222.48773531993137,[],"[2560, 720]",ColorTask,92.0,74.0,,,HRV,HRV_0040,2022-11-30 18:01:34
,wl-rdm,191,799633,0.0-8.74-0.74,1.0,192.0,,,,,,,[],,,,,,73.6,1.0,i,1.0,True,550.7999999523163,34.0,60.0,40.0,False,,288.23993381265313,[],"[2560, 720]",ColorTask,93.0,75.0,,,HRV,HRV_0040,2022-11-30 18:01:34
,wl-rdm,192,802301,0.0-8.75-0.75,1.0,193.0,,,,,,,[],,,,,,53.2,1.0,i,1.0,True,1303.4000000953674,79.0,60.0,40.0,False,,293.92003482700886,[],"[2560, 720]",ColorTask,94.0,76.0,,,HRV,HRV_0040,2022-11-30 18:01:34
,wl-rdm,193,804485,0.0-8.76-0.76,1.0,194.0,,,,,,,[],,,,,,53.2,0.0,i,1.0,False,836.1999999284744,51.0,60.0,40.0,False,,268.6455924197267,[],"[2560, 720]",ColorTask,93.0,77.0,,,HRV,HRV_0040,2022-11-30 18:01:34
,wl-rdm,194,806536,0.0-8.77-0.77,1.0,195.0,,,,,,,[],,,,,,53.2,1.0,i,1.0,True,685.5,42.0,60.0,40.0,False,,273.11981580464226,[],"[2560, 720]",ColorTask,94.0,78.0,,,HRV,HRV_0040,2022-11-30 18:01:34
,wl-rdm,195,808987,0.0-8.78-0.78,1.0,196.0,,,,,,,[],,,,,,50.0,0.0,u,0.0,True,1130.0,68.0,60.0,40.0,False,,260.04492587507593,[],"[2560, 720]",ColorTask,95.0,79.0,,,HRV,HRV_0040,2022-11-30 18:01:34
,wl-rdm,196,810988,0.0-8.79-0.79,1.0,197.0,,,,,,,[],,,,,,62.5,1.0,i,1.0,True,589.7999999523163,36.0,60.0,40.0,False,,334.2007694356855,[],"[2560, 720]",ColorTask,96.0,80.0,,,HRV,HRV_0040,2022-11-30 18:01:34
,wl-rdm,197,812871,0.0-8.80-0.80,1.0,198.0,,,,,,,[],,,,,,87.9,0.0,u,0.0,True,544.2000000476837,33.0,60.0,40.0,False,,281.50452023202627,[],"[2560, 720]",ColorTask,97.0,81.0,,,HRV,HRV_0040,2022-11-30 18:01:34
,wl-rdm,198,814755,0.0-8.81-0.81,1.0,199.0,,,,,,,[],,,,,,87.9,1.0,i,1.0,True,472.10000002384186,29.0,60.0,40.0,False,,342.458023742538,[],"[2560, 720]",ColorTask,98.0,82.0,,,HRV,HRV_0040,2022-11-30 18:01:34
,wl-rdm,199,816956,0.0-8.82-0.82,1.0,200.0,,,,,,,[],,,,,,53.2,1.0,i,1.0,True,799.1999999284744,48.0,60.0,40.0,False,,335.81926340526104,[],"[2560, 720]",ColorTask,99.0,83.0,,,HRV,HRV_0040,2022-11-30 18:01:34
,wl-rdm,200,818924,0.0-8.83-0.83,1.0,201.0,,,,,,,[],,,,,,87.9,1.0,i,1.0,True,664.3999999761581,40.0,60.0,40.0,False,,243.1780117457013,[],"[2560, 720]",ColorTask,100.0,84.0,,,HRV,HRV_0040,2022-11-30 18:01:34
,wl-rdm,201,821308,0.0-8.84-0.84,1.0,202.0,,,,,,,[],,,,,,73.6,0.0,u,0.0,True,1054.2999999523163,64.0,60.0,40.0,False,,256.1560302380456,[],"[2560, 720]",ColorTask,101.0,85.0,,,HRV,HRV_0040,2022-11-30 18:01:34
,wl-rdm,202,823425,0.0-8.85-0.85,1.0,203.0,,,,,,,[],,,,,,56.4,0.0,u,0.0,True,845.5,51.0,60.0,40.0,False,,201.45483953303855,[],"[2560, 720]",ColorTask,102.0,86.0,,,HRV,HRV_0040,2022-11-30 18:01:34
,wl-rdm,203,826010,0.0-8.86-0.86,1.0,204.0,,,,,,,[],,,,,,50.0,1.0,u,0.0,False,1274.7000000476837,77.0,60.0,40.0,False,,245.15865479564752,[],"[2560, 720]",ColorTask,101.0,87.0,,,HRV,HRV_0040,2022-11-30 18:01:34
,wl-rdm,204,827910,0.0-8.87-0.87,1.0,205.0,,,,,,,[],,,,,,87.9,0.0,i,1.0,False,561.1000000238419,34.0,60.0,40.0,False,,270.1856345906916,[],"[2560, 720]",ColorTask,100.0,88.0,,,HRV,HRV_0040,2022-11-30 18:01:34
,wl-rdm,205,829861,0.0-8.88-0.88,1.0,206.0,,,,,,,[],,,,,,73.6,1.0,i,1.0,True,618.2000000476837,38.0,60.0,40.0,False,,251.47504335105052,[],"[2560, 720]",ColorTask,101.0,89.0,,,HRV,HRV_0040,2022-11-30 18:01:34
,wl-rdm,206,833329,0.0-8.89-0.89,1.0,207.0,,,,,,,[],,,,,,56.4,0.0,u,0.0,True,2062.100000023842,124.0,60.0,40.0,False,,338.56647834690284,[],"[2560, 720]",ColorTask,102.0,90.0,,,HRV,HRV_0040,2022-11-30 18:01:34
,wl-rdm,207,835679,0.0-8.90-0.90,1.0,208.0,,,,,,,[],,,,,,53.2,0.0,i,1.0,False,985.5,60.0,60.0,40.0,False,,297.8215489555012,[],"[2560, 720]",ColorTask,101.0,91.0,,,HRV,HRV_0040,2022-11-30 18:01:34
,wl-rdm,208,837897,0.0-8.91-0.91,1.0,209.0,,,,,,,[],,,,,,53.2,0.0,i,1.0,False,785.8999999761581,48.0,60.0,40.0,False,,357.3857413131569,[],"[2560, 720]",ColorTask,100.0,92.0,,,HRV,HRV_0040,2022-11-30 18:01:34
,wl-rdm,209,840564,0.0-8.92-0.92,1.0,210.0,,,,,,,[],,,,,,56.4,0.0,u,0.0,True,1227.6000000238419,74.0,60.0,40.0,False,,380.10885735781426,[],"[2560, 720]",ColorTask,101.0,93.0,,,HRV,HRV_0040,2022-11-30 18:01:34
,wl-rdm,210,842815,0.0-8.93-0.93,1.0,211.0,,,,,,,[],,,,,,56.4,1.0,i,1.0,True,927.6000000238419,56.0,60.0,40.0,False,,263.921594394644,[],"[2560, 720]",ColorTask,102.0,94.0,,,HRV,HRV_0040,2022-11-30 18:01:34
,wl-rdm,211,845033,0.0-8.94-0.94,1.0,212.0,,,,,,,[],,,,,,53.2,1.0,i,1.0,True,921.2999999523163,56.0,60.0,40.0,False,,227.09723736356872,[],"[2560, 720]",ColorTask,103.0,95.0,,,HRV,HRV_0040,2022-11-30 18:01:34
,wl-rdm,212,847200,0.0-8.95-0.95,1.0,213.0,,,,,,,[],,,,,,87.9,0.0,u,0.0,True,787.8000000715256,48.0,60.0,40.0,False,,302.9063261257322,[],"[2560, 720]",ColorTask,104.0,96.0,,,HRV,HRV_0040,2022-11-30 18:01:34
,wl-rdm,213,849701,0.0-8.96-0.96,1.0,214.0,,,,,,,[],,,,,,73.6,0.0,u,0.0,True,1147.6999999284744,69.0,60.0,40.0,False,,299.5316638351214,[],"[2560, 720]",ColorTask,105.0,97.0,,,HRV,HRV_0040,2022-11-30 18:01:34
,wl-rdm,214,852185,0.0-8.97-0.97,1.0,215.0,,,,,,,[],,,,,,50.0,1.0,i,1.0,True,1175.8999999761581,71.0,60.0,40.0,False,,237.48970199852076,[],"[2560, 720]",ColorTask,106.0,98.0,,,HRV,HRV_0040,2022-11-30 18:01:34
,wl-rdm,215,854020,0.0-8.98-0.98,1.0,216.0,,,,,,,[],,,,,,87.9,1.0,i,1.0,True,529.7000000476837,32.0,60.0,40.0,False,,244.58217107741478,[],"[2560, 720]",ColorTask,107.0,99.0,,,HRV,HRV_0040,2022-11-30 18:01:34
,wl-rdm,216,856320,0.0-8.99-0.99,1.0,217.0,,,,,,,[],,,,,,53.2,1.0,i,1.0,True,953.2999999523163,58.0,60.0,40.0,False,,277.54120278654204,[],"[2560, 720]",ColorTask,108.0,100.0,,,HRV,HRV_0040,2022-11-30 18:01:34
,wl-rdm,217,858938,0.0-8.100-0.100,1.0,218.0,,,,,,,[],,,,,,62.5,0.0,u,0.0,True,1170.7000000476837,71.0,60.0,40.0,False,,378.1236504560977,[],"[2560, 720]",ColorTask,109.0,101.0,,,HRV,HRV_0040,2022-11-30 18:01:34
,wl-rdm,218,860888,0.0-8.101-0.101,1.0,219.0,,,,,,,[],,,,,,87.9,1.0,i,1.0,True,667.8999999761581,41.0,60.0,40.0,False,,210.72117306938588,[],"[2560, 720]",ColorTask,110.0,102.0,,,HRV,HRV_0040,2022-11-30 18:01:34
,wl-rdm,219,862822,0.0-8.102-0.102,1.0,220.0,,,,,,,[],,,,,,73.6,1.0,i,1.0,True,645.2999999523163,39.0,60.0,40.0,False,,222.44613888385905,[],"[2560, 720]",ColorTask,111.0,103.0,,,HRV,HRV_0040,2022-11-30 18:01:34
,wl-rdm,220,864756,0.0-8.103-0.103,1.0,221.0,,,,,,,[],,,,,,87.9,0.0,u,0.0,True,636.6000000238419,39.0,60.0,40.0,False,,223.20251421738064,[],"[2560, 720]",ColorTask,112.0,104.0,,,HRV,HRV_0040,2022-11-30 18:01:34
,wl-rdm,221,866740,0.0-8.104-0.104,1.0,222.0,,,,,,,[],,,,,,87.9,0.0,u,0.0,True,592.3999999761581,36.0,60.0,40.0,False,,331.01395185917386,[],"[2560, 720]",ColorTask,113.0,105.0,,,HRV,HRV_0040,2022-11-30 18:01:34
,wl-rdm,222,869942,0.0-8.105-0.105,1.0,223.0,,,,,,,[],,,,,,50.0,0.0,u,0.0,True,1845.8000000715256,111.0,60.0,40.0,False,,289.3498356855124,[],"[2560, 720]",ColorTask,114.0,106.0,,,HRV,HRV_0040,2022-11-30 18:01:34
,wl-rdm,223,872176,0.0-8.106-0.106,1.0,224.0,,,,,,,[],,,,,,53.2,1.0,i,1.0,True,899.2999999523163,54.0,60.0,40.0,False,,281.1743162929158,[],"[2560, 720]",ColorTask,115.0,107.0,,,HRV,HRV_0040,2022-11-30 18:01:34
,wl-rdm,224,874794,0.0-8.107-0.107,1.0,225.0,,,,,,,[],,,,,,87.9,1.0,i,1.0,True,1185.8999998569489,72.0,60.0,40.0,False,,358.2183305845748,[],"[2560, 720]",ColorTask,116.0,108.0,,,HRV,HRV_0040,2022-11-30 18:01:34
,wl-html-button-response,225,877768,0.0-9.0-0.0,,,,,,,,,,2971.7000000476837,,0,,,,,,,,,,,,,,,,,,,,<h3>End of this session. Thank you!</h3><br>,['Close window'],HRV,HRV_0040,2022-11-30 18:01:34
