trialN,stimuli,question,trialStartTime,trialStartTime_UNIX,stimulus1,rt,receivedResponse,rating,trialEndTime,trialDuration,stimulus1Loaded,exp,subjectId,date
0,"[{'imgObject': {}, 'id': 'Tribe humus pita', 'src': '/static/foodstim60/Tribe humus pita.jpg', 'key': 'NaN', 'origWidth': 411, 'origHeight': 411, 'width': 411, 'height': 411, 'widthPercent': 0.8, 'rescaleHeight': True, 'trialN': 0, 'loaded': True, 'loadedTime': 4787, 'positionName': 'CENTER', 'positionCoords': [477.5, 178.5]}]",Rate how much you want to eat this food from 0 (least) to 10 (most).,6863.599999904633,1669829299649,Tribe humus pita,2720.800000190735,True,1.79,9584.400000095367,2720.800000190735,True,HRV,HRV_0018,2022-11-30 17:30:50
1,"[{'imgObject': {}, 'id': 'orange slices', 'src': '/static/foodstim60/orange slices.jpg', 'key': 'NaN', 'origWidth': 409, 'origHeight': 410, 'width': 409, 'height': 410, 'widthPercent': 0.8, 'rescaleHeight': True, 'trialN': 1, 'loaded': True, 'loadedTime': 4809, 'positionName': 'CENTER', 'positionCoords': [478.5, 179]}]",Rate how much you want to eat this food from 0 (least) to 10 (most).,9594.400000095367,1669829302380,orange slices,1889.5,True,7.69,11483.900000095367,1889.5,True,HRV,HRV_0018,2022-11-30 17:30:50
2,"[{'imgObject': {}, 'id': 'bagel plain', 'src': '/static/foodstim60/bagel plain.jpg', 'key': 'NaN', 'origWidth': 410, 'origHeight': 410, 'width': 410, 'height': 410, 'widthPercent': 0.8, 'rescaleHeight': True, 'trialN': 2, 'loaded': True, 'loadedTime': 4812.099999904633, 'positionName': 'CENTER', 'positionCoords': [478, 179]}]",Rate how much you want to eat this food from 0 (least) to 10 (most).,11489.699999809265,1669829304275,bagel plain,2234.800000190735,True,7.47,13724.5,2234.800000190735,True,HRV,HRV_0018,2022-11-30 17:30:50
3,"[{'imgObject': {}, 'id': 'mac & cheese', 'src': '/static/foodstim60/mac & cheese.jpg', 'key': 'NaN', 'origWidth': 410, 'origHeight': 410, 'width': 410, 'height': 410, 'widthPercent': 0.8, 'rescaleHeight': True, 'trialN': 3, 'loaded': True, 'loadedTime': 4815.5, 'positionName': 'CENTER', 'positionCoords': [478, 179]}]",Rate how much you want to eat this food from 0 (least) to 10 (most).,13729.099999904633,1669829306514,mac & cheese,1737.2000002861023,True,2.96,15466.300000190735,1737.2000002861023,True,HRV,HRV_0018,2022-11-30 17:30:50
4,"[{'imgObject': {}, 'id': 'granola w milk', 'src': '/static/foodstim60/granola w milk.jpg', 'key': 'NaN', 'origWidth': 410, 'origHeight': 410, 'width': 410, 'height': 410, 'widthPercent': 0.8, 'rescaleHeight': True, 'trialN': 4, 'loaded': True, 'loadedTime': 4823.699999809265, 'positionName': 'CENTER', 'positionCoords': [478, 179]}]",Rate how much you want to eat this food from 0 (least) to 10 (most).,15470.199999809265,1669829308256,granola w milk,1824.1000003814697,True,8.85,17294.300000190735,1824.1000003814697,True,HRV,HRV_0018,2022-11-30 17:30:50
5,"[{'imgObject': {}, 'id': 'veggieswithdip', 'src': '/static/foodstim60/veggieswithdip.jpg', 'key': 'NaN', 'origWidth': 409, 'origHeight': 409, 'width': 409, 'height': 409, 'widthPercent': 0.8, 'rescaleHeight': True, 'trialN': 5, 'loaded': True, 'loadedTime': 4861.5, 'positionName': 'CENTER', 'positionCoords': [478.5, 179.5]}]",Rate how much you want to eat this food from 0 (least) to 10 (most).,17300.0,1669829310085,veggieswithdip,2767.800000190735,True,1.77,20067.800000190735,2767.800000190735,True,HRV,HRV_0018,2022-11-30 17:30:50
6,"[{'imgObject': {}, 'id': 'froot loops w milk', 'src': '/static/foodstim60/froot loops w milk.jpg', 'key': 'NaN', 'origWidth': 410, 'origHeight': 410, 'width': 410, 'height': 410, 'widthPercent': 0.8, 'rescaleHeight': True, 'trialN': 6, 'loaded': True, 'loadedTime': 5177.599999904633, 'positionName': 'CENTER', 'positionCoords': [478, 179]}]",Rate how much you want to eat this food from 0 (least) to 10 (most).,20072.199999809265,1669829312858,froot loops w milk,1632.6000003814697,True,5.4,21704.800000190735,1632.6000003814697,True,HRV,HRV_0018,2022-11-30 17:30:50
7,"[{'imgObject': {}, 'id': 'seaweed', 'src': '/static/foodstim60/seaweed.jpg', 'key': 'NaN', 'origWidth': 410, 'origHeight': 410, 'width': 410, 'height': 410, 'widthPercent': 0.8, 'rescaleHeight': True, 'trialN': 7, 'loaded': True, 'loadedTime': 5188.900000095367, 'positionName': 'CENTER', 'positionCoords': [478, 179]}]",Rate how much you want to eat this food from 0 (least) to 10 (most).,21714.300000190735,1669829314500,seaweed,1940.0999999046326,True,0.31,23654.400000095367,1940.0999999046326,True,HRV,HRV_0018,2022-11-30 17:30:50
8,"[{'imgObject': {}, 'id': 'ice cream sundae 002', 'src': '/static/foodstim60/ice cream sundae 002.jpg', 'key': 'NaN', 'origWidth': 409, 'origHeight': 409, 'width': 409, 'height': 409, 'widthPercent': 0.8, 'rescaleHeight': True, 'trialN': 8, 'loaded': True, 'loadedTime': 5196.400000095367, 'positionName': 'CENTER', 'positionCoords': [478.5, 179.5]}]",Rate how much you want to eat this food from 0 (least) to 10 (most).,23658.400000095367,1669829316444,ice cream sundae 002,2640.199999809265,True,8.85,26298.599999904633,2640.199999809265,True,HRV,HRV_0018,2022-11-30 17:30:50
9,"[{'imgObject': {}, 'id': 'fried eggs', 'src': '/static/foodstim60/fried eggs.jpg', 'key': 'NaN', 'origWidth': 410, 'origHeight': 410, 'width': 410, 'height': 410, 'widthPercent': 0.8, 'rescaleHeight': True, 'trialN': 9, 'loaded': True, 'loadedTime': 5203.199999809265, 'positionName': 'CENTER', 'positionCoords': [478, 179]}]",Rate how much you want to eat this food from 0 (least) to 10 (most).,26306.0,1669829319091,fried eggs,1960.3000001907349,True,6.3,28266.300000190735,1960.3000001907349,True,HRV,HRV_0018,2022-11-30 17:30:50
10,"[{'imgObject': {}, 'id': 'omelette', 'src': '/static/foodstim60/omelette.jpg', 'key': 'NaN', 'origWidth': 410, 'origHeight': 409, 'width': 410, 'height': 409, 'widthPercent': 0.8, 'rescaleHeight': True, 'trialN': 10, 'loaded': True, 'loadedTime': 5205.900000095367, 'positionName': 'CENTER', 'positionCoords': [478, 179.5]}]",Rate how much you want to eat this food from 0 (least) to 10 (most).,28271.5,1669829321057,omelette,1675.1999998092651,True,6.33,29946.699999809265,1675.1999998092651,True,HRV,HRV_0018,2022-11-30 17:30:50
11,"[{'imgObject': {}, 'id': 'chicken nuggets2', 'src': '/static/foodstim60/chicken nuggets2.jpg', 'key': 'NaN', 'origWidth': 410, 'origHeight': 409, 'width': 410, 'height': 409, 'widthPercent': 0.8, 'rescaleHeight': True, 'trialN': 11, 'loaded': True, 'loadedTime': 5268.400000095367, 'positionName': 'CENTER', 'positionCoords': [478, 179.5]}]",Rate how much you want to eat this food from 0 (least) to 10 (most).,29955.400000095367,1669829322741,chicken nuggets2,2196.199999809265,True,7.79,32151.599999904633,2196.199999809265,True,HRV,HRV_0018,2022-11-30 17:30:50
12,"[{'imgObject': {}, 'id': 'rigatoni', 'src': '/static/foodstim60/rigatoni.jpg', 'key': 'NaN', 'origWidth': 411, 'origHeight': 411, 'width': 411, 'height': 411, 'widthPercent': 0.8, 'rescaleHeight': True, 'trialN': 12, 'loaded': True, 'loadedTime': 5300, 'positionName': 'CENTER', 'positionCoords': [477.5, 178.5]}]",Rate how much you want to eat this food from 0 (least) to 10 (most).,32159.800000190735,1669829324945,rigatoni,1628.3999996185303,True,3.21,33788.199999809265,1628.3999996185303,True,HRV,HRV_0018,2022-11-30 17:30:50
13,"[{'imgObject': {}, 'id': 'cocktailshrimp', 'src': '/static/foodstim60/cocktailshrimp.jpg', 'key': 'NaN', 'origWidth': 410, 'origHeight': 410, 'width': 410, 'height': 410, 'widthPercent': 0.8, 'rescaleHeight': True, 'trialN': 13, 'loaded': True, 'loadedTime': 5340.099999904633, 'positionName': 'CENTER', 'positionCoords': [478, 179]}]",Rate how much you want to eat this food from 0 (least) to 10 (most).,33798.0,1669829326583,cocktailshrimp,3184.0,True,1.6300000000000001,36982.0,3184.0,True,HRV,HRV_0018,2022-11-30 17:30:50
14,"[{'imgObject': {}, 'id': 'tacos', 'src': '/static/foodstim60/tacos.jpg', 'key': 'NaN', 'origWidth': 411, 'origHeight': 411, 'width': 411, 'height': 411, 'widthPercent': 0.8, 'rescaleHeight': True, 'trialN': 14, 'loaded': True, 'loadedTime': 5380.699999809265, 'positionName': 'CENTER', 'positionCoords': [477.5, 178.5]}]",Rate how much you want to eat this food from 0 (least) to 10 (most).,36991.5,1669829329777,tacos,2265.0999999046326,True,8.42,39256.59999990463,2265.0999999046326,True,HRV,HRV_0018,2022-11-30 17:30:50
15,"[{'imgObject': {}, 'id': 'cheerios', 'src': '/static/foodstim60/cheerios.jpg', 'key': 'NaN', 'origWidth': 409, 'origHeight': 410, 'width': 409, 'height': 410, 'widthPercent': 0.8, 'rescaleHeight': True, 'trialN': 15, 'loaded': True, 'loadedTime': 5425.300000190735, 'positionName': 'CENTER', 'positionCoords': [478.5, 179]}]",Rate how much you want to eat this food from 0 (least) to 10 (most).,39262.40000009537,1669829332048,cheerios,6120.099999904633,True,5.73,45382.5,6120.099999904633,True,HRV,HRV_0018,2022-11-30 17:30:50
16,"[{'imgObject': {}, 'id': 'grilled chicken strips', 'src': '/static/foodstim60/grilled chicken strips.jpg', 'key': 'NaN', 'origWidth': 410, 'origHeight': 411, 'width': 410, 'height': 411, 'widthPercent': 0.8, 'rescaleHeight': True, 'trialN': 16, 'loaded': True, 'loadedTime': 5442, 'positionName': 'CENTER', 'positionCoords': [478, 178.5]}]",Rate how much you want to eat this food from 0 (least) to 10 (most).,45394.90000009537,1669829338180,grilled chicken strips,2831.2999997138977,True,7.32,48226.199999809265,2831.2999997138977,True,HRV,HRV_0018,2022-11-30 17:30:50
17,"[{'imgObject': {}, 'id': 'hotdog w must', 'src': '/static/foodstim60/hotdog w must.jpg', 'key': 'NaN', 'origWidth': 409, 'origHeight': 409, 'width': 409, 'height': 409, 'widthPercent': 0.8, 'rescaleHeight': True, 'trialN': 17, 'loaded': True, 'loadedTime': 5452.5, 'positionName': 'CENTER', 'positionCoords': [478.5, 179.5]}]",Rate how much you want to eat this food from 0 (least) to 10 (most).,48234.0,1669829341019,hotdog w must,1777.0,True,3.41,50011.0,1777.0,True,HRV,HRV_0018,2022-11-30 17:30:50
18,"[{'imgObject': {}, 'id': 'eggsalad', 'src': '/static/foodstim60/eggsalad.jpg', 'key': 'NaN', 'origWidth': 410, 'origHeight': 409, 'width': 410, 'height': 409, 'widthPercent': 0.8, 'rescaleHeight': True, 'trialN': 18, 'loaded': True, 'loadedTime': 5480, 'positionName': 'CENTER', 'positionCoords': [478, 179.5]}]",Rate how much you want to eat this food from 0 (least) to 10 (most).,50019.0,1669829342804,eggsalad,6002.599999904633,True,2.61,56021.59999990463,6002.599999904633,True,HRV,HRV_0018,2022-11-30 17:30:50
19,"[{'imgObject': {}, 'id': 'apple slices', 'src': '/static/foodstim60/apple slices.jpg', 'key': 'NaN', 'origWidth': 409, 'origHeight': 410, 'width': 409, 'height': 410, 'widthPercent': 0.8, 'rescaleHeight': True, 'trialN': 19, 'loaded': True, 'loadedTime': 5512.300000190735, 'positionName': 'CENTER', 'positionCoords': [478.5, 179]}]",Rate how much you want to eat this food from 0 (least) to 10 (most).,56026.800000190735,1669829348812,apple slices,2068.5999999046326,True,5.86,58095.40000009537,2068.5999999046326,True,HRV,HRV_0018,2022-11-30 17:30:50
20,"[{'imgObject': {}, 'id': 'popsicles', 'src': '/static/foodstim60/popsicles.jpg', 'key': 'NaN', 'origWidth': 410, 'origHeight': 410, 'width': 410, 'height': 410, 'widthPercent': 0.8, 'rescaleHeight': True, 'trialN': 20, 'loaded': True, 'loadedTime': 5518.400000095367, 'positionName': 'CENTER', 'positionCoords': [478, 179]}]",Rate how much you want to eat this food from 0 (least) to 10 (most).,58100.0,1669829350885,popsicles,1369.0,True,7.79,59469.0,1369.0,True,HRV,HRV_0018,2022-11-30 17:30:50
21,"[{'imgObject': {}, 'id': 'raisin bran w milk', 'src': '/static/foodstim60/raisin bran w milk.jpg', 'key': 'NaN', 'origWidth': 411, 'origHeight': 411, 'width': 411, 'height': 411, 'widthPercent': 0.8, 'rescaleHeight': True, 'trialN': 21, 'loaded': True, 'loadedTime': 5524.400000095367, 'positionName': 'CENTER', 'positionCoords': [477.5, 178.5]}]",Rate how much you want to eat this food from 0 (least) to 10 (most).,59476.199999809265,1669829352261,raisin bran w milk,3073.0,True,8.14,62549.199999809265,3073.0,True,HRV,HRV_0018,2022-11-30 17:30:50
22,"[{'imgObject': {}, 'id': 'roastedpotatoes', 'src': '/static/foodstim60/roastedpotatoes.jpg', 'key': 'NaN', 'origWidth': 409, 'origHeight': 410, 'width': 409, 'height': 410, 'widthPercent': 0.8, 'rescaleHeight': True, 'trialN': 22, 'loaded': True, 'loadedTime': 5530.300000190735, 'positionName': 'CENTER', 'positionCoords': [478.5, 179]}]",Rate how much you want to eat this food from 0 (least) to 10 (most).,62559.800000190735,1669829355345,roastedpotatoes,1791.7999997138977,True,6.99,64351.59999990463,1791.7999997138977,True,HRV,HRV_0018,2022-11-30 17:30:50
23,"[{'imgObject': {}, 'id': 'avocado', 'src': '/static/foodstim60/avocado.jpg', 'key': 'NaN', 'origWidth': 409, 'origHeight': 409, 'width': 409, 'height': 409, 'widthPercent': 0.8, 'rescaleHeight': True, 'trialN': 23, 'loaded': True, 'loadedTime': 5551, 'positionName': 'CENTER', 'positionCoords': [478.5, 179.5]}]",Rate how much you want to eat this food from 0 (least) to 10 (most).,64358.199999809265,1669829357144,avocado,5566.300000190735,True,0.05,69924.5,5566.300000190735,True,HRV,HRV_0018,2022-11-30 17:30:50
24,"[{'imgObject': {}, 'id': 'hashbrowns', 'src': '/static/foodstim60/hashbrowns.jpg', 'key': 'NaN', 'origWidth': 411, 'origHeight': 410, 'width': 411, 'height': 410, 'widthPercent': 0.8, 'rescaleHeight': True, 'trialN': 24, 'loaded': True, 'loadedTime': 5563.199999809265, 'positionName': 'CENTER', 'positionCoords': [477.5, 179]}]",Rate how much you want to eat this food from 0 (least) to 10 (most).,69927.80000019073,1669829362713,hashbrowns,2456.8999996185303,True,1.5,72384.69999980927,2456.8999996185303,True,HRV,HRV_0018,2022-11-30 17:30:50
25,"[{'imgObject': {}, 'id': 'sweetpotato', 'src': '/static/foodstim60/sweetpotato.jpg', 'key': 'NaN', 'origWidth': 410, 'origHeight': 410, 'width': 410, 'height': 410, 'widthPercent': 0.8, 'rescaleHeight': True, 'trialN': 25, 'loaded': True, 'loadedTime': 5570.800000190735, 'positionName': 'CENTER', 'positionCoords': [478, 179]}]",Rate how much you want to eat this food from 0 (least) to 10 (most).,72394.5,1669829365180,sweetpotato,1766.8000001907349,True,0.5700000000000001,74161.30000019073,1766.8000001907349,True,HRV,HRV_0018,2022-11-30 17:30:50
26,"[{'imgObject': {}, 'id': 'strawberries', 'src': '/static/foodstim60/strawberries.jpg', 'key': 'NaN', 'origWidth': 410, 'origHeight': 410, 'width': 410, 'height': 410, 'widthPercent': 0.8, 'rescaleHeight': True, 'trialN': 26, 'loaded': True, 'loadedTime': 5580.900000095367, 'positionName': 'CENTER', 'positionCoords': [478, 179]}]",Rate how much you want to eat this food from 0 (least) to 10 (most).,74172.30000019073,1669829366958,strawberries,1606.0999999046326,True,7.82,75778.40000009537,1606.0999999046326,True,HRV,HRV_0018,2022-11-30 17:30:50
27,"[{'imgObject': {}, 'id': 'sushi w_condiments', 'src': '/static/foodstim60/sushi w_condiments.jpg', 'key': 'NaN', 'origWidth': 410, 'origHeight': 410, 'width': 410, 'height': 410, 'widthPercent': 0.8, 'rescaleHeight': True, 'trialN': 27, 'loaded': True, 'loadedTime': 5589.5, 'positionName': 'CENTER', 'positionCoords': [478, 179]}]",Rate how much you want to eat this food from 0 (least) to 10 (most).,75789.80000019073,1669829368575,sushi w_condiments,1687.5999999046326,True,1.72,77477.40000009537,1687.5999999046326,True,HRV,HRV_0018,2022-11-30 17:30:50
28,"[{'imgObject': {}, 'id': 'mashed potato', 'src': '/static/foodstim60/mashed potato.jpg', 'key': 'NaN', 'origWidth': 409, 'origHeight': 409, 'width': 409, 'height': 409, 'widthPercent': 0.8, 'rescaleHeight': True, 'trialN': 28, 'loaded': True, 'loadedTime': 5600.599999904633, 'positionName': 'CENTER', 'positionCoords': [478.5, 179.5]}]",Rate how much you want to eat this food from 0 (least) to 10 (most).,77488.09999990463,1669829370273,mashed potato,1974.2000002861023,True,6.47,79462.30000019073,1974.2000002861023,True,HRV,HRV_0018,2022-11-30 17:30:50
29,"[{'imgObject': {}, 'id': 'blackbeanswithrice', 'src': '/static/foodstim60/blackbeanswithrice.jpg', 'key': 'NaN', 'origWidth': 410, 'origHeight': 410, 'width': 410, 'height': 410, 'widthPercent': 0.8, 'rescaleHeight': True, 'trialN': 29, 'loaded': True, 'loadedTime': 5794.900000095367, 'positionName': 'CENTER', 'positionCoords': [478, 179]}]",Rate how much you want to eat this food from 0 (least) to 10 (most).,79467.09999990463,1669829372252,blackbeanswithrice,2009.0,True,1.73,81476.09999990463,2009.0,True,HRV,HRV_0018,2022-11-30 17:30:50
30,"[{'imgObject': {}, 'id': 'kiwi', 'src': '/static/foodstim60/kiwi.jpg', 'key': 'NaN', 'origWidth': 410, 'origHeight': 410, 'width': 410, 'height': 410, 'widthPercent': 0.8, 'rescaleHeight': True, 'trialN': 30, 'loaded': True, 'loadedTime': 5807.300000190735, 'positionName': 'CENTER', 'positionCoords': [478, 179]}]",Rate how much you want to eat this food from 0 (least) to 10 (most).,81485.90000009537,1669829374271,kiwi,1686.7999997138977,True,2.02,83172.69999980927,1686.7999997138977,True,HRV,HRV_0018,2022-11-30 17:30:50
31,"[{'imgObject': {}, 'id': 'pear', 'src': '/static/foodstim60/pear.jpg', 'key': 'NaN', 'origWidth': 411, 'origHeight': 410, 'width': 411, 'height': 410, 'widthPercent': 0.8, 'rescaleHeight': True, 'trialN': 31, 'loaded': True, 'loadedTime': 5821.300000190735, 'positionName': 'CENTER', 'positionCoords': [477.5, 179]}]",Rate how much you want to eat this food from 0 (least) to 10 (most).,83180.90000009537,1669829375966,pear,2056.5999999046326,True,6.8,85237.5,2056.5999999046326,True,HRV,HRV_0018,2022-11-30 17:30:50
32,"[{'imgObject': {}, 'id': 'chickenfingers', 'src': '/static/foodstim60/chickenfingers.jpg', 'key': 'NaN', 'origWidth': 410, 'origHeight': 410, 'width': 410, 'height': 410, 'widthPercent': 0.8, 'rescaleHeight': True, 'trialN': 32, 'loaded': True, 'loadedTime': 5824.099999904633, 'positionName': 'CENTER', 'positionCoords': [478, 179]}]",Rate how much you want to eat this food from 0 (least) to 10 (most).,85246.19999980927,1669829378032,chickenfingers,2119.1000003814697,True,8.540000000000001,87365.30000019073,2119.1000003814697,True,HRV,HRV_0018,2022-11-30 17:30:50
33,"[{'imgObject': {}, 'id': 'luckycharms', 'src': '/static/foodstim60/luckycharms.jpg', 'key': 'NaN', 'origWidth': 410, 'origHeight': 409, 'width': 410, 'height': 409, 'widthPercent': 0.8, 'rescaleHeight': True, 'trialN': 33, 'loaded': True, 'loadedTime': 5827, 'positionName': 'CENTER', 'positionCoords': [478, 179.5]}]",Rate how much you want to eat this food from 0 (least) to 10 (most).,87378.59999990463,1669829380164,luckycharms,1490.5,True,5.54,88869.09999990463,1490.5,True,HRV,HRV_0018,2022-11-30 17:30:50
34,"[{'imgObject': {}, 'id': 'burrito', 'src': '/static/foodstim60/burrito.jpg', 'key': 'NaN', 'origWidth': 410, 'origHeight': 410, 'width': 410, 'height': 410, 'widthPercent': 0.8, 'rescaleHeight': True, 'trialN': 34, 'loaded': True, 'loadedTime': 5830, 'positionName': 'CENTER', 'positionCoords': [478, 179]}]",Rate how much you want to eat this food from 0 (least) to 10 (most).,88880.19999980927,1669829381666,burrito,1949.5,True,7.13,90829.69999980927,1949.5,True,HRV,HRV_0018,2022-11-30 17:30:50
35,"[{'imgObject': {}, 'id': 'cherries', 'src': '/static/foodstim60/cherries.jpg', 'key': 'NaN', 'origWidth': 410, 'origHeight': 411, 'width': 410, 'height': 411, 'widthPercent': 0.8, 'rescaleHeight': True, 'trialN': 35, 'loaded': True, 'loadedTime': 5997.099999904633, 'positionName': 'CENTER', 'positionCoords': [478, 178.5]}]",Rate how much you want to eat this food from 0 (least) to 10 (most).,90839.40000009537,1669829383625,cherries,1661.2999997138977,True,5.7700000000000005,92500.69999980927,1661.2999997138977,True,HRV,HRV_0018,2022-11-30 17:30:50
36,"[{'imgObject': {}, 'id': 'mango', 'src': '/static/foodstim60/mango.jpg', 'key': 'NaN', 'origWidth': 411, 'origHeight': 411, 'width': 411, 'height': 411, 'widthPercent': 0.8, 'rescaleHeight': True, 'trialN': 36, 'loaded': True, 'loadedTime': 5999.900000095367, 'positionName': 'CENTER', 'positionCoords': [477.5, 178.5]}]",Rate how much you want to eat this food from 0 (least) to 10 (most).,92505.59999990463,1669829385291,mango,3678.800000190735,True,5.07,96184.40000009537,3678.800000190735,True,HRV,HRV_0018,2022-11-30 17:30:50
37,"[{'imgObject': {}, 'id': 'burger', 'src': '/static/foodstim60/burger.jpg', 'key': 'NaN', 'origWidth': 409, 'origHeight': 409, 'width': 409, 'height': 409, 'widthPercent': 0.8, 'rescaleHeight': True, 'trialN': 37, 'loaded': True, 'loadedTime': 6023.400000095367, 'positionName': 'CENTER', 'positionCoords': [478.5, 179.5]}]",Rate how much you want to eat this food from 0 (least) to 10 (most).,96190.80000019073,1669829388976,burger,2416.7999997138977,True,6.99,98607.59999990463,2416.7999997138977,True,HRV,HRV_0018,2022-11-30 17:30:50
38,"[{'imgObject': {}, 'id': 'eggs', 'src': '/static/foodstim60/eggs.jpg', 'key': 'NaN', 'origWidth': 409, 'origHeight': 409, 'width': 409, 'height': 409, 'widthPercent': 0.8, 'rescaleHeight': True, 'trialN': 38, 'loaded': True, 'loadedTime': 6026.099999904633, 'positionName': 'CENTER', 'positionCoords': [478.5, 179.5]}]",Rate how much you want to eat this food from 0 (least) to 10 (most).,98614.59999990463,1669829391400,eggs,1743.4000000953674,True,7.94,100358.0,1743.4000000953674,True,HRV,HRV_0018,2022-11-30 17:30:50
39,"[{'imgObject': {}, 'id': 'salad w chicken', 'src': '/static/foodstim60/salad w chicken.jpg', 'key': 'NaN', 'origWidth': 411, 'origHeight': 411, 'width': 411, 'height': 411, 'widthPercent': 0.8, 'rescaleHeight': True, 'trialN': 39, 'loaded': True, 'loadedTime': 6037.5, 'positionName': 'CENTER', 'positionCoords': [477.5, 178.5]}]",Rate how much you want to eat this food from 0 (least) to 10 (most).,100365.09999990463,1669829393150,salad w chicken,2137.2000002861023,True,6.7700000000000005,102502.30000019073,2137.2000002861023,True,HRV,HRV_0018,2022-11-30 17:30:50
40,"[{'imgObject': {}, 'id': 'raspberries', 'src': '/static/foodstim60/raspberries.jpg', 'key': 'NaN', 'origWidth': 411, 'origHeight': 411, 'width': 411, 'height': 411, 'widthPercent': 0.8, 'rescaleHeight': True, 'trialN': 40, 'loaded': True, 'loadedTime': 6048.599999904633, 'positionName': 'CENTER', 'positionCoords': [477.5, 178.5]}]",Rate how much you want to eat this food from 0 (least) to 10 (most).,102507.59999990463,1669829395293,raspberries,1762.8000001907349,True,6.25,104270.40000009537,1762.8000001907349,True,HRV,HRV_0018,2022-11-30 17:30:50
41,"[{'imgObject': {}, 'id': 'blueberries', 'src': '/static/foodstim60/blueberries.jpg', 'key': 'NaN', 'origWidth': 411, 'origHeight': 411, 'width': 411, 'height': 411, 'widthPercent': 0.8, 'rescaleHeight': True, 'trialN': 41, 'loaded': True, 'loadedTime': 6238.900000095367, 'positionName': 'CENTER', 'positionCoords': [477.5, 178.5]}]",Rate how much you want to eat this food from 0 (least) to 10 (most).,104281.0,1669829397066,blueberries,1861.5999999046326,True,5.2,106142.59999990463,1861.5999999046326,True,HRV,HRV_0018,2022-11-30 17:30:50
42,"[{'imgObject': {}, 'id': 'fruitsalad', 'src': '/static/foodstim60/fruitsalad.jpg', 'key': 'NaN', 'origWidth': 410, 'origHeight': 410, 'width': 410, 'height': 410, 'widthPercent': 0.8, 'rescaleHeight': True, 'trialN': 42, 'loaded': True, 'loadedTime': 6211.300000190735, 'positionName': 'CENTER', 'positionCoords': [478, 179]}]",Rate how much you want to eat this food from 0 (least) to 10 (most).,106151.59999990463,1669829398937,fruitsalad,2136.2000002861023,True,5.08,108287.80000019073,2136.2000002861023,True,HRV,HRV_0018,2022-11-30 17:30:50
43,"[{'imgObject': {}, 'id': 'shreddedwheatwithmilk', 'src': '/static/foodstim60/shreddedwheatwithmilk.jpg', 'key': 'NaN', 'origWidth': 410, 'origHeight': 410, 'width': 410, 'height': 410, 'widthPercent': 0.8, 'rescaleHeight': True, 'trialN': 43, 'loaded': True, 'loadedTime': 6230.199999809265, 'positionName': 'CENTER', 'positionCoords': [478, 179]}]",Rate how much you want to eat this food from 0 (least) to 10 (most).,108296.59999990463,1669829401082,shreddedwheatwithmilk,1870.5,True,4.59,110167.09999990463,1870.5,True,HRV,HRV_0018,2022-11-30 17:30:50
44,"[{'imgObject': {}, 'id': 'banana', 'src': '/static/foodstim60/banana.jpg', 'key': 'NaN', 'origWidth': 410, 'origHeight': 410, 'width': 410, 'height': 410, 'widthPercent': 0.8, 'rescaleHeight': True, 'trialN': 44, 'loaded': True, 'loadedTime': 6246.099999904633, 'positionName': 'CENTER', 'positionCoords': [478, 179]}]",Rate how much you want to eat this food from 0 (least) to 10 (most).,110175.59999990463,1669829402961,banana,1724.0,True,6.8,111899.59999990463,1724.0,True,HRV,HRV_0018,2022-11-30 17:30:50
45,"[{'imgObject': {}, 'id': 'rigatoni and sauce', 'src': '/static/foodstim60/rigatoni and sauce.jpg', 'key': 'NaN', 'origWidth': 410, 'origHeight': 411, 'width': 410, 'height': 411, 'widthPercent': 0.8, 'rescaleHeight': True, 'trialN': 45, 'loaded': True, 'loadedTime': 6249.900000095367, 'positionName': 'CENTER', 'positionCoords': [478, 178.5]}]",Rate how much you want to eat this food from 0 (least) to 10 (most).,111905.90000009537,1669829404691,rigatoni and sauce,2696.5,True,5.74,114602.40000009537,2696.5,True,HRV,HRV_0018,2022-11-30 17:30:50
46,"[{'imgObject': {}, 'id': 'yogurt no spoon', 'src': '/static/foodstim60/yogurt no spoon.jpg', 'key': 'NaN', 'origWidth': 411, 'origHeight': 410, 'width': 411, 'height': 410, 'widthPercent': 0.8, 'rescaleHeight': True, 'trialN': 46, 'loaded': True, 'loadedTime': 6259.599999904633, 'positionName': 'CENTER', 'positionCoords': [477.5, 179]}]",Rate how much you want to eat this food from 0 (least) to 10 (most).,114606.19999980927,1669829407392,yogurt no spoon,3358.0,True,5.16,117964.19999980927,3358.0,True,HRV,HRV_0018,2022-11-30 17:30:50
47,"[{'imgObject': {}, 'id': 'baked potato', 'src': '/static/foodstim60/baked potato.jpg', 'key': 'NaN', 'origWidth': 409, 'origHeight': 410, 'width': 409, 'height': 410, 'widthPercent': 0.8, 'rescaleHeight': True, 'trialN': 47, 'loaded': True, 'loadedTime': 6410.800000190735, 'positionName': 'CENTER', 'positionCoords': [478.5, 179]}]",Rate how much you want to eat this food from 0 (least) to 10 (most).,117975.0,1669829410760,baked potato,3165.199999809265,True,7.59,121140.19999980927,3165.199999809265,True,HRV,HRV_0018,2022-11-30 17:30:50
48,"[{'imgObject': {}, 'id': 'bagel and cc', 'src': '/static/foodstim60/bagel and cc.jpg', 'key': 'NaN', 'origWidth': 410, 'origHeight': 410, 'width': 410, 'height': 410, 'widthPercent': 0.8, 'rescaleHeight': True, 'trialN': 48, 'loaded': True, 'loadedTime': 6426.699999809265, 'positionName': 'CENTER', 'positionCoords': [478, 179]}]",Rate how much you want to eat this food from 0 (least) to 10 (most).,121152.69999980927,1669829413938,bagel and cc,6402.0,True,9.370000000000001,127554.69999980927,6402.0,True,HRV,HRV_0018,2022-11-30 17:30:50
49,"[{'imgObject': {}, 'id': 'lox', 'src': '/static/foodstim60/lox.jpg', 'key': 'NaN', 'origWidth': 410, 'origHeight': 411, 'width': 410, 'height': 411, 'widthPercent': 0.8, 'rescaleHeight': True, 'trialN': 49, 'loaded': True, 'loadedTime': 6429.800000190735, 'positionName': 'CENTER', 'positionCoords': [478, 178.5]}]",Rate how much you want to eat this food from 0 (least) to 10 (most).,127566.90000009537,1669829420352,lox,2428.5,True,8.2,129995.40000009537,2428.5,True,HRV,HRV_0018,2022-11-30 17:30:50
50,"[{'imgObject': {}, 'id': 'cantaloupe', 'src': '/static/foodstim60/cantaloupe.jpg', 'key': 'NaN', 'origWidth': 409, 'origHeight': 409, 'width': 409, 'height': 409, 'widthPercent': 0.8, 'rescaleHeight': True, 'trialN': 50, 'loaded': True, 'loadedTime': 6433, 'positionName': 'CENTER', 'positionCoords': [478.5, 179.5]}]",Rate how much you want to eat this food from 0 (least) to 10 (most).,130002.19999980927,1669829422788,cantaloupe,3509.9000000953674,True,3.33,133512.09999990463,3509.9000000953674,True,HRV,HRV_0018,2022-11-30 17:30:50
51,"[{'imgObject': {}, 'id': 'Grapes', 'src': '/static/foodstim60/Grapes.jpg', 'key': 'NaN', 'origWidth': 411, 'origHeight': 411, 'width': 411, 'height': 411, 'widthPercent': 0.8, 'rescaleHeight': True, 'trialN': 51, 'loaded': True, 'loadedTime': 6446.300000190735, 'positionName': 'CENTER', 'positionCoords': [477.5, 178.5]}]",Rate how much you want to eat this food from 0 (least) to 10 (most).,133521.30000019073,1669829426307,Grapes,1881.2999997138977,True,6.53,135402.59999990463,1881.2999997138977,True,HRV,HRV_0018,2022-11-30 17:30:50
52,"[{'imgObject': {}, 'id': 'turkeysandwich', 'src': '/static/foodstim60/turkeysandwich.jpg', 'key': 'NaN', 'origWidth': 409, 'origHeight': 409, 'width': 409, 'height': 409, 'widthPercent': 0.8, 'rescaleHeight': True, 'trialN': 52, 'loaded': True, 'loadedTime': 6450.599999904633, 'positionName': 'CENTER', 'positionCoords': [478.5, 179.5]}]",Rate how much you want to eat this food from 0 (least) to 10 (most).,135408.59999990463,1669829428194,turkeysandwich,8690.300000190735,True,7.62,144098.90000009537,8690.300000190735,True,HRV,HRV_0018,2022-11-30 17:30:50
53,"[{'imgObject': {}, 'id': 'steak', 'src': '/static/foodstim60/steak.jpg', 'key': 'NaN', 'origWidth': 410, 'origHeight': 410, 'width': 410, 'height': 410, 'widthPercent': 0.8, 'rescaleHeight': True, 'trialN': 53, 'loaded': True, 'loadedTime': 6628.400000095367, 'positionName': 'CENTER', 'positionCoords': [478, 179]}]",Rate how much you want to eat this food from 0 (least) to 10 (most).,144110.69999980927,1669829436896,steak,1643.5,True,6.34,145754.19999980927,1643.5,True,HRV,HRV_0018,2022-11-30 17:30:50
54,"[{'imgObject': {}, 'id': 'corn cob', 'src': '/static/foodstim60/corn cob.jpg', 'key': 'NaN', 'origWidth': 411, 'origHeight': 411, 'width': 411, 'height': 411, 'widthPercent': 0.8, 'rescaleHeight': True, 'trialN': 54, 'loaded': True, 'loadedTime': 6640.599999904633, 'positionName': 'CENTER', 'positionCoords': [477.5, 178.5]}]",Rate how much you want to eat this food from 0 (least) to 10 (most).,145765.19999980927,1669829438551,corn cob,1520.0,True,7.7,147285.19999980927,1520.0,True,HRV,HRV_0018,2022-11-30 17:30:50
55,"[{'imgObject': {}, 'id': 'olives', 'src': '/static/foodstim60/olives.jpg', 'key': 'NaN', 'origWidth': 410, 'origHeight': 410, 'width': 410, 'height': 410, 'widthPercent': 0.8, 'rescaleHeight': True, 'trialN': 55, 'loaded': True, 'loadedTime': 6657.400000095367, 'positionName': 'CENTER', 'positionCoords': [478, 179]}]",Rate how much you want to eat this food from 0 (least) to 10 (most).,147299.59999990463,1669829440085,olives,1708.9000000953674,True,6.2700000000000005,149008.5,1708.9000000953674,True,HRV,HRV_0018,2022-11-30 17:30:50
56,"[{'imgObject': {}, 'id': 'turkey sandwich', 'src': '/static/foodstim60/turkey sandwich.jpg', 'key': 'NaN', 'origWidth': 409, 'origHeight': 409, 'width': 409, 'height': 409, 'widthPercent': 0.8, 'rescaleHeight': True, 'trialN': 56, 'loaded': True, 'loadedTime': 6663.599999904633, 'positionName': 'CENTER', 'positionCoords': [478.5, 179.5]}]",Rate how much you want to eat this food from 0 (least) to 10 (most).,149013.80000019073,1669829441799,turkey sandwich,1535.3999996185303,True,7.94,150549.19999980927,1535.3999996185303,True,HRV,HRV_0018,2022-11-30 17:30:50
57,"[{'imgObject': {}, 'id': 'edamame', 'src': '/static/foodstim60/edamame.jpg', 'key': 'NaN', 'origWidth': 409, 'origHeight': 410, 'width': 409, 'height': 410, 'widthPercent': 0.8, 'rescaleHeight': True, 'trialN': 57, 'loaded': True, 'loadedTime': 6666.900000095367, 'positionName': 'CENTER', 'positionCoords': [478.5, 179]}]",Rate how much you want to eat this food from 0 (least) to 10 (most).,150557.30000019073,1669829443343,edamame,1645.0999999046326,True,3.24,152202.40000009537,1645.0999999046326,True,HRV,HRV_0018,2022-11-30 17:30:50
58,"[{'imgObject': {}, 'id': 'salmon', 'src': '/static/foodstim60/salmon.jpg', 'key': 'NaN', 'origWidth': 410, 'origHeight': 409, 'width': 410, 'height': 409, 'widthPercent': 0.8, 'rescaleHeight': True, 'trialN': 58, 'loaded': True, 'loadedTime': 6671.400000095367, 'positionName': 'CENTER', 'positionCoords': [478, 179.5]}]",Rate how much you want to eat this food from 0 (least) to 10 (most).,152210.80000019073,1669829444996,salmon,2083.0999999046326,True,8.89,154293.90000009537,2083.0999999046326,True,HRV,HRV_0018,2022-11-30 17:30:50
59,"[{'imgObject': {}, 'id': 'cherry tomato', 'src': '/static/foodstim60/cherry tomato.jpg', 'key': 'NaN', 'origWidth': 410, 'origHeight': 410, 'width': 410, 'height': 410, 'widthPercent': 0.8, 'rescaleHeight': True, 'trialN': 59, 'loaded': True, 'loadedTime': 6861.300000190735, 'positionName': 'CENTER', 'positionCoords': [478, 179]}]",Rate how much you want to eat this food from 0 (least) to 10 (most).,154298.69999980927,1669829447084,cherry tomato,3127.7000002861023,True,6.33,157426.40000009537,3127.7000002861023,True,HRV,HRV_0018,2022-11-30 17:30:50
