trialN,stimuli,trialStartTime,trialStartTime_UNIX,stimulus1,stimulus2,stimulus1Bid,stimulus2Bid,delta,selected,rt,rt_UNIX,rt_perfnow,receivedResponse,rsp,trialEndTime,trialDuration,trialEndTime_UNIX,trialDuration_UNIX,exp,subjectId,date
0,"[{'imgObject': {}, 'id': 'corn cob', 'src': '/static/foodstim60/corn cob.jpg', 'key': 'u', 'origWidth': 411, 'origHeight': 411, 'width': 411, 'height': 411, 'widthPercent': 0.45, 'rescaleHeight': False, 'trialN': 0, 'loaded': True, 'loadedTime': 5212.099999904633, 'positionName': 'LEFT', 'positionCoords': [244.68, 178.5], 'bid': 7.7}, {'imgObject': {}, 'id': 'turkeysandwich', 'src': '/static/foodstim60/turkeysandwich.jpg', 'key': 'i', 'origWidth': 409, 'origHeight': 409, 'width': 409, 'height': 409, 'widthPercent': 0.45, 'rescaleHeight': False, 'trialN': 0, 'loaded': True, 'loadedTime': 5397.900000095367, 'positionName': 'RIGHT', 'positionCoords': [710.32, 179.5], 'bid': 7.62}]",10661.799999713898,1669829571835,corn cob,turkeysandwich,7.7,7.62,-0.08000000000000007,turkeysandwich,1389.7000002861023,1422,1421.5,True,i,12584.799999713898,1923.0,1669829573759,1924,HRV,HRV_0018,2022-11-30 17:39:38
1,"[{'imgObject': {}, 'id': 'corn cob', 'src': '/static/foodstim60/corn cob.jpg', 'key': 'u', 'origWidth': 411, 'origHeight': 411, 'width': 411, 'height': 411, 'widthPercent': 0.45, 'rescaleHeight': False, 'trialN': 1, 'loaded': True, 'loadedTime': 5219.900000095367, 'positionName': 'LEFT', 'positionCoords': [244.68, 178.5], 'bid': 7.7}, {'imgObject': {}, 'id': 'ice cream sundae 002', 'src': '/static/foodstim60/ice cream sundae 002.jpg', 'key': 'i', 'origWidth': 409, 'origHeight': 409, 'width': 409, 'height': 409, 'widthPercent': 0.45, 'rescaleHeight': False, 'trialN': 1, 'loaded': True, 'loadedTime': 5436.5, 'positionName': 'RIGHT', 'positionCoords': [710.32, 179.5], 'bid': 8.85}]",12585.299999713898,1669829573759,corn cob,ice cream sundae 002,7.7,8.85,1.1499999999999995,ice cream sundae 002,1055.3000001907349,1061,1060.7000002861023,True,i,14147.299999713898,1562.0,1669829575321,1562,HRV,HRV_0018,2022-11-30 17:39:38
2,"[{'imgObject': {}, 'id': 'bagel and cc', 'src': '/static/foodstim60/bagel and cc.jpg', 'key': 'u', 'origWidth': 410, 'origHeight': 410, 'width': 410, 'height': 410, 'widthPercent': 0.45, 'rescaleHeight': False, 'trialN': 2, 'loaded': True, 'loadedTime': 5488.900000095367, 'positionName': 'LEFT', 'positionCoords': [245.68, 179], 'bid': 9.37}, {'imgObject': {}, 'id': 'salmon', 'src': '/static/foodstim60/salmon.jpg', 'key': 'i', 'origWidth': 410, 'origHeight': 409, 'width': 410, 'height': 409, 'widthPercent': 0.45, 'rescaleHeight': False, 'trialN': 2, 'loaded': True, 'loadedTime': 5586.299999713898, 'positionName': 'RIGHT', 'positionCoords': [710.32, 179.5], 'bid': 8.89}]",14148.199999809265,1669829575322,bagel and cc,salmon,9.37,8.89,-0.47999999999999865,bagel and cc,1610.9000000953674,1615,1614.9000000953674,True,u,16265.799999713898,2117.5999999046326,1669829577440,2118,HRV,HRV_0018,2022-11-30 17:39:38
3,"[{'imgObject': {}, 'id': 'hashbrowns', 'src': '/static/foodstim60/hashbrowns.jpg', 'key': 'u', 'origWidth': 411, 'origHeight': 410, 'width': 411, 'height': 410, 'widthPercent': 0.45, 'rescaleHeight': False, 'trialN': 3, 'loaded': True, 'loadedTime': 5658.5, 'positionName': 'LEFT', 'positionCoords': [244.68, 179], 'bid': 1.5}, {'imgObject': {}, 'id': 'edamame', 'src': '/static/foodstim60/edamame.jpg', 'key': 'i', 'origWidth': 409, 'origHeight': 410, 'width': 409, 'height': 410, 'widthPercent': 0.45, 'rescaleHeight': False, 'trialN': 3, 'loaded': True, 'loadedTime': 5731.599999904633, 'positionName': 'RIGHT', 'positionCoords': [710.32, 179], 'bid': 3.24}]",16266.900000095367,1669829577441,hashbrowns,edamame,1.5,3.24,1.7400000000000002,hashbrowns,1723.5,1727,1727.5,True,u,18496.5,2229.5999999046326,1669829579670,2229,HRV,HRV_0018,2022-11-30 17:39:38
4,"[{'imgObject': {}, 'id': 'salad w chicken', 'src': '/static/foodstim60/salad w chicken.jpg', 'key': 'u', 'origWidth': 411, 'origHeight': 411, 'width': 411, 'height': 411, 'widthPercent': 0.45, 'rescaleHeight': False, 'trialN': 4, 'loaded': True, 'loadedTime': 6049.199999809265, 'positionName': 'LEFT', 'positionCoords': [244.68, 178.5], 'bid': 6.7700000000000005}, {'imgObject': {}, 'id': 'sushi w_condiments', 'src': '/static/foodstim60/sushi w_condiments.jpg', 'key': 'i', 'origWidth': 410, 'origHeight': 410, 'width': 410, 'height': 410, 'widthPercent': 0.45, 'rescaleHeight': False, 'trialN': 4, 'loaded': True, 'loadedTime': 6330.099999904633, 'positionName': 'RIGHT', 'positionCoords': [710.32, 179], 'bid': 1.72}]",18497.599999904633,1669829579671,salad w chicken,sushi w_condiments,6.7700000000000005,1.72,-5.050000000000001,salad w chicken,1456.5,1460,1459.0999999046326,True,u,20457.900000095367,1960.3000001907349,1669829581632,1961,HRV,HRV_0018,2022-11-30 17:39:38
5,"[{'imgObject': {}, 'id': 'turkey sandwich', 'src': '/static/foodstim60/turkey sandwich.jpg', 'key': 'u', 'origWidth': 409, 'origHeight': 409, 'width': 409, 'height': 409, 'widthPercent': 0.45, 'rescaleHeight': False, 'trialN': 5, 'loaded': True, 'loadedTime': 6364.699999809265, 'positionName': 'LEFT', 'positionCoords': [246.68, 179.5], 'bid': 7.94}, {'imgObject': {}, 'id': 'strawberries', 'src': '/static/foodstim60/strawberries.jpg', 'key': 'i', 'origWidth': 410, 'origHeight': 410, 'width': 410, 'height': 410, 'widthPercent': 0.45, 'rescaleHeight': False, 'trialN': 5, 'loaded': True, 'loadedTime': 6537.900000095367, 'positionName': 'RIGHT', 'positionCoords': [710.32, 179], 'bid': 7.82}]",20458.5,1669829581632,turkey sandwich,strawberries,7.94,7.82,-0.1200000000000001,turkey sandwich,1406.5,1411,1410.4000000953674,True,u,22369.5,1911.0,1669829583543,1911,HRV,HRV_0018,2022-11-30 17:39:38
6,"[{'imgObject': {}, 'id': 'lox', 'src': '/static/foodstim60/lox.jpg', 'key': 'u', 'origWidth': 410, 'origHeight': 411, 'width': 410, 'height': 411, 'widthPercent': 0.45, 'rescaleHeight': False, 'trialN': 6, 'loaded': True, 'loadedTime': 6739.5, 'positionName': 'LEFT', 'positionCoords': [245.68, 178.5], 'bid': 8.2}, {'imgObject': {}, 'id': 'baked potato', 'src': '/static/foodstim60/baked potato.jpg', 'key': 'i', 'origWidth': 409, 'origHeight': 410, 'width': 409, 'height': 410, 'widthPercent': 0.45, 'rescaleHeight': False, 'trialN': 6, 'loaded': True, 'loadedTime': 7112.199999809265, 'positionName': 'RIGHT', 'positionCoords': [710.32, 179], 'bid': 7.59}]",22370.099999904633,1669829583544,lox,baked potato,8.2,7.59,-0.6099999999999994,lox,1362.3000001907349,1374,1374.0999999046326,True,u,24245.0,1874.9000000953674,1669829585419,1875,HRV,HRV_0018,2022-11-30 17:39:38
7,"[{'imgObject': {}, 'id': 'salad w chicken', 'src': '/static/foodstim60/salad w chicken.jpg', 'key': 'u', 'origWidth': 411, 'origHeight': 411, 'width': 411, 'height': 411, 'widthPercent': 0.45, 'rescaleHeight': False, 'trialN': 7, 'loaded': True, 'loadedTime': 6036.799999713898, 'positionName': 'LEFT', 'positionCoords': [244.68, 178.5], 'bid': 6.7700000000000005}, {'imgObject': {}, 'id': 'Grapes', 'src': '/static/foodstim60/Grapes.jpg', 'key': 'i', 'origWidth': 411, 'origHeight': 411, 'width': 411, 'height': 411, 'widthPercent': 0.45, 'rescaleHeight': False, 'trialN': 7, 'loaded': True, 'loadedTime': 7120.299999713898, 'positionName': 'RIGHT', 'positionCoords': [710.32, 178.5], 'bid': 6.53}]",24245.400000095367,1669829585419,salad w chicken,Grapes,6.7700000000000005,6.53,-0.2400000000000002,salad w chicken,1631.2999997138977,1637,1636.5,True,u,26384.099999904633,2138.699999809265,1669829587558,2139,HRV,HRV_0018,2022-11-30 17:39:38
8,"[{'imgObject': {}, 'id': 'luckycharms', 'src': '/static/foodstim60/luckycharms.jpg', 'key': 'u', 'origWidth': 410, 'origHeight': 409, 'width': 410, 'height': 409, 'widthPercent': 0.45, 'rescaleHeight': False, 'trialN': 8, 'loaded': True, 'loadedTime': 7365, 'positionName': 'LEFT', 'positionCoords': [245.68, 179.5], 'bid': 5.54}, {'imgObject': {}, 'id': 'shreddedwheatwithmilk', 'src': '/static/foodstim60/shreddedwheatwithmilk.jpg', 'key': 'i', 'origWidth': 410, 'origHeight': 410, 'width': 410, 'height': 410, 'widthPercent': 0.45, 'rescaleHeight': False, 'trialN': 8, 'loaded': True, 'loadedTime': 7540.599999904633, 'positionName': 'RIGHT', 'positionCoords': [710.32, 179], 'bid': 4.59}]",26385.0,1669829587559,luckycharms,shreddedwheatwithmilk,5.54,4.59,-0.9500000000000002,luckycharms,1487.9000000953674,1491,1491.5,True,u,28377.699999809265,1992.6999998092651,1669829589551,1992,HRV,HRV_0018,2022-11-30 17:39:38
9,"[{'imgObject': {}, 'id': 'turkeysandwich', 'src': '/static/foodstim60/turkeysandwich.jpg', 'key': 'u', 'origWidth': 409, 'origHeight': 409, 'width': 409, 'height': 409, 'widthPercent': 0.45, 'rescaleHeight': False, 'trialN': 9, 'loaded': True, 'loadedTime': 5409.299999713898, 'positionName': 'LEFT', 'positionCoords': [246.68, 179.5], 'bid': 7.62}, {'imgObject': {}, 'id': 'bagel and cc', 'src': '/static/foodstim60/bagel and cc.jpg', 'key': 'i', 'origWidth': 410, 'origHeight': 410, 'width': 410, 'height': 410, 'widthPercent': 0.45, 'rescaleHeight': False, 'trialN': 9, 'loaded': True, 'loadedTime': 5526.900000095367, 'positionName': 'RIGHT', 'positionCoords': [710.32, 179], 'bid': 9.37}]",28378.5,1669829589552,turkeysandwich,bagel and cc,7.62,9.37,1.7499999999999991,bagel and cc,1367.4000000953674,1371,1370.6999998092651,True,i,30251.5,1873.0,1669829591425,1873,HRV,HRV_0018,2022-11-30 17:39:38
10,"[{'imgObject': {}, 'id': 'rigatoni and sauce', 'src': '/static/foodstim60/rigatoni and sauce.jpg', 'key': 'u', 'origWidth': 410, 'origHeight': 411, 'width': 410, 'height': 411, 'widthPercent': 0.45, 'rescaleHeight': False, 'trialN': 10, 'loaded': True, 'loadedTime': 7573.400000095367, 'positionName': 'LEFT', 'positionCoords': [245.68, 178.5], 'bid': 5.74}, {'imgObject': {}, 'id': 'cherry tomato', 'src': '/static/foodstim60/cherry tomato.jpg', 'key': 'i', 'origWidth': 410, 'origHeight': 410, 'width': 410, 'height': 410, 'widthPercent': 0.45, 'rescaleHeight': False, 'trialN': 10, 'loaded': True, 'loadedTime': 7952.400000095367, 'positionName': 'RIGHT', 'positionCoords': [710.32, 179], 'bid': 6.33}]",30252.400000095367,1669829591426,rigatoni and sauce,cherry tomato,5.74,6.33,0.5899999999999999,rigatoni and sauce,1778.5999999046326,1782,1781.7999997138977,True,u,32534.699999809265,2282.2999997138977,1669829593708,2282,HRV,HRV_0018,2022-11-30 17:39:38
11,"[{'imgObject': {}, 'id': 'raisin bran w milk', 'src': '/static/foodstim60/raisin bran w milk.jpg', 'key': 'u', 'origWidth': 411, 'origHeight': 411, 'width': 411, 'height': 411, 'widthPercent': 0.45, 'rescaleHeight': False, 'trialN': 11, 'loaded': True, 'loadedTime': 7979.5, 'positionName': 'LEFT', 'positionCoords': [244.68, 178.5], 'bid': 8.14}, {'imgObject': {}, 'id': 'salmon', 'src': '/static/foodstim60/salmon.jpg', 'key': 'i', 'origWidth': 410, 'origHeight': 409, 'width': 410, 'height': 409, 'widthPercent': 0.45, 'rescaleHeight': False, 'trialN': 11, 'loaded': True, 'loadedTime': 5566.699999809265, 'positionName': 'RIGHT', 'positionCoords': [710.32, 179.5], 'bid': 8.89}]",32535.099999904633,1669829593709,raisin bran w milk,salmon,8.14,8.89,0.75,raisin bran w milk,2257.0999999046326,2264,2264.0999999046326,True,u,35300.90000009537,2765.800000190735,1669829596475,2766,HRV,HRV_0018,2022-11-30 17:39:38
12,"[{'imgObject': {}, 'id': 'apple slices', 'src': '/static/foodstim60/apple slices.jpg', 'key': 'u', 'origWidth': 409, 'origHeight': 410, 'width': 409, 'height': 410, 'widthPercent': 0.45, 'rescaleHeight': False, 'trialN': 12, 'loaded': True, 'loadedTime': 8148.199999809265, 'positionName': 'LEFT', 'positionCoords': [246.68, 179], 'bid': 5.86}, {'imgObject': {}, 'id': 'ice cream sundae 002', 'src': '/static/foodstim60/ice cream sundae 002.jpg', 'key': 'i', 'origWidth': 409, 'origHeight': 409, 'width': 409, 'height': 409, 'widthPercent': 0.45, 'rescaleHeight': False, 'trialN': 12, 'loaded': True, 'loadedTime': 5441.299999713898, 'positionName': 'RIGHT', 'positionCoords': [710.32, 179.5], 'bid': 8.85}]",35301.7999997139,1669829596476,apple slices,ice cream sundae 002,5.86,8.85,2.9899999999999993,ice cream sundae 002,1772.4000000953674,1777,1777.0,True,i,37579.90000009537,2278.1000003814697,1669829598754,2278,HRV,HRV_0018,2022-11-30 17:39:38
13,"[{'imgObject': {}, 'id': 'sweetpotato', 'src': '/static/foodstim60/sweetpotato.jpg', 'key': 'u', 'origWidth': 410, 'origHeight': 410, 'width': 410, 'height': 410, 'widthPercent': 0.45, 'rescaleHeight': False, 'trialN': 13, 'loaded': True, 'loadedTime': 8150.299999713898, 'positionName': 'LEFT', 'positionCoords': [245.68, 179], 'bid': 0.5700000000000001}, {'imgObject': {}, 'id': 'steak', 'src': '/static/foodstim60/steak.jpg', 'key': 'i', 'origWidth': 410, 'origHeight': 410, 'width': 410, 'height': 410, 'widthPercent': 0.45, 'rescaleHeight': False, 'trialN': 13, 'loaded': True, 'loadedTime': 8316.400000095367, 'positionName': 'RIGHT', 'positionCoords': [710.32, 179], 'bid': 6.34}]",37580.2999997139,1669829598754,sweetpotato,steak,0.5700000000000001,6.34,5.77,steak,1382.8000001907349,1387,1387.2000002861023,True,i,39469.40000009537,1889.1000003814697,1669829600643,1889,HRV,HRV_0018,2022-11-30 17:39:38
14,"[{'imgObject': {}, 'id': 'Grapes', 'src': '/static/foodstim60/Grapes.jpg', 'key': 'u', 'origWidth': 411, 'origHeight': 411, 'width': 411, 'height': 411, 'widthPercent': 0.45, 'rescaleHeight': False, 'trialN': 14, 'loaded': True, 'loadedTime': 7150.299999713898, 'positionName': 'LEFT', 'positionCoords': [244.68, 178.5], 'bid': 6.53}, {'imgObject': {}, 'id': 'steak', 'src': '/static/foodstim60/steak.jpg', 'key': 'i', 'origWidth': 410, 'origHeight': 410, 'width': 410, 'height': 410, 'widthPercent': 0.45, 'rescaleHeight': False, 'trialN': 14, 'loaded': True, 'loadedTime': 8309.199999809265, 'positionName': 'RIGHT', 'positionCoords': [710.32, 179], 'bid': 6.34}]",39470.199999809265,1669829600644,Grapes,steak,6.53,6.34,-0.1900000000000004,steak,1650.3000001907349,1654,1654.0999999046326,True,i,41625.7999997139,2155.5999999046326,1669829602800,2156,HRV,HRV_0018,2022-11-30 17:39:38
15,"[{'imgObject': {}, 'id': 'banana', 'src': '/static/foodstim60/banana.jpg', 'key': 'u', 'origWidth': 410, 'origHeight': 410, 'width': 410, 'height': 410, 'widthPercent': 0.45, 'rescaleHeight': False, 'trialN': 15, 'loaded': True, 'loadedTime': 8530, 'positionName': 'LEFT', 'positionCoords': [245.68, 179], 'bid': 6.8}, {'imgObject': {}, 'id': 'baked potato', 'src': '/static/foodstim60/baked potato.jpg', 'key': 'i', 'origWidth': 409, 'origHeight': 410, 'width': 409, 'height': 410, 'widthPercent': 0.45, 'rescaleHeight': False, 'trialN': 15, 'loaded': True, 'loadedTime': 7092.699999809265, 'positionName': 'RIGHT', 'positionCoords': [710.32, 179], 'bid': 7.59}]",41626.40000009537,1669829602800,banana,baked potato,6.8,7.59,0.79,banana,1720.8999996185303,1726,1726.0,True,u,43853.59999990463,2227.199999809265,1669829605027,2227,HRV,HRV_0018,2022-11-30 17:39:38
16,"[{'imgObject': {}, 'id': 'roastedpotatoes', 'src': '/static/foodstim60/roastedpotatoes.jpg', 'key': 'u', 'origWidth': 409, 'origHeight': 410, 'width': 409, 'height': 410, 'widthPercent': 0.45, 'rescaleHeight': False, 'trialN': 16, 'loaded': True, 'loadedTime': 8552, 'positionName': 'LEFT', 'positionCoords': [246.68, 179], 'bid': 6.99}, {'imgObject': {}, 'id': 'banana', 'src': '/static/foodstim60/banana.jpg', 'key': 'i', 'origWidth': 410, 'origHeight': 410, 'width': 410, 'height': 410, 'widthPercent': 0.45, 'rescaleHeight': False, 'trialN': 16, 'loaded': True, 'loadedTime': 8517.799999713898, 'positionName': 'RIGHT', 'positionCoords': [710.32, 179], 'bid': 6.8}]",43854.59999990463,1669829605028,roastedpotatoes,banana,6.99,6.8,-0.1900000000000004,roastedpotatoes,1866.4000000953674,1871,1870.5999999046326,True,u,46225.90000009537,2371.300000190735,1669829607400,2372,HRV,HRV_0018,2022-11-30 17:39:38
17,"[{'imgObject': {}, 'id': 'mashed potato', 'src': '/static/foodstim60/mashed potato.jpg', 'key': 'u', 'origWidth': 409, 'origHeight': 409, 'width': 409, 'height': 409, 'widthPercent': 0.45, 'rescaleHeight': False, 'trialN': 17, 'loaded': True, 'loadedTime': 8812.599999904633, 'positionName': 'LEFT', 'positionCoords': [246.68, 179.5], 'bid': 6.47}, {'imgObject': {}, 'id': 'salad w chicken', 'src': '/static/foodstim60/salad w chicken.jpg', 'key': 'i', 'origWidth': 411, 'origHeight': 411, 'width': 411, 'height': 411, 'widthPercent': 0.45, 'rescaleHeight': False, 'trialN': 17, 'loaded': True, 'loadedTime': 5736.799999713898, 'positionName': 'RIGHT', 'positionCoords': [710.32, 178.5], 'bid': 6.7700000000000005}]",46226.40000009537,1669829607400,mashed potato,salad w chicken,6.47,6.7700000000000005,0.3000000000000007,salad w chicken,1633.7999997138977,1638,1637.7999997138977,True,i,48367.59999990463,2141.199999809265,1669829609541,2141,HRV,HRV_0018,2022-11-30 17:39:38
18,"[{'imgObject': {}, 'id': 'baked potato', 'src': '/static/foodstim60/baked potato.jpg', 'key': 'u', 'origWidth': 409, 'origHeight': 410, 'width': 409, 'height': 410, 'widthPercent': 0.45, 'rescaleHeight': False, 'trialN': 18, 'loaded': True, 'loadedTime': 7081.5, 'positionName': 'LEFT', 'positionCoords': [246.68, 179], 'bid': 7.59}, {'imgObject': {}, 'id': 'salmon', 'src': '/static/foodstim60/salmon.jpg', 'key': 'i', 'origWidth': 410, 'origHeight': 409, 'width': 410, 'height': 409, 'widthPercent': 0.45, 'rescaleHeight': False, 'trialN': 18, 'loaded': True, 'loadedTime': 5550.400000095367, 'positionName': 'RIGHT', 'positionCoords': [710.32, 179.5], 'bid': 8.89}]",48368.90000009537,1669829609543,baked potato,salmon,7.59,8.89,1.3000000000000007,salmon,2038.7999997138977,2044,2044.0999999046326,True,i,50914.0,2545.0999999046326,1669829612088,2545,HRV,HRV_0018,2022-11-30 17:39:38
19,"[{'imgObject': {}, 'id': 'popsicles', 'src': '/static/foodstim60/popsicles.jpg', 'key': 'u', 'origWidth': 410, 'origHeight': 410, 'width': 410, 'height': 410, 'widthPercent': 0.45, 'rescaleHeight': False, 'trialN': 19, 'loaded': True, 'loadedTime': 9005.099999904633, 'positionName': 'LEFT', 'positionCoords': [245.68, 179], 'bid': 7.79}, {'imgObject': {}, 'id': 'orange slices', 'src': '/static/foodstim60/orange slices.jpg', 'key': 'i', 'origWidth': 409, 'origHeight': 410, 'width': 409, 'height': 410, 'widthPercent': 0.45, 'rescaleHeight': False, 'trialN': 19, 'loaded': True, 'loadedTime': 9038.699999809265, 'positionName': 'RIGHT', 'positionCoords': [710.32, 179], 'bid': 7.69}]",50914.40000009537,1669829612088,popsicles,orange slices,7.79,7.69,-0.09999999999999964,popsicles,2220.5999999046326,2225,2224.5999999046326,True,u,53642.0,2727.5999999046326,1669829614816,2728,HRV,HRV_0018,2022-11-30 17:39:38
20,"[{'imgObject': {}, 'id': 'seaweed', 'src': '/static/foodstim60/seaweed.jpg', 'key': 'u', 'origWidth': 410, 'origHeight': 410, 'width': 410, 'height': 410, 'widthPercent': 0.45, 'rescaleHeight': False, 'trialN': 20, 'loaded': True, 'loadedTime': 9226, 'positionName': 'LEFT', 'positionCoords': [245.68, 179], 'bid': 0.31}, {'imgObject': {}, 'id': 'shreddedwheatwithmilk', 'src': '/static/foodstim60/shreddedwheatwithmilk.jpg', 'key': 'i', 'origWidth': 410, 'origHeight': 410, 'width': 410, 'height': 410, 'widthPercent': 0.45, 'rescaleHeight': False, 'trialN': 20, 'loaded': True, 'loadedTime': 7559.699999809265, 'positionName': 'RIGHT', 'positionCoords': [710.32, 179], 'bid': 4.59}]",53642.59999990463,1669829614816,seaweed,shreddedwheatwithmilk,0.31,4.59,4.28,shreddedwheatwithmilk,1186.5,1192,1191.6999998092651,True,i,55337.09999990463,1694.5,1669829616511,1695,HRV,HRV_0018,2022-11-30 17:39:38
21,"[{'imgObject': {}, 'id': 'orange slices', 'src': '/static/foodstim60/orange slices.jpg', 'key': 'u', 'origWidth': 409, 'origHeight': 410, 'width': 409, 'height': 410, 'widthPercent': 0.45, 'rescaleHeight': False, 'trialN': 21, 'loaded': True, 'loadedTime': 9045, 'positionName': 'LEFT', 'positionCoords': [246.68, 179], 'bid': 7.69}, {'imgObject': {}, 'id': 'chickenfingers', 'src': '/static/foodstim60/chickenfingers.jpg', 'key': 'i', 'origWidth': 410, 'origHeight': 410, 'width': 410, 'height': 410, 'widthPercent': 0.45, 'rescaleHeight': False, 'trialN': 21, 'loaded': True, 'loadedTime': 9228, 'positionName': 'RIGHT', 'positionCoords': [710.32, 179], 'bid': 8.540000000000001}]",55337.699999809265,1669829616512,orange slices,chickenfingers,7.69,8.540000000000001,0.8500000000000005,chickenfingers,1543.4000000953674,1556,1556.2000002861023,True,i,57394.90000009537,2057.2000002861023,1669829618569,2057,HRV,HRV_0018,2022-11-30 17:39:38
22,"[{'imgObject': {}, 'id': 'rigatoni', 'src': '/static/foodstim60/rigatoni.jpg', 'key': 'u', 'origWidth': 411, 'origHeight': 411, 'width': 411, 'height': 411, 'widthPercent': 0.45, 'rescaleHeight': False, 'trialN': 22, 'loaded': True, 'loadedTime': 9451.900000095367, 'positionName': 'LEFT', 'positionCoords': [244.68, 178.5], 'bid': 3.21}, {'imgObject': {}, 'id': 'edamame', 'src': '/static/foodstim60/edamame.jpg', 'key': 'i', 'origWidth': 409, 'origHeight': 410, 'width': 409, 'height': 410, 'widthPercent': 0.45, 'rescaleHeight': False, 'trialN': 22, 'loaded': True, 'loadedTime': 5735.199999809265, 'positionName': 'RIGHT', 'positionCoords': [710.32, 179], 'bid': 3.24}]",57396.09999990463,1669829618570,rigatoni,edamame,3.21,3.24,0.03000000000000025,rigatoni,2499.800000190735,2505,2504.800000190735,True,u,60402.5,3006.4000000953674,1669829621576,3006,HRV,HRV_0018,2022-11-30 17:39:38
23,"[{'imgObject': {}, 'id': 'apple slices', 'src': '/static/foodstim60/apple slices.jpg', 'key': 'u', 'origWidth': 409, 'origHeight': 410, 'width': 409, 'height': 410, 'widthPercent': 0.45, 'rescaleHeight': False, 'trialN': 23, 'loaded': True, 'loadedTime': 8148.799999713898, 'positionName': 'LEFT', 'positionCoords': [246.68, 179], 'bid': 5.86}, {'imgObject': {}, 'id': 'pear', 'src': '/static/foodstim60/pear.jpg', 'key': 'i', 'origWidth': 411, 'origHeight': 410, 'width': 411, 'height': 410, 'widthPercent': 0.45, 'rescaleHeight': False, 'trialN': 23, 'loaded': True, 'loadedTime': 9456.599999904633, 'positionName': 'RIGHT', 'positionCoords': [710.32, 179], 'bid': 6.8}]",60403.2999997139,1669829621577,apple slices,pear,5.86,6.8,0.9399999999999995,apple slices,1922.8000001907349,1926,1926.3000001907349,True,u,62831.2999997139,2428.0,1669829624005,2428,HRV,HRV_0018,2022-11-30 17:39:38
24,"[{'imgObject': {}, 'id': 'rigatoni and sauce', 'src': '/static/foodstim60/rigatoni and sauce.jpg', 'key': 'u', 'origWidth': 410, 'origHeight': 411, 'width': 410, 'height': 411, 'widthPercent': 0.45, 'rescaleHeight': False, 'trialN': 24, 'loaded': True, 'loadedTime': 7722.199999809265, 'positionName': 'LEFT', 'positionCoords': [245.68, 178.5], 'bid': 5.74}, {'imgObject': {}, 'id': 'kiwi', 'src': '/static/foodstim60/kiwi.jpg', 'key': 'i', 'origWidth': 410, 'origHeight': 410, 'width': 410, 'height': 410, 'widthPercent': 0.45, 'rescaleHeight': False, 'trialN': 24, 'loaded': True, 'loadedTime': 9630.199999809265, 'positionName': 'RIGHT', 'positionCoords': [710.32, 179], 'bid': 2.02}]",62832.7999997139,1669829624007,rigatoni and sauce,kiwi,5.74,2.02,-3.72,rigatoni and sauce,1175.6000003814697,1178,1178.8000001907349,True,u,64512.40000009537,1679.6000003814697,1669829625686,1679,HRV,HRV_0018,2022-11-30 17:39:38
25,"[{'imgObject': {}, 'id': 'cherries', 'src': '/static/foodstim60/cherries.jpg', 'key': 'u', 'origWidth': 410, 'origHeight': 411, 'width': 410, 'height': 411, 'widthPercent': 0.45, 'rescaleHeight': False, 'trialN': 25, 'loaded': True, 'loadedTime': 9635.099999904633, 'positionName': 'LEFT', 'positionCoords': [245.68, 178.5], 'bid': 5.7700000000000005}, {'imgObject': {}, 'id': 'omelette', 'src': '/static/foodstim60/omelette.jpg', 'key': 'i', 'origWidth': 410, 'origHeight': 409, 'width': 410, 'height': 409, 'widthPercent': 0.45, 'rescaleHeight': False, 'trialN': 25, 'loaded': True, 'loadedTime': 9808.299999713898, 'positionName': 'RIGHT', 'positionCoords': [710.32, 179.5], 'bid': 6.33}]",64512.7999997139,1669829625687,cherries,omelette,5.7700000000000005,6.33,0.5599999999999996,omelette,1293.2000002861023,1298,1298.4000000953674,True,i,66312.0,1799.2000002861023,1669829627486,1799,HRV,HRV_0018,2022-11-30 17:39:38
26,"[{'imgObject': {}, 'id': 'eggs', 'src': '/static/foodstim60/eggs.jpg', 'key': 'u', 'origWidth': 409, 'origHeight': 409, 'width': 409, 'height': 409, 'widthPercent': 0.45, 'rescaleHeight': False, 'trialN': 26, 'loaded': True, 'loadedTime': 9823.5, 'positionName': 'LEFT', 'positionCoords': [246.68, 179.5], 'bid': 7.94}, {'imgObject': {}, 'id': 'salad w chicken', 'src': '/static/foodstim60/salad w chicken.jpg', 'key': 'i', 'origWidth': 411, 'origHeight': 411, 'width': 411, 'height': 411, 'widthPercent': 0.45, 'rescaleHeight': False, 'trialN': 26, 'loaded': True, 'loadedTime': 6059.099999904633, 'positionName': 'RIGHT', 'positionCoords': [710.32, 178.5], 'bid': 6.7700000000000005}]",66312.5,1669829627486,eggs,salad w chicken,7.94,6.7700000000000005,-1.17,eggs,2252.0,2288,2287.5999999046326,True,u,69103.09999990463,2790.5999999046326,1669829630277,2791,HRV,HRV_0018,2022-11-30 17:39:38
27,"[{'imgObject': {}, 'id': 'strawberries', 'src': '/static/foodstim60/strawberries.jpg', 'key': 'u', 'origWidth': 410, 'origHeight': 410, 'width': 410, 'height': 410, 'widthPercent': 0.45, 'rescaleHeight': False, 'trialN': 27, 'loaded': True, 'loadedTime': 6546.599999904633, 'positionName': 'LEFT', 'positionCoords': [245.68, 179], 'bid': 7.82}, {'imgObject': {}, 'id': 'bagel and cc', 'src': '/static/foodstim60/bagel and cc.jpg', 'key': 'i', 'origWidth': 410, 'origHeight': 410, 'width': 410, 'height': 410, 'widthPercent': 0.45, 'rescaleHeight': False, 'trialN': 27, 'loaded': True, 'loadedTime': 5525.5, 'positionName': 'RIGHT', 'positionCoords': [710.32, 179], 'bid': 9.37}]",69108.19999980927,1669829630282,strawberries,bagel and cc,7.82,9.37,1.549999999999999,bagel and cc,1152.7000002861023,1156,1156.3000001907349,True,i,70766.2999997139,1658.0999999046326,1669829631940,1658,HRV,HRV_0018,2022-11-30 17:39:38
28,"[{'imgObject': {}, 'id': 'steak', 'src': '/static/foodstim60/steak.jpg', 'key': 'u', 'origWidth': 410, 'origHeight': 410, 'width': 410, 'height': 410, 'widthPercent': 0.45, 'rescaleHeight': False, 'trialN': 28, 'loaded': True, 'loadedTime': 8308.799999713898, 'positionName': 'LEFT', 'positionCoords': [245.68, 179], 'bid': 6.34}, {'imgObject': {}, 'id': 'apple slices', 'src': '/static/foodstim60/apple slices.jpg', 'key': 'i', 'origWidth': 409, 'origHeight': 410, 'width': 409, 'height': 410, 'widthPercent': 0.45, 'rescaleHeight': False, 'trialN': 28, 'loaded': True, 'loadedTime': 7983.5, 'positionName': 'RIGHT', 'positionCoords': [710.32, 179], 'bid': 5.86}]",70767.09999990463,1669829631941,steak,apple slices,6.34,5.86,-0.47999999999999954,steak,1395.0,1400,1400.1999998092651,True,u,72668.40000009537,1901.3000001907349,1669829633842,1901,HRV,HRV_0018,2022-11-30 17:39:38
29,"[{'imgObject': {}, 'id': 'veggieswithdip', 'src': '/static/foodstim60/veggieswithdip.jpg', 'key': 'u', 'origWidth': 409, 'origHeight': 409, 'width': 409, 'height': 409, 'widthPercent': 0.45, 'rescaleHeight': False, 'trialN': 29, 'loaded': True, 'loadedTime': 9981.599999904633, 'positionName': 'LEFT', 'positionCoords': [246.68, 179.5], 'bid': 1.77}, {'imgObject': {}, 'id': 'luckycharms', 'src': '/static/foodstim60/luckycharms.jpg', 'key': 'i', 'origWidth': 410, 'origHeight': 409, 'width': 410, 'height': 409, 'widthPercent': 0.45, 'rescaleHeight': False, 'trialN': 29, 'loaded': True, 'loadedTime': 7366.400000095367, 'positionName': 'RIGHT', 'positionCoords': [710.32, 179.5], 'bid': 5.54}]",72668.7999997139,1669829633843,veggieswithdip,luckycharms,1.77,5.54,3.77,luckycharms,1380.9000000953674,1384,1384.5,True,i,74554.90000009537,1886.1000003814697,1669829635729,1886,HRV,HRV_0018,2022-11-30 17:39:38
30,"[{'imgObject': {}, 'id': 'olives', 'src': '/static/foodstim60/olives.jpg', 'key': 'u', 'origWidth': 410, 'origHeight': 410, 'width': 410, 'height': 410, 'widthPercent': 0.45, 'rescaleHeight': False, 'trialN': 30, 'loaded': True, 'loadedTime': 9992.199999809265, 'positionName': 'LEFT', 'positionCoords': [245.68, 179], 'bid': 6.2700000000000005}, {'imgObject': {}, 'id': 'Grapes', 'src': '/static/foodstim60/Grapes.jpg', 'key': 'i', 'origWidth': 411, 'origHeight': 411, 'width': 411, 'height': 411, 'widthPercent': 0.45, 'rescaleHeight': False, 'trialN': 30, 'loaded': True, 'loadedTime': 7149.599999904633, 'positionName': 'RIGHT', 'positionCoords': [710.32, 178.5], 'bid': 6.53}]",74555.7999997139,1669829635730,olives,Grapes,6.2700000000000005,6.53,0.2599999999999998,Grapes,1810.2000002861023,1814,1814.2000002861023,True,i,76871.09999990463,2315.300000190735,1669829638045,2315,HRV,HRV_0018,2022-11-30 17:39:38
31,"[{'imgObject': {}, 'id': 'chicken nuggets2', 'src': '/static/foodstim60/chicken nuggets2.jpg', 'key': 'u', 'origWidth': 410, 'origHeight': 409, 'width': 410, 'height': 409, 'widthPercent': 0.45, 'rescaleHeight': False, 'trialN': 31, 'loaded': True, 'loadedTime': 10198.400000095367, 'positionName': 'LEFT', 'positionCoords': [245.68, 179.5], 'bid': 7.79}, {'imgObject': {}, 'id': 'eggs', 'src': '/static/foodstim60/eggs.jpg', 'key': 'i', 'origWidth': 409, 'origHeight': 409, 'width': 409, 'height': 409, 'widthPercent': 0.45, 'rescaleHeight': False, 'trialN': 31, 'loaded': True, 'loadedTime': 9822.199999809265, 'positionName': 'RIGHT', 'positionCoords': [710.32, 179.5], 'bid': 7.94}]",76871.5,1669829638045,chicken nuggets2,eggs,7.79,7.94,0.15000000000000036,chicken nuggets2,1874.7999997138977,1882,1881.5999999046326,True,u,79254.40000009537,2382.9000000953674,1669829640428,2383,HRV,HRV_0018,2022-11-30 17:39:38
32,"[{'imgObject': {}, 'id': 'granola w milk', 'src': '/static/foodstim60/granola w milk.jpg', 'key': 'u', 'origWidth': 410, 'origHeight': 410, 'width': 410, 'height': 410, 'widthPercent': 0.45, 'rescaleHeight': False, 'trialN': 32, 'loaded': True, 'loadedTime': 10007.699999809265, 'positionName': 'LEFT', 'positionCoords': [245.68, 179], 'bid': 8.85}, {'imgObject': {}, 'id': 'bagel and cc', 'src': '/static/foodstim60/bagel and cc.jpg', 'key': 'i', 'origWidth': 410, 'origHeight': 410, 'width': 410, 'height': 410, 'widthPercent': 0.45, 'rescaleHeight': False, 'trialN': 32, 'loaded': True, 'loadedTime': 5527.400000095367, 'positionName': 'RIGHT', 'positionCoords': [710.32, 179], 'bid': 9.37}]",79255.19999980927,1669829640429,granola w milk,bagel and cc,8.85,9.37,0.5199999999999996,bagel and cc,1412.5,1415,1414.9000000953674,True,i,81171.59999990463,1916.4000000953674,1669829642345,1916,HRV,HRV_0018,2022-11-30 17:39:38
33,"[{'imgObject': {}, 'id': 'Grapes', 'src': '/static/foodstim60/Grapes.jpg', 'key': 'u', 'origWidth': 411, 'origHeight': 411, 'width': 411, 'height': 411, 'widthPercent': 0.45, 'rescaleHeight': False, 'trialN': 33, 'loaded': True, 'loadedTime': 7135.199999809265, 'positionName': 'LEFT', 'positionCoords': [244.68, 178.5], 'bid': 6.53}, {'imgObject': {}, 'id': 'rigatoni and sauce', 'src': '/static/foodstim60/rigatoni and sauce.jpg', 'key': 'i', 'origWidth': 410, 'origHeight': 411, 'width': 410, 'height': 411, 'widthPercent': 0.45, 'rescaleHeight': False, 'trialN': 33, 'loaded': True, 'loadedTime': 7576.799999713898, 'positionName': 'RIGHT', 'positionCoords': [710.32, 178.5], 'bid': 5.74}]",81172.09999990463,1669829642346,Grapes,rigatoni and sauce,6.53,5.74,-0.79,rigatoni and sauce,1768.1999998092651,1775,1775.5,True,i,83450.69999980927,2278.5999999046326,1669829644624,2278,HRV,HRV_0018,2022-11-30 17:39:38
34,"[{'imgObject': {}, 'id': 'fruitsalad', 'src': '/static/foodstim60/fruitsalad.jpg', 'key': 'u', 'origWidth': 410, 'origHeight': 410, 'width': 410, 'height': 410, 'widthPercent': 0.45, 'rescaleHeight': False, 'trialN': 34, 'loaded': True, 'loadedTime': 10210.099999904633, 'positionName': 'LEFT', 'positionCoords': [245.68, 179], 'bid': 5.08}, {'imgObject': {}, 'id': 'shreddedwheatwithmilk', 'src': '/static/foodstim60/shreddedwheatwithmilk.jpg', 'key': 'i', 'origWidth': 410, 'origHeight': 410, 'width': 410, 'height': 410, 'widthPercent': 0.45, 'rescaleHeight': False, 'trialN': 34, 'loaded': True, 'loadedTime': 7572, 'positionName': 'RIGHT', 'positionCoords': [710.32, 179], 'bid': 4.59}]",83451.2999997139,1669829644625,fruitsalad,shreddedwheatwithmilk,5.08,4.59,-0.4900000000000002,shreddedwheatwithmilk,1882.0,1885,1884.9000000953674,True,i,85837.19999980927,2385.9000000953674,1669829647011,2386,HRV,HRV_0018,2022-11-30 17:39:38
35,"[{'imgObject': {}, 'id': 'orange slices', 'src': '/static/foodstim60/orange slices.jpg', 'key': 'u', 'origWidth': 409, 'origHeight': 410, 'width': 409, 'height': 410, 'widthPercent': 0.45, 'rescaleHeight': False, 'trialN': 35, 'loaded': True, 'loadedTime': 9047, 'positionName': 'LEFT', 'positionCoords': [246.68, 179], 'bid': 7.69}, {'imgObject': {}, 'id': 'roastedpotatoes', 'src': '/static/foodstim60/roastedpotatoes.jpg', 'key': 'i', 'origWidth': 409, 'origHeight': 410, 'width': 409, 'height': 410, 'widthPercent': 0.45, 'rescaleHeight': False, 'trialN': 35, 'loaded': True, 'loadedTime': 8551.299999713898, 'positionName': 'RIGHT', 'positionCoords': [710.32, 179], 'bid': 6.99}]",85837.90000009537,1669829647012,orange slices,roastedpotatoes,7.69,6.99,-0.7000000000000002,roastedpotatoes,1825.5999999046326,1830,1830.5999999046326,True,i,88170.90000009537,2333.0,1669829649345,2333,HRV,HRV_0018,2022-11-30 17:39:38
36,"[{'imgObject': {}, 'id': 'hashbrowns', 'src': '/static/foodstim60/hashbrowns.jpg', 'key': 'u', 'origWidth': 411, 'origHeight': 410, 'width': 411, 'height': 410, 'widthPercent': 0.45, 'rescaleHeight': False, 'trialN': 36, 'loaded': True, 'loadedTime': 5657.199999809265, 'positionName': 'LEFT', 'positionCoords': [244.68, 179], 'bid': 1.5}, {'imgObject': {}, 'id': 'fruitsalad', 'src': '/static/foodstim60/fruitsalad.jpg', 'key': 'i', 'origWidth': 410, 'origHeight': 410, 'width': 410, 'height': 410, 'widthPercent': 0.45, 'rescaleHeight': False, 'trialN': 36, 'loaded': True, 'loadedTime': 10222.400000095367, 'positionName': 'RIGHT', 'positionCoords': [710.32, 179], 'bid': 5.08}]",88172.0,1669829649346,hashbrowns,fruitsalad,1.5,5.08,3.58,fruitsalad,1644.4000000953674,1652,1652.2999997138977,True,i,90326.19999980927,2154.199999809265,1669829651500,2154,HRV,HRV_0018,2022-11-30 17:39:38
37,"[{'imgObject': {}, 'id': 'granola w milk', 'src': '/static/foodstim60/granola w milk.jpg', 'key': 'u', 'origWidth': 410, 'origHeight': 410, 'width': 410, 'height': 410, 'widthPercent': 0.45, 'rescaleHeight': False, 'trialN': 37, 'loaded': True, 'loadedTime': 10008.799999713898, 'positionName': 'LEFT', 'positionCoords': [245.68, 179], 'bid': 8.85}, {'imgObject': {}, 'id': 'ice cream sundae 002', 'src': '/static/foodstim60/ice cream sundae 002.jpg', 'key': 'i', 'origWidth': 409, 'origHeight': 409, 'width': 409, 'height': 409, 'widthPercent': 0.45, 'rescaleHeight': False, 'trialN': 37, 'loaded': True, 'loadedTime': 5442.599999904633, 'positionName': 'RIGHT', 'positionCoords': [710.32, 179.5], 'bid': 8.85}]",90326.7999997139,1669829651500,granola w milk,ice cream sundae 002,8.85,8.85,0.0,ice cream sundae 002,1377.9000000953674,1381,1380.9000000953674,True,i,92210.2999997139,1883.5,1669829653384,1884,HRV,HRV_0018,2022-11-30 17:39:38
38,"[{'imgObject': {}, 'id': 'blackbeanswithrice', 'src': '/static/foodstim60/blackbeanswithrice.jpg', 'key': 'u', 'origWidth': 410, 'origHeight': 410, 'width': 410, 'height': 410, 'widthPercent': 0.45, 'rescaleHeight': False, 'trialN': 38, 'loaded': True, 'loadedTime': 10239.699999809265, 'positionName': 'LEFT', 'positionCoords': [245.68, 179], 'bid': 1.73}, {'imgObject': {}, 'id': 'shreddedwheatwithmilk', 'src': '/static/foodstim60/shreddedwheatwithmilk.jpg', 'key': 'i', 'origWidth': 410, 'origHeight': 410, 'width': 410, 'height': 410, 'widthPercent': 0.45, 'rescaleHeight': False, 'trialN': 38, 'loaded': True, 'loadedTime': 7559, 'positionName': 'RIGHT', 'positionCoords': [710.32, 179], 'bid': 4.59}]",92211.40000009537,1669829653385,blackbeanswithrice,shreddedwheatwithmilk,1.73,4.59,2.86,shreddedwheatwithmilk,1191.7999997138977,1195,1194.5999999046326,True,i,93906.7999997139,1695.3999996185303,1669829655081,1696,HRV,HRV_0018,2022-11-30 17:39:38
39,"[{'imgObject': {}, 'id': 'seaweed', 'src': '/static/foodstim60/seaweed.jpg', 'key': 'u', 'origWidth': 410, 'origHeight': 410, 'width': 410, 'height': 410, 'widthPercent': 0.45, 'rescaleHeight': False, 'trialN': 39, 'loaded': True, 'loadedTime': 9048.400000095367, 'positionName': 'LEFT', 'positionCoords': [245.68, 179], 'bid': 0.31}, {'imgObject': {}, 'id': 'omelette', 'src': '/static/foodstim60/omelette.jpg', 'key': 'i', 'origWidth': 410, 'origHeight': 409, 'width': 410, 'height': 409, 'widthPercent': 0.45, 'rescaleHeight': False, 'trialN': 39, 'loaded': True, 'loadedTime': 9807.299999713898, 'positionName': 'RIGHT', 'positionCoords': [710.32, 179.5], 'bid': 6.33}]",93907.09999990463,1669829655081,seaweed,omelette,0.31,6.33,6.0200000000000005,omelette,1165.8000001907349,1168,1168.0999999046326,True,i,95576.0,1668.9000000953674,1669829656750,1669,HRV,HRV_0018,2022-11-30 17:39:38
40,"[{'imgObject': {}, 'id': 'avocado', 'src': '/static/foodstim60/avocado.jpg', 'key': 'u', 'origWidth': 409, 'origHeight': 409, 'width': 409, 'height': 409, 'widthPercent': 0.45, 'rescaleHeight': False, 'trialN': 40, 'loaded': True, 'loadedTime': 10265.599999904633, 'positionName': 'LEFT', 'positionCoords': [246.68, 179.5], 'bid': 0.05}, {'imgObject': {}, 'id': 'eggsalad', 'src': '/static/foodstim60/eggsalad.jpg', 'key': 'i', 'origWidth': 410, 'origHeight': 409, 'width': 410, 'height': 409, 'widthPercent': 0.45, 'rescaleHeight': False, 'trialN': 40, 'loaded': True, 'loadedTime': 10294.400000095367, 'positionName': 'RIGHT', 'positionCoords': [710.32, 179.5], 'bid': 2.61}]",95576.5,1669829656750,avocado,eggsalad,0.05,2.61,2.56,eggsalad,2300.0999999046326,2302,2302.199999809265,True,i,98380.0,2803.5,1669829659554,2804,HRV,HRV_0018,2022-11-30 17:39:38
41,"[{'imgObject': {}, 'id': 'mac & cheese', 'src': '/static/foodstim60/mac & cheese.jpg', 'key': 'u', 'origWidth': 410, 'origHeight': 410, 'width': 410, 'height': 410, 'widthPercent': 0.45, 'rescaleHeight': False, 'trialN': 41, 'loaded': True, 'loadedTime': 10323.900000095367, 'positionName': 'LEFT', 'positionCoords': [245.68, 179], 'bid': 2.96}, {'imgObject': {}, 'id': 'seaweed', 'src': '/static/foodstim60/seaweed.jpg', 'key': 'i', 'origWidth': 410, 'origHeight': 410, 'width': 410, 'height': 410, 'widthPercent': 0.45, 'rescaleHeight': False, 'trialN': 41, 'loaded': True, 'loadedTime': 9226.699999809265, 'positionName': 'RIGHT', 'positionCoords': [710.32, 179], 'bid': 0.31}]",98380.5,1669829659554,mac & cheese,seaweed,2.96,0.31,-2.65,mac & cheese,1518.1999998092651,1523,1523.0999999046326,True,u,100404.90000009537,2024.4000000953674,1669829661579,2025,HRV,HRV_0018,2022-11-30 17:39:38
42,"[{'imgObject': {}, 'id': 'froot loops w milk', 'src': '/static/foodstim60/froot loops w milk.jpg', 'key': 'u', 'origWidth': 410, 'origHeight': 410, 'width': 410, 'height': 410, 'widthPercent': 0.45, 'rescaleHeight': False, 'trialN': 42, 'loaded': True, 'loadedTime': 10350.099999904633, 'positionName': 'LEFT', 'positionCoords': [245.68, 179], 'bid': 5.4}, {'imgObject': {}, 'id': 'hotdog w must', 'src': '/static/foodstim60/hotdog w must.jpg', 'key': 'i', 'origWidth': 409, 'origHeight': 409, 'width': 409, 'height': 409, 'widthPercent': 0.45, 'rescaleHeight': False, 'trialN': 42, 'loaded': True, 'loadedTime': 10371.299999713898, 'positionName': 'RIGHT', 'positionCoords': [710.32, 179.5], 'bid': 3.41}]",100405.2999997139,1669829661579,froot loops w milk,hotdog w must,5.4,3.41,-1.9900000000000002,froot loops w milk,1715.8000001907349,1721,1721.0,True,u,102627.59999990463,2222.300000190735,1669829663801,2222,HRV,HRV_0018,2022-11-30 17:39:38
43,"[{'imgObject': {}, 'id': 'eggsalad', 'src': '/static/foodstim60/eggsalad.jpg', 'key': 'u', 'origWidth': 410, 'origHeight': 409, 'width': 410, 'height': 409, 'widthPercent': 0.45, 'rescaleHeight': False, 'trialN': 43, 'loaded': True, 'loadedTime': 10292.900000095367, 'positionName': 'LEFT', 'positionCoords': [245.68, 179.5], 'bid': 2.61}, {'imgObject': {}, 'id': 'cherries', 'src': '/static/foodstim60/cherries.jpg', 'key': 'i', 'origWidth': 410, 'origHeight': 411, 'width': 410, 'height': 411, 'widthPercent': 0.45, 'rescaleHeight': False, 'trialN': 43, 'loaded': True, 'loadedTime': 9636.400000095367, 'positionName': 'RIGHT', 'positionCoords': [710.32, 178.5], 'bid': 5.7700000000000005}]",102628.2999997139,1669829663802,eggsalad,cherries,2.61,5.7700000000000005,3.1600000000000006,cherries,1978.6000003814697,1982,1982.1000003814697,True,i,105110.90000009537,2482.6000003814697,1669829666285,2483,HRV,HRV_0018,2022-11-30 17:39:38
44,"[{'imgObject': {}, 'id': 'steak', 'src': '/static/foodstim60/steak.jpg', 'key': 'u', 'origWidth': 410, 'origHeight': 410, 'width': 410, 'height': 410, 'widthPercent': 0.45, 'rescaleHeight': False, 'trialN': 44, 'loaded': True, 'loadedTime': 8309.599999904633, 'positionName': 'LEFT', 'positionCoords': [245.68, 179], 'bid': 6.34}, {'imgObject': {}, 'id': 'mashed potato', 'src': '/static/foodstim60/mashed potato.jpg', 'key': 'i', 'origWidth': 409, 'origHeight': 409, 'width': 409, 'height': 409, 'widthPercent': 0.45, 'rescaleHeight': False, 'trialN': 44, 'loaded': True, 'loadedTime': 8797.099999904633, 'positionName': 'RIGHT', 'positionCoords': [710.32, 179.5], 'bid': 6.47}]",105111.40000009537,1669829666285,steak,mashed potato,6.34,6.47,0.1299999999999999,steak,1028.3999996185303,1032,1031.5999999046326,True,u,106644.19999980927,1532.7999997138977,1669829667818,1533,HRV,HRV_0018,2022-11-30 17:39:38
45,"[{'imgObject': {}, 'id': 'chickenfingers', 'src': '/static/foodstim60/chickenfingers.jpg', 'key': 'u', 'origWidth': 410, 'origHeight': 410, 'width': 410, 'height': 410, 'widthPercent': 0.45, 'rescaleHeight': False, 'trialN': 45, 'loaded': True, 'loadedTime': 9233.099999904633, 'positionName': 'LEFT', 'positionCoords': [245.68, 179], 'bid': 8.540000000000001}, {'imgObject': {}, 'id': 'burrito', 'src': '/static/foodstim60/burrito.jpg', 'key': 'i', 'origWidth': 410, 'origHeight': 410, 'width': 410, 'height': 410, 'widthPercent': 0.45, 'rescaleHeight': False, 'trialN': 45, 'loaded': True, 'loadedTime': 10380.299999713898, 'positionName': 'RIGHT', 'positionCoords': [710.32, 179], 'bid': 7.13}]",106644.5,1669829667818,chickenfingers,burrito,8.540000000000001,7.13,-1.410000000000001,burrito,1684.6999998092651,1688,1688.0,True,i,108833.2999997139,2188.7999997138977,1669829670007,2189,HRV,HRV_0018,2022-11-30 17:39:38
46,"[{'imgObject': {}, 'id': 'cheerios', 'src': '/static/foodstim60/cheerios.jpg', 'key': 'u', 'origWidth': 409, 'origHeight': 410, 'width': 409, 'height': 410, 'widthPercent': 0.45, 'rescaleHeight': False, 'trialN': 46, 'loaded': True, 'loadedTime': 10396.699999809265, 'positionName': 'LEFT', 'positionCoords': [246.68, 179], 'bid': 5.73}, {'imgObject': {}, 'id': 'luckycharms', 'src': '/static/foodstim60/luckycharms.jpg', 'key': 'i', 'origWidth': 410, 'origHeight': 409, 'width': 410, 'height': 409, 'widthPercent': 0.45, 'rescaleHeight': False, 'trialN': 46, 'loaded': True, 'loadedTime': 7368.599999904633, 'positionName': 'RIGHT', 'positionCoords': [710.32, 179.5], 'bid': 5.54}]",108834.09999990463,1669829670008,cheerios,luckycharms,5.73,5.54,-0.1900000000000004,luckycharms,1823.9000000953674,1830,1830.5999999046326,True,i,111165.2999997139,2331.199999809265,1669829672339,2331,HRV,HRV_0018,2022-11-30 17:39:38
47,"[{'imgObject': {}, 'id': 'tacos', 'src': '/static/foodstim60/tacos.jpg', 'key': 'u', 'origWidth': 411, 'origHeight': 411, 'width': 411, 'height': 411, 'widthPercent': 0.45, 'rescaleHeight': False, 'trialN': 47, 'loaded': True, 'loadedTime': 10432.5, 'positionName': 'LEFT', 'positionCoords': [244.68, 178.5], 'bid': 8.42}, {'imgObject': {}, 'id': 'turkeysandwich', 'src': '/static/foodstim60/turkeysandwich.jpg', 'key': 'i', 'origWidth': 409, 'origHeight': 409, 'width': 409, 'height': 409, 'widthPercent': 0.45, 'rescaleHeight': False, 'trialN': 47, 'loaded': True, 'loadedTime': 5428.199999809265, 'positionName': 'RIGHT', 'positionCoords': [710.32, 179.5], 'bid': 7.62}]",111165.7999997139,1669829672339,tacos,turkeysandwich,8.42,7.62,-0.7999999999999998,turkeysandwich,1790.3000001907349,1794,1794.0,True,i,113462.59999990463,2296.800000190735,1669829674636,2297,HRV,HRV_0018,2022-11-30 17:39:38
48,"[{'imgObject': {}, 'id': 'cantaloupe', 'src': '/static/foodstim60/cantaloupe.jpg', 'key': 'u', 'origWidth': 409, 'origHeight': 409, 'width': 409, 'height': 409, 'widthPercent': 0.45, 'rescaleHeight': False, 'trialN': 48, 'loaded': True, 'loadedTime': 10435.400000095367, 'positionName': 'LEFT', 'positionCoords': [246.68, 179.5], 'bid': 3.33}, {'imgObject': {}, 'id': 'cocktailshrimp', 'src': '/static/foodstim60/cocktailshrimp.jpg', 'key': 'i', 'origWidth': 410, 'origHeight': 410, 'width': 410, 'height': 410, 'widthPercent': 0.45, 'rescaleHeight': False, 'trialN': 48, 'loaded': True, 'loadedTime': 10591.400000095367, 'positionName': 'RIGHT', 'positionCoords': [710.32, 179], 'bid': 1.63}]",113463.19999980927,1669829674637,cantaloupe,cocktailshrimp,3.33,1.63,-1.7000000000000002,cantaloupe,2817.2000002861023,2821,2821.300000190735,True,u,116786.90000009537,3323.7000002861023,1669829677961,3324,HRV,HRV_0018,2022-11-30 17:39:38
49,"[{'imgObject': {}, 'id': 'blackbeanswithrice', 'src': '/static/foodstim60/blackbeanswithrice.jpg', 'key': 'u', 'origWidth': 410, 'origHeight': 410, 'width': 410, 'height': 410, 'widthPercent': 0.45, 'rescaleHeight': False, 'trialN': 49, 'loaded': True, 'loadedTime': 10226.5, 'positionName': 'LEFT', 'positionCoords': [245.68, 179], 'bid': 1.73}, {'imgObject': {}, 'id': 'avocado', 'src': '/static/foodstim60/avocado.jpg', 'key': 'i', 'origWidth': 409, 'origHeight': 409, 'width': 409, 'height': 409, 'widthPercent': 0.45, 'rescaleHeight': False, 'trialN': 49, 'loaded': True, 'loadedTime': 10276.099999904633, 'positionName': 'RIGHT', 'positionCoords': [710.32, 179.5], 'bid': 0.05}]",116787.2999997139,1669829677961,blackbeanswithrice,avocado,1.73,0.05,-1.68,blackbeanswithrice,2433.0,2437,2436.800000190735,True,u,119727.2999997139,2940.0,1669829680901,2940,HRV,HRV_0018,2022-11-30 17:39:38
50,"[{'imgObject': {}, 'id': 'mango', 'src': '/static/foodstim60/mango.jpg', 'key': 'u', 'origWidth': 411, 'origHeight': 411, 'width': 411, 'height': 411, 'widthPercent': 0.45, 'rescaleHeight': False, 'trialN': 50, 'loaded': True, 'loadedTime': 10603.799999713898, 'positionName': 'LEFT', 'positionCoords': [244.68, 178.5], 'bid': 5.07}, {'imgObject': {}, 'id': 'shreddedwheatwithmilk', 'src': '/static/foodstim60/shreddedwheatwithmilk.jpg', 'key': 'i', 'origWidth': 410, 'origHeight': 410, 'width': 410, 'height': 410, 'widthPercent': 0.45, 'rescaleHeight': False, 'trialN': 50, 'loaded': True, 'loadedTime': 7570.900000095367, 'positionName': 'RIGHT', 'positionCoords': [710.32, 179], 'bid': 4.59}]",119729.19999980927,1669829680903,mango,shreddedwheatwithmilk,5.07,4.59,-0.4800000000000004,shreddedwheatwithmilk,1208.5,1213,1213.0,True,i,121444.0,1714.8000001907349,1669829682618,1715,HRV,HRV_0018,2022-11-30 17:39:38
51,"[{'imgObject': {}, 'id': 'yogurt no spoon', 'src': '/static/foodstim60/yogurt no spoon.jpg', 'key': 'u', 'origWidth': 411, 'origHeight': 410, 'width': 411, 'height': 410, 'widthPercent': 0.45, 'rescaleHeight': False, 'trialN': 51, 'loaded': True, 'loadedTime': 10609.199999809265, 'positionName': 'LEFT', 'positionCoords': [244.68, 179], 'bid': 5.16}, {'imgObject': {}, 'id': 'kiwi', 'src': '/static/foodstim60/kiwi.jpg', 'key': 'i', 'origWidth': 410, 'origHeight': 410, 'width': 410, 'height': 410, 'widthPercent': 0.45, 'rescaleHeight': False, 'trialN': 51, 'loaded': True, 'loadedTime': 9624.199999809265, 'positionName': 'RIGHT', 'positionCoords': [710.32, 179], 'bid': 2.02}]",121444.5,1669829682618,yogurt no spoon,kiwi,5.16,2.02,-3.14,yogurt no spoon,1114.5,1119,1118.5,True,u,123065.59999990463,1621.0999999046326,1669829684239,1621,HRV,HRV_0018,2022-11-30 17:39:38
52,"[{'imgObject': {}, 'id': 'raspberries', 'src': '/static/foodstim60/raspberries.jpg', 'key': 'u', 'origWidth': 411, 'origHeight': 411, 'width': 411, 'height': 411, 'widthPercent': 0.45, 'rescaleHeight': False, 'trialN': 52, 'loaded': True, 'loadedTime': 10613.599999904633, 'positionName': 'LEFT', 'positionCoords': [244.68, 178.5], 'bid': 6.25}, {'imgObject': {}, 'id': 'apple slices', 'src': '/static/foodstim60/apple slices.jpg', 'key': 'i', 'origWidth': 409, 'origHeight': 410, 'width': 409, 'height': 410, 'widthPercent': 0.45, 'rescaleHeight': False, 'trialN': 52, 'loaded': True, 'loadedTime': 8127.799999713898, 'positionName': 'RIGHT', 'positionCoords': [710.32, 179], 'bid': 5.86}]",123066.09999990463,1669829684240,raspberries,apple slices,6.25,5.86,-0.3899999999999997,apple slices,1996.3000001907349,2002,2001.9000000953674,True,i,125569.69999980927,2503.5999999046326,1669829686743,2503,HRV,HRV_0018,2022-11-30 17:39:38
53,"[{'imgObject': {}, 'id': 'banana', 'src': '/static/foodstim60/banana.jpg', 'key': 'u', 'origWidth': 410, 'origHeight': 410, 'width': 410, 'height': 410, 'widthPercent': 0.45, 'rescaleHeight': False, 'trialN': 53, 'loaded': True, 'loadedTime': 8317, 'positionName': 'LEFT', 'positionCoords': [245.68, 179], 'bid': 6.8}, {'imgObject': {}, 'id': 'veggieswithdip', 'src': '/static/foodstim60/veggieswithdip.jpg', 'key': 'i', 'origWidth': 409, 'origHeight': 409, 'width': 409, 'height': 409, 'widthPercent': 0.45, 'rescaleHeight': False, 'trialN': 53, 'loaded': True, 'loadedTime': 9981.199999809265, 'positionName': 'RIGHT', 'positionCoords': [710.32, 179.5], 'bid': 1.77}]",125570.19999980927,1669829686744,banana,veggieswithdip,6.8,1.77,-5.029999999999999,banana,1462.4000000953674,1466,1465.5999999046326,True,u,127536.7999997139,1966.5999999046326,1669829688711,1967,HRV,HRV_0018,2022-11-30 17:39:38
54,"[{'imgObject': {}, 'id': 'mango', 'src': '/static/foodstim60/mango.jpg', 'key': 'u', 'origWidth': 411, 'origHeight': 411, 'width': 411, 'height': 411, 'widthPercent': 0.45, 'rescaleHeight': False, 'trialN': 54, 'loaded': True, 'loadedTime': 10597.599999904633, 'positionName': 'LEFT', 'positionCoords': [244.68, 178.5], 'bid': 5.07}, {'imgObject': {}, 'id': 'yogurt no spoon', 'src': '/static/foodstim60/yogurt no spoon.jpg', 'key': 'i', 'origWidth': 411, 'origHeight': 410, 'width': 411, 'height': 410, 'widthPercent': 0.45, 'rescaleHeight': False, 'trialN': 54, 'loaded': True, 'loadedTime': 10608.5, 'positionName': 'RIGHT', 'positionCoords': [710.32, 179], 'bid': 5.16}]",127537.2999997139,1669829688711,mango,yogurt no spoon,5.07,5.16,0.08999999999999986,yogurt no spoon,2109.1000003814697,2118,2118.300000190735,True,i,130157.5,2620.2000002861023,1669829691331,2620,HRV,HRV_0018,2022-11-30 17:39:38
55,"[{'imgObject': {}, 'id': 'cheerios', 'src': '/static/foodstim60/cheerios.jpg', 'key': 'u', 'origWidth': 409, 'origHeight': 410, 'width': 409, 'height': 410, 'widthPercent': 0.45, 'rescaleHeight': False, 'trialN': 55, 'loaded': True, 'loadedTime': 10420.799999713898, 'positionName': 'LEFT', 'positionCoords': [246.68, 179], 'bid': 5.73}, {'imgObject': {}, 'id': 'mango', 'src': '/static/foodstim60/mango.jpg', 'key': 'i', 'origWidth': 411, 'origHeight': 411, 'width': 411, 'height': 411, 'widthPercent': 0.45, 'rescaleHeight': False, 'trialN': 55, 'loaded': True, 'loadedTime': 10604.699999809265, 'positionName': 'RIGHT', 'positionCoords': [710.32, 178.5], 'bid': 5.07}]",130158.0,1669829691332,cheerios,mango,5.73,5.07,-0.6600000000000001,cheerios,1123.0,1132,1132.4000000953674,True,u,131792.40000009537,1634.4000000953674,1669829692966,1634,HRV,HRV_0018,2022-11-30 17:39:38
56,"[{'imgObject': {}, 'id': 'granola w milk', 'src': '/static/foodstim60/granola w milk.jpg', 'key': 'u', 'origWidth': 410, 'origHeight': 410, 'width': 410, 'height': 410, 'widthPercent': 0.45, 'rescaleHeight': False, 'trialN': 56, 'loaded': True, 'loadedTime': 9993.900000095367, 'positionName': 'LEFT', 'positionCoords': [245.68, 179], 'bid': 8.85}, {'imgObject': {}, 'id': 'raspberries', 'src': '/static/foodstim60/raspberries.jpg', 'key': 'i', 'origWidth': 411, 'origHeight': 411, 'width': 411, 'height': 411, 'widthPercent': 0.45, 'rescaleHeight': False, 'trialN': 56, 'loaded': True, 'loadedTime': 10610.799999713898, 'positionName': 'RIGHT', 'positionCoords': [710.32, 178.5], 'bid': 6.25}]",131793.19999980927,1669829692967,granola w milk,raspberries,8.85,6.25,-2.5999999999999996,raspberries,1980.2000002861023,1987,1986.9000000953674,True,i,134281.09999990463,2487.9000000953674,1669829695455,2488,HRV,HRV_0018,2022-11-30 17:39:38
57,"[{'imgObject': {}, 'id': 'baked potato', 'src': '/static/foodstim60/baked potato.jpg', 'key': 'u', 'origWidth': 409, 'origHeight': 410, 'width': 409, 'height': 410, 'widthPercent': 0.45, 'rescaleHeight': False, 'trialN': 57, 'loaded': True, 'loadedTime': 7092.199999809265, 'positionName': 'LEFT', 'positionCoords': [246.68, 179], 'bid': 7.59}, {'imgObject': {}, 'id': 'edamame', 'src': '/static/foodstim60/edamame.jpg', 'key': 'i', 'origWidth': 409, 'origHeight': 410, 'width': 409, 'height': 410, 'widthPercent': 0.45, 'rescaleHeight': False, 'trialN': 57, 'loaded': True, 'loadedTime': 5734.099999904633, 'positionName': 'RIGHT', 'positionCoords': [710.32, 179], 'bid': 3.24}]",134281.90000009537,1669829695456,baked potato,edamame,7.59,3.24,-4.35,baked potato,1566.5,1571,1571.5999999046326,True,u,136354.40000009537,2072.5,1669829697528,2072,HRV,HRV_0018,2022-11-30 17:39:38
58,"[{'imgObject': {}, 'id': 'grilled chicken strips', 'src': '/static/foodstim60/grilled chicken strips.jpg', 'key': 'u', 'origWidth': 410, 'origHeight': 411, 'width': 410, 'height': 411, 'widthPercent': 0.45, 'rescaleHeight': False, 'trialN': 58, 'loaded': True, 'loadedTime': 10618.599999904633, 'positionName': 'LEFT', 'positionCoords': [245.68, 178.5], 'bid': 7.32}, {'imgObject': {}, 'id': 'ice cream sundae 002', 'src': '/static/foodstim60/ice cream sundae 002.jpg', 'key': 'i', 'origWidth': 409, 'origHeight': 409, 'width': 409, 'height': 409, 'widthPercent': 0.45, 'rescaleHeight': False, 'trialN': 58, 'loaded': True, 'loadedTime': 5471.699999809265, 'positionName': 'RIGHT', 'positionCoords': [710.32, 179.5], 'bid': 8.85}]",136355.09999990463,1669829697529,grilled chicken strips,ice cream sundae 002,7.32,8.85,1.5299999999999994,ice cream sundae 002,1514.9000000953674,1518,1518.0,True,i,138374.7999997139,2019.6999998092651,1669829699549,2020,HRV,HRV_0018,2022-11-30 17:39:38
59,"[{'imgObject': {}, 'id': 'cherry tomato', 'src': '/static/foodstim60/cherry tomato.jpg', 'key': 'u', 'origWidth': 410, 'origHeight': 410, 'width': 410, 'height': 410, 'widthPercent': 0.45, 'rescaleHeight': False, 'trialN': 59, 'loaded': True, 'loadedTime': 7952.900000095367, 'positionName': 'LEFT', 'positionCoords': [245.68, 179], 'bid': 6.33}, {'imgObject': {}, 'id': 'blueberries', 'src': '/static/foodstim60/blueberries.jpg', 'key': 'i', 'origWidth': 411, 'origHeight': 411, 'width': 411, 'height': 411, 'widthPercent': 0.45, 'rescaleHeight': False, 'trialN': 59, 'loaded': True, 'loadedTime': 10619.799999713898, 'positionName': 'RIGHT', 'positionCoords': [710.32, 178.5], 'bid': 5.2}]",138376.0,1669829699550,cherry tomato,blueberries,6.33,5.2,-1.13,blueberries,1999.5,2003,2003.6999998092651,True,i,140880.59999990463,2504.5999999046326,1669829702054,2504,HRV,HRV_0018,2022-11-30 17:39:38
60,"[{'imgObject': {}, 'id': 'Tribe humus pita', 'src': '/static/foodstim60/Tribe humus pita.jpg', 'key': 'u', 'origWidth': 411, 'origHeight': 411, 'width': 411, 'height': 411, 'widthPercent': 0.45, 'rescaleHeight': False, 'trialN': 60, 'loaded': True, 'loadedTime': 10628, 'positionName': 'LEFT', 'positionCoords': [244.68, 178.5], 'bid': 1.79}, {'imgObject': {}, 'id': 'eggsalad', 'src': '/static/foodstim60/eggsalad.jpg', 'key': 'i', 'origWidth': 410, 'origHeight': 409, 'width': 410, 'height': 409, 'widthPercent': 0.45, 'rescaleHeight': False, 'trialN': 60, 'loaded': True, 'loadedTime': 10277.299999713898, 'positionName': 'RIGHT', 'positionCoords': [710.32, 179.5], 'bid': 2.61}]",140881.09999990463,1669829702055,Tribe humus pita,eggsalad,1.79,2.61,0.8199999999999998,Tribe humus pita,2381.199999809265,2389,2389.5,True,u,143773.5,2892.4000000953674,1669829704947,2892,HRV,HRV_0018,2022-11-30 17:39:38
61,"[{'imgObject': {}, 'id': 'baked potato', 'src': '/static/foodstim60/baked potato.jpg', 'key': 'u', 'origWidth': 409, 'origHeight': 410, 'width': 409, 'height': 410, 'widthPercent': 0.45, 'rescaleHeight': False, 'trialN': 61, 'loaded': True, 'loadedTime': 6869.199999809265, 'positionName': 'LEFT', 'positionCoords': [246.68, 179], 'bid': 7.59}, {'imgObject': {}, 'id': 'grilled chicken strips', 'src': '/static/foodstim60/grilled chicken strips.jpg', 'key': 'i', 'origWidth': 410, 'origHeight': 411, 'width': 410, 'height': 411, 'widthPercent': 0.45, 'rescaleHeight': False, 'trialN': 61, 'loaded': True, 'loadedTime': 10619, 'positionName': 'RIGHT', 'positionCoords': [710.32, 178.5], 'bid': 7.32}]",143774.0,1669829704948,baked potato,grilled chicken strips,7.59,7.32,-0.2699999999999996,grilled chicken strips,1450.9000000953674,1457,1456.7999997138977,True,i,145731.69999980927,1957.6999998092651,1669829706905,1957,HRV,HRV_0018,2022-11-30 17:39:38
62,"[{'imgObject': {}, 'id': 'cantaloupe', 'src': '/static/foodstim60/cantaloupe.jpg', 'key': 'u', 'origWidth': 409, 'origHeight': 409, 'width': 409, 'height': 409, 'widthPercent': 0.45, 'rescaleHeight': False, 'trialN': 62, 'loaded': True, 'loadedTime': 10436.400000095367, 'positionName': 'LEFT', 'positionCoords': [246.68, 179.5], 'bid': 3.33}, {'imgObject': {}, 'id': 'turkeysandwich', 'src': '/static/foodstim60/turkeysandwich.jpg', 'key': 'i', 'origWidth': 409, 'origHeight': 409, 'width': 409, 'height': 409, 'widthPercent': 0.45, 'rescaleHeight': False, 'trialN': 62, 'loaded': True, 'loadedTime': 5429.699999809265, 'positionName': 'RIGHT', 'positionCoords': [710.32, 179.5], 'bid': 7.62}]",145732.5,1669829706906,cantaloupe,turkeysandwich,3.33,7.62,4.29,turkeysandwich,1002.2999997138977,1008,1008.0999999046326,True,i,147242.5,1510.0,1669829708416,1510,HRV,HRV_0018,2022-11-30 17:39:38
63,"[{'imgObject': {}, 'id': 'hotdog w must', 'src': '/static/foodstim60/hotdog w must.jpg', 'key': 'u', 'origWidth': 409, 'origHeight': 409, 'width': 409, 'height': 409, 'widthPercent': 0.45, 'rescaleHeight': False, 'trialN': 63, 'loaded': True, 'loadedTime': 10362.900000095367, 'positionName': 'LEFT', 'positionCoords': [246.68, 179.5], 'bid': 3.41}, {'imgObject': {}, 'id': 'sushi w_condiments', 'src': '/static/foodstim60/sushi w_condiments.jpg', 'key': 'i', 'origWidth': 410, 'origHeight': 410, 'width': 410, 'height': 410, 'widthPercent': 0.45, 'rescaleHeight': False, 'trialN': 63, 'loaded': True, 'loadedTime': 6342.299999713898, 'positionName': 'RIGHT', 'positionCoords': [710.32, 179], 'bid': 1.72}]",147243.0,1669829708417,hotdog w must,sushi w_condiments,3.41,1.72,-1.6900000000000002,hotdog w must,972.7999997138977,976,976.2999997138977,True,u,148720.2999997139,1477.2999997138977,1669829709894,1477,HRV,HRV_0018,2022-11-30 17:39:38
64,"[{'imgObject': {}, 'id': 'pear', 'src': '/static/foodstim60/pear.jpg', 'key': 'u', 'origWidth': 411, 'origHeight': 410, 'width': 411, 'height': 410, 'widthPercent': 0.45, 'rescaleHeight': False, 'trialN': 64, 'loaded': True, 'loadedTime': 9459.299999713898, 'positionName': 'LEFT', 'positionCoords': [244.68, 179], 'bid': 6.8}, {'imgObject': {}, 'id': 'blackbeanswithrice', 'src': '/static/foodstim60/blackbeanswithrice.jpg', 'key': 'i', 'origWidth': 410, 'origHeight': 410, 'width': 410, 'height': 410, 'widthPercent': 0.45, 'rescaleHeight': False, 'trialN': 64, 'loaded': True, 'loadedTime': 10230.900000095367, 'positionName': 'RIGHT', 'positionCoords': [710.32, 179], 'bid': 1.73}]",148722.19999980927,1669829709896,pear,blackbeanswithrice,6.8,1.73,-5.07,pear,1505.0999999046326,1510,1509.7000002861023,True,u,150733.0,2010.8000001907349,1669829711907,2011,HRV,HRV_0018,2022-11-30 17:39:38
65,"[{'imgObject': {}, 'id': 'sweetpotato', 'src': '/static/foodstim60/sweetpotato.jpg', 'key': 'u', 'origWidth': 410, 'origHeight': 410, 'width': 410, 'height': 410, 'widthPercent': 0.45, 'rescaleHeight': False, 'trialN': 65, 'loaded': True, 'loadedTime': 8154, 'positionName': 'LEFT', 'positionCoords': [245.68, 179], 'bid': 0.5700000000000001}, {'imgObject': {}, 'id': 'Tribe humus pita', 'src': '/static/foodstim60/Tribe humus pita.jpg', 'key': 'i', 'origWidth': 411, 'origHeight': 411, 'width': 411, 'height': 411, 'widthPercent': 0.45, 'rescaleHeight': False, 'trialN': 65, 'loaded': True, 'loadedTime': 10629, 'positionName': 'RIGHT', 'positionCoords': [710.32, 178.5], 'bid': 1.79}]",150733.5,1669829711907,sweetpotato,Tribe humus pita,0.5700000000000001,1.79,1.22,Tribe humus pita,989.6999998092651,994,994.0,True,i,152229.19999980927,1495.6999998092651,1669829713403,1496,HRV,HRV_0018,2022-11-30 17:39:38
66,"[{'imgObject': {}, 'id': 'tacos', 'src': '/static/foodstim60/tacos.jpg', 'key': 'u', 'origWidth': 411, 'origHeight': 411, 'width': 411, 'height': 411, 'widthPercent': 0.45, 'rescaleHeight': False, 'trialN': 66, 'loaded': True, 'loadedTime': 10431.400000095367, 'positionName': 'LEFT', 'positionCoords': [244.68, 178.5], 'bid': 8.42}, {'imgObject': {}, 'id': 'chicken nuggets2', 'src': '/static/foodstim60/chicken nuggets2.jpg', 'key': 'i', 'origWidth': 410, 'origHeight': 409, 'width': 410, 'height': 409, 'widthPercent': 0.45, 'rescaleHeight': False, 'trialN': 66, 'loaded': True, 'loadedTime': 10178.299999713898, 'positionName': 'RIGHT', 'positionCoords': [710.32, 179.5], 'bid': 7.79}]",152230.5,1669829713404,tacos,chicken nuggets2,8.42,7.79,-0.6299999999999999,tacos,1689.0,1696,1696.0999999046326,True,u,154428.0,2197.5,1669829715602,2198,HRV,HRV_0018,2022-11-30 17:39:38
67,"[{'imgObject': {}, 'id': 'avocado', 'src': '/static/foodstim60/avocado.jpg', 'key': 'u', 'origWidth': 409, 'origHeight': 409, 'width': 409, 'height': 409, 'widthPercent': 0.45, 'rescaleHeight': False, 'trialN': 67, 'loaded': True, 'loadedTime': 10267.599999904633, 'positionName': 'LEFT', 'positionCoords': [246.68, 179.5], 'bid': 0.05}, {'imgObject': {}, 'id': 'cherry tomato', 'src': '/static/foodstim60/cherry tomato.jpg', 'key': 'i', 'origWidth': 410, 'origHeight': 410, 'width': 410, 'height': 410, 'widthPercent': 0.45, 'rescaleHeight': False, 'trialN': 67, 'loaded': True, 'loadedTime': 7731.5, 'positionName': 'RIGHT', 'positionCoords': [710.32, 179], 'bid': 6.33}]",154428.59999990463,1669829715602,avocado,cherry tomato,0.05,6.33,6.28,cherry tomato,1366.5999999046326,1375,1375.0999999046326,True,i,156305.40000009537,1876.8000001907349,1669829717479,1877,HRV,HRV_0018,2022-11-30 17:39:38
68,"[{'imgObject': {}, 'id': 'mango', 'src': '/static/foodstim60/mango.jpg', 'key': 'u', 'origWidth': 411, 'origHeight': 411, 'width': 411, 'height': 411, 'widthPercent': 0.45, 'rescaleHeight': False, 'trialN': 68, 'loaded': True, 'loadedTime': 10605.400000095367, 'positionName': 'LEFT', 'positionCoords': [244.68, 178.5], 'bid': 5.07}, {'imgObject': {}, 'id': 'veggieswithdip', 'src': '/static/foodstim60/veggieswithdip.jpg', 'key': 'i', 'origWidth': 409, 'origHeight': 409, 'width': 409, 'height': 409, 'widthPercent': 0.45, 'rescaleHeight': False, 'trialN': 68, 'loaded': True, 'loadedTime': 9829.400000095367, 'positionName': 'RIGHT', 'positionCoords': [710.32, 179.5], 'bid': 1.77}]",156305.7999997139,1669829717480,mango,veggieswithdip,5.07,1.77,-3.3000000000000003,mango,2808.2000002861023,2810,2810.800000190735,True,u,159617.5,3311.7000002861023,1669829720791,3311,HRV,HRV_0018,2022-11-30 17:39:38
69,"[{'imgObject': {}, 'id': 'ice cream sundae 002', 'src': '/static/foodstim60/ice cream sundae 002.jpg', 'key': 'u', 'origWidth': 409, 'origHeight': 409, 'width': 409, 'height': 409, 'widthPercent': 0.45, 'rescaleHeight': False, 'trialN': 69, 'loaded': True, 'loadedTime': 5453.900000095367, 'positionName': 'LEFT', 'positionCoords': [246.68, 179.5], 'bid': 8.85}, {'imgObject': {}, 'id': 'eggs', 'src': '/static/foodstim60/eggs.jpg', 'key': 'i', 'origWidth': 409, 'origHeight': 409, 'width': 409, 'height': 409, 'widthPercent': 0.45, 'rescaleHeight': False, 'trialN': 69, 'loaded': True, 'loadedTime': 9821.699999809265, 'positionName': 'RIGHT', 'positionCoords': [710.32, 179.5], 'bid': 7.94}]",159618.19999980927,1669829720792,ice cream sundae 002,eggs,8.85,7.94,-0.9099999999999993,ice cream sundae 002,1642.5999999046326,1647,1646.5,True,u,161766.5,2148.300000190735,1669829722940,2148,HRV,HRV_0018,2022-11-30 17:39:38
70,"[{'imgObject': {}, 'id': 'popsicles', 'src': '/static/foodstim60/popsicles.jpg', 'key': 'u', 'origWidth': 410, 'origHeight': 410, 'width': 410, 'height': 410, 'widthPercent': 0.45, 'rescaleHeight': False, 'trialN': 70, 'loaded': True, 'loadedTime': 9004.5, 'positionName': 'LEFT', 'positionCoords': [245.68, 179], 'bid': 7.79}, {'imgObject': {}, 'id': 'corn cob', 'src': '/static/foodstim60/corn cob.jpg', 'key': 'i', 'origWidth': 411, 'origHeight': 411, 'width': 411, 'height': 411, 'widthPercent': 0.45, 'rescaleHeight': False, 'trialN': 70, 'loaded': True, 'loadedTime': 5221.900000095367, 'positionName': 'RIGHT', 'positionCoords': [710.32, 178.5], 'bid': 7.7}]",161767.7999997139,1669829722942,popsicles,corn cob,7.79,7.7,-0.08999999999999986,popsicles,2168.1000003814697,2179,2179.800000190735,True,u,164448.7999997139,2681.0,1669829725623,2681,HRV,HRV_0018,2022-11-30 17:39:38
71,"[{'imgObject': {}, 'id': 'luckycharms', 'src': '/static/foodstim60/luckycharms.jpg', 'key': 'u', 'origWidth': 410, 'origHeight': 409, 'width': 410, 'height': 409, 'widthPercent': 0.45, 'rescaleHeight': False, 'trialN': 71, 'loaded': True, 'loadedTime': 7367.299999713898, 'positionName': 'LEFT', 'positionCoords': [245.68, 179.5], 'bid': 5.54}, {'imgObject': {}, 'id': 'raisin bran w milk', 'src': '/static/foodstim60/raisin bran w milk.jpg', 'key': 'i', 'origWidth': 411, 'origHeight': 411, 'width': 411, 'height': 411, 'widthPercent': 0.45, 'rescaleHeight': False, 'trialN': 71, 'loaded': True, 'loadedTime': 7979.900000095367, 'positionName': 'RIGHT', 'positionCoords': [710.32, 178.5], 'bid': 8.14}]",164449.5,1669829725623,luckycharms,raisin bran w milk,5.54,8.14,2.6000000000000005,raisin bran w milk,1166.0,1171,1171.1999998092651,True,i,166122.90000009537,1673.4000000953674,1669829727297,1674,HRV,HRV_0018,2022-11-30 17:39:38
72,"[{'imgObject': {}, 'id': 'hashbrowns', 'src': '/static/foodstim60/hashbrowns.jpg', 'key': 'u', 'origWidth': 411, 'origHeight': 410, 'width': 411, 'height': 410, 'widthPercent': 0.45, 'rescaleHeight': False, 'trialN': 72, 'loaded': True, 'loadedTime': 5636.099999904633, 'positionName': 'LEFT', 'positionCoords': [244.68, 179], 'bid': 1.5}, {'imgObject': {}, 'id': 'mashed potato', 'src': '/static/foodstim60/mashed potato.jpg', 'key': 'i', 'origWidth': 409, 'origHeight': 409, 'width': 409, 'height': 409, 'widthPercent': 0.45, 'rescaleHeight': False, 'trialN': 72, 'loaded': True, 'loadedTime': 8814.099999904633, 'positionName': 'RIGHT', 'positionCoords': [710.32, 179.5], 'bid': 6.47}]",166123.2999997139,1669829727297,hashbrowns,mashed potato,1.5,6.47,4.97,mashed potato,1784.5,1788,1788.4000000953674,True,i,168414.0,2290.7000002861023,1669829729588,2291,HRV,HRV_0018,2022-11-30 17:39:38
73,"[{'imgObject': {}, 'id': 'pear', 'src': '/static/foodstim60/pear.jpg', 'key': 'u', 'origWidth': 411, 'origHeight': 410, 'width': 411, 'height': 410, 'widthPercent': 0.45, 'rescaleHeight': False, 'trialN': 73, 'loaded': True, 'loadedTime': 9461.099999904633, 'positionName': 'LEFT', 'positionCoords': [244.68, 179], 'bid': 6.8}, {'imgObject': {}, 'id': 'turkey sandwich', 'src': '/static/foodstim60/turkey sandwich.jpg', 'key': 'i', 'origWidth': 409, 'origHeight': 409, 'width': 409, 'height': 409, 'widthPercent': 0.45, 'rescaleHeight': False, 'trialN': 73, 'loaded': True, 'loadedTime': 6366.900000095367, 'positionName': 'RIGHT', 'positionCoords': [710.32, 179.5], 'bid': 7.94}]",168414.59999990463,1669829729588,pear,turkey sandwich,6.8,7.94,1.1400000000000006,turkey sandwich,2076.0,2083,2082.9000000953674,True,i,170998.7999997139,2584.199999809265,1669829732173,2585,HRV,HRV_0018,2022-11-30 17:39:38
74,"[{'imgObject': {}, 'id': 'cantaloupe', 'src': '/static/foodstim60/cantaloupe.jpg', 'key': 'u', 'origWidth': 409, 'origHeight': 409, 'width': 409, 'height': 409, 'widthPercent': 0.45, 'rescaleHeight': False, 'trialN': 74, 'loaded': True, 'loadedTime': 10436.900000095367, 'positionName': 'LEFT', 'positionCoords': [246.68, 179.5], 'bid': 3.33}, {'imgObject': {}, 'id': 'fried eggs', 'src': '/static/foodstim60/fried eggs.jpg', 'key': 'i', 'origWidth': 410, 'origHeight': 410, 'width': 410, 'height': 410, 'widthPercent': 0.45, 'rescaleHeight': False, 'trialN': 74, 'loaded': True, 'loadedTime': 10629.400000095367, 'positionName': 'RIGHT', 'positionCoords': [710.32, 179], 'bid': 6.3}]",170999.5,1669829732173,cantaloupe,fried eggs,3.33,6.3,2.9699999999999998,fried eggs,1163.5999999046326,1166,1165.5999999046326,True,i,172667.0,1667.5,1669829733841,1668,HRV,HRV_0018,2022-11-30 17:39:38
75,"[{'imgObject': {}, 'id': 'banana', 'src': '/static/foodstim60/banana.jpg', 'key': 'u', 'origWidth': 410, 'origHeight': 410, 'width': 410, 'height': 410, 'widthPercent': 0.45, 'rescaleHeight': False, 'trialN': 75, 'loaded': True, 'loadedTime': 8321.299999713898, 'positionName': 'LEFT', 'positionCoords': [245.68, 179], 'bid': 6.8}, {'imgObject': {}, 'id': 'pear', 'src': '/static/foodstim60/pear.jpg', 'key': 'i', 'origWidth': 411, 'origHeight': 410, 'width': 411, 'height': 410, 'widthPercent': 0.45, 'rescaleHeight': False, 'trialN': 75, 'loaded': True, 'loadedTime': 9460.400000095367, 'positionName': 'RIGHT', 'positionCoords': [710.32, 179], 'bid': 6.8}]",172667.59999990463,1669829733841,banana,pear,6.8,6.8,0.0,banana,1374.5,1382,1381.6999998092651,True,u,174550.19999980927,1882.5999999046326,1669829735724,1883,HRV,HRV_0018,2022-11-30 17:39:38
76,"[{'imgObject': {}, 'id': 'fruitsalad', 'src': '/static/foodstim60/fruitsalad.jpg', 'key': 'u', 'origWidth': 410, 'origHeight': 410, 'width': 410, 'height': 410, 'widthPercent': 0.45, 'rescaleHeight': False, 'trialN': 76, 'loaded': True, 'loadedTime': 10220.799999713898, 'positionName': 'LEFT', 'positionCoords': [245.68, 179], 'bid': 5.08}, {'imgObject': {}, 'id': 'chicken nuggets2', 'src': '/static/foodstim60/chicken nuggets2.jpg', 'key': 'i', 'origWidth': 410, 'origHeight': 409, 'width': 410, 'height': 409, 'widthPercent': 0.45, 'rescaleHeight': False, 'trialN': 76, 'loaded': True, 'loadedTime': 10009.199999809265, 'positionName': 'RIGHT', 'positionCoords': [710.32, 179.5], 'bid': 7.79}]",174551.90000009537,1669829735726,fruitsalad,chicken nuggets2,5.08,7.79,2.71,fruitsalad,1423.0,1426,1426.7999997138977,True,u,176480.5,1928.5999999046326,1669829737654,1928,HRV,HRV_0018,2022-11-30 17:39:38
77,"[{'imgObject': {}, 'id': 'avocado', 'src': '/static/foodstim60/avocado.jpg', 'key': 'u', 'origWidth': 409, 'origHeight': 409, 'width': 409, 'height': 409, 'widthPercent': 0.45, 'rescaleHeight': False, 'trialN': 77, 'loaded': True, 'loadedTime': 10275.400000095367, 'positionName': 'LEFT', 'positionCoords': [246.68, 179.5], 'bid': 0.05}, {'imgObject': {}, 'id': 'sweetpotato', 'src': '/static/foodstim60/sweetpotato.jpg', 'key': 'i', 'origWidth': 410, 'origHeight': 410, 'width': 410, 'height': 410, 'widthPercent': 0.45, 'rescaleHeight': False, 'trialN': 77, 'loaded': True, 'loadedTime': 8300.299999713898, 'positionName': 'RIGHT', 'positionCoords': [710.32, 179], 'bid': 0.5700000000000001}]",176481.19999980927,1669829737655,avocado,sweetpotato,0.05,0.5700000000000001,0.52,sweetpotato,1736.8000001907349,1742,1741.5999999046326,True,i,178724.19999980927,2243.0,1669829739898,2243,HRV,HRV_0018,2022-11-30 17:39:38
78,"[{'imgObject': {}, 'id': 'mac & cheese', 'src': '/static/foodstim60/mac & cheese.jpg', 'key': 'u', 'origWidth': 410, 'origHeight': 410, 'width': 410, 'height': 410, 'widthPercent': 0.45, 'rescaleHeight': False, 'trialN': 78, 'loaded': True, 'loadedTime': 10320, 'positionName': 'LEFT', 'positionCoords': [245.68, 179], 'bid': 2.96}, {'imgObject': {}, 'id': 'sushi w_condiments', 'src': '/static/foodstim60/sushi w_condiments.jpg', 'key': 'i', 'origWidth': 410, 'origHeight': 410, 'width': 410, 'height': 410, 'widthPercent': 0.45, 'rescaleHeight': False, 'trialN': 78, 'loaded': True, 'loadedTime': 6069.900000095367, 'positionName': 'RIGHT', 'positionCoords': [710.32, 179], 'bid': 1.72}]",178725.0,1669829739899,mac & cheese,sushi w_condiments,2.96,1.72,-1.24,mac & cheese,1191.6999998092651,1195,1195.2999997138977,True,u,180421.5,1696.5,1669829741595,1696,HRV,HRV_0018,2022-11-30 17:39:38
79,"[{'imgObject': {}, 'id': 'apple slices', 'src': '/static/foodstim60/apple slices.jpg', 'key': 'u', 'origWidth': 409, 'origHeight': 410, 'width': 409, 'height': 410, 'widthPercent': 0.45, 'rescaleHeight': False, 'trialN': 79, 'loaded': True, 'loadedTime': 7980.900000095367, 'positionName': 'LEFT', 'positionCoords': [246.68, 179], 'bid': 5.86}, {'imgObject': {}, 'id': 'rigatoni and sauce', 'src': '/static/foodstim60/rigatoni and sauce.jpg', 'key': 'i', 'origWidth': 410, 'origHeight': 411, 'width': 410, 'height': 411, 'widthPercent': 0.45, 'rescaleHeight': False, 'trialN': 79, 'loaded': True, 'loadedTime': 7723.900000095367, 'positionName': 'RIGHT', 'positionCoords': [710.32, 178.5], 'bid': 5.74}]",180422.09999990463,1669829741596,apple slices,rigatoni and sauce,5.86,5.74,-0.1200000000000001,rigatoni and sauce,930.6999998092651,934,934.0999999046326,True,i,181857.40000009537,1435.3000001907349,1669829743031,1435,HRV,HRV_0018,2022-11-30 17:39:38
80,"[{'imgObject': {}, 'id': 'fried eggs', 'src': '/static/foodstim60/fried eggs.jpg', 'key': 'u', 'origWidth': 410, 'origHeight': 410, 'width': 410, 'height': 410, 'widthPercent': 0.45, 'rescaleHeight': False, 'trialN': 80, 'loaded': True, 'loadedTime': 10633.400000095367, 'positionName': 'LEFT', 'positionCoords': [245.68, 179], 'bid': 6.3}, {'imgObject': {}, 'id': 'roastedpotatoes', 'src': '/static/foodstim60/roastedpotatoes.jpg', 'key': 'i', 'origWidth': 409, 'origHeight': 410, 'width': 409, 'height': 410, 'widthPercent': 0.45, 'rescaleHeight': False, 'trialN': 80, 'loaded': True, 'loadedTime': 8536.400000095367, 'positionName': 'RIGHT', 'positionCoords': [710.32, 179], 'bid': 6.99}]",181858.69999980927,1669829743032,fried eggs,roastedpotatoes,6.3,6.99,0.6900000000000004,roastedpotatoes,1687.3000001907349,1693,1692.0999999046326,True,i,184052.59999990463,2193.9000000953674,1669829745226,2194,HRV,HRV_0018,2022-11-30 17:39:38
81,"[{'imgObject': {}, 'id': 'luckycharms', 'src': '/static/foodstim60/luckycharms.jpg', 'key': 'u', 'origWidth': 410, 'origHeight': 409, 'width': 410, 'height': 409, 'widthPercent': 0.45, 'rescaleHeight': False, 'trialN': 81, 'loaded': True, 'loadedTime': 7362.199999809265, 'positionName': 'LEFT', 'positionCoords': [245.68, 179.5], 'bid': 5.54}, {'imgObject': {}, 'id': 'blueberries', 'src': '/static/foodstim60/blueberries.jpg', 'key': 'i', 'origWidth': 411, 'origHeight': 411, 'width': 411, 'height': 411, 'widthPercent': 0.45, 'rescaleHeight': False, 'trialN': 81, 'loaded': True, 'loadedTime': 10623.699999809265, 'positionName': 'RIGHT', 'positionCoords': [710.32, 178.5], 'bid': 5.2}]",184053.19999980927,1669829745227,luckycharms,blueberries,5.54,5.2,-0.33999999999999986,luckycharms,1418.2000002861023,1423,1423.3000001907349,True,u,185977.0,1923.8000001907349,1669829747151,1924,HRV,HRV_0018,2022-11-30 17:39:38
82,"[{'imgObject': {}, 'id': 'burger', 'src': '/static/foodstim60/burger.jpg', 'key': 'u', 'origWidth': 409, 'origHeight': 409, 'width': 409, 'height': 409, 'widthPercent': 0.45, 'rescaleHeight': False, 'trialN': 82, 'loaded': True, 'loadedTime': 10634.099999904633, 'positionName': 'LEFT', 'positionCoords': [246.68, 179.5], 'bid': 6.99}, {'imgObject': {}, 'id': 'roastedpotatoes', 'src': '/static/foodstim60/roastedpotatoes.jpg', 'key': 'i', 'origWidth': 409, 'origHeight': 410, 'width': 409, 'height': 410, 'widthPercent': 0.45, 'rescaleHeight': False, 'trialN': 82, 'loaded': True, 'loadedTime': 8552.299999713898, 'positionName': 'RIGHT', 'positionCoords': [710.32, 179], 'bid': 6.99}]",185977.40000009537,1669829747151,burger,roastedpotatoes,6.99,6.99,0.0,burger,1033.5999999046326,1036,1036.0,True,u,187514.09999990463,1536.6999998092651,1669829748688,1537,HRV,HRV_0018,2022-11-30 17:39:38
83,"[{'imgObject': {}, 'id': 'rigatoni', 'src': '/static/foodstim60/rigatoni.jpg', 'key': 'u', 'origWidth': 411, 'origHeight': 411, 'width': 411, 'height': 411, 'widthPercent': 0.45, 'rescaleHeight': False, 'trialN': 83, 'loaded': True, 'loadedTime': 9247.599999904633, 'positionName': 'LEFT', 'positionCoords': [244.68, 178.5], 'bid': 3.21}, {'imgObject': {}, 'id': 'sweetpotato', 'src': '/static/foodstim60/sweetpotato.jpg', 'key': 'i', 'origWidth': 410, 'origHeight': 410, 'width': 410, 'height': 410, 'widthPercent': 0.45, 'rescaleHeight': False, 'trialN': 83, 'loaded': True, 'loadedTime': 8301.400000095367, 'positionName': 'RIGHT', 'positionCoords': [710.32, 179], 'bid': 0.5700000000000001}]",187514.40000009537,1669829748688,rigatoni,sweetpotato,3.21,0.5700000000000001,-2.6399999999999997,rigatoni,1050.5,1054,1053.5,True,u,189068.69999980927,1554.2999997138977,1669829750242,1554,HRV,HRV_0018,2022-11-30 17:39:38
84,"[{'imgObject': {}, 'id': 'burrito', 'src': '/static/foodstim60/burrito.jpg', 'key': 'u', 'origWidth': 410, 'origHeight': 410, 'width': 410, 'height': 410, 'widthPercent': 0.45, 'rescaleHeight': False, 'trialN': 84, 'loaded': True, 'loadedTime': 10381.099999904633, 'positionName': 'LEFT', 'positionCoords': [245.68, 179], 'bid': 7.13}, {'imgObject': {}, 'id': 'corn cob', 'src': '/static/foodstim60/corn cob.jpg', 'key': 'i', 'origWidth': 411, 'origHeight': 411, 'width': 411, 'height': 411, 'widthPercent': 0.45, 'rescaleHeight': False, 'trialN': 84, 'loaded': True, 'loadedTime': 5221, 'positionName': 'RIGHT', 'positionCoords': [710.32, 178.5], 'bid': 7.7}]",189069.40000009537,1669829750243,burrito,corn cob,7.13,7.7,0.5700000000000003,burrito,1267.6999998092651,1273,1272.8999996185303,True,u,190843.5,1774.0999999046326,1669829752017,1774,HRV,HRV_0018,2022-11-30 17:39:38
85,"[{'imgObject': {}, 'id': 'raspberries', 'src': '/static/foodstim60/raspberries.jpg', 'key': 'u', 'origWidth': 411, 'origHeight': 411, 'width': 411, 'height': 411, 'widthPercent': 0.45, 'rescaleHeight': False, 'trialN': 85, 'loaded': True, 'loadedTime': 10614.400000095367, 'positionName': 'LEFT', 'positionCoords': [244.68, 178.5], 'bid': 6.25}, {'imgObject': {}, 'id': 'rigatoni', 'src': '/static/foodstim60/rigatoni.jpg', 'key': 'i', 'origWidth': 411, 'origHeight': 411, 'width': 411, 'height': 411, 'widthPercent': 0.45, 'rescaleHeight': False, 'trialN': 85, 'loaded': True, 'loadedTime': 9438.400000095367, 'positionName': 'RIGHT', 'positionCoords': [710.32, 178.5], 'bid': 3.21}]",190844.2999997139,1669829752018,raspberries,rigatoni,6.25,3.21,-3.04,raspberries,2234.4000000953674,2242,2241.7000002861023,True,u,193587.2999997139,2743.0,1669829754761,2743,HRV,HRV_0018,2022-11-30 17:39:38
86,"[{'imgObject': {}, 'id': 'rigatoni and sauce', 'src': '/static/foodstim60/rigatoni and sauce.jpg', 'key': 'u', 'origWidth': 410, 'origHeight': 411, 'width': 410, 'height': 411, 'widthPercent': 0.45, 'rescaleHeight': False, 'trialN': 86, 'loaded': True, 'loadedTime': 7723.099999904633, 'positionName': 'LEFT', 'positionCoords': [245.68, 178.5], 'bid': 5.74}, {'imgObject': {}, 'id': 'cherries', 'src': '/static/foodstim60/cherries.jpg', 'key': 'i', 'origWidth': 410, 'origHeight': 411, 'width': 410, 'height': 411, 'widthPercent': 0.45, 'rescaleHeight': False, 'trialN': 86, 'loaded': True, 'loadedTime': 9636, 'positionName': 'RIGHT', 'positionCoords': [710.32, 178.5], 'bid': 5.7700000000000005}]",193587.90000009537,1669829754762,rigatoni and sauce,cherries,5.74,5.7700000000000005,0.03000000000000025,rigatoni and sauce,1077.0,1081,1081.2999997138977,True,u,195172.19999980927,1584.2999997138977,1669829756346,1584,HRV,HRV_0018,2022-11-30 17:39:38
87,"[{'imgObject': {}, 'id': 'eggsalad', 'src': '/static/foodstim60/eggsalad.jpg', 'key': 'u', 'origWidth': 410, 'origHeight': 409, 'width': 410, 'height': 409, 'widthPercent': 0.45, 'rescaleHeight': False, 'trialN': 87, 'loaded': True, 'loadedTime': 10305.199999809265, 'positionName': 'LEFT', 'positionCoords': [245.68, 179.5], 'bid': 2.61}, {'imgObject': {}, 'id': 'burrito', 'src': '/static/foodstim60/burrito.jpg', 'key': 'i', 'origWidth': 410, 'origHeight': 410, 'width': 410, 'height': 410, 'widthPercent': 0.45, 'rescaleHeight': False, 'trialN': 87, 'loaded': True, 'loadedTime': 10379.799999713898, 'positionName': 'RIGHT', 'positionCoords': [710.32, 179], 'bid': 7.13}]",195173.5,1669829756347,eggsalad,burrito,2.61,7.13,4.52,burrito,1213.0999999046326,1223,1222.5,True,i,196896.7999997139,1723.2999997138977,1669829758071,1724,HRV,HRV_0018,2022-11-30 17:39:38
88,"[{'imgObject': {}, 'id': 'steak', 'src': '/static/foodstim60/steak.jpg', 'key': 'u', 'origWidth': 410, 'origHeight': 410, 'width': 410, 'height': 410, 'widthPercent': 0.45, 'rescaleHeight': False, 'trialN': 88, 'loaded': True, 'loadedTime': 8302.5, 'positionName': 'LEFT', 'positionCoords': [245.68, 179], 'bid': 6.34}, {'imgObject': {}, 'id': 'popsicles', 'src': '/static/foodstim60/popsicles.jpg', 'key': 'i', 'origWidth': 410, 'origHeight': 410, 'width': 410, 'height': 410, 'widthPercent': 0.45, 'rescaleHeight': False, 'trialN': 88, 'loaded': True, 'loadedTime': 9022.099999904633, 'positionName': 'RIGHT', 'positionCoords': [710.32, 179], 'bid': 7.79}]",196898.69999980927,1669829758072,steak,popsicles,6.34,7.79,1.4500000000000002,steak,1101.5999999046326,1107,1106.0999999046326,True,u,198505.2999997139,1606.5999999046326,1669829759679,1607,HRV,HRV_0018,2022-11-30 17:39:38
89,"[{'imgObject': {}, 'id': 'hotdog w must', 'src': '/static/foodstim60/hotdog w must.jpg', 'key': 'u', 'origWidth': 409, 'origHeight': 409, 'width': 409, 'height': 409, 'widthPercent': 0.45, 'rescaleHeight': False, 'trialN': 89, 'loaded': True, 'loadedTime': 10376.400000095367, 'positionName': 'LEFT', 'positionCoords': [246.68, 179.5], 'bid': 3.41}, {'imgObject': {}, 'id': 'edamame', 'src': '/static/foodstim60/edamame.jpg', 'key': 'i', 'origWidth': 409, 'origHeight': 410, 'width': 409, 'height': 410, 'widthPercent': 0.45, 'rescaleHeight': False, 'trialN': 89, 'loaded': True, 'loadedTime': 5693.199999809265, 'positionName': 'RIGHT', 'positionCoords': [710.32, 179], 'bid': 3.24}]",198505.59999990463,1669829759679,hotdog w must,edamame,3.41,3.24,-0.16999999999999993,hotdog w must,994.1999998092651,998,997.8000001907349,True,u,200004.40000009537,1498.8000001907349,1669829761178,1499,HRV,HRV_0018,2022-11-30 17:39:38
90,"[{'imgObject': {}, 'id': 'sweetpotato', 'src': '/static/foodstim60/sweetpotato.jpg', 'key': 'u', 'origWidth': 410, 'origHeight': 410, 'width': 410, 'height': 410, 'widthPercent': 0.45, 'rescaleHeight': False, 'trialN': 90, 'loaded': True, 'loadedTime': 8153.199999809265, 'positionName': 'LEFT', 'positionCoords': [245.68, 179], 'bid': 0.5700000000000001}, {'imgObject': {}, 'id': 'mango', 'src': '/static/foodstim60/mango.jpg', 'key': 'i', 'origWidth': 411, 'origHeight': 411, 'width': 411, 'height': 411, 'widthPercent': 0.45, 'rescaleHeight': False, 'trialN': 90, 'loaded': True, 'loadedTime': 10605, 'positionName': 'RIGHT', 'positionCoords': [710.32, 178.5], 'bid': 5.07}]",228385.0,1669829789559,sweetpotato,mango,0.5700000000000001,5.07,4.5,mango,1637.6999998092651,1644,1643.9000000953674,True,i,230530.40000009537,2145.4000000953674,1669829791704,2145,HRV,HRV_0018,2022-11-30 17:39:38
91,"[{'imgObject': {}, 'id': 'tacos', 'src': '/static/foodstim60/tacos.jpg', 'key': 'u', 'origWidth': 411, 'origHeight': 411, 'width': 411, 'height': 411, 'widthPercent': 0.45, 'rescaleHeight': False, 'trialN': 91, 'loaded': True, 'loadedTime': 10422, 'positionName': 'LEFT', 'positionCoords': [244.68, 178.5], 'bid': 8.42}, {'imgObject': {}, 'id': 'roastedpotatoes', 'src': '/static/foodstim60/roastedpotatoes.jpg', 'key': 'i', 'origWidth': 409, 'origHeight': 410, 'width': 409, 'height': 410, 'widthPercent': 0.45, 'rescaleHeight': False, 'trialN': 91, 'loaded': True, 'loadedTime': 8782.400000095367, 'positionName': 'RIGHT', 'positionCoords': [710.32, 179], 'bid': 6.99}]",230531.0,1669829791705,tacos,roastedpotatoes,8.42,6.99,-1.4299999999999997,tacos,1141.9000000953674,1145,1145.5999999046326,True,u,232178.59999990463,1647.5999999046326,1669829793352,1647,HRV,HRV_0018,2022-11-30 17:39:38
92,"[{'imgObject': {}, 'id': 'chicken nuggets2', 'src': '/static/foodstim60/chicken nuggets2.jpg', 'key': 'u', 'origWidth': 410, 'origHeight': 409, 'width': 410, 'height': 409, 'widthPercent': 0.45, 'rescaleHeight': False, 'trialN': 92, 'loaded': True, 'loadedTime': 10201.400000095367, 'positionName': 'LEFT', 'positionCoords': [245.68, 179.5], 'bid': 7.79}, {'imgObject': {}, 'id': 'salmon', 'src': '/static/foodstim60/salmon.jpg', 'key': 'i', 'origWidth': 410, 'origHeight': 409, 'width': 410, 'height': 409, 'widthPercent': 0.45, 'rescaleHeight': False, 'trialN': 92, 'loaded': True, 'loadedTime': 5578.099999904633, 'positionName': 'RIGHT', 'positionCoords': [710.32, 179.5], 'bid': 8.89}]",232179.69999980927,1669829793353,chicken nuggets2,salmon,7.79,8.89,1.1000000000000005,chicken nuggets2,2407.4000000953674,2419,2418.800000190735,True,u,235100.0,2920.300000190735,1669829796274,2921,HRV,HRV_0018,2022-11-30 17:39:38
93,"[{'imgObject': {}, 'id': 'avocado', 'src': '/static/foodstim60/avocado.jpg', 'key': 'u', 'origWidth': 409, 'origHeight': 409, 'width': 409, 'height': 409, 'widthPercent': 0.45, 'rescaleHeight': False, 'trialN': 93, 'loaded': True, 'loadedTime': 10275, 'positionName': 'LEFT', 'positionCoords': [246.68, 179.5], 'bid': 0.05}, {'imgObject': {}, 'id': 'seaweed', 'src': '/static/foodstim60/seaweed.jpg', 'key': 'i', 'origWidth': 410, 'origHeight': 410, 'width': 410, 'height': 410, 'widthPercent': 0.45, 'rescaleHeight': False, 'trialN': 93, 'loaded': True, 'loadedTime': 9224.400000095367, 'positionName': 'RIGHT', 'positionCoords': [710.32, 179], 'bid': 0.31}]",235101.5,1669829796275,avocado,seaweed,0.05,0.31,0.26,avocado,1519.5,1524,1523.4000000953674,True,u,237127.5,2026.0,1669829798301,2026,HRV,HRV_0018,2022-11-30 17:39:38
94,"[{'imgObject': {}, 'id': 'chickenfingers', 'src': '/static/foodstim60/chickenfingers.jpg', 'key': 'u', 'origWidth': 410, 'origHeight': 410, 'width': 410, 'height': 410, 'widthPercent': 0.45, 'rescaleHeight': False, 'trialN': 94, 'loaded': True, 'loadedTime': 9246.299999713898, 'positionName': 'LEFT', 'positionCoords': [245.68, 179], 'bid': 8.540000000000001}, {'imgObject': {}, 'id': 'strawberries', 'src': '/static/foodstim60/strawberries.jpg', 'key': 'i', 'origWidth': 410, 'origHeight': 410, 'width': 410, 'height': 410, 'widthPercent': 0.45, 'rescaleHeight': False, 'trialN': 94, 'loaded': True, 'loadedTime': 6548.199999809265, 'positionName': 'RIGHT', 'positionCoords': [710.32, 179], 'bid': 7.82}]",237128.69999980927,1669829798302,chickenfingers,strawberries,8.540000000000001,7.82,-0.7200000000000006,chickenfingers,1107.0999999046326,1116,1115.9000000953674,True,u,238745.90000009537,1617.2000002861023,1669829799920,1618,HRV,HRV_0018,2022-11-30 17:39:38
95,"[{'imgObject': {}, 'id': 'burger', 'src': '/static/foodstim60/burger.jpg', 'key': 'u', 'origWidth': 409, 'origHeight': 409, 'width': 409, 'height': 409, 'widthPercent': 0.45, 'rescaleHeight': False, 'trialN': 95, 'loaded': True, 'loadedTime': 10637.400000095367, 'positionName': 'LEFT', 'positionCoords': [246.68, 179.5], 'bid': 6.99}, {'imgObject': {}, 'id': 'olives', 'src': '/static/foodstim60/olives.jpg', 'key': 'i', 'origWidth': 410, 'origHeight': 410, 'width': 410, 'height': 410, 'widthPercent': 0.45, 'rescaleHeight': False, 'trialN': 95, 'loaded': True, 'loadedTime': 9988.400000095367, 'positionName': 'RIGHT', 'positionCoords': [710.32, 179], 'bid': 6.2700000000000005}]",238747.19999980927,1669829799921,burger,olives,6.99,6.2700000000000005,-0.7199999999999998,burger,1013.4000000953674,1017,1017.5,True,u,240265.5,1518.3000001907349,1669829801439,1518,HRV,HRV_0018,2022-11-30 17:39:38
96,"[{'imgObject': {}, 'id': 'sweetpotato', 'src': '/static/foodstim60/sweetpotato.jpg', 'key': 'u', 'origWidth': 410, 'origHeight': 410, 'width': 410, 'height': 410, 'widthPercent': 0.45, 'rescaleHeight': False, 'trialN': 96, 'loaded': True, 'loadedTime': 8302.199999809265, 'positionName': 'LEFT', 'positionCoords': [245.68, 179], 'bid': 0.5700000000000001}, {'imgObject': {}, 'id': 'hashbrowns', 'src': '/static/foodstim60/hashbrowns.jpg', 'key': 'i', 'origWidth': 411, 'origHeight': 410, 'width': 411, 'height': 410, 'widthPercent': 0.45, 'rescaleHeight': False, 'trialN': 96, 'loaded': True, 'loadedTime': 5656, 'positionName': 'RIGHT', 'positionCoords': [710.32, 179], 'bid': 1.5}]",240266.19999980927,1669829801440,sweetpotato,hashbrowns,0.5700000000000001,1.5,0.9299999999999999,hashbrowns,1084.8000001907349,1089,1088.8000001907349,True,i,241855.7999997139,1589.5999999046326,1669829803030,1590,HRV,HRV_0018,2022-11-30 17:39:38
97,"[{'imgObject': {}, 'id': 'grilled chicken strips', 'src': '/static/foodstim60/grilled chicken strips.jpg', 'key': 'u', 'origWidth': 410, 'origHeight': 411, 'width': 410, 'height': 411, 'widthPercent': 0.45, 'rescaleHeight': False, 'trialN': 97, 'loaded': True, 'loadedTime': 10615.199999809265, 'positionName': 'LEFT', 'positionCoords': [245.68, 178.5], 'bid': 7.32}, {'imgObject': {}, 'id': 'burrito', 'src': '/static/foodstim60/burrito.jpg', 'key': 'i', 'origWidth': 410, 'origHeight': 410, 'width': 410, 'height': 410, 'widthPercent': 0.45, 'rescaleHeight': False, 'trialN': 97, 'loaded': True, 'loadedTime': 10377.099999904633, 'positionName': 'RIGHT', 'positionCoords': [710.32, 179], 'bid': 7.13}]",241856.19999980927,1669829803030,grilled chicken strips,burrito,7.32,7.13,-0.1900000000000004,burrito,1076.5999999046326,1082,1082.5,True,i,243440.5,1584.3000001907349,1669829804614,1584,HRV,HRV_0018,2022-11-30 17:39:38
98,"[{'imgObject': {}, 'id': 'yogurt no spoon', 'src': '/static/foodstim60/yogurt no spoon.jpg', 'key': 'u', 'origWidth': 411, 'origHeight': 410, 'width': 411, 'height': 410, 'widthPercent': 0.45, 'rescaleHeight': False, 'trialN': 98, 'loaded': True, 'loadedTime': 10605.799999713898, 'positionName': 'LEFT', 'positionCoords': [244.68, 179], 'bid': 5.16}, {'imgObject': {}, 'id': 'fruitsalad', 'src': '/static/foodstim60/fruitsalad.jpg', 'key': 'i', 'origWidth': 410, 'origHeight': 410, 'width': 410, 'height': 410, 'widthPercent': 0.45, 'rescaleHeight': False, 'trialN': 98, 'loaded': True, 'loadedTime': 10211.400000095367, 'positionName': 'RIGHT', 'positionCoords': [710.32, 179], 'bid': 5.08}]",243441.2999997139,1669829804615,yogurt no spoon,fruitsalad,5.16,5.08,-0.08000000000000007,yogurt no spoon,1228.8000001907349,1233,1232.7000002861023,True,u,245176.69999980927,1735.4000000953674,1669829806350,1735,HRV,HRV_0018,2022-11-30 17:39:38
99,"[{'imgObject': {}, 'id': 'cocktailshrimp', 'src': '/static/foodstim60/cocktailshrimp.jpg', 'key': 'u', 'origWidth': 410, 'origHeight': 410, 'width': 410, 'height': 410, 'widthPercent': 0.45, 'rescaleHeight': False, 'trialN': 99, 'loaded': True, 'loadedTime': 10595.900000095367, 'positionName': 'LEFT', 'positionCoords': [245.68, 179], 'bid': 1.63}, {'imgObject': {}, 'id': 'eggsalad', 'src': '/static/foodstim60/eggsalad.jpg', 'key': 'i', 'origWidth': 410, 'origHeight': 409, 'width': 410, 'height': 409, 'widthPercent': 0.45, 'rescaleHeight': False, 'trialN': 99, 'loaded': True, 'loadedTime': 10294.799999713898, 'positionName': 'RIGHT', 'positionCoords': [710.32, 179.5], 'bid': 2.61}]",245178.09999990463,1669829806352,cocktailshrimp,eggsalad,1.63,2.61,0.98,eggsalad,1575.8000001907349,1580,1580.4000000953674,True,i,247259.90000009537,2081.800000190735,1669829808434,2082,HRV,HRV_0018,2022-11-30 17:39:38
100,"[{'imgObject': {}, 'id': 'hotdog w must', 'src': '/static/foodstim60/hotdog w must.jpg', 'key': 'u', 'origWidth': 409, 'origHeight': 409, 'width': 409, 'height': 409, 'widthPercent': 0.45, 'rescaleHeight': False, 'trialN': 100, 'loaded': True, 'loadedTime': 10352.400000095367, 'positionName': 'LEFT', 'positionCoords': [246.68, 179.5], 'bid': 3.41}, {'imgObject': {}, 'id': 'avocado', 'src': '/static/foodstim60/avocado.jpg', 'key': 'i', 'origWidth': 409, 'origHeight': 409, 'width': 409, 'height': 409, 'widthPercent': 0.45, 'rescaleHeight': False, 'trialN': 100, 'loaded': True, 'loadedTime': 10249.900000095367, 'positionName': 'RIGHT', 'positionCoords': [710.32, 179.5], 'bid': 0.05}]",247260.5,1669829808434,hotdog w must,avocado,3.41,0.05,-3.3600000000000003,hotdog w must,1046.0999999046326,1053,1053.0,True,u,248814.40000009537,1553.9000000953674,1669829809988,1554,HRV,HRV_0018,2022-11-30 17:39:38
101,"[{'imgObject': {}, 'id': 'kiwi', 'src': '/static/foodstim60/kiwi.jpg', 'key': 'u', 'origWidth': 410, 'origHeight': 410, 'width': 410, 'height': 410, 'widthPercent': 0.45, 'rescaleHeight': False, 'trialN': 101, 'loaded': True, 'loadedTime': 9621.400000095367, 'positionName': 'LEFT', 'positionCoords': [245.68, 179], 'bid': 2.02}, {'imgObject': {}, 'id': 'mac & cheese', 'src': '/static/foodstim60/mac & cheese.jpg', 'key': 'i', 'origWidth': 410, 'origHeight': 410, 'width': 410, 'height': 410, 'widthPercent': 0.45, 'rescaleHeight': False, 'trialN': 101, 'loaded': True, 'loadedTime': 10320.400000095367, 'positionName': 'RIGHT', 'positionCoords': [710.32, 179], 'bid': 2.96}]",248815.59999990463,1669829809989,kiwi,mac & cheese,2.02,2.96,0.94,mac & cheese,900.6999998092651,906,906.0999999046326,True,i,250223.5,1407.9000000953674,1669829811397,1408,HRV,HRV_0018,2022-11-30 17:39:38
102,"[{'imgObject': {}, 'id': 'kiwi', 'src': '/static/foodstim60/kiwi.jpg', 'key': 'u', 'origWidth': 410, 'origHeight': 410, 'width': 410, 'height': 410, 'widthPercent': 0.45, 'rescaleHeight': False, 'trialN': 102, 'loaded': True, 'loadedTime': 9632.099999904633, 'positionName': 'LEFT', 'positionCoords': [245.68, 179], 'bid': 2.02}, {'imgObject': {}, 'id': 'roastedpotatoes', 'src': '/static/foodstim60/roastedpotatoes.jpg', 'key': 'i', 'origWidth': 409, 'origHeight': 410, 'width': 409, 'height': 410, 'widthPercent': 0.45, 'rescaleHeight': False, 'trialN': 102, 'loaded': True, 'loadedTime': 8544, 'positionName': 'RIGHT', 'positionCoords': [710.32, 179], 'bid': 6.99}]",250224.09999990463,1669829811398,kiwi,roastedpotatoes,2.02,6.99,4.970000000000001,roastedpotatoes,1267.8000001907349,1271,1270.6999998092651,True,i,251996.7999997139,1772.6999998092651,1669829813171,1773,HRV,HRV_0018,2022-11-30 17:39:38
103,"[{'imgObject': {}, 'id': 'salmon', 'src': '/static/foodstim60/salmon.jpg', 'key': 'u', 'origWidth': 410, 'origHeight': 409, 'width': 410, 'height': 409, 'widthPercent': 0.45, 'rescaleHeight': False, 'trialN': 103, 'loaded': True, 'loadedTime': 5575, 'positionName': 'LEFT', 'positionCoords': [245.68, 179.5], 'bid': 8.89}, {'imgObject': {}, 'id': 'olives', 'src': '/static/foodstim60/olives.jpg', 'key': 'i', 'origWidth': 410, 'origHeight': 410, 'width': 410, 'height': 410, 'widthPercent': 0.45, 'rescaleHeight': False, 'trialN': 103, 'loaded': True, 'loadedTime': 9993.099999904633, 'positionName': 'RIGHT', 'positionCoords': [710.32, 179], 'bid': 6.2700000000000005}]",251997.19999980927,1669829813171,salmon,olives,8.89,6.2700000000000005,-2.62,salmon,1195.3000001907349,1201,1200.5999999046326,True,u,253699.0,1701.8000001907349,1669829814873,1702,HRV,HRV_0018,2022-11-30 17:39:38
104,"[{'imgObject': {}, 'id': 'turkeysandwich', 'src': '/static/foodstim60/turkeysandwich.jpg', 'key': 'u', 'origWidth': 409, 'origHeight': 409, 'width': 409, 'height': 409, 'widthPercent': 0.45, 'rescaleHeight': False, 'trialN': 104, 'loaded': True, 'loadedTime': 5415.5, 'positionName': 'LEFT', 'positionCoords': [246.68, 179.5], 'bid': 7.62}, {'imgObject': {}, 'id': 'orange slices', 'src': '/static/foodstim60/orange slices.jpg', 'key': 'i', 'origWidth': 409, 'origHeight': 410, 'width': 409, 'height': 410, 'widthPercent': 0.45, 'rescaleHeight': False, 'trialN': 104, 'loaded': True, 'loadedTime': 9022.599999904633, 'positionName': 'RIGHT', 'positionCoords': [710.32, 179], 'bid': 7.69}]",253699.5,1669829814873,turkeysandwich,orange slices,7.62,7.69,0.07000000000000028,turkeysandwich,1593.7999997138977,1598,1597.2999997138977,True,u,255798.2999997139,2098.7999997138977,1669829816972,2099,HRV,HRV_0018,2022-11-30 17:39:38
105,"[{'imgObject': {}, 'id': 'Grapes', 'src': '/static/foodstim60/Grapes.jpg', 'key': 'u', 'origWidth': 411, 'origHeight': 411, 'width': 411, 'height': 411, 'widthPercent': 0.45, 'rescaleHeight': False, 'trialN': 105, 'loaded': True, 'loadedTime': 7138.799999713898, 'positionName': 'LEFT', 'positionCoords': [244.68, 178.5], 'bid': 6.53}, {'imgObject': {}, 'id': 'cocktailshrimp', 'src': '/static/foodstim60/cocktailshrimp.jpg', 'key': 'i', 'origWidth': 410, 'origHeight': 410, 'width': 410, 'height': 410, 'widthPercent': 0.45, 'rescaleHeight': False, 'trialN': 105, 'loaded': True, 'loadedTime': 10597.299999713898, 'positionName': 'RIGHT', 'positionCoords': [710.32, 179], 'bid': 1.63}]",255799.59999990463,1669829816973,Grapes,cocktailshrimp,6.53,1.63,-4.9,Grapes,1698.0999999046326,1702,1701.9000000953674,True,u,258002.40000009537,2202.800000190735,1669829819176,2203,HRV,HRV_0018,2022-11-30 17:39:38
106,"[{'imgObject': {}, 'id': 'salmon', 'src': '/static/foodstim60/salmon.jpg', 'key': 'u', 'origWidth': 410, 'origHeight': 409, 'width': 410, 'height': 409, 'widthPercent': 0.45, 'rescaleHeight': False, 'trialN': 106, 'loaded': True, 'loadedTime': 5586.599999904633, 'positionName': 'LEFT', 'positionCoords': [245.68, 179.5], 'bid': 8.89}, {'imgObject': {}, 'id': 'ice cream sundae 002', 'src': '/static/foodstim60/ice cream sundae 002.jpg', 'key': 'i', 'origWidth': 409, 'origHeight': 409, 'width': 409, 'height': 409, 'widthPercent': 0.45, 'rescaleHeight': False, 'trialN': 106, 'loaded': True, 'loadedTime': 5449, 'positionName': 'RIGHT', 'positionCoords': [710.32, 179.5], 'bid': 8.85}]",258002.7999997139,1669829819177,salmon,ice cream sundae 002,8.89,8.85,-0.040000000000000924,ice cream sundae 002,2056.4000000953674,2067,2067.1000003814697,True,i,260570.90000009537,2568.1000003814697,1669829821745,2568,HRV,HRV_0018,2022-11-30 17:39:38
107,"[{'imgObject': {}, 'id': 'raisin bran w milk', 'src': '/static/foodstim60/raisin bran w milk.jpg', 'key': 'u', 'origWidth': 411, 'origHeight': 411, 'width': 411, 'height': 411, 'widthPercent': 0.45, 'rescaleHeight': False, 'trialN': 107, 'loaded': True, 'loadedTime': 7977.299999713898, 'positionName': 'LEFT', 'positionCoords': [244.68, 178.5], 'bid': 8.14}, {'imgObject': {}, 'id': 'banana', 'src': '/static/foodstim60/banana.jpg', 'key': 'i', 'origWidth': 410, 'origHeight': 410, 'width': 410, 'height': 410, 'widthPercent': 0.45, 'rescaleHeight': False, 'trialN': 107, 'loaded': True, 'loadedTime': 8529.599999904633, 'positionName': 'RIGHT', 'positionCoords': [710.32, 179], 'bid': 6.8}]",260571.5,1669829821745,raisin bran w milk,banana,8.14,6.8,-1.3400000000000007,raisin bran w milk,1292.5999999046326,1299,1298.5999999046326,True,u,262372.0,1800.5,1669829823546,1801,HRV,HRV_0018,2022-11-30 17:39:38
108,"[{'imgObject': {}, 'id': 'cheerios', 'src': '/static/foodstim60/cheerios.jpg', 'key': 'u', 'origWidth': 409, 'origHeight': 410, 'width': 409, 'height': 410, 'widthPercent': 0.45, 'rescaleHeight': False, 'trialN': 108, 'loaded': True, 'loadedTime': 10415.199999809265, 'positionName': 'LEFT', 'positionCoords': [246.68, 179], 'bid': 5.73}, {'imgObject': {}, 'id': 'Tribe humus pita', 'src': '/static/foodstim60/Tribe humus pita.jpg', 'key': 'i', 'origWidth': 411, 'origHeight': 411, 'width': 411, 'height': 411, 'widthPercent': 0.45, 'rescaleHeight': False, 'trialN': 108, 'loaded': True, 'loadedTime': 10624.400000095367, 'positionName': 'RIGHT', 'positionCoords': [710.32, 178.5], 'bid': 1.79}]",262373.2999997139,1669829823547,cheerios,Tribe humus pita,5.73,1.79,-3.9400000000000004,Tribe humus pita,1597.6000003814697,1601,1600.6000003814697,True,i,264474.59999990463,2101.300000190735,1669829825648,2101,HRV,HRV_0018,2022-11-30 17:39:38
