success,trial_type,trial_index,time_elapsed,internal_node_id,Block,TrialNumber,TrialTime,trialTimeDiff,FPS_avg,FPS_med,FPS_mode,TrialDur,winResizeTime,rt,block,button_pressed,MotCoh,MotDir,ColCoh,Color,ChoiceKey,Choice,Accuracy,RT,nFrames,FPS,PPD,missTrial,missTrialMsg,onsetDelay,fullScreenExitTime,canvCenter,TrialType,Score,BlockTrial,stimulus,button_labels,exp,subjectId,date
True,fullscreen,0,52426,0.0-0.0,0.0,1.0,,,,,,,,,,,,,,,,,,,,,,,,,,,,,,,,HRV,HRV_0018,2022-11-30 18:09:54
,wl-check-fps,1,57446,0.0-1.0,0.0,2.0,"[53588.2, 53592.4, 53605.9, 53625.2, 53634.8, 53648.7, 53664.6, 53684.2, 53698.7, 53715.2, 53748.1, 53751.7, 53766.6, 53788.7, 53800.5, 53816.1, 53842.2, 53852.1, 53872.4, 53886, 53918.3, 53923, 53935.4, 53949.9, 53965.8, 53981.8, 54002.1, 54015.3, 54034.5, 54050.9, 54065.7, 54082.4, 54100.5, 54116.1, 54136.2, 54150.5, 54165.4, 54181.9, 54200.2, 54215.3, 54234, 54249.7, 54265.4, 54283.7, 54300.5, 54316.7, 54334.6, 54348.3, 54367.7, 54381.8, 54399.2, 54415.6, 54435, 54452.1, 54465.5, 54482.6, 54498.6, 54519.2, 54533.9, 54547.5, 54570.4, 54581.5, 54597.8, 54615.4, 54633.7, 54648.3, 54671.9, 54681.6, 54698.9, 54717, 54733.5, 54748.3, 54766.9, 54781.8, 54798.6, 54816.2, 54833, 54849.8, 54865.2, 54882.7, 54898.6, 54914.5, 54936, 54948.7, 54966.2, 54983.6, 54999.3, 55016, 55035.7, 55049, 55066.2, 55082.8, 55099, 55115.5, 55134.3, 55149, 55167.3, 55182.2, 55199.6, 55215.9, 55232.6, 55248.4, 55266, 55281.6, 55298.1, 55315.2, 55332, 55348.6, 55365.9, 55381.8, 55398.4, 55415.9, 55434.5, 55448.7, 55466.7, 55483.1, 55501.4, 55515.2, 55531.2, 55548.3, 55566, 55583.7, 55600.6, 55615.6, 55635.3, 55648.4, 55665.8, 55682.2, 55701.6, 55716.4, 55739, 55747.7, 55765, 55782.9, 55799.3, 55814.1, 55833.3, 55851.8, 55865.9, 55882, 55898.1, 55915, 55933.2, 55947.7, 55966.2, 55981.5, 56000.2, 56017.3, 56032.3, 56048.5, 56065.3, 56083.5, 56098.8, 56115.5, 56134.2, 56148.8, 56165.3, 56182.1, 56199, 56215.3, 56231.3, 56247.2, 56264.7, 56282.1, 56298.7, 56316.4, 56336.2, 56348.4, 56365.7, 56387, 56399, 56415.5, 56433.7, 56447.8, 56466.4, 56482.1, 56499.2, 56514.6, 56534.3, 56548, 56565.1, 56584.5, 56600.6, 56616.7, 56635.3, 56648.8, 56665.9, 56684.1, 56699.8, 56716, 56735.9, 56748.3, 56766.5, 56781.5, 56800.7, 56815, 56835.1, 56848.7, 56864.2, 56881.6, 56898.1, 56917.1, 56931.2, 56948.5, 56964.8, 56983.5, 56999.6, 57016.4, 57032.8, 57049, 57066.1, 57081.7, 57098.7, 57115.5, 57138.8, 57148.2, 57165.9, 57186.6, 57197.6, 57214.4, 57233.2, 57248.6, 57266.3, 57281.7, 57298.8, 57315.3, 57337.7, 57349.4, 57371.9, 57386.1, 57403.6, 57418.5, 57436.2, 57451.7, 57469.2, 57485, 57502.2, 57520.2, 57539.6, 57552, 57570.5, 57582, 57599.1, 57614.3, 57633.1, 57648.9, 57665.5, 57689.2, 57698.5, 57715.3, 57731.6, 57749, 57764.1, 57781.1, 57798.2, 57817, 57835.3, 57851, 57868.1, 57891.2, 57902.3, 57919.3, 57938, 57953.6, 57975.7, 57985.4, 58003.1, 58019.3, 58036.6, 58051.1, 58071.2, 58089.1, 58108.4, 58114.7, 58133.8, 58147.4, 58165.4, 58181.7, 58198.8, 58218.2, 58237.1, 58249.1, 58265.4, 58281.9, 58298.2, 58315.1, 58332.5, 58349.2, 58364.5, 58381.9, 58398.6, 58414.8, 58431.4, 58451.6, 58474.6, 58486.6, 58497.6, 58515.6, 58532.2, 58548.3]","[28.5, 4.2, 13.5, 19.3, 9.6, 13.9, 15.9, 19.6, 14.5, 16.5, 32.9, 3.6, 14.9, 22.1, 11.8, 15.6, 26.1, 9.9, 20.3, 13.6, 32.3, 4.7, 12.4, 14.5, 15.9, 16, 20.3, 13.2, 19.2, 16.4, 14.8, 16.7, 18.1, 15.6, 20.1, 14.3, 14.9, 16.5, 18.3, 15.1, 18.7, 15.7, 15.7, 18.3, 16.8, 16.2, 17.9, 13.7, 19.4, 14.1, 17.4, 16.4, 19.4, 17.1, 13.4, 17.1, 16, 20.6, 14.7, 13.6, 22.9, 11.1, 16.3, 17.6, 18.3, 14.6, 23.6, 9.7, 17.3, 18.1, 16.5, 14.8, 18.6, 14.9, 16.8, 17.6, 16.8, 16.8, 15.4, 17.5, 15.9, 15.9, 21.5, 12.7, 17.5, 17.4, 15.7, 16.7, 19.7, 13.3, 17.2, 16.6, 16.2, 16.5, 18.8, 14.7, 18.3, 14.9, 17.4, 16.3, 16.7, 15.8, 17.6, 15.6, 16.5, 17.1, 16.8, 16.6, 17.3, 15.9, 16.6, 17.5, 18.6, 14.2, 18, 16.4, 18.3, 13.8, 16, 17.1, 17.7, 17.7, 16.9, 15, 19.7, 13.1, 17.4, 16.4, 19.4, 14.8, 22.6, 8.7, 17.3, 17.9, 16.4, 14.8, 19.2, 18.5, 14.1, 16.1, 16.1, 16.9, 18.2, 14.5, 18.5, 15.3, 18.7, 17.1, 15, 16.2, 16.8, 18.2, 15.3, 16.7, 18.7, 14.6, 16.5, 16.8, 16.9, 16.3, 16, 15.9, 17.5, 17.4, 16.6, 17.7, 19.8, 12.2, 17.3, 21.3, 12, 16.5, 18.2, 14.1, 18.6, 15.7, 17.1, 15.4, 19.7, 13.7, 17.1, 19.4, 16.1, 16.1, 18.6, 13.5, 17.1, 18.2, 15.7, 16.2, 19.9, 12.4, 18.2, 15, 19.2, 14.3, 20.1, 13.6, 15.5, 17.4, 16.5, 19, 14.1, 17.3, 16.3, 18.7, 16.1, 16.8, 16.4, 16.2, 17.1, 15.6, 17, 16.8, 23.3, 9.4, 17.7, 20.7, 11, 16.8, 18.8, 15.4, 17.7, 15.4, 17.1, 16.5, 22.4, 11.7, 22.5, 14.2, 17.5, 14.9, 17.7, 15.5, 17.5, 15.8, 17.2, 18, 19.4, 12.4, 18.5, 11.5, 17.1, 15.2, 18.8, 15.8, 16.6, 23.7, 9.3, 16.8, 16.3, 17.4, 15.1, 17, 17.1, 18.8, 18.3, 15.7, 17.1, 23.1, 11.1, 17, 18.7, 15.6, 22.1, 9.7, 17.7, 16.2, 17.3, 14.5, 20.1, 17.9, 19.3, 6.3, 19.1, 13.6, 18, 16.3, 17.1, 19.4, 18.9, 12, 16.3, 16.5, 16.3, 16.9, 17.4, 16.7, 15.3, 17.4, 16.7, 16.2, 16.6, 20.2, 23, 12, 11, 18, 16.6, 16.1]",60.0,61.0,58.0,5005.7,[],,,,,,,,,,,,,,,,,,,,,,,,,HRV,HRV_0018,2022-11-30 18:09:54
,wl-html-keyboard-response,2,78011,0.0-2.0-0.0,0.0,3.0,,,,,,,,18535.900000095367,0.0,0,,,,,,,,,,,,,,,,,,,,,,HRV,HRV_0018,2022-11-30 18:09:54
,wl-rdm,3,94956,0.0-3.0-0.0,0.0,4.0,,,,,,,[],,,,0.0,0.0,87.9,0.0,u,0.0,True,7160.60000038147,430.0,58.0,40.0,False,too_early ,3000.0,[],"[683, 384]",ColorTask_Demo,,,,,HRV,HRV_0018,2022-11-30 18:09:54
,wl-rdm,4,100337,0.0-3.0-1.0,0.0,5.0,,,,,,,[],,,,0.0,0.0,87.9,1.0,i,1.0,True,1276.0999999046326,77.0,58.0,40.0,False,,2000.0,[],"[683, 384]",ColorTask_Demo,,,,,HRV,HRV_0018,2022-11-30 18:09:54
,wl-html-keyboard-response,5,108416,0.0-3.0-2.0,0.0,6.0,,,,,,,,6069.0,0.0,1,,,,,,,,,,,,,,,,,,,,,,HRV,HRV_0018,2022-11-30 18:09:54
,wl-html-keyboard-response,6,122763,0.0-4.0-0.0,0.0,7.0,,,,,,,,12337.699999809265,0.0,0,,,,,,,,,,,,,,,,,,,,,,HRV,HRV_0018,2022-11-30 18:09:54
,wl-html-keyboard-response,7,143093,0.0-5.0-0.0,0.0,8.0,,,,,,,,18320.0,0.0,0,,,,,,,,,,,,,,,,,,,,,,HRV,HRV_0018,2022-11-30 18:09:54
,wl-rdm,8,145435,0.0-6.0-0.0,0.0,9.0,,,,,,,[],,,,,,50.0,1.0,i,1.0,True,910.9000000953674,55.0,58.0,40.0,False,,348.96087912063166,[],"[683, 384]",ColorTask,1.0,1.0,,,HRV,HRV_0018,2022-11-30 18:09:54
,wl-rdm,9,147601,0.0-6.1-0.1,0.0,10.0,,,,,,,[],,,,,,62.5,0.0,i,1.0,False,847.5,51.0,58.0,40.0,False,,220.1494252759819,[],"[683, 384]",ColorTask,0.0,2.0,,,HRV,HRV_0018,2022-11-30 18:09:54
,wl-rdm,10,150233,0.0-6.2-0.2,0.0,11.0,,,,,,,[],,,,,,50.0,0.0,i,1.0,False,1154.2999997138977,70.0,58.0,40.0,False,,381.7418712033779,[],"[683, 384]",ColorTask,-1.0,3.0,,,HRV,HRV_0018,2022-11-30 18:09:54
,wl-rdm,11,152604,0.0-6.3-0.3,0.0,12.0,,,,,,,[],,,,,,50.0,1.0,u,0.0,False,941.3000001907349,56.0,58.0,40.0,False,,347.9087584068792,[],"[683, 384]",ColorTask,-2.0,4.0,,,HRV,HRV_0018,2022-11-30 18:09:54
,wl-rdm,12,154751,0.0-6.4-0.4,0.0,13.0,,,,,,,[],,,,,,73.6,1.0,i,1.0,True,676.4999995231628,41.0,58.0,40.0,False,,379.46519099598925,[],"[683, 384]",ColorTask,-1.0,5.0,,,HRV,HRV_0018,2022-11-30 18:09:54
,wl-rdm,13,157150,0.0-6.5-0.5,0.0,14.0,,,,,,,[],,,,,,87.9,1.0,i,1.0,True,940.6999998092651,57.0,58.0,40.0,False,,371.6040539320767,[],"[683, 384]",ColorTask,0.0,6.0,,,HRV,HRV_0018,2022-11-30 18:09:54
,wl-rdm,14,160236,0.0-6.6-0.6,0.0,15.0,,,,,,,[],,,,,,87.9,0.0,i,1.0,False,1790.8999996185303,108.0,58.0,40.0,False,,233.84641811311855,[],"[683, 384]",ColorTask,-1.0,7.0,,,HRV,HRV_0018,2022-11-30 18:09:54
,wl-rdm,15,162334,0.0-6.7-0.7,0.0,16.0,,,,,,,[],,,,,,87.9,1.0,i,1.0,True,800.1999998092651,48.0,58.0,40.0,False,,226.97774250444428,[],"[683, 384]",ColorTask,0.0,8.0,,,HRV,HRV_0018,2022-11-30 18:09:54
,wl-rdm,16,164851,0.0-6.8-0.8,0.0,17.0,,,,,,,[],,,,,,53.2,1.0,u,0.0,False,1078.9999995231628,65.0,58.0,40.0,False,,348.9376396913221,[],"[683, 384]",ColorTask,-1.0,9.0,,,HRV,HRV_0018,2022-11-30 18:09:54
,wl-rdm,17,167784,0.0-6.9-0.9,0.0,18.0,,,,,,,[],,,,,,50.0,1.0,i,1.0,True,1476.6999998092651,89.0,58.0,40.0,False,,373.7684738679352,[],"[683, 384]",ColorTask,0.0,10.0,,,HRV,HRV_0018,2022-11-30 18:09:54
,wl-rdm,18,169984,0.0-6.10-0.10,0.0,19.0,,,,,,,[],,,,,,62.5,1.0,i,1.0,True,843.5999999046326,51.0,58.0,40.0,False,,270.12030735356393,[],"[683, 384]",ColorTask,1.0,11.0,,,HRV,HRV_0018,2022-11-30 18:09:54
,wl-rdm,19,172350,0.0-6.11-0.11,0.0,20.0,,,,,,,[],,,,,,73.6,1.0,i,1.0,True,1036.6999998092651,63.0,58.0,40.0,False,,251.29997582052823,[],"[683, 384]",ColorTask,2.0,12.0,,,HRV,HRV_0018,2022-11-30 18:09:54
,wl-rdm,20,174636,0.0-6.12-0.12,0.0,21.0,,,,,,,[],,,,,,73.6,0.0,u,0.0,True,999.5,61.0,58.0,40.0,False,,222.38560105115633,[],"[683, 384]",ColorTask,3.0,13.0,,,HRV,HRV_0018,2022-11-30 18:09:54
,wl-rdm,21,178600,0.0-6.13-0.13,0.0,22.0,,,,,,,[],,,,,,53.2,0.0,u,0.0,True,2509.3999996185303,151.0,58.0,40.0,False,,374.3373844541547,[],"[683, 384]",ColorTask,4.0,14.0,,,HRV,HRV_0018,2022-11-30 18:09:54
,wl-rdm,22,180866,0.0-6.14-0.14,0.0,23.0,,,,,,,[],,,,,,53.2,1.0,i,1.0,True,951.5,57.0,58.0,40.0,False,,244.73736172287687,[],"[683, 384]",ColorTask,5.0,15.0,,,HRV,HRV_0018,2022-11-30 18:09:54
,wl-rdm,23,183599,0.0-6.15-0.15,0.0,24.0,,,,,,,[],,,,,,73.6,1.0,i,1.0,True,1402.5999999046326,85.0,58.0,40.0,False,,218.79942064165485,[],"[683, 384]",ColorTask,6.0,16.0,,,HRV,HRV_0018,2022-11-30 18:09:54
,wl-rdm,24,186015,0.0-6.16-0.16,0.0,25.0,,,,,,,[],,,,,,50.0,0.0,i,1.0,False,1107.0,67.0,58.0,40.0,False,,219.81926182318088,[],"[683, 384]",ColorTask,5.0,17.0,,,HRV,HRV_0018,2022-11-30 18:09:54
,wl-rdm,25,188915,0.0-6.17-0.17,0.0,26.0,,,,,,,[],,,,,,73.6,0.0,u,0.0,True,1495.0,90.0,58.0,40.0,False,,332.91968238044115,[],"[683, 384]",ColorTask,6.0,18.0,,,HRV,HRV_0018,2022-11-30 18:09:54
,wl-rdm,26,191332,0.0-6.18-0.18,0.0,27.0,,,,,,,[],,,,,,56.4,0.0,u,0.0,True,1044.5000004768372,63.0,58.0,40.0,False,,295.80150333508465,[],"[683, 384]",ColorTask,7.0,19.0,,,HRV,HRV_0018,2022-11-30 18:09:54
,wl-rdm,27,194450,0.0-6.19-0.19,0.0,28.0,,,,,,,[],,,,,,56.4,1.0,u,0.0,False,1816.8000001907349,109.0,58.0,40.0,False,,219.864214144651,[],"[683, 384]",ColorTask,6.0,20.0,,,HRV,HRV_0018,2022-11-30 18:09:54
,wl-rdm,28,197767,0.0-6.20-0.20,0.0,29.0,,,,,,,[],,,,,,73.6,0.0,u,0.0,True,1954.0,116.0,58.0,40.0,False,,271.4830300590787,[],"[683, 384]",ColorTask,7.0,21.0,,,HRV,HRV_0018,2022-11-30 18:09:54
,wl-rdm,29,200584,0.0-6.21-0.21,0.0,30.0,,,,,,,[],,,,,,56.4,0.0,u,0.0,True,1551.8999996185303,93.0,58.0,40.0,False,,204.6761045244093,[],"[683, 384]",ColorTask,8.0,22.0,,,HRV,HRV_0018,2022-11-30 18:09:54
,wl-rdm,30,203164,0.0-6.22-0.22,0.0,31.0,,,,,,,[],,,,,,87.9,1.0,i,1.0,True,1140.3999996185303,68.0,58.0,40.0,False,,332.20069135078813,[],"[683, 384]",ColorTask,9.0,23.0,,,HRV,HRV_0018,2022-11-30 18:09:54
,wl-rdm,31,206082,0.0-6.23-0.23,0.0,32.0,,,,,,,[],,,,,,62.5,0.0,u,0.0,True,1456.1999998092651,88.0,58.0,40.0,False,,387.3684828921773,[],"[683, 384]",ColorTask,10.0,24.0,,,HRV,HRV_0018,2022-11-30 18:09:54
,wl-rdm,32,209815,0.0-6.24-0.24,0.0,33.0,,,,,,,[],,,,,,56.4,1.0,i,1.0,True,2304.300000190735,139.0,58.0,40.0,False,,352.7135498215775,[],"[683, 384]",ColorTask,11.0,25.0,,,HRV,HRV_0018,2022-11-30 18:09:54
,wl-rdm,33,212866,0.0-6.25-0.25,0.0,34.0,,,,,,,[],,,,,,73.6,0.0,u,0.0,True,1696.2999997138977,99.0,58.0,40.0,False,,281.2422994349703,[],"[683, 384]",ColorTask,12.0,26.0,,,HRV,HRV_0018,2022-11-30 18:09:54
,wl-rdm,34,216482,0.0-6.26-0.26,0.0,35.0,,,,,,,[],,,,,,87.9,0.0,u,0.0,True,2295.9000000953674,138.0,58.0,40.0,False,,224.46023205836514,[],"[683, 384]",ColorTask,13.0,27.0,,,HRV,HRV_0018,2022-11-30 18:09:54
,wl-rdm,35,219633,0.0-6.27-0.27,0.0,36.0,,,,,,,[],,,,,,56.4,1.0,i,1.0,True,1876.7000002861023,113.0,58.0,40.0,False,,210.47091278931845,[],"[683, 384]",ColorTask,14.0,28.0,,,HRV,HRV_0018,2022-11-30 18:09:54
,wl-rdm,36,222814,0.0-6.28-0.28,0.0,37.0,,,,,,,[],,,,,,50.0,0.0,u,0.0,True,1872.1000003814697,112.0,58.0,40.0,False,,242.72698531224643,[],"[683, 384]",ColorTask,15.0,29.0,,,HRV,HRV_0018,2022-11-30 18:09:54
,wl-rdm,37,225850,0.0-6.29-0.29,0.0,38.0,,,,,,,[],,,,,,87.9,1.0,i,1.0,True,1592.4000000953674,96.0,58.0,40.0,False,,373.2606746146637,[],"[683, 384]",ColorTask,16.0,30.0,,,HRV,HRV_0018,2022-11-30 18:09:54
,wl-rdm,38,229432,0.0-6.30-0.30,0.0,39.0,,,,,,,[],,,,,,62.5,0.0,u,0.0,True,2118.5,128.0,58.0,40.0,False,,355.58396687901,[],"[683, 384]",ColorTask,17.0,31.0,,,HRV,HRV_0018,2022-11-30 18:09:54
,wl-rdm,39,233114,0.0-6.31-0.31,0.0,40.0,,,,,,,[],,,,,,87.9,1.0,i,1.0,True,2385.0999999046326,143.0,58.0,40.0,False,,207.3269252870512,[],"[683, 384]",ColorTask,18.0,32.0,,,HRV,HRV_0018,2022-11-30 18:09:54
,wl-rdm,40,236096,0.0-6.32-0.32,0.0,41.0,,,,,,,[],,,,,,53.2,1.0,u,0.0,False,1611.0999999046326,96.0,58.0,40.0,False,,291.4623793161586,[],"[683, 384]",ColorTask,17.0,33.0,,,HRV,HRV_0018,2022-11-30 18:09:54
,wl-rdm,41,239181,0.0-6.33-0.33,0.0,42.0,,,,,,,[],,,,,,53.2,0.0,u,0.0,True,1783.7000002861023,107.0,58.0,40.0,False,,219.01455357759937,[],"[683, 384]",ColorTask,18.0,34.0,,,HRV,HRV_0018,2022-11-30 18:09:54
,wl-rdm,42,241999,0.0-6.34-0.34,0.0,43.0,,,,,,,[],,,,,,87.9,0.0,u,0.0,True,1455.6000003814697,87.0,58.0,40.0,False,,282.40599157263335,[],"[683, 384]",ColorTask,19.0,35.0,,,HRV,HRV_0018,2022-11-30 18:09:54
,wl-rdm,43,245513,0.0-6.35-0.35,0.0,44.0,,,,,,,[],,,,,,56.4,0.0,i,1.0,False,2200.4000000953674,132.0,58.0,40.0,False,,207.0441929925415,[],"[683, 384]",ColorTask,18.0,36.0,,,HRV,HRV_0018,2022-11-30 18:09:54
,wl-rdm,44,249713,0.0-6.36-0.36,0.0,45.0,,,,,,,[],,,,,,73.6,0.0,u,0.0,True,2759.1000003814697,166.0,58.0,40.0,False,,374.45475704911985,[],"[683, 384]",ColorTask,19.0,37.0,,,HRV,HRV_0018,2022-11-30 18:09:54
,wl-rdm,45,253864,0.0-6.37-0.37,0.0,46.0,,,,,,,[],,,,,,53.2,0.0,u,0.0,True,2726.5,164.0,58.0,40.0,False,,345.9659804457163,[],"[683, 384]",ColorTask,20.0,38.0,,,HRV,HRV_0018,2022-11-30 18:09:54
,wl-rdm,46,256399,0.0-6.38-0.38,0.0,47.0,,,,,,,[],,,,,,62.5,1.0,i,1.0,True,1057.4000000953674,64.0,58.0,40.0,False,,386.71784879308126,[],"[683, 384]",ColorTask,21.0,39.0,,,HRV,HRV_0018,2022-11-30 18:09:54
,wl-rdm,47,260063,0.0-6.39-0.39,0.0,48.0,,,,,,,[],,,,,,50.0,1.0,i,1.0,True,2336.699999809265,141.0,58.0,40.0,False,,257.6907942040274,[],"[683, 384]",ColorTask,22.0,40.0,,,HRV,HRV_0018,2022-11-30 18:09:54
,wl-rdm,48,263863,0.0-6.40-0.40,0.0,49.0,,,,,,,[],,,,,,62.5,0.0,u,0.0,True,2454.3999996185303,148.0,58.0,40.0,False,,282.4792426775626,[],"[683, 384]",ColorTask,23.0,41.0,,,HRV,HRV_0018,2022-11-30 18:09:54
,wl-rdm,49,266947,0.0-6.41-0.41,0.0,50.0,,,,,,,[],,,,,,62.5,0.0,u,0.0,True,1711.0999999046326,103.0,58.0,40.0,False,,285.06853795611624,[],"[683, 384]",ColorTask,24.0,42.0,,,HRV,HRV_0018,2022-11-30 18:09:54
,wl-rdm,50,269962,0.0-6.42-0.42,0.0,51.0,,,,,,,[],,,,,,62.5,0.0,u,0.0,True,1706.6999998092651,103.0,58.0,40.0,False,,223.26972901312445,[],"[683, 384]",ColorTask,25.0,43.0,,,HRV,HRV_0018,2022-11-30 18:09:54
,wl-rdm,51,274012,0.0-6.43-0.43,0.0,52.0,,,,,,,[],,,,,,62.5,1.0,i,1.0,True,2744.300000190735,165.0,58.0,40.0,False,,237.71262796449693,[],"[683, 384]",ColorTask,26.0,44.0,,,HRV,HRV_0018,2022-11-30 18:09:54
,wl-rdm,52,277579,0.0-6.44-0.44,0.0,53.0,,,,,,,[],,,,,,53.2,1.0,i,1.0,True,2264.7999997138977,136.0,58.0,40.0,False,,221.53451452719412,[],"[683, 384]",ColorTask,27.0,45.0,,,HRV,HRV_0018,2022-11-30 18:09:54
,wl-rdm,53,280311,0.0-6.45-0.45,0.0,54.0,,,,,,,[],,,,,,62.5,0.0,u,0.0,True,1308.2000002861023,78.0,58.0,40.0,False,,347.45539673637666,[],"[683, 384]",ColorTask,28.0,46.0,,,HRV,HRV_0018,2022-11-30 18:09:54
,wl-rdm,54,283944,0.0-6.46-0.46,0.0,55.0,,,,,,,[],,,,,,50.0,1.0,u,0.0,False,2289.1000003814697,137.0,58.0,40.0,False,,275.9417787747765,[],"[683, 384]",ColorTask,27.0,47.0,,,HRV,HRV_0018,2022-11-30 18:09:54
,wl-rdm,55,286829,0.0-6.47-0.47,0.0,56.0,,,,,,,[],,,,,,56.4,0.0,u,0.0,True,1498.8000001907349,90.0,58.0,40.0,False,,309.86174330390367,[],"[683, 384]",ColorTask,28.0,48.0,,,HRV,HRV_0018,2022-11-30 18:09:54
,wl-rdm,56,290311,0.0-6.48-0.48,0.0,57.0,,,,,,,[],,,,,,53.2,0.0,u,0.0,True,2195.800000190735,132.0,58.0,40.0,False,,202.32162048586164,[],"[683, 384]",ColorTask,29.0,49.0,,,HRV,HRV_0018,2022-11-30 18:09:54
,wl-rdm,57,294612,0.0-6.49-0.49,0.0,57.0,,,,,,,[],,,,,,87.9,0.0,u,,,3272.199999809265,173.0,58.0,40.0,True,RT_timeout ,211.10432005341318,[],"[683, 384]",ColorTask,28.0,50.0,,,HRV,HRV_0018,2022-11-30 18:09:54
,wl-rdm,58,297196,0.0-6.50-0.50,0.0,58.0,,,,,,,[],,,,,,87.9,1.0,i,1.0,True,1237.3000001907349,75.0,58.0,40.0,False,,268.73747199315676,[],"[683, 384]",ColorTask,29.0,51.0,,,HRV,HRV_0018,2022-11-30 18:09:54
,wl-rdm,59,299827,0.0-6.51-0.51,0.0,59.0,,,,,,,[],,,,,,62.5,1.0,i,1.0,True,1272.5999999046326,77.0,58.0,40.0,False,,276.1041932189932,[],"[683, 384]",ColorTask,30.0,52.0,,,HRV,HRV_0018,2022-11-30 18:09:54
,wl-rdm,60,302146,0.0-6.52-0.52,0.0,60.0,,,,,,,[],,,,,,73.6,1.0,i,1.0,True,1000.7999997138977,60.0,58.0,40.0,False,,255.7116122507986,[],"[683, 384]",ColorTask,31.0,53.0,,,HRV,HRV_0018,2022-11-30 18:09:54
,wl-rdm,61,305111,0.0-6.53-0.53,0.0,61.0,,,,,,,[],,,,,,56.4,1.0,u,0.0,False,1606.2000002861023,97.0,58.0,40.0,False,,254.5555300035462,[],"[683, 384]",ColorTask,30.0,54.0,,,HRV,HRV_0018,2022-11-30 18:09:54
,wl-rdm,62,308193,0.0-6.54-0.54,0.0,62.0,,,,,,,[],,,,,,50.0,0.0,i,1.0,False,1772.0000004768372,106.0,58.0,40.0,False,,210.8798114221025,[],"[683, 384]",ColorTask,29.0,55.0,,,HRV,HRV_0018,2022-11-30 18:09:54
,wl-rdm,63,310727,0.0-6.55-0.55,0.0,63.0,,,,,,,[],,,,,,87.9,0.0,u,0.0,True,1166.5,70.0,58.0,40.0,False,,289.550527819728,[],"[683, 384]",ColorTask,30.0,56.0,,,HRV,HRV_0018,2022-11-30 18:09:54
,wl-rdm,64,313076,0.0-6.56-0.56,0.0,64.0,,,,,,,[],,,,,,87.9,0.0,u,0.0,True,1010.9000000953674,61.0,58.0,40.0,False,,276.08886259557914,[],"[683, 384]",ColorTask,31.0,57.0,,,HRV,HRV_0018,2022-11-30 18:09:54
,wl-rdm,65,316376,0.0-6.57-0.57,0.0,65.0,,,,,,,[],,,,,,62.5,1.0,i,1.0,True,1962.7999997138977,118.0,58.0,40.0,False,,271.9753611623267,[],"[683, 384]",ColorTask,32.0,58.0,,,HRV,HRV_0018,2022-11-30 18:09:54
,wl-rdm,66,318576,0.0-6.58-0.58,0.0,66.0,,,,,,,[],,,,,,87.9,0.0,u,0.0,True,874.5,53.0,58.0,40.0,False,,264.7183557817672,[],"[683, 384]",ColorTask,33.0,59.0,,,HRV,HRV_0018,2022-11-30 18:09:54
,wl-rdm,67,320892,0.0-6.59-0.59,0.0,67.0,,,,,,,[],,,,,,73.6,0.0,u,0.0,True,1020.1999998092651,62.0,58.0,40.0,False,,204.2889173045459,[],"[683, 384]",ColorTask,34.0,60.0,,,HRV,HRV_0018,2022-11-30 18:09:54
,wl-rdm,68,323296,0.0-6.60-0.60,0.0,68.0,,,,,,,[],,,,,,73.6,1.0,i,1.0,True,1113.0999999046326,66.0,58.0,40.0,False,,234.12080069311813,[],"[683, 384]",ColorTask,35.0,61.0,,,HRV,HRV_0018,2022-11-30 18:09:54
,wl-rdm,69,326577,0.0-6.61-0.61,0.0,69.0,,,,,,,[],,,,,,56.4,1.0,i,1.0,True,1870.8000001907349,111.0,58.0,40.0,False,,313.9779018759963,[],"[683, 384]",ColorTask,36.0,62.0,,,HRV,HRV_0018,2022-11-30 18:09:54
,wl-rdm,70,330342,0.0-6.62-0.62,0.0,70.0,,,,,,,[],,,,,,56.4,0.0,u,0.0,True,2401.0,144.0,58.0,40.0,False,,284.06930531287173,[],"[683, 384]",ColorTask,37.0,63.0,,,HRV,HRV_0018,2022-11-30 18:09:54
,wl-rdm,71,332528,0.0-6.63-0.63,0.0,71.0,,,,,,,[],,,,,,87.9,1.0,i,1.0,True,773.0,45.0,58.0,40.0,False,,338.1309108717419,[],"[683, 384]",ColorTask,38.0,64.0,,,HRV,HRV_0018,2022-11-30 18:09:54
,wl-rdm,72,335326,0.0-6.64-0.64,0.0,72.0,,,,,,,[],,,,,,53.2,0.0,u,0.0,True,1361.4999995231628,82.0,58.0,40.0,False,,365.60891529203934,[],"[683, 384]",ColorTask,39.0,65.0,,,HRV,HRV_0018,2022-11-30 18:09:54
,wl-rdm,73,338176,0.0-6.65-0.65,0.0,73.0,,,,,,,[],,,,,,62.5,0.0,u,0.0,True,1528.4000000953674,92.0,58.0,40.0,False,,236.23549269794492,[],"[683, 384]",ColorTask,40.0,66.0,,,HRV,HRV_0018,2022-11-30 18:09:54
,wl-rdm,74,341177,0.0-6.66-0.66,0.0,74.0,,,,,,,[],,,,,,62.5,1.0,i,1.0,True,1613.6999998092651,97.0,58.0,40.0,False,,314.306358165575,[],"[683, 384]",ColorTask,41.0,67.0,,,HRV,HRV_0018,2022-11-30 18:09:54
,wl-rdm,75,343943,0.0-6.67-0.67,0.0,75.0,,,,,,,[],,,,,,73.6,1.0,i,1.0,True,1485.2999997138977,90.0,58.0,40.0,False,,205.84527598807705,[],"[683, 384]",ColorTask,42.0,68.0,,,HRV,HRV_0018,2022-11-30 18:09:54
,wl-rdm,76,347960,0.0-6.68-0.68,0.0,76.0,,,,,,,[],,,,,,56.4,1.0,u,0.0,False,2621.5,158.0,58.0,40.0,False,,302.0635764935234,[],"[683, 384]",ColorTask,41.0,69.0,,,HRV,HRV_0018,2022-11-30 18:09:54
,wl-rdm,77,351059,0.0-6.69-0.69,0.0,77.0,,,,,,,[],,,,,,62.5,0.0,u,0.0,True,1709.2999997138977,103.0,58.0,40.0,False,,309.84763169317074,[],"[683, 384]",ColorTask,42.0,70.0,,,HRV,HRV_0018,2022-11-30 18:09:54
,wl-rdm,78,354711,0.0-6.70-0.70,0.0,78.0,,,,,,,[],,,,,,56.4,1.0,u,0.0,False,2245.000000476837,135.0,58.0,40.0,False,,337.4356072769588,[],"[683, 384]",ColorTask,41.0,71.0,,,HRV,HRV_0018,2022-11-30 18:09:54
,wl-rdm,79,357709,0.0-6.71-0.71,0.0,79.0,,,,,,,[],,,,,,73.6,0.0,u,0.0,True,1595.5000004768372,96.0,58.0,40.0,False,,327.56100161968953,[],"[683, 384]",ColorTask,42.0,72.0,,,HRV,HRV_0018,2022-11-30 18:09:54
,wl-rdm,80,360274,0.0-6.72-0.72,0.0,80.0,,,,,,,[],,,,,,53.2,1.0,u,0.0,False,1240.5999999046326,75.0,58.0,40.0,False,,239.9961160966476,[],"[683, 384]",ColorTask,41.0,73.0,,,HRV,HRV_0018,2022-11-30 18:09:54
,wl-rdm,81,364158,0.0-6.73-0.73,0.0,81.0,,,,,,,[],,,,,,53.2,1.0,i,1.0,True,2435.9000000953674,146.0,58.0,40.0,False,,369.86425086110074,[],"[683, 384]",ColorTask,42.0,74.0,,,HRV,HRV_0018,2022-11-30 18:09:54
,wl-rdm,82,368440,0.0-6.74-0.74,0.0,82.0,,,,,,,[],,,,,,50.0,0.0,i,1.0,False,2984.5999999046326,173.0,58.0,40.0,False,,213.6797267808367,[],"[683, 384]",ColorTask,41.0,75.0,,,HRV,HRV_0018,2022-11-30 18:09:54
,wl-rdm,83,371640,0.0-6.75-0.75,0.0,83.0,,,,,,,[],,,,,,73.6,1.0,i,1.0,True,1768.3999996185303,106.0,58.0,40.0,False,,357.7641477513882,[],"[683, 384]",ColorTask,42.0,76.0,,,HRV,HRV_0018,2022-11-30 18:09:54
,wl-rdm,84,375541,0.0-6.76-0.76,0.0,84.0,,,,,,,[],,,,,,73.6,1.0,i,1.0,True,2625.2000002861023,158.0,58.0,40.0,False,,208.6978200732902,[],"[683, 384]",ColorTask,43.0,77.0,,,HRV,HRV_0018,2022-11-30 18:09:54
,wl-rdm,85,378540,0.0-6.77-0.77,0.0,85.0,,,,,,,[],,,,,,53.2,0.0,u,0.0,True,1637.6999998092651,97.0,58.0,40.0,False,,281.1387419116811,[],"[683, 384]",ColorTask,44.0,78.0,,,HRV,HRV_0018,2022-11-30 18:09:54
,wl-rdm,86,381411,0.0-6.78-0.78,0.0,86.0,,,,,,,[],,,,,,56.4,1.0,u,0.0,False,1557.7999997138977,94.0,58.0,40.0,False,,204.0249195394748,[],"[683, 384]",ColorTask,43.0,79.0,,,HRV,HRV_0018,2022-11-30 18:09:54
,wl-rdm,87,385507,0.0-6.79-0.79,0.0,87.0,,,,,,,[],,,,,,62.5,1.0,i,1.0,True,2637.999999523163,159.0,58.0,40.0,False,,390.98399349720455,[],"[683, 384]",ColorTask,44.0,80.0,,,HRV,HRV_0018,2022-11-30 18:09:54
,wl-rdm,88,388423,0.0-6.80-0.80,0.0,88.0,,,,,,,[],,,,,,73.6,0.0,u,0.0,True,1467.0,89.0,58.0,40.0,False,,370.02078615395385,[],"[683, 384]",ColorTask,45.0,81.0,,,HRV,HRV_0018,2022-11-30 18:09:54
,wl-rdm,89,391540,0.0-6.81-0.81,0.0,89.0,,,,,,,[],,,,,,56.4,1.0,i,1.0,True,1778.8999996185303,106.0,58.0,40.0,False,,259.0742549430092,[],"[683, 384]",ColorTask,46.0,82.0,,,HRV,HRV_0018,2022-11-30 18:09:54
,wl-rdm,90,394558,0.0-6.82-0.82,0.0,90.0,,,,,,,[],,,,,,87.9,1.0,i,1.0,True,1696.6999998092651,102.0,58.0,40.0,False,,225.6982253291696,[],"[683, 384]",ColorTask,47.0,83.0,,,HRV,HRV_0018,2022-11-30 18:09:54
,wl-rdm,91,397709,0.0-6.83-0.83,0.0,91.0,,,,,,,[],,,,,,56.4,0.0,u,0.0,True,1854.4999995231628,111.0,58.0,40.0,False,,201.86614325449608,[],"[683, 384]",ColorTask,48.0,84.0,,,HRV,HRV_0018,2022-11-30 18:09:54
,wl-rdm,92,400755,0.0-6.84-0.84,0.0,92.0,,,,,,,[],,,,,,73.6,0.0,u,0.0,True,1677.0999999046326,97.0,58.0,40.0,False,,298.8151633922164,[],"[683, 384]",ColorTask,49.0,85.0,,,HRV,HRV_0018,2022-11-30 18:09:54
,wl-rdm,93,403956,0.0-6.85-0.85,0.0,93.0,,,,,,,[],,,,,,53.2,1.0,i,1.0,True,1817.8000001907349,101.0,58.0,40.0,False,,289.39490627639094,[],"[683, 384]",ColorTask,50.0,86.0,,,HRV,HRV_0018,2022-11-30 18:09:54
,wl-rdm,94,406910,0.0-6.86-0.86,0.0,94.0,,,,,,,[],,,,,,50.0,0.0,u,0.0,True,1670.3999996185303,91.0,58.0,40.0,False,,202.13339701539422,[],"[683, 384]",ColorTask,51.0,87.0,,,HRV,HRV_0018,2022-11-30 18:09:54
,wl-rdm,95,411273,0.0-6.87-0.87,0.0,94.0,,,,,,,[],,,,,,53.2,1.0,i,,,3058.0,168.0,58.0,40.0,True,RT_timeout ,274.9466112459345,[],"[683, 384]",ColorTask,50.0,88.0,,,HRV,HRV_0018,2022-11-30 18:09:54
,wl-rdm,96,413873,0.0-6.88-0.88,0.0,95.0,,,,,,,[],,,,,,62.5,1.0,i,1.0,True,1165.4000000953674,69.0,58.0,40.0,False,,373.9790764625644,[],"[683, 384]",ColorTask,51.0,89.0,,,HRV,HRV_0018,2022-11-30 18:09:54
,wl-rdm,97,416110,0.0-6.89-0.89,0.0,96.0,,,,,,,[],,,,,,73.6,1.0,i,1.0,True,898.0999999046326,54.0,58.0,40.0,False,,253.0300753297608,[],"[683, 384]",ColorTask,52.0,90.0,,,HRV,HRV_0018,2022-11-30 18:09:54
,wl-rdm,98,418738,0.0-6.90-0.90,0.0,97.0,,,,,,,[],,,,,,87.9,0.0,u,0.0,True,1321.6000003814697,69.0,58.0,40.0,False,,243.02715301036093,[],"[683, 384]",ColorTask,53.0,91.0,,,HRV,HRV_0018,2022-11-30 18:09:54
,wl-rdm,99,421289,0.0-6.91-0.91,0.0,98.0,,,,,,,[],,,,,,87.9,0.0,u,0.0,True,1116.9000005722046,61.0,58.0,40.0,False,,351.89593424505244,[],"[683, 384]",ColorTask,54.0,92.0,,,HRV,HRV_0018,2022-11-30 18:09:54
,wl-rdm,100,424939,0.0-6.92-0.92,0.0,99.0,,,,,,,[],,,,,,50.0,1.0,u,0.0,False,2261.699999809265,121.0,58.0,40.0,False,,294.8687416591956,[],"[683, 384]",ColorTask,53.0,93.0,,,HRV,HRV_0018,2022-11-30 18:09:54
,wl-rdm,101,427288,0.0-6.93-0.93,0.0,100.0,,,,,,,[],,,,,,87.9,1.0,i,1.0,True,968.0,58.0,58.0,40.0,False,,268.7782785809267,[],"[683, 384]",ColorTask,54.0,94.0,,,HRV,HRV_0018,2022-11-30 18:09:54
,wl-rdm,102,430388,0.0-6.94-0.94,0.0,101.0,,,,,,,[],,,,,,50.0,1.0,i,1.0,True,1836.0000004768372,107.0,58.0,40.0,False,,207.75325009569454,[],"[683, 384]",ColorTask,55.0,95.0,,,HRV,HRV_0018,2022-11-30 18:09:54
,wl-rdm,103,433021,0.0-6.95-0.95,0.0,102.0,,,,,,,[],,,,,,56.4,0.0,u,0.0,True,1193.5999999046326,70.0,58.0,40.0,False,,334.1603368377562,[],"[683, 384]",ColorTask,56.0,96.0,,,HRV,HRV_0018,2022-11-30 18:09:54
,wl-rdm,104,435828,0.0-6.96-0.96,0.0,103.0,,,,,,,[],,,,,,87.9,0.0,u,0.0,True,1158.0000004768372,63.0,58.0,40.0,False,,266.94207735462754,[],"[683, 384]",ColorTask,57.0,97.0,,,HRV,HRV_0018,2022-11-30 18:09:54
,wl-rdm,105,438738,0.0-6.97-0.97,0.0,104.0,,,,,,,[],,,,,,53.2,1.0,i,1.0,True,1519.8000001907349,90.0,58.0,40.0,False,,293.037797161762,[],"[683, 384]",ColorTask,58.0,98.0,,,HRV,HRV_0018,2022-11-30 18:09:54
,wl-rdm,106,442541,0.0-6.98-0.98,0.0,105.0,,,,,,,[],,,,,,53.2,0.0,i,1.0,False,2360.0,142.0,58.0,40.0,False,,370.03193050224735,[],"[683, 384]",ColorTask,57.0,99.0,,,HRV,HRV_0018,2022-11-30 18:09:54
,wl-rdm,107,445639,0.0-6.99-0.99,0.0,106.0,,,,,,,[],,,,,,50.0,1.0,u,0.0,False,1669.1000003814697,100.0,58.0,40.0,False,,356.4780533925344,[],"[683, 384]",ColorTask,56.0,100.0,,,HRV,HRV_0018,2022-11-30 18:09:54
,wl-rdm,108,448225,0.0-6.100-0.100,0.0,107.0,,,,,,,[],,,,,,53.2,0.0,i,1.0,False,1009.8000001907349,61.0,58.0,40.0,False,,237.08218131395063,[],"[683, 384]",ColorTask,55.0,101.0,,,HRV,HRV_0018,2022-11-30 18:09:54
,wl-rdm,109,451820,0.0-6.101-0.101,0.0,108.0,,,,,,,[],,,,,,56.4,0.0,u,0.0,True,2088.2000002861023,126.0,58.0,40.0,False,,331.9421588366426,[],"[683, 384]",ColorTask,56.0,102.0,,,HRV,HRV_0018,2022-11-30 18:09:54
,wl-rdm,110,454936,0.0-6.102-0.102,0.0,109.0,,,,,,,[],,,,,,50.0,0.0,u,0.0,True,1691.8999996185303,102.0,58.0,40.0,False,,309.5686777612413,[],"[683, 384]",ColorTask,57.0,103.0,,,HRV,HRV_0018,2022-11-30 18:09:54
,wl-rdm,111,457754,0.0-6.103-0.103,0.0,110.0,,,,,,,[],,,,,,56.4,0.0,u,0.0,True,1454.0,74.0,58.0,40.0,False,,241.29678048030158,[],"[683, 384]",ColorTask,58.0,104.0,,,HRV,HRV_0018,2022-11-30 18:09:54
,wl-rdm,112,460636,0.0-6.104-0.104,0.0,111.0,,,,,,,[],,,,,,53.2,1.0,u,0.0,False,1515.8999996185303,91.0,58.0,40.0,False,,282.87271457744987,[],"[683, 384]",ColorTask,57.0,105.0,,,HRV,HRV_0018,2022-11-30 18:09:54
,wl-rdm,113,463538,0.0-6.105-0.105,0.0,112.0,,,,,,,[],,,,,,62.5,1.0,i,1.0,True,1367.5999999046326,81.0,58.0,40.0,False,,240.4871766624725,[],"[683, 384]",ColorTask,58.0,106.0,,,HRV,HRV_0018,2022-11-30 18:09:54
,wl-rdm,114,466619,0.0-6.106-0.106,0.0,113.0,,,,,,,[],,,,,,50.0,0.0,i,1.0,False,1522.4000000953674,87.0,58.0,40.0,False,,363.49873104057986,[],"[683, 384]",ColorTask,57.0,107.0,,,HRV,HRV_0018,2022-11-30 18:09:54
,wl-rdm,115,469469,0.0-6.107-0.107,0.0,114.0,,,,,,,[],,,,,,50.0,0.0,u,0.0,True,1489.5,79.0,58.0,40.0,False,,215.85037621738266,[],"[683, 384]",ColorTask,58.0,108.0,,,HRV,HRV_0018,2022-11-30 18:09:54
,wl-rdm,116,472546,0.0-6.108-0.108,0.0,115.0,,,,,,,[],,,,,,50.0,1.0,i,1.0,True,1784.5000004768372,95.0,58.0,40.0,False,,218.74397393424223,[],"[683, 384]",ColorTask,59.0,109.0,,,HRV,HRV_0018,2022-11-30 18:09:54
,wl-rdm,117,476000,0.0-6.109-0.109,0.0,116.0,,,,,,,[],,,,,,53.2,0.0,i,1.0,False,1907.9000000953674,115.0,58.0,40.0,False,,350.6681926273562,[],"[683, 384]",ColorTask,58.0,110.0,,,HRV,HRV_0018,2022-11-30 18:09:54
,wl-html-keyboard-response,118,502797,0.0-7.0-0.0,1.0,117.0,,,,,,,,24729.900000095367,1.0,0,,,,,,,,,,,,,,,,,,,,,,HRV,HRV_0018,2022-11-30 18:09:54
,wl-rdm,119,505234,0.0-8.0-0.0,1.0,118.0,,,,,,,[],,,,,,53.2,1.0,i,1.0,True,1149.0999999046326,68.0,58.0,40.0,False,,230.83441010607444,[],"[683, 384]",ColorTask,59.0,1.0,,,HRV,HRV_0018,2022-11-30 18:09:54
,wl-rdm,120,508520,0.0-8.1-0.1,1.0,119.0,,,,,,,[],,,,,,50.0,1.0,i,1.0,True,1946.0,100.0,58.0,40.0,False,,219.30610538625422,[],"[683, 384]",ColorTask,60.0,2.0,,,HRV,HRV_0018,2022-11-30 18:09:54
,wl-rdm,121,511619,0.0-8.2-0.2,1.0,120.0,,,,,,,[],,,,,,87.9,0.0,u,0.0,True,1767.6999998092651,96.0,58.0,40.0,False,,257.01524467577514,[],"[683, 384]",ColorTask,61.0,3.0,,,HRV,HRV_0018,2022-11-30 18:09:54
,wl-rdm,122,514185,0.0-8.3-0.3,1.0,121.0,,,,,,,[],,,,,,87.9,1.0,i,1.0,True,1242.0,66.0,58.0,40.0,False,,261.8328632257426,[],"[683, 384]",ColorTask,62.0,4.0,,,HRV,HRV_0018,2022-11-30 18:09:54
,wl-rdm,123,517494,0.0-8.4-0.4,1.0,122.0,,,,,,,[],,,,,,62.5,0.0,u,0.0,True,1937.3999996185303,99.0,58.0,40.0,False,,262.6131277757413,[],"[683, 384]",ColorTask,63.0,5.0,,,HRV,HRV_0018,2022-11-30 18:09:54
,wl-rdm,124,520676,0.0-8.5-0.5,1.0,123.0,,,,,,,[],,,,,,87.9,0.0,u,0.0,True,1756.5999999046326,98.0,58.0,40.0,False,,334.358765436626,[],"[683, 384]",ColorTask,64.0,6.0,,,HRV,HRV_0018,2022-11-30 18:09:54
,wl-rdm,125,523985,0.0-8.6-0.6,1.0,124.0,,,,,,,[],,,,,,56.4,0.0,u,0.0,True,2008.7000002861023,101.0,58.0,40.0,False,,200.279259642607,[],"[683, 384]",ColorTask,65.0,7.0,,,HRV,HRV_0018,2022-11-30 18:09:54
,wl-rdm,126,526868,0.0-8.7-0.7,1.0,125.0,,,,,,,[],,,,,,56.4,1.0,i,1.0,True,1441.5,71.0,58.0,40.0,False,,373.41978645650767,[],"[683, 384]",ColorTask,66.0,8.0,,,HRV,HRV_0018,2022-11-30 18:09:54
,wl-rdm,127,529801,0.0-8.8-0.8,1.0,126.0,,,,,,,[],,,,,,87.9,0.0,u,0.0,True,1607.6000003814697,81.0,58.0,40.0,False,,264.28316350537096,[],"[683, 384]",ColorTask,67.0,9.0,,,HRV,HRV_0018,2022-11-30 18:09:54
,wl-rdm,128,533069,0.0-8.9-0.9,1.0,127.0,,,,,,,[],,,,,,87.9,0.0,u,0.0,True,1892.3000001907349,104.0,58.0,40.0,False,,290.2674939075617,[],"[683, 384]",ColorTask,68.0,10.0,,,HRV,HRV_0018,2022-11-30 18:09:54
,wl-rdm,129,536182,0.0-8.10-0.10,1.0,128.0,,,,,,,[],,,,,,53.2,0.0,u,0.0,True,1814.0999999046326,103.0,58.0,40.0,False,,234.4399869689343,[],"[683, 384]",ColorTask,69.0,11.0,,,HRV,HRV_0018,2022-11-30 18:09:54
,wl-rdm,130,538705,0.0-8.11-0.11,1.0,129.0,,,,,,,[],,,,,,87.9,0.0,u,0.0,True,1096.5,58.0,58.0,40.0,False,,339.62129956261464,[],"[683, 384]",ColorTask,70.0,12.0,,,HRV,HRV_0018,2022-11-30 18:09:54
,wl-rdm,131,541635,0.0-8.12-0.12,1.0,130.0,,,,,,,[],,,,,,62.5,0.0,u,0.0,True,1621.1999998092651,77.0,58.0,40.0,False,,223.3218555114774,[],"[683, 384]",ColorTask,71.0,13.0,,,HRV,HRV_0018,2022-11-30 18:09:54
,wl-rdm,132,544369,0.0-8.13-0.13,1.0,131.0,,,,,,,[],,,,,,53.2,0.0,i,1.0,False,1416.7999997138977,85.0,58.0,40.0,False,,222.33974248610568,[],"[683, 384]",ColorTask,70.0,14.0,,,HRV,HRV_0018,2022-11-30 18:09:54
,wl-rdm,133,546783,0.0-8.14-0.14,1.0,132.0,,,,,,,[],,,,,,87.9,1.0,i,1.0,True,1072.0999999046326,64.0,58.0,40.0,False,,282.86778186902814,[],"[683, 384]",ColorTask,71.0,15.0,,,HRV,HRV_0018,2022-11-30 18:09:54
,wl-rdm,134,549790,0.0-8.15-0.15,1.0,133.0,,,,,,,[],,,,,,62.5,0.0,i,1.0,False,1542.0000004768372,93.0,58.0,40.0,False,,294.77448411658867,[],"[683, 384]",ColorTask,70.0,16.0,,,HRV,HRV_0018,2022-11-30 18:09:54
,wl-rdm,135,552183,0.0-8.16-0.16,1.0,134.0,,,,,,,[],,,,,,56.4,1.0,i,1.0,True,1009.1000003814697,61.0,58.0,40.0,False,,315.2563003626093,[],"[683, 384]",ColorTask,71.0,17.0,,,HRV,HRV_0018,2022-11-30 18:09:54
,wl-rdm,136,555850,0.0-8.17-0.17,1.0,135.0,,,,,,,[],,,,,,73.6,0.0,u,0.0,True,2344.9000000953674,141.0,58.0,40.0,False,,236.82038890400582,[],"[683, 384]",ColorTask,72.0,18.0,,,HRV,HRV_0018,2022-11-30 18:09:54
,wl-rdm,137,558483,0.0-8.18-0.18,1.0,136.0,,,,,,,[],,,,,,50.0,0.0,i,1.0,False,1279.7000002861023,77.0,58.0,40.0,False,,269.96576402416736,[],"[683, 384]",ColorTask,71.0,19.0,,,HRV,HRV_0018,2022-11-30 18:09:54
,wl-rdm,138,561516,0.0-8.19-0.19,1.0,137.0,,,,,,,[],,,,,,50.0,1.0,i,1.0,True,1739.1000003814697,105.0,58.0,40.0,False,,218.93480798361168,[],"[683, 384]",ColorTask,72.0,20.0,,,HRV,HRV_0018,2022-11-30 18:09:54
,wl-rdm,139,563998,0.0-8.20-0.20,1.0,138.0,,,,,,,[],,,,,,50.0,1.0,i,1.0,True,1172.1000003814697,71.0,58.0,40.0,False,,221.82262270381173,[],"[683, 384]",ColorTask,73.0,21.0,,,HRV,HRV_0018,2022-11-30 18:09:54
,wl-rdm,140,566216,0.0-8.21-0.21,1.0,139.0,,,,,,,[],,,,,,87.9,1.0,i,1.0,True,879.2999997138977,52.0,58.0,40.0,False,,275.84637770937337,[],"[683, 384]",ColorTask,74.0,22.0,,,HRV,HRV_0018,2022-11-30 18:09:54
,wl-rdm,141,569116,0.0-8.22-0.22,1.0,140.0,,,,,,,[],,,,,,73.6,0.0,u,0.0,True,1427.0,85.0,58.0,40.0,False,,374.255826759776,[],"[683, 384]",ColorTask,75.0,23.0,,,HRV,HRV_0018,2022-11-30 18:09:54
,wl-rdm,142,571851,0.0-8.23-0.23,1.0,141.0,,,,,,,[],,,,,,56.4,0.0,u,0.0,True,1385.8999996185303,80.0,58.0,40.0,False,,214.6374091622664,[],"[683, 384]",ColorTask,76.0,24.0,,,HRV,HRV_0018,2022-11-30 18:09:54
,wl-rdm,143,574683,0.0-8.24-0.24,1.0,142.0,,,,,,,[],,,,,,50.0,0.0,u,0.0,True,1406.3999996185303,85.0,58.0,40.0,False,,312.09802854979654,[],"[683, 384]",ColorTask,77.0,25.0,,,HRV,HRV_0018,2022-11-30 18:09:54
,wl-rdm,144,577449,0.0-8.25-0.25,1.0,143.0,,,,,,,[],,,,,,62.5,1.0,i,1.0,True,1426.5000004768372,75.0,58.0,40.0,False,,209.2398694492727,[],"[683, 384]",ColorTask,78.0,26.0,,,HRV,HRV_0018,2022-11-30 18:09:54
,wl-rdm,145,580032,0.0-8.26-0.26,1.0,144.0,,,,,,,[],,,,,,50.0,0.0,u,0.0,True,1170.6000003814697,68.0,58.0,40.0,False,,347.5612184983207,[],"[683, 384]",ColorTask,79.0,27.0,,,HRV,HRV_0018,2022-11-30 18:09:54
,wl-rdm,146,582831,0.0-8.27-0.27,1.0,145.0,,,,,,,[],,,,,,62.5,1.0,u,0.0,False,1498.1999998092651,89.0,58.0,40.0,False,,241.91082470791716,[],"[683, 384]",ColorTask,78.0,28.0,,,HRV,HRV_0018,2022-11-30 18:09:54
,wl-rdm,147,585448,0.0-8.28-0.28,1.0,146.0,,,,,,,[],,,,,,87.9,0.0,u,0.0,True,1265.0,75.0,58.0,40.0,False,,255.82472069646755,[],"[683, 384]",ColorTask,79.0,29.0,,,HRV,HRV_0018,2022-11-30 18:09:54
,wl-rdm,148,587950,0.0-8.29-0.29,1.0,147.0,,,,,,,[],,,,,,56.4,1.0,i,1.0,True,1176.4000005722046,71.0,58.0,40.0,False,,216.57558263664222,[],"[683, 384]",ColorTask,80.0,30.0,,,HRV,HRV_0018,2022-11-30 18:09:54
,wl-rdm,149,590431,0.0-8.30-0.30,1.0,148.0,,,,,,,[],,,,,,62.5,0.0,i,1.0,False,1041.8000001907349,63.0,58.0,40.0,False,,330.7842071165132,[],"[683, 384]",ColorTask,79.0,31.0,,,HRV,HRV_0018,2022-11-30 18:09:54
,wl-rdm,150,593314,0.0-8.31-0.31,1.0,149.0,,,,,,,[],,,,,,53.2,0.0,i,1.0,False,1604.8000001907349,95.0,58.0,40.0,False,,208.5260197923044,[],"[683, 384]",ColorTask,78.0,32.0,,,HRV,HRV_0018,2022-11-30 18:09:54
,wl-rdm,151,595713,0.0-8.32-0.32,1.0,150.0,,,,,,,[],,,,,,56.4,0.0,u,0.0,True,1002.6000003814697,61.0,58.0,40.0,False,,302.0147848655543,[],"[683, 384]",ColorTask,79.0,33.0,,,HRV,HRV_0018,2022-11-30 18:09:54
,wl-rdm,152,598133,0.0-8.33-0.33,1.0,151.0,,,,,,,[],,,,,,62.5,1.0,i,1.0,True,1044.1999998092651,63.0,58.0,40.0,False,,291.8655559767427,[],"[683, 384]",ColorTask,80.0,34.0,,,HRV,HRV_0018,2022-11-30 18:09:54
,wl-rdm,153,601280,0.0-8.34-0.34,1.0,152.0,,,,,,,[],,,,,,53.2,1.0,i,1.0,True,1748.2999997138977,101.0,58.0,40.0,False,,297.2241988485662,[],"[683, 384]",ColorTask,81.0,35.0,,,HRV,HRV_0018,2022-11-30 18:09:54
,wl-rdm,154,604397,0.0-8.35-0.35,1.0,153.0,,,,,,,[],,,,,,62.5,1.0,u,0.0,False,1798.1000003814697,108.0,58.0,40.0,False,,213.58405398814025,[],"[683, 384]",ColorTask,80.0,36.0,,,HRV,HRV_0018,2022-11-30 18:09:54
,wl-rdm,155,607347,0.0-8.36-0.36,1.0,154.0,,,,,,,[],,,,,,50.0,1.0,i,1.0,True,1522.9000000953674,90.0,58.0,40.0,False,,338.27712506402514,[],"[683, 384]",ColorTask,81.0,37.0,,,HRV,HRV_0018,2022-11-30 18:09:54
,wl-rdm,156,610581,0.0-8.37-0.37,1.0,155.0,,,,,,,[],,,,,,62.5,0.0,u,0.0,True,1967.9000005722046,118.0,58.0,40.0,False,,208.38422071748042,[],"[683, 384]",ColorTask,82.0,38.0,,,HRV,HRV_0018,2022-11-30 18:09:54
,wl-rdm,157,613830,0.0-8.38-0.38,1.0,156.0,,,,,,,[],,,,,,73.6,1.0,i,1.0,True,1918.2000002861023,115.0,58.0,40.0,False,,235.21014995356478,[],"[683, 384]",ColorTask,83.0,39.0,,,HRV,HRV_0018,2022-11-30 18:09:54
,wl-rdm,158,616698,0.0-8.39-0.39,1.0,157.0,,,,,,,[],,,,,,73.6,1.0,i,1.0,True,1513.4999995231628,90.0,58.0,40.0,False,,291.02480070932893,[],"[683, 384]",ColorTask,84.0,40.0,,,HRV,HRV_0018,2022-11-30 18:09:54
,wl-rdm,159,618932,0.0-8.40-0.40,1.0,158.0,,,,,,,[],,,,,,87.9,1.0,i,1.0,True,862.4000000953674,52.0,58.0,40.0,False,,287.35567975209653,[],"[683, 384]",ColorTask,85.0,41.0,,,HRV,HRV_0018,2022-11-30 18:09:54
,wl-rdm,160,621579,0.0-8.41-0.41,1.0,159.0,,,,,,,[],,,,,,53.2,0.0,u,0.0,True,1204.6999998092651,73.0,58.0,40.0,False,,374.97049263109693,[],"[683, 384]",ColorTask,86.0,42.0,,,HRV,HRV_0018,2022-11-30 18:09:54
,wl-rdm,161,624280,0.0-8.42-0.42,1.0,160.0,,,,,,,[],,,,,,73.6,1.0,i,1.0,True,1387.8999996185303,83.0,58.0,40.0,False,,250.69057918080478,[],"[683, 384]",ColorTask,87.0,43.0,,,HRV,HRV_0018,2022-11-30 18:09:54
,wl-rdm,162,627096,0.0-8.43-0.43,1.0,161.0,,,,,,,[],,,,,,62.5,1.0,i,1.0,True,1334.6000003814697,80.0,58.0,40.0,False,,388.87805108082193,[],"[683, 384]",ColorTask,88.0,44.0,,,HRV,HRV_0018,2022-11-30 18:09:54
,wl-rdm,163,629462,0.0-8.44-0.44,1.0,162.0,,,,,,,[],,,,,,50.0,0.0,i,1.0,False,973.2000002861023,59.0,58.0,40.0,False,,298.8882719125194,[],"[683, 384]",ColorTask,87.0,45.0,,,HRV,HRV_0018,2022-11-30 18:09:54
,wl-rdm,164,631629,0.0-8.45-0.45,1.0,163.0,,,,,,,[],,,,,,53.2,0.0,i,1.0,False,792.5,48.0,58.0,40.0,False,,294.01709659317504,[],"[683, 384]",ColorTask,86.0,46.0,,,HRV,HRV_0018,2022-11-30 18:09:54
,wl-rdm,165,634729,0.0-8.46-0.46,1.0,164.0,,,,,,,[],,,,,,53.2,1.0,i,1.0,True,1791.3000001907349,108.0,58.0,40.0,False,,241.14941329847767,[],"[683, 384]",ColorTask,87.0,47.0,,,HRV,HRV_0018,2022-11-30 18:09:54
,wl-rdm,166,637379,0.0-8.47-0.47,1.0,165.0,,,,,,,[],,,,,,62.5,0.0,u,0.0,True,1296.0999999046326,78.0,58.0,40.0,False,,268.84988414324243,[],"[683, 384]",ColorTask,88.0,48.0,,,HRV,HRV_0018,2022-11-30 18:09:54
,wl-rdm,167,640264,0.0-8.48-0.48,1.0,166.0,,,,,,,[],,,,,,56.4,1.0,u,0.0,False,1591.5,96.0,58.0,40.0,False,,200.60482336374432,[],"[683, 384]",ColorTask,87.0,49.0,,,HRV,HRV_0018,2022-11-30 18:09:54
,wl-rdm,168,642944,0.0-8.49-0.49,1.0,167.0,,,,,,,[],,,,,,73.6,0.0,u,0.0,True,1282.0000004768372,77.0,58.0,40.0,False,,319.2223959680716,[],"[683, 384]",ColorTask,88.0,50.0,,,HRV,HRV_0018,2022-11-30 18:09:54
,wl-rdm,169,645513,0.0-8.50-0.50,1.0,168.0,,,,,,,[],,,,,,53.2,1.0,i,1.0,True,1174.0,71.0,58.0,40.0,False,,316.5973136368239,[],"[683, 384]",ColorTask,89.0,51.0,,,HRV,HRV_0018,2022-11-30 18:09:54
,wl-rdm,170,648577,0.0-8.51-0.51,1.0,169.0,,,,,,,[],,,,,,56.4,0.0,u,0.0,True,1739.8000001907349,104.0,58.0,40.0,False,,244.36472990537555,[],"[683, 384]",ColorTask,90.0,52.0,,,HRV,HRV_0018,2022-11-30 18:09:54
,wl-rdm,171,652328,0.0-8.52-0.52,1.0,170.0,,,,,,,[],,,,,,53.2,0.0,u,0.0,True,2447.199999809265,147.0,58.0,40.0,False,,249.20840218629291,[],"[683, 384]",ColorTask,91.0,53.0,,,HRV,HRV_0018,2022-11-30 18:09:54
,wl-rdm,172,654978,0.0-8.53-0.53,1.0,171.0,,,,,,,[],,,,,,73.6,1.0,i,1.0,True,1185.5999994277954,71.0,58.0,40.0,False,,396.8332294245264,[],"[683, 384]",ColorTask,92.0,54.0,,,HRV,HRV_0018,2022-11-30 18:09:54
,wl-rdm,173,657778,0.0-8.54-0.54,1.0,172.0,,,,,,,[],,,,,,73.6,0.0,u,0.0,True,1464.5999994277954,88.0,58.0,40.0,False,,256.2292443552018,[],"[683, 384]",ColorTask,93.0,55.0,,,HRV,HRV_0018,2022-11-30 18:09:54
,wl-rdm,174,660896,0.0-8.55-0.55,1.0,173.0,,,,,,,[],,,,,,56.4,0.0,u,0.0,True,1839.5,111.0,58.0,40.0,False,,208.11908247130364,[],"[683, 384]",ColorTask,94.0,56.0,,,HRV,HRV_0018,2022-11-30 18:09:54
,wl-rdm,175,663912,0.0-8.56-0.56,1.0,174.0,,,,,,,[],,,,,,56.4,1.0,u,0.0,False,1661.7000002861023,100.0,58.0,40.0,False,,270.9774187321549,[],"[683, 384]",ColorTask,93.0,57.0,,,HRV,HRV_0018,2022-11-30 18:09:54
,wl-rdm,176,666878,0.0-8.57-0.57,1.0,175.0,,,,,,,[],,,,,,56.4,1.0,u,0.0,False,1610.6000003814697,97.0,58.0,40.0,False,,270.515075741376,[],"[683, 384]",ColorTask,92.0,58.0,,,HRV,HRV_0018,2022-11-30 18:09:54
,wl-rdm,177,669395,0.0-8.58-0.58,1.0,176.0,,,,,,,[],,,,,,87.9,0.0,u,0.0,True,1198.5999999046326,72.0,58.0,40.0,False,,241.21008042534413,[],"[683, 384]",ColorTask,93.0,59.0,,,HRV,HRV_0018,2022-11-30 18:09:54
,wl-rdm,178,672910,0.0-8.59-0.59,1.0,177.0,,,,,,,[],,,,,,62.5,0.0,u,0.0,True,2096.2000007629395,126.0,58.0,40.0,False,,343.71636939998314,[],"[683, 384]",ColorTask,94.0,60.0,,,HRV,HRV_0018,2022-11-30 18:09:54
,wl-rdm,179,675861,0.0-8.60-0.60,1.0,178.0,,,,,,,[],,,,,,56.4,0.0,u,0.0,True,1494.0999999046326,90.0,58.0,40.0,False,,382.4129901077124,[],"[683, 384]",ColorTask,95.0,61.0,,,HRV,HRV_0018,2022-11-30 18:09:54
,wl-rdm,180,678567,0.0-8.61-0.61,1.0,179.0,,,,,,,[],,,,,,73.6,1.0,i,1.0,True,1357.5,81.0,58.0,40.0,False,,272.6305034647031,[],"[683, 384]",ColorTask,96.0,62.0,,,HRV,HRV_0018,2022-11-30 18:09:54
,wl-rdm,181,681160,0.0-8.62-0.62,1.0,180.0,,,,,,,[],,,,,,62.5,1.0,i,1.0,True,1256.1000003814697,76.0,58.0,40.0,False,,264.5792373487267,[],"[683, 384]",ColorTask,97.0,63.0,,,HRV,HRV_0018,2022-11-30 18:09:54
,wl-rdm,182,683877,0.0-8.63-0.63,1.0,181.0,,,,,,,[],,,,,,50.0,1.0,u,0.0,False,1419.2999997138977,85.0,58.0,40.0,False,,213.59745718147968,[],"[683, 384]",ColorTask,96.0,64.0,,,HRV,HRV_0018,2022-11-30 18:09:54
,wl-rdm,183,687160,0.0-8.64-0.64,1.0,182.0,,,,,,,[],,,,,,53.2,1.0,i,1.0,True,1910.1999998092651,115.0,58.0,40.0,False,,294.9710885370945,[],"[683, 384]",ColorTask,97.0,65.0,,,HRV,HRV_0018,2022-11-30 18:09:54
,wl-rdm,184,690459,0.0-8.65-0.65,1.0,183.0,,,,,,,[],,,,,,62.5,1.0,i,1.0,True,1951.2000002861023,117.0,58.0,40.0,False,,281.1526648968585,[],"[683, 384]",ColorTask,98.0,66.0,,,HRV,HRV_0018,2022-11-30 18:09:54
,wl-rdm,185,693543,0.0-8.66-0.66,1.0,184.0,,,,,,,[],,,,,,50.0,0.0,u,0.0,True,1682.7000002861023,101.0,58.0,40.0,False,,316.77941026038457,[],"[683, 384]",ColorTask,99.0,67.0,,,HRV,HRV_0018,2022-11-30 18:09:54
,wl-rdm,186,696092,0.0-8.67-0.67,1.0,185.0,,,,,,,[],,,,,,50.0,0.0,i,1.0,False,1101.1999998092651,67.0,58.0,40.0,False,,360.2588460771083,[],"[683, 384]",ColorTask,98.0,68.0,,,HRV,HRV_0018,2022-11-30 18:09:54
,wl-rdm,187,699127,0.0-8.68-0.68,1.0,186.0,,,,,,,[],,,,,,62.5,1.0,i,1.0,True,1664.1999998092651,100.0,58.0,40.0,False,,289.92784096007915,[],"[683, 384]",ColorTask,99.0,69.0,,,HRV,HRV_0018,2022-11-30 18:09:54
,wl-rdm,188,701494,0.0-8.69-0.69,1.0,187.0,,,,,,,[],,,,,,87.9,1.0,i,1.0,True,1056.6999998092651,62.0,58.0,40.0,False,,234.13521481081779,[],"[683, 384]",ColorTask,100.0,70.0,,,HRV,HRV_0018,2022-11-30 18:09:54
,wl-rdm,189,703692,0.0-8.70-0.70,1.0,188.0,,,,,,,[],,,,,,73.6,1.0,i,1.0,True,890.8999996185303,54.0,58.0,40.0,False,,235.57735665606515,[],"[683, 384]",ColorTask,101.0,71.0,,,HRV,HRV_0018,2022-11-30 18:09:54
,wl-rdm,190,705825,0.0-8.71-0.71,1.0,189.0,,,,,,,[],,,,,,87.9,1.0,i,1.0,True,782.5999994277954,47.0,58.0,40.0,False,,254.3611750407983,[],"[683, 384]",ColorTask,102.0,72.0,,,HRV,HRV_0018,2022-11-30 18:09:54
,wl-rdm,191,708375,0.0-8.72-0.72,1.0,190.0,,,,,,,[],,,,,,73.6,0.0,u,0.0,True,1089.6000003814697,66.0,58.0,40.0,False,,393.28237421497363,[],"[683, 384]",ColorTask,103.0,73.0,,,HRV,HRV_0018,2022-11-30 18:09:54
,wl-rdm,192,710909,0.0-8.73-0.73,1.0,191.0,,,,,,,[],,,,,,62.5,0.0,u,0.0,True,1139.8000001907349,69.0,58.0,40.0,False,,309.81602959237136,[],"[683, 384]",ColorTask,104.0,74.0,,,HRV,HRV_0018,2022-11-30 18:09:54
,wl-rdm,193,713409,0.0-8.74-0.74,1.0,192.0,,,,,,,[],,,,,,56.4,0.0,u,0.0,True,1211.7999997138977,73.0,58.0,40.0,False,,212.79344618733032,[],"[683, 384]",ColorTask,105.0,75.0,,,HRV,HRV_0018,2022-11-30 18:09:54
,wl-rdm,194,715725,0.0-8.75-0.75,1.0,193.0,,,,,,,[],,,,,,50.0,1.0,i,1.0,True,925.0,56.0,58.0,40.0,False,,305.08164650847397,[],"[683, 384]",ColorTask,106.0,76.0,,,HRV,HRV_0018,2022-11-30 18:09:54
,wl-rdm,195,718241,0.0-8.76-0.76,1.0,194.0,,,,,,,[],,,,,,50.0,1.0,u,0.0,False,1178.7999997138977,71.0,58.0,40.0,False,,260.48758882518206,[],"[683, 384]",ColorTask,105.0,77.0,,,HRV,HRV_0018,2022-11-30 18:09:54
,wl-rdm,196,721026,0.0-8.77-0.77,1.0,195.0,,,,,,,[],,,,,,73.6,0.0,u,0.0,True,1368.3000001907349,83.0,58.0,40.0,False,,338.9236276576828,[],"[683, 384]",ColorTask,106.0,78.0,,,HRV,HRV_0018,2022-11-30 18:09:54
,wl-rdm,197,724492,0.0-8.78-0.78,1.0,196.0,,,,,,,[],,,,,,50.0,0.0,u,0.0,True,2045.3000001907349,123.0,58.0,40.0,False,,364.74214811900526,[],"[683, 384]",ColorTask,107.0,79.0,,,HRV,HRV_0018,2022-11-30 18:09:54
,wl-rdm,198,727393,0.0-8.79-0.79,1.0,197.0,,,,,,,[],,,,,,53.2,0.0,i,1.0,False,1440.4999995231628,87.0,58.0,40.0,False,,378.6985098043691,[],"[683, 384]",ColorTask,106.0,80.0,,,HRV,HRV_0018,2022-11-30 18:09:54
,wl-rdm,199,729812,0.0-8.80-0.80,1.0,198.0,,,,,,,[],,,,,,73.6,1.0,i,1.0,True,985.6999998092651,60.0,58.0,40.0,False,,378.07096740562616,[],"[683, 384]",ColorTask,107.0,81.0,,,HRV,HRV_0018,2022-11-30 18:09:54
,wl-rdm,200,731894,0.0-8.81-0.81,1.0,199.0,,,,,,,[],,,,,,53.2,0.0,i,1.0,False,717.3000001907349,43.0,58.0,40.0,False,,270.52673816817264,[],"[683, 384]",ColorTask,106.0,82.0,,,HRV,HRV_0018,2022-11-30 18:09:54
,wl-rdm,201,734841,0.0-8.82-0.82,1.0,200.0,,,,,,,[],,,,,,87.9,0.0,u,0.0,True,1604.5999999046326,97.0,58.0,40.0,False,,244.01375765164335,[],"[683, 384]",ColorTask,107.0,83.0,,,HRV,HRV_0018,2022-11-30 18:09:54
,wl-rdm,202,737223,0.0-8.83-0.83,1.0,201.0,,,,,,,[],,,,,,73.6,1.0,i,1.0,True,988.9000000953674,60.0,58.0,40.0,False,,310.3157975319303,[],"[683, 384]",ColorTask,108.0,84.0,,,HRV,HRV_0018,2022-11-30 18:09:54
,wl-rdm,203,739439,0.0-8.84-0.84,1.0,202.0,,,,,,,[],,,,,,87.9,1.0,i,1.0,True,926.2000002861023,55.0,58.0,40.0,False,,211.1623335290402,[],"[683, 384]",ColorTask,109.0,85.0,,,HRV,HRV_0018,2022-11-30 18:09:54
,wl-rdm,204,742407,0.0-8.85-0.85,1.0,203.0,,,,,,,[],,,,,,50.0,0.0,u,0.0,True,1666.0999999046326,100.0,58.0,40.0,False,,233.94852172432616,[],"[683, 384]",ColorTask,110.0,86.0,,,HRV,HRV_0018,2022-11-30 18:09:54
,wl-rdm,205,745026,0.0-8.86-0.86,1.0,204.0,,,,,,,[],,,,,,56.4,0.0,u,0.0,True,1334.4000000953674,80.0,58.0,40.0,False,,219.60711722150452,[],"[683, 384]",ColorTask,111.0,87.0,,,HRV,HRV_0018,2022-11-30 18:09:54
,wl-rdm,206,748091,0.0-8.87-0.87,1.0,205.0,,,,,,,[],,,,,,53.2,1.0,i,1.0,True,1704.1999998092651,103.0,58.0,40.0,False,,272.43616954070893,[],"[683, 384]",ColorTask,112.0,88.0,,,HRV,HRV_0018,2022-11-30 18:09:54
,wl-rdm,207,750606,0.0-8.88-0.88,1.0,206.0,,,,,,,[],,,,,,73.6,0.0,u,0.0,True,1222.9999995231628,73.0,58.0,40.0,False,,223.3949777944013,[],"[683, 384]",ColorTask,113.0,89.0,,,HRV,HRV_0018,2022-11-30 18:09:54
,wl-rdm,208,753424,0.0-8.89-0.89,1.0,207.0,,,,,,,[],,,,,,87.9,0.0,u,0.0,True,1536.5,92.0,58.0,40.0,False,,202.18934642974287,[],"[683, 384]",ColorTask,114.0,90.0,,,HRV,HRV_0018,2022-11-30 18:09:54
,wl-rdm,209,756256,0.0-8.90-0.90,1.0,208.0,,,,,,,[],,,,,,62.5,1.0,u,0.0,False,1503.9000000953674,91.0,58.0,40.0,False,,248.04666877023018,[],"[683, 384]",ColorTask,113.0,91.0,,,HRV,HRV_0018,2022-11-30 18:09:54
,wl-rdm,210,759057,0.0-8.91-0.91,1.0,209.0,,,,,,,[],,,,,,50.0,1.0,u,0.0,False,1505.9000000953674,91.0,58.0,40.0,False,,219.900905771088,[],"[683, 384]",ColorTask,112.0,92.0,,,HRV,HRV_0018,2022-11-30 18:09:54
,wl-rdm,211,761607,0.0-8.92-0.92,1.0,210.0,,,,,,,[],,,,,,53.2,1.0,u,0.0,False,1164.6999998092651,69.0,58.0,40.0,False,,314.441726540279,[],"[683, 384]",ColorTask,111.0,93.0,,,HRV,HRV_0018,2022-11-30 18:09:54
,wl-rdm,212,765056,0.0-8.93-0.93,1.0,211.0,,,,,,,[],,,,,,56.4,1.0,u,0.0,False,2125.2999997138977,128.0,58.0,40.0,False,,258.39237817325187,[],"[683, 384]",ColorTask,110.0,94.0,,,HRV,HRV_0018,2022-11-30 18:09:54
,wl-rdm,213,768059,0.0-8.94-0.94,1.0,212.0,,,,,,,[],,,,,,53.2,1.0,u,0.0,False,1624.6999998092651,98.0,58.0,40.0,False,,285.78180781070444,[],"[683, 384]",ColorTask,109.0,95.0,,,HRV,HRV_0018,2022-11-30 18:09:54
,wl-rdm,214,770455,0.0-8.95-0.95,1.0,213.0,,,,,,,[],,,,,,87.9,1.0,i,1.0,True,1118.0999999046326,67.0,58.0,40.0,False,,217.77855622046516,[],"[683, 384]",ColorTask,110.0,96.0,,,HRV,HRV_0018,2022-11-30 18:09:54
,wl-rdm,215,773407,0.0-8.96-0.96,1.0,214.0,,,,,,,[],,,,,,73.6,1.0,i,1.0,True,1620.0000004768372,97.0,58.0,40.0,False,,260.2201582888622,[],"[683, 384]",ColorTask,111.0,97.0,,,HRV,HRV_0018,2022-11-30 18:09:54
,wl-rdm,216,775689,0.0-8.97-0.97,1.0,215.0,,,,,,,[],,,,,,56.4,1.0,i,1.0,True,809.8999996185303,49.0,58.0,40.0,False,,388.7984832848626,[],"[683, 384]",ColorTask,112.0,98.0,,,HRV,HRV_0018,2022-11-30 18:09:54
,wl-rdm,217,777924,0.0-8.98-0.98,1.0,216.0,,,,,,,[],,,,,,50.0,1.0,u,0.0,False,922.4000000953674,56.0,58.0,40.0,False,,237.59946311238681,[],"[683, 384]",ColorTask,111.0,99.0,,,HRV,HRV_0018,2022-11-30 18:09:54
,wl-rdm,218,780505,0.0-8.99-0.99,1.0,217.0,,,,,,,[],,,,,,62.5,0.0,u,0.0,True,1276.1000003814697,75.0,58.0,40.0,False,,230.80411450042632,[],"[683, 384]",ColorTask,112.0,100.0,,,HRV,HRV_0018,2022-11-30 18:09:54
,wl-rdm,219,783205,0.0-8.100-0.100,1.0,218.0,,,,,,,[],,,,,,73.6,0.0,u,0.0,True,1256.1999998092651,74.0,58.0,40.0,False,,354.09646473641,[],"[683, 384]",ColorTask,113.0,101.0,,,HRV,HRV_0018,2022-11-30 18:09:54
,wl-rdm,220,785771,0.0-8.101-0.101,1.0,219.0,,,,,,,[],,,,,,56.4,1.0,u,0.0,False,1113.6999998092651,67.0,58.0,40.0,False,,385.95644285089236,[],"[683, 384]",ColorTask,112.0,102.0,,,HRV,HRV_0018,2022-11-30 18:09:54
,wl-rdm,221,788456,0.0-8.102-0.102,1.0,220.0,,,,,,,[],,,,,,53.2,0.0,u,0.0,True,1380.8000001907349,83.0,58.0,40.0,False,,239.58076504090354,[],"[683, 384]",ColorTask,113.0,103.0,,,HRV,HRV_0018,2022-11-30 18:09:54
,wl-rdm,222,790856,0.0-8.103-0.103,1.0,221.0,,,,,,,[],,,,,,53.2,1.0,i,1.0,True,1134.9000000953674,69.0,58.0,40.0,False,,201.84585718175757,[],"[683, 384]",ColorTask,114.0,104.0,,,HRV,HRV_0018,2022-11-30 18:09:54
,wl-rdm,223,793521,0.0-8.104-0.104,1.0,222.0,,,,,,,[],,,,,,73.6,0.0,u,0.0,True,1352.2000002861023,80.0,58.0,40.0,False,,232.2746167888358,[],"[683, 384]",ColorTask,115.0,105.0,,,HRV,HRV_0018,2022-11-30 18:09:54
,wl-rdm,224,796171,0.0-8.105-0.105,1.0,223.0,,,,,,,[],,,,,,50.0,0.0,u,0.0,True,1290.1999998092651,78.0,58.0,40.0,False,,291.87447444274625,[],"[683, 384]",ColorTask,116.0,106.0,,,HRV,HRV_0018,2022-11-30 18:09:54
,wl-rdm,225,799788,0.0-8.106-0.106,1.0,224.0,,,,,,,[],,,,,,56.4,0.0,u,0.0,True,2207.3999996185303,133.0,58.0,40.0,False,,320.6966908816473,[],"[683, 384]",ColorTask,117.0,107.0,,,HRV,HRV_0018,2022-11-30 18:09:54
,wl-rdm,226,801937,0.0-8.107-0.107,1.0,225.0,,,,,,,[],,,,,,87.9,1.0,i,1.0,True,791.8000001907349,47.0,58.0,40.0,False,,289.5575519825669,[],"[683, 384]",ColorTask,118.0,108.0,,,HRV,HRV_0018,2022-11-30 18:09:54
,wl-html-button-response,227,805473,0.0-9.0-0.0,,,,,,,,,,3522.5,,0,,,,,,,,,,,,,,,,,,,,<h3>End of this session. Thank you!</h3><br>,['Close window'],HRV,HRV_0018,2022-11-30 18:09:54
