trialN,stimuli,trialStartTime,trialStartTime_UNIX,stimulus1,stimulus2,stimulus1Bid,stimulus2Bid,delta,selected,rt,rt_UNIX,rt_perfnow,receivedResponse,rsp,trialEndTime,trialDuration,trialEndTime_UNIX,trialDuration_UNIX,exp,subjectId,date
0,"[{'imgObject': {}, 'id': 'luckycharms', 'src': '/static/foodstim60/luckycharms.jpg', 'key': 'u', 'origWidth': 410, 'origHeight': 409, 'width': 410, 'height': 409, 'widthPercent': 0.45, 'rescaleHeight': False, 'trialN': 0, 'loaded': True, 'loadedTime': 3716.300000000745, 'positionName': 'LEFT', 'positionCoords': [327.28, 227.5], 'bid': 0.62}, {'imgObject': {}, 'id': 'baked potato', 'src': '/static/foodstim60/baked potato.jpg', 'key': 'i', 'origWidth': 409, 'origHeight': 410, 'width': 409, 'height': 410, 'widthPercent': 0.45, 'rescaleHeight': False, 'trialN': 0, 'loaded': True, 'loadedTime': 3757.300000000745, 'positionName': 'RIGHT', 'positionCoords': [798.72, 227], 'bid': 5.2700000000000005}]",4477.800000000745,1669852459265,luckycharms,baked potato,0.62,5.2700000000000005,4.65,baked potato,743.8000000007451,745,745.1999999992549,True,i,5730.89999999851,1253.0999999977648,1669852460518,1253,HRV,HRV_0320,2022-11-30 23:59:50
1,"[{'imgObject': {}, 'id': 'pear', 'src': '/static/foodstim60/pear.jpg', 'key': 'u', 'origWidth': 411, 'origHeight': 410, 'width': 411, 'height': 410, 'widthPercent': 0.45, 'rescaleHeight': False, 'trialN': 1, 'loaded': True, 'loadedTime': 3770.300000000745, 'positionName': 'LEFT', 'positionCoords': [326.28, 227], 'bid': 2.91}, {'imgObject': {}, 'id': 'kiwi', 'src': '/static/foodstim60/kiwi.jpg', 'key': 'i', 'origWidth': 410, 'origHeight': 410, 'width': 410, 'height': 410, 'widthPercent': 0.45, 'rescaleHeight': False, 'trialN': 1, 'loaded': True, 'loadedTime': 3844.300000000745, 'positionName': 'RIGHT', 'positionCoords': [798.72, 227], 'bid': 3.69}]",5731.10000000149,1669852460518,pear,kiwi,2.91,3.69,0.7799999999999998,pear,925.3999999985099,926,925.7999999970198,True,u,7165.800000000745,1434.699999999255,1669852461953,1435,HRV,HRV_0320,2022-11-30 23:59:50
2,"[{'imgObject': {}, 'id': 'apple slices', 'src': '/static/foodstim60/apple slices.jpg', 'key': 'u', 'origWidth': 409, 'origHeight': 410, 'width': 409, 'height': 410, 'widthPercent': 0.45, 'rescaleHeight': False, 'trialN': 2, 'loaded': True, 'loadedTime': 3854.10000000149, 'positionName': 'LEFT', 'positionCoords': [328.28, 227], 'bid': 2.05}, {'imgObject': {}, 'id': 'veggieswithdip', 'src': '/static/foodstim60/veggieswithdip.jpg', 'key': 'i', 'origWidth': 409, 'origHeight': 409, 'width': 409, 'height': 409, 'widthPercent': 0.45, 'rescaleHeight': False, 'trialN': 2, 'loaded': True, 'loadedTime': 3875.5, 'positionName': 'RIGHT', 'positionCoords': [798.72, 227.5], 'bid': 7.55}]",7166.10000000149,1669852461953,apple slices,veggieswithdip,2.05,7.55,5.5,veggieswithdip,875.8999999985099,877,877.1999999992549,True,i,8559.699999999255,1393.5999999977648,1669852463347,1394,HRV,HRV_0320,2022-11-30 23:59:50
3,"[{'imgObject': {}, 'id': 'mashed potato', 'src': '/static/foodstim60/mashed potato.jpg', 'key': 'u', 'origWidth': 409, 'origHeight': 409, 'width': 409, 'height': 409, 'widthPercent': 0.45, 'rescaleHeight': False, 'trialN': 3, 'loaded': True, 'loadedTime': 3897, 'positionName': 'LEFT', 'positionCoords': [328.28, 227.5], 'bid': 1.21}, {'imgObject': {}, 'id': 'grilled chicken strips', 'src': '/static/foodstim60/grilled chicken strips.jpg', 'key': 'i', 'origWidth': 410, 'origHeight': 411, 'width': 410, 'height': 411, 'widthPercent': 0.45, 'rescaleHeight': False, 'trialN': 3, 'loaded': True, 'loadedTime': 3917.89999999851, 'positionName': 'RIGHT', 'positionCoords': [798.72, 226.5], 'bid': 1.18}]",8559.800000000745,1669852463347,mashed potato,grilled chicken strips,1.21,1.18,-0.030000000000000027,grilled chicken strips,1315.800000000745,1316,1316.5,True,i,10394.800000000745,1835.0,1669852465182,1835,HRV,HRV_0320,2022-11-30 23:59:50
4,"[{'imgObject': {}, 'id': 'orange slices', 'src': '/static/foodstim60/orange slices.jpg', 'key': 'u', 'origWidth': 409, 'origHeight': 410, 'width': 409, 'height': 410, 'widthPercent': 0.45, 'rescaleHeight': False, 'trialN': 4, 'loaded': True, 'loadedTime': 3932.10000000149, 'positionName': 'LEFT', 'positionCoords': [328.28, 227], 'bid': 2.33}, {'imgObject': {}, 'id': 'tacos', 'src': '/static/foodstim60/tacos.jpg', 'key': 'i', 'origWidth': 411, 'origHeight': 411, 'width': 411, 'height': 411, 'widthPercent': 0.45, 'rescaleHeight': False, 'trialN': 4, 'loaded': True, 'loadedTime': 3945.699999999255, 'positionName': 'RIGHT', 'positionCoords': [798.72, 226.5], 'bid': 7.94}]",10395.10000000149,1669852465182,orange slices,tacos,2.33,7.94,5.61,tacos,1157.5999999977648,1158,1158.0,True,i,12069.5,1674.3999999985099,1669852466857,1675,HRV,HRV_0320,2022-11-30 23:59:50
5,"[{'imgObject': {}, 'id': 'raspberries', 'src': '/static/foodstim60/raspberries.jpg', 'key': 'u', 'origWidth': 411, 'origHeight': 411, 'width': 411, 'height': 411, 'widthPercent': 0.45, 'rescaleHeight': False, 'trialN': 5, 'loaded': True, 'loadedTime': 3964.699999999255, 'positionName': 'LEFT', 'positionCoords': [326.28, 226.5], 'bid': 5.95}, {'imgObject': {}, 'id': 'strawberries', 'src': '/static/foodstim60/strawberries.jpg', 'key': 'i', 'origWidth': 410, 'origHeight': 410, 'width': 410, 'height': 410, 'widthPercent': 0.45, 'rescaleHeight': False, 'trialN': 5, 'loaded': True, 'loadedTime': 3974.300000000745, 'positionName': 'RIGHT', 'positionCoords': [798.72, 227], 'bid': 6.0600000000000005}]",12070.10000000149,1669852466857,raspberries,strawberries,5.95,6.0600000000000005,0.11000000000000032,strawberries,809.3999999985099,810,809.7999999970198,True,i,13387.300000000745,1317.199999999255,1669852468174,1317,HRV,HRV_0320,2022-11-30 23:59:50
6,"[{'imgObject': {}, 'id': 'chicken nuggets2', 'src': '/static/foodstim60/chicken nuggets2.jpg', 'key': 'u', 'origWidth': 410, 'origHeight': 409, 'width': 410, 'height': 409, 'widthPercent': 0.45, 'rescaleHeight': False, 'trialN': 6, 'loaded': True, 'loadedTime': 4004.300000000745, 'positionName': 'LEFT', 'positionCoords': [327.28, 227.5], 'bid': 2.05}, {'imgObject': {}, 'id': 'fried eggs', 'src': '/static/foodstim60/fried eggs.jpg', 'key': 'i', 'origWidth': 410, 'origHeight': 410, 'width': 410, 'height': 410, 'widthPercent': 0.45, 'rescaleHeight': False, 'trialN': 6, 'loaded': True, 'loadedTime': 4025.5, 'positionName': 'RIGHT', 'positionCoords': [798.72, 227], 'bid': 3.46}]",13388.0,1669852468175,chicken nuggets2,fried eggs,2.05,3.46,1.4100000000000001,fried eggs,818,819,818.3999999985099,True,i,14722.5,1334.5,1669852469510,1335,HRV,HRV_0320,2022-11-30 23:59:50
7,"[{'imgObject': {}, 'id': 'omelette', 'src': '/static/foodstim60/omelette.jpg', 'key': 'u', 'origWidth': 410, 'origHeight': 409, 'width': 410, 'height': 409, 'widthPercent': 0.45, 'rescaleHeight': False, 'trialN': 7, 'loaded': True, 'loadedTime': 4038.89999999851, 'positionName': 'LEFT', 'positionCoords': [327.28, 227.5], 'bid': 0.72}, {'imgObject': {}, 'id': 'blackbeanswithrice', 'src': '/static/foodstim60/blackbeanswithrice.jpg', 'key': 'i', 'origWidth': 410, 'origHeight': 410, 'width': 410, 'height': 410, 'widthPercent': 0.45, 'rescaleHeight': False, 'trialN': 7, 'loaded': True, 'loadedTime': 4060.60000000149, 'positionName': 'RIGHT', 'positionCoords': [798.72, 227], 'bid': 0.27}]",14722.800000000745,1669852469510,omelette,blackbeanswithrice,0.72,0.27,-0.44999999999999996,omelette,1331.699999999255,1332,1332.3999999985099,True,u,16565.5,1842.699999999255,1669852471353,1843,HRV,HRV_0320,2022-11-30 23:59:50
8,"[{'imgObject': {}, 'id': 'salad w chicken', 'src': '/static/foodstim60/salad w chicken.jpg', 'key': 'u', 'origWidth': 411, 'origHeight': 411, 'width': 411, 'height': 411, 'widthPercent': 0.45, 'rescaleHeight': False, 'trialN': 8, 'loaded': True, 'loadedTime': 4078.39999999851, 'positionName': 'LEFT', 'positionCoords': [326.28, 226.5], 'bid': 7.92}, {'imgObject': {}, 'id': 'avocado', 'src': '/static/foodstim60/avocado.jpg', 'key': 'i', 'origWidth': 409, 'origHeight': 409, 'width': 409, 'height': 409, 'widthPercent': 0.45, 'rescaleHeight': False, 'trialN': 8, 'loaded': True, 'loadedTime': 4097.5, 'positionName': 'RIGHT', 'positionCoords': [798.72, 227.5], 'bid': 8}]",16565.89999999851,1669852471353,salad w chicken,avocado,7.92,8.0,0.08000000000000007,avocado,812.1000000014901,813,812.8000000007451,True,i,17899.60000000149,1333.7000000029802,1669852472687,1334,HRV,HRV_0320,2022-11-30 23:59:50
9,"[{'imgObject': {}, 'id': 'apple slices', 'src': '/static/foodstim60/apple slices.jpg', 'key': 'u', 'origWidth': 409, 'origHeight': 410, 'width': 409, 'height': 410, 'widthPercent': 0.45, 'rescaleHeight': False, 'trialN': 9, 'loaded': True, 'loadedTime': 3848.5, 'positionName': 'LEFT', 'positionCoords': [328.28, 227], 'bid': 2.05}, {'imgObject': {}, 'id': 'sweetpotato', 'src': '/static/foodstim60/sweetpotato.jpg', 'key': 'i', 'origWidth': 410, 'origHeight': 410, 'width': 410, 'height': 410, 'widthPercent': 0.45, 'rescaleHeight': False, 'trialN': 9, 'loaded': True, 'loadedTime': 4067.60000000149, 'positionName': 'RIGHT', 'positionCoords': [798.72, 227], 'bid': 0.39}]",17899.800000000745,1669852472687,apple slices,sweetpotato,2.05,0.39,-1.6599999999999997,apple slices,1363.300000000745,1364,1364.0,True,u,19773.800000000745,1874.0,1669852474561,1874,HRV,HRV_0320,2022-11-30 23:59:50
10,"[{'imgObject': {}, 'id': 'popsicles', 'src': '/static/foodstim60/popsicles.jpg', 'key': 'u', 'origWidth': 410, 'origHeight': 410, 'width': 410, 'height': 410, 'widthPercent': 0.45, 'rescaleHeight': False, 'trialN': 10, 'loaded': True, 'loadedTime': 4472.800000000745, 'positionName': 'LEFT', 'positionCoords': [327.28, 227], 'bid': 5.89}, {'imgObject': {}, 'id': 'turkeysandwich', 'src': '/static/foodstim60/turkeysandwich.jpg', 'key': 'i', 'origWidth': 409, 'origHeight': 409, 'width': 409, 'height': 409, 'widthPercent': 0.45, 'rescaleHeight': False, 'trialN': 10, 'loaded': True, 'loadedTime': 4124.300000000745, 'positionName': 'RIGHT', 'positionCoords': [798.72, 227.5], 'bid': 5.11}]",19774.300000000745,1669852474561,popsicles,turkeysandwich,5.89,5.11,-0.7799999999999994,turkeysandwich,1013.5,1015,1014.3000000007451,True,i,21308.300000000745,1534.0,1669852476095,1534,HRV,HRV_0320,2022-11-30 23:59:50
11,"[{'imgObject': {}, 'id': 'raspberries', 'src': '/static/foodstim60/raspberries.jpg', 'key': 'u', 'origWidth': 411, 'origHeight': 411, 'width': 411, 'height': 411, 'widthPercent': 0.45, 'rescaleHeight': False, 'trialN': 11, 'loaded': True, 'loadedTime': 3961.699999999255, 'positionName': 'LEFT', 'positionCoords': [326.28, 226.5], 'bid': 5.95}, {'imgObject': {}, 'id': 'omelette', 'src': '/static/foodstim60/omelette.jpg', 'key': 'i', 'origWidth': 410, 'origHeight': 409, 'width': 410, 'height': 409, 'widthPercent': 0.45, 'rescaleHeight': False, 'trialN': 11, 'loaded': True, 'loadedTime': 4033.199999999255, 'positionName': 'RIGHT', 'positionCoords': [798.72, 227.5], 'bid': 0.72}]",21308.800000000745,1669852476096,raspberries,omelette,5.95,0.72,-5.23,raspberries,914,914,914.3999999985099,True,u,22726.699999999255,1417.8999999985099,1669852477514,1418,HRV,HRV_0320,2022-11-30 23:59:50
12,"[{'imgObject': {}, 'id': 'avocado', 'src': '/static/foodstim60/avocado.jpg', 'key': 'u', 'origWidth': 409, 'origHeight': 409, 'width': 409, 'height': 409, 'widthPercent': 0.45, 'rescaleHeight': False, 'trialN': 12, 'loaded': True, 'loadedTime': 4097.699999999255, 'positionName': 'LEFT', 'positionCoords': [328.28, 227.5], 'bid': 8}, {'imgObject': {}, 'id': 'corn cob', 'src': '/static/foodstim60/corn cob.jpg', 'key': 'i', 'origWidth': 411, 'origHeight': 411, 'width': 411, 'height': 411, 'widthPercent': 0.45, 'rescaleHeight': False, 'trialN': 12, 'loaded': True, 'loadedTime': 4131.699999999255, 'positionName': 'RIGHT', 'positionCoords': [798.72, 226.5], 'bid': 8.07}]",22726.89999999851,1669852477514,avocado,corn cob,8.0,8.07,0.07000000000000028,avocado,1403,1403,1403.4000000022352,True,u,24645.300000000745,1918.4000000022352,1669852479432,1918,HRV,HRV_0320,2022-11-30 23:59:50
13,"[{'imgObject': {}, 'id': 'ice cream sundae 002', 'src': '/static/foodstim60/ice cream sundae 002.jpg', 'key': 'u', 'origWidth': 409, 'origHeight': 409, 'width': 409, 'height': 409, 'widthPercent': 0.45, 'rescaleHeight': False, 'trialN': 13, 'loaded': True, 'loadedTime': 4141.699999999255, 'positionName': 'LEFT', 'positionCoords': [328.28, 227.5], 'bid': 4.03}, {'imgObject': {}, 'id': 'cocktailshrimp', 'src': '/static/foodstim60/cocktailshrimp.jpg', 'key': 'i', 'origWidth': 410, 'origHeight': 410, 'width': 410, 'height': 410, 'widthPercent': 0.45, 'rescaleHeight': False, 'trialN': 13, 'loaded': True, 'loadedTime': 4154.39999999851, 'positionName': 'RIGHT', 'positionCoords': [798.72, 227], 'bid': 6.91}]",24645.60000000149,1669852479433,ice cream sundae 002,cocktailshrimp,4.03,6.91,2.88,cocktailshrimp,1030.7999999970198,1031,1031.0999999977648,True,i,26189.10000000149,1543.5,1669852480976,1543,HRV,HRV_0320,2022-11-30 23:59:50
14,"[{'imgObject': {}, 'id': 'Grapes', 'src': '/static/foodstim60/Grapes.jpg', 'key': 'u', 'origWidth': 411, 'origHeight': 411, 'width': 411, 'height': 411, 'widthPercent': 0.45, 'rescaleHeight': False, 'trialN': 14, 'loaded': True, 'loadedTime': 4165, 'positionName': 'LEFT', 'positionCoords': [326.28, 226.5], 'bid': 7.3}, {'imgObject': {}, 'id': 'chicken nuggets2', 'src': '/static/foodstim60/chicken nuggets2.jpg', 'key': 'i', 'origWidth': 410, 'origHeight': 409, 'width': 410, 'height': 409, 'widthPercent': 0.45, 'rescaleHeight': False, 'trialN': 14, 'loaded': True, 'loadedTime': 3997.39999999851, 'positionName': 'RIGHT', 'positionCoords': [798.72, 227.5], 'bid': 2.05}]",26189.300000000745,1669852480976,Grapes,chicken nuggets2,7.3,2.05,-5.25,Grapes,758.3999999985099,760,759.1999999992549,True,u,27454.300000000745,1265.0,1669852482241,1265,HRV,HRV_0320,2022-11-30 23:59:50
15,"[{'imgObject': {}, 'id': 'kiwi', 'src': '/static/foodstim60/kiwi.jpg', 'key': 'u', 'origWidth': 410, 'origHeight': 410, 'width': 410, 'height': 410, 'widthPercent': 0.45, 'rescaleHeight': False, 'trialN': 15, 'loaded': True, 'loadedTime': 3841.5, 'positionName': 'LEFT', 'positionCoords': [327.28, 227], 'bid': 3.69}, {'imgObject': {}, 'id': 'banana', 'src': '/static/foodstim60/banana.jpg', 'key': 'i', 'origWidth': 410, 'origHeight': 410, 'width': 410, 'height': 410, 'widthPercent': 0.45, 'rescaleHeight': False, 'trialN': 15, 'loaded': True, 'loadedTime': 4189.39999999851, 'positionName': 'RIGHT', 'positionCoords': [798.72, 227], 'bid': 6.7700000000000005}]",27454.699999999255,1669852482242,kiwi,banana,3.69,6.7700000000000005,3.0800000000000005,banana,1077.699999999255,1078,1078.4000000022352,True,i,29042.300000000745,1587.6000000014901,1669852483829,1587,HRV,HRV_0320,2022-11-30 23:59:50
16,"[{'imgObject': {}, 'id': 'baked potato', 'src': '/static/foodstim60/baked potato.jpg', 'key': 'u', 'origWidth': 409, 'origHeight': 410, 'width': 409, 'height': 410, 'widthPercent': 0.45, 'rescaleHeight': False, 'trialN': 16, 'loaded': True, 'loadedTime': 3751.10000000149, 'positionName': 'LEFT', 'positionCoords': [328.28, 227], 'bid': 5.2700000000000005}, {'imgObject': {}, 'id': 'rigatoni and sauce', 'src': '/static/foodstim60/rigatoni and sauce.jpg', 'key': 'i', 'origWidth': 410, 'origHeight': 411, 'width': 410, 'height': 411, 'widthPercent': 0.45, 'rescaleHeight': False, 'trialN': 16, 'loaded': True, 'loadedTime': 4192.60000000149, 'positionName': 'RIGHT', 'positionCoords': [798.72, 226.5], 'bid': 6.5600000000000005}]",29042.39999999851,1669852483830,baked potato,rigatoni and sauce,5.2700000000000005,6.5600000000000005,1.29,rigatoni and sauce,1311.9000000022352,1312,1312.6000000014901,True,i,30868.300000000745,1825.9000000022352,1669852485655,1825,HRV,HRV_0320,2022-11-30 23:59:50
17,"[{'imgObject': {}, 'id': 'chicken nuggets2', 'src': '/static/foodstim60/chicken nuggets2.jpg', 'key': 'u', 'origWidth': 410, 'origHeight': 409, 'width': 410, 'height': 409, 'widthPercent': 0.45, 'rescaleHeight': False, 'trialN': 17, 'loaded': True, 'loadedTime': 4001.39999999851, 'positionName': 'LEFT', 'positionCoords': [327.28, 227.5], 'bid': 2.05}, {'imgObject': {}, 'id': 'hotdog w must', 'src': '/static/foodstim60/hotdog w must.jpg', 'key': 'i', 'origWidth': 409, 'origHeight': 409, 'width': 409, 'height': 409, 'widthPercent': 0.45, 'rescaleHeight': False, 'trialN': 17, 'loaded': True, 'loadedTime': 4209.300000000745, 'positionName': 'RIGHT', 'positionCoords': [798.72, 227.5], 'bid': 0.35}]",30868.39999999851,1669852485656,chicken nuggets2,hotdog w must,2.05,0.35,-1.6999999999999997,chicken nuggets2,1498.4000000022352,1498,1498.6000000014901,True,u,32887.5,2019.1000000014901,1669852487675,2019,HRV,HRV_0320,2022-11-30 23:59:50
18,"[{'imgObject': {}, 'id': 'luckycharms', 'src': '/static/foodstim60/luckycharms.jpg', 'key': 'u', 'origWidth': 410, 'origHeight': 409, 'width': 410, 'height': 409, 'widthPercent': 0.45, 'rescaleHeight': False, 'trialN': 18, 'loaded': True, 'loadedTime': 3689.10000000149, 'positionName': 'LEFT', 'positionCoords': [327.28, 227.5], 'bid': 0.62}, {'imgObject': {}, 'id': 'mac & cheese', 'src': '/static/foodstim60/mac & cheese.jpg', 'key': 'i', 'origWidth': 410, 'origHeight': 410, 'width': 410, 'height': 410, 'widthPercent': 0.45, 'rescaleHeight': False, 'trialN': 18, 'loaded': True, 'loadedTime': 4235.5, 'positionName': 'RIGHT', 'positionCoords': [798.72, 227], 'bid': 1.71}]",32887.800000000745,1669852487675,luckycharms,mac & cheese,0.62,1.71,1.0899999999999999,mac & cheese,712.8999999985099,713,713.3999999985099,True,i,34120.0,1232.199999999255,1669852488907,1232,HRV,HRV_0320,2022-11-30 23:59:50
19,"[{'imgObject': {}, 'id': 'froot loops w milk', 'src': '/static/foodstim60/froot loops w milk.jpg', 'key': 'u', 'origWidth': 410, 'origHeight': 410, 'width': 410, 'height': 410, 'widthPercent': 0.45, 'rescaleHeight': False, 'trialN': 19, 'loaded': True, 'loadedTime': 4248.300000000745, 'positionName': 'LEFT', 'positionCoords': [327.28, 227], 'bid': 0.26}, {'imgObject': {}, 'id': 'burger', 'src': '/static/foodstim60/burger.jpg', 'key': 'i', 'origWidth': 409, 'origHeight': 409, 'width': 409, 'height': 409, 'widthPercent': 0.45, 'rescaleHeight': False, 'trialN': 19, 'loaded': True, 'loadedTime': 4258.39999999851, 'positionName': 'RIGHT', 'positionCoords': [798.72, 227.5], 'bid': 3.95}]",34120.60000000149,1669852488907,froot loops w milk,burger,0.26,3.95,3.6900000000000004,burger,991.8999999985099,993,992.2999999970198,True,i,35623.60000000149,1503.0,1669852490410,1503,HRV,HRV_0320,2022-11-30 23:59:50
20,"[{'imgObject': {}, 'id': 'orange slices', 'src': '/static/foodstim60/orange slices.jpg', 'key': 'u', 'origWidth': 409, 'origHeight': 410, 'width': 409, 'height': 410, 'widthPercent': 0.45, 'rescaleHeight': False, 'trialN': 20, 'loaded': True, 'loadedTime': 3925.39999999851, 'positionName': 'LEFT', 'positionCoords': [328.28, 227], 'bid': 2.33}, {'imgObject': {}, 'id': 'steak', 'src': '/static/foodstim60/steak.jpg', 'key': 'i', 'origWidth': 410, 'origHeight': 410, 'width': 410, 'height': 410, 'widthPercent': 0.45, 'rescaleHeight': False, 'trialN': 20, 'loaded': True, 'loadedTime': 4266.39999999851, 'positionName': 'RIGHT', 'positionCoords': [798.72, 227], 'bid': 2.05}]",35623.89999999851,1669852490411,orange slices,steak,2.33,2.05,-0.28000000000000025,orange slices,818.3000000007451,818,818.8000000007451,True,u,36957.699999999255,1333.800000000745,1669852491744,1333,HRV,HRV_0320,2022-11-30 23:59:50
21,"[{'imgObject': {}, 'id': 'veggieswithdip', 'src': '/static/foodstim60/veggieswithdip.jpg', 'key': 'u', 'origWidth': 409, 'origHeight': 409, 'width': 409, 'height': 409, 'widthPercent': 0.45, 'rescaleHeight': False, 'trialN': 21, 'loaded': True, 'loadedTime': 3868.60000000149, 'positionName': 'LEFT', 'positionCoords': [328.28, 227.5], 'bid': 7.55}, {'imgObject': {}, 'id': 'shreddedwheatwithmilk', 'src': '/static/foodstim60/shreddedwheatwithmilk.jpg', 'key': 'i', 'origWidth': 410, 'origHeight': 410, 'width': 410, 'height': 410, 'widthPercent': 0.45, 'rescaleHeight': False, 'trialN': 21, 'loaded': True, 'loadedTime': 4269.699999999255, 'positionName': 'RIGHT', 'positionCoords': [798.72, 227], 'bid': 5.09}]",36958.0,1669852491745,veggieswithdip,shreddedwheatwithmilk,7.55,5.09,-2.46,veggieswithdip,855.3000000007451,855,855.6000000014901,True,u,38328.300000000745,1370.300000000745,1669852493115,1370,HRV,HRV_0320,2022-11-30 23:59:50
22,"[{'imgObject': {}, 'id': 'cheerios', 'src': '/static/foodstim60/cheerios.jpg', 'key': 'u', 'origWidth': 409, 'origHeight': 410, 'width': 409, 'height': 410, 'widthPercent': 0.45, 'rescaleHeight': False, 'trialN': 22, 'loaded': True, 'loadedTime': 4279.199999999255, 'positionName': 'LEFT', 'positionCoords': [328.28, 227], 'bid': 1.39}, {'imgObject': {}, 'id': 'steak', 'src': '/static/foodstim60/steak.jpg', 'key': 'i', 'origWidth': 410, 'origHeight': 410, 'width': 410, 'height': 410, 'widthPercent': 0.45, 'rescaleHeight': False, 'trialN': 22, 'loaded': True, 'loadedTime': 4263.39999999851, 'positionName': 'RIGHT', 'positionCoords': [798.72, 227], 'bid': 2.05}]",38328.5,1669852493115,cheerios,steak,1.39,2.05,0.6599999999999999,steak,1041.699999999255,1043,1042.3999999985099,True,i,39878.5,1550.0,1669852494665,1550,HRV,HRV_0320,2022-11-30 23:59:50
23,"[{'imgObject': {}, 'id': 'blackbeanswithrice', 'src': '/static/foodstim60/blackbeanswithrice.jpg', 'key': 'u', 'origWidth': 410, 'origHeight': 410, 'width': 410, 'height': 410, 'widthPercent': 0.45, 'rescaleHeight': False, 'trialN': 23, 'loaded': True, 'loadedTime': 4041.89999999851, 'positionName': 'LEFT', 'positionCoords': [327.28, 227], 'bid': 0.27}, {'imgObject': {}, 'id': 'sweetpotato', 'src': '/static/foodstim60/sweetpotato.jpg', 'key': 'i', 'origWidth': 410, 'origHeight': 410, 'width': 410, 'height': 410, 'widthPercent': 0.45, 'rescaleHeight': False, 'trialN': 23, 'loaded': True, 'loadedTime': 4063.60000000149, 'positionName': 'RIGHT', 'positionCoords': [798.72, 227], 'bid': 0.39}]",39878.89999999851,1669852494666,blackbeanswithrice,sweetpotato,0.27,0.39,0.12,blackbeanswithrice,1776.6000000014901,1778,1778.2000000029802,True,u,42168.699999999255,2289.800000000745,1669852496955,2289,HRV,HRV_0320,2022-11-30 23:59:50
24,"[{'imgObject': {}, 'id': 'hotdog w must', 'src': '/static/foodstim60/hotdog w must.jpg', 'key': 'u', 'origWidth': 409, 'origHeight': 409, 'width': 409, 'height': 409, 'widthPercent': 0.45, 'rescaleHeight': False, 'trialN': 24, 'loaded': True, 'loadedTime': 4216.699999999255, 'positionName': 'LEFT', 'positionCoords': [328.28, 227.5], 'bid': 0.35}, {'imgObject': {}, 'id': 'blackbeanswithrice', 'src': '/static/foodstim60/blackbeanswithrice.jpg', 'key': 'i', 'origWidth': 410, 'origHeight': 410, 'width': 410, 'height': 410, 'widthPercent': 0.45, 'rescaleHeight': False, 'trialN': 24, 'loaded': True, 'loadedTime': 4048.5, 'positionName': 'RIGHT', 'positionCoords': [798.72, 227], 'bid': 0.27}]",42169.199999999255,1669852496956,hotdog w must,blackbeanswithrice,0.35,0.27,-0.07999999999999996,blackbeanswithrice,2261.60000000149,2262,2262.5,True,i,44944.89999999851,2775.699999999255,1669852499732,2776,HRV,HRV_0320,2022-11-30 23:59:50
25,"[{'imgObject': {}, 'id': 'mashed potato', 'src': '/static/foodstim60/mashed potato.jpg', 'key': 'u', 'origWidth': 409, 'origHeight': 409, 'width': 409, 'height': 409, 'widthPercent': 0.45, 'rescaleHeight': False, 'trialN': 25, 'loaded': True, 'loadedTime': 3899.800000000745, 'positionName': 'LEFT', 'positionCoords': [328.28, 227.5], 'bid': 1.21}, {'imgObject': {}, 'id': 'hotdog w must', 'src': '/static/foodstim60/hotdog w must.jpg', 'key': 'i', 'origWidth': 409, 'origHeight': 409, 'width': 409, 'height': 409, 'widthPercent': 0.45, 'rescaleHeight': False, 'trialN': 25, 'loaded': True, 'loadedTime': 4217, 'positionName': 'RIGHT', 'positionCoords': [798.72, 227.5], 'bid': 0.35}]",44945.10000000149,1669852499732,mashed potato,hotdog w must,1.21,0.35,-0.86,mashed potato,1127,1128,1127.699999999255,True,u,46580.39999999851,1635.2999999970198,1669852501367,1635,HRV,HRV_0320,2022-11-30 23:59:50
26,"[{'imgObject': {}, 'id': 'cherry tomato', 'src': '/static/foodstim60/cherry tomato.jpg', 'key': 'u', 'origWidth': 410, 'origHeight': 410, 'width': 410, 'height': 410, 'widthPercent': 0.45, 'rescaleHeight': False, 'trialN': 26, 'loaded': True, 'loadedTime': 4286.5, 'positionName': 'LEFT', 'positionCoords': [327.28, 227], 'bid': 6.66}, {'imgObject': {}, 'id': 'mango', 'src': '/static/foodstim60/mango.jpg', 'key': 'i', 'origWidth': 411, 'origHeight': 411, 'width': 411, 'height': 411, 'widthPercent': 0.45, 'rescaleHeight': False, 'trialN': 26, 'loaded': True, 'loadedTime': 4299.5, 'positionName': 'RIGHT', 'positionCoords': [798.72, 226.5], 'bid': 8.2}]",46580.800000000745,1669852501367,cherry tomato,mango,6.66,8.2,1.5399999999999991,mango,1273.3999999985099,1274,1274.0,True,i,48368.10000000149,1787.300000000745,1669852503155,1788,HRV,HRV_0320,2022-11-30 23:59:50
27,"[{'imgObject': {}, 'id': 'cantaloupe', 'src': '/static/foodstim60/cantaloupe.jpg', 'key': 'u', 'origWidth': 409, 'origHeight': 409, 'width': 409, 'height': 409, 'widthPercent': 0.45, 'rescaleHeight': False, 'trialN': 27, 'loaded': True, 'loadedTime': 4312.39999999851, 'positionName': 'LEFT', 'positionCoords': [328.28, 227.5], 'bid': 2.53}, {'imgObject': {}, 'id': 'avocado', 'src': '/static/foodstim60/avocado.jpg', 'key': 'i', 'origWidth': 409, 'origHeight': 409, 'width': 409, 'height': 409, 'widthPercent': 0.45, 'rescaleHeight': False, 'trialN': 27, 'loaded': True, 'loadedTime': 4090.199999999255, 'positionName': 'RIGHT', 'positionCoords': [798.72, 227.5], 'bid': 8}]",48368.5,1669852503155,cantaloupe,avocado,2.53,8.0,5.470000000000001,avocado,1154.300000000745,1155,1154.8999999985099,True,i,50041.699999999255,1673.199999999255,1669852504828,1673,HRV,HRV_0320,2022-11-30 23:59:50
28,"[{'imgObject': {}, 'id': 'cheerios', 'src': '/static/foodstim60/cheerios.jpg', 'key': 'u', 'origWidth': 409, 'origHeight': 410, 'width': 409, 'height': 410, 'widthPercent': 0.45, 'rescaleHeight': False, 'trialN': 28, 'loaded': True, 'loadedTime': 4279.39999999851, 'positionName': 'LEFT', 'positionCoords': [328.28, 227], 'bid': 1.39}, {'imgObject': {}, 'id': 'Tribe humus pita', 'src': '/static/foodstim60/Tribe humus pita.jpg', 'key': 'i', 'origWidth': 411, 'origHeight': 411, 'width': 411, 'height': 411, 'widthPercent': 0.45, 'rescaleHeight': False, 'trialN': 28, 'loaded': True, 'loadedTime': 4323.89999999851, 'positionName': 'RIGHT', 'positionCoords': [798.72, 226.5], 'bid': 1.58}]",50041.89999999851,1669852504829,cheerios,Tribe humus pita,1.39,1.58,0.19000000000000017,Tribe humus pita,2161.60000000149,2162,2162.10000000149,True,i,52730.39999999851,2688.5,1669852507517,2688,HRV,HRV_0320,2022-11-30 23:59:50
29,"[{'imgObject': {}, 'id': 'salmon', 'src': '/static/foodstim60/salmon.jpg', 'key': 'u', 'origWidth': 410, 'origHeight': 409, 'width': 410, 'height': 409, 'widthPercent': 0.45, 'rescaleHeight': False, 'trialN': 29, 'loaded': True, 'loadedTime': 4329.300000000745, 'positionName': 'LEFT', 'positionCoords': [327.28, 227.5], 'bid': 3.11}, {'imgObject': {}, 'id': 'sushi w_condiments', 'src': '/static/foodstim60/sushi w_condiments.jpg', 'key': 'i', 'origWidth': 410, 'origHeight': 410, 'width': 410, 'height': 410, 'widthPercent': 0.45, 'rescaleHeight': False, 'trialN': 29, 'loaded': True, 'loadedTime': 4332.199999999255, 'positionName': 'RIGHT', 'positionCoords': [798.72, 227], 'bid': 8.34}]",52730.89999999851,1669852507518,salmon,sushi w_condiments,3.11,8.34,5.23,sushi w_condiments,1065,1065,1065.6000000014901,True,i,54312.699999999255,1581.800000000745,1669852509099,1581,HRV,HRV_0320,2022-11-30 23:59:50
30,"[{'imgObject': {}, 'id': 'seaweed', 'src': '/static/foodstim60/seaweed.jpg', 'key': 'u', 'origWidth': 410, 'origHeight': 410, 'width': 410, 'height': 410, 'widthPercent': 0.45, 'rescaleHeight': False, 'trialN': 30, 'loaded': True, 'loadedTime': 4361.5, 'positionName': 'LEFT', 'positionCoords': [327.28, 227], 'bid': 0.03}, {'imgObject': {}, 'id': 'cheerios', 'src': '/static/foodstim60/cheerios.jpg', 'key': 'i', 'origWidth': 409, 'origHeight': 410, 'width': 409, 'height': 410, 'widthPercent': 0.45, 'rescaleHeight': False, 'trialN': 30, 'loaded': True, 'loadedTime': 4276.199999999255, 'positionName': 'RIGHT', 'positionCoords': [798.72, 227], 'bid': 1.39}]",54313.10000000149,1669852509100,seaweed,cheerios,0.03,1.39,1.3599999999999999,cheerios,1347.8999999985099,1348,1348.699999999255,True,i,56171.89999999851,1858.7999999970198,1669852510959,1859,HRV,HRV_0320,2022-11-30 23:59:50
31,"[{'imgObject': {}, 'id': 'steak', 'src': '/static/foodstim60/steak.jpg', 'key': 'u', 'origWidth': 410, 'origHeight': 410, 'width': 410, 'height': 410, 'widthPercent': 0.45, 'rescaleHeight': False, 'trialN': 31, 'loaded': True, 'loadedTime': 4266.89999999851, 'positionName': 'LEFT', 'positionCoords': [327.28, 227], 'bid': 2.05}, {'imgObject': {}, 'id': 'chicken nuggets2', 'src': '/static/foodstim60/chicken nuggets2.jpg', 'key': 'i', 'origWidth': 410, 'origHeight': 409, 'width': 410, 'height': 409, 'widthPercent': 0.45, 'rescaleHeight': False, 'trialN': 31, 'loaded': True, 'loadedTime': 4009.60000000149, 'positionName': 'RIGHT', 'positionCoords': [798.72, 227.5], 'bid': 2.05}]",56172.10000000149,1669852510959,steak,chicken nuggets2,2.05,2.05,0.0,steak,1263.0999999977648,1264,1263.699999999255,True,u,57945.10000000149,1773.0,1669852512732,1773,HRV,HRV_0320,2022-11-30 23:59:50
32,"[{'imgObject': {}, 'id': 'turkey sandwich', 'src': '/static/foodstim60/turkey sandwich.jpg', 'key': 'u', 'origWidth': 409, 'origHeight': 409, 'width': 409, 'height': 409, 'widthPercent': 0.45, 'rescaleHeight': False, 'trialN': 32, 'loaded': True, 'loadedTime': 4365.800000000745, 'positionName': 'LEFT', 'positionCoords': [328.28, 227.5], 'bid': 2.94}, {'imgObject': {}, 'id': 'burger', 'src': '/static/foodstim60/burger.jpg', 'key': 'i', 'origWidth': 409, 'origHeight': 409, 'width': 409, 'height': 409, 'widthPercent': 0.45, 'rescaleHeight': False, 'trialN': 32, 'loaded': True, 'loadedTime': 4255.699999999255, 'positionName': 'RIGHT', 'positionCoords': [798.72, 227.5], 'bid': 3.95}]",57945.5,1669852512732,turkey sandwich,burger,2.94,3.95,1.0100000000000002,turkey sandwich,1586.5,1587,1586.699999999255,True,u,60047.199999999255,2101.699999999255,1669852514834,2102,HRV,HRV_0320,2022-11-30 23:59:50
33,"[{'imgObject': {}, 'id': 'froot loops w milk', 'src': '/static/foodstim60/froot loops w milk.jpg', 'key': 'u', 'origWidth': 410, 'origHeight': 410, 'width': 410, 'height': 410, 'widthPercent': 0.45, 'rescaleHeight': False, 'trialN': 33, 'loaded': True, 'loadedTime': 4245.300000000745, 'positionName': 'LEFT', 'positionCoords': [327.28, 227], 'bid': 0.26}, {'imgObject': {}, 'id': 'grilled chicken strips', 'src': '/static/foodstim60/grilled chicken strips.jpg', 'key': 'i', 'origWidth': 410, 'origHeight': 411, 'width': 410, 'height': 411, 'widthPercent': 0.45, 'rescaleHeight': False, 'trialN': 33, 'loaded': True, 'loadedTime': 3912.199999999255, 'positionName': 'RIGHT', 'positionCoords': [798.72, 226.5], 'bid': 1.18}]",60047.300000000745,1669852514834,froot loops w milk,grilled chicken strips,0.26,1.18,0.9199999999999999,grilled chicken strips,2214.800000000745,2215,2215.39999999851,True,i,62769.199999999255,2721.89999999851,1669852517556,2722,HRV,HRV_0320,2022-11-30 23:59:50
34,"[{'imgObject': {}, 'id': 'strawberries', 'src': '/static/foodstim60/strawberries.jpg', 'key': 'u', 'origWidth': 410, 'origHeight': 410, 'width': 410, 'height': 410, 'widthPercent': 0.45, 'rescaleHeight': False, 'trialN': 34, 'loaded': True, 'loadedTime': 3981.39999999851, 'positionName': 'LEFT', 'positionCoords': [327.28, 227], 'bid': 6.0600000000000005}, {'imgObject': {}, 'id': 'shreddedwheatwithmilk', 'src': '/static/foodstim60/shreddedwheatwithmilk.jpg', 'key': 'i', 'origWidth': 410, 'origHeight': 410, 'width': 410, 'height': 410, 'widthPercent': 0.45, 'rescaleHeight': False, 'trialN': 34, 'loaded': True, 'loadedTime': 4271, 'positionName': 'RIGHT', 'positionCoords': [798.72, 227], 'bid': 5.09}]",62769.300000000745,1669852517556,strawberries,shreddedwheatwithmilk,6.0600000000000005,5.09,-0.9700000000000006,strawberries,750,750,750.3000000007451,True,u,64035.0,1265.699999999255,1669852518822,1266,HRV,HRV_0320,2022-11-30 23:59:50
35,"[{'imgObject': {}, 'id': 'steak', 'src': '/static/foodstim60/steak.jpg', 'key': 'u', 'origWidth': 410, 'origHeight': 410, 'width': 410, 'height': 410, 'widthPercent': 0.45, 'rescaleHeight': False, 'trialN': 35, 'loaded': True, 'loadedTime': 4266.60000000149, 'positionName': 'LEFT', 'positionCoords': [327.28, 227], 'bid': 2.05}, {'imgObject': {}, 'id': 'salad w chicken', 'src': '/static/foodstim60/salad w chicken.jpg', 'key': 'i', 'origWidth': 411, 'origHeight': 411, 'width': 411, 'height': 411, 'widthPercent': 0.45, 'rescaleHeight': False, 'trialN': 35, 'loaded': True, 'loadedTime': 4081.699999999255, 'positionName': 'RIGHT', 'positionCoords': [798.72, 226.5], 'bid': 7.92}]",64035.199999999255,1669852518822,steak,salad w chicken,2.05,7.92,5.87,salad w chicken,729,730,729.8000000007451,True,i,65276.0,1240.800000000745,1669852520063,1241,HRV,HRV_0320,2022-11-30 23:59:50
36,"[{'imgObject': {}, 'id': 'omelette', 'src': '/static/foodstim60/omelette.jpg', 'key': 'u', 'origWidth': 410, 'origHeight': 409, 'width': 410, 'height': 409, 'widthPercent': 0.45, 'rescaleHeight': False, 'trialN': 36, 'loaded': True, 'loadedTime': 4033.5, 'positionName': 'LEFT', 'positionCoords': [327.28, 227.5], 'bid': 0.72}, {'imgObject': {}, 'id': 'olives', 'src': '/static/foodstim60/olives.jpg', 'key': 'i', 'origWidth': 410, 'origHeight': 410, 'width': 410, 'height': 410, 'widthPercent': 0.45, 'rescaleHeight': False, 'trialN': 36, 'loaded': True, 'loadedTime': 4382.699999999255, 'positionName': 'RIGHT', 'positionCoords': [798.72, 227], 'bid': 0.02}]",65276.199999999255,1669852520063,omelette,olives,0.72,0.02,-0.7,omelette,1041.5,1042,1042.0,True,u,66827.60000000149,1551.4000000022352,1669852521614,1551,HRV,HRV_0320,2022-11-30 23:59:50
37,"[{'imgObject': {}, 'id': 'banana', 'src': '/static/foodstim60/banana.jpg', 'key': 'u', 'origWidth': 410, 'origHeight': 410, 'width': 410, 'height': 410, 'widthPercent': 0.45, 'rescaleHeight': False, 'trialN': 37, 'loaded': True, 'loadedTime': 4180.89999999851, 'positionName': 'LEFT', 'positionCoords': [327.28, 227], 'bid': 6.7700000000000005}, {'imgObject': {}, 'id': 'Tribe humus pita', 'src': '/static/foodstim60/Tribe humus pita.jpg', 'key': 'i', 'origWidth': 411, 'origHeight': 411, 'width': 411, 'height': 411, 'widthPercent': 0.45, 'rescaleHeight': False, 'trialN': 37, 'loaded': True, 'loadedTime': 4313.10000000149, 'positionName': 'RIGHT', 'positionCoords': [798.72, 226.5], 'bid': 1.58}]",66828.0,1669852521615,banana,Tribe humus pita,6.7700000000000005,1.58,-5.19,banana,752,752,752.3999999985099,True,u,68099.69999999925,1271.699999999255,1669852522886,1271,HRV,HRV_0320,2022-11-30 23:59:50
38,"[{'imgObject': {}, 'id': 'baked potato', 'src': '/static/foodstim60/baked potato.jpg', 'key': 'u', 'origWidth': 409, 'origHeight': 410, 'width': 409, 'height': 410, 'widthPercent': 0.45, 'rescaleHeight': False, 'trialN': 38, 'loaded': True, 'loadedTime': 3754, 'positionName': 'LEFT', 'positionCoords': [328.28, 227], 'bid': 5.2700000000000005}, {'imgObject': {}, 'id': 'salmon', 'src': '/static/foodstim60/salmon.jpg', 'key': 'i', 'origWidth': 410, 'origHeight': 409, 'width': 410, 'height': 409, 'widthPercent': 0.45, 'rescaleHeight': False, 'trialN': 38, 'loaded': True, 'loadedTime': 4325.60000000149, 'positionName': 'RIGHT', 'positionCoords': [798.72, 227.5], 'bid': 3.11}]",68099.89999999851,1669852522887,baked potato,salmon,5.2700000000000005,3.11,-2.1600000000000006,baked potato,932.5,933,933.1000000014901,True,u,69549.89999999851,1450.0,1669852524337,1450,HRV,HRV_0320,2022-11-30 23:59:50
39,"[{'imgObject': {}, 'id': 'blueberries', 'src': '/static/foodstim60/blueberries.jpg', 'key': 'u', 'origWidth': 411, 'origHeight': 411, 'width': 411, 'height': 411, 'widthPercent': 0.45, 'rescaleHeight': False, 'trialN': 39, 'loaded': True, 'loadedTime': 4396.699999999255, 'positionName': 'LEFT', 'positionCoords': [326.28, 226.5], 'bid': 3.22}, {'imgObject': {}, 'id': 'burrito', 'src': '/static/foodstim60/burrito.jpg', 'key': 'i', 'origWidth': 410, 'origHeight': 410, 'width': 410, 'height': 410, 'widthPercent': 0.45, 'rescaleHeight': False, 'trialN': 39, 'loaded': True, 'loadedTime': 4400.10000000149, 'positionName': 'RIGHT', 'positionCoords': [798.72, 227], 'bid': 4.8100000000000005}]",69550.10000000149,1669852524337,blueberries,burrito,3.22,4.8100000000000005,1.5900000000000003,blueberries,1207.699999999255,1208,1208.0999999977648,True,u,71276.80000000075,1726.699999999255,1669852526064,1727,HRV,HRV_0320,2022-11-30 23:59:50
40,"[{'imgObject': {}, 'id': 'ice cream sundae 002', 'src': '/static/foodstim60/ice cream sundae 002.jpg', 'key': 'u', 'origWidth': 409, 'origHeight': 409, 'width': 409, 'height': 409, 'widthPercent': 0.45, 'rescaleHeight': False, 'trialN': 40, 'loaded': True, 'loadedTime': 4137.89999999851, 'positionName': 'LEFT', 'positionCoords': [328.28, 227.5], 'bid': 4.03}, {'imgObject': {}, 'id': 'kiwi', 'src': '/static/foodstim60/kiwi.jpg', 'key': 'i', 'origWidth': 410, 'origHeight': 410, 'width': 410, 'height': 410, 'widthPercent': 0.45, 'rescaleHeight': False, 'trialN': 40, 'loaded': True, 'loadedTime': 3835.5, 'positionName': 'RIGHT', 'positionCoords': [798.72, 227], 'bid': 3.69}]",71277.0,1669852526064,ice cream sundae 002,kiwi,4.03,3.69,-0.3400000000000003,kiwi,1000.8999999985099,1001,1001.3000000007451,True,i,72781.80000000075,1504.800000000745,1669852527569,1505,HRV,HRV_0320,2022-11-30 23:59:50
41,"[{'imgObject': {}, 'id': 'chickenfingers', 'src': '/static/foodstim60/chickenfingers.jpg', 'key': 'u', 'origWidth': 410, 'origHeight': 410, 'width': 410, 'height': 410, 'widthPercent': 0.45, 'rescaleHeight': False, 'trialN': 41, 'loaded': True, 'loadedTime': 4405.10000000149, 'positionName': 'LEFT', 'positionCoords': [327.28, 227], 'bid': 2.66}, {'imgObject': {}, 'id': 'burrito', 'src': '/static/foodstim60/burrito.jpg', 'key': 'i', 'origWidth': 410, 'origHeight': 410, 'width': 410, 'height': 410, 'widthPercent': 0.45, 'rescaleHeight': False, 'trialN': 41, 'loaded': True, 'loadedTime': 4401.800000000745, 'positionName': 'RIGHT', 'positionCoords': [798.72, 227], 'bid': 4.8100000000000005}]",72782.19999999925,1669852527569,chickenfingers,burrito,2.66,4.8100000000000005,2.1500000000000004,chickenfingers,1597.800000000745,1598,1598.199999999255,True,u,74885.19999999925,2103.0,1669852529672,2103,HRV,HRV_0320,2022-11-30 23:59:50
42,"[{'imgObject': {}, 'id': 'bagel and cc', 'src': '/static/foodstim60/bagel and cc.jpg', 'key': 'u', 'origWidth': 410, 'origHeight': 410, 'width': 410, 'height': 410, 'widthPercent': 0.45, 'rescaleHeight': False, 'trialN': 42, 'loaded': True, 'loadedTime': 4413.89999999851, 'positionName': 'LEFT', 'positionCoords': [327.28, 227], 'bid': 2.01}, {'imgObject': {}, 'id': 'Tribe humus pita', 'src': '/static/foodstim60/Tribe humus pita.jpg', 'key': 'i', 'origWidth': 411, 'origHeight': 411, 'width': 411, 'height': 411, 'widthPercent': 0.45, 'rescaleHeight': False, 'trialN': 42, 'loaded': True, 'loadedTime': 4317.5, 'positionName': 'RIGHT', 'positionCoords': [798.72, 226.5], 'bid': 1.58}]",74885.60000000149,1669852529672,bagel and cc,Tribe humus pita,2.01,1.58,-0.4299999999999997,Tribe humus pita,1191.199999999255,1192,1191.8999999985099,True,i,76588.19999999925,1702.5999999977648,1669852531375,1703,HRV,HRV_0320,2022-11-30 23:59:50
43,"[{'imgObject': {}, 'id': 'chicken nuggets2', 'src': '/static/foodstim60/chicken nuggets2.jpg', 'key': 'u', 'origWidth': 410, 'origHeight': 409, 'width': 410, 'height': 409, 'widthPercent': 0.45, 'rescaleHeight': False, 'trialN': 43, 'loaded': True, 'loadedTime': 3992, 'positionName': 'LEFT', 'positionCoords': [327.28, 227.5], 'bid': 2.05}, {'imgObject': {}, 'id': 'apple slices', 'src': '/static/foodstim60/apple slices.jpg', 'key': 'i', 'origWidth': 409, 'origHeight': 410, 'width': 409, 'height': 410, 'widthPercent': 0.45, 'rescaleHeight': False, 'trialN': 43, 'loaded': True, 'loadedTime': 3851.300000000745, 'positionName': 'RIGHT', 'positionCoords': [798.72, 227], 'bid': 2.05}]",76588.5,1669852531375,chicken nuggets2,apple slices,2.05,2.05,0.0,apple slices,1641.199999999255,1642,1641.6000000014901,True,i,78738.0,2149.5,1669852533525,2150,HRV,HRV_0320,2022-11-30 23:59:50
44,"[{'imgObject': {}, 'id': 'corn cob', 'src': '/static/foodstim60/corn cob.jpg', 'key': 'u', 'origWidth': 411, 'origHeight': 411, 'width': 411, 'height': 411, 'widthPercent': 0.45, 'rescaleHeight': False, 'trialN': 44, 'loaded': True, 'loadedTime': 4131.5, 'positionName': 'LEFT', 'positionCoords': [326.28, 226.5], 'bid': 8.07}, {'imgObject': {}, 'id': 'tacos', 'src': '/static/foodstim60/tacos.jpg', 'key': 'i', 'origWidth': 411, 'origHeight': 411, 'width': 411, 'height': 411, 'widthPercent': 0.45, 'rescaleHeight': False, 'trialN': 44, 'loaded': True, 'loadedTime': 3934.89999999851, 'positionName': 'RIGHT', 'positionCoords': [798.72, 226.5], 'bid': 7.94}]",78738.19999999925,1669852533525,corn cob,tacos,8.07,7.94,-0.1299999999999999,tacos,1089.9000000022352,1090,1090.199999999255,True,i,80343.80000000075,1605.6000000014901,1669852535131,1606,HRV,HRV_0320,2022-11-30 23:59:50
45,"[{'imgObject': {}, 'id': 'sushi w_condiments', 'src': '/static/foodstim60/sushi w_condiments.jpg', 'key': 'u', 'origWidth': 410, 'origHeight': 410, 'width': 410, 'height': 410, 'widthPercent': 0.45, 'rescaleHeight': False, 'trialN': 45, 'loaded': True, 'loadedTime': 4333.5, 'positionName': 'LEFT', 'positionCoords': [327.28, 227], 'bid': 8.34}, {'imgObject': {}, 'id': 'raisin bran w milk', 'src': '/static/foodstim60/raisin bran w milk.jpg', 'key': 'i', 'origWidth': 411, 'origHeight': 411, 'width': 411, 'height': 411, 'widthPercent': 0.45, 'rescaleHeight': False, 'trialN': 45, 'loaded': True, 'loadedTime': 4416.199999999255, 'positionName': 'RIGHT', 'positionCoords': [798.72, 226.5], 'bid': 6.48}]",80344.10000000149,1669852535131,sushi w_condiments,raisin bran w milk,8.34,6.48,-1.8599999999999994,sushi w_condiments,749.2999999970198,750,750.0,True,u,81599.10000000149,1255.0,1669852536386,1255,HRV,HRV_0320,2022-11-30 23:59:50
46,"[{'imgObject': {}, 'id': 'shreddedwheatwithmilk', 'src': '/static/foodstim60/shreddedwheatwithmilk.jpg', 'key': 'u', 'origWidth': 410, 'origHeight': 410, 'width': 410, 'height': 410, 'widthPercent': 0.45, 'rescaleHeight': False, 'trialN': 46, 'loaded': True, 'loadedTime': 4271.60000000149, 'positionName': 'LEFT', 'positionCoords': [327.28, 227], 'bid': 5.09}, {'imgObject': {}, 'id': 'turkeysandwich', 'src': '/static/foodstim60/turkeysandwich.jpg', 'key': 'i', 'origWidth': 409, 'origHeight': 409, 'width': 409, 'height': 409, 'widthPercent': 0.45, 'rescaleHeight': False, 'trialN': 46, 'loaded': True, 'loadedTime': 4108, 'positionName': 'RIGHT', 'positionCoords': [798.72, 227.5], 'bid': 5.11}]",81599.39999999851,1669852536386,shreddedwheatwithmilk,turkeysandwich,5.09,5.11,0.020000000000000462,turkeysandwich,713.9000000022352,715,714.6000000014901,True,i,82834.19999999925,1234.800000000745,1669852537621,1235,HRV,HRV_0320,2022-11-30 23:59:50
47,"[{'imgObject': {}, 'id': 'ice cream sundae 002', 'src': '/static/foodstim60/ice cream sundae 002.jpg', 'key': 'u', 'origWidth': 409, 'origHeight': 409, 'width': 409, 'height': 409, 'widthPercent': 0.45, 'rescaleHeight': False, 'trialN': 47, 'loaded': True, 'loadedTime': 4147.800000000745, 'positionName': 'LEFT', 'positionCoords': [328.28, 227.5], 'bid': 4.03}, {'imgObject': {}, 'id': 'salmon', 'src': '/static/foodstim60/salmon.jpg', 'key': 'i', 'origWidth': 410, 'origHeight': 409, 'width': 410, 'height': 409, 'widthPercent': 0.45, 'rescaleHeight': False, 'trialN': 47, 'loaded': True, 'loadedTime': 4325.800000000745, 'positionName': 'RIGHT', 'positionCoords': [798.72, 227.5], 'bid': 3.11}]",82834.69999999925,1669852537621,ice cream sundae 002,salmon,4.03,3.11,-0.9200000000000004,salmon,1758.9000000022352,1760,1759.4000000022352,True,i,85109.80000000075,2275.10000000149,1669852539896,2275,HRV,HRV_0320,2022-11-30 23:59:50
48,"[{'imgObject': {}, 'id': 'Grapes', 'src': '/static/foodstim60/Grapes.jpg', 'key': 'u', 'origWidth': 411, 'origHeight': 411, 'width': 411, 'height': 411, 'widthPercent': 0.45, 'rescaleHeight': False, 'trialN': 48, 'loaded': True, 'loadedTime': 4164.800000000745, 'positionName': 'LEFT', 'positionCoords': [326.28, 226.5], 'bid': 7.3}, {'imgObject': {}, 'id': 'veggieswithdip', 'src': '/static/foodstim60/veggieswithdip.jpg', 'key': 'i', 'origWidth': 409, 'origHeight': 409, 'width': 409, 'height': 409, 'widthPercent': 0.45, 'rescaleHeight': False, 'trialN': 48, 'loaded': True, 'loadedTime': 3875.800000000745, 'positionName': 'RIGHT', 'positionCoords': [798.72, 227.5], 'bid': 7.55}]",85110.10000000149,1669852539897,Grapes,veggieswithdip,7.3,7.55,0.25,veggieswithdip,1738.7999999970198,1739,1739.699999999255,True,i,87363.19999999925,2253.099999997765,1669852542150,2253,HRV,HRV_0320,2022-11-30 23:59:50
49,"[{'imgObject': {}, 'id': 'chickenfingers', 'src': '/static/foodstim60/chickenfingers.jpg', 'key': 'u', 'origWidth': 410, 'origHeight': 410, 'width': 410, 'height': 410, 'widthPercent': 0.45, 'rescaleHeight': False, 'trialN': 49, 'loaded': True, 'loadedTime': 4406.89999999851, 'positionName': 'LEFT', 'positionCoords': [327.28, 227], 'bid': 2.66}, {'imgObject': {}, 'id': 'edamame', 'src': '/static/foodstim60/edamame.jpg', 'key': 'i', 'origWidth': 409, 'origHeight': 410, 'width': 409, 'height': 410, 'widthPercent': 0.45, 'rescaleHeight': False, 'trialN': 49, 'loaded': True, 'loadedTime': 4420, 'positionName': 'RIGHT', 'positionCoords': [798.72, 227], 'bid': 3.51}]",87363.5,1669852542150,chickenfingers,edamame,2.66,3.51,0.8499999999999996,edamame,2057.699999999255,2059,2058.60000000149,True,i,89936.60000000149,2573.10000000149,1669852544723,2573,HRV,HRV_0320,2022-11-30 23:59:50
50,"[{'imgObject': {}, 'id': 'cantaloupe', 'src': '/static/foodstim60/cantaloupe.jpg', 'key': 'u', 'origWidth': 409, 'origHeight': 409, 'width': 409, 'height': 409, 'widthPercent': 0.45, 'rescaleHeight': False, 'trialN': 50, 'loaded': True, 'loadedTime': 4309.300000000745, 'positionName': 'LEFT', 'positionCoords': [328.28, 227.5], 'bid': 2.53}, {'imgObject': {}, 'id': 'pear', 'src': '/static/foodstim60/pear.jpg', 'key': 'i', 'origWidth': 411, 'origHeight': 410, 'width': 411, 'height': 410, 'widthPercent': 0.45, 'rescaleHeight': False, 'trialN': 50, 'loaded': True, 'loadedTime': 3824.60000000149, 'positionName': 'RIGHT', 'positionCoords': [798.72, 227], 'bid': 2.91}]",89936.89999999851,1669852544724,cantaloupe,pear,2.53,2.91,0.38000000000000034,pear,1285.800000000745,1286,1286.2000000029802,True,i,91726.89999999851,1790.0,1669852546514,1790,HRV,HRV_0320,2022-11-30 23:59:50
51,"[{'imgObject': {}, 'id': 'mashed potato', 'src': '/static/foodstim60/mashed potato.jpg', 'key': 'u', 'origWidth': 409, 'origHeight': 409, 'width': 409, 'height': 409, 'widthPercent': 0.45, 'rescaleHeight': False, 'trialN': 51, 'loaded': True, 'loadedTime': 3902.5, 'positionName': 'LEFT', 'positionCoords': [328.28, 227.5], 'bid': 1.21}, {'imgObject': {}, 'id': 'fruitsalad', 'src': '/static/foodstim60/fruitsalad.jpg', 'key': 'i', 'origWidth': 410, 'origHeight': 410, 'width': 410, 'height': 410, 'widthPercent': 0.45, 'rescaleHeight': False, 'trialN': 51, 'loaded': True, 'loadedTime': 4422, 'positionName': 'RIGHT', 'positionCoords': [798.72, 227], 'bid': 6.61}]",91727.5,1669852546514,mashed potato,fruitsalad,1.21,6.61,5.4,fruitsalad,1268.8999999985099,1269,1269.199999999255,True,i,93509.5,1782.0,1669852548296,1782,HRV,HRV_0320,2022-11-30 23:59:50
52,"[{'imgObject': {}, 'id': 'raisin bran w milk', 'src': '/static/foodstim60/raisin bran w milk.jpg', 'key': 'u', 'origWidth': 411, 'origHeight': 411, 'width': 411, 'height': 411, 'widthPercent': 0.45, 'rescaleHeight': False, 'trialN': 52, 'loaded': True, 'loadedTime': 4414.60000000149, 'positionName': 'LEFT', 'positionCoords': [326.28, 226.5], 'bid': 6.48}, {'imgObject': {}, 'id': 'strawberries', 'src': '/static/foodstim60/strawberries.jpg', 'key': 'i', 'origWidth': 410, 'origHeight': 410, 'width': 410, 'height': 410, 'widthPercent': 0.45, 'rescaleHeight': False, 'trialN': 52, 'loaded': True, 'loadedTime': 3984.300000000745, 'positionName': 'RIGHT', 'positionCoords': [798.72, 227], 'bid': 6.0600000000000005}]",93509.89999999851,1669852548297,raisin bran w milk,strawberries,6.48,6.0600000000000005,-0.41999999999999993,strawberries,774.2000000029802,771,774.6000000014901,True,i,94798.19999999925,1288.300000000745,1669852549582,1285,HRV,HRV_0320,2022-11-30 23:59:50
53,"[{'imgObject': {}, 'id': 'roastedpotatoes', 'src': '/static/foodstim60/roastedpotatoes.jpg', 'key': 'u', 'origWidth': 409, 'origHeight': 410, 'width': 409, 'height': 410, 'widthPercent': 0.45, 'rescaleHeight': False, 'trialN': 53, 'loaded': True, 'loadedTime': 4428.300000000745, 'positionName': 'LEFT', 'positionCoords': [328.28, 227], 'bid': 1.19}, {'imgObject': {}, 'id': 'blueberries', 'src': '/static/foodstim60/blueberries.jpg', 'key': 'i', 'origWidth': 411, 'origHeight': 411, 'width': 411, 'height': 411, 'widthPercent': 0.45, 'rescaleHeight': False, 'trialN': 53, 'loaded': True, 'loadedTime': 4387.800000000745, 'positionName': 'RIGHT', 'positionCoords': [798.72, 226.5], 'bid': 3.22}]",94798.30000000075,1669852549582,roastedpotatoes,blueberries,1.19,3.22,2.0300000000000002,blueberries,780.3999999985099,781,781.0999999977648,True,i,96085.0,1286.699999999255,1669852550869,1287,HRV,HRV_0320,2022-11-30 23:59:50
54,"[{'imgObject': {}, 'id': 'corn cob', 'src': '/static/foodstim60/corn cob.jpg', 'key': 'u', 'origWidth': 411, 'origHeight': 411, 'width': 411, 'height': 411, 'widthPercent': 0.45, 'rescaleHeight': False, 'trialN': 54, 'loaded': True, 'loadedTime': 4131.89999999851, 'positionName': 'LEFT', 'positionCoords': [326.28, 226.5], 'bid': 8.07}, {'imgObject': {}, 'id': 'raspberries', 'src': '/static/foodstim60/raspberries.jpg', 'key': 'i', 'origWidth': 411, 'origHeight': 411, 'width': 411, 'height': 411, 'widthPercent': 0.45, 'rescaleHeight': False, 'trialN': 54, 'loaded': True, 'loadedTime': 3959, 'positionName': 'RIGHT', 'positionCoords': [798.72, 226.5], 'bid': 5.95}]",96085.30000000075,1669852550869,corn cob,raspberries,8.07,5.95,-2.12,corn cob,1527.300000000745,1528,1528.199999999255,True,u,98123.60000000149,2038.300000000745,1669852552907,2038,HRV,HRV_0320,2022-11-30 23:59:50
55,"[{'imgObject': {}, 'id': 'fried eggs', 'src': '/static/foodstim60/fried eggs.jpg', 'key': 'u', 'origWidth': 410, 'origHeight': 410, 'width': 410, 'height': 410, 'widthPercent': 0.45, 'rescaleHeight': False, 'trialN': 55, 'loaded': True, 'loadedTime': 4025.699999999255, 'positionName': 'LEFT', 'positionCoords': [327.28, 227], 'bid': 3.46}, {'imgObject': {}, 'id': 'edamame', 'src': '/static/foodstim60/edamame.jpg', 'key': 'i', 'origWidth': 409, 'origHeight': 410, 'width': 409, 'height': 410, 'widthPercent': 0.45, 'rescaleHeight': False, 'trialN': 55, 'loaded': True, 'loadedTime': 4421.199999999255, 'positionName': 'RIGHT', 'positionCoords': [798.72, 227], 'bid': 3.51}]",98124.0,1669852552908,fried eggs,edamame,3.46,3.51,0.04999999999999982,fried eggs,1123.5,1124,1124.699999999255,True,u,99764.10000000149,1640.1000000014901,1669852554548,1640,HRV,HRV_0320,2022-11-30 23:59:50
56,"[{'imgObject': {}, 'id': 'cherry tomato', 'src': '/static/foodstim60/cherry tomato.jpg', 'key': 'u', 'origWidth': 410, 'origHeight': 410, 'width': 410, 'height': 410, 'widthPercent': 0.45, 'rescaleHeight': False, 'trialN': 56, 'loaded': True, 'loadedTime': 4286.300000000745, 'positionName': 'LEFT', 'positionCoords': [327.28, 227], 'bid': 6.66}, {'imgObject': {}, 'id': 'raspberries', 'src': '/static/foodstim60/raspberries.jpg', 'key': 'i', 'origWidth': 411, 'origHeight': 411, 'width': 411, 'height': 411, 'widthPercent': 0.45, 'rescaleHeight': False, 'trialN': 56, 'loaded': True, 'loadedTime': 3967.5, 'positionName': 'RIGHT', 'positionCoords': [798.72, 226.5], 'bid': 5.95}]",99764.10000000149,1669852554548,cherry tomato,raspberries,6.66,5.95,-0.71,cherry tomato,1133.7999999970198,1134,1134.5999999977648,True,u,101416.19999999925,1652.0999999977648,1669852556200,1652,HRV,HRV_0320,2022-11-30 23:59:50
57,"[{'imgObject': {}, 'id': 'mango', 'src': '/static/foodstim60/mango.jpg', 'key': 'u', 'origWidth': 411, 'origHeight': 411, 'width': 411, 'height': 411, 'widthPercent': 0.45, 'rescaleHeight': False, 'trialN': 57, 'loaded': True, 'loadedTime': 4299.89999999851, 'positionName': 'LEFT', 'positionCoords': [326.28, 226.5], 'bid': 8.2}, {'imgObject': {}, 'id': 'eggs', 'src': '/static/foodstim60/eggs.jpg', 'key': 'i', 'origWidth': 409, 'origHeight': 409, 'width': 409, 'height': 409, 'widthPercent': 0.45, 'rescaleHeight': False, 'trialN': 57, 'loaded': True, 'loadedTime': 4440, 'positionName': 'RIGHT', 'positionCoords': [798.72, 227.5], 'bid': 5.98}]",101416.39999999851,1669852556200,mango,eggs,8.2,5.98,-2.219999999999999,mango,729.1000000014901,730,729.9000000022352,True,u,102657.30000000075,1240.9000000022352,1669852557441,1241,HRV,HRV_0320,2022-11-30 23:59:50
58,"[{'imgObject': {}, 'id': 'cherries', 'src': '/static/foodstim60/cherries.jpg', 'key': 'u', 'origWidth': 410, 'origHeight': 411, 'width': 410, 'height': 411, 'widthPercent': 0.45, 'rescaleHeight': False, 'trialN': 58, 'loaded': True, 'loadedTime': 4448.39999999851, 'positionName': 'LEFT', 'positionCoords': [327.28, 226.5], 'bid': 8.950000000000001}, {'imgObject': {}, 'id': 'tacos', 'src': '/static/foodstim60/tacos.jpg', 'key': 'i', 'origWidth': 411, 'origHeight': 411, 'width': 411, 'height': 411, 'widthPercent': 0.45, 'rescaleHeight': False, 'trialN': 58, 'loaded': True, 'loadedTime': 3946.300000000745, 'positionName': 'RIGHT', 'positionCoords': [798.72, 226.5], 'bid': 7.94}]",102657.60000000149,1669852557441,cherries,tacos,8.950000000000001,7.94,-1.0100000000000007,tacos,1207.5999999977648,1209,1208.2999999970198,True,i,104386.5,1728.8999999985099,1669852559170,1729,HRV,HRV_0320,2022-11-30 23:59:50
59,"[{'imgObject': {}, 'id': 'chicken nuggets2', 'src': '/static/foodstim60/chicken nuggets2.jpg', 'key': 'u', 'origWidth': 410, 'origHeight': 409, 'width': 410, 'height': 409, 'widthPercent': 0.45, 'rescaleHeight': False, 'trialN': 59, 'loaded': True, 'loadedTime': 3993.800000000745, 'positionName': 'LEFT', 'positionCoords': [327.28, 227.5], 'bid': 2.05}, {'imgObject': {}, 'id': 'roastedpotatoes', 'src': '/static/foodstim60/roastedpotatoes.jpg', 'key': 'i', 'origWidth': 409, 'origHeight': 410, 'width': 409, 'height': 410, 'widthPercent': 0.45, 'rescaleHeight': False, 'trialN': 59, 'loaded': True, 'loadedTime': 4427, 'positionName': 'RIGHT', 'positionCoords': [798.72, 227], 'bid': 1.19}]",104386.60000000149,1669852559170,chicken nuggets2,roastedpotatoes,2.05,1.19,-0.8599999999999999,roastedpotatoes,1676.7999999970198,1678,1677.5999999977648,True,i,106567.5,2180.89999999851,1669852561351,2181,HRV,HRV_0320,2022-11-30 23:59:50
60,"[{'imgObject': {}, 'id': 'bagel plain', 'src': '/static/foodstim60/bagel plain.jpg', 'key': 'u', 'origWidth': 410, 'origHeight': 410, 'width': 410, 'height': 410, 'widthPercent': 0.45, 'rescaleHeight': False, 'trialN': 60, 'loaded': True, 'loadedTime': 4452.39999999851, 'positionName': 'LEFT', 'positionCoords': [327.28, 227], 'bid': 0.8300000000000001}, {'imgObject': {}, 'id': 'mac & cheese', 'src': '/static/foodstim60/mac & cheese.jpg', 'key': 'i', 'origWidth': 410, 'origHeight': 410, 'width': 410, 'height': 410, 'widthPercent': 0.45, 'rescaleHeight': False, 'trialN': 60, 'loaded': True, 'loadedTime': 4225.5, 'positionName': 'RIGHT', 'positionCoords': [798.72, 227], 'bid': 1.71}]",106568.0,1669852561352,bagel plain,mac & cheese,0.8300000000000001,1.71,0.8799999999999999,mac & cheese,901.5,902,902.0,True,i,107987.0,1419.0,1669852562771,1419,HRV,HRV_0320,2022-11-30 23:59:50
61,"[{'imgObject': {}, 'id': 'avocado', 'src': '/static/foodstim60/avocado.jpg', 'key': 'u', 'origWidth': 409, 'origHeight': 409, 'width': 409, 'height': 409, 'widthPercent': 0.45, 'rescaleHeight': False, 'trialN': 61, 'loaded': True, 'loadedTime': 4101.199999999255, 'positionName': 'LEFT', 'positionCoords': [328.28, 227.5], 'bid': 8}, {'imgObject': {}, 'id': 'granola w milk', 'src': '/static/foodstim60/granola w milk.jpg', 'key': 'i', 'origWidth': 410, 'origHeight': 410, 'width': 410, 'height': 410, 'widthPercent': 0.45, 'rescaleHeight': False, 'trialN': 61, 'loaded': True, 'loadedTime': 4454.800000000745, 'positionName': 'RIGHT', 'positionCoords': [798.72, 227], 'bid': 6.87}]",107987.19999999925,1669852562771,avocado,granola w milk,8.0,6.87,-1.13,avocado,769.1999999992549,770,769.6000000014901,True,u,109274.0,1286.800000000745,1669852564058,1287,HRV,HRV_0320,2022-11-30 23:59:50
62,"[{'imgObject': {}, 'id': 'blackbeanswithrice', 'src': '/static/foodstim60/blackbeanswithrice.jpg', 'key': 'u', 'origWidth': 410, 'origHeight': 410, 'width': 410, 'height': 410, 'widthPercent': 0.45, 'rescaleHeight': False, 'trialN': 62, 'loaded': True, 'loadedTime': 4057, 'positionName': 'LEFT', 'positionCoords': [327.28, 227], 'bid': 0.27}, {'imgObject': {}, 'id': 'bagel and cc', 'src': '/static/foodstim60/bagel and cc.jpg', 'key': 'i', 'origWidth': 410, 'origHeight': 410, 'width': 410, 'height': 410, 'widthPercent': 0.45, 'rescaleHeight': False, 'trialN': 62, 'loaded': True, 'loadedTime': 4414.10000000149, 'positionName': 'RIGHT', 'positionCoords': [798.72, 227], 'bid': 2.01}]",109274.30000000075,1669852564058,blackbeanswithrice,bagel and cc,0.27,2.01,1.7399999999999998,bagel and cc,1313.5,1314,1313.800000000745,True,i,111094.19999999925,1819.8999999985099,1669852565878,1820,HRV,HRV_0320,2022-11-30 23:59:50
63,"[{'imgObject': {}, 'id': 'apple slices', 'src': '/static/foodstim60/apple slices.jpg', 'key': 'u', 'origWidth': 409, 'origHeight': 410, 'width': 409, 'height': 410, 'widthPercent': 0.45, 'rescaleHeight': False, 'trialN': 63, 'loaded': True, 'loadedTime': 3857.10000000149, 'positionName': 'LEFT', 'positionCoords': [328.28, 227], 'bid': 2.05}, {'imgObject': {}, 'id': 'orange slices', 'src': '/static/foodstim60/orange slices.jpg', 'key': 'i', 'origWidth': 409, 'origHeight': 410, 'width': 409, 'height': 410, 'widthPercent': 0.45, 'rescaleHeight': False, 'trialN': 63, 'loaded': True, 'loadedTime': 3931.699999999255, 'positionName': 'RIGHT', 'positionCoords': [798.72, 227], 'bid': 2.33}]",111094.39999999851,1669852565878,apple slices,orange slices,2.05,2.33,0.28000000000000025,orange slices,932.2000000029802,933,933.0,True,i,112545.60000000149,1451.2000000029802,1669852567329,1451,HRV,HRV_0320,2022-11-30 23:59:50
64,"[{'imgObject': {}, 'id': 'roastedpotatoes', 'src': '/static/foodstim60/roastedpotatoes.jpg', 'key': 'u', 'origWidth': 409, 'origHeight': 410, 'width': 409, 'height': 410, 'widthPercent': 0.45, 'rescaleHeight': False, 'trialN': 64, 'loaded': True, 'loadedTime': 4428.60000000149, 'positionName': 'LEFT', 'positionCoords': [328.28, 227], 'bid': 1.19}, {'imgObject': {}, 'id': 'blackbeanswithrice', 'src': '/static/foodstim60/blackbeanswithrice.jpg', 'key': 'i', 'origWidth': 410, 'origHeight': 410, 'width': 410, 'height': 410, 'widthPercent': 0.45, 'rescaleHeight': False, 'trialN': 64, 'loaded': True, 'loadedTime': 4045.800000000745, 'positionName': 'RIGHT', 'positionCoords': [798.72, 227], 'bid': 0.27}]",112545.60000000149,1669852567329,roastedpotatoes,blackbeanswithrice,1.19,0.27,-0.9199999999999999,roastedpotatoes,1601.8999999985099,1603,1602.699999999255,True,u,114666.19999999925,2120.599999997765,1669852569450,2121,HRV,HRV_0320,2022-11-30 23:59:50
65,"[{'imgObject': {}, 'id': 'bagel plain', 'src': '/static/foodstim60/bagel plain.jpg', 'key': 'u', 'origWidth': 410, 'origHeight': 410, 'width': 410, 'height': 410, 'widthPercent': 0.45, 'rescaleHeight': False, 'trialN': 65, 'loaded': True, 'loadedTime': 4453.10000000149, 'positionName': 'LEFT', 'positionCoords': [327.28, 227], 'bid': 0.8300000000000001}, {'imgObject': {}, 'id': 'turkey sandwich', 'src': '/static/foodstim60/turkey sandwich.jpg', 'key': 'i', 'origWidth': 409, 'origHeight': 409, 'width': 409, 'height': 409, 'widthPercent': 0.45, 'rescaleHeight': False, 'trialN': 65, 'loaded': True, 'loadedTime': 4361.60000000149, 'positionName': 'RIGHT', 'positionCoords': [798.72, 227.5], 'bid': 2.94}]",114666.30000000075,1669852569450,bagel plain,turkey sandwich,0.8300000000000001,2.94,2.11,turkey sandwich,878.8999999985099,880,879.6999999992549,True,i,116068.19999999925,1401.8999999985099,1669852570852,1402,HRV,HRV_0320,2022-11-30 23:59:50
66,"[{'imgObject': {}, 'id': 'rigatoni', 'src': '/static/foodstim60/rigatoni.jpg', 'key': 'u', 'origWidth': 411, 'origHeight': 411, 'width': 411, 'height': 411, 'widthPercent': 0.45, 'rescaleHeight': False, 'trialN': 66, 'loaded': True, 'loadedTime': 4457.199999999255, 'positionName': 'LEFT', 'positionCoords': [326.28, 226.5], 'bid': 0.58}, {'imgObject': {}, 'id': 'steak', 'src': '/static/foodstim60/steak.jpg', 'key': 'i', 'origWidth': 410, 'origHeight': 410, 'width': 410, 'height': 410, 'widthPercent': 0.45, 'rescaleHeight': False, 'trialN': 66, 'loaded': True, 'loadedTime': 4267, 'positionName': 'RIGHT', 'positionCoords': [798.72, 227], 'bid': 2.05}]",116068.39999999851,1669852570852,rigatoni,steak,0.58,2.05,1.4699999999999998,steak,1577.300000000745,1578,1578.0,True,i,118159.10000000149,2090.7000000029802,1669852572943,2091,HRV,HRV_0320,2022-11-30 23:59:50
67,"[{'imgObject': {}, 'id': 'blackbeanswithrice', 'src': '/static/foodstim60/blackbeanswithrice.jpg', 'key': 'u', 'origWidth': 410, 'origHeight': 410, 'width': 410, 'height': 410, 'widthPercent': 0.45, 'rescaleHeight': False, 'trialN': 67, 'loaded': True, 'loadedTime': 4060.800000000745, 'positionName': 'LEFT', 'positionCoords': [327.28, 227], 'bid': 0.27}, {'imgObject': {}, 'id': 'ice cream sundae 002', 'src': '/static/foodstim60/ice cream sundae 002.jpg', 'key': 'i', 'origWidth': 409, 'origHeight': 409, 'width': 409, 'height': 409, 'widthPercent': 0.45, 'rescaleHeight': False, 'trialN': 67, 'loaded': True, 'loadedTime': 4147.60000000149, 'positionName': 'RIGHT', 'positionCoords': [798.72, 227.5], 'bid': 4.03}]",118159.19999999925,1669852572943,blackbeanswithrice,ice cream sundae 002,0.27,4.03,3.7600000000000002,ice cream sundae 002,1437.800000000745,1439,1438.699999999255,True,i,120102.19999999925,1943.0,1669852574886,1943,HRV,HRV_0320,2022-11-30 23:59:50
68,"[{'imgObject': {}, 'id': 'froot loops w milk', 'src': '/static/foodstim60/froot loops w milk.jpg', 'key': 'u', 'origWidth': 410, 'origHeight': 410, 'width': 410, 'height': 410, 'widthPercent': 0.45, 'rescaleHeight': False, 'trialN': 68, 'loaded': True, 'loadedTime': 4245.699999999255, 'positionName': 'LEFT', 'positionCoords': [327.28, 227], 'bid': 0.26}, {'imgObject': {}, 'id': 'lox', 'src': '/static/foodstim60/lox.jpg', 'key': 'i', 'origWidth': 410, 'origHeight': 411, 'width': 410, 'height': 411, 'widthPercent': 0.45, 'rescaleHeight': False, 'trialN': 68, 'loaded': True, 'loadedTime': 4459.300000000745, 'positionName': 'RIGHT', 'positionCoords': [798.72, 226.5], 'bid': 0.65}]",120102.39999999851,1669852574886,froot loops w milk,lox,0.26,0.65,0.39,froot loops w milk,1286.1000000014901,1287,1286.300000000745,True,u,121905.60000000149,1803.2000000029802,1669852576689,1803,HRV,HRV_0320,2022-11-30 23:59:50
69,"[{'imgObject': {}, 'id': 'rigatoni', 'src': '/static/foodstim60/rigatoni.jpg', 'key': 'u', 'origWidth': 411, 'origHeight': 411, 'width': 411, 'height': 411, 'widthPercent': 0.45, 'rescaleHeight': False, 'trialN': 69, 'loaded': True, 'loadedTime': 4457.60000000149, 'positionName': 'LEFT', 'positionCoords': [326.28, 226.5], 'bid': 0.58}, {'imgObject': {}, 'id': 'sweetpotato', 'src': '/static/foodstim60/sweetpotato.jpg', 'key': 'i', 'origWidth': 410, 'origHeight': 410, 'width': 410, 'height': 410, 'widthPercent': 0.45, 'rescaleHeight': False, 'trialN': 69, 'loaded': True, 'loadedTime': 4074, 'positionName': 'RIGHT', 'positionCoords': [798.72, 227], 'bid': 0.39}]",121906.0,1669852576690,rigatoni,sweetpotato,0.58,0.39,-0.18999999999999995,sweetpotato,1702.800000000745,1703,1703.3999999985099,True,i,124129.10000000149,2223.10000000149,1669852578913,2223,HRV,HRV_0320,2022-11-30 23:59:50
70,"[{'imgObject': {}, 'id': 'salmon', 'src': '/static/foodstim60/salmon.jpg', 'key': 'u', 'origWidth': 410, 'origHeight': 409, 'width': 410, 'height': 409, 'widthPercent': 0.45, 'rescaleHeight': False, 'trialN': 70, 'loaded': True, 'loadedTime': 4326.10000000149, 'positionName': 'LEFT', 'positionCoords': [327.28, 227.5], 'bid': 3.11}, {'imgObject': {}, 'id': 'grilled chicken strips', 'src': '/static/foodstim60/grilled chicken strips.jpg', 'key': 'i', 'origWidth': 410, 'origHeight': 411, 'width': 410, 'height': 411, 'widthPercent': 0.45, 'rescaleHeight': False, 'trialN': 70, 'loaded': True, 'loadedTime': 3918.199999999255, 'positionName': 'RIGHT', 'positionCoords': [798.72, 226.5], 'bid': 1.18}]",124129.30000000075,1669852578913,salmon,grilled chicken strips,3.11,1.18,-1.93,salmon,1836.5999999977648,1837,1837.0999999977648,True,u,126479.89999999851,2350.599999997765,1669852581264,2351,HRV,HRV_0320,2022-11-30 23:59:50
71,"[{'imgObject': {}, 'id': 'lox', 'src': '/static/foodstim60/lox.jpg', 'key': 'u', 'origWidth': 410, 'origHeight': 411, 'width': 410, 'height': 411, 'widthPercent': 0.45, 'rescaleHeight': False, 'trialN': 71, 'loaded': True, 'loadedTime': 4462.60000000149, 'positionName': 'LEFT', 'positionCoords': [327.28, 226.5], 'bid': 0.65}, {'imgObject': {}, 'id': 'eggsalad', 'src': '/static/foodstim60/eggsalad.jpg', 'key': 'i', 'origWidth': 410, 'origHeight': 409, 'width': 410, 'height': 409, 'widthPercent': 0.45, 'rescaleHeight': False, 'trialN': 71, 'loaded': True, 'loadedTime': 4467, 'positionName': 'RIGHT', 'positionCoords': [798.72, 227.5], 'bid': 0.74}]",126480.0,1669852581264,lox,eggsalad,0.65,0.74,0.08999999999999997,eggsalad,1907.5,1908,1907.8999999985099,True,i,128898.89999999851,2418.89999999851,1669852583683,2419,HRV,HRV_0320,2022-11-30 23:59:50
72,"[{'imgObject': {}, 'id': 'mac & cheese', 'src': '/static/foodstim60/mac & cheese.jpg', 'key': 'u', 'origWidth': 410, 'origHeight': 410, 'width': 410, 'height': 410, 'widthPercent': 0.45, 'rescaleHeight': False, 'trialN': 72, 'loaded': True, 'loadedTime': 4222.199999999255, 'positionName': 'LEFT', 'positionCoords': [327.28, 227], 'bid': 1.71}, {'imgObject': {}, 'id': 'granola w milk', 'src': '/static/foodstim60/granola w milk.jpg', 'key': 'i', 'origWidth': 410, 'origHeight': 410, 'width': 410, 'height': 410, 'widthPercent': 0.45, 'rescaleHeight': False, 'trialN': 72, 'loaded': True, 'loadedTime': 4455.10000000149, 'positionName': 'RIGHT', 'positionCoords': [798.72, 227], 'bid': 6.87}]",128899.10000000149,1669852583683,mac & cheese,granola w milk,1.71,6.87,5.16,mac & cheese,717.7999999970198,718,718.1999999992549,True,u,130125.10000000149,1226.0,1669852584909,1226,HRV,HRV_0320,2022-11-30 23:59:50
73,"[{'imgObject': {}, 'id': 'hotdog w must', 'src': '/static/foodstim60/hotdog w must.jpg', 'key': 'u', 'origWidth': 409, 'origHeight': 409, 'width': 409, 'height': 409, 'widthPercent': 0.45, 'rescaleHeight': False, 'trialN': 73, 'loaded': True, 'loadedTime': 4205.60000000149, 'positionName': 'LEFT', 'positionCoords': [328.28, 227.5], 'bid': 0.35}, {'imgObject': {}, 'id': 'eggsalad', 'src': '/static/foodstim60/eggsalad.jpg', 'key': 'i', 'origWidth': 410, 'origHeight': 409, 'width': 410, 'height': 409, 'widthPercent': 0.45, 'rescaleHeight': False, 'trialN': 73, 'loaded': True, 'loadedTime': 4465.39999999851, 'positionName': 'RIGHT', 'positionCoords': [798.72, 227.5], 'bid': 0.74}]",130125.30000000075,1669852584909,hotdog w must,eggsalad,0.35,0.74,0.39,eggsalad,1164,1165,1164.8999999985099,True,i,131806.5,1681.199999999255,1669852586590,1681,HRV,HRV_0320,2022-11-30 23:59:50
74,"[{'imgObject': {}, 'id': 'burger', 'src': '/static/foodstim60/burger.jpg', 'key': 'u', 'origWidth': 409, 'origHeight': 409, 'width': 409, 'height': 409, 'widthPercent': 0.45, 'rescaleHeight': False, 'trialN': 74, 'loaded': True, 'loadedTime': 4258.60000000149, 'positionName': 'LEFT', 'positionCoords': [328.28, 227.5], 'bid': 3.95}, {'imgObject': {}, 'id': 'granola w milk', 'src': '/static/foodstim60/granola w milk.jpg', 'key': 'i', 'origWidth': 410, 'origHeight': 410, 'width': 410, 'height': 410, 'widthPercent': 0.45, 'rescaleHeight': False, 'trialN': 74, 'loaded': True, 'loadedTime': 4454.89999999851, 'positionName': 'RIGHT', 'positionCoords': [798.72, 227], 'bid': 6.87}]",131806.69999999925,1669852586590,burger,granola w milk,3.95,6.87,2.92,granola w milk,2050.5,2052,2051.400000002235,True,i,134367.1000000015,2560.400000002235,1669852589151,2561,HRV,HRV_0320,2022-11-30 23:59:50
75,"[{'imgObject': {}, 'id': 'veggieswithdip', 'src': '/static/foodstim60/veggieswithdip.jpg', 'key': 'u', 'origWidth': 409, 'origHeight': 409, 'width': 409, 'height': 409, 'widthPercent': 0.45, 'rescaleHeight': False, 'trialN': 75, 'loaded': True, 'loadedTime': 3879.60000000149, 'positionName': 'LEFT', 'positionCoords': [328.28, 227.5], 'bid': 7.55}, {'imgObject': {}, 'id': 'cocktailshrimp', 'src': '/static/foodstim60/cocktailshrimp.jpg', 'key': 'i', 'origWidth': 410, 'origHeight': 410, 'width': 410, 'height': 410, 'widthPercent': 0.45, 'rescaleHeight': False, 'trialN': 75, 'loaded': True, 'loadedTime': 4154.60000000149, 'positionName': 'RIGHT', 'positionCoords': [798.72, 227], 'bid': 6.91}]",134367.6000000015,1669852589151,veggieswithdip,cocktailshrimp,7.55,6.91,-0.6399999999999997,cocktailshrimp,1428.199999999255,1429,1429.0,True,i,136303.3999999985,1935.7999999970198,1669852591087,1936,HRV,HRV_0320,2022-11-30 23:59:50
76,"[{'imgObject': {}, 'id': 'edamame', 'src': '/static/foodstim60/edamame.jpg', 'key': 'u', 'origWidth': 409, 'origHeight': 410, 'width': 409, 'height': 410, 'widthPercent': 0.45, 'rescaleHeight': False, 'trialN': 76, 'loaded': True, 'loadedTime': 4421.5, 'positionName': 'LEFT', 'positionCoords': [328.28, 227], 'bid': 3.51}, {'imgObject': {}, 'id': 'apple slices', 'src': '/static/foodstim60/apple slices.jpg', 'key': 'i', 'origWidth': 409, 'origHeight': 410, 'width': 409, 'height': 410, 'widthPercent': 0.45, 'rescaleHeight': False, 'trialN': 76, 'loaded': True, 'loadedTime': 3844.60000000149, 'positionName': 'RIGHT', 'positionCoords': [798.72, 227], 'bid': 2.05}]",136303.69999999925,1669852591087,edamame,apple slices,3.51,2.05,-1.46,apple slices,2475.300000000745,2476,2475.900000002235,True,i,139296.0,2992.300000000745,1669852594080,2993,HRV,HRV_0320,2022-11-30 23:59:50
77,"[{'imgObject': {}, 'id': 'bagel and cc', 'src': '/static/foodstim60/bagel and cc.jpg', 'key': 'u', 'origWidth': 410, 'origHeight': 410, 'width': 410, 'height': 410, 'widthPercent': 0.45, 'rescaleHeight': False, 'trialN': 77, 'loaded': True, 'loadedTime': 4413.699999999255, 'positionName': 'LEFT', 'positionCoords': [327.28, 227], 'bid': 2.01}, {'imgObject': {}, 'id': 'cocktailshrimp', 'src': '/static/foodstim60/cocktailshrimp.jpg', 'key': 'i', 'origWidth': 410, 'origHeight': 410, 'width': 410, 'height': 410, 'widthPercent': 0.45, 'rescaleHeight': False, 'trialN': 77, 'loaded': True, 'loadedTime': 4154.699999999255, 'positionName': 'RIGHT', 'positionCoords': [798.72, 227], 'bid': 6.91}]",139296.19999999925,1669852594080,bagel and cc,cocktailshrimp,2.01,6.91,4.9,cocktailshrimp,1218.300000000745,1219,1219.1000000014901,True,i,141032.30000000075,1736.1000000014901,1669852595816,1736,HRV,HRV_0320,2022-11-30 23:59:50
78,"[{'imgObject': {}, 'id': 'baked potato', 'src': '/static/foodstim60/baked potato.jpg', 'key': 'u', 'origWidth': 409, 'origHeight': 410, 'width': 409, 'height': 410, 'widthPercent': 0.45, 'rescaleHeight': False, 'trialN': 78, 'loaded': True, 'loadedTime': 3740.699999999255, 'positionName': 'LEFT', 'positionCoords': [328.28, 227], 'bid': 5.2700000000000005}, {'imgObject': {}, 'id': 'shreddedwheatwithmilk', 'src': '/static/foodstim60/shreddedwheatwithmilk.jpg', 'key': 'i', 'origWidth': 410, 'origHeight': 410, 'width': 410, 'height': 410, 'widthPercent': 0.45, 'rescaleHeight': False, 'trialN': 78, 'loaded': True, 'loadedTime': 4271.800000000745, 'positionName': 'RIGHT', 'positionCoords': [798.72, 227], 'bid': 5.09}]",141032.6000000015,1669852595816,baked potato,shreddedwheatwithmilk,5.2700000000000005,5.09,-0.1800000000000006,baked potato,825.3999999985099,826,825.8999999985099,True,u,142372.80000000075,1340.199999999255,1669852597157,1341,HRV,HRV_0320,2022-11-30 23:59:50
79,"[{'imgObject': {}, 'id': 'rigatoni and sauce', 'src': '/static/foodstim60/rigatoni and sauce.jpg', 'key': 'u', 'origWidth': 410, 'origHeight': 411, 'width': 410, 'height': 411, 'widthPercent': 0.45, 'rescaleHeight': False, 'trialN': 79, 'loaded': True, 'loadedTime': 4202.699999999255, 'positionName': 'LEFT', 'positionCoords': [327.28, 226.5], 'bid': 6.5600000000000005}, {'imgObject': {}, 'id': 'cherries', 'src': '/static/foodstim60/cherries.jpg', 'key': 'i', 'origWidth': 410, 'origHeight': 411, 'width': 410, 'height': 411, 'widthPercent': 0.45, 'rescaleHeight': False, 'trialN': 79, 'loaded': True, 'loadedTime': 4448, 'positionName': 'RIGHT', 'positionCoords': [798.72, 226.5], 'bid': 8.950000000000001}]",142373.1000000015,1669852597157,rigatoni and sauce,cherries,6.5600000000000005,8.950000000000001,2.3900000000000006,rigatoni and sauce,806.6999999992549,807,807.5,True,u,143690.30000000075,1317.199999999255,1669852598474,1317,HRV,HRV_0320,2022-11-30 23:59:50
80,"[{'imgObject': {}, 'id': 'rigatoni', 'src': '/static/foodstim60/rigatoni.jpg', 'key': 'u', 'origWidth': 411, 'origHeight': 411, 'width': 411, 'height': 411, 'widthPercent': 0.45, 'rescaleHeight': False, 'trialN': 80, 'loaded': True, 'loadedTime': 4457.10000000149, 'positionName': 'LEFT', 'positionCoords': [326.28, 226.5], 'bid': 0.58}, {'imgObject': {}, 'id': 'Tribe humus pita', 'src': '/static/foodstim60/Tribe humus pita.jpg', 'key': 'i', 'origWidth': 411, 'origHeight': 411, 'width': 411, 'height': 411, 'widthPercent': 0.45, 'rescaleHeight': False, 'trialN': 80, 'loaded': True, 'loadedTime': 4314.60000000149, 'positionName': 'RIGHT', 'positionCoords': [798.72, 226.5], 'bid': 1.58}]",143690.5,1669852598474,rigatoni,Tribe humus pita,0.58,1.58,1.0,Tribe humus pita,879.3000000007451,880,880.1999999992549,True,i,145078.19999999925,1387.699999999255,1669852599862,1388,HRV,HRV_0320,2022-11-30 23:59:50
81,"[{'imgObject': {}, 'id': 'popsicles', 'src': '/static/foodstim60/popsicles.jpg', 'key': 'u', 'origWidth': 410, 'origHeight': 410, 'width': 410, 'height': 410, 'widthPercent': 0.45, 'rescaleHeight': False, 'trialN': 81, 'loaded': True, 'loadedTime': 4474, 'positionName': 'LEFT', 'positionCoords': [327.28, 227], 'bid': 5.89}, {'imgObject': {}, 'id': 'blueberries', 'src': '/static/foodstim60/blueberries.jpg', 'key': 'i', 'origWidth': 411, 'origHeight': 411, 'width': 411, 'height': 411, 'widthPercent': 0.45, 'rescaleHeight': False, 'trialN': 81, 'loaded': True, 'loadedTime': 4390.60000000149, 'positionName': 'RIGHT', 'positionCoords': [798.72, 226.5], 'bid': 3.22}]",145078.3999999985,1669852599862,popsicles,blueberries,5.89,3.22,-2.6699999999999995,blueberries,880.8000000007451,881,881.2000000029802,True,i,146467.8999999985,1389.5,1669852601252,1390,HRV,HRV_0320,2022-11-30 23:59:50
82,"[{'imgObject': {}, 'id': 'cherries', 'src': '/static/foodstim60/cherries.jpg', 'key': 'u', 'origWidth': 410, 'origHeight': 411, 'width': 410, 'height': 411, 'widthPercent': 0.45, 'rescaleHeight': False, 'trialN': 82, 'loaded': True, 'loadedTime': 4447.89999999851, 'positionName': 'LEFT', 'positionCoords': [327.28, 226.5], 'bid': 8.950000000000001}, {'imgObject': {}, 'id': 'sushi w_condiments', 'src': '/static/foodstim60/sushi w_condiments.jpg', 'key': 'i', 'origWidth': 410, 'origHeight': 410, 'width': 410, 'height': 410, 'widthPercent': 0.45, 'rescaleHeight': False, 'trialN': 82, 'loaded': True, 'loadedTime': 4340.10000000149, 'positionName': 'RIGHT', 'positionCoords': [798.72, 227], 'bid': 8.34}]",146468.30000000075,1669852601252,cherries,sushi w_condiments,8.950000000000001,8.34,-0.6100000000000012,sushi w_condiments,1124,1125,1124.8999999985099,True,i,148102.69999999925,1634.3999999985099,1669852602886,1634,HRV,HRV_0320,2022-11-30 23:59:50
83,"[{'imgObject': {}, 'id': 'corn cob', 'src': '/static/foodstim60/corn cob.jpg', 'key': 'u', 'origWidth': 411, 'origHeight': 411, 'width': 411, 'height': 411, 'widthPercent': 0.45, 'rescaleHeight': False, 'trialN': 83, 'loaded': True, 'loadedTime': 4134.89999999851, 'positionName': 'LEFT', 'positionCoords': [326.28, 226.5], 'bid': 8.07}, {'imgObject': {}, 'id': 'cocktailshrimp', 'src': '/static/foodstim60/cocktailshrimp.jpg', 'key': 'i', 'origWidth': 410, 'origHeight': 410, 'width': 410, 'height': 410, 'widthPercent': 0.45, 'rescaleHeight': False, 'trialN': 83, 'loaded': True, 'loadedTime': 4160.60000000149, 'positionName': 'RIGHT', 'positionCoords': [798.72, 227], 'bid': 6.91}]",148102.8999999985,1669852602887,corn cob,cocktailshrimp,8.07,6.91,-1.1600000000000001,cocktailshrimp,1803,1804,1803.9000000022352,True,i,150422.8999999985,2320.0,1669852605207,2320,HRV,HRV_0320,2022-11-30 23:59:50
84,"[{'imgObject': {}, 'id': 'orange slices', 'src': '/static/foodstim60/orange slices.jpg', 'key': 'u', 'origWidth': 409, 'origHeight': 410, 'width': 409, 'height': 410, 'widthPercent': 0.45, 'rescaleHeight': False, 'trialN': 84, 'loaded': True, 'loadedTime': 3921, 'positionName': 'LEFT', 'positionCoords': [328.28, 227], 'bid': 2.33}, {'imgObject': {}, 'id': 'Tribe humus pita', 'src': '/static/foodstim60/Tribe humus pita.jpg', 'key': 'i', 'origWidth': 411, 'origHeight': 411, 'width': 411, 'height': 411, 'widthPercent': 0.45, 'rescaleHeight': False, 'trialN': 84, 'loaded': True, 'loadedTime': 4320.60000000149, 'positionName': 'RIGHT', 'positionCoords': [798.72, 226.5], 'bid': 1.58}]",150423.1000000015,1669852605207,orange slices,Tribe humus pita,2.33,1.58,-0.75,Tribe humus pita,1946.3999999985099,1947,1947.0,True,i,152884.3999999985,2461.2999999970198,1669852607668,2461,HRV,HRV_0320,2022-11-30 23:59:50
85,"[{'imgObject': {}, 'id': 'pear', 'src': '/static/foodstim60/pear.jpg', 'key': 'u', 'origWidth': 411, 'origHeight': 410, 'width': 411, 'height': 410, 'widthPercent': 0.45, 'rescaleHeight': False, 'trialN': 85, 'loaded': True, 'loadedTime': 3761.60000000149, 'positionName': 'LEFT', 'positionCoords': [326.28, 227], 'bid': 2.91}, {'imgObject': {}, 'id': 'turkey sandwich', 'src': '/static/foodstim60/turkey sandwich.jpg', 'key': 'i', 'origWidth': 409, 'origHeight': 409, 'width': 409, 'height': 409, 'widthPercent': 0.45, 'rescaleHeight': False, 'trialN': 85, 'loaded': True, 'loadedTime': 4366.300000000745, 'positionName': 'RIGHT', 'positionCoords': [798.72, 227.5], 'bid': 2.94}]",152884.6000000015,1669852607668,pear,turkey sandwich,2.91,2.94,0.029999999999999805,turkey sandwich,906.5999999977648,907,906.8999999985099,True,i,154302.19999999925,1417.5999999977648,1669852609089,1421,HRV,HRV_0320,2022-11-30 23:59:50
86,"[{'imgObject': {}, 'id': 'fried eggs', 'src': '/static/foodstim60/fried eggs.jpg', 'key': 'u', 'origWidth': 410, 'origHeight': 410, 'width': 410, 'height': 410, 'widthPercent': 0.45, 'rescaleHeight': False, 'trialN': 86, 'loaded': True, 'loadedTime': 4012.89999999851, 'positionName': 'LEFT', 'positionCoords': [327.28, 227], 'bid': 3.46}, {'imgObject': {}, 'id': 'salmon', 'src': '/static/foodstim60/salmon.jpg', 'key': 'i', 'origWidth': 410, 'origHeight': 409, 'width': 410, 'height': 409, 'widthPercent': 0.45, 'rescaleHeight': False, 'trialN': 86, 'loaded': True, 'loadedTime': 4324.199999999255, 'positionName': 'RIGHT', 'positionCoords': [798.72, 227.5], 'bid': 3.11}]",154302.6000000015,1669852609089,fried eggs,salmon,3.46,3.11,-0.3500000000000001,fried eggs,795,796,795.3999999985099,True,u,155606.0,1303.3999999985099,1669852610393,1304,HRV,HRV_0320,2022-11-30 23:59:50
87,"[{'imgObject': {}, 'id': 'grilled chicken strips', 'src': '/static/foodstim60/grilled chicken strips.jpg', 'key': 'u', 'origWidth': 410, 'origHeight': 411, 'width': 410, 'height': 411, 'widthPercent': 0.45, 'rescaleHeight': False, 'trialN': 87, 'loaded': True, 'loadedTime': 3905.5, 'positionName': 'LEFT', 'positionCoords': [327.28, 226.5], 'bid': 1.18}, {'imgObject': {}, 'id': 'bagel plain', 'src': '/static/foodstim60/bagel plain.jpg', 'key': 'i', 'origWidth': 410, 'origHeight': 410, 'width': 410, 'height': 410, 'widthPercent': 0.45, 'rescaleHeight': False, 'trialN': 87, 'loaded': True, 'loadedTime': 4452.60000000149, 'positionName': 'RIGHT', 'positionCoords': [798.72, 227], 'bid': 0.8300000000000001}]",155606.30000000075,1669852610393,grilled chicken strips,bagel plain,1.18,0.8300000000000001,-0.34999999999999987,grilled chicken strips,1775,1776,1775.8999999985099,True,u,157896.69999999925,2290.39999999851,1669852612684,2291,HRV,HRV_0320,2022-11-30 23:59:50
88,"[{'imgObject': {}, 'id': 'mashed potato', 'src': '/static/foodstim60/mashed potato.jpg', 'key': 'u', 'origWidth': 409, 'origHeight': 409, 'width': 409, 'height': 409, 'widthPercent': 0.45, 'rescaleHeight': False, 'trialN': 88, 'loaded': True, 'loadedTime': 3882.89999999851, 'positionName': 'LEFT', 'positionCoords': [328.28, 227.5], 'bid': 1.21}, {'imgObject': {}, 'id': 'olives', 'src': '/static/foodstim60/olives.jpg', 'key': 'i', 'origWidth': 410, 'origHeight': 410, 'width': 410, 'height': 410, 'widthPercent': 0.45, 'rescaleHeight': False, 'trialN': 88, 'loaded': True, 'loadedTime': 4383.10000000149, 'positionName': 'RIGHT', 'positionCoords': [798.72, 227], 'bid': 0.02}]",157897.1000000015,1669852612684,mashed potato,olives,1.21,0.02,-1.19,mashed potato,805.8999999985099,806,806.1999999992549,True,u,159215.69999999925,1318.5999999977648,1669852614002,1318,HRV,HRV_0320,2022-11-30 23:59:50
89,"[{'imgObject': {}, 'id': 'eggsalad', 'src': '/static/foodstim60/eggsalad.jpg', 'key': 'u', 'origWidth': 410, 'origHeight': 409, 'width': 410, 'height': 409, 'widthPercent': 0.45, 'rescaleHeight': False, 'trialN': 89, 'loaded': True, 'loadedTime': 4467, 'positionName': 'LEFT', 'positionCoords': [327.28, 227.5], 'bid': 0.74}, {'imgObject': {}, 'id': 'omelette', 'src': '/static/foodstim60/omelette.jpg', 'key': 'i', 'origWidth': 410, 'origHeight': 409, 'width': 410, 'height': 409, 'widthPercent': 0.45, 'rescaleHeight': False, 'trialN': 89, 'loaded': True, 'loadedTime': 4030.199999999255, 'positionName': 'RIGHT', 'positionCoords': [798.72, 227.5], 'bid': 0.72}]",159215.80000000075,1669852614003,eggsalad,omelette,0.74,0.72,-0.020000000000000018,omelette,2664.39999999851,2664,2664.699999999255,True,i,162409.3999999985,3193.599999997765,1669852617196,3193,HRV,HRV_0320,2022-11-30 23:59:50
90,"[{'imgObject': {}, 'id': 'avocado', 'src': '/static/foodstim60/avocado.jpg', 'key': 'u', 'origWidth': 409, 'origHeight': 409, 'width': 409, 'height': 409, 'widthPercent': 0.45, 'rescaleHeight': False, 'trialN': 90, 'loaded': True, 'loadedTime': 4105.10000000149, 'positionName': 'LEFT', 'positionCoords': [328.28, 227.5], 'bid': 8}, {'imgObject': {}, 'id': 'rigatoni and sauce', 'src': '/static/foodstim60/rigatoni and sauce.jpg', 'key': 'i', 'origWidth': 410, 'origHeight': 411, 'width': 410, 'height': 411, 'widthPercent': 0.45, 'rescaleHeight': False, 'trialN': 90, 'loaded': True, 'loadedTime': 4202.5, 'positionName': 'RIGHT', 'positionCoords': [798.72, 226.5], 'bid': 6.5600000000000005}]",179684.69999999925,1669852634471,avocado,rigatoni and sauce,8.0,6.5600000000000005,-1.4399999999999995,avocado,912.9000000022352,914,913.1999999992549,True,u,181102.6000000015,1417.9000000022352,1669852635889,1418,HRV,HRV_0320,2022-11-30 23:59:50
91,"[{'imgObject': {}, 'id': 'tacos', 'src': '/static/foodstim60/tacos.jpg', 'key': 'u', 'origWidth': 411, 'origHeight': 411, 'width': 411, 'height': 411, 'widthPercent': 0.45, 'rescaleHeight': False, 'trialN': 91, 'loaded': True, 'loadedTime': 3946.199999999255, 'positionName': 'LEFT', 'positionCoords': [326.28, 226.5], 'bid': 7.94}, {'imgObject': {}, 'id': 'baked potato', 'src': '/static/foodstim60/baked potato.jpg', 'key': 'i', 'origWidth': 409, 'origHeight': 410, 'width': 409, 'height': 410, 'widthPercent': 0.45, 'rescaleHeight': False, 'trialN': 91, 'loaded': True, 'loadedTime': 3745.199999999255, 'positionName': 'RIGHT', 'positionCoords': [798.72, 227], 'bid': 5.2700000000000005}]",181102.80000000075,1669852635890,tacos,baked potato,7.94,5.2700000000000005,-2.67,tacos,847.8000000007451,848,848.5999999977648,True,u,182458.80000000075,1356.0,1669852637246,1356,HRV,HRV_0320,2022-11-30 23:59:50
92,"[{'imgObject': {}, 'id': 'edamame', 'src': '/static/foodstim60/edamame.jpg', 'key': 'u', 'origWidth': 409, 'origHeight': 410, 'width': 409, 'height': 410, 'widthPercent': 0.45, 'rescaleHeight': False, 'trialN': 92, 'loaded': True, 'loadedTime': 4421.89999999851, 'positionName': 'LEFT', 'positionCoords': [328.28, 227], 'bid': 3.51}, {'imgObject': {}, 'id': 'cherry tomato', 'src': '/static/foodstim60/cherry tomato.jpg', 'key': 'i', 'origWidth': 410, 'origHeight': 410, 'width': 410, 'height': 410, 'widthPercent': 0.45, 'rescaleHeight': False, 'trialN': 92, 'loaded': True, 'loadedTime': 4282.10000000149, 'positionName': 'RIGHT', 'positionCoords': [798.72, 227], 'bid': 6.66}]",182459.30000000075,1669852637246,edamame,cherry tomato,3.51,6.66,3.1500000000000004,cherry tomato,1209.5,1210,1210.0,True,i,184177.0,1717.699999999255,1669852638964,1718,HRV,HRV_0320,2022-11-30 23:59:50
93,"[{'imgObject': {}, 'id': 'burrito', 'src': '/static/foodstim60/burrito.jpg', 'key': 'u', 'origWidth': 410, 'origHeight': 410, 'width': 410, 'height': 410, 'widthPercent': 0.45, 'rescaleHeight': False, 'trialN': 93, 'loaded': True, 'loadedTime': 4401.699999999255, 'positionName': 'LEFT', 'positionCoords': [327.28, 227], 'bid': 4.8100000000000005}, {'imgObject': {}, 'id': 'ice cream sundae 002', 'src': '/static/foodstim60/ice cream sundae 002.jpg', 'key': 'i', 'origWidth': 409, 'origHeight': 409, 'width': 409, 'height': 409, 'widthPercent': 0.45, 'rescaleHeight': False, 'trialN': 93, 'loaded': True, 'loadedTime': 4144.5, 'positionName': 'RIGHT', 'positionCoords': [798.72, 227.5], 'bid': 4.03}]",184177.1000000015,1669852638964,burrito,ice cream sundae 002,4.8100000000000005,4.03,-0.7800000000000002,ice cream sundae 002,1484.5,1485,1484.699999999255,True,i,186165.30000000075,1988.199999999255,1669852640952,1988,HRV,HRV_0320,2022-11-30 23:59:50
94,"[{'imgObject': {}, 'id': 'roastedpotatoes', 'src': '/static/foodstim60/roastedpotatoes.jpg', 'key': 'u', 'origWidth': 409, 'origHeight': 410, 'width': 409, 'height': 410, 'widthPercent': 0.45, 'rescaleHeight': False, 'trialN': 94, 'loaded': True, 'loadedTime': 4428.699999999255, 'positionName': 'LEFT', 'positionCoords': [328.28, 227], 'bid': 1.19}, {'imgObject': {}, 'id': 'rigatoni and sauce', 'src': '/static/foodstim60/rigatoni and sauce.jpg', 'key': 'i', 'origWidth': 410, 'origHeight': 411, 'width': 410, 'height': 411, 'widthPercent': 0.45, 'rescaleHeight': False, 'trialN': 94, 'loaded': True, 'loadedTime': 4199.60000000149, 'positionName': 'RIGHT', 'positionCoords': [798.72, 226.5], 'bid': 6.5600000000000005}]",186165.5,1669852640952,roastedpotatoes,rigatoni and sauce,1.19,6.5600000000000005,5.370000000000001,rigatoni and sauce,1328.800000000745,1330,1329.5,True,i,188003.1000000015,1837.6000000014901,1669852642790,1838,HRV,HRV_0320,2022-11-30 23:59:50
95,"[{'imgObject': {}, 'id': 'popsicles', 'src': '/static/foodstim60/popsicles.jpg', 'key': 'u', 'origWidth': 410, 'origHeight': 410, 'width': 410, 'height': 410, 'widthPercent': 0.45, 'rescaleHeight': False, 'trialN': 95, 'loaded': True, 'loadedTime': 4474.10000000149, 'positionName': 'LEFT', 'positionCoords': [327.28, 227], 'bid': 5.89}, {'imgObject': {}, 'id': 'baked potato', 'src': '/static/foodstim60/baked potato.jpg', 'key': 'i', 'origWidth': 409, 'origHeight': 410, 'width': 409, 'height': 410, 'widthPercent': 0.45, 'rescaleHeight': False, 'trialN': 95, 'loaded': True, 'loadedTime': 3748.199999999255, 'positionName': 'RIGHT', 'positionCoords': [798.72, 227], 'bid': 5.2700000000000005}]",188003.5,1669852642790,popsicles,baked potato,5.89,5.2700000000000005,-0.6199999999999992,baked potato,833.6999999992549,834,834.1000000014901,True,i,189359.5,1356.0,1669852644146,1356,HRV,HRV_0320,2022-11-30 23:59:50
96,"[{'imgObject': {}, 'id': 'yogurt no spoon', 'src': '/static/foodstim60/yogurt no spoon.jpg', 'key': 'u', 'origWidth': 411, 'origHeight': 410, 'width': 411, 'height': 410, 'widthPercent': 0.45, 'rescaleHeight': False, 'trialN': 96, 'loaded': True, 'loadedTime': 4468.60000000149, 'positionName': 'LEFT', 'positionCoords': [326.28, 227], 'bid': 8.28}, {'imgObject': {}, 'id': 'mango', 'src': '/static/foodstim60/mango.jpg', 'key': 'i', 'origWidth': 411, 'origHeight': 411, 'width': 411, 'height': 411, 'widthPercent': 0.45, 'rescaleHeight': False, 'trialN': 96, 'loaded': True, 'loadedTime': 4302.800000000745, 'positionName': 'RIGHT', 'positionCoords': [798.72, 226.5], 'bid': 8.2}]",189359.6000000015,1669852644146,yogurt no spoon,mango,8.28,8.2,-0.08000000000000007,NaN,NaN,NaN,,False,NaN,193382.69999999925,4023.099999997765,1669852648169,4023,HRV,HRV_0320,2022-11-30 23:59:50
97,"[{'imgObject': {}, 'id': 'grilled chicken strips', 'src': '/static/foodstim60/grilled chicken strips.jpg', 'key': 'u', 'origWidth': 410, 'origHeight': 411, 'width': 410, 'height': 411, 'widthPercent': 0.45, 'rescaleHeight': False, 'trialN': 97, 'loaded': True, 'loadedTime': 3909.39999999851, 'positionName': 'LEFT', 'positionCoords': [327.28, 226.5], 'bid': 1.18}, {'imgObject': {}, 'id': 'bagel and cc', 'src': '/static/foodstim60/bagel and cc.jpg', 'key': 'i', 'origWidth': 410, 'origHeight': 410, 'width': 410, 'height': 410, 'widthPercent': 0.45, 'rescaleHeight': False, 'trialN': 97, 'loaded': True, 'loadedTime': 4409.800000000745, 'positionName': 'RIGHT', 'positionCoords': [798.72, 227], 'bid': 2.01}]",193382.8999999985,1669852648170,grilled chicken strips,bagel and cc,1.18,2.01,0.8299999999999998,bagel and cc,302.80000000074506,304,303.9000000022352,True,i,194201.19999999925,818.3000000007451,1669852648988,818,HRV,HRV_0320,2022-11-30 23:59:50
98,"[{'imgObject': {}, 'id': 'froot loops w milk', 'src': '/static/foodstim60/froot loops w milk.jpg', 'key': 'u', 'origWidth': 410, 'origHeight': 410, 'width': 410, 'height': 410, 'widthPercent': 0.45, 'rescaleHeight': False, 'trialN': 98, 'loaded': True, 'loadedTime': 4245.5, 'positionName': 'LEFT', 'positionCoords': [327.28, 227], 'bid': 0.26}, {'imgObject': {}, 'id': 'mac & cheese', 'src': '/static/foodstim60/mac & cheese.jpg', 'key': 'i', 'origWidth': 410, 'origHeight': 410, 'width': 410, 'height': 410, 'widthPercent': 0.45, 'rescaleHeight': False, 'trialN': 98, 'loaded': True, 'loadedTime': 4229.199999999255, 'positionName': 'RIGHT', 'positionCoords': [798.72, 227], 'bid': 1.71}]",194201.30000000075,1669852648988,froot loops w milk,mac & cheese,0.26,1.71,1.45,mac & cheese,3209.099999997765,3210,3209.39999999851,True,i,197928.80000000075,3727.5,1669852652716,3728,HRV,HRV_0320,2022-11-30 23:59:50
99,"[{'imgObject': {}, 'id': 'cheerios', 'src': '/static/foodstim60/cheerios.jpg', 'key': 'u', 'origWidth': 409, 'origHeight': 410, 'width': 409, 'height': 410, 'widthPercent': 0.45, 'rescaleHeight': False, 'trialN': 99, 'loaded': True, 'loadedTime': 4272, 'positionName': 'LEFT', 'positionCoords': [328.28, 227], 'bid': 1.39}, {'imgObject': {}, 'id': 'mac & cheese', 'src': '/static/foodstim60/mac & cheese.jpg', 'key': 'i', 'origWidth': 410, 'origHeight': 410, 'width': 410, 'height': 410, 'widthPercent': 0.45, 'rescaleHeight': False, 'trialN': 99, 'loaded': True, 'loadedTime': 4232.5, 'positionName': 'RIGHT', 'positionCoords': [798.72, 227], 'bid': 1.71}]",197929.19999999925,1669852652716,cheerios,mac & cheese,1.39,1.71,0.32000000000000006,mac & cheese,1731.800000000745,1732,1732.4000000022352,True,i,200185.8999999985,2256.699999999255,1669852654973,2257,HRV,HRV_0320,2022-11-30 23:59:50
100,"[{'imgObject': {}, 'id': 'hashbrowns', 'src': '/static/foodstim60/hashbrowns.jpg', 'key': 'u', 'origWidth': 411, 'origHeight': 410, 'width': 411, 'height': 410, 'widthPercent': 0.45, 'rescaleHeight': False, 'trialN': 100, 'loaded': True, 'loadedTime': 4470.800000000745, 'positionName': 'LEFT', 'positionCoords': [326.28, 227], 'bid': 0.15}, {'imgObject': {}, 'id': 'olives', 'src': '/static/foodstim60/olives.jpg', 'key': 'i', 'origWidth': 410, 'origHeight': 410, 'width': 410, 'height': 410, 'widthPercent': 0.45, 'rescaleHeight': False, 'trialN': 100, 'loaded': True, 'loadedTime': 4377.5, 'positionName': 'RIGHT', 'positionCoords': [798.72, 227], 'bid': 0.02}]",200186.1000000015,1669852654973,hashbrowns,olives,0.15,0.02,-0.13,olives,1043.199999999255,1044,1043.8999999985099,True,i,201736.3999999985,1550.2999999970198,1669852656523,1550,HRV,HRV_0320,2022-11-30 23:59:50
101,"[{'imgObject': {}, 'id': 'bagel plain', 'src': '/static/foodstim60/bagel plain.jpg', 'key': 'u', 'origWidth': 410, 'origHeight': 410, 'width': 410, 'height': 410, 'widthPercent': 0.45, 'rescaleHeight': False, 'trialN': 101, 'loaded': True, 'loadedTime': 4448.60000000149, 'positionName': 'LEFT', 'positionCoords': [327.28, 227], 'bid': 0.8300000000000001}, {'imgObject': {}, 'id': 'hashbrowns', 'src': '/static/foodstim60/hashbrowns.jpg', 'key': 'i', 'origWidth': 411, 'origHeight': 410, 'width': 411, 'height': 410, 'widthPercent': 0.45, 'rescaleHeight': False, 'trialN': 101, 'loaded': True, 'loadedTime': 4471, 'positionName': 'RIGHT', 'positionCoords': [798.72, 227], 'bid': 0.15}]",201736.80000000075,1669852656524,bagel plain,hashbrowns,0.8300000000000001,0.15,-0.68,bagel plain,1031.699999999255,1032,1032.199999999255,True,u,203294.5,1557.699999999255,1669852658081,1557,HRV,HRV_0320,2022-11-30 23:59:50
102,"[{'imgObject': {}, 'id': 'roastedpotatoes', 'src': '/static/foodstim60/roastedpotatoes.jpg', 'key': 'u', 'origWidth': 409, 'origHeight': 410, 'width': 409, 'height': 410, 'widthPercent': 0.45, 'rescaleHeight': False, 'trialN': 102, 'loaded': True, 'loadedTime': 4428.5, 'positionName': 'LEFT', 'positionCoords': [328.28, 227], 'bid': 1.19}, {'imgObject': {}, 'id': 'mashed potato', 'src': '/static/foodstim60/mashed potato.jpg', 'key': 'i', 'origWidth': 409, 'origHeight': 409, 'width': 409, 'height': 409, 'widthPercent': 0.45, 'rescaleHeight': False, 'trialN': 102, 'loaded': True, 'loadedTime': 3887.39999999851, 'positionName': 'RIGHT', 'positionCoords': [798.72, 227.5], 'bid': 1.21}]",203294.69999999925,1669852658081,roastedpotatoes,mashed potato,1.19,1.21,0.020000000000000018,roastedpotatoes,1437.199999999255,1438,1437.6000000014901,True,u,205246.5,1951.800000000745,1669852660033,1952,HRV,HRV_0320,2022-11-30 23:59:50
103,"[{'imgObject': {}, 'id': 'tacos', 'src': '/static/foodstim60/tacos.jpg', 'key': 'u', 'origWidth': 411, 'origHeight': 411, 'width': 411, 'height': 411, 'widthPercent': 0.45, 'rescaleHeight': False, 'trialN': 103, 'loaded': True, 'loadedTime': 3949.199999999255, 'positionName': 'LEFT', 'positionCoords': [326.28, 226.5], 'bid': 7.94}, {'imgObject': {}, 'id': 'salad w chicken', 'src': '/static/foodstim60/salad w chicken.jpg', 'key': 'i', 'origWidth': 411, 'origHeight': 411, 'width': 411, 'height': 411, 'widthPercent': 0.45, 'rescaleHeight': False, 'trialN': 103, 'loaded': True, 'loadedTime': 4076.89999999851, 'positionName': 'RIGHT', 'positionCoords': [798.72, 226.5], 'bid': 7.92}]",205246.6000000015,1669852660033,tacos,salad w chicken,7.94,7.92,-0.020000000000000462,tacos,1374.8999999985099,1376,1375.2999999970198,True,u,207136.8999999985,1890.2999999970198,1669852661924,1891,HRV,HRV_0320,2022-11-30 23:59:50
104,"[{'imgObject': {}, 'id': 'olives', 'src': '/static/foodstim60/olives.jpg', 'key': 'u', 'origWidth': 410, 'origHeight': 410, 'width': 410, 'height': 410, 'widthPercent': 0.45, 'rescaleHeight': False, 'trialN': 104, 'loaded': True, 'loadedTime': 4383, 'positionName': 'LEFT', 'positionCoords': [327.28, 227], 'bid': 0.02}, {'imgObject': {}, 'id': 'seaweed', 'src': '/static/foodstim60/seaweed.jpg', 'key': 'i', 'origWidth': 410, 'origHeight': 410, 'width': 410, 'height': 410, 'widthPercent': 0.45, 'rescaleHeight': False, 'trialN': 104, 'loaded': True, 'loadedTime': 4351.10000000149, 'positionName': 'RIGHT', 'positionCoords': [798.72, 227], 'bid': 0.03}]",207137.19999999925,1669852661924,olives,seaweed,0.02,0.03,0.009999999999999998,olives,1911.800000000745,1913,1912.5,True,u,209559.19999999925,2422.0,1669852664346,2422,HRV,HRV_0320,2022-11-30 23:59:50
105,"[{'imgObject': {}, 'id': 'steak', 'src': '/static/foodstim60/steak.jpg', 'key': 'u', 'origWidth': 410, 'origHeight': 410, 'width': 410, 'height': 410, 'widthPercent': 0.45, 'rescaleHeight': False, 'trialN': 105, 'loaded': True, 'loadedTime': 4261.60000000149, 'positionName': 'LEFT', 'positionCoords': [327.28, 227], 'bid': 2.05}, {'imgObject': {}, 'id': 'kiwi', 'src': '/static/foodstim60/kiwi.jpg', 'key': 'i', 'origWidth': 410, 'origHeight': 410, 'width': 410, 'height': 410, 'widthPercent': 0.45, 'rescaleHeight': False, 'trialN': 105, 'loaded': True, 'loadedTime': 3832.10000000149, 'positionName': 'RIGHT', 'positionCoords': [798.72, 227], 'bid': 3.69}]",209559.3999999985,1669852664346,steak,kiwi,2.05,3.69,1.6400000000000001,kiwi,1838.6000000014901,1839,1839.300000000745,True,i,211918.5,2359.10000000149,1669852666705,2359,HRV,HRV_0320,2022-11-30 23:59:50
106,"[{'imgObject': {}, 'id': 'turkey sandwich', 'src': '/static/foodstim60/turkey sandwich.jpg', 'key': 'u', 'origWidth': 409, 'origHeight': 409, 'width': 409, 'height': 409, 'widthPercent': 0.45, 'rescaleHeight': False, 'trialN': 106, 'loaded': True, 'loadedTime': 4374.800000000745, 'positionName': 'LEFT', 'positionCoords': [328.28, 227.5], 'bid': 2.94}, {'imgObject': {}, 'id': 'chickenfingers', 'src': '/static/foodstim60/chickenfingers.jpg', 'key': 'i', 'origWidth': 410, 'origHeight': 410, 'width': 410, 'height': 410, 'widthPercent': 0.45, 'rescaleHeight': False, 'trialN': 106, 'loaded': True, 'loadedTime': 4406.699999999255, 'positionName': 'RIGHT', 'positionCoords': [798.72, 227], 'bid': 2.66}]",211918.80000000075,1669852666706,turkey sandwich,chickenfingers,2.94,2.66,-0.2799999999999998,turkey sandwich,1157.3999999985099,1157,1157.8999999985099,True,u,213585.1000000015,1666.300000000745,1669852668372,1666,HRV,HRV_0320,2022-11-30 23:59:50
107,"[{'imgObject': {}, 'id': 'luckycharms', 'src': '/static/foodstim60/luckycharms.jpg', 'key': 'u', 'origWidth': 410, 'origHeight': 409, 'width': 410, 'height': 409, 'widthPercent': 0.45, 'rescaleHeight': False, 'trialN': 107, 'loaded': True, 'loadedTime': 3722.199999999255, 'positionName': 'LEFT', 'positionCoords': [327.28, 227.5], 'bid': 0.62}, {'imgObject': {}, 'id': 'orange slices', 'src': '/static/foodstim60/orange slices.jpg', 'key': 'i', 'origWidth': 409, 'origHeight': 410, 'width': 409, 'height': 410, 'widthPercent': 0.45, 'rescaleHeight': False, 'trialN': 107, 'loaded': True, 'loadedTime': 3925.10000000149, 'positionName': 'RIGHT', 'positionCoords': [798.72, 227], 'bid': 2.33}]",213585.19999999925,1669852668372,luckycharms,orange slices,0.62,2.33,1.71,orange slices,703.4000000022352,704,703.6000000014901,True,i,214804.3999999985,1219.199999999255,1669852669591,1219,HRV,HRV_0320,2022-11-30 23:59:50
