success,trial_type,trial_index,time_elapsed,internal_node_id,Block,TrialNumber,TrialTime,trialTimeDiff,FPS_avg,FPS_med,FPS_mode,TrialDur,winResizeTime,rt,block,button_pressed,MotCoh,MotDir,ColCoh,Color,ChoiceKey,Choice,Accuracy,RT,nFrames,FPS,PPD,missTrial,missTrialMsg,onsetDelay,fullScreenExitTime,canvCenter,TrialType,Score,BlockTrial,stimulus,button_labels,exp,subjectId,date
True,fullscreen,0,2539,0.0-0.0,0.0,1.0,,,,,,,,,,,,,,,,,,,,,,,,,,,,,,,,HRV,HRV_0320,2022-12-01 00:27:53
,wl-check-fps,1,7543,0.0-1.0,0.0,2.0,"[3275.7, 3277.3, 3290.9, 3308.4, 3325.5, 3340.4, 3356.7, 3374.2, 3391.5, 3408.4, 3424.9, 3441.4, 3456.9, 3474, 3490.1, 3506.8, 3524.5, 3540, 3558.1, 3573.4, 3590.2, 3607.6, 3625.4, 3641.6, 3656.8, 3674, 3690.2, 3708.3, 3725.2, 3741, 3758, 3775.2, 3790.4, 3806.5, 3824.4, 3840.4, 3857.7, 3875.6, 3890.5, 3907.5, 3924, 3941.7, 3958.4, 3974.1, 3990.4, 4007.9, 4023.5, 4040, 4056.9, 4074.3, 4091.4, 4108.4, 4123.5, 4141.7, 4156.8, 4173.5, 4190, 4207.1, 4225.3, 4241.2, 4258.3, 4273.7, 4291.3, 4308.5, 4323.6, 4340.8, 4358.4, 4373.6, 4390.8, 4409.2, 4423.7, 4440.9, 4457.1, 4474.4, 4490.4, 4508.2, 4523.7, 4540.4, 4558.6, 4574.9, 4590.4, 4608.9, 4623.9, 4640.4, 4658.4, 4674.4, 4692.8, 4708.6, 4724.9, 4741.5, 4758.5, 4773.9, 4791.3, 4807.1, 4823.8, 4840.7, 4858.4, 4874.2, 4890.3, 4907.5, 4924.7, 4941.9, 4957.7, 4975.6, 4990.4, 5008.4, 5024.3, 5041.8, 5058.8, 5073.8, 5092, 5108, 5124.3, 5140.5, 5158, 5173.9, 5191.7, 5209, 5223.9, 5241.8, 5258.8, 5273.9, 5290.7, 5309.3, 5325.1, 5341, 5357.3, 5375, 5391.7, 5407.3, 5424.2, 5440.9, 5457.5, 5474.5, 5492.3, 5507.3, 5524.4, 5542.5, 5557.5, 5574.2, 5592.6, 5607.5, 5624.5, 5641.1, 5657.4, 5673.9, 5691.6, 5709.3, 5724.4, 5741.3, 5759.4, 5774.2, 5791.4, 5807.4, 5825.7, 5842.1, 5858.8, 5873.8, 5892, 5908.7, 5925.3, 5940.7, 5958.8, 5974.7, 5991.3, 6007.5, 6024.6, 6041.8, 6057.9, 6075, 6091.1, 6109, 6125.9, 6141.9, 6157.5, 6174.3, 6192.5, 6209.6, 6224.2, 6241.2, 6259, 6275.5, 6290.9, 6308.3, 6324.9, 6342.2, 6357.5, 6374.4, 6392.1, 6408, 6424.8, 6442.6, 6457.8, 6476.1, 6491.4, 6508.2, 6524.3, 6542.5, 6557.5, 6574.2, 6592.4, 6609.3, 6625.4, 6642.4, 6659.5, 6674.4, 6691, 6709, 6726.1, 6741.2, 6758.9, 6775.3, 6790.9, 6808.3, 6824.3, 6841, 6858.8, 6874.3, 6891.8, 6908.9, 6924.9, 6942.1, 6959.1, 6975, 6992, 7007.6, 7024.9, 7041.8, 7057.6, 7074.3, 7092.4, 7108.4, 7126.4, 7141.6, 7157.7, 7175.4, 7191.3, 7209.3, 7225, 7242.6, 7258.5, 7275.6, 7291, 7307.9, 7325.5, 7343.3, 7359.4, 7375.9, 7392.9, 7408.1, 7424.4, 7441.7, 7459.3, 7476, 7491.9, 7508.4, 7524.4, 7541.1, 7559.9, 7575.4, 7592.4, 7609.2, 7624.3, 7641.1, 7658.6, 7676, 7691.4, 7709.1, 7725.6, 7742.5, 7757.9, 7774.7, 7791.5, 7809.7, 7825.9, 7841.3, 7857.9, 7876, 7891.2, 7909.3, 7925.6, 7941.2, 7959.3, 7974.6, 7991.5, 8009.4, 8024.9, 8042.8, 8059.3, 8074.6, 8091.5, 8108.1, 8125.7, 8142.7, 8157.8, 8174.7, 8191.3, 8209.4, 8225.4, 8241.3]","[14.2, 1.6, 13.6, 17.5, 17.1, 14.9, 16.3, 17.5, 17.3, 16.9, 16.5, 16.5, 15.5, 17.1, 16.1, 16.7, 17.7, 15.5, 18.1, 15.3, 16.8, 17.4, 17.8, 16.2, 15.2, 17.2, 16.2, 18.1, 16.9, 15.8, 17, 17.2, 15.2, 16.1, 17.9, 16, 17.3, 17.9, 14.9, 17, 16.5, 17.7, 16.7, 15.7, 16.3, 17.5, 15.6, 16.5, 16.9, 17.4, 17.1, 17, 15.1, 18.2, 15.1, 16.7, 16.5, 17.1, 18.2, 15.9, 17.1, 15.4, 17.6, 17.2, 15.1, 17.2, 17.6, 15.2, 17.2, 18.4, 14.5, 17.2, 16.2, 17.3, 16, 17.8, 15.5, 16.7, 18.2, 16.3, 15.5, 18.5, 15, 16.5, 18, 16, 18.4, 15.8, 16.3, 16.6, 17, 15.4, 17.4, 15.8, 16.7, 16.9, 17.7, 15.8, 16.1, 17.2, 17.2, 17.2, 15.8, 17.9, 14.8, 18, 15.9, 17.5, 17, 15, 18.2, 16, 16.3, 16.2, 17.5, 15.9, 17.8, 17.3, 14.9, 17.9, 17, 15.1, 16.8, 18.6, 15.8, 15.9, 16.3, 17.7, 16.7, 15.6, 16.9, 16.7, 16.6, 17, 17.8, 15, 17.1, 18.1, 15, 16.7, 18.4, 14.9, 17, 16.6, 16.3, 16.5, 17.7, 17.7, 15.1, 16.9, 18.1, 14.8, 17.2, 16, 18.3, 16.4, 16.7, 15, 18.2, 16.7, 16.6, 15.4, 18.1, 15.9, 16.6, 16.2, 17.1, 17.2, 16.1, 17.1, 16.1, 17.9, 16.9, 16, 15.6, 16.8, 18.2, 17.1, 14.6, 17, 17.8, 16.5, 15.4, 17.4, 16.6, 17.3, 15.3, 16.9, 17.7, 15.9, 16.8, 17.8, 15.2, 18.3, 15.3, 16.8, 16.1, 18.2, 15, 16.7, 18.2, 16.9, 16.1, 17, 17.1, 14.9, 16.6, 18, 17.1, 15.1, 17.7, 16.4, 15.6, 17.4, 16, 16.7, 17.8, 15.5, 17.5, 17.1, 16, 17.2, 17, 15.9, 17, 15.6, 17.3, 16.9, 15.8, 16.7, 18.1, 16, 18, 15.2, 16.1, 17.7, 15.9, 18, 15.7, 17.6, 15.9, 17.1, 15.4, 16.9, 17.6, 17.8, 16.1, 16.5, 17, 15.2, 16.3, 17.3, 17.6, 16.7, 15.9, 16.5, 16, 16.7, 18.8, 15.5, 17, 16.8, 15.1, 16.8, 17.5, 17.4, 15.4, 17.7, 16.5, 16.9, 15.4, 16.8, 16.8, 18.2, 16.2, 15.4, 16.6, 18.1, 15.2, 18.1, 16.3, 15.6, 18.1, 15.3, 16.9, 17.9, 15.5, 17.9, 16.5, 15.3, 16.9, 16.6, 17.6, 17, 15.1, 16.9, 16.6, 18.1, 16, 15.9]",60.0,57.0,59.0,4998.4,[],,,,,,,,,,,,,,,,,,,,,,,,,HRV,HRV_0320,2022-12-01 00:27:53
,wl-html-keyboard-response,2,41077,0.0-2.0-0.0,0.0,3.0,,,,,,,,31521.89999999851,0.0,0,,,,,,,,,,,,,,,,,,,,,,HRV,HRV_0320,2022-12-01 00:27:53
,wl-rdm,3,48117,0.0-3.0-0.0,0.0,4.0,,,,,,,[],,,,0.0,0.0,87.9,0.0,u,0.0,True,1479.9999999962747,89.0,59.0,40.0,False,,3000.0,[],"[768, 432]",ColorTask_Demo,,,,,HRV,HRV_0320,2022-12-01 00:27:53
,wl-rdm,4,53087,0.0-3.0-1.0,0.0,5.0,,,,,,,[],,,,0.0,0.0,87.9,1.0,i,1.0,True,873.5,53.0,59.0,40.0,False,,2000.0,[],"[768, 432]",ColorTask_Demo,,,,,HRV,HRV_0320,2022-12-01 00:27:53
,wl-html-keyboard-response,5,59909,0.0-3.0-2.0,0.0,6.0,,,,,,,,4816.0,0.0,1,,,,,,,,,,,,,,,,,,,,,,HRV,HRV_0320,2022-12-01 00:27:53
,wl-html-keyboard-response,6,71044,0.0-4.0-0.0,0.0,7.0,,,,,,,,9132.800000000745,0.0,0,,,,,,,,,,,,,,,,,,,,,,HRV,HRV_0320,2022-12-01 00:27:53
,wl-html-keyboard-response,7,85011,0.0-5.0-0.0,0.0,8.0,,,,,,,,11957.900000002235,0.0,0,,,,,,,,,,,,,,,,,,,,,,HRV,HRV_0320,2022-12-01 00:27:53
,wl-rdm,8,88012,0.0-6.0-0.0,0.0,9.0,,,,,,,[],,,,,,73.6,0.0,u,0.0,True,1638.0,99.0,59.0,40.0,False,,298.5401933783854,[],"[768, 432]",ColorTask,1.0,1.0,,,HRV,HRV_0320,2022-12-01 00:27:53
,wl-rdm,9,91698,0.0-6.1-0.1,0.0,10.0,,,,,,,[],,,,,,62.5,0.0,i,1.0,False,2328.300000000745,140.0,59.0,40.0,False,,296.27312347158545,[],"[768, 432]",ColorTask,0.0,2.0,,,HRV,HRV_0320,2022-12-01 00:27:53
,wl-rdm,10,94646,0.0-6.2-0.2,0.0,11.0,,,,,,,[],,,,,,56.4,0.0,i,1.0,False,1477.5,88.0,59.0,40.0,False,,397.31456710743953,[],"[768, 432]",ColorTask,-1.0,3.0,,,HRV,HRV_0320,2022-12-01 00:27:53
,wl-rdm,11,97063,0.0-6.3-0.3,0.0,12.0,,,,,,,[],,,,,,62.5,0.0,i,1.0,False,1146.199999999255,69.0,59.0,40.0,False,,205.0743220161681,[],"[768, 432]",ColorTask,-2.0,4.0,,,HRV,HRV_0320,2022-12-01 00:27:53
,wl-rdm,12,99515,0.0-6.4-0.4,0.0,13.0,,,,,,,[],,,,,,62.5,1.0,u,0.0,False,1082.0,65.0,59.0,40.0,False,,311.97928409240654,[],"[768, 432]",ColorTask,-3.0,5.0,,,HRV,HRV_0320,2022-12-01 00:27:53
,wl-rdm,13,102649,0.0-6.5-0.5,0.0,14.0,,,,,,,[],,,,,,73.6,0.0,u,0.0,True,1788.5,108.0,59.0,40.0,False,,250.50569996479587,[],"[768, 432]",ColorTask,-2.0,6.0,,,HRV,HRV_0320,2022-12-01 00:27:53
,wl-rdm,14,105065,0.0-6.6-0.6,0.0,15.0,,,,,,,[],,,,,,50.0,1.0,i,1.0,True,1091.699999999255,66.0,59.0,40.0,False,,253.92956851375604,[],"[768, 432]",ColorTask,-1.0,7.0,,,HRV,HRV_0320,2022-12-01 00:27:53
,wl-rdm,15,108350,0.0-6.7-0.7,0.0,16.0,,,,,,,[],,,,,,62.5,0.0,i,1.0,False,1926.5,116.0,59.0,40.0,False,,289.08312901655876,[],"[768, 432]",ColorTask,-2.0,8.0,,,HRV,HRV_0320,2022-12-01 00:27:53
,wl-rdm,16,111418,0.0-6.8-0.8,0.0,17.0,,,,,,,[],,,,,,53.2,0.0,i,1.0,False,1656.0999999977648,100.0,59.0,40.0,False,,333.6424380443862,[],"[768, 432]",ColorTask,-3.0,9.0,,,HRV,HRV_0320,2022-12-01 00:27:53
,wl-rdm,17,114452,0.0-6.9-0.9,0.0,18.0,,,,,,,[],,,,,,53.2,0.0,i,1.0,False,1755.300000000745,106.0,59.0,40.0,False,,211.21815020109773,[],"[768, 432]",ColorTask,-4.0,10.0,,,HRV,HRV_0320,2022-12-01 00:27:53
,wl-rdm,18,117320,0.0-6.10-0.10,0.0,19.0,,,,,,,[],,,,,,56.4,0.0,u,0.0,True,1422.5000000037253,86.0,59.0,40.0,False,,386.24218546049286,[],"[768, 432]",ColorTask,-3.0,11.0,,,HRV,HRV_0320,2022-12-01 00:27:53
,wl-rdm,19,119787,0.0-6.11-0.11,0.0,20.0,,,,,,,[],,,,,,73.6,0.0,u,0.0,True,1078.0000000037253,65.0,59.0,40.0,False,,308.6688287180901,[],"[768, 432]",ColorTask,-2.0,12.0,,,HRV,HRV_0320,2022-12-01 00:27:53
,wl-rdm,20,122053,0.0-6.12-0.12,0.0,21.0,,,,,,,[],,,,,,62.5,1.0,i,1.0,True,912.6999999992549,55.0,59.0,40.0,False,,270.48086041754055,[],"[768, 432]",ColorTask,-1.0,13.0,,,HRV,HRV_0320,2022-12-01 00:27:53
,wl-rdm,21,124288,0.0-6.13-0.13,0.0,22.0,,,,,,,[],,,,,,73.6,1.0,i,1.0,True,828.6000000014901,50.0,59.0,40.0,False,,320.4022026415779,[],"[768, 432]",ColorTask,0.0,14.0,,,HRV,HRV_0320,2022-12-01 00:27:53
,wl-rdm,22,126971,0.0-6.14-0.14,0.0,23.0,,,,,,,[],,,,,,50.0,1.0,u,0.0,False,1398.5999999977648,84.0,59.0,40.0,False,,200.42207578364193,[],"[768, 432]",ColorTask,-1.0,15.0,,,HRV,HRV_0320,2022-12-01 00:27:53
,wl-rdm,23,129305,0.0-6.15-0.15,0.0,24.0,,,,,,,[],,,,,,50.0,1.0,i,1.0,True,957.1999999992549,58.0,59.0,40.0,False,,313.02470719015474,[],"[768, 432]",ColorTask,0.0,16.0,,,HRV,HRV_0320,2022-12-01 00:27:53
,wl-rdm,24,132124,0.0-6.16-0.16,0.0,25.0,,,,,,,[],,,,,,53.2,1.0,i,1.0,True,1463.5,88.0,59.0,40.0,False,,277.0784708630606,[],"[768, 432]",ColorTask,1.0,17.0,,,HRV,HRV_0320,2022-12-01 00:27:53
,wl-rdm,25,135290,0.0-6.17-0.17,0.0,26.0,,,,,,,[],,,,,,50.0,0.0,u,0.0,True,1715.3999999985099,103.0,59.0,40.0,False,,371.6883253621301,[],"[768, 432]",ColorTask,2.0,18.0,,,HRV,HRV_0320,2022-12-01 00:27:53
,wl-rdm,26,138625,0.0-6.18-0.18,0.0,27.0,,,,,,,[],,,,,,62.5,0.0,u,0.0,True,1944.7000000029802,117.0,59.0,40.0,False,,312.24927058309777,[],"[768, 432]",ColorTask,3.0,19.0,,,HRV,HRV_0320,2022-12-01 00:27:53
,wl-rdm,27,141559,0.0-6.19-0.19,0.0,28.0,,,,,,,[],,,,,,56.4,1.0,u,0.0,False,1621.8999999985099,98.0,59.0,40.0,False,,244.79413369747567,[],"[768, 432]",ColorTask,2.0,20.0,,,HRV,HRV_0320,2022-12-01 00:27:53
,wl-rdm,28,143825,0.0-6.20-0.20,0.0,29.0,,,,,,,[],,,,,,87.9,1.0,i,1.0,True,922.3000000007451,56.0,59.0,40.0,False,,276.17795704355166,[],"[768, 432]",ColorTask,3.0,21.0,,,HRV,HRV_0320,2022-12-01 00:27:53
,wl-rdm,29,147361,0.0-6.21-0.21,0.0,30.0,,,,,,,[],,,,,,56.4,0.0,i,1.0,False,2124.199999999255,128.0,59.0,40.0,False,,346.9096381211396,[],"[768, 432]",ColorTask,2.0,22.0,,,HRV,HRV_0320,2022-12-01 00:27:53
,wl-rdm,30,150178,0.0-6.22-0.22,0.0,31.0,,,,,,,[],,,,,,50.0,0.0,u,0.0,True,1459.3999999985099,88.0,59.0,40.0,False,,276.86297495390005,[],"[768, 432]",ColorTask,3.0,23.0,,,HRV,HRV_0320,2022-12-01 00:27:53
,wl-rdm,31,153212,0.0-6.23-0.23,0.0,32.0,,,,,,,[],,,,,,56.4,0.0,u,0.0,True,1709.800000000745,103.0,59.0,40.0,False,,255.20470262106136,[],"[768, 432]",ColorTask,4.0,24.0,,,HRV,HRV_0320,2022-12-01 00:27:53
,wl-rdm,32,155880,0.0-6.24-0.24,0.0,33.0,,,,,,,[],,,,,,53.2,0.0,i,1.0,False,1341.800000000745,81.0,59.0,40.0,False,,268.49746223182433,[],"[768, 432]",ColorTask,3.0,25.0,,,HRV,HRV_0320,2022-12-01 00:27:53
,wl-rdm,33,158764,0.0-6.25-0.25,0.0,34.0,,,,,,,[],,,,,,50.0,1.0,i,1.0,True,1513.1000000014901,91.0,59.0,40.0,False,,316.2071562099888,[],"[768, 432]",ColorTask,4.0,26.0,,,HRV,HRV_0320,2022-12-01 00:27:53
,wl-rdm,34,160914,0.0-6.26-0.26,0.0,35.0,,,,,,,[],,,,,,73.6,1.0,i,1.0,True,845.5000000037253,51.0,59.0,40.0,False,,239.29904993732032,[],"[768, 432]",ColorTask,5.0,27.0,,,HRV,HRV_0320,2022-12-01 00:27:53
,wl-rdm,35,164353,0.0-6.27-0.27,0.0,36.0,,,,,,,[],,,,,,53.2,1.0,i,1.0,True,2025.800000000745,122.0,59.0,40.0,False,,333.77606821891914,[],"[768, 432]",ColorTask,6.0,28.0,,,HRV,HRV_0320,2022-12-01 00:27:53
,wl-rdm,36,166766,0.0-6.28-0.28,0.0,37.0,,,,,,,[],,,,,,87.9,1.0,i,1.0,True,1088.7999999970198,66.0,59.0,40.0,False,,251.1091551690133,[],"[768, 432]",ColorTask,7.0,29.0,,,HRV,HRV_0320,2022-12-01 00:27:53
,wl-rdm,37,169300,0.0-6.29-0.29,0.0,38.0,,,,,,,[],,,,,,73.6,0.0,u,0.0,True,1125.800000000745,68.0,59.0,40.0,False,,341.6067036454781,[],"[768, 432]",ColorTask,8.0,30.0,,,HRV,HRV_0320,2022-12-01 00:27:53
,wl-rdm,38,172402,0.0-6.30-0.30,0.0,39.0,,,,,,,[],,,,,,56.4,1.0,i,1.0,True,1766.0999999977648,106.0,59.0,40.0,False,,274.68570452727744,[],"[768, 432]",ColorTask,9.0,31.0,,,HRV,HRV_0320,2022-12-01 00:27:53
,wl-rdm,39,175836,0.0-6.31-0.31,0.0,40.0,,,,,,,[],,,,,,62.5,1.0,i,1.0,True,2112.5,127.0,59.0,40.0,False,,240.31558672289398,[],"[768, 432]",ColorTask,10.0,32.0,,,HRV,HRV_0320,2022-12-01 00:27:53
,wl-rdm,40,178153,0.0-6.32-0.32,0.0,41.0,,,,,,,[],,,,,,87.9,0.0,u,0.0,True,1048.699999999255,62.0,59.0,40.0,False,,219.95600301247427,[],"[768, 432]",ColorTask,11.0,33.0,,,HRV,HRV_0320,2022-12-01 00:27:53
,wl-rdm,41,181937,0.0-6.33-0.33,0.0,42.0,,,,,,,[],,,,,,56.4,0.0,u,0.0,True,2489.300000000745,150.0,59.0,40.0,False,,225.44012232968686,[],"[768, 432]",ColorTask,12.0,34.0,,,HRV,HRV_0320,2022-12-01 00:27:53
,wl-rdm,42,185639,0.0-6.34-0.34,0.0,43.0,,,,,,,[],,,,,,73.6,1.0,i,1.0,True,2259.0,136.0,59.0,40.0,False,,351.5579250456949,[],"[768, 432]",ColorTask,13.0,35.0,,,HRV,HRV_0320,2022-12-01 00:27:53
,wl-rdm,43,189389,0.0-6.35-0.35,0.0,44.0,,,,,,,[],,,,,,62.5,0.0,u,0.0,True,2397.7000000029802,144.0,59.0,40.0,False,,269.5607986986113,[],"[768, 432]",ColorTask,14.0,36.0,,,HRV,HRV_0320,2022-12-01 00:27:53
,wl-rdm,44,192406,0.0-6.36-0.36,0.0,45.0,,,,,,,[],,,,,,62.5,0.0,u,0.0,True,1672.699999999255,101.0,59.0,40.0,False,,246.22521404079006,[],"[768, 432]",ColorTask,15.0,37.0,,,HRV,HRV_0320,2022-12-01 00:27:53
,wl-rdm,45,195658,0.0-6.37-0.37,0.0,46.0,,,,,,,[],,,,,,73.6,1.0,i,1.0,True,1915.4000000022352,115.0,59.0,40.0,False,,276.45142408009576,[],"[768, 432]",ColorTask,16.0,38.0,,,HRV,HRV_0320,2022-12-01 00:27:53
,wl-rdm,46,199041,0.0-6.38-0.38,0.0,47.0,,,,,,,[],,,,,,73.6,0.0,u,0.0,True,2106.10000000149,127.0,59.0,40.0,False,,212.5543484058719,[],"[768, 432]",ColorTask,17.0,39.0,,,HRV,HRV_0320,2022-12-01 00:27:53
,wl-rdm,47,202375,0.0-6.39-0.39,0.0,48.0,,,,,,,[],,,,,,62.5,1.0,i,1.0,True,1978.5,119.0,59.0,40.0,False,,283.00288820101514,[],"[768, 432]",ColorTask,18.0,40.0,,,HRV,HRV_0320,2022-12-01 00:27:53
,wl-rdm,48,206726,0.0-6.40-0.40,0.0,48.0,,,,,,,[],,,,,,62.5,1.0,i,,,3100.4999999962747,176.0,59.0,40.0,True,RT_timeout ,262.09637017885564,[],"[768, 432]",ColorTask,17.0,41.0,,,HRV,HRV_0320,2022-12-01 00:27:53
,wl-rdm,49,209493,0.0-6.41-0.41,0.0,49.0,,,,,,,[],,,,,,50.0,1.0,u,0.0,False,1465.5999999977648,88.0,59.0,40.0,False,,241.3836639464239,[],"[768, 432]",ColorTask,16.0,42.0,,,HRV,HRV_0320,2022-12-01 00:27:53
,wl-rdm,50,212295,0.0-6.42-0.42,0.0,50.0,,,,,,,[],,,,,,73.6,1.0,i,1.0,True,1471.1000000014901,89.0,59.0,40.0,False,,265.8026043696863,[],"[768, 432]",ColorTask,17.0,43.0,,,HRV,HRV_0320,2022-12-01 00:27:53
,wl-rdm,51,214878,0.0-6.43-0.43,0.0,51.0,,,,,,,[],,,,,,87.9,1.0,i,1.0,True,1113.0999999977648,67.0,59.0,40.0,False,,389.97321103201,[],"[768, 432]",ColorTask,18.0,44.0,,,HRV,HRV_0320,2022-12-01 00:27:53
,wl-rdm,52,217179,0.0-6.44-0.44,0.0,52.0,,,,,,,[],,,,,,87.9,0.0,u,0.0,True,958.1999999992549,58.0,59.0,40.0,False,,271.97457145044945,[],"[768, 432]",ColorTask,19.0,45.0,,,HRV,HRV_0320,2022-12-01 00:27:53
,wl-rdm,53,220213,0.0-6.45-0.45,0.0,53.0,,,,,,,[],,,,,,50.0,0.0,u,0.0,True,1739.699999999255,105.0,59.0,40.0,False,,218.5039616506436,[],"[768, 432]",ColorTask,20.0,46.0,,,HRV,HRV_0320,2022-12-01 00:27:53
,wl-rdm,54,223647,0.0-6.46-0.46,0.0,54.0,,,,,,,[],,,,,,53.2,1.0,i,1.0,True,2040.0,123.0,59.0,40.0,False,,332.5985045234774,[],"[768, 432]",ColorTask,21.0,47.0,,,HRV,HRV_0320,2022-12-01 00:27:53
,wl-rdm,55,227215,0.0-6.47-0.47,0.0,55.0,,,,,,,[],,,,,,50.0,1.0,i,1.0,True,2288.0,138.0,59.0,40.0,False,,211.71614489925685,[],"[768, 432]",ColorTask,22.0,48.0,,,HRV,HRV_0320,2022-12-01 00:27:53
,wl-rdm,56,230482,0.0-6.48-0.48,0.0,56.0,,,,,,,[],,,,,,53.2,0.0,i,1.0,False,1897.800000000745,114.0,59.0,40.0,False,,307.51915825067675,[],"[768, 432]",ColorTask,21.0,49.0,,,HRV,HRV_0320,2022-12-01 00:27:53
,wl-rdm,57,232833,0.0-6.49-0.49,0.0,57.0,,,,,,,[],,,,,,87.9,1.0,i,1.0,True,1056.800000000745,64.0,59.0,40.0,False,,223.23789310604585,[],"[768, 432]",ColorTask,22.0,50.0,,,HRV,HRV_0320,2022-12-01 00:27:53
,wl-rdm,58,235267,0.0-6.50-0.50,0.0,58.0,,,,,,,[],,,,,,87.9,0.0,u,0.0,True,1150.1000000014901,69.0,59.0,40.0,False,,220.63834383841368,[],"[768, 432]",ColorTask,23.0,51.0,,,HRV,HRV_0320,2022-12-01 00:27:53
,wl-rdm,59,238635,0.0-6.51-0.51,0.0,59.0,,,,,,,[],,,,,,53.2,1.0,u,0.0,False,2014.9000000022352,121.0,59.0,40.0,False,,298.38627603194817,[],"[768, 432]",ColorTask,22.0,52.0,,,HRV,HRV_0320,2022-12-01 00:27:53
,wl-rdm,60,241236,0.0-6.52-0.52,0.0,60.0,,,,,,,[],,,,,,56.4,1.0,i,1.0,True,1255.2999999970198,76.0,59.0,40.0,False,,282.0833790564089,[],"[768, 432]",ColorTask,23.0,53.0,,,HRV,HRV_0320,2022-12-01 00:27:53
,wl-rdm,61,244622,0.0-6.53-0.53,0.0,61.0,,,,,,,[],,,,,,50.0,0.0,u,0.0,True,2016.300000000745,121.0,59.0,40.0,False,,287.95988361214927,[],"[768, 432]",ColorTask,24.0,54.0,,,HRV,HRV_0320,2022-12-01 00:27:53
,wl-rdm,62,247170,0.0-6.54-0.54,0.0,62.0,,,,,,,[],,,,,,87.9,0.0,u,0.0,True,1156.300000000745,70.0,59.0,40.0,False,,310.48107442895184,[],"[768, 432]",ColorTask,25.0,55.0,,,HRV,HRV_0320,2022-12-01 00:27:53
,wl-rdm,63,250156,0.0-6.55-0.55,0.0,62.0,,,,,,,[],,,,,,53.2,0.0,u,0.0,True,1655.199999999255,100.0,59.0,40.0,True,blurEvent ,263.14411397116953,[],"[768, 432]",ColorTask,26.0,56.0,,,HRV,HRV_0320,2022-12-01 00:27:53
,wl-rdm,64,256423,0.0-6.56-0.56,0.0,62.0,,,,,,,[],,,,,,62.5,1.0,,,,,106.0,59.0,40.0,True,RT_timeout ,332.18024902106936,[],"[768, 432]",ColorTask,25.0,57.0,,,HRV,HRV_0320,2022-12-01 00:27:53
,wl-rdm,65,259223,0.0-6.57-0.57,0.0,63.0,,,,,,,[],,,,,,50.0,1.0,u,0.0,False,1511.0,91.0,59.0,40.0,False,,200.47959078919064,[],"[768, 432]",ColorTask,24.0,58.0,,,HRV,HRV_0320,2022-12-01 00:27:53
,wl-rdm,66,262441,0.0-6.58-0.58,0.0,64.0,,,,,,,[],,,,,,56.4,0.0,u,0.0,True,1857.199999999255,112.0,59.0,40.0,False,,278.0252331866948,[],"[768, 432]",ColorTask,25.0,59.0,,,HRV,HRV_0320,2022-12-01 00:27:53
,wl-rdm,67,266243,0.0-6.59-0.59,0.0,65.0,,,,,,,[],,,,,,73.6,0.0,u,0.0,True,2342.7999999970198,141.0,59.0,40.0,False,,369.7801695877738,[],"[768, 432]",ColorTask,26.0,60.0,,,HRV,HRV_0320,2022-12-01 00:27:53
,wl-rdm,68,269744,0.0-6.60-0.60,0.0,66.0,,,,,,,[],,,,,,53.2,1.0,u,0.0,False,2245.2999999970198,135.0,59.0,40.0,False,,211.052304718864,[],"[768, 432]",ColorTask,25.0,61.0,,,HRV,HRV_0320,2022-12-01 00:27:53
,wl-rdm,69,272095,0.0-6.61-0.61,0.0,67.0,,,,,,,[],,,,,,62.5,1.0,i,1.0,True,990.8999999985099,60.0,59.0,40.0,False,,284.44388636470813,[],"[768, 432]",ColorTask,26.0,62.0,,,HRV,HRV_0320,2022-12-01 00:27:53
,wl-rdm,70,274896,0.0-6.62-0.62,0.0,68.0,,,,,,,[],,,,,,50.0,1.0,u,0.0,False,1398.800000000745,84.0,59.0,40.0,False,,348.5647666664398,[],"[768, 432]",ColorTask,25.0,63.0,,,HRV,HRV_0320,2022-12-01 00:27:53
,wl-rdm,71,278029,0.0-6.63-0.63,0.0,69.0,,,,,,,[],,,,,,53.2,1.0,i,1.0,True,1699.0,102.0,59.0,40.0,False,,357.8650247081662,[],"[768, 432]",ColorTask,26.0,64.0,,,HRV,HRV_0320,2022-12-01 00:27:53
,wl-rdm,72,282013,0.0-6.64-0.64,0.0,70.0,,,,,,,[],,,,,,53.2,1.0,u,0.0,False,2604.60000000149,157.0,59.0,40.0,False,,319.9092607775199,[],"[768, 432]",ColorTask,25.0,65.0,,,HRV,HRV_0320,2022-12-01 00:27:53
,wl-rdm,73,286232,0.0-6.65-0.65,0.0,71.0,,,,,,,[],,,,,,50.0,0.0,i,1.0,False,2888.699999999255,174.0,59.0,40.0,False,,249.36344403286273,[],"[768, 432]",ColorTask,24.0,66.0,,,HRV,HRV_0320,2022-12-01 00:27:53
,wl-rdm,74,288933,0.0-6.66-0.66,0.0,72.0,,,,,,,[],,,,,,73.6,0.0,u,0.0,True,1278.1000000014901,77.0,59.0,40.0,False,,335.58596039755776,[],"[768, 432]",ColorTask,25.0,67.0,,,HRV,HRV_0320,2022-12-01 00:27:53
,wl-rdm,75,291200,0.0-6.67-0.67,0.0,73.0,,,,,,,[],,,,,,73.6,0.0,u,0.0,True,947.7999999970198,57.0,59.0,40.0,False,,233.94250301978087,[],"[768, 432]",ColorTask,26.0,68.0,,,HRV,HRV_0320,2022-12-01 00:27:53
,wl-rdm,76,294269,0.0-6.68-0.68,0.0,74.0,,,,,,,[],,,,,,87.9,0.0,u,0.0,True,1726.8999999985099,104.0,59.0,40.0,False,,281.17900763239334,[],"[768, 432]",ColorTask,27.0,69.0,,,HRV,HRV_0320,2022-12-01 00:27:53
,wl-rdm,77,297218,0.0-6.69-0.69,0.0,75.0,,,,,,,[],,,,,,56.4,1.0,i,1.0,True,1639.6000000014901,99.0,59.0,40.0,False,,237.54877922488737,[],"[768, 432]",ColorTask,28.0,70.0,,,HRV,HRV_0320,2022-12-01 00:27:53
,wl-rdm,78,300635,0.0-6.70-0.70,0.0,76.0,,,,,,,[],,,,,,56.4,1.0,i,1.0,True,2011.800000000745,121.0,59.0,40.0,False,,327.1047215795293,[],"[768, 432]",ColorTask,29.0,71.0,,,HRV,HRV_0320,2022-12-01 00:27:53
,wl-rdm,79,303853,0.0-6.71-0.71,0.0,77.0,,,,,,,[],,,,,,62.5,1.0,i,1.0,True,1894.5,114.0,59.0,40.0,False,,239.83065240485973,[],"[768, 432]",ColorTask,30.0,72.0,,,HRV,HRV_0320,2022-12-01 00:27:53
,wl-rdm,80,307137,0.0-6.72-0.72,0.0,78.0,,,,,,,[],,,,,,50.0,1.0,u,0.0,False,1881.3000000044703,113.0,59.0,40.0,False,,338.47438632930516,[],"[768, 432]",ColorTask,29.0,73.0,,,HRV,HRV_0320,2022-12-01 00:27:53
,wl-rdm,81,310820,0.0-6.73-0.73,0.0,79.0,,,,,,,[],,,,,,62.5,0.0,u,0.0,True,2218.900000002235,133.0,59.0,40.0,False,,395.0909577681455,[],"[768, 432]",ColorTask,30.0,74.0,,,HRV,HRV_0320,2022-12-01 00:27:53
,wl-rdm,82,313055,0.0-6.74-0.74,0.0,80.0,,,,,,,[],,,,,,87.9,1.0,i,1.0,True,889.4000000022352,54.0,59.0,40.0,False,,265.28979547190363,[],"[768, 432]",ColorTask,31.0,75.0,,,HRV,HRV_0320,2022-12-01 00:27:53
,wl-rdm,83,315423,0.0-6.75-0.75,0.0,81.0,,,,,,,[],,,,,,87.9,0.0,u,0.0,True,964.0,58.0,59.0,40.0,False,,349.79586141147263,[],"[768, 432]",ColorTask,32.0,76.0,,,HRV,HRV_0320,2022-12-01 00:27:53
,wl-rdm,84,318306,0.0-6.76-0.76,0.0,82.0,,,,,,,[],,,,,,73.6,1.0,i,1.0,True,1464.0,88.0,59.0,40.0,False,,354.23998202295354,[],"[768, 432]",ColorTask,33.0,77.0,,,HRV,HRV_0320,2022-12-01 00:27:53
,wl-rdm,85,321260,0.0-6.77-0.77,0.0,83.0,,,,,,,[],,,,,,50.0,0.0,i,1.0,False,1631.8999999985099,98.0,59.0,40.0,False,,250.36846196238713,[],"[768, 432]",ColorTask,32.0,78.0,,,HRV,HRV_0320,2022-12-01 00:27:53
,wl-rdm,86,323709,0.0-6.78-0.78,0.0,84.0,,,,,,,[],,,,,,62.5,1.0,i,1.0,True,1128.800000000745,68.0,59.0,40.0,False,,240.10946088026822,[],"[768, 432]",ColorTask,33.0,79.0,,,HRV,HRV_0320,2022-12-01 00:27:53
,wl-rdm,87,327208,0.0-6.79-0.79,0.0,85.0,,,,,,,[],,,,,,56.4,1.0,i,1.0,True,2175.7999999970198,130.0,59.0,40.0,False,,244.66577415536602,[],"[768, 432]",ColorTask,34.0,80.0,,,HRV,HRV_0320,2022-12-01 00:27:53
,wl-rdm,88,331059,0.0-6.80-0.80,0.0,86.0,,,,,,,[],,,,,,50.0,0.0,u,0.0,True,2532.199999999255,152.0,59.0,40.0,False,,259.8377435609462,[],"[768, 432]",ColorTask,35.0,81.0,,,HRV,HRV_0320,2022-12-01 00:27:53
,wl-rdm,89,334895,0.0-6.81-0.81,0.0,87.0,,,,,,,[],,,,,,53.2,0.0,i,1.0,False,2411.0000000037253,145.0,59.0,40.0,False,,347.2365617437083,[],"[768, 432]",ColorTask,34.0,82.0,,,HRV,HRV_0320,2022-12-01 00:27:53
,wl-rdm,90,338462,0.0-6.82-0.82,0.0,88.0,,,,,,,[],,,,,,53.2,0.0,u,0.0,True,2191.5,132.0,59.0,40.0,False,,298.38598507148106,[],"[768, 432]",ColorTask,35.0,83.0,,,HRV,HRV_0320,2022-12-01 00:27:53
,wl-rdm,91,342212,0.0-6.83-0.83,0.0,89.0,,,,,,,[],,,,,,56.4,0.0,u,0.0,True,2359.300000000745,142.0,59.0,40.0,False,,322.4034757222537,[],"[768, 432]",ColorTask,36.0,84.0,,,HRV,HRV_0320,2022-12-01 00:27:53
,wl-rdm,92,344679,0.0-6.84-0.84,0.0,90.0,,,,,,,[],,,,,,87.9,0.0,u,0.0,True,1179.6000000052154,71.0,59.0,40.0,False,,206.3728584585962,[],"[768, 432]",ColorTask,37.0,85.0,,,HRV,HRV_0320,2022-12-01 00:27:53
,wl-rdm,93,347697,0.0-6.85-0.85,0.0,91.0,,,,,,,[],,,,,,53.2,0.0,i,1.0,False,1717.2000000029802,103.0,59.0,40.0,False,,248.66637655353026,[],"[768, 432]",ColorTask,36.0,86.0,,,HRV,HRV_0320,2022-12-01 00:27:53
,wl-rdm,94,350598,0.0-6.86-0.86,0.0,92.0,,,,,,,[],,,,,,62.5,1.0,i,1.0,True,1614.4999999962747,97.0,59.0,40.0,False,,210.6666545990954,[],"[768, 432]",ColorTask,37.0,87.0,,,HRV,HRV_0320,2022-12-01 00:27:53
,wl-rdm,95,354149,0.0-6.87-0.87,0.0,93.0,,,,,,,[],,,,,,56.4,1.0,i,1.0,True,2198.199999999255,132.0,59.0,40.0,False,,269.74574714896846,[],"[768, 432]",ColorTask,38.0,88.0,,,HRV,HRV_0320,2022-12-01 00:27:53
,wl-rdm,96,356400,0.0-6.88-0.88,0.0,94.0,,,,,,,[],,,,,,87.9,1.0,i,1.0,True,933.9000000022352,56.0,59.0,40.0,False,,235.48655209741145,[],"[768, 432]",ColorTask,39.0,89.0,,,HRV,HRV_0320,2022-12-01 00:27:53
,wl-rdm,97,359867,0.0-6.89-0.89,0.0,95.0,,,,,,,[],,,,,,62.5,1.0,i,1.0,True,2169.39999999851,130.0,59.0,40.0,False,,228.33139040334328,[],"[768, 432]",ColorTask,40.0,90.0,,,HRV,HRV_0320,2022-12-01 00:27:53
,wl-rdm,98,362907,0.0-6.90-0.90,0.0,96.0,,,,,,,[],,,,,,73.6,0.0,u,0.0,True,1741.2000000029802,104.0,59.0,40.0,False,,211.54482823677364,[],"[768, 432]",ColorTask,41.0,91.0,,,HRV,HRV_0320,2022-12-01 00:27:53
,wl-rdm,99,367202,0.0-6.91-0.91,0.0,97.0,,,,,,,[],,,,,,56.4,0.0,u,0.0,True,2929.800000000745,176.0,59.0,40.0,False,,315.75767501190273,[],"[768, 432]",ColorTask,42.0,92.0,,,HRV,HRV_0320,2022-12-01 00:27:53
,wl-rdm,100,370787,0.0-6.92-0.92,0.0,98.0,,,,,,,[],,,,,,50.0,0.0,u,0.0,True,2106.800000000745,127.0,59.0,40.0,False,,392.26037607667354,[],"[768, 432]",ColorTask,43.0,93.0,,,HRV,HRV_0320,2022-12-01 00:27:53
,wl-rdm,101,373304,0.0-6.93-0.93,0.0,99.0,,,,,,,[],,,,,,73.6,1.0,i,1.0,True,1087.6000000014901,66.0,59.0,40.0,False,,368.67615524034943,[],"[768, 432]",ColorTask,44.0,94.0,,,HRV,HRV_0320,2022-12-01 00:27:53
,wl-rdm,102,376121,0.0-6.94-0.94,0.0,100.0,,,,,,,[],,,,,,53.2,1.0,i,1.0,True,1399.3999999985099,84.0,59.0,40.0,False,,348.75830867190587,[],"[768, 432]",ColorTask,45.0,95.0,,,HRV,HRV_0320,2022-12-01 00:27:53
,wl-rdm,103,379773,0.0-6.95-0.95,0.0,101.0,,,,,,,[],,,,,,53.2,0.0,u,0.0,True,2190.7999999970198,132.0,59.0,40.0,False,,399.7539417052204,[],"[768, 432]",ColorTask,46.0,96.0,,,HRV,HRV_0320,2022-12-01 00:27:53
,wl-rdm,104,382123,0.0-6.96-0.96,0.0,102.0,,,,,,,[],,,,,,62.5,0.0,u,0.0,True,971.5,58.0,59.0,40.0,False,,291.4866172809448,[],"[768, 432]",ColorTask,47.0,97.0,,,HRV,HRV_0320,2022-12-01 00:27:53
,wl-rdm,105,384492,0.0-6.97-0.97,0.0,103.0,,,,,,,[],,,,,,87.9,1.0,i,1.0,True,1047.6000000014901,63.0,59.0,40.0,False,,243.71596298474935,[],"[768, 432]",ColorTask,48.0,98.0,,,HRV,HRV_0320,2022-12-01 00:27:53
,wl-rdm,106,387359,0.0-6.98-0.98,0.0,104.0,,,,,,,[],,,,,,56.4,1.0,u,0.0,False,1522.1000000014901,92.0,59.0,40.0,False,,261.5831696492488,[],"[768, 432]",ColorTask,47.0,99.0,,,HRV,HRV_0320,2022-12-01 00:27:53
,wl-rdm,107,389675,0.0-6.99-0.99,0.0,105.0,,,,,,,[],,,,,,87.9,0.0,u,0.0,True,846.8000000007451,51.0,59.0,40.0,False,,384.59872591860125,[],"[768, 432]",ColorTask,48.0,100.0,,,HRV,HRV_0320,2022-12-01 00:27:53
,wl-rdm,108,392758,0.0-6.100-0.100,0.0,106.0,,,,,,,[],,,,,,56.4,1.0,i,1.0,True,1739.6000000014901,105.0,59.0,40.0,False,,262.3580539016733,[],"[768, 432]",ColorTask,49.0,101.0,,,HRV,HRV_0320,2022-12-01 00:27:53
,wl-rdm,109,395293,0.0-6.101-0.101,0.0,107.0,,,,,,,[],,,,,,56.4,0.0,u,0.0,True,1194.5999999977648,72.0,59.0,40.0,False,,274.90050348329703,[],"[768, 432]",ColorTask,50.0,102.0,,,HRV,HRV_0320,2022-12-01 00:27:53
,wl-rdm,110,397744,0.0-6.102-0.102,0.0,108.0,,,,,,,[],,,,,,87.9,0.0,u,0.0,True,1022.0,62.0,59.0,40.0,False,,353.12155966570197,[],"[768, 432]",ColorTask,51.0,103.0,,,HRV,HRV_0320,2022-12-01 00:27:53
,wl-rdm,111,400245,0.0-6.103-0.103,0.0,109.0,,,,,,,[],,,,,,53.2,1.0,u,0.0,False,1206.5,73.0,59.0,40.0,False,,204.56761165159867,[],"[768, 432]",ColorTask,50.0,104.0,,,HRV,HRV_0320,2022-12-01 00:27:53
,wl-rdm,112,402629,0.0-6.104-0.104,0.0,110.0,,,,,,,[],,,,,,73.6,1.0,i,1.0,True,1074.300000000745,65.0,59.0,40.0,False,,235.12646625557403,[],"[768, 432]",ColorTask,51.0,105.0,,,HRV,HRV_0320,2022-12-01 00:27:53
,wl-rdm,113,404714,0.0-6.105-0.105,0.0,111.0,,,,,,,[],,,,,,87.9,1.0,i,1.0,True,643.0999999977648,39.0,59.0,40.0,False,,373.574331588134,[],"[768, 432]",ColorTask,52.0,106.0,,,HRV,HRV_0320,2022-12-01 00:27:53
,wl-rdm,114,408535,0.0-6.106-0.106,0.0,112.0,,,,,,,[],,,,,,73.6,1.0,i,1.0,True,2377.599999997765,143.0,59.0,40.0,False,,373.0400912272522,[],"[768, 432]",ColorTask,53.0,107.0,,,HRV,HRV_0320,2022-12-01 00:27:53
,wl-rdm,115,411064,0.0-6.107-0.107,0.0,113.0,,,,,,,[],,,,,,50.0,0.0,i,1.0,False,1229.4999999962747,74.0,59.0,40.0,False,,231.14886187439208,[],"[768, 432]",ColorTask,52.0,108.0,,,HRV,HRV_0320,2022-12-01 00:27:53
,wl-rdm,116,414033,0.0-6.108-0.108,0.0,114.0,,,,,,,[],,,,,,62.5,0.0,u,0.0,True,1597.2999999970198,96.0,59.0,40.0,False,,316.10962801592,[],"[768, 432]",ColorTask,53.0,109.0,,,HRV,HRV_0320,2022-12-01 00:27:53
,wl-rdm,117,416233,0.0-6.109-0.109,0.0,115.0,,,,,,,[],,,,,,87.9,1.0,i,1.0,True,865.8999999985099,51.0,59.0,40.0,False,,263.7339173833717,[],"[768, 432]",ColorTask,54.0,110.0,,,HRV,HRV_0320,2022-12-01 00:27:53
,wl-html-keyboard-response,118,427574,0.0-7.0-0.0,1.0,116.0,,,,,,,,9324.20000000298,1.0,0,,,,,,,,,,,,,,,,,,,,,,HRV,HRV_0320,2022-12-01 00:27:53
,wl-rdm,119,429885,0.0-8.0-0.0,1.0,117.0,,,,,,,[],,,,,,73.6,0.0,u,0.0,True,956.3999999985099,58.0,59.0,40.0,False,,272.090155394505,[],"[768, 432]",ColorTask,55.0,1.0,,,HRV,HRV_0320,2022-12-01 00:27:53
,wl-rdm,120,432054,0.0-8.1-0.1,1.0,118.0,,,,,,,[],,,,,,56.4,0.0,u,0.0,True,892.4000000022352,54.0,59.0,40.0,False,,200.17654520820693,[],"[768, 432]",ColorTask,56.0,2.0,,,HRV,HRV_0320,2022-12-01 00:27:53
,wl-rdm,121,434763,0.0-8.2-0.2,1.0,119.0,,,,,,,[],,,,,,53.2,1.0,i,1.0,True,1399.3999999985099,84.0,59.0,40.0,False,,220.6195404142954,[],"[768, 432]",ColorTask,57.0,3.0,,,HRV,HRV_0320,2022-12-01 00:27:53
,wl-rdm,122,437304,0.0-8.3-0.3,1.0,120.0,,,,,,,[],,,,,,73.6,1.0,i,1.0,True,1104.9000000022352,67.0,59.0,40.0,False,,371.6711831120182,[],"[768, 432]",ColorTask,58.0,4.0,,,HRV,HRV_0320,2022-12-01 00:27:53
,wl-rdm,123,439671,0.0-8.4-0.4,1.0,121.0,,,,,,,[],,,,,,87.9,0.0,u,0.0,True,1084.5,65.0,59.0,40.0,False,,205.17298114382632,[],"[768, 432]",ColorTask,59.0,5.0,,,HRV,HRV_0320,2022-12-01 00:27:53
,wl-rdm,124,441738,0.0-8.5-0.5,1.0,122.0,,,,,,,[],,,,,,87.9,1.0,i,1.0,True,748.0999999977648,45.0,59.0,40.0,False,,239.34239101720917,[],"[768, 432]",ColorTask,60.0,6.0,,,HRV,HRV_0320,2022-12-01 00:27:53
,wl-rdm,125,444356,0.0-8.6-0.6,1.0,123.0,,,,,,,[],,,,,,56.4,0.0,i,1.0,False,1310.2000000029802,79.0,59.0,40.0,False,,244.17103039002077,[],"[768, 432]",ColorTask,59.0,7.0,,,HRV,HRV_0320,2022-12-01 00:27:53
,wl-rdm,126,446423,0.0-8.7-0.7,1.0,124.0,,,,,,,[],,,,,,87.9,1.0,i,1.0,True,726.0,44.0,59.0,40.0,False,,269.54104422512506,[],"[768, 432]",ColorTask,60.0,8.0,,,HRV,HRV_0320,2022-12-01 00:27:53
,wl-rdm,127,448825,0.0-8.8-0.8,1.0,125.0,,,,,,,[],,,,,,62.5,1.0,i,1.0,True,944.1000000014901,57.0,59.0,40.0,False,,371.5676702469009,[],"[768, 432]",ColorTask,61.0,9.0,,,HRV,HRV_0320,2022-12-01 00:27:53
,wl-rdm,128,451592,0.0-8.9-0.9,1.0,126.0,,,,,,,[],,,,,,53.2,0.0,u,0.0,True,1333.699999999255,80.0,59.0,40.0,False,,365.64396122052773,[],"[768, 432]",ColorTask,62.0,10.0,,,HRV,HRV_0320,2022-12-01 00:27:53
,wl-rdm,129,453725,0.0-8.10-0.10,1.0,127.0,,,,,,,[],,,,,,73.6,0.0,u,0.0,True,813.9000000022352,49.0,59.0,40.0,False,,253.17580159645755,[],"[768, 432]",ColorTask,63.0,11.0,,,HRV,HRV_0320,2022-12-01 00:27:53
,wl-rdm,130,456543,0.0-8.11-0.11,1.0,128.0,,,,,,,[],,,,,,73.6,1.0,i,1.0,True,1410.0999999977648,85.0,59.0,40.0,False,,334.91399959779056,[],"[768, 432]",ColorTask,64.0,12.0,,,HRV,HRV_0320,2022-12-01 00:27:53
,wl-rdm,131,458710,0.0-8.12-0.12,1.0,129.0,,,,,,,[],,,,,,87.9,1.0,i,1.0,True,825.3000000007451,50.0,59.0,40.0,False,,250.73082539143581,[],"[768, 432]",ColorTask,65.0,13.0,,,HRV,HRV_0320,2022-12-01 00:27:53
,wl-rdm,132,461777,0.0-8.13-0.13,1.0,130.0,,,,,,,[],,,,,,53.2,1.0,i,1.0,True,1657.4000000022352,100.0,59.0,40.0,False,,336.07338806073625,[],"[768, 432]",ColorTask,66.0,14.0,,,HRV,HRV_0320,2022-12-01 00:27:53
,wl-rdm,133,465477,0.0-8.14-0.14,1.0,131.0,,,,,,,[],,,,,,62.5,0.0,u,0.0,True,2294.199999999255,138.0,59.0,40.0,False,,342.9654198992731,[],"[768, 432]",ColorTask,67.0,15.0,,,HRV,HRV_0320,2022-12-01 00:27:53
,wl-rdm,134,467663,0.0-8.15-0.15,1.0,132.0,,,,,,,[],,,,,,87.9,1.0,i,1.0,True,797.4000000022352,48.0,59.0,40.0,False,,299.7958507437721,[],"[768, 432]",ColorTask,68.0,16.0,,,HRV,HRV_0320,2022-12-01 00:27:53
,wl-rdm,135,469880,0.0-8.16-0.16,1.0,133.0,,,,,,,[],,,,,,87.9,0.0,u,0.0,True,943.4000000022352,56.0,59.0,40.0,False,,213.38042004391127,[],"[768, 432]",ColorTask,69.0,17.0,,,HRV,HRV_0320,2022-12-01 00:27:53
,wl-rdm,136,472679,0.0-8.17-0.17,1.0,134.0,,,,,,,[],,,,,,53.2,1.0,u,0.0,False,1442.5,87.0,59.0,40.0,False,,289.9171582415728,[],"[768, 432]",ColorTask,68.0,18.0,,,HRV,HRV_0320,2022-12-01 00:27:53
,wl-rdm,137,475316,0.0-8.18-0.18,1.0,135.0,,,,,,,[],,,,,,50.0,0.0,u,0.0,True,1264.800000000745,76.0,59.0,40.0,False,,307.4038304217561,[],"[768, 432]",ColorTask,69.0,19.0,,,HRV,HRV_0320,2022-12-01 00:27:53
,wl-rdm,138,477864,0.0-8.19-0.19,1.0,136.0,,,,,,,[],,,,,,73.6,0.0,u,0.0,True,1231.199999999255,74.0,59.0,40.0,False,,235.4794064255924,[],"[768, 432]",ColorTask,70.0,20.0,,,HRV,HRV_0320,2022-12-01 00:27:53
,wl-rdm,139,480831,0.0-8.20-0.20,1.0,137.0,,,,,,,[],,,,,,50.0,1.0,u,0.0,False,1571.8000000044703,95.0,59.0,40.0,False,,328.1617730489997,[],"[768, 432]",ColorTask,69.0,21.0,,,HRV,HRV_0320,2022-12-01 00:27:53
,wl-rdm,140,483048,0.0-8.21-0.21,1.0,138.0,,,,,,,[],,,,,,73.6,0.0,u,0.0,True,928.0,56.0,59.0,40.0,False,,228.24076493026013,[],"[768, 432]",ColorTask,70.0,22.0,,,HRV,HRV_0320,2022-12-01 00:27:53
,wl-rdm,141,486016,0.0-8.22-0.22,1.0,139.0,,,,,,,[],,,,,,50.0,1.0,u,0.0,False,1673.5999999977648,101.0,59.0,40.0,False,,215.6133445888682,[],"[768, 432]",ColorTask,69.0,23.0,,,HRV,HRV_0320,2022-12-01 00:27:53
,wl-rdm,142,488718,0.0-8.23-0.23,1.0,140.0,,,,,,,[],,,,,,53.2,1.0,i,1.0,True,1364.0,82.0,59.0,40.0,False,,265.441705637227,[],"[768, 432]",ColorTask,70.0,24.0,,,HRV,HRV_0320,2022-12-01 00:27:53
,wl-rdm,143,491402,0.0-8.24-0.24,1.0,141.0,,,,,,,[],,,,,,50.0,1.0,i,1.0,True,1343.0,81.0,59.0,40.0,False,,254.77228797177955,[],"[768, 432]",ColorTask,71.0,25.0,,,HRV,HRV_0320,2022-12-01 00:27:53
,wl-rdm,144,493756,0.0-8.25-0.25,1.0,142.0,,,,,,,[],,,,,,56.4,1.0,i,1.0,True,1017.0,61.0,59.0,40.0,False,,254.95420596367023,[],"[768, 432]",ColorTask,72.0,26.0,,,HRV,HRV_0320,2022-12-01 00:27:53
,wl-rdm,145,496836,0.0-8.26-0.26,1.0,143.0,,,,,,,[],,,,,,62.5,1.0,i,1.0,True,1780.3999999985099,107.0,59.0,40.0,False,,218.21568669473373,[],"[768, 432]",ColorTask,73.0,27.0,,,HRV,HRV_0320,2022-12-01 00:27:53
,wl-rdm,146,499319,0.0-8.27-0.27,1.0,144.0,,,,,,,[],,,,,,73.6,0.0,u,0.0,True,1085.300000000745,65.0,59.0,40.0,False,,333.3970542717491,[],"[768, 432]",ColorTask,74.0,28.0,,,HRV,HRV_0320,2022-12-01 00:27:53
,wl-rdm,147,501622,0.0-8.28-0.28,1.0,145.0,,,,,,,[],,,,,,62.5,0.0,u,0.0,True,1017.0,60.0,59.0,40.0,False,,211.04295379194048,[],"[768, 432]",ColorTask,75.0,29.0,,,HRV,HRV_0320,2022-12-01 00:27:53
,wl-rdm,148,503757,0.0-8.29-0.29,1.0,146.0,,,,,,,[],,,,,,50.0,1.0,i,1.0,True,788.1999999992549,48.0,59.0,40.0,False,,278.1143623579027,[],"[768, 432]",ColorTask,76.0,30.0,,,HRV,HRV_0320,2022-12-01 00:27:53
,wl-rdm,149,506271,0.0-8.30-0.30,1.0,147.0,,,,,,,[],,,,,,62.5,1.0,i,1.0,True,1076.300000000745,65.0,59.0,40.0,False,,375.49556584868606,[],"[768, 432]",ColorTask,77.0,31.0,,,HRV,HRV_0320,2022-12-01 00:27:53
,wl-rdm,150,508673,0.0-8.31-0.31,1.0,148.0,,,,,,,[],,,,,,73.6,1.0,i,1.0,True,997.7000000029802,60.0,59.0,40.0,False,,337.3452163812394,[],"[768, 432]",ColorTask,78.0,32.0,,,HRV,HRV_0320,2022-12-01 00:27:53
,wl-rdm,151,512125,0.0-8.32-0.32,1.0,149.0,,,,,,,[],,,,,,53.2,1.0,i,1.0,True,2092.199999999255,124.0,59.0,40.0,False,,283.8120193909893,[],"[768, 432]",ColorTask,79.0,33.0,,,HRV,HRV_0320,2022-12-01 00:27:53
,wl-rdm,152,515408,0.0-8.33-0.33,1.0,150.0,,,,,,,[],,,,,,53.2,0.0,i,1.0,False,1917.800000000745,114.0,59.0,40.0,False,,296.6025767943105,[],"[768, 432]",ColorTask,78.0,34.0,,,HRV,HRV_0320,2022-12-01 00:27:53
,wl-rdm,153,518208,0.0-8.34-0.34,1.0,151.0,,,,,,,[],,,,,,62.5,0.0,u,0.0,True,1326.8999999985099,80.0,59.0,40.0,False,,385.94300600384014,[],"[768, 432]",ColorTask,79.0,35.0,,,HRV,HRV_0320,2022-12-01 00:27:53
,wl-rdm,154,520725,0.0-8.35-0.35,1.0,152.0,,,,,,,[],,,,,,73.6,0.0,i,1.0,False,1228.300000000745,74.0,59.0,40.0,False,,205.35692444870512,[],"[768, 432]",ColorTask,78.0,36.0,,,HRV,HRV_0320,2022-12-01 00:27:53
,wl-rdm,155,522744,0.0-8.36-0.36,1.0,153.0,,,,,,,[],,,,,,87.9,0.0,u,0.0,True,728.6000000014901,44.0,59.0,40.0,False,,203.50554016726488,[],"[768, 432]",ColorTask,79.0,37.0,,,HRV,HRV_0320,2022-12-01 00:27:53
,wl-rdm,156,525619,0.0-8.37-0.37,1.0,154.0,,,,,,,[],,,,,,50.0,1.0,u,0.0,False,1550.0,92.0,59.0,40.0,False,,252.25539674493155,[],"[768, 432]",ColorTask,78.0,38.0,,,HRV,HRV_0320,2022-12-01 00:27:53
,wl-rdm,157,528463,0.0-8.38-0.38,1.0,155.0,,,,,,,[],,,,,,53.2,0.0,u,0.0,True,1504.4000000022352,91.0,59.0,40.0,False,,289.8390473796536,[],"[768, 432]",ColorTask,79.0,39.0,,,HRV,HRV_0320,2022-12-01 00:27:53
,wl-rdm,158,530546,0.0-8.39-0.39,1.0,156.0,,,,,,,[],,,,,,62.5,1.0,i,1.0,True,755.6999999992549,46.0,59.0,40.0,False,,236.50249765907486,[],"[768, 432]",ColorTask,80.0,40.0,,,HRV,HRV_0320,2022-12-01 00:27:53
,wl-rdm,159,532779,0.0-8.40-0.40,1.0,157.0,,,,,,,[],,,,,,87.9,0.0,u,0.0,True,939.2000000029802,57.0,59.0,40.0,False,,228.62066492330305,[],"[768, 432]",ColorTask,81.0,41.0,,,HRV,HRV_0320,2022-12-01 00:27:53
,wl-rdm,160,534946,0.0-8.41-0.41,1.0,158.0,,,,,,,[],,,,,,87.9,0.0,u,0.0,True,877.1000000014901,53.0,59.0,40.0,False,,211.16901598209836,[],"[768, 432]",ColorTask,82.0,42.0,,,HRV,HRV_0320,2022-12-01 00:27:53
,wl-rdm,161,537264,0.0-8.42-0.42,1.0,159.0,,,,,,,[],,,,,,53.2,0.0,u,0.0,True,972.8999999985099,59.0,59.0,40.0,False,,281.40431605639304,[],"[768, 432]",ColorTask,83.0,43.0,,,HRV,HRV_0320,2022-12-01 00:27:53
,wl-rdm,162,539566,0.0-8.43-0.43,1.0,160.0,,,,,,,[],,,,,,56.4,0.0,u,0.0,True,1012.6000000014901,61.0,59.0,40.0,False,,201.3453115372225,[],"[768, 432]",ColorTask,84.0,44.0,,,HRV,HRV_0320,2022-12-01 00:27:53
,wl-rdm,163,541815,0.0-8.44-0.44,1.0,161.0,,,,,,,[],,,,,,53.2,1.0,u,0.0,False,829.8000000007451,50.0,59.0,40.0,False,,342.8511005563902,[],"[768, 432]",ColorTask,83.0,45.0,,,HRV,HRV_0320,2022-12-01 00:27:53
,wl-rdm,164,544449,0.0-8.45-0.45,1.0,162.0,,,,,,,[],,,,,,62.5,0.0,u,0.0,True,1177.5999999977648,71.0,59.0,40.0,False,,379.5669146889015,[],"[768, 432]",ColorTask,84.0,46.0,,,HRV,HRV_0320,2022-12-01 00:27:53
,wl-rdm,165,547100,0.0-8.46-0.46,1.0,163.0,,,,,,,[],,,,,,62.5,0.0,u,0.0,True,1372.0999999977648,83.0,59.0,40.0,False,,214.2867572687529,[],"[768, 432]",ColorTask,85.0,47.0,,,HRV,HRV_0320,2022-12-01 00:27:53
,wl-rdm,166,550185,0.0-8.47-0.47,1.0,164.0,,,,,,,[],,,,,,53.2,1.0,u,0.0,False,1623.699999999255,98.0,59.0,40.0,False,,391.5175001358357,[],"[768, 432]",ColorTask,84.0,48.0,,,HRV,HRV_0320,2022-12-01 00:27:53
,wl-rdm,167,552309,0.0-8.48-0.48,1.0,165.0,,,,,,,[],,,,,,73.6,1.0,i,1.0,True,775.9000000022352,47.0,59.0,40.0,False,,252.2340069871815,[],"[768, 432]",ColorTask,85.0,49.0,,,HRV,HRV_0320,2022-12-01 00:27:53
,wl-rdm,168,554420,0.0-8.49-0.49,1.0,166.0,,,,,,,[],,,,,,87.9,1.0,i,1.0,True,810.0999999977648,49.0,59.0,40.0,False,,218.04831606241646,[],"[768, 432]",ColorTask,86.0,50.0,,,HRV,HRV_0320,2022-12-01 00:27:53
,wl-rdm,169,556620,0.0-8.50-0.50,1.0,167.0,,,,,,,[],,,,,,53.2,0.0,i,1.0,False,839.3999999985099,51.0,59.0,40.0,False,,294.93752627533786,[],"[768, 432]",ColorTask,85.0,51.0,,,HRV,HRV_0320,2022-12-01 00:27:53
,wl-rdm,170,559836,0.0-8.51-0.51,1.0,168.0,,,,,,,[],,,,,,56.4,0.0,i,1.0,False,1842.199999999255,111.0,59.0,40.0,False,,313.4803960367238,[],"[768, 432]",ColorTask,84.0,52.0,,,HRV,HRV_0320,2022-12-01 00:27:53
,wl-rdm,171,561904,0.0-8.52-0.52,1.0,169.0,,,,,,,[],,,,,,56.4,1.0,i,1.0,True,741.0,45.0,59.0,40.0,False,,266.39301447307406,[],"[768, 432]",ColorTask,85.0,53.0,,,HRV,HRV_0320,2022-12-01 00:27:53
,wl-rdm,172,564204,0.0-8.53-0.53,1.0,170.0,,,,,,,[],,,,,,73.6,0.0,u,0.0,True,939.5999999977648,57.0,59.0,40.0,False,,298.5029553416952,[],"[768, 432]",ColorTask,86.0,54.0,,,HRV,HRV_0320,2022-12-01 00:27:53
,wl-rdm,173,566756,0.0-8.54-0.54,1.0,171.0,,,,,,,[],,,,,,50.0,1.0,u,0.0,False,1205.8999999985099,73.0,59.0,40.0,False,,282.47217407552455,[],"[768, 432]",ColorTask,85.0,55.0,,,HRV,HRV_0320,2022-12-01 00:27:53
,wl-rdm,174,568793,0.0-8.55-0.55,1.0,172.0,,,,,,,[],,,,,,87.9,1.0,i,1.0,True,711.8999999985099,43.0,59.0,40.0,False,,255.86499525955395,[],"[768, 432]",ColorTask,86.0,56.0,,,HRV,HRV_0320,2022-12-01 00:27:53
,wl-rdm,175,571222,0.0-8.56-0.56,1.0,173.0,,,,,,,[],,,,,,50.0,0.0,i,1.0,False,1159.8999999985099,70.0,59.0,40.0,False,,200.81462087576193,[],"[768, 432]",ColorTask,85.0,57.0,,,HRV,HRV_0320,2022-12-01 00:27:53
,wl-rdm,176,573474,0.0-8.57-0.57,1.0,174.0,,,,,,,[],,,,,,87.9,1.0,i,1.0,True,897.3000000007451,54.0,59.0,40.0,False,,273.8353566600541,[],"[768, 432]",ColorTask,86.0,58.0,,,HRV,HRV_0320,2022-12-01 00:27:53
,wl-rdm,177,576574,0.0-8.58-0.58,1.0,175.0,,,,,,,[],,,,,,73.6,1.0,i,1.0,True,1777.4000000022352,107.0,59.0,40.0,False,,249.2892054255735,[],"[768, 432]",ColorTask,87.0,59.0,,,HRV,HRV_0320,2022-12-01 00:27:53
,wl-rdm,178,578843,0.0-8.59-0.59,1.0,176.0,,,,,,,[],,,,,,73.6,1.0,i,1.0,True,976.6000000014901,59.0,59.0,40.0,False,,205.27037941244726,[],"[768, 432]",ColorTask,88.0,60.0,,,HRV,HRV_0320,2022-12-01 00:27:53
,wl-rdm,179,580942,0.0-8.60-0.60,1.0,177.0,,,,,,,[],,,,,,87.9,0.0,u,0.0,True,726.2000000029802,44.0,59.0,40.0,False,,292.930702247004,[],"[768, 432]",ColorTask,89.0,61.0,,,HRV,HRV_0320,2022-12-01 00:27:53
,wl-rdm,180,583460,0.0-8.61-0.61,1.0,178.0,,,,,,,[],,,,,,56.4,0.0,u,0.0,True,1221.6000000014901,74.0,59.0,40.0,False,,224.34377286794512,[],"[768, 432]",ColorTask,90.0,62.0,,,HRV,HRV_0320,2022-12-01 00:27:53
,wl-rdm,181,587577,0.0-8.62-0.62,1.0,179.0,,,,,,,[],,,,,,56.4,1.0,u,0.0,False,2740.300000000745,165.0,59.0,40.0,False,,300.9849550963275,[],"[768, 432]",ColorTask,89.0,63.0,,,HRV,HRV_0320,2022-12-01 00:27:53
,wl-rdm,182,590744,0.0-8.63-0.63,1.0,180.0,,,,,,,[],,,,,,62.5,0.0,u,0.0,True,1822.7999999970198,110.0,59.0,40.0,False,,256.7599106528927,[],"[768, 432]",ColorTask,90.0,64.0,,,HRV,HRV_0320,2022-12-01 00:27:53
,wl-rdm,183,593729,0.0-8.64-0.64,1.0,181.0,,,,,,,[],,,,,,56.4,1.0,i,1.0,True,1680.699999999255,101.0,59.0,40.0,False,,237.8131958823647,[],"[768, 432]",ColorTask,91.0,65.0,,,HRV,HRV_0320,2022-12-01 00:27:53
,wl-rdm,184,596296,0.0-8.65-0.65,1.0,182.0,,,,,,,[],,,,,,62.5,1.0,i,1.0,True,1208.6000000014901,73.0,59.0,40.0,False,,283.5054237132591,[],"[768, 432]",ColorTask,92.0,66.0,,,HRV,HRV_0320,2022-12-01 00:27:53
,wl-rdm,185,599182,0.0-8.66-0.66,1.0,183.0,,,,,,,[],,,,,,62.5,0.0,i,1.0,False,1539.800000000745,93.0,59.0,40.0,False,,274.823789824286,[],"[768, 432]",ColorTask,91.0,67.0,,,HRV,HRV_0320,2022-12-01 00:27:53
,wl-rdm,186,601353,0.0-8.67-0.67,1.0,184.0,,,,,,,[],,,,,,73.6,1.0,i,1.0,True,765.2000000029802,45.0,59.0,40.0,False,,341.4337267797522,[],"[768, 432]",ColorTask,92.0,68.0,,,HRV,HRV_0320,2022-12-01 00:27:53
,wl-rdm,187,604549,0.0-8.68-0.68,1.0,185.0,,,,,,,[],,,,,,53.2,1.0,i,1.0,True,1860.5,112.0,59.0,40.0,False,,270.78831258004504,[],"[768, 432]",ColorTask,93.0,69.0,,,HRV,HRV_0320,2022-12-01 00:27:53
,wl-rdm,188,606733,0.0-8.69-0.69,1.0,186.0,,,,,,,[],,,,,,87.9,0.0,u,0.0,True,906.5,55.0,59.0,40.0,False,,207.49944171060415,[],"[768, 432]",ColorTask,94.0,70.0,,,HRV,HRV_0320,2022-12-01 00:27:53
,wl-rdm,189,610051,0.0-8.70-0.70,1.0,187.0,,,,,,,[],,,,,,56.4,1.0,u,0.0,False,2032.2999999970198,122.0,59.0,40.0,False,,210.28001526729787,[],"[768, 432]",ColorTask,93.0,71.0,,,HRV,HRV_0320,2022-12-01 00:27:53
,wl-rdm,190,613484,0.0-8.71-0.71,1.0,188.0,,,,,,,[],,,,,,73.6,1.0,i,1.0,True,2038.300000000745,121.0,59.0,40.0,False,,319.20600800253857,[],"[768, 432]",ColorTask,94.0,72.0,,,HRV,HRV_0320,2022-12-01 00:27:53
,wl-rdm,191,615584,0.0-8.72-0.72,1.0,189.0,,,,,,,[],,,,,,56.4,1.0,i,1.0,True,815.5,49.0,59.0,40.0,False,,222.03273940751595,[],"[768, 432]",ColorTask,95.0,73.0,,,HRV,HRV_0320,2022-12-01 00:27:53
,wl-rdm,192,617985,0.0-8.73-0.73,1.0,190.0,,,,,,,[],,,,,,50.0,0.0,i,1.0,False,932.3999999985099,56.0,59.0,40.0,False,,395.57167268904584,[],"[768, 432]",ColorTask,94.0,74.0,,,HRV,HRV_0320,2022-12-01 00:27:53
,wl-rdm,193,621303,0.0-8.74-0.74,1.0,191.0,,,,,,,[],,,,,,50.0,1.0,i,1.0,True,1878.699999999255,113.0,59.0,40.0,False,,358.6356265313274,[],"[768, 432]",ColorTask,95.0,75.0,,,HRV,HRV_0320,2022-12-01 00:27:53
,wl-rdm,194,624771,0.0-8.75-0.75,1.0,192.0,,,,,,,[],,,,,,50.0,1.0,u,0.0,False,2071.7999999970198,125.0,59.0,40.0,False,,307.2109640928451,[],"[768, 432]",ColorTask,94.0,76.0,,,HRV,HRV_0320,2022-12-01 00:27:53
,wl-rdm,195,627154,0.0-8.76-0.76,1.0,193.0,,,,,,,[],,,,,,50.0,0.0,u,0.0,True,1007.1999999992549,61.0,59.0,40.0,False,,296.95951714068457,[],"[768, 432]",ColorTask,95.0,77.0,,,HRV,HRV_0320,2022-12-01 00:27:53
,wl-rdm,196,630773,0.0-8.77-0.77,1.0,194.0,,,,,,,[],,,,,,50.0,0.0,i,1.0,False,2221.7000000029802,134.0,59.0,40.0,False,,306.00601470346044,[],"[768, 432]",ColorTask,94.0,78.0,,,HRV,HRV_0320,2022-12-01 00:27:53
,wl-rdm,197,634174,0.0-8.78-0.78,1.0,195.0,,,,,,,[],,,,,,53.2,0.0,u,0.0,True,1960.5999999977648,118.0,59.0,40.0,False,,380.04392124742225,[],"[768, 432]",ColorTask,95.0,79.0,,,HRV,HRV_0320,2022-12-01 00:27:53
,wl-rdm,198,637256,0.0-8.79-0.79,1.0,196.0,,,,,,,[],,,,,,50.0,0.0,u,0.0,True,1713.5,103.0,59.0,40.0,False,,301.8619047542375,[],"[768, 432]",ColorTask,96.0,80.0,,,HRV,HRV_0320,2022-12-01 00:27:53
,wl-rdm,199,639941,0.0-8.80-0.80,1.0,197.0,,,,,,,[],,,,,,56.4,1.0,u,0.0,False,1405.5999999977648,85.0,59.0,40.0,False,,203.8639610495783,[],"[768, 432]",ColorTask,95.0,81.0,,,HRV,HRV_0320,2022-12-01 00:27:53
,wl-rdm,200,642057,0.0-8.81-0.81,1.0,198.0,,,,,,,[],,,,,,87.9,0.0,i,1.0,False,827.6000000014901,50.0,59.0,40.0,False,,205.0733831030215,[],"[768, 432]",ColorTask,94.0,82.0,,,HRV,HRV_0320,2022-12-01 00:27:53
,wl-rdm,201,644991,0.0-8.82-0.82,1.0,199.0,,,,,,,[],,,,,,53.2,0.0,u,0.0,True,1556.199999999255,94.0,59.0,40.0,False,,283.7957778502391,[],"[768, 432]",ColorTask,95.0,83.0,,,HRV,HRV_0320,2022-12-01 00:27:53
,wl-rdm,202,648810,0.0-8.83-0.83,1.0,200.0,,,,,,,[],,,,,,53.2,0.0,u,0.0,True,2372.300000000745,143.0,59.0,40.0,False,,381.99650074100646,[],"[768, 432]",ColorTask,96.0,84.0,,,HRV,HRV_0320,2022-12-01 00:27:53
,wl-rdm,203,652410,0.0-8.84-0.84,1.0,201.0,,,,,,,[],,,,,,62.5,1.0,u,0.0,False,2206.0,133.0,59.0,40.0,False,,320.0833454679786,[],"[768, 432]",ColorTask,95.0,85.0,,,HRV,HRV_0320,2022-12-01 00:27:53
,wl-rdm,204,654795,0.0-8.85-0.85,1.0,202.0,,,,,,,[],,,,,,50.0,0.0,i,1.0,False,1071.5000000037253,65.0,59.0,40.0,False,,243.71356581566158,[],"[768, 432]",ColorTask,94.0,86.0,,,HRV,HRV_0320,2022-12-01 00:27:53
,wl-rdm,205,658613,0.0-8.86-0.86,1.0,203.0,,,,,,,[],,,,,,56.4,0.0,u,0.0,True,2373.300000000745,143.0,59.0,40.0,False,,381.628135137688,[],"[768, 432]",ColorTask,95.0,87.0,,,HRV,HRV_0320,2022-12-01 00:27:53
,wl-rdm,206,661646,0.0-8.87-0.87,1.0,204.0,,,,,,,[],,,,,,56.4,0.0,u,0.0,True,1714.8999999985099,103.0,59.0,40.0,False,,249.02628268023858,[],"[768, 432]",ColorTask,96.0,88.0,,,HRV,HRV_0320,2022-12-01 00:27:53
,wl-rdm,207,663896,0.0-8.88-0.88,1.0,205.0,,,,,,,[],,,,,,62.5,0.0,u,0.0,True,957.1999999992549,58.0,59.0,40.0,False,,208.75200483086795,[],"[768, 432]",ColorTask,97.0,89.0,,,HRV,HRV_0320,2022-12-01 00:27:53
,wl-rdm,208,666014,0.0-8.89-0.89,1.0,206.0,,,,,,,[],,,,,,50.0,1.0,u,0.0,False,850.6000000014901,51.0,59.0,40.0,False,,214.03058771056394,[],"[768, 432]",ColorTask,96.0,90.0,,,HRV,HRV_0320,2022-12-01 00:27:53
,wl-rdm,209,668682,0.0-8.90-0.90,1.0,207.0,,,,,,,[],,,,,,56.4,1.0,i,1.0,True,1223.3999999985099,74.0,59.0,40.0,False,,361.45470312931354,[],"[768, 432]",ColorTask,97.0,91.0,,,HRV,HRV_0320,2022-12-01 00:27:53
,wl-rdm,210,671982,0.0-8.91-0.91,1.0,208.0,,,,,,,[],,,,,,87.9,0.0,u,0.0,True,1858.300000000745,112.0,59.0,40.0,False,,367.8494346238645,[],"[768, 432]",ColorTask,98.0,92.0,,,HRV,HRV_0320,2022-12-01 00:27:53
,wl-rdm,211,674584,0.0-8.92-0.92,1.0,209.0,,,,,,,[],,,,,,62.5,1.0,i,1.0,True,1175.5999999977648,71.0,59.0,40.0,False,,349.7005504844026,[],"[768, 432]",ColorTask,99.0,93.0,,,HRV,HRV_0320,2022-12-01 00:27:53
,wl-rdm,212,676668,0.0-8.93-0.93,1.0,210.0,,,,,,,[],,,,,,87.9,1.0,i,1.0,True,757.2000000029802,46.0,59.0,40.0,False,,258.8531545065641,[],"[768, 432]",ColorTask,100.0,94.0,,,HRV,HRV_0320,2022-12-01 00:27:53
,wl-rdm,213,680289,0.0-8.94-0.94,1.0,211.0,,,,,,,[],,,,,,62.5,1.0,u,0.0,False,2248.7999999970198,135.0,59.0,40.0,False,,284.9639430195814,[],"[768, 432]",ColorTask,99.0,95.0,,,HRV,HRV_0320,2022-12-01 00:27:53
,wl-rdm,214,682952,0.0-8.95-0.95,1.0,212.0,,,,,,,[],,,,,,73.6,0.0,u,0.0,True,1324.1000000014901,80.0,59.0,40.0,False,,272.33155632124203,[],"[768, 432]",ColorTask,100.0,96.0,,,HRV,HRV_0320,2022-12-01 00:27:53
,wl-rdm,215,686486,0.0-8.96-0.96,1.0,213.0,,,,,,,[],,,,,,53.2,1.0,u,0.0,False,2190.89999999851,132.0,59.0,40.0,False,,271.1490791201271,[],"[768, 432]",ColorTask,99.0,97.0,,,HRV,HRV_0320,2022-12-01 00:27:53
,wl-rdm,216,689272,0.0-8.97-0.97,1.0,214.0,,,,,,,[],,,,,,56.4,0.0,i,1.0,False,1493.2000000029802,90.0,59.0,40.0,False,,224.66218769406606,[],"[768, 432]",ColorTask,98.0,98.0,,,HRV,HRV_0320,2022-12-01 00:27:53
,wl-rdm,217,691654,0.0-8.98-0.98,1.0,215.0,,,,,,,[],,,,,,73.6,0.0,u,0.0,True,1027.699999999255,62.0,59.0,40.0,False,,289.96005157857206,[],"[768, 432]",ColorTask,99.0,99.0,,,HRV,HRV_0320,2022-12-01 00:27:53
,wl-rdm,218,695723,0.0-8.99-0.99,1.0,216.0,,,,,,,[],,,,,,62.5,0.0,u,0.0,True,2641.39999999851,153.0,59.0,40.0,False,,367.88998081035527,[],"[768, 432]",ColorTask,100.0,100.0,,,HRV,HRV_0320,2022-12-01 00:27:53
,wl-rdm,219,698006,0.0-8.100-0.100,1.0,217.0,,,,,,,[],,,,,,50.0,0.0,u,0.0,True,857.6999999992549,52.0,59.0,40.0,False,,364.77902328063,[],"[768, 432]",ColorTask,101.0,101.0,,,HRV,HRV_0320,2022-12-01 00:27:53
,wl-rdm,220,701106,0.0-8.101-0.101,1.0,218.0,,,,,,,[],,,,,,56.4,0.0,u,0.0,True,1808.6000000014901,109.0,59.0,40.0,False,,219.77614402051103,[],"[768, 432]",ColorTask,102.0,102.0,,,HRV,HRV_0320,2022-12-01 00:27:53
,wl-rdm,221,705141,0.0-8.102-0.102,1.0,219.0,,,,,,,[],,,,,,56.4,1.0,u,0.0,False,2689.900000002235,162.0,59.0,40.0,False,,256.91702422257873,[],"[768, 432]",ColorTask,101.0,103.0,,,HRV,HRV_0320,2022-12-01 00:27:53
,wl-rdm,222,708393,0.0-8.103-0.103,1.0,220.0,,,,,,,[],,,,,,53.2,0.0,u,0.0,True,1923.8000000044703,116.0,59.0,40.0,False,,263.4169842232557,[],"[768, 432]",ColorTask,102.0,104.0,,,HRV,HRV_0320,2022-12-01 00:27:53
,wl-rdm,223,711193,0.0-8.104-0.104,1.0,221.0,,,,,,,[],,,,,,73.6,1.0,i,1.0,True,1446.699999999255,87.0,59.0,40.0,False,,273.95859989029356,[],"[768, 432]",ColorTask,103.0,105.0,,,HRV,HRV_0320,2022-12-01 00:27:53
,wl-rdm,224,714244,0.0-8.105-0.105,1.0,222.0,,,,,,,[],,,,,,62.5,1.0,i,1.0,True,1748.9000000022352,105.0,59.0,40.0,False,,234.63361573037236,[],"[768, 432]",ColorTask,104.0,106.0,,,HRV,HRV_0320,2022-12-01 00:27:53
,wl-rdm,225,716744,0.0-8.106-0.106,1.0,223.0,,,,,,,[],,,,,,87.9,1.0,i,1.0,True,1206.2000000029802,73.0,59.0,40.0,False,,214.1206397478949,[],"[768, 432]",ColorTask,105.0,107.0,,,HRV,HRV_0320,2022-12-01 00:27:53
,wl-rdm,226,719847,0.0-8.107-0.107,1.0,224.0,,,,,,,[],,,,,,50.0,0.0,u,0.0,True,1713.9000000022352,103.0,59.0,40.0,False,,327.4734275798612,[],"[768, 432]",ColorTask,106.0,108.0,,,HRV,HRV_0320,2022-12-01 00:27:53
,wl-html-button-response,227,723135,0.0-9.0-0.0,,,,,,,,,,3282.5,,0,,,,,,,,,,,,,,,,,,,,<h3>End of this session. Thank you!</h3><br>,['Close window'],HRV,HRV_0320,2022-12-01 00:27:53
