success,trial_type,trial_index,time_elapsed,internal_node_id,Block,TrialNumber,TrialTime,trialTimeDiff,FPS_avg,FPS_med,FPS_mode,TrialDur,winResizeTime,rt,block,button_pressed,MotCoh,MotDir,ColCoh,Color,ChoiceKey,Choice,Accuracy,RT,nFrames,FPS,PPD,missTrial,missTrialMsg,onsetDelay,fullScreenExitTime,canvCenter,TrialType,Score,BlockTrial,stimulus,button_labels,exp,subjectId,date
True,fullscreen,0,5681,0.0-0.0,0.0,1.0,,,,,,,,,,,,,,,,,,,,,,,,,,,,,,,,HRV,HRV_0297,2022-11-30 21:04:56
,wl-check-fps,1,10691,0.0-1.0,0.0,2.0,"[8025.1, 8039.4, 8051.4, 8067.6, 8084.1, 8100.5, 8117, 8133.9, 8151.1, 8167.3, 8183.7, 8200.3, 8217.1, 8233.4, 8250.1, 8266.4, 8283.4, 8299.9, 8317.2, 8334, 8350.5, 8367, 8383.3, 8400, 8416.5, 8433.5, 8451.7, 8466.4, 8483.1, 8499.7, 8516.2, 8533, 8549.9, 8566.8, 8583, 8599.8, 8617.7, 8633.3, 8649.7, 8666.3, 8683.2, 8700.5, 8716.5, 8733, 8749.6, 8766.3, 8783.1, 8799.7, 8816.7, 8833.2, 8850.3, 8866.5, 8883.6, 8900.3, 8921.4, 8935.9, 8975.5, 8976.1, 9003.6, 9005.2, 9020.2, 9036.4, 9052.3, 9068.6, 9086.3, 9113.4, 9125.1, 9134.1, 9152, 9169.7, 9183.5, 9199.5, 9217.5, 9235.8, 9253.4, 9268.1, 9288.5, 9301.5, 9316.2, 9333.5, 9349.6, 9369, 9383, 9399.6, 9417.9, 9433, 9449.7, 9466.2, 9482.9, 9499.7, 9517.6, 9534.3, 9550.1, 9567.3, 9583.1, 9599.8, 9617, 9633, 9650.4, 9666.2, 9683, 9699.5, 9716.4, 9733, 9750.7, 9766.4, 9783.1, 9799.8, 9816.5, 9832.9, 9849.7, 9866.5, 9884.6, 9900.3, 9916.5, 9933, 9950.3, 9967, 9983, 10000, 10016.3, 10033, 10051.1, 10066.6, 10083.1, 10099.8, 10116.4, 10132.9, 10150.6, 10167.8, 10183.3, 10200.6, 10216.5, 10234.3, 10249.9, 10266.5, 10283.8, 10301.5, 10317, 10333.5, 10349.6, 10367.6, 10383.5, 10399.9, 10416.3, 10433, 10449.9, 10466.4, 10483.6, 10499.7, 10516.3, 10533.5, 10549.8, 10567.7, 10583, 10600, 10616.4, 10633, 10649.9, 10666.5, 10683, 10699.7, 10716.7, 10733.1, 10749.8, 10766.3, 10783, 10799.6, 10816.4, 10833.2, 10850.2, 10866.5, 10883.1, 10899.7, 10916.4, 10933, 10949.9, 10966.3, 10983, 10999.6, 11016.3, 11033, 11049.8, 11068.6, 11085.1, 11099.7, 11117.7, 11133.4, 11149.7, 11167.4, 11183.5, 11203.9, 11218.6, 11233.7, 11250.2, 11267.8, 11283.2, 11299.7, 11316.8, 11338.6, 11350.2, 11366.2, 11383, 11399.6, 11416.3, 11433.8, 11450.3, 11466.2, 11483.1, 11499.8, 11516.5, 11533, 11549.7, 11566.4, 11583.5, 11601, 11616.4, 11633.4, 11650.4, 11667, 11683.6, 11700.3, 11716.7, 11733, 11750.8, 11766.3, 11783.1, 11800.5, 11816.5, 11833.1, 11850.8, 11867.1, 11883.6, 11899.7, 11916.7, 11933.1, 11949.9, 11967.7, 11984.1, 11999.8, 12016.5, 12033.7, 12049.8, 12066.6, 12083.1, 12100.8, 12118.5, 12133.2, 12149.7, 12166.4, 12184.6, 12200.5, 12216.4, 12233.2, 12250.5, 12266.3, 12283.1, 12299.7, 12316.4, 12334.4, 12350.1, 12366.6, 12383, 12400.3, 12417.7, 12433.6, 12451, 12467.2, 12483, 12499.7, 12516.3, 12533.1, 12549.7, 12566.4, 12583.4, 12599.8, 12619, 12633, 12649.6, 12666.3, 12683, 12700.2, 12716.4, 12733.5, 12749.8, 12766.4, 12783.1, 12799.7, 12816.8, 12833.1, 12849.6, 12869.4, 12883.2, 12899.8, 12916.9, 12933.8, 12949.8, 12966.3, 12983.2, 13000.6]","[15.5, 14.3, 12, 16.2, 16.5, 16.4, 16.5, 16.9, 17.2, 16.2, 16.4, 16.6, 16.8, 16.3, 16.7, 16.3, 17, 16.5, 17.3, 16.8, 16.5, 16.5, 16.3, 16.7, 16.5, 17, 18.2, 14.7, 16.7, 16.6, 16.5, 16.8, 16.9, 16.9, 16.2, 16.8, 17.9, 15.6, 16.4, 16.6, 16.9, 17.3, 16, 16.5, 16.6, 16.7, 16.8, 16.6, 17, 16.5, 17.1, 16.2, 17.1, 16.7, 21.1, 14.5, 39.6, 0.6, 27.5, 1.6, 15, 16.2, 15.9, 16.3, 17.7, 27.1, 11.7, 9, 17.9, 17.7, 13.8, 16, 18, 18.3, 17.6, 14.7, 20.4, 13, 14.7, 17.3, 16.1, 19.4, 14, 16.6, 18.3, 15.1, 16.7, 16.5, 16.7, 16.8, 17.9, 16.7, 15.8, 17.2, 15.8, 16.7, 17.2, 16, 17.4, 15.8, 16.8, 16.5, 16.9, 16.6, 17.7, 15.7, 16.7, 16.7, 16.7, 16.4, 16.8, 16.8, 18.1, 15.7, 16.2, 16.5, 17.3, 16.7, 16, 17, 16.3, 16.7, 18.1, 15.5, 16.5, 16.7, 16.6, 16.5, 17.7, 17.2, 15.5, 17.3, 15.9, 17.8, 15.6, 16.6, 17.3, 17.7, 15.5, 16.5, 16.1, 18, 15.9, 16.4, 16.4, 16.7, 16.9, 16.5, 17.2, 16.1, 16.6, 17.2, 16.3, 17.9, 15.3, 17, 16.4, 16.6, 16.9, 16.6, 16.5, 16.7, 17, 16.4, 16.7, 16.5, 16.7, 16.6, 16.8, 16.8, 17, 16.3, 16.6, 16.6, 16.7, 16.6, 16.9, 16.4, 16.7, 16.6, 16.7, 16.7, 16.8, 18.8, 16.5, 14.6, 18, 15.7, 16.3, 17.7, 16.1, 20.4, 14.7, 15.1, 16.5, 17.6, 15.4, 16.5, 17.1, 21.8, 11.6, 16, 16.8, 16.6, 16.7, 17.5, 16.5, 15.9, 16.9, 16.7, 16.7, 16.5, 16.7, 16.7, 17.1, 17.5, 15.4, 17, 17, 16.6, 16.6, 16.7, 16.4, 16.3, 17.8, 15.5, 16.8, 17.4, 16, 16.6, 17.7, 16.3, 16.5, 16.1, 17, 16.4, 16.8, 17.8, 16.4, 15.7, 16.7, 17.2, 16.1, 16.8, 16.5, 17.7, 17.7, 14.7, 16.5, 16.7, 18.2, 15.9, 15.9, 16.8, 17.3, 15.8, 16.8, 16.6, 16.7, 18, 15.7, 16.5, 16.4, 17.3, 17.4, 15.9, 17.4, 16.2, 15.8, 16.7, 16.6, 16.8, 16.6, 16.7, 17, 16.4, 19.2, 14, 16.6, 16.7, 16.7, 17.2, 16.2, 17.1, 16.3, 16.6, 16.7, 16.6, 17.1, 16.3, 16.5, 19.8, 13.8, 16.6, 17.1, 16.9, 16, 16.5, 16.9, 17.4]",60.0,61.0,60.0,5006.9,[],,,,,,,,,,,,,,,,,,,,,,,,,HRV,HRV_0297,2022-11-30 21:04:56
,wl-html-keyboard-response,2,25353,0.0-2.0-0.0,0.0,3.0,,,,,,,,12650.899999976158,0.0,0,,,,,,,,,,,,,,,,,,,,,,HRV,HRV_0297,2022-11-30 21:04:56
,wl-rdm,3,36757,0.0-3.0-0.0,0.0,4.0,,,,,,,[],,,,0.0,0.0,87.9,0.0,u,0.0,True,5823.199999988079,350.0,60.0,40.0,False,,3000.0,[],"[960, 540]",ColorTask_Demo,,,,,HRV,HRV_0297,2022-11-30 21:04:56
,wl-rdm,4,44573,0.0-3.0-1.0,0.0,5.0,,,,,,,[],,,,0.0,0.0,87.9,1.0,i,1.0,True,3740.800000011921,225.0,60.0,40.0,False,,2000.0,[],"[960, 540]",ColorTask_Demo,,,,,HRV,HRV_0297,2022-11-30 21:04:56
,wl-html-keyboard-response,5,50589,0.0-3.0-2.0,0.0,6.0,,,,,,,,4000.800000011921,0.0,1,,,,,,,,,,,,,,,,,,,,,,HRV,HRV_0297,2022-11-30 21:04:56
,wl-html-keyboard-response,6,62758,0.0-4.0-0.0,0.0,7.0,,,,,,,,10130.100000023842,0.0,0,,,,,,,,,,,,,,,,,,,,,,HRV,HRV_0297,2022-11-30 21:04:56
,wl-html-keyboard-response,7,121554,0.0-5.0-0.0,0.0,7.0,,,,,,,,56783.799999952316,0.0,0,,,,,,,,,,,,True,undefinedblurEvent ,,,,,,,,,HRV,HRV_0297,2022-11-30 21:04:56
,wl-rdm,8,124126,0.0-6.0-0.0,0.0,8.0,,,,,,,[],,,,,,56.4,1.0,i,1.0,True,1116.9999999403954,68.0,60.0,40.0,False,,367.09465388676585,[],"[960, 540]",ColorTask,1.0,1.0,,,HRV,HRV_0297,2022-11-30 21:04:56
,wl-rdm,9,126476,0.0-6.1-0.1,0.0,9.0,,,,,,,[],,,,,,56.4,0.0,u,0.0,True,1027.300000011921,62.0,60.0,40.0,False,,247.84671558267485,[],"[960, 540]",ColorTask,2.0,2.0,,,HRV,HRV_0297,2022-11-30 21:04:56
,wl-rdm,10,128759,0.0-6.2-0.2,0.0,10.0,,,,,,,[],,,,,,62.5,1.0,i,1.0,True,899.0999999642372,54.0,60.0,40.0,False,,310.64073244258293,[],"[960, 540]",ColorTask,3.0,3.0,,,HRV,HRV_0297,2022-11-30 21:04:56
,wl-rdm,11,131010,0.0-6.3-0.3,0.0,11.0,,,,,,,[],,,,,,73.6,0.0,u,0.0,True,805.6000000238419,49.0,60.0,40.0,False,,350.1792354938266,[],"[960, 540]",ColorTask,4.0,4.0,,,HRV,HRV_0297,2022-11-30 21:04:56
,wl-rdm,12,133059,0.0-6.4-0.4,0.0,12.0,,,,,,,[],,,,,,53.2,0.0,u,0.0,True,686.6000000238419,42.0,60.0,40.0,False,,275.4428409560037,[],"[960, 540]",ColorTask,5.0,5.0,,,HRV,HRV_0297,2022-11-30 21:04:56
,wl-rdm,13,135192,0.0-6.5-0.5,0.0,13.0,,,,,,,[],,,,,,87.9,0.0,u,0.0,True,791.4999999403954,48.0,60.0,40.0,False,,252.63715486904118,[],"[960, 540]",ColorTask,6.0,6.0,,,HRV,HRV_0297,2022-11-30 21:04:56
,wl-rdm,14,137343,0.0-6.6-0.6,0.0,14.0,,,,,,,[],,,,,,50.0,0.0,u,0.0,True,840.6999999880791,51.0,60.0,40.0,False,,221.73255836450264,[],"[960, 540]",ColorTask,7.0,7.0,,,HRV,HRV_0297,2022-11-30 21:04:56
,wl-rdm,15,139376,0.0-6.7-0.7,0.0,15.0,,,,,,,[],,,,,,87.9,1.0,i,1.0,True,747.3999999761581,45.0,60.0,40.0,False,,228.62253632482555,[],"[960, 540]",ColorTask,8.0,8.0,,,HRV,HRV_0297,2022-11-30 21:04:56
,wl-rdm,16,141677,0.0-6.8-0.8,0.0,16.0,,,,,,,[],,,,,,62.5,1.0,i,1.0,True,992.4000000357628,60.0,60.0,40.0,False,,235.29559868543936,[],"[960, 540]",ColorTask,9.0,9.0,,,HRV,HRV_0297,2022-11-30 21:04:56
,wl-rdm,17,143726,0.0-6.9-0.9,0.0,17.0,,,,,,,[],,,,,,87.9,0.0,u,0.0,True,668.5999999642372,41.0,60.0,40.0,False,,284.9861531468986,[],"[960, 540]",ColorTask,10.0,10.0,,,HRV,HRV_0297,2022-11-30 21:04:56
,wl-rdm,18,145739,0.0-6.10-0.10,0.0,18.0,,,,,,,[],,,,,,73.6,0.0,u,0.0,True,650.1000000238419,39.0,60.0,40.0,False,,275.5184067309362,[],"[960, 540]",ColorTask,11.0,11.0,,,HRV,HRV_0297,2022-11-30 21:04:56
,wl-rdm,19,148209,0.0-6.11-0.11,0.0,19.0,,,,,,,[],,,,,,62.5,1.0,i,1.0,True,1162.1999999284744,70.0,60.0,40.0,False,,258.01303942474186,[],"[960, 540]",ColorTask,12.0,12.0,,,HRV,HRV_0297,2022-11-30 21:04:56
,wl-rdm,20,150593,0.0-6.12-0.12,0.0,20.0,,,,,,,[],,,,,,62.5,0.0,u,0.0,True,1007.8999999761581,61.0,60.0,40.0,False,,285.6892467937147,[],"[960, 540]",ColorTask,13.0,13.0,,,HRV,HRV_0297,2022-11-30 21:04:56
,wl-rdm,21,153160,0.0-6.13-0.13,0.0,21.0,,,,,,,[],,,,,,56.4,0.0,i,1.0,False,1256.9000000357628,76.0,60.0,40.0,False,,225.00009198606844,[],"[960, 540]",ColorTask,12.0,14.0,,,HRV,HRV_0297,2022-11-30 21:04:56
,wl-rdm,22,155861,0.0-6.14-0.14,0.0,22.0,,,,,,,[],,,,,,73.6,0.0,u,0.0,True,1228.8999999761581,74.0,60.0,40.0,False,,392.9761535859139,[],"[960, 540]",ColorTask,13.0,15.0,,,HRV,HRV_0297,2022-11-30 21:04:56
,wl-rdm,23,157995,0.0-6.15-0.15,0.0,23.0,,,,,,,[],,,,,,87.9,0.0,u,0.0,True,812.8000000119209,49.0,60.0,40.0,False,,259.97258001311167,[],"[960, 540]",ColorTask,14.0,16.0,,,HRV,HRV_0297,2022-11-30 21:04:56
,wl-rdm,24,160427,0.0-6.16-0.16,0.0,24.0,,,,,,,[],,,,,,56.4,0.0,i,1.0,False,1145.6999999284744,69.0,60.0,40.0,False,,202.88387176602453,[],"[960, 540]",ColorTask,13.0,17.0,,,HRV,HRV_0297,2022-11-30 21:04:56
,wl-rdm,25,163010,0.0-6.17-0.17,0.0,25.0,,,,,,,[],,,,,,50.0,0.0,i,1.0,False,1161.9000000357628,70.0,60.0,40.0,False,,366.2630841316479,[],"[960, 540]",ColorTask,12.0,18.0,,,HRV,HRV_0297,2022-11-30 21:04:56
,wl-rdm,26,165276,0.0-6.18-0.18,0.0,26.0,,,,,,,[],,,,,,62.5,0.0,u,0.0,True,818.1999999880791,50.0,60.0,40.0,False,,373.1043201460562,[],"[960, 540]",ColorTask,13.0,19.0,,,HRV,HRV_0297,2022-11-30 21:04:56
,wl-rdm,27,167709,0.0-6.19-0.19,0.0,27.0,,,,,,,[],,,,,,87.9,1.0,u,0.0,False,1099.699999988079,66.0,60.0,40.0,False,,276.1071643527115,[],"[960, 540]",ColorTask,12.0,20.0,,,HRV,HRV_0297,2022-11-30 21:04:56
,wl-rdm,28,170047,0.0-6.20-0.20,0.0,28.0,,,,,,,[],,,,,,56.4,1.0,i,1.0,True,1035.9000000357628,63.0,60.0,40.0,False,,227.168256881637,[],"[960, 540]",ColorTask,13.0,21.0,,,HRV,HRV_0297,2022-11-30 21:04:56
,wl-rdm,29,172610,0.0-6.21-0.21,0.0,29.0,,,,,,,[],,,,,,56.4,1.0,i,1.0,True,1188.0999999642372,72.0,60.0,40.0,False,,290.88368073076697,[],"[960, 540]",ColorTask,14.0,22.0,,,HRV,HRV_0297,2022-11-30 21:04:56
,wl-rdm,30,175176,0.0-6.22-0.22,0.0,30.0,,,,,,,[],,,,,,87.9,1.0,i,1.0,True,1146.300000011921,69.0,60.0,40.0,False,,361.45274387960137,[],"[960, 540]",ColorTask,15.0,23.0,,,HRV,HRV_0297,2022-11-30 21:04:56
,wl-rdm,31,177593,0.0-6.23-0.23,0.0,31.0,,,,,,,[],,,,,,73.6,1.0,i,1.0,True,1078.800000011921,65.0,60.0,40.0,False,,252.77302142784043,[],"[960, 540]",ColorTask,16.0,24.0,,,HRV,HRV_0297,2022-11-30 21:04:56
,wl-rdm,32,180360,0.0-6.24-0.24,0.0,32.0,,,,,,,[],,,,,,62.5,0.0,u,0.0,True,1298.199999988079,78.0,60.0,40.0,False,,396.8397919062226,[],"[960, 540]",ColorTask,17.0,25.0,,,HRV,HRV_0297,2022-11-30 21:04:56
,wl-rdm,33,182843,0.0-6.25-0.25,0.0,33.0,,,,,,,[],,,,,,62.5,1.0,u,0.0,False,1143.8999999761581,69.0,60.0,40.0,False,,260.7784199200581,[],"[960, 540]",ColorTask,16.0,26.0,,,HRV,HRV_0297,2022-11-30 21:04:56
,wl-rdm,34,185260,0.0-6.26-0.26,0.0,34.0,,,,,,,[],,,,,,56.4,0.0,u,0.0,True,1142.800000011921,69.0,60.0,40.0,False,,212.38603301975238,[],"[960, 540]",ColorTask,17.0,27.0,,,HRV,HRV_0297,2022-11-30 21:04:56
,wl-rdm,35,187911,0.0-6.27-0.27,0.0,35.0,,,,,,,[],,,,,,56.4,1.0,u,0.0,False,1314.8999999761581,79.0,60.0,40.0,False,,265.92734322288277,[],"[960, 540]",ColorTask,16.0,28.0,,,HRV,HRV_0297,2022-11-30 21:04:56
,wl-rdm,36,190510,0.0-6.28-0.28,0.0,36.0,,,,,,,[],,,,,,62.5,1.0,i,1.0,True,1318.7000000476837,79.0,60.0,40.0,False,,203.74560052838225,[],"[960, 540]",ColorTask,17.0,29.0,,,HRV,HRV_0297,2022-11-30 21:04:56
,wl-rdm,37,193210,0.0-6.29-0.29,0.0,37.0,,,,,,,[],,,,,,56.4,0.0,u,0.0,True,1378.9000000357628,83.0,60.0,40.0,False,,234.84910969375025,[],"[960, 540]",ColorTask,18.0,30.0,,,HRV,HRV_0297,2022-11-30 21:04:56
,wl-rdm,38,195894,0.0-6.30-0.30,0.0,38.0,,,,,,,[],,,,,,53.2,0.0,i,1.0,False,1338.0999999642372,78.0,60.0,40.0,False,,283.18579233714195,[],"[960, 540]",ColorTask,17.0,31.0,,,HRV,HRV_0297,2022-11-30 21:04:56
,wl-rdm,39,197960,0.0-6.31-0.31,0.0,39.0,,,,,,,[],,,,,,87.9,0.0,u,0.0,True,705.5000000596046,43.0,60.0,40.0,False,,270.5490952143422,[],"[960, 540]",ColorTask,18.0,32.0,,,HRV,HRV_0297,2022-11-30 21:04:56
,wl-rdm,40,200193,0.0-6.32-0.32,0.0,40.0,,,,,,,[],,,,,,53.2,1.0,i,1.0,True,937.2999999523163,57.0,60.0,40.0,False,,213.11498405715855,[],"[960, 540]",ColorTask,19.0,33.0,,,HRV,HRV_0297,2022-11-30 21:04:56
,wl-rdm,41,202660,0.0-6.33-0.33,0.0,41.0,,,,,,,[],,,,,,53.2,1.0,u,0.0,False,1009.7000000476837,61.0,60.0,40.0,False,,379.600308615388,[],"[960, 540]",ColorTask,18.0,34.0,,,HRV,HRV_0297,2022-11-30 21:04:56
,wl-rdm,42,205661,0.0-6.34-0.34,0.0,42.0,,,,,,,[],,,,,,53.2,0.0,i,1.0,False,1618.699999988079,97.0,60.0,40.0,False,,284.5973240541409,[],"[960, 540]",ColorTask,17.0,35.0,,,HRV,HRV_0297,2022-11-30 21:04:56
,wl-rdm,43,208694,0.0-6.35-0.35,0.0,43.0,,,,,,,[],,,,,,87.9,0.0,u,0.0,True,1624.6999999284744,98.0,60.0,40.0,False,,349.35360838712563,[],"[960, 540]",ColorTask,18.0,36.0,,,HRV,HRV_0297,2022-11-30 21:04:56
,wl-rdm,44,210960,0.0-6.36-0.36,0.0,44.0,,,,,,,[],,,,,,62.5,1.0,i,1.0,True,962.5,58.0,60.0,40.0,False,,234.1111932253619,[],"[960, 540]",ColorTask,19.0,37.0,,,HRV,HRV_0297,2022-11-30 21:04:56
,wl-rdm,45,213294,0.0-6.37-0.37,0.0,45.0,,,,,,,[],,,,,,53.2,1.0,u,0.0,False,1031.800000011921,62.0,60.0,40.0,False,,223.72948821255574,[],"[960, 540]",ColorTask,18.0,38.0,,,HRV,HRV_0297,2022-11-30 21:04:56
,wl-rdm,46,216178,0.0-6.38-0.38,0.0,46.0,,,,,,,[],,,,,,50.0,0.0,i,1.0,False,1586.0,96.0,60.0,40.0,False,,208.93386869234146,[],"[960, 540]",ColorTask,17.0,39.0,,,HRV,HRV_0297,2022-11-30 21:04:56
,wl-rdm,47,218411,0.0-6.39-0.39,0.0,47.0,,,,,,,[],,,,,,56.4,0.0,u,0.0,True,927.9999999403954,56.0,60.0,40.0,False,,222.38962660739477,[],"[960, 540]",ColorTask,18.0,40.0,,,HRV,HRV_0297,2022-11-30 21:04:56
,wl-rdm,48,220944,0.0-6.40-0.40,0.0,48.0,,,,,,,[],,,,,,56.4,1.0,u,0.0,False,1086.5,66.0,60.0,40.0,False,,379.4942373113828,[],"[960, 540]",ColorTask,17.0,41.0,,,HRV,HRV_0297,2022-11-30 21:04:56
,wl-rdm,49,223344,0.0-6.41-0.41,0.0,49.0,,,,,,,[],,,,,,62.5,1.0,i,1.0,True,1022.1999999880791,62.0,60.0,40.0,False,,303.57854950880693,[],"[960, 540]",ColorTask,18.0,42.0,,,HRV,HRV_0297,2022-11-30 21:04:56
,wl-rdm,50,226072,0.0-6.42-0.42,0.0,50.0,,,,,,,[],,,,,,53.2,0.0,u,0.0,True,1318.300000011921,80.0,60.0,40.0,False,,324.2854293717884,[],"[960, 540]",ColorTask,19.0,43.0,,,HRV,HRV_0297,2022-11-30 21:04:56
,wl-rdm,51,228777,0.0-6.43-0.43,0.0,51.0,,,,,,,[],,,,,,50.0,0.0,u,0.0,True,1404.0999999642372,85.0,60.0,40.0,False,,230.0429941857175,[],"[960, 540]",ColorTask,20.0,44.0,,,HRV,HRV_0297,2022-11-30 21:04:56
,wl-rdm,52,231580,0.0-6.44-0.44,0.0,52.0,,,,,,,[],,,,,,53.2,1.0,u,0.0,False,1453.300000011921,88.0,60.0,40.0,False,,283.6241679313493,[],"[960, 540]",ColorTask,19.0,45.0,,,HRV,HRV_0297,2022-11-30 21:04:56
,wl-rdm,53,233845,0.0-6.45-0.45,0.0,53.0,,,,,,,[],,,,,,87.9,1.0,i,1.0,True,907.7999999523163,55.0,60.0,40.0,False,,282.73264434379223,[],"[960, 540]",ColorTask,20.0,46.0,,,HRV,HRV_0297,2022-11-30 21:04:56
,wl-rdm,54,236528,0.0-6.46-0.46,0.0,54.0,,,,,,,[],,,,,,73.6,1.0,i,1.0,True,1339.300000011921,81.0,60.0,40.0,False,,251.77525636397883,[],"[960, 540]",ColorTask,21.0,47.0,,,HRV,HRV_0297,2022-11-30 21:04:56
,wl-rdm,55,239094,0.0-6.47-0.47,0.0,55.0,,,,,,,[],,,,,,62.5,0.0,u,0.0,True,1148.9000000357628,69.0,60.0,40.0,False,,346.60997687262267,[],"[960, 540]",ColorTask,22.0,48.0,,,HRV,HRV_0297,2022-11-30 21:04:56
,wl-rdm,56,241828,0.0-6.48-0.48,0.0,56.0,,,,,,,[],,,,,,87.9,1.0,i,1.0,True,1425.5,86.0,60.0,40.0,False,,241.13262003630564,[],"[960, 540]",ColorTask,23.0,49.0,,,HRV,HRV_0297,2022-11-30 21:04:56
,wl-rdm,57,244595,0.0-6.49-0.49,0.0,57.0,,,,,,,[],,,,,,53.2,1.0,u,0.0,False,1310.9000000357628,79.0,60.0,40.0,False,,392.38386797065834,[],"[960, 540]",ColorTask,22.0,50.0,,,HRV,HRV_0297,2022-11-30 21:04:56
,wl-rdm,58,247095,0.0-6.50-0.50,0.0,58.0,,,,,,,[],,,,,,50.0,1.0,u,0.0,False,1181.0999999642372,71.0,60.0,40.0,False,,264.8017261689407,[],"[960, 540]",ColorTask,21.0,51.0,,,HRV,HRV_0297,2022-11-30 21:04:56
,wl-rdm,59,249796,0.0-6.51-0.51,0.0,59.0,,,,,,,[],,,,,,50.0,1.0,i,1.0,True,1311.5,79.0,60.0,40.0,False,,303.2244429186199,[],"[960, 540]",ColorTask,22.0,52.0,,,HRV,HRV_0297,2022-11-30 21:04:56
,wl-rdm,60,253245,0.0-6.52-0.52,0.0,60.0,,,,,,,[],,,,,,87.9,0.0,u,0.0,True,2151.3000000715256,130.0,60.0,40.0,False,,232.9913712012786,[],"[960, 540]",ColorTask,23.0,53.0,,,HRV,HRV_0297,2022-11-30 21:04:56
,wl-rdm,61,256145,0.0-6.53-0.53,0.0,61.0,,,,,,,[],,,,,,53.2,0.0,u,0.0,True,1505.300000011921,91.0,60.0,40.0,False,,326.66400591283684,[],"[960, 540]",ColorTask,24.0,54.0,,,HRV,HRV_0297,2022-11-30 21:04:56
,wl-rdm,62,259262,0.0-6.54-0.54,0.0,62.0,,,,,,,[],,,,,,50.0,1.0,u,0.0,False,1832.2000000476837,110.0,60.0,40.0,False,,230.183662705344,[],"[960, 540]",ColorTask,23.0,55.0,,,HRV,HRV_0297,2022-11-30 21:04:56
,wl-rdm,63,261785,0.0-6.55-0.55,0.0,63.0,,,,,,,[],,,,,,53.2,0.0,i,1.0,False,1044.800000011921,63.0,60.0,40.0,False,,382.7332940110968,[],"[960, 540]",ColorTask,22.0,56.0,,,HRV,HRV_0297,2022-11-30 21:04:56
,wl-rdm,64,264462,0.0-6.56-0.56,0.0,64.0,,,,,,,[],,,,,,50.0,0.0,u,0.0,True,1365.0,82.0,60.0,40.0,False,,254.50619754473578,[],"[960, 540]",ColorTask,23.0,57.0,,,HRV,HRV_0297,2022-11-30 21:04:56
,wl-rdm,65,267462,0.0-6.57-0.57,0.0,65.0,,,,,,,[],,,,,,87.9,0.0,u,0.0,True,1591.4000000357628,96.0,60.0,40.0,False,,328.6429187950481,[],"[960, 540]",ColorTask,24.0,58.0,,,HRV,HRV_0297,2022-11-30 21:04:56
,wl-rdm,66,270729,0.0-6.58-0.58,0.0,66.0,,,,,,,[],,,,,,87.9,0.0,u,0.0,True,1971.0,119.0,60.0,40.0,False,,202.50749704161817,[],"[960, 540]",ColorTask,25.0,59.0,,,HRV,HRV_0297,2022-11-30 21:04:56
,wl-rdm,67,273728,0.0-6.59-0.59,0.0,67.0,,,,,,,[],,,,,,62.5,0.0,u,0.0,True,1687.1000000238419,102.0,60.0,40.0,False,,226.08404794451155,[],"[960, 540]",ColorTask,26.0,60.0,,,HRV,HRV_0297,2022-11-30 21:04:56
,wl-rdm,68,276380,0.0-6.60-0.60,0.0,68.0,,,,,,,[],,,,,,73.6,1.0,i,1.0,True,1252.1000000238419,76.0,60.0,40.0,False,,319.98262206478796,[],"[960, 540]",ColorTask,27.0,61.0,,,HRV,HRV_0297,2022-11-30 21:04:56
,wl-rdm,69,279512,0.0-6.61-0.61,0.0,69.0,,,,,,,[],,,,,,73.6,1.0,i,1.0,True,1712.5,103.0,60.0,40.0,False,,358.6611024848642,[],"[960, 540]",ColorTask,28.0,62.0,,,HRV,HRV_0297,2022-11-30 21:04:56
,wl-rdm,70,282413,0.0-6.62-0.62,0.0,70.0,,,,,,,[],,,,,,50.0,1.0,u,0.0,False,1518.699999988079,91.0,60.0,40.0,False,,300.9850732956629,[],"[960, 540]",ColorTask,27.0,63.0,,,HRV,HRV_0297,2022-11-30 21:04:56
,wl-rdm,71,285230,0.0-6.63-0.63,0.0,71.0,,,,,,,[],,,,,,73.6,0.0,u,0.0,True,1517.0000000596046,91.0,60.0,40.0,False,,220.79293162411372,[],"[960, 540]",ColorTask,28.0,64.0,,,HRV,HRV_0297,2022-11-30 21:04:56
,wl-rdm,72,287818,0.0-6.64-0.64,0.0,72.0,,,,,,,[],,,,,,53.2,0.0,i,1.0,False,1292.0999999642372,78.0,60.0,40.0,False,,229.30367881664415,[],"[960, 540]",ColorTask,27.0,65.0,,,HRV,HRV_0297,2022-11-30 21:04:56
,wl-rdm,73,290130,0.0-6.65-0.65,0.0,73.0,,,,,,,[],,,,,,56.4,1.0,u,0.0,False,879.3000000119209,53.0,60.0,40.0,False,,353.7284712114788,[],"[960, 540]",ColorTask,26.0,66.0,,,HRV,HRV_0297,2022-11-30 21:04:56
,wl-rdm,74,293230,0.0-6.66-0.66,0.0,74.0,,,,,,,[],,,,,,53.2,1.0,i,1.0,True,1691.800000011921,101.0,60.0,40.0,False,,325.9581748173843,[],"[960, 540]",ColorTask,27.0,67.0,,,HRV,HRV_0297,2022-11-30 21:04:56
,wl-rdm,75,296297,0.0-6.67-0.67,0.0,75.0,,,,,,,[],,,,,,56.4,0.0,i,1.0,False,1727.7999999523163,105.0,60.0,40.0,False,,224.37551450535648,[],"[960, 540]",ColorTask,26.0,68.0,,,HRV,HRV_0297,2022-11-30 21:04:56
,wl-rdm,76,299480,0.0-6.68-0.68,0.0,76.0,,,,,,,[],,,,,,87.9,0.0,u,0.0,True,1703.699999988079,103.0,60.0,40.0,False,,385.76113145314866,[],"[960, 540]",ColorTask,27.0,69.0,,,HRV,HRV_0297,2022-11-30 21:04:56
,wl-rdm,77,302546,0.0-6.69-0.69,0.0,77.0,,,,,,,[],,,,,,50.0,0.0,u,0.0,True,1694.2999999523163,102.0,60.0,40.0,False,,293.8915118510257,[],"[960, 540]",ColorTask,28.0,70.0,,,HRV,HRV_0297,2022-11-30 21:04:56
,wl-rdm,78,306210,0.0-6.70-0.70,0.0,78.0,,,,,,,[],,,,,,56.4,0.0,i,1.0,False,2334.2000000476837,140.0,60.0,40.0,False,,237.56654345950975,[],"[960, 540]",ColorTask,27.0,71.0,,,HRV,HRV_0297,2022-11-30 21:04:56
,wl-rdm,79,308814,0.0-6.71-0.71,0.0,79.0,,,,,,,[],,,,,,53.2,1.0,i,1.0,True,1317.0999999642372,79.0,60.0,40.0,False,,212.30267761807247,[],"[960, 540]",ColorTask,28.0,72.0,,,HRV,HRV_0297,2022-11-30 21:04:56
,wl-rdm,80,311647,0.0-6.72-0.72,0.0,80.0,,,,,,,[],,,,,,53.2,0.0,u,0.0,True,1504.1000000238419,91.0,60.0,40.0,False,,247.76012775090305,[],"[960, 540]",ColorTask,29.0,73.0,,,HRV,HRV_0297,2022-11-30 21:04:56
,wl-rdm,81,314330,0.0-6.73-0.73,0.0,81.0,,,,,,,[],,,,,,73.6,1.0,i,1.0,True,1255.0999999642372,76.0,60.0,40.0,False,,338.9780937491562,[],"[960, 540]",ColorTask,30.0,74.0,,,HRV,HRV_0297,2022-11-30 21:04:56
,wl-rdm,82,317164,0.0-6.74-0.74,0.0,82.0,,,,,,,[],,,,,,73.6,0.0,u,0.0,True,1410.6000000238419,85.0,60.0,40.0,False,,341.2853608165739,[],"[960, 540]",ColorTask,31.0,75.0,,,HRV,HRV_0297,2022-11-30 21:04:56
,wl-rdm,83,319848,0.0-6.75-0.75,0.0,83.0,,,,,,,[],,,,,,50.0,0.0,i,1.0,False,1419.1000000238419,85.0,60.0,40.0,False,,201.30119275979436,[],"[960, 540]",ColorTask,30.0,76.0,,,HRV,HRV_0297,2022-11-30 21:04:56
,wl-rdm,84,322524,0.0-6.76-0.76,0.0,84.0,,,,,,,[],,,,,,73.6,0.0,u,0.0,True,1396.0,84.0,60.0,40.0,False,,216.3762378115559,[],"[960, 540]",ColorTask,31.0,77.0,,,HRV,HRV_0297,2022-11-30 21:04:56
,wl-rdm,85,325531,0.0-6.77-0.77,0.0,85.0,,,,,,,[],,,,,,73.6,0.0,u,0.0,True,1703.9000000357628,103.0,60.0,40.0,False,,230.55255234763064,[],"[960, 540]",ColorTask,32.0,78.0,,,HRV,HRV_0297,2022-11-30 21:04:56
,wl-rdm,86,328831,0.0-6.78-0.78,0.0,86.0,,,,,,,[],,,,,,53.2,0.0,i,1.0,False,1906.6000000238419,115.0,60.0,40.0,False,,303.9688522795834,[],"[960, 540]",ColorTask,31.0,79.0,,,HRV,HRV_0297,2022-11-30 21:04:56
,wl-rdm,87,332181,0.0-6.79-0.79,0.0,87.0,,,,,,,[],,,,,,50.0,1.0,u,0.0,False,2009.300000011921,121.0,60.0,40.0,False,,256.6890571317028,[],"[960, 540]",ColorTask,30.0,80.0,,,HRV,HRV_0297,2022-11-30 21:04:56
,wl-rdm,88,334933,0.0-6.80-0.80,0.0,88.0,,,,,,,[],,,,,,56.4,1.0,i,1.0,True,1403.1000000238419,85.0,60.0,40.0,False,,270.0573838618392,[],"[960, 540]",ColorTask,31.0,81.0,,,HRV,HRV_0297,2022-11-30 21:04:56
,wl-rdm,89,337487,0.0-6.81-0.81,0.0,89.0,,,,,,,[],,,,,,50.0,0.0,u,0.0,True,1236.9999999403954,75.0,60.0,40.0,False,,244.0734485240491,[],"[960, 540]",ColorTask,32.0,82.0,,,HRV,HRV_0297,2022-11-30 21:04:56
,wl-rdm,90,340414,0.0-6.82-0.82,0.0,90.0,,,,,,,[],,,,,,87.9,1.0,i,1.0,True,1623.699999988079,98.0,60.0,40.0,False,,230.1905992774987,[],"[960, 540]",ColorTask,33.0,83.0,,,HRV,HRV_0297,2022-11-30 21:04:56
,wl-rdm,91,343247,0.0-6.83-0.83,0.0,91.0,,,,,,,[],,,,,,56.4,1.0,i,1.0,True,1439.199999988079,87.0,60.0,40.0,False,,333.40891797369534,[],"[960, 540]",ColorTask,34.0,84.0,,,HRV,HRV_0297,2022-11-30 21:04:56
,wl-rdm,92,346114,0.0-6.84-0.84,0.0,92.0,,,,,,,[],,,,,,62.5,0.0,u,0.0,True,1481.0,89.0,60.0,40.0,False,,316.2980302034965,[],"[960, 540]",ColorTask,35.0,85.0,,,HRV,HRV_0297,2022-11-30 21:04:56
,wl-rdm,93,348530,0.0-6.85-0.85,0.0,93.0,,,,,,,[],,,,,,62.5,0.0,u,0.0,True,1094.0,66.0,60.0,40.0,False,,236.25274173433442,[],"[960, 540]",ColorTask,36.0,86.0,,,HRV,HRV_0297,2022-11-30 21:04:56
,wl-rdm,94,351397,0.0-6.86-0.86,0.0,94.0,,,,,,,[],,,,,,50.0,1.0,i,1.0,True,1417.6000000238419,85.0,60.0,40.0,False,,371.9161913777658,[],"[960, 540]",ColorTask,37.0,87.0,,,HRV,HRV_0297,2022-11-30 21:04:56
,wl-rdm,95,353914,0.0-6.87-0.87,0.0,95.0,,,,,,,[],,,,,,62.5,1.0,u,0.0,False,1169.9000000357628,71.0,60.0,40.0,False,,256.5019137814715,[],"[960, 540]",ColorTask,36.0,88.0,,,HRV,HRV_0297,2022-11-30 21:04:56
,wl-rdm,96,356714,0.0-6.88-0.88,0.0,96.0,,,,,,,[],,,,,,50.0,1.0,i,1.0,True,1486.3999999761581,89.0,60.0,40.0,False,,245.81947994205507,[],"[960, 540]",ColorTask,37.0,89.0,,,HRV,HRV_0297,2022-11-30 21:04:56
,wl-rdm,97,359714,0.0-6.89-0.89,0.0,97.0,,,,,,,[],,,,,,73.6,1.0,i,1.0,True,1686.9000000357628,102.0,60.0,40.0,False,,231.11030216665424,[],"[960, 540]",ColorTask,38.0,90.0,,,HRV,HRV_0297,2022-11-30 21:04:56
,wl-rdm,98,363014,0.0-6.90-0.90,0.0,98.0,,,,,,,[],,,,,,73.6,1.0,u,0.0,False,1980.699999988079,119.0,60.0,40.0,False,,233.31707547815148,[],"[960, 540]",ColorTask,37.0,91.0,,,HRV,HRV_0297,2022-11-30 21:04:56
,wl-rdm,99,366230,0.0-6.91-0.91,0.0,99.0,,,,,,,[],,,,,,87.9,1.0,i,1.0,True,1947.1000000238419,117.0,60.0,40.0,False,,203.13758690092226,[],"[960, 540]",ColorTask,38.0,92.0,,,HRV,HRV_0297,2022-11-30 21:04:56
,wl-rdm,100,370381,0.0-6.92-0.92,0.0,100.0,,,,,,,[],,,,,,50.0,1.0,i,1.0,True,2816.800000011921,170.0,60.0,40.0,False,,239.29538575390262,[],"[960, 540]",ColorTask,39.0,93.0,,,HRV,HRV_0297,2022-11-30 21:04:56
,wl-rdm,101,373547,0.0-6.93-0.93,0.0,101.0,,,,,,,[],,,,,,50.0,1.0,u,0.0,False,1835.300000011921,110.0,60.0,40.0,False,,253.4510368231892,[],"[960, 540]",ColorTask,38.0,94.0,,,HRV,HRV_0297,2022-11-30 21:04:56
,wl-rdm,102,375981,0.0-6.94-0.94,0.0,102.0,,,,,,,[],,,,,,73.6,0.0,u,0.0,True,1098.2999999523163,64.0,60.0,40.0,False,,264.7554729908505,[],"[960, 540]",ColorTask,39.0,95.0,,,HRV,HRV_0297,2022-11-30 21:04:56
,wl-rdm,103,380148,0.0-6.95-0.95,0.0,103.0,,,,,,,[],,,,,,62.5,1.0,i,1.0,True,2886.600000023842,173.0,60.0,40.0,False,,216.3727875518616,[],"[960, 540]",ColorTask,40.0,96.0,,,HRV,HRV_0297,2022-11-30 21:04:56
,wl-rdm,104,382998,0.0-6.96-0.96,0.0,104.0,,,,,,,[],,,,,,62.5,0.0,u,0.0,True,1395.6000000238419,84.0,60.0,40.0,False,,385.12062346895596,[],"[960, 540]",ColorTask,41.0,97.0,,,HRV,HRV_0297,2022-11-30 21:04:56
,wl-rdm,105,385897,0.0-6.97-0.97,0.0,105.0,,,,,,,[],,,,,,73.6,1.0,i,1.0,True,1577.9000000357628,95.0,60.0,40.0,False,,239.3962182012126,[],"[960, 540]",ColorTask,42.0,98.0,,,HRV,HRV_0297,2022-11-30 21:04:56
,wl-rdm,106,389298,0.0-6.98-0.98,0.0,106.0,,,,,,,[],,,,,,50.0,0.0,i,1.0,False,1935.2000000476837,117.0,60.0,40.0,False,,398.0682993703756,[],"[960, 540]",ColorTask,41.0,99.0,,,HRV,HRV_0297,2022-11-30 21:04:56
,wl-rdm,107,392231,0.0-6.99-0.99,0.0,107.0,,,,,,,[],,,,,,56.4,0.0,u,0.0,True,1588.5,95.0,60.0,40.0,False,,269.7890032597,[],"[960, 540]",ColorTask,42.0,100.0,,,HRV,HRV_0297,2022-11-30 21:04:56
,wl-rdm,108,394866,0.0-6.100-0.100,0.0,108.0,,,,,,,[],,,,,,73.6,1.0,i,1.0,True,1178.7000000476837,71.0,60.0,40.0,False,,386.5504001317294,[],"[960, 540]",ColorTask,43.0,101.0,,,HRV,HRV_0297,2022-11-30 21:04:56
,wl-rdm,109,397548,0.0-6.101-0.101,0.0,109.0,,,,,,,[],,,,,,62.5,0.0,u,0.0,True,1305.1000000238419,79.0,60.0,40.0,False,,303.91114684748163,[],"[960, 540]",ColorTask,44.0,102.0,,,HRV,HRV_0297,2022-11-30 21:04:56
,wl-rdm,110,401298,0.0-6.102-0.102,0.0,110.0,,,,,,,[],,,,,,56.4,1.0,i,1.0,True,2393.699999988079,144.0,60.0,40.0,False,,276.25237471405734,[],"[960, 540]",ColorTask,45.0,103.0,,,HRV,HRV_0297,2022-11-30 21:04:56
,wl-rdm,111,403915,0.0-6.103-0.103,0.0,111.0,,,,,,,[],,,,,,73.6,0.0,u,0.0,True,1218.8999999761581,74.0,60.0,40.0,False,,314.9520959607751,[],"[960, 540]",ColorTask,46.0,104.0,,,HRV,HRV_0297,2022-11-30 21:04:56
,wl-rdm,112,406549,0.0-6.104-0.104,0.0,112.0,,,,,,,[],,,,,,87.9,1.0,i,1.0,True,1334.7000000476837,81.0,60.0,40.0,False,,210.55629356206217,[],"[960, 540]",ColorTask,47.0,105.0,,,HRV,HRV_0297,2022-11-30 21:04:56
,wl-rdm,113,410215,0.0-6.105-0.105,0.0,113.0,,,,,,,[],,,,,,53.2,1.0,u,0.0,False,2289.300000011921,138.0,60.0,40.0,False,,286.7872825309978,[],"[960, 540]",ColorTask,46.0,106.0,,,HRV,HRV_0297,2022-11-30 21:04:56
,wl-rdm,114,413065,0.0-6.106-0.106,0.0,114.0,,,,,,,[],,,,,,87.9,1.0,i,1.0,True,1535.4000000357628,93.0,60.0,40.0,False,,246.69050307226897,[],"[960, 540]",ColorTask,47.0,107.0,,,HRV,HRV_0297,2022-11-30 21:04:56
,wl-rdm,115,416115,0.0-6.107-0.107,0.0,115.0,,,,,,,[],,,,,,53.2,1.0,u,0.0,False,1751.800000011921,106.0,60.0,40.0,False,,204.43070019746423,[],"[960, 540]",ColorTask,46.0,108.0,,,HRV,HRV_0297,2022-11-30 21:04:56
,wl-html-keyboard-response,116,423801,0.0-7.0-0.0,1.0,116.0,,,,,,,,5680.800000011921,1.0,0,,,,,,,,,,,,,,,,,,,,,,HRV,HRV_0297,2022-11-30 21:04:56
,wl-rdm,117,426082,0.0-8.0-0.0,1.0,117.0,,,,,,,[],,,,,,87.9,1.0,i,1.0,True,939.7000000476837,58.0,60.0,40.0,False,,257.5278603933335,[],"[960, 540]",ColorTask,47.0,1.0,,,HRV,HRV_0297,2022-11-30 21:04:56
,wl-rdm,118,429220,0.0-8.1-0.1,1.0,118.0,,,,,,,[],,,,,,56.4,0.0,u,0.0,True,1763.7000000476837,106.0,60.0,40.0,False,,288.69077189467714,[],"[960, 540]",ColorTask,48.0,2.0,,,HRV,HRV_0297,2022-11-30 21:04:56
,wl-rdm,119,432816,0.0-8.2-0.2,1.0,119.0,,,,,,,[],,,,,,50.0,1.0,u,0.0,False,2245.699999988079,135.0,60.0,40.0,False,,296.47393157068075,[],"[960, 540]",ColorTask,47.0,3.0,,,HRV,HRV_0297,2022-11-30 21:04:56
,wl-rdm,120,435166,0.0-8.3-0.3,1.0,120.0,,,,,,,[],,,,,,87.9,0.0,u,0.0,True,956.0,58.0,60.0,40.0,False,,310.0533482775414,[],"[960, 540]",ColorTask,48.0,4.0,,,HRV,HRV_0297,2022-11-30 21:04:56
,wl-rdm,121,437515,0.0-8.4-0.4,1.0,121.0,,,,,,,[],,,,,,50.0,1.0,i,1.0,True,1051.8999999761581,64.0,60.0,40.0,False,,205.77775503239974,[],"[960, 540]",ColorTask,49.0,5.0,,,HRV,HRV_0297,2022-11-30 21:04:56
,wl-rdm,122,439816,0.0-8.5-0.5,1.0,122.0,,,,,,,[],,,,,,56.4,0.0,u,0.0,True,977.3999999761581,59.0,60.0,40.0,False,,246.126568069748,[],"[960, 540]",ColorTask,50.0,6.0,,,HRV,HRV_0297,2022-11-30 21:04:56
,wl-rdm,123,442633,0.0-8.6-0.6,1.0,123.0,,,,,,,[],,,,,,56.4,1.0,i,1.0,True,1500.0,91.0,60.0,40.0,False,,246.13417790219424,[],"[960, 540]",ColorTask,51.0,7.0,,,HRV,HRV_0297,2022-11-30 21:04:56
,wl-rdm,124,446983,0.0-8.7-0.7,1.0,123.0,,,,,,,[],,,,,,50.0,1.0,,,,,179.0,60.0,40.0,True,RT_timeout ,258.95180303016417,[],"[960, 540]",ColorTask,50.0,8.0,,,HRV,HRV_0297,2022-11-30 21:04:56
,wl-rdm,125,449116,0.0-8.8-0.8,1.0,124.0,,,,,,,[],,,,,,62.5,0.0,i,1.0,False,816.8000000119209,49.0,60.0,40.0,False,,239.32884478681433,[],"[960, 540]",ColorTask,49.0,9.0,,,HRV,HRV_0297,2022-11-30 21:04:56
,wl-rdm,126,451383,0.0-8.9-0.9,1.0,125.0,,,,,,,[],,,,,,50.0,1.0,u,0.0,False,931.1999999880791,56.0,60.0,40.0,False,,263.12264345589557,[],"[960, 540]",ColorTask,48.0,10.0,,,HRV,HRV_0297,2022-11-30 21:04:56
,wl-rdm,127,453851,0.0-8.10-0.10,1.0,126.0,,,,,,,[],,,,,,73.6,0.0,u,0.0,True,1119.1000000238419,68.0,60.0,40.0,False,,282.3012157639738,[],"[960, 540]",ColorTask,49.0,11.0,,,HRV,HRV_0297,2022-11-30 21:04:56
,wl-rdm,128,456618,0.0-8.11-0.11,1.0,127.0,,,,,,,[],,,,,,62.5,0.0,i,1.0,False,1455.199999988079,88.0,60.0,40.0,False,,246.86111922058987,[],"[960, 540]",ColorTask,48.0,12.0,,,HRV,HRV_0297,2022-11-30 21:04:56
,wl-rdm,129,459216,0.0-8.12-0.12,1.0,128.0,,,,,,,[],,,,,,56.4,1.0,u,0.0,False,1311.8000000715256,79.0,60.0,40.0,False,,222.74926186452137,[],"[960, 540]",ColorTask,47.0,13.0,,,HRV,HRV_0297,2022-11-30 21:04:56
,wl-rdm,130,461717,0.0-8.13-0.13,1.0,129.0,,,,,,,[],,,,,,50.0,1.0,u,0.0,False,1042.5,63.0,60.0,40.0,False,,371.64019031706664,[],"[960, 540]",ColorTask,46.0,14.0,,,HRV,HRV_0297,2022-11-30 21:04:56
,wl-rdm,131,465550,0.0-8.14-0.14,1.0,130.0,,,,,,,[],,,,,,73.6,1.0,i,1.0,True,2492.800000011921,150.0,60.0,40.0,False,,257.78881805595,[],"[960, 540]",ColorTask,47.0,15.0,,,HRV,HRV_0297,2022-11-30 21:04:56
,wl-rdm,132,467766,0.0-8.15-0.15,1.0,131.0,,,,,,,[],,,,,,87.9,1.0,i,1.0,True,920.5,55.0,60.0,40.0,False,,226.62475163919453,[],"[960, 540]",ColorTask,48.0,16.0,,,HRV,HRV_0297,2022-11-30 21:04:56
,wl-rdm,133,470183,0.0-8.16-0.16,1.0,132.0,,,,,,,[],,,,,,73.6,1.0,i,1.0,True,1121.4000000357628,68.0,60.0,40.0,False,,222.8693670286079,[],"[960, 540]",ColorTask,49.0,17.0,,,HRV,HRV_0297,2022-11-30 21:04:56
,wl-rdm,134,472800,0.0-8.17-0.17,1.0,133.0,,,,,,,[],,,,,,56.4,0.0,i,1.0,False,1210.300000011921,73.0,60.0,40.0,False,,327.4396687490677,[],"[960, 540]",ColorTask,48.0,18.0,,,HRV,HRV_0297,2022-11-30 21:04:56
,wl-rdm,135,475900,0.0-8.18-0.18,1.0,134.0,,,,,,,[],,,,,,56.4,1.0,u,0.0,False,1774.699999988079,107.0,60.0,40.0,False,,252.99762032989344,[],"[960, 540]",ColorTask,47.0,19.0,,,HRV,HRV_0297,2022-11-30 21:04:56
,wl-rdm,136,479733,0.0-8.19-0.19,1.0,135.0,,,,,,,[],,,,,,56.4,0.0,u,0.0,True,2564.899999976158,154.0,60.0,40.0,False,,211.62065240862418,[],"[960, 540]",ColorTask,48.0,20.0,,,HRV,HRV_0297,2022-11-30 21:04:56
,wl-rdm,137,482483,0.0-8.20-0.20,1.0,136.0,,,,,,,[],,,,,,87.9,1.0,i,1.0,True,1459.0,88.0,60.0,40.0,False,,206.48916237499463,[],"[960, 540]",ColorTask,49.0,21.0,,,HRV,HRV_0297,2022-11-30 21:04:56
,wl-rdm,138,485650,0.0-8.21-0.21,1.0,137.0,,,,,,,[],,,,,,50.0,1.0,i,1.0,True,1752.4000000357628,106.0,60.0,40.0,False,,338.5333961519614,[],"[960, 540]",ColorTask,50.0,22.0,,,HRV,HRV_0297,2022-11-30 21:04:56
,wl-rdm,139,487734,0.0-8.22-0.22,1.0,138.0,,,,,,,[],,,,,,87.9,0.0,u,0.0,True,748.4000000357628,45.0,60.0,40.0,False,,279.6723847109216,[],"[960, 540]",ColorTask,51.0,23.0,,,HRV,HRV_0297,2022-11-30 21:04:56
,wl-rdm,140,489950,0.0-8.23-0.23,1.0,139.0,,,,,,,[],,,,,,50.0,0.0,u,0.0,True,829.8000000119209,50.0,60.0,40.0,False,,314.50922018509607,[],"[960, 540]",ColorTask,52.0,24.0,,,HRV,HRV_0297,2022-11-30 21:04:56
,wl-rdm,141,492501,0.0-8.24-0.24,1.0,140.0,,,,,,,[],,,,,,87.9,1.0,i,1.0,True,1241.699999988079,75.0,60.0,40.0,False,,229.81215281094643,[],"[960, 540]",ColorTask,53.0,25.0,,,HRV,HRV_0297,2022-11-30 21:04:56
,wl-rdm,142,495251,0.0-8.25-0.25,1.0,141.0,,,,,,,[],,,,,,73.6,1.0,i,1.0,True,1418.699999988079,86.0,60.0,40.0,False,,252.714763561002,[],"[960, 540]",ColorTask,54.0,26.0,,,HRV,HRV_0297,2022-11-30 21:04:56
,wl-rdm,143,497668,0.0-8.26-0.26,1.0,142.0,,,,,,,[],,,,,,53.2,0.0,u,0.0,True,959.8000000119209,58.0,60.0,40.0,False,,369.8953606544447,[],"[960, 540]",ColorTask,55.0,27.0,,,HRV,HRV_0297,2022-11-30 21:04:56
,wl-rdm,144,500784,0.0-8.27-0.27,1.0,143.0,,,,,,,[],,,,,,53.2,0.0,u,0.0,True,1723.0,104.0,60.0,40.0,False,,316.4878584389918,[],"[960, 540]",ColorTask,56.0,28.0,,,HRV,HRV_0297,2022-11-30 21:04:56
,wl-rdm,145,503901,0.0-8.28-0.28,1.0,144.0,,,,,,,[],,,,,,50.0,0.0,i,1.0,False,1832.5,110.0,60.0,40.0,False,,205.84212916536433,[],"[960, 540]",ColorTask,55.0,29.0,,,HRV,HRV_0297,2022-11-30 21:04:56
,wl-rdm,146,506434,0.0-8.29-0.29,1.0,145.0,,,,,,,[],,,,,,62.5,0.0,u,0.0,True,1226.1999999284744,74.0,60.0,40.0,False,,248.41515631565397,[],"[960, 540]",ColorTask,56.0,30.0,,,HRV,HRV_0297,2022-11-30 21:04:56
,wl-rdm,147,508953,0.0-8.30-0.30,1.0,146.0,,,,,,,[],,,,,,87.9,1.0,i,1.0,True,1138.5,69.0,60.0,40.0,False,,298.5289543129078,[],"[960, 540]",ColorTask,57.0,31.0,,,HRV,HRV_0297,2022-11-30 21:04:56
,wl-rdm,148,511084,0.0-8.31-0.31,1.0,147.0,,,,,,,[],,,,,,73.6,0.0,u,0.0,True,800.5,48.0,60.0,40.0,False,,253.2504869612037,[],"[960, 540]",ColorTask,58.0,32.0,,,HRV,HRV_0297,2022-11-30 21:04:56
,wl-rdm,149,515019,0.0-8.32-0.32,1.0,148.0,,,,,,,[],,,,,,56.4,0.0,i,1.0,False,2652.699999988079,160.0,60.0,40.0,False,,207.50251793184856,[],"[960, 540]",ColorTask,57.0,33.0,,,HRV,HRV_0297,2022-11-30 21:04:56
,wl-rdm,150,518768,0.0-8.33-0.33,1.0,149.0,,,,,,,[],,,,,,73.6,1.0,u,0.0,False,2370.7999999523163,143.0,60.0,40.0,False,,304.4455470075032,[],"[960, 540]",ColorTask,56.0,34.0,,,HRV,HRV_0297,2022-11-30 21:04:56
,wl-rdm,151,521501,0.0-8.34-0.34,1.0,150.0,,,,,,,[],,,,,,53.2,1.0,u,0.0,False,1357.5,82.0,60.0,40.0,False,,288.0265821765762,[],"[960, 540]",ColorTask,55.0,35.0,,,HRV,HRV_0297,2022-11-30 21:04:56
,wl-rdm,152,524284,0.0-8.35-0.35,1.0,151.0,,,,,,,[],,,,,,73.6,0.0,u,0.0,True,1348.9000000357628,81.0,60.0,40.0,False,,372.89702344176806,[],"[960, 540]",ColorTask,56.0,36.0,,,HRV,HRV_0297,2022-11-30 21:04:56
,wl-rdm,153,526918,0.0-8.36-0.36,1.0,152.0,,,,,,,[],,,,,,53.2,1.0,u,0.0,False,1258.3999999165535,76.0,60.0,40.0,False,,277.67633348653726,[],"[960, 540]",ColorTask,55.0,37.0,,,HRV,HRV_0297,2022-11-30 21:04:56
,wl-rdm,154,530101,0.0-8.37-0.37,1.0,153.0,,,,,,,[],,,,,,56.4,0.0,u,0.0,True,1849.5,111.0,60.0,40.0,False,,251.24834794171525,[],"[960, 540]",ColorTask,56.0,38.0,,,HRV,HRV_0297,2022-11-30 21:04:56
,wl-rdm,155,532985,0.0-8.38-0.38,1.0,154.0,,,,,,,[],,,,,,62.5,0.0,u,0.0,True,1570.699999988079,95.0,60.0,40.0,False,,221.2864337845143,[],"[960, 540]",ColorTask,57.0,39.0,,,HRV,HRV_0297,2022-11-30 21:04:56
,wl-rdm,156,535121,0.0-8.39-0.39,1.0,155.0,,,,,,,[],,,,,,87.9,1.0,i,1.0,True,847.5,51.0,60.0,40.0,False,,232.50821447002875,[],"[960, 540]",ColorTask,58.0,40.0,,,HRV,HRV_0297,2022-11-30 21:04:56
,wl-rdm,157,538469,0.0-8.40-0.40,1.0,156.0,,,,,,,[],,,,,,62.5,1.0,u,0.0,False,1916.1000000238419,115.0,60.0,40.0,False,,351.2071418383468,[],"[960, 540]",ColorTask,57.0,41.0,,,HRV,HRV_0297,2022-11-30 21:04:56
,wl-rdm,158,540801,0.0-8.41-0.41,1.0,157.0,,,,,,,[],,,,,,87.9,0.0,u,0.0,True,935.6999999880791,57.0,60.0,40.0,False,,313.09776034777144,[],"[960, 540]",ColorTask,58.0,42.0,,,HRV,HRV_0297,2022-11-30 21:04:56
,wl-rdm,159,543585,0.0-8.42-0.42,1.0,158.0,,,,,,,[],,,,,,56.4,1.0,u,0.0,False,1386.0,84.0,60.0,40.0,False,,318.4683428111575,[],"[960, 540]",ColorTask,57.0,43.0,,,HRV,HRV_0297,2022-11-30 21:04:56
,wl-rdm,160,546368,0.0-8.43-0.43,1.0,159.0,,,,,,,[],,,,,,53.2,1.0,i,1.0,True,1353.8999999165535,82.0,60.0,40.0,False,,350.23928234641716,[],"[960, 540]",ColorTask,58.0,44.0,,,HRV,HRV_0297,2022-11-30 21:04:56
,wl-rdm,161,548939,0.0-8.44-0.44,1.0,160.0,,,,,,,[],,,,,,62.5,1.0,i,1.0,True,1155.5,70.0,60.0,40.0,False,,323.9820198606852,[],"[960, 540]",ColorTask,59.0,45.0,,,HRV,HRV_0297,2022-11-30 21:04:56
,wl-rdm,162,551552,0.0-8.45-0.45,1.0,161.0,,,,,,,[],,,,,,50.0,0.0,u,0.0,True,1178.300000011921,71.0,60.0,40.0,False,,381.2052082428753,[],"[960, 540]",ColorTask,60.0,46.0,,,HRV,HRV_0297,2022-11-30 21:04:56
,wl-rdm,163,554202,0.0-8.46-0.46,1.0,162.0,,,,,,,[],,,,,,73.6,0.0,u,0.0,True,1194.3999999761581,72.0,60.0,40.0,False,,373.49401903938394,[],"[960, 540]",ColorTask,61.0,47.0,,,HRV,HRV_0297,2022-11-30 21:04:56
,wl-rdm,164,556302,0.0-8.47-0.47,1.0,163.0,,,,,,,[],,,,,,62.5,0.0,u,0.0,True,795.1000000238419,48.0,60.0,40.0,False,,240.5025412229,[],"[960, 540]",ColorTask,62.0,48.0,,,HRV,HRV_0297,2022-11-30 21:04:56
,wl-rdm,165,559218,0.0-8.48-0.48,1.0,164.0,,,,,,,[],,,,,,62.5,1.0,i,1.0,True,1609.5999999642372,97.0,60.0,40.0,False,,230.02864351480255,[],"[960, 540]",ColorTask,63.0,49.0,,,HRV,HRV_0297,2022-11-30 21:04:56
,wl-rdm,166,562185,0.0-8.49-0.49,1.0,165.0,,,,,,,[],,,,,,53.2,0.0,u,0.0,True,1627.1000000238419,98.0,60.0,40.0,False,,269.7412651110543,[],"[960, 540]",ColorTask,64.0,50.0,,,HRV,HRV_0297,2022-11-30 21:04:56
,wl-rdm,167,565518,0.0-8.50-0.50,1.0,166.0,,,,,,,[],,,,,,56.4,1.0,i,1.0,True,1889.3999999761581,114.0,60.0,40.0,False,,355.4579594237891,[],"[960, 540]",ColorTask,65.0,51.0,,,HRV,HRV_0297,2022-11-30 21:04:56
,wl-rdm,168,568118,0.0-8.51-0.51,1.0,167.0,,,,,,,[],,,,,,62.5,1.0,u,0.0,False,1179.800000011921,71.0,60.0,40.0,False,,366.19655883293694,[],"[960, 540]",ColorTask,64.0,52.0,,,HRV,HRV_0297,2022-11-30 21:04:56
,wl-rdm,169,571369,0.0-8.52-0.52,1.0,168.0,,,,,,,[],,,,,,53.2,0.0,u,0.0,True,1819.4000000357628,110.0,60.0,40.0,False,,361.9705675401708,[],"[960, 540]",ColorTask,65.0,53.0,,,HRV,HRV_0297,2022-11-30 21:04:56
,wl-rdm,170,573719,0.0-8.53-0.53,1.0,169.0,,,,,,,[],,,,,,62.5,1.0,i,1.0,True,1045.9000000357628,63.0,60.0,40.0,False,,244.7482602200912,[],"[960, 540]",ColorTask,66.0,54.0,,,HRV,HRV_0297,2022-11-30 21:04:56
,wl-rdm,171,576235,0.0-8.54-0.54,1.0,170.0,,,,,,,[],,,,,,50.0,0.0,i,1.0,False,1066.0999999642372,64.0,60.0,40.0,False,,385.7844518565371,[],"[960, 540]",ColorTask,65.0,55.0,,,HRV,HRV_0297,2022-11-30 21:04:56
,wl-rdm,172,578419,0.0-8.55-0.55,1.0,171.0,,,,,,,[],,,,,,53.2,1.0,u,0.0,False,809.5,49.0,60.0,40.0,False,,286.14057335908916,[],"[960, 540]",ColorTask,64.0,56.0,,,HRV,HRV_0297,2022-11-30 21:04:56
,wl-rdm,173,581369,0.0-8.56-0.56,1.0,172.0,,,,,,,[],,,,,,87.9,0.0,u,0.0,True,1579.300000011921,95.0,60.0,40.0,False,,281.2082972019249,[],"[960, 540]",ColorTask,65.0,57.0,,,HRV,HRV_0297,2022-11-30 21:04:56
,wl-rdm,174,584336,0.0-8.57-0.57,1.0,173.0,,,,,,,[],,,,,,62.5,1.0,u,0.0,False,1654.800000011921,100.0,60.0,40.0,False,,224.3184331599877,[],"[960, 540]",ColorTask,64.0,58.0,,,HRV,HRV_0297,2022-11-30 21:04:56
,wl-rdm,175,586738,0.0-8.58-0.58,1.0,174.0,,,,,,,[],,,,,,62.5,1.0,i,1.0,True,1055.5,64.0,60.0,40.0,False,,277.5029352338745,[],"[960, 540]",ColorTask,65.0,59.0,,,HRV,HRV_0297,2022-11-30 21:04:56
,wl-rdm,176,588954,0.0-8.59-0.59,1.0,175.0,,,,,,,[],,,,,,87.9,0.0,u,0.0,True,845.5999999642372,51.0,60.0,40.0,False,,306.20764163718843,[],"[960, 540]",ColorTask,66.0,60.0,,,HRV,HRV_0297,2022-11-30 21:04:56
,wl-rdm,177,592386,0.0-8.60-0.60,1.0,176.0,,,,,,,[],,,,,,53.2,0.0,i,1.0,False,2026.6000000238419,122.0,60.0,40.0,False,,329.79526582833677,[],"[960, 540]",ColorTask,65.0,61.0,,,HRV,HRV_0297,2022-11-30 21:04:56
,wl-rdm,178,595769,0.0-8.61-0.61,1.0,177.0,,,,,,,[],,,,,,87.9,0.0,u,0.0,True,2019.0,122.0,60.0,40.0,False,,296.12843981893883,[],"[960, 540]",ColorTask,66.0,62.0,,,HRV,HRV_0297,2022-11-30 21:04:56
,wl-rdm,179,598353,0.0-8.62-0.62,1.0,178.0,,,,,,,[],,,,,,50.0,1.0,i,1.0,True,1236.199999988079,75.0,60.0,40.0,False,,282.70457740027865,[],"[960, 540]",ColorTask,67.0,63.0,,,HRV,HRV_0297,2022-11-30 21:04:56
,wl-rdm,180,602319,0.0-8.63-0.63,1.0,179.0,,,,,,,[],,,,,,56.4,1.0,i,1.0,True,2510.5,151.0,60.0,40.0,False,,375.3396554531988,[],"[960, 540]",ColorTask,68.0,64.0,,,HRV,HRV_0297,2022-11-30 21:04:56
,wl-rdm,181,604623,0.0-8.64-0.64,1.0,180.0,,,,,,,[],,,,,,87.9,1.0,i,1.0,True,866.5999999642372,52.0,60.0,40.0,False,,391.1522718394766,[],"[960, 540]",ColorTask,69.0,65.0,,,HRV,HRV_0297,2022-11-30 21:04:56
,wl-rdm,182,607003,0.0-8.65-0.65,1.0,181.0,,,,,,,[],,,,,,56.4,0.0,u,0.0,True,1050.0,63.0,60.0,40.0,False,,254.31388652997026,[],"[960, 540]",ColorTask,70.0,66.0,,,HRV,HRV_0297,2022-11-30 21:04:56
,wl-rdm,183,609569,0.0-8.66-0.66,1.0,182.0,,,,,,,[],,,,,,73.6,1.0,i,1.0,True,1161.5999999642372,70.0,60.0,40.0,False,,320.6408610691754,[],"[960, 540]",ColorTask,71.0,67.0,,,HRV,HRV_0297,2022-11-30 21:04:56
,wl-rdm,184,612336,0.0-8.67-0.67,1.0,183.0,,,,,,,[],,,,,,56.4,1.0,u,0.0,False,1320.199999988079,80.0,60.0,40.0,False,,362.3391259807872,[],"[960, 540]",ColorTask,70.0,68.0,,,HRV,HRV_0297,2022-11-30 21:04:56
,wl-rdm,185,614989,0.0-8.68-0.68,1.0,184.0,,,,,,,[],,,,,,56.4,0.0,i,1.0,False,1334.1000000238419,80.0,60.0,40.0,False,,259.24223201227085,[],"[960, 540]",ColorTask,69.0,69.0,,,HRV,HRV_0297,2022-11-30 21:04:56
,wl-rdm,186,617805,0.0-8.69-0.69,1.0,185.0,,,,,,,[],,,,,,73.6,1.0,i,1.0,True,1433.5,86.0,60.0,40.0,False,,315.6479676761338,[],"[960, 540]",ColorTask,70.0,70.0,,,HRV,HRV_0297,2022-11-30 21:04:56
,wl-rdm,187,620237,0.0-8.70-0.70,1.0,186.0,,,,,,,[],,,,,,87.9,0.0,u,0.0,True,1058.9000000357628,63.0,60.0,40.0,False,,294.7738599489766,[],"[960, 540]",ColorTask,71.0,71.0,,,HRV,HRV_0297,2022-11-30 21:04:56
,wl-rdm,188,623270,0.0-8.71-0.71,1.0,187.0,,,,,,,[],,,,,,73.6,1.0,i,1.0,True,1613.4000000357628,97.0,60.0,40.0,False,,363.3667314815697,[],"[960, 540]",ColorTask,72.0,72.0,,,HRV,HRV_0297,2022-11-30 21:04:56
,wl-rdm,189,626187,0.0-8.72-0.72,1.0,188.0,,,,,,,[],,,,,,62.5,0.0,u,0.0,True,1500.9000000357628,90.0,60.0,40.0,False,,332.21913778905025,[],"[960, 540]",ColorTask,73.0,73.0,,,HRV,HRV_0297,2022-11-30 21:04:56
,wl-rdm,190,629303,0.0-8.73-0.73,1.0,189.0,,,,,,,[],,,,,,53.2,0.0,u,0.0,True,1736.199999988079,105.0,60.0,40.0,False,,294.5432188370785,[],"[960, 540]",ColorTask,74.0,74.0,,,HRV,HRV_0297,2022-11-30 21:04:56
,wl-rdm,191,632103,0.0-8.74-0.74,1.0,190.0,,,,,,,[],,,,,,50.0,0.0,i,1.0,False,1504.0,91.0,60.0,40.0,False,,219.7173286747221,[],"[960, 540]",ColorTask,73.0,75.0,,,HRV,HRV_0297,2022-11-30 21:04:56
,wl-rdm,192,635237,0.0-8.75-0.75,1.0,191.0,,,,,,,[],,,,,,73.6,0.0,u,0.0,True,1756.300000011921,106.0,60.0,40.0,False,,306.92883283448305,[],"[960, 540]",ColorTask,74.0,76.0,,,HRV,HRV_0297,2022-11-30 21:04:56
,wl-rdm,193,637970,0.0-8.76-0.76,1.0,192.0,,,,,,,[],,,,,,62.5,1.0,i,1.0,True,1285.1000000238419,77.0,60.0,40.0,False,,373.9578993497878,[],"[960, 540]",ColorTask,75.0,77.0,,,HRV,HRV_0297,2022-11-30 21:04:56
,wl-rdm,194,641004,0.0-8.77-0.77,1.0,193.0,,,,,,,[],,,,,,56.4,1.0,i,1.0,True,1591.0999999642372,96.0,60.0,40.0,False,,370.9503629959238,[],"[960, 540]",ColorTask,76.0,78.0,,,HRV,HRV_0297,2022-11-30 21:04:56
,wl-rdm,195,643654,0.0-8.78-0.78,1.0,194.0,,,,,,,[],,,,,,53.2,0.0,i,1.0,False,1281.300000011921,77.0,60.0,40.0,False,,296.6515277600792,[],"[960, 540]",ColorTask,75.0,79.0,,,HRV,HRV_0297,2022-11-30 21:04:56
,wl-rdm,196,646321,0.0-8.79-0.79,1.0,195.0,,,,,,,[],,,,,,53.2,0.0,u,0.0,True,1281.5,77.0,60.0,40.0,False,,320.30180680252965,[],"[960, 540]",ColorTask,76.0,80.0,,,HRV,HRV_0297,2022-11-30 21:04:56
,wl-rdm,197,648621,0.0-8.80-0.80,1.0,196.0,,,,,,,[],,,,,,73.6,1.0,i,1.0,True,1007.1999999880791,61.0,60.0,40.0,False,,200.5612213392954,[],"[960, 540]",ColorTask,77.0,81.0,,,HRV,HRV_0297,2022-11-30 21:04:56
,wl-rdm,198,650954,0.0-8.81-0.81,1.0,197.0,,,,,,,[],,,,,,73.6,0.0,u,0.0,True,1050.5,64.0,60.0,40.0,False,,215.65800470072097,[],"[960, 540]",ColorTask,78.0,82.0,,,HRV,HRV_0297,2022-11-30 21:04:56
,wl-rdm,199,653995,0.0-8.82-0.82,1.0,198.0,,,,,,,[],,,,,,53.2,1.0,i,1.0,True,1766.199999988079,106.0,60.0,40.0,False,,200.65500237327356,[],"[960, 540]",ColorTask,79.0,83.0,,,HRV,HRV_0297,2022-11-30 21:04:56
,wl-rdm,200,657071,0.0-8.83-0.83,1.0,199.0,,,,,,,[],,,,,,53.2,1.0,i,1.0,True,1640.0999999642372,99.0,60.0,40.0,False,,367.6068838343397,[],"[960, 540]",ColorTask,80.0,84.0,,,HRV,HRV_0297,2022-11-30 21:04:56
,wl-rdm,201,659804,0.0-8.84-0.84,1.0,200.0,,,,,,,[],,,,,,62.5,1.0,i,1.0,True,1430.7999999523163,86.0,60.0,40.0,False,,245.01983035270325,[],"[960, 540]",ColorTask,81.0,85.0,,,HRV,HRV_0297,2022-11-30 21:04:56
,wl-rdm,202,662539,0.0-8.85-0.85,1.0,201.0,,,,,,,[],,,,,,56.4,1.0,u,0.0,False,1293.800000011921,78.0,60.0,40.0,False,,352.68033164092174,[],"[960, 540]",ColorTask,80.0,86.0,,,HRV,HRV_0297,2022-11-30 21:04:56
,wl-rdm,203,664721,0.0-8.86-0.86,1.0,202.0,,,,,,,[],,,,,,62.5,0.0,u,0.0,True,844.0999999642372,51.0,60.0,40.0,False,,280.42788190295823,[],"[960, 540]",ColorTask,81.0,87.0,,,HRV,HRV_0297,2022-11-30 21:04:56
,wl-rdm,204,667305,0.0-8.87-0.87,1.0,203.0,,,,,,,[],,,,,,50.0,1.0,i,1.0,True,1186.199999988079,72.0,60.0,40.0,False,,323.58215354673297,[],"[960, 540]",ColorTask,82.0,88.0,,,HRV,HRV_0297,2022-11-30 21:04:56
,wl-rdm,205,671388,0.0-8.88-0.88,1.0,204.0,,,,,,,[],,,,,,50.0,0.0,u,0.0,True,2773.399999976158,167.0,60.0,40.0,False,,227.57777074267108,[],"[960, 540]",ColorTask,83.0,89.0,,,HRV,HRV_0297,2022-11-30 21:04:56
,wl-rdm,206,674888,0.0-8.89-0.89,1.0,205.0,,,,,,,[],,,,,,53.2,1.0,i,1.0,True,2178.399999976158,131.0,60.0,40.0,False,,244.06562346299856,[],"[960, 540]",ColorTask,84.0,90.0,,,HRV,HRV_0297,2022-11-30 21:04:56
,wl-rdm,207,678081,0.0-8.90-0.90,1.0,206.0,,,,,,,[],,,,,,56.4,0.0,u,0.0,True,1887.0,114.0,60.0,40.0,False,,220.74247457945563,[],"[960, 540]",ColorTask,85.0,91.0,,,HRV,HRV_0297,2022-11-30 21:04:56
,wl-rdm,208,680588,0.0-8.91-0.91,1.0,207.0,,,,,,,[],,,,,,87.9,1.0,i,1.0,True,1140.2000000476837,69.0,60.0,40.0,False,,292.6449014597593,[],"[960, 540]",ColorTask,86.0,92.0,,,HRV,HRV_0297,2022-11-30 21:04:56
,wl-rdm,209,682822,0.0-8.92-0.92,1.0,208.0,,,,,,,[],,,,,,73.6,0.0,u,0.0,True,829.6000000238419,50.0,60.0,40.0,False,,328.41295223269566,[],"[960, 540]",ColorTask,87.0,93.0,,,HRV,HRV_0297,2022-11-30 21:04:56
,wl-rdm,210,685738,0.0-8.93-0.93,1.0,209.0,,,,,,,[],,,,,,62.5,0.0,u,0.0,True,1485.2000000476837,87.0,60.0,40.0,False,,360.43384221426544,[],"[960, 540]",ColorTask,88.0,94.0,,,HRV,HRV_0297,2022-11-30 21:04:56
,wl-rdm,211,688572,0.0-8.94-0.94,1.0,210.0,,,,,,,[],,,,,,62.5,0.0,u,0.0,True,1375.9000000357628,83.0,60.0,40.0,False,,376.70159969279945,[],"[960, 540]",ColorTask,89.0,95.0,,,HRV,HRV_0297,2022-11-30 21:04:56
,wl-rdm,212,690955,0.0-8.95-0.95,1.0,211.0,,,,,,,[],,,,,,53.2,0.0,i,1.0,False,1025.300000011921,62.0,60.0,40.0,False,,270.934514867204,[],"[960, 540]",ColorTask,88.0,96.0,,,HRV,HRV_0297,2022-11-30 21:04:56
,wl-rdm,213,693022,0.0-8.96-0.96,1.0,212.0,,,,,,,[],,,,,,73.6,1.0,i,1.0,True,737.6000000238419,45.0,60.0,40.0,False,,254.99004958706348,[],"[960, 540]",ColorTask,89.0,97.0,,,HRV,HRV_0297,2022-11-30 21:04:56
,wl-rdm,214,696172,0.0-8.97-0.97,1.0,213.0,,,,,,,[],,,,,,53.2,1.0,u,0.0,False,1807.5,109.0,60.0,40.0,False,,267.7364747480819,[],"[960, 540]",ColorTask,88.0,98.0,,,HRV,HRV_0297,2022-11-30 21:04:56
,wl-rdm,215,699155,0.0-8.98-0.98,1.0,214.0,,,,,,,[],,,,,,50.0,1.0,u,0.0,False,1692.9000000357628,102.0,60.0,40.0,False,,216.08627106244074,[],"[960, 540]",ColorTask,87.0,99.0,,,HRV,HRV_0297,2022-11-30 21:04:56
,wl-rdm,216,701339,0.0-8.99-0.99,1.0,215.0,,,,,,,[],,,,,,87.9,0.0,u,0.0,True,885.2000000476837,54.0,60.0,40.0,False,,230.2719313712123,[],"[960, 540]",ColorTask,88.0,100.0,,,HRV,HRV_0297,2022-11-30 21:04:56
,wl-rdm,217,704555,0.0-8.100-0.100,1.0,216.0,,,,,,,[],,,,,,53.2,1.0,u,0.0,False,1757.699999988079,106.0,60.0,40.0,False,,389.70800793559,[],"[960, 540]",ColorTask,87.0,101.0,,,HRV,HRV_0297,2022-11-30 21:04:56
,wl-rdm,218,706722,0.0-8.101-0.101,1.0,217.0,,,,,,,[],,,,,,87.9,1.0,i,1.0,True,886.1999999880791,54.0,60.0,40.0,False,,200.33730978418728,[],"[960, 540]",ColorTask,88.0,102.0,,,HRV,HRV_0297,2022-11-30 21:04:56
,wl-rdm,219,708958,0.0-8.102-0.102,1.0,218.0,,,,,,,[],,,,,,50.0,0.0,i,1.0,False,772.6999999880791,47.0,60.0,40.0,False,,391.90675684596033,[],"[960, 540]",ColorTask,87.0,103.0,,,HRV,HRV_0297,2022-11-30 21:04:56
,wl-rdm,220,711207,0.0-8.103-0.103,1.0,219.0,,,,,,,[],,,,,,73.6,0.0,u,0.0,True,789.0,48.0,60.0,40.0,False,,391.1591578564844,[],"[960, 540]",ColorTask,88.0,104.0,,,HRV,HRV_0297,2022-11-30 21:04:56
,wl-rdm,221,714422,0.0-8.104-0.104,1.0,220.0,,,,,,,[],,,,,,50.0,0.0,i,1.0,False,1796.7000000476837,108.0,60.0,40.0,False,,357.27137575009993,[],"[960, 540]",ColorTask,87.0,105.0,,,HRV,HRV_0297,2022-11-30 21:04:56
,wl-rdm,222,717157,0.0-8.105-0.105,1.0,221.0,,,,,,,[],,,,,,87.9,0.0,u,0.0,True,1375.800000011921,83.0,60.0,40.0,False,,293.5355083223776,[],"[960, 540]",ColorTask,88.0,106.0,,,HRV,HRV_0297,2022-11-30 21:04:56
,wl-rdm,223,719473,0.0-8.106-0.106,1.0,222.0,,,,,,,[],,,,,,73.6,0.0,u,0.0,True,853.6999999880791,52.0,60.0,40.0,False,,382.1439040390359,[],"[960, 540]",ColorTask,89.0,107.0,,,HRV,HRV_0297,2022-11-30 21:04:56
,wl-rdm,224,722206,0.0-8.107-0.107,1.0,223.0,,,,,,,[],,,,,,50.0,0.0,u,0.0,True,1422.4999999403954,86.0,60.0,40.0,False,,231.78011264324505,[],"[960, 540]",ColorTask,90.0,108.0,,,HRV,HRV_0297,2022-11-30 21:04:56
,wl-rdm,225,724472,0.0-8.108-0.108,1.0,224.0,,,,,,,[],,,,,,50.0,1.0,i,1.0,True,944.7999999523163,57.0,60.0,40.0,False,,236.6309684153747,[],"[960, 540]",ColorTask,91.0,109.0,,,HRV,HRV_0297,2022-11-30 21:04:56
,wl-html-button-response,226,727699,0.0-9.0-0.0,,,,,,,,,,3223.599999964237,,0,,,,,,,,,,,,,,,,,,,,<h3>End of this session. Thank you!</h3><br>,['Close window'],HRV,HRV_0297,2022-11-30 21:04:56
