trialN,stimuli,trialStartTime,trialStartTime_UNIX,stimulus1,stimulus2,stimulus1Bid,stimulus2Bid,delta,selected,rt,rt_UNIX,rt_perfnow,receivedResponse,rsp,trialEndTime,trialDuration,trialEndTime_UNIX,trialDuration_UNIX,exp,subjectId,date
0,"[{'imgObject': {}, 'id': 'corn cob', 'src': '/static/foodstim60/corn cob.jpg', 'key': 'u', 'origWidth': 411, 'origHeight': 411, 'width': 411, 'height': 411, 'widthPercent': 0.45, 'rescaleHeight': False, 'trialN': 0, 'loaded': True, 'loadedTime': 2759.899999976158, 'positionName': 'LEFT', 'positionCoords': [510.6, 334.5], 'bid': 7.55}, {'imgObject': {}, 'id': 'blueberries', 'src': '/static/foodstim60/blueberries.jpg', 'key': 'i', 'origWidth': 411, 'origHeight': 411, 'width': 411, 'height': 411, 'widthPercent': 0.45, 'rescaleHeight': False, 'trialN': 0, 'loaded': True, 'loadedTime': 2859.899999976158, 'positionName': 'RIGHT', 'positionCoords': [998.4, 334.5], 'bid': 7.390000000000001}]",3896.0,1669841240066,corn cob,blueberries,7.55,7.390000000000001,-0.15999999999999925,blueberries,1214.8999999761581,1215,1215.5,True,i,5614.699999988079,1718.699999988079,1669841241785,1719,HRV,HRV_0297,2022-11-30 20:52:40
1,"[{'imgObject': {}, 'id': 'baked potato', 'src': '/static/foodstim60/baked potato.jpg', 'key': 'u', 'origWidth': 409, 'origHeight': 410, 'width': 409, 'height': 410, 'widthPercent': 0.45, 'rescaleHeight': False, 'trialN': 1, 'loaded': True, 'loadedTime': 2905.5, 'positionName': 'LEFT', 'positionCoords': [512.6, 335], 'bid': 6.32}, {'imgObject': {}, 'id': 'shreddedwheatwithmilk', 'src': '/static/foodstim60/shreddedwheatwithmilk.jpg', 'key': 'i', 'origWidth': 410, 'origHeight': 410, 'width': 410, 'height': 410, 'widthPercent': 0.45, 'rescaleHeight': False, 'trialN': 1, 'loaded': True, 'loadedTime': 2910.899999976158, 'positionName': 'RIGHT', 'positionCoords': [998.4, 335], 'bid': 4.09}]",5615.099999964237,1669841241785,baked potato,shreddedwheatwithmilk,6.32,4.09,-2.2300000000000004,baked potato,1087.800000011921,1088,1088.300000011921,True,u,7205.399999976158,1590.300000011921,1669841243375,1590,HRV,HRV_0297,2022-11-30 20:52:40
2,"[{'imgObject': {}, 'id': 'yogurt no spoon', 'src': '/static/foodstim60/yogurt no spoon.jpg', 'key': 'u', 'origWidth': 411, 'origHeight': 410, 'width': 411, 'height': 410, 'widthPercent': 0.45, 'rescaleHeight': False, 'trialN': 2, 'loaded': True, 'loadedTime': 2953.2999999523163, 'positionName': 'LEFT', 'positionCoords': [510.6, 335], 'bid': 6.76}, {'imgObject': {}, 'id': 'cocktailshrimp', 'src': '/static/foodstim60/cocktailshrimp.jpg', 'key': 'i', 'origWidth': 410, 'origHeight': 410, 'width': 410, 'height': 410, 'widthPercent': 0.45, 'rescaleHeight': False, 'trialN': 2, 'loaded': True, 'loadedTime': 2988.7999999523163, 'positionName': 'RIGHT', 'positionCoords': [998.4, 335], 'bid': 8.18}]",7205.699999988079,1669841243376,yogurt no spoon,cocktailshrimp,6.76,8.18,1.42,cocktailshrimp,1641.300000011921,1641,1641.699999988079,True,i,9350.199999988079,2144.5,1669841245520,2144,HRV,HRV_0297,2022-11-30 20:52:40
3,"[{'imgObject': {}, 'id': 'tacos', 'src': '/static/foodstim60/tacos.jpg', 'key': 'u', 'origWidth': 411, 'origHeight': 411, 'width': 411, 'height': 411, 'widthPercent': 0.45, 'rescaleHeight': False, 'trialN': 3, 'loaded': True, 'loadedTime': 3004.899999976158, 'positionName': 'LEFT', 'positionCoords': [510.6, 334.5], 'bid': 9.32}, {'imgObject': {}, 'id': 'mac & cheese', 'src': '/static/foodstim60/mac & cheese.jpg', 'key': 'i', 'origWidth': 410, 'origHeight': 410, 'width': 410, 'height': 410, 'widthPercent': 0.45, 'rescaleHeight': False, 'trialN': 3, 'loaded': True, 'loadedTime': 3021.199999988079, 'positionName': 'RIGHT', 'positionCoords': [998.4, 335], 'bid': 8.17}]",9350.399999976158,1669841245520,tacos,mac & cheese,9.32,8.17,-1.1500000000000004,tacos,736.6000000238419,737,737.1000000238419,True,u,10602.5,1252.1000000238419,1669841246772,1252,HRV,HRV_0297,2022-11-30 20:52:40
4,"[{'imgObject': {}, 'id': 'bagel plain', 'src': '/static/foodstim60/bagel plain.jpg', 'key': 'u', 'origWidth': 410, 'origHeight': 410, 'width': 410, 'height': 410, 'widthPercent': 0.45, 'rescaleHeight': False, 'trialN': 4, 'loaded': True, 'loadedTime': 3087.399999976158, 'positionName': 'LEFT', 'positionCoords': [511.6, 335], 'bid': 6.78}, {'imgObject': {}, 'id': 'sushi w_condiments', 'src': '/static/foodstim60/sushi w_condiments.jpg', 'key': 'i', 'origWidth': 410, 'origHeight': 410, 'width': 410, 'height': 410, 'widthPercent': 0.45, 'rescaleHeight': False, 'trialN': 4, 'loaded': True, 'loadedTime': 3096.5, 'positionName': 'RIGHT', 'positionCoords': [998.4, 335], 'bid': 8.25}]",10602.699999988079,1669841246773,bagel plain,sushi w_condiments,6.78,8.25,1.4699999999999998,sushi w_condiments,1020.5,1021,1020.8999999761581,True,i,12147.899999976158,1545.199999988079,1669841248318,1545,HRV,HRV_0297,2022-11-30 20:52:40
5,"[{'imgObject': {}, 'id': 'chickenfingers', 'src': '/static/foodstim60/chickenfingers.jpg', 'key': 'u', 'origWidth': 410, 'origHeight': 410, 'width': 410, 'height': 410, 'widthPercent': 0.45, 'rescaleHeight': False, 'trialN': 5, 'loaded': True, 'loadedTime': 3099.7999999523163, 'positionName': 'LEFT', 'positionCoords': [511.6, 335], 'bid': 7.71}, {'imgObject': {}, 'id': 'Grapes', 'src': '/static/foodstim60/Grapes.jpg', 'key': 'i', 'origWidth': 411, 'origHeight': 411, 'width': 411, 'height': 411, 'widthPercent': 0.45, 'rescaleHeight': False, 'trialN': 5, 'loaded': True, 'loadedTime': 3102.7999999523163, 'positionName': 'RIGHT', 'positionCoords': [998.4, 334.5], 'bid': 7.95}]",12148.199999988079,1669841248318,chickenfingers,Grapes,7.71,7.95,0.2400000000000002,chickenfingers,2322.399999976158,2333,2332.800000011921,True,u,14982.699999988079,2834.5,1669841251153,2835,HRV,HRV_0297,2022-11-30 20:52:40
6,"[{'imgObject': {}, 'id': 'steak', 'src': '/static/foodstim60/steak.jpg', 'key': 'u', 'origWidth': 410, 'origHeight': 410, 'width': 410, 'height': 410, 'widthPercent': 0.45, 'rescaleHeight': False, 'trialN': 6, 'loaded': True, 'loadedTime': 3104.699999988079, 'positionName': 'LEFT', 'positionCoords': [511.6, 335], 'bid': 8.59}, {'imgObject': {}, 'id': 'luckycharms', 'src': '/static/foodstim60/luckycharms.jpg', 'key': 'i', 'origWidth': 410, 'origHeight': 409, 'width': 410, 'height': 409, 'widthPercent': 0.45, 'rescaleHeight': False, 'trialN': 6, 'loaded': True, 'loadedTime': 3107.699999988079, 'positionName': 'RIGHT', 'positionCoords': [998.4, 335.5], 'bid': 8.55}]",14982.899999976158,1669841251153,steak,luckycharms,8.59,8.55,-0.03999999999999915,steak,2303.800000011921,2304,2304.100000023842,True,u,17789.69999998808,2806.800000011921,1669841253960,2807,HRV,HRV_0297,2022-11-30 20:52:40
7,"[{'imgObject': {}, 'id': 'salmon', 'src': '/static/foodstim60/salmon.jpg', 'key': 'u', 'origWidth': 410, 'origHeight': 409, 'width': 410, 'height': 409, 'widthPercent': 0.45, 'rescaleHeight': False, 'trialN': 7, 'loaded': True, 'loadedTime': 3113, 'positionName': 'LEFT', 'positionCoords': [511.6, 335.5], 'bid': 6.62}, {'imgObject': {}, 'id': 'olives', 'src': '/static/foodstim60/olives.jpg', 'key': 'i', 'origWidth': 410, 'origHeight': 410, 'width': 410, 'height': 410, 'widthPercent': 0.45, 'rescaleHeight': False, 'trialN': 7, 'loaded': True, 'loadedTime': 3113.7999999523163, 'positionName': 'RIGHT', 'positionCoords': [998.4, 335], 'bid': 6.54}]",17789.899999976158,1669841253960,salmon,olives,6.62,6.54,-0.08000000000000007,salmon,2081.100000023842,2081,2081.399999976158,True,u,20374.299999952316,2584.399999976158,1669841256544,2584,HRV,HRV_0297,2022-11-30 20:52:40
8,"[{'imgObject': {}, 'id': 'sushi w_condiments', 'src': '/static/foodstim60/sushi w_condiments.jpg', 'key': 'u', 'origWidth': 410, 'origHeight': 410, 'width': 410, 'height': 410, 'widthPercent': 0.45, 'rescaleHeight': False, 'trialN': 8, 'loaded': True, 'loadedTime': 3096.599999964237, 'positionName': 'LEFT', 'positionCoords': [511.6, 335], 'bid': 8.25}, {'imgObject': {}, 'id': 'avocado', 'src': '/static/foodstim60/avocado.jpg', 'key': 'i', 'origWidth': 409, 'origHeight': 409, 'width': 409, 'height': 409, 'widthPercent': 0.45, 'rescaleHeight': False, 'trialN': 8, 'loaded': True, 'loadedTime': 3122, 'positionName': 'RIGHT', 'positionCoords': [998.4, 335.5], 'bid': 8.53}]",20374.599999964237,1669841256544,sushi w_condiments,avocado,8.25,8.53,0.27999999999999936,sushi w_condiments,1104.1000000238419,1105,1104.4000000357628,True,u,21982.099999964237,1607.5,1669841258152,1608,HRV,HRV_0297,2022-11-30 20:52:40
9,"[{'imgObject': {}, 'id': 'cherry tomato', 'src': '/static/foodstim60/cherry tomato.jpg', 'key': 'u', 'origWidth': 410, 'origHeight': 410, 'width': 410, 'height': 410, 'widthPercent': 0.45, 'rescaleHeight': False, 'trialN': 9, 'loaded': True, 'loadedTime': 3125.899999976158, 'positionName': 'LEFT', 'positionCoords': [511.6, 335], 'bid': 6.98}, {'imgObject': {}, 'id': 'froot loops w milk', 'src': '/static/foodstim60/froot loops w milk.jpg', 'key': 'i', 'origWidth': 410, 'origHeight': 410, 'width': 410, 'height': 410, 'widthPercent': 0.45, 'rescaleHeight': False, 'trialN': 9, 'loaded': True, 'loadedTime': 3161, 'positionName': 'RIGHT', 'positionCoords': [998.4, 335], 'bid': 7.26}]",21982.299999952316,1669841258152,cherry tomato,froot loops w milk,6.98,7.26,0.27999999999999936,froot loops w milk,1504.7000000476837,1505,1505.1000000238419,True,i,23990.0,2007.7000000476837,1669841260160,2008,HRV,HRV_0297,2022-11-30 20:52:40
10,"[{'imgObject': {}, 'id': 'tacos', 'src': '/static/foodstim60/tacos.jpg', 'key': 'u', 'origWidth': 411, 'origHeight': 411, 'width': 411, 'height': 411, 'widthPercent': 0.45, 'rescaleHeight': False, 'trialN': 10, 'loaded': True, 'loadedTime': 3000.2999999523163, 'positionName': 'LEFT', 'positionCoords': [510.6, 334.5], 'bid': 9.32}, {'imgObject': {}, 'id': 'lox', 'src': '/static/foodstim60/lox.jpg', 'key': 'i', 'origWidth': 410, 'origHeight': 411, 'width': 410, 'height': 411, 'widthPercent': 0.45, 'rescaleHeight': False, 'trialN': 10, 'loaded': True, 'loadedTime': 3201.099999964237, 'positionName': 'RIGHT', 'positionCoords': [998.4, 334.5], 'bid': 7.17}]",23990.19999998808,1669841260160,tacos,lox,9.32,7.17,-2.1500000000000004,tacos,784.3000000119209,785,784.5999999642372,True,u,25277.799999952316,1287.5999999642372,1669841261448,1288,HRV,HRV_0297,2022-11-30 20:52:40
11,"[{'imgObject': {}, 'id': 'bagel and cc', 'src': '/static/foodstim60/bagel and cc.jpg', 'key': 'u', 'origWidth': 410, 'origHeight': 410, 'width': 410, 'height': 410, 'widthPercent': 0.45, 'rescaleHeight': False, 'trialN': 11, 'loaded': True, 'loadedTime': 3207.599999964237, 'positionName': 'LEFT', 'positionCoords': [511.6, 335], 'bid': 8.67}, {'imgObject': {}, 'id': 'chicken nuggets2', 'src': '/static/foodstim60/chicken nuggets2.jpg', 'key': 'i', 'origWidth': 410, 'origHeight': 409, 'width': 410, 'height': 409, 'widthPercent': 0.45, 'rescaleHeight': False, 'trialN': 11, 'loaded': True, 'loadedTime': 3214.899999976158, 'positionName': 'RIGHT', 'positionCoords': [998.4, 335.5], 'bid': 8}]",25278.099999964237,1669841261448,bagel and cc,chicken nuggets2,8.67,8.0,-0.6699999999999999,chicken nuggets2,872.5,873,873.1000000238419,True,i,26654.0,1375.9000000357628,1669841262824,1376,HRV,HRV_0297,2022-11-30 20:52:40
12,"[{'imgObject': {}, 'id': 'rigatoni and sauce', 'src': '/static/foodstim60/rigatoni and sauce.jpg', 'key': 'u', 'origWidth': 410, 'origHeight': 411, 'width': 410, 'height': 411, 'widthPercent': 0.45, 'rescaleHeight': False, 'trialN': 12, 'loaded': True, 'loadedTime': 3226.5, 'positionName': 'LEFT', 'positionCoords': [511.6, 334.5], 'bid': 6.13}, {'imgObject': {}, 'id': 'blackbeanswithrice', 'src': '/static/foodstim60/blackbeanswithrice.jpg', 'key': 'i', 'origWidth': 410, 'origHeight': 410, 'width': 410, 'height': 410, 'widthPercent': 0.45, 'rescaleHeight': False, 'trialN': 12, 'loaded': True, 'loadedTime': 3255.199999988079, 'positionName': 'RIGHT', 'positionCoords': [998.4, 335], 'bid': 2.44}]",26654.19999998808,1669841262824,rigatoni and sauce,blackbeanswithrice,6.13,2.44,-3.69,rigatoni and sauce,2168.599999964237,2169,2168.800000011921,True,u,29325.799999952316,2671.599999964237,1669841265496,2672,HRV,HRV_0297,2022-11-30 20:52:40
13,"[{'imgObject': {}, 'id': 'yogurt no spoon', 'src': '/static/foodstim60/yogurt no spoon.jpg', 'key': 'u', 'origWidth': 411, 'origHeight': 410, 'width': 411, 'height': 410, 'widthPercent': 0.45, 'rescaleHeight': False, 'trialN': 13, 'loaded': True, 'loadedTime': 2922.899999976158, 'positionName': 'LEFT', 'positionCoords': [510.6, 335], 'bid': 6.76}, {'imgObject': {}, 'id': 'eggsalad', 'src': '/static/foodstim60/eggsalad.jpg', 'key': 'i', 'origWidth': 410, 'origHeight': 409, 'width': 410, 'height': 409, 'widthPercent': 0.45, 'rescaleHeight': False, 'trialN': 13, 'loaded': True, 'loadedTime': 3280.199999988079, 'positionName': 'RIGHT', 'positionCoords': [998.4, 335.5], 'bid': 4.17}]",29326.19999998808,1669841265496,yogurt no spoon,eggsalad,6.76,4.17,-2.59,yogurt no spoon,1760.699999988079,1761,1761.199999988079,True,u,31591.599999964237,2265.399999976158,1669841267762,2266,HRV,HRV_0297,2022-11-30 20:52:40
14,"[{'imgObject': {}, 'id': 'turkeysandwich', 'src': '/static/foodstim60/turkeysandwich.jpg', 'key': 'u', 'origWidth': 409, 'origHeight': 409, 'width': 409, 'height': 409, 'widthPercent': 0.45, 'rescaleHeight': False, 'trialN': 14, 'loaded': True, 'loadedTime': 3290, 'positionName': 'LEFT', 'positionCoords': [512.6, 335.5], 'bid': 8.16}, {'imgObject': {}, 'id': 'roastedpotatoes', 'src': '/static/foodstim60/roastedpotatoes.jpg', 'key': 'i', 'origWidth': 409, 'origHeight': 410, 'width': 409, 'height': 410, 'widthPercent': 0.45, 'rescaleHeight': False, 'trialN': 14, 'loaded': True, 'loadedTime': 3320.699999988079, 'positionName': 'RIGHT', 'positionCoords': [998.4, 335], 'bid': 8.02}]",31591.899999976158,1669841267762,turkeysandwich,roastedpotatoes,8.16,8.02,-0.14000000000000057,roastedpotatoes,3006.899999976158,3007,3007.600000023842,True,i,35101.799999952316,3509.899999976158,1669841271272,3510,HRV,HRV_0297,2022-11-30 20:52:40
15,"[{'imgObject': {}, 'id': 'sweetpotato', 'src': '/static/foodstim60/sweetpotato.jpg', 'key': 'u', 'origWidth': 410, 'origHeight': 410, 'width': 410, 'height': 410, 'widthPercent': 0.45, 'rescaleHeight': False, 'trialN': 15, 'loaded': True, 'loadedTime': 3323.5, 'positionName': 'LEFT', 'positionCoords': [511.6, 335], 'bid': 4.17}, {'imgObject': {}, 'id': 'burger', 'src': '/static/foodstim60/burger.jpg', 'key': 'i', 'origWidth': 409, 'origHeight': 409, 'width': 409, 'height': 409, 'widthPercent': 0.45, 'rescaleHeight': False, 'trialN': 15, 'loaded': True, 'loadedTime': 3372.699999988079, 'positionName': 'RIGHT', 'positionCoords': [998.4, 335.5], 'bid': 7.56}]",35101.89999997616,1669841271272,sweetpotato,burger,4.17,7.56,3.3899999999999997,burger,1064.6000000238419,1065,1064.8999999761581,True,i,36669.799999952316,1567.8999999761581,1669841272840,1568,HRV,HRV_0297,2022-11-30 20:52:40
16,"[{'imgObject': {}, 'id': 'seaweed', 'src': '/static/foodstim60/seaweed.jpg', 'key': 'u', 'origWidth': 410, 'origHeight': 410, 'width': 410, 'height': 410, 'widthPercent': 0.45, 'rescaleHeight': False, 'trialN': 16, 'loaded': True, 'loadedTime': 3432.2999999523163, 'positionName': 'LEFT', 'positionCoords': [511.6, 335], 'bid': 0.75}, {'imgObject': {}, 'id': 'mashed potato', 'src': '/static/foodstim60/mashed potato.jpg', 'key': 'i', 'origWidth': 409, 'origHeight': 409, 'width': 409, 'height': 409, 'widthPercent': 0.45, 'rescaleHeight': False, 'trialN': 16, 'loaded': True, 'loadedTime': 3435.5, 'positionName': 'RIGHT', 'positionCoords': [998.4, 335.5], 'bid': 3.3000000000000003}]",36670.299999952316,1669841272840,seaweed,mashed potato,0.75,3.3000000000000003,2.5500000000000003,mashed potato,920.2000000476837,921,920.6000000238419,True,i,38094.0,1423.7000000476837,1669841274264,1424,HRV,HRV_0297,2022-11-30 20:52:40
17,"[{'imgObject': {}, 'id': 'baked potato', 'src': '/static/foodstim60/baked potato.jpg', 'key': 'u', 'origWidth': 409, 'origHeight': 410, 'width': 409, 'height': 410, 'widthPercent': 0.45, 'rescaleHeight': False, 'trialN': 17, 'loaded': True, 'loadedTime': 2904, 'positionName': 'LEFT', 'positionCoords': [512.6, 335], 'bid': 6.32}, {'imgObject': {}, 'id': 'granola w milk', 'src': '/static/foodstim60/granola w milk.jpg', 'key': 'i', 'origWidth': 410, 'origHeight': 410, 'width': 410, 'height': 410, 'widthPercent': 0.45, 'rescaleHeight': False, 'trialN': 17, 'loaded': True, 'loadedTime': 3442.5, 'positionName': 'RIGHT', 'positionCoords': [998.4, 335], 'bid': 6.38}]",38094.299999952316,1669841274264,baked potato,granola w milk,6.32,6.38,0.05999999999999961,baked potato,1472.2000000476837,1473,1472.6000000238419,True,u,40069.89999997616,1975.6000000238419,1669841276240,1976,HRV,HRV_0297,2022-11-30 20:52:40
18,"[{'imgObject': {}, 'id': 'roastedpotatoes', 'src': '/static/foodstim60/roastedpotatoes.jpg', 'key': 'u', 'origWidth': 409, 'origHeight': 410, 'width': 409, 'height': 410, 'widthPercent': 0.45, 'rescaleHeight': False, 'trialN': 18, 'loaded': True, 'loadedTime': 3320.5, 'positionName': 'LEFT', 'positionCoords': [512.6, 335], 'bid': 8.02}, {'imgObject': {}, 'id': 'rigatoni and sauce', 'src': '/static/foodstim60/rigatoni and sauce.jpg', 'key': 'i', 'origWidth': 410, 'origHeight': 411, 'width': 410, 'height': 411, 'widthPercent': 0.45, 'rescaleHeight': False, 'trialN': 18, 'loaded': True, 'loadedTime': 3227.899999976158, 'positionName': 'RIGHT', 'positionCoords': [998.4, 334.5], 'bid': 6.13}]",40070.09999996424,1669841276240,roastedpotatoes,rigatoni and sauce,8.02,6.13,-1.8899999999999997,roastedpotatoes,1560.6000000238419,1561,1560.9000000357628,True,u,42134.09999996424,2064.0,1669841278304,2064,HRV,HRV_0297,2022-11-30 20:52:40
19,"[{'imgObject': {}, 'id': 'froot loops w milk', 'src': '/static/foodstim60/froot loops w milk.jpg', 'key': 'u', 'origWidth': 410, 'origHeight': 410, 'width': 410, 'height': 410, 'widthPercent': 0.45, 'rescaleHeight': False, 'trialN': 19, 'loaded': True, 'loadedTime': 3162.5, 'positionName': 'LEFT', 'positionCoords': [511.6, 335], 'bid': 7.26}, {'imgObject': {}, 'id': 'veggieswithdip', 'src': '/static/foodstim60/veggieswithdip.jpg', 'key': 'i', 'origWidth': 409, 'origHeight': 409, 'width': 409, 'height': 409, 'widthPercent': 0.45, 'rescaleHeight': False, 'trialN': 19, 'loaded': True, 'loadedTime': 3457.2999999523163, 'positionName': 'RIGHT', 'positionCoords': [998.4, 335.5], 'bid': 7.35}]",42134.299999952316,1669841278304,froot loops w milk,veggieswithdip,7.26,7.35,0.08999999999999986,veggieswithdip,1336.6000000238419,1337,1336.9000000357628,True,i,43973.39999997616,1839.1000000238419,1669841280143,1839,HRV,HRV_0297,2022-11-30 20:52:40
20,"[{'imgObject': {}, 'id': 'lox', 'src': '/static/foodstim60/lox.jpg', 'key': 'u', 'origWidth': 410, 'origHeight': 411, 'width': 410, 'height': 411, 'widthPercent': 0.45, 'rescaleHeight': False, 'trialN': 20, 'loaded': True, 'loadedTime': 3202.399999976158, 'positionName': 'LEFT', 'positionCoords': [511.6, 334.5], 'bid': 7.17}, {'imgObject': {}, 'id': 'baked potato', 'src': '/static/foodstim60/baked potato.jpg', 'key': 'i', 'origWidth': 409, 'origHeight': 410, 'width': 409, 'height': 410, 'widthPercent': 0.45, 'rescaleHeight': False, 'trialN': 20, 'loaded': True, 'loadedTime': 2901.099999964237, 'positionName': 'RIGHT', 'positionCoords': [998.4, 335], 'bid': 6.32}]",43973.59999996424,1669841280144,lox,baked potato,7.17,6.32,-0.8499999999999996,baked potato,1361.199999988079,1361,1361.6000000238419,True,i,45837.299999952316,1863.699999988079,1669841282007,1863,HRV,HRV_0297,2022-11-30 20:52:40
21,"[{'imgObject': {}, 'id': 'rigatoni and sauce', 'src': '/static/foodstim60/rigatoni and sauce.jpg', 'key': 'u', 'origWidth': 410, 'origHeight': 411, 'width': 410, 'height': 411, 'widthPercent': 0.45, 'rescaleHeight': False, 'trialN': 21, 'loaded': True, 'loadedTime': 3221.899999976158, 'positionName': 'LEFT', 'positionCoords': [511.6, 334.5], 'bid': 6.13}, {'imgObject': {}, 'id': 'Tribe humus pita', 'src': '/static/foodstim60/Tribe humus pita.jpg', 'key': 'i', 'origWidth': 411, 'origHeight': 411, 'width': 411, 'height': 411, 'widthPercent': 0.45, 'rescaleHeight': False, 'trialN': 21, 'loaded': True, 'loadedTime': 3503.899999976158, 'positionName': 'RIGHT', 'positionCoords': [998.4, 334.5], 'bid': 7.16}]",45837.59999996424,1669841282008,rigatoni and sauce,Tribe humus pita,6.13,7.16,1.0300000000000002,rigatoni and sauce,1289.1000000238419,1289,1289.4000000357628,True,u,47630.5,1792.9000000357628,1669841283800,1792,HRV,HRV_0297,2022-11-30 20:52:40
22,"[{'imgObject': {}, 'id': 'ice cream sundae 002', 'src': '/static/foodstim60/ice cream sundae 002.jpg', 'key': 'u', 'origWidth': 409, 'origHeight': 409, 'width': 409, 'height': 409, 'widthPercent': 0.45, 'rescaleHeight': False, 'trialN': 22, 'loaded': True, 'loadedTime': 3538.099999964237, 'positionName': 'LEFT', 'positionCoords': [512.6, 335.5], 'bid': 6.84}, {'imgObject': {}, 'id': 'granola w milk', 'src': '/static/foodstim60/granola w milk.jpg', 'key': 'i', 'origWidth': 410, 'origHeight': 410, 'width': 410, 'height': 410, 'widthPercent': 0.45, 'rescaleHeight': False, 'trialN': 22, 'loaded': True, 'loadedTime': 3441.2999999523163, 'positionName': 'RIGHT', 'positionCoords': [998.4, 335], 'bid': 6.38}]",47630.69999998808,1669841283801,ice cream sundae 002,granola w milk,6.84,6.38,-0.45999999999999996,ice cream sundae 002,1840.0,1840,1840.3999999761581,True,u,49974.39999997616,2343.699999988079,1669841286144,2343,HRV,HRV_0297,2022-11-30 20:52:40
23,"[{'imgObject': {}, 'id': 'hashbrowns', 'src': '/static/foodstim60/hashbrowns.jpg', 'key': 'u', 'origWidth': 411, 'origHeight': 410, 'width': 411, 'height': 410, 'widthPercent': 0.45, 'rescaleHeight': False, 'trialN': 23, 'loaded': True, 'loadedTime': 3600.099999964237, 'positionName': 'LEFT', 'positionCoords': [510.6, 335], 'bid': 7.17}, {'imgObject': {}, 'id': 'mango', 'src': '/static/foodstim60/mango.jpg', 'key': 'i', 'origWidth': 411, 'origHeight': 411, 'width': 411, 'height': 411, 'widthPercent': 0.45, 'rescaleHeight': False, 'trialN': 23, 'loaded': True, 'loadedTime': 3651.199999988079, 'positionName': 'RIGHT', 'positionCoords': [998.4, 334.5], 'bid': 7.48}]",49974.799999952316,1669841286145,hashbrowns,mango,7.17,7.48,0.3100000000000005,mango,2767.800000011921,2768,2768.100000023842,True,i,53245.5,3270.7000000476837,1669841289415,3270,HRV,HRV_0297,2022-11-30 20:52:40
24,"[{'imgObject': {}, 'id': 'kiwi', 'src': '/static/foodstim60/kiwi.jpg', 'key': 'u', 'origWidth': 410, 'origHeight': 410, 'width': 410, 'height': 410, 'widthPercent': 0.45, 'rescaleHeight': False, 'trialN': 24, 'loaded': True, 'loadedTime': 3652.899999976158, 'positionName': 'LEFT', 'positionCoords': [511.6, 335], 'bid': 6.93}, {'imgObject': {}, 'id': 'raspberries', 'src': '/static/foodstim60/raspberries.jpg', 'key': 'i', 'origWidth': 411, 'origHeight': 411, 'width': 411, 'height': 411, 'widthPercent': 0.45, 'rescaleHeight': False, 'trialN': 24, 'loaded': True, 'loadedTime': 3659.899999976158, 'positionName': 'RIGHT', 'positionCoords': [998.4, 334.5], 'bid': 5.11}]",53245.69999998808,1669841289416,kiwi,raspberries,6.93,5.11,-1.8199999999999994,kiwi,1144.8999999761581,1147,1147.699999988079,True,u,54922.89999997616,1677.199999988079,1669841291093,1677,HRV,HRV_0297,2022-11-30 20:52:40
25,"[{'imgObject': {}, 'id': 'cheerios', 'src': '/static/foodstim60/cheerios.jpg', 'key': 'u', 'origWidth': 409, 'origHeight': 410, 'width': 409, 'height': 410, 'widthPercent': 0.45, 'rescaleHeight': False, 'trialN': 25, 'loaded': True, 'loadedTime': 3660.099999964237, 'positionName': 'LEFT', 'positionCoords': [512.6, 335], 'bid': 4.44}, {'imgObject': {}, 'id': 'orange slices', 'src': '/static/foodstim60/orange slices.jpg', 'key': 'i', 'origWidth': 409, 'origHeight': 410, 'width': 409, 'height': 410, 'widthPercent': 0.45, 'rescaleHeight': False, 'trialN': 25, 'loaded': True, 'loadedTime': 3667.599999964237, 'positionName': 'RIGHT', 'positionCoords': [998.4, 335], 'bid': 7.640000000000001}]",54923.09999996424,1669841291093,cheerios,orange slices,4.44,7.640000000000001,3.2,orange slices,1332.5,1333,1332.800000011921,True,i,56757.59999996424,1834.5,1669841292927,1834,HRV,HRV_0297,2022-11-30 20:52:40
26,"[{'imgObject': {}, 'id': 'corn cob', 'src': '/static/foodstim60/corn cob.jpg', 'key': 'u', 'origWidth': 411, 'origHeight': 411, 'width': 411, 'height': 411, 'widthPercent': 0.45, 'rescaleHeight': False, 'trialN': 26, 'loaded': True, 'loadedTime': 2579.399999976158, 'positionName': 'LEFT', 'positionCoords': [510.6, 334.5], 'bid': 7.55}, {'imgObject': {}, 'id': 'eggsalad', 'src': '/static/foodstim60/eggsalad.jpg', 'key': 'i', 'origWidth': 410, 'origHeight': 409, 'width': 410, 'height': 409, 'widthPercent': 0.45, 'rescaleHeight': False, 'trialN': 26, 'loaded': True, 'loadedTime': 3282.7999999523163, 'positionName': 'RIGHT', 'positionCoords': [998.4, 335.5], 'bid': 4.17}]",56757.799999952316,1669841292928,corn cob,eggsalad,7.55,4.17,-3.38,corn cob,936.9000000357628,937,937.4000000357628,True,u,58198.299999952316,1440.5,1669841294368,1440,HRV,HRV_0297,2022-11-30 20:52:40
27,"[{'imgObject': {}, 'id': 'strawberries', 'src': '/static/foodstim60/strawberries.jpg', 'key': 'u', 'origWidth': 410, 'origHeight': 410, 'width': 410, 'height': 410, 'widthPercent': 0.45, 'rescaleHeight': False, 'trialN': 27, 'loaded': True, 'loadedTime': 3677.199999988079, 'positionName': 'LEFT', 'positionCoords': [511.6, 335], 'bid': 8.05}, {'imgObject': {}, 'id': 'luckycharms', 'src': '/static/foodstim60/luckycharms.jpg', 'key': 'i', 'origWidth': 410, 'origHeight': 409, 'width': 410, 'height': 409, 'widthPercent': 0.45, 'rescaleHeight': False, 'trialN': 27, 'loaded': True, 'loadedTime': 3109.099999964237, 'positionName': 'RIGHT', 'positionCoords': [998.4, 335.5], 'bid': 8.55}]",58202.69999998808,1669841294373,strawberries,luckycharms,8.05,8.55,0.5,strawberries,1075.800000011921,1076,1076.5,True,u,59781.69999998808,1579.0,1669841295952,1579,HRV,HRV_0297,2022-11-30 20:52:40
28,"[{'imgObject': {}, 'id': 'sushi w_condiments', 'src': '/static/foodstim60/sushi w_condiments.jpg', 'key': 'u', 'origWidth': 410, 'origHeight': 410, 'width': 410, 'height': 410, 'widthPercent': 0.45, 'rescaleHeight': False, 'trialN': 28, 'loaded': True, 'loadedTime': 3091.2999999523163, 'positionName': 'LEFT', 'positionCoords': [511.6, 335], 'bid': 8.25}, {'imgObject': {}, 'id': 'mac & cheese', 'src': '/static/foodstim60/mac & cheese.jpg', 'key': 'i', 'origWidth': 410, 'origHeight': 410, 'width': 410, 'height': 410, 'widthPercent': 0.45, 'rescaleHeight': False, 'trialN': 28, 'loaded': True, 'loadedTime': 3021.399999976158, 'positionName': 'RIGHT', 'positionCoords': [998.4, 335], 'bid': 8.17}]",59782.0,1669841295952,sushi w_condiments,mac & cheese,8.25,8.17,-0.08000000000000007,mac & cheese,1297.2999999523163,1297,1297.5999999642372,True,i,61581.89999997616,1799.8999999761581,1669841297752,1800,HRV,HRV_0297,2022-11-30 20:52:40
29,"[{'imgObject': {}, 'id': 'raisin bran w milk', 'src': '/static/foodstim60/raisin bran w milk.jpg', 'key': 'u', 'origWidth': 411, 'origHeight': 411, 'width': 411, 'height': 411, 'widthPercent': 0.45, 'rescaleHeight': False, 'trialN': 29, 'loaded': True, 'loadedTime': 3683.2999999523163, 'positionName': 'LEFT', 'positionCoords': [510.6, 334.5], 'bid': 5.0600000000000005}, {'imgObject': {}, 'id': 'cheerios', 'src': '/static/foodstim60/cheerios.jpg', 'key': 'i', 'origWidth': 409, 'origHeight': 410, 'width': 409, 'height': 410, 'widthPercent': 0.45, 'rescaleHeight': False, 'trialN': 29, 'loaded': True, 'loadedTime': 3663.699999988079, 'positionName': 'RIGHT', 'positionCoords': [998.4, 335], 'bid': 4.44}]",61582.19999998808,1669841297752,raisin bran w milk,cheerios,5.0600000000000005,4.44,-0.6200000000000001,raisin bran w milk,2328.300000011921,2329,2328.699999988079,True,u,64414.0,2831.800000011921,1669841300584,2832,HRV,HRV_0297,2022-11-30 20:52:40
30,"[{'imgObject': {}, 'id': 'eggs', 'src': '/static/foodstim60/eggs.jpg', 'key': 'u', 'origWidth': 409, 'origHeight': 409, 'width': 409, 'height': 409, 'widthPercent': 0.45, 'rescaleHeight': False, 'trialN': 30, 'loaded': True, 'loadedTime': 3686.7999999523163, 'positionName': 'LEFT', 'positionCoords': [512.6, 335.5], 'bid': 6.19}, {'imgObject': {}, 'id': 'strawberries', 'src': '/static/foodstim60/strawberries.jpg', 'key': 'i', 'origWidth': 410, 'origHeight': 410, 'width': 410, 'height': 410, 'widthPercent': 0.45, 'rescaleHeight': False, 'trialN': 30, 'loaded': True, 'loadedTime': 3676.2999999523163, 'positionName': 'RIGHT', 'positionCoords': [998.4, 335], 'bid': 8.05}]",64414.09999996424,1669841300584,eggs,strawberries,6.19,8.05,1.8600000000000003,strawberries,872.5,873,873.1000000238419,True,i,65789.5,1375.4000000357628,1669841301959,1375,HRV,HRV_0297,2022-11-30 20:52:40
31,"[{'imgObject': {}, 'id': 'chickenfingers', 'src': '/static/foodstim60/chickenfingers.jpg', 'key': 'u', 'origWidth': 410, 'origHeight': 410, 'width': 410, 'height': 410, 'widthPercent': 0.45, 'rescaleHeight': False, 'trialN': 31, 'loaded': True, 'loadedTime': 3097.099999964237, 'positionName': 'LEFT', 'positionCoords': [511.6, 335], 'bid': 7.71}, {'imgObject': {}, 'id': 'luckycharms', 'src': '/static/foodstim60/luckycharms.jpg', 'key': 'i', 'origWidth': 410, 'origHeight': 409, 'width': 410, 'height': 409, 'widthPercent': 0.45, 'rescaleHeight': False, 'trialN': 31, 'loaded': True, 'loadedTime': 3107.7999999523163, 'positionName': 'RIGHT', 'positionCoords': [998.4, 335.5], 'bid': 8.55}]",65789.59999996424,1669841301959,chickenfingers,luckycharms,7.71,8.55,0.8400000000000007,chickenfingers,1745.5,1746,1745.699999988079,True,u,68037.79999995232,2248.199999988079,1669841304208,2249,HRV,HRV_0297,2022-11-30 20:52:40
32,"[{'imgObject': {}, 'id': 'blueberries', 'src': '/static/foodstim60/blueberries.jpg', 'key': 'u', 'origWidth': 411, 'origHeight': 411, 'width': 411, 'height': 411, 'widthPercent': 0.45, 'rescaleHeight': False, 'trialN': 32, 'loaded': True, 'loadedTime': 2861, 'positionName': 'LEFT', 'positionCoords': [510.6, 334.5], 'bid': 7.390000000000001}, {'imgObject': {}, 'id': 'mashed potato', 'src': '/static/foodstim60/mashed potato.jpg', 'key': 'i', 'origWidth': 409, 'origHeight': 409, 'width': 409, 'height': 409, 'widthPercent': 0.45, 'rescaleHeight': False, 'trialN': 32, 'loaded': True, 'loadedTime': 3433.599999964237, 'positionName': 'RIGHT', 'positionCoords': [998.4, 335.5], 'bid': 3.3000000000000003}]",68038.0,1669841304208,blueberries,mashed potato,7.390000000000001,3.3000000000000003,-4.09,blueberries,896.2999999523163,897,896.7999999523163,True,u,69438.09999996424,1400.0999999642372,1669841305608,1400,HRV,HRV_0297,2022-11-30 20:52:40
33,"[{'imgObject': {}, 'id': 'Grapes', 'src': '/static/foodstim60/Grapes.jpg', 'key': 'u', 'origWidth': 411, 'origHeight': 411, 'width': 411, 'height': 411, 'widthPercent': 0.45, 'rescaleHeight': False, 'trialN': 33, 'loaded': True, 'loadedTime': 3100.599999964237, 'positionName': 'LEFT', 'positionCoords': [510.6, 334.5], 'bid': 7.95}, {'imgObject': {}, 'id': 'apple slices', 'src': '/static/foodstim60/apple slices.jpg', 'key': 'i', 'origWidth': 409, 'origHeight': 410, 'width': 409, 'height': 410, 'widthPercent': 0.45, 'rescaleHeight': False, 'trialN': 33, 'loaded': True, 'loadedTime': 3691, 'positionName': 'RIGHT', 'positionCoords': [998.4, 335], 'bid': 8.14}]",69438.39999997616,1669841305608,Grapes,apple slices,7.95,8.14,0.1900000000000004,Grapes,823.8999999761581,824,824.1999999880791,True,u,70766.0,1327.6000000238419,1669841306936,1328,HRV,HRV_0297,2022-11-30 20:52:40
34,"[{'imgObject': {}, 'id': 'cherries', 'src': '/static/foodstim60/cherries.jpg', 'key': 'u', 'origWidth': 410, 'origHeight': 411, 'width': 410, 'height': 411, 'widthPercent': 0.45, 'rescaleHeight': False, 'trialN': 34, 'loaded': True, 'loadedTime': 3700.699999988079, 'positionName': 'LEFT', 'positionCoords': [511.6, 334.5], 'bid': 6.640000000000001}, {'imgObject': {}, 'id': 'eggs', 'src': '/static/foodstim60/eggs.jpg', 'key': 'i', 'origWidth': 409, 'origHeight': 409, 'width': 409, 'height': 409, 'widthPercent': 0.45, 'rescaleHeight': False, 'trialN': 34, 'loaded': True, 'loadedTime': 3684.899999976158, 'positionName': 'RIGHT', 'positionCoords': [998.4, 335.5], 'bid': 6.19}]",70766.19999998808,1669841306936,cherries,eggs,6.640000000000001,6.19,-0.4500000000000002,cherries,1384.199999988079,1384,1384.5,True,u,72653.79999995232,1887.5999999642372,1669841308824,1888,HRV,HRV_0297,2022-11-30 20:52:40
35,"[{'imgObject': {}, 'id': 'salad w chicken', 'src': '/static/foodstim60/salad w chicken.jpg', 'key': 'u', 'origWidth': 411, 'origHeight': 411, 'width': 411, 'height': 411, 'widthPercent': 0.45, 'rescaleHeight': False, 'trialN': 35, 'loaded': True, 'loadedTime': 3703.699999988079, 'positionName': 'LEFT', 'positionCoords': [510.6, 334.5], 'bid': 8.89}, {'imgObject': {}, 'id': 'Tribe humus pita', 'src': '/static/foodstim60/Tribe humus pita.jpg', 'key': 'i', 'origWidth': 411, 'origHeight': 411, 'width': 411, 'height': 411, 'widthPercent': 0.45, 'rescaleHeight': False, 'trialN': 35, 'loaded': True, 'loadedTime': 3504.099999964237, 'positionName': 'RIGHT', 'positionCoords': [998.4, 334.5], 'bid': 7.16}]",72654.0,1669841308824,salad w chicken,Tribe humus pita,8.89,7.16,-1.7300000000000004,salad w chicken,776.2999999523163,776,776.5999999642372,True,u,73934.39999997616,1280.3999999761581,1669841310104,1280,HRV,HRV_0297,2022-11-30 20:52:40
36,"[{'imgObject': {}, 'id': 'ice cream sundae 002', 'src': '/static/foodstim60/ice cream sundae 002.jpg', 'key': 'u', 'origWidth': 409, 'origHeight': 409, 'width': 409, 'height': 409, 'widthPercent': 0.45, 'rescaleHeight': False, 'trialN': 36, 'loaded': True, 'loadedTime': 3537.7999999523163, 'positionName': 'LEFT', 'positionCoords': [512.6, 335.5], 'bid': 6.84}, {'imgObject': {}, 'id': 'veggieswithdip', 'src': '/static/foodstim60/veggieswithdip.jpg', 'key': 'i', 'origWidth': 409, 'origHeight': 409, 'width': 409, 'height': 409, 'widthPercent': 0.45, 'rescaleHeight': False, 'trialN': 36, 'loaded': True, 'loadedTime': 3454.599999964237, 'positionName': 'RIGHT', 'positionCoords': [998.4, 335.5], 'bid': 7.35}]",73934.5,1669841310104,ice cream sundae 002,veggieswithdip,6.84,7.35,0.5099999999999998,veggieswithdip,968.0,969,968.5,True,i,75405.29999995232,1470.7999999523163,1669841311575,1471,HRV,HRV_0297,2022-11-30 20:52:40
37,"[{'imgObject': {}, 'id': 'kiwi', 'src': '/static/foodstim60/kiwi.jpg', 'key': 'u', 'origWidth': 410, 'origHeight': 410, 'width': 410, 'height': 410, 'widthPercent': 0.45, 'rescaleHeight': False, 'trialN': 37, 'loaded': True, 'loadedTime': 3651.399999976158, 'positionName': 'LEFT', 'positionCoords': [511.6, 335], 'bid': 6.93}, {'imgObject': {}, 'id': 'turkey sandwich', 'src': '/static/foodstim60/turkey sandwich.jpg', 'key': 'i', 'origWidth': 409, 'origHeight': 409, 'width': 409, 'height': 409, 'widthPercent': 0.45, 'rescaleHeight': False, 'trialN': 37, 'loaded': True, 'loadedTime': 3729.099999964237, 'positionName': 'RIGHT', 'positionCoords': [998.4, 335.5], 'bid': 8.58}]",75405.5,1669841311575,kiwi,turkey sandwich,6.93,8.58,1.6500000000000004,kiwi,1049.7999999523163,1052,1051.7999999523163,True,u,76985.19999998808,1579.699999988079,1669841313155,1580,HRV,HRV_0297,2022-11-30 20:52:40
38,"[{'imgObject': {}, 'id': 'bagel and cc', 'src': '/static/foodstim60/bagel and cc.jpg', 'key': 'u', 'origWidth': 410, 'origHeight': 410, 'width': 410, 'height': 410, 'widthPercent': 0.45, 'rescaleHeight': False, 'trialN': 38, 'loaded': True, 'loadedTime': 3210.399999976158, 'positionName': 'LEFT', 'positionCoords': [511.6, 335], 'bid': 8.67}, {'imgObject': {}, 'id': 'steak', 'src': '/static/foodstim60/steak.jpg', 'key': 'i', 'origWidth': 410, 'origHeight': 410, 'width': 410, 'height': 410, 'widthPercent': 0.45, 'rescaleHeight': False, 'trialN': 38, 'loaded': True, 'loadedTime': 3103.5, 'positionName': 'RIGHT', 'positionCoords': [998.4, 335], 'bid': 8.59}]",76985.29999995232,1669841313155,bagel and cc,steak,8.67,8.59,-0.08000000000000007,steak,1133.5,1134,1133.800000011921,True,i,78622.09999996424,1636.800000011921,1669841314792,1637,HRV,HRV_0297,2022-11-30 20:52:40
39,"[{'imgObject': {}, 'id': 'corn cob', 'src': '/static/foodstim60/corn cob.jpg', 'key': 'u', 'origWidth': 411, 'origHeight': 411, 'width': 411, 'height': 411, 'widthPercent': 0.45, 'rescaleHeight': False, 'trialN': 39, 'loaded': True, 'loadedTime': 2748.699999988079, 'positionName': 'LEFT', 'positionCoords': [510.6, 334.5], 'bid': 7.55}, {'imgObject': {}, 'id': 'burger', 'src': '/static/foodstim60/burger.jpg', 'key': 'i', 'origWidth': 409, 'origHeight': 409, 'width': 409, 'height': 409, 'widthPercent': 0.45, 'rescaleHeight': False, 'trialN': 39, 'loaded': True, 'loadedTime': 3371.599999964237, 'positionName': 'RIGHT', 'positionCoords': [998.4, 335.5], 'bid': 7.56}]",78622.29999995232,1669841314792,corn cob,burger,7.55,7.56,0.009999999999999787,burger,1544.0,1545,1544.5,True,i,80669.5,2047.2000000476837,1669841316839,2047,HRV,HRV_0297,2022-11-30 20:52:40
40,"[{'imgObject': {}, 'id': 'blackbeanswithrice', 'src': '/static/foodstim60/blackbeanswithrice.jpg', 'key': 'u', 'origWidth': 410, 'origHeight': 410, 'width': 410, 'height': 410, 'widthPercent': 0.45, 'rescaleHeight': False, 'trialN': 40, 'loaded': True, 'loadedTime': 3254.399999976158, 'positionName': 'LEFT', 'positionCoords': [511.6, 335], 'bid': 2.44}, {'imgObject': {}, 'id': 'olives', 'src': '/static/foodstim60/olives.jpg', 'key': 'i', 'origWidth': 410, 'origHeight': 410, 'width': 410, 'height': 410, 'widthPercent': 0.45, 'rescaleHeight': False, 'trialN': 40, 'loaded': True, 'loadedTime': 3121.199999988079, 'positionName': 'RIGHT', 'positionCoords': [998.4, 335], 'bid': 6.54}]",80669.89999997616,1669841316840,blackbeanswithrice,olives,2.44,6.54,4.1,olives,1000.3999999761581,1000,1000.6999999880791,True,i,82173.79999995232,1503.8999999761581,1669841318344,1504,HRV,HRV_0297,2022-11-30 20:52:40
41,"[{'imgObject': {}, 'id': 'Grapes', 'src': '/static/foodstim60/Grapes.jpg', 'key': 'u', 'origWidth': 411, 'origHeight': 411, 'width': 411, 'height': 411, 'widthPercent': 0.45, 'rescaleHeight': False, 'trialN': 41, 'loaded': True, 'loadedTime': 3102.399999976158, 'positionName': 'LEFT', 'positionCoords': [510.6, 334.5], 'bid': 7.95}, {'imgObject': {}, 'id': 'burrito', 'src': '/static/foodstim60/burrito.jpg', 'key': 'i', 'origWidth': 410, 'origHeight': 410, 'width': 410, 'height': 410, 'widthPercent': 0.45, 'rescaleHeight': False, 'trialN': 41, 'loaded': True, 'loadedTime': 3791.699999988079, 'positionName': 'RIGHT', 'positionCoords': [998.4, 335], 'bid': 7.73}]",82174.09999996424,1669841318344,Grapes,burrito,7.95,7.73,-0.21999999999999975,Grapes,696.3000000119209,697,696.6000000238419,True,u,83373.69999998808,1199.6000000238419,1669841319544,1200,HRV,HRV_0297,2022-11-30 20:52:40
42,"[{'imgObject': {}, 'id': 'mango', 'src': '/static/foodstim60/mango.jpg', 'key': 'u', 'origWidth': 411, 'origHeight': 411, 'width': 411, 'height': 411, 'widthPercent': 0.45, 'rescaleHeight': False, 'trialN': 42, 'loaded': True, 'loadedTime': 3650.399999976158, 'positionName': 'LEFT', 'positionCoords': [510.6, 334.5], 'bid': 7.48}, {'imgObject': {}, 'id': 'shreddedwheatwithmilk', 'src': '/static/foodstim60/shreddedwheatwithmilk.jpg', 'key': 'i', 'origWidth': 410, 'origHeight': 410, 'width': 410, 'height': 410, 'widthPercent': 0.45, 'rescaleHeight': False, 'trialN': 42, 'loaded': True, 'loadedTime': 2911.099999964237, 'positionName': 'RIGHT', 'positionCoords': [998.4, 335], 'bid': 4.09}]",83373.89999997616,1669841319544,mango,shreddedwheatwithmilk,7.48,4.09,-3.3900000000000006,mango,1856.8999999761581,1857,1857.199999988079,True,u,85733.89999997616,2360.0,1669841321904,2360,HRV,HRV_0297,2022-11-30 20:52:40
43,"[{'imgObject': {}, 'id': 'burger', 'src': '/static/foodstim60/burger.jpg', 'key': 'u', 'origWidth': 409, 'origHeight': 409, 'width': 409, 'height': 409, 'widthPercent': 0.45, 'rescaleHeight': False, 'trialN': 43, 'loaded': True, 'loadedTime': 3372.699999988079, 'positionName': 'LEFT', 'positionCoords': [512.6, 335.5], 'bid': 7.56}, {'imgObject': {}, 'id': 'sushi w_condiments', 'src': '/static/foodstim60/sushi w_condiments.jpg', 'key': 'i', 'origWidth': 410, 'origHeight': 410, 'width': 410, 'height': 410, 'widthPercent': 0.45, 'rescaleHeight': False, 'trialN': 43, 'loaded': True, 'loadedTime': 3094.699999988079, 'positionName': 'RIGHT', 'positionCoords': [998.4, 335], 'bid': 8.25}]",85734.09999996424,1669841321904,burger,sushi w_condiments,7.56,8.25,0.6900000000000004,burger,688.6999999880791,689,689.0,True,u,86925.79999995232,1191.699999988079,1669841323096,1192,HRV,HRV_0297,2022-11-30 20:52:40
44,"[{'imgObject': {}, 'id': 'cherries', 'src': '/static/foodstim60/cherries.jpg', 'key': 'u', 'origWidth': 410, 'origHeight': 411, 'width': 410, 'height': 411, 'widthPercent': 0.45, 'rescaleHeight': False, 'trialN': 44, 'loaded': True, 'loadedTime': 3692.5, 'positionName': 'LEFT', 'positionCoords': [511.6, 334.5], 'bid': 6.640000000000001}, {'imgObject': {}, 'id': 'raspberries', 'src': '/static/foodstim60/raspberries.jpg', 'key': 'i', 'origWidth': 411, 'origHeight': 411, 'width': 411, 'height': 411, 'widthPercent': 0.45, 'rescaleHeight': False, 'trialN': 44, 'loaded': True, 'loadedTime': 3659.2999999523163, 'positionName': 'RIGHT', 'positionCoords': [998.4, 334.5], 'bid': 5.11}]",86926.19999998808,1669841323096,cherries,raspberries,6.640000000000001,5.11,-1.5300000000000002,cherries,912.5,913,912.8000000119209,True,u,88342.09999996424,1415.8999999761581,1669841324512,1416,HRV,HRV_0297,2022-11-30 20:52:40
45,"[{'imgObject': {}, 'id': 'raisin bran w milk', 'src': '/static/foodstim60/raisin bran w milk.jpg', 'key': 'u', 'origWidth': 411, 'origHeight': 411, 'width': 411, 'height': 411, 'widthPercent': 0.45, 'rescaleHeight': False, 'trialN': 45, 'loaded': True, 'loadedTime': 3681.699999988079, 'positionName': 'LEFT', 'positionCoords': [510.6, 334.5], 'bid': 5.0600000000000005}, {'imgObject': {}, 'id': 'blackbeanswithrice', 'src': '/static/foodstim60/blackbeanswithrice.jpg', 'key': 'i', 'origWidth': 410, 'origHeight': 410, 'width': 410, 'height': 410, 'widthPercent': 0.45, 'rescaleHeight': False, 'trialN': 45, 'loaded': True, 'loadedTime': 3239.099999964237, 'positionName': 'RIGHT', 'positionCoords': [998.4, 335], 'bid': 2.44}]",88342.29999995232,1669841324512,raisin bran w milk,blackbeanswithrice,5.0600000000000005,2.44,-2.6200000000000006,raisin bran w milk,1736.6000000238419,1737,1737.0,True,u,90583.69999998808,2241.400000035763,1669841326754,2242,HRV,HRV_0297,2022-11-30 20:52:40
46,"[{'imgObject': {}, 'id': 'avocado', 'src': '/static/foodstim60/avocado.jpg', 'key': 'u', 'origWidth': 409, 'origHeight': 409, 'width': 409, 'height': 409, 'widthPercent': 0.45, 'rescaleHeight': False, 'trialN': 46, 'loaded': True, 'loadedTime': 3124.599999964237, 'positionName': 'LEFT', 'positionCoords': [512.6, 335.5], 'bid': 8.53}, {'imgObject': {}, 'id': 'ice cream sundae 002', 'src': '/static/foodstim60/ice cream sundae 002.jpg', 'key': 'i', 'origWidth': 409, 'origHeight': 409, 'width': 409, 'height': 409, 'widthPercent': 0.45, 'rescaleHeight': False, 'trialN': 46, 'loaded': True, 'loadedTime': 3537.899999976158, 'positionName': 'RIGHT', 'positionCoords': [998.4, 335.5], 'bid': 6.84}]",90584.09999996424,1669841326754,avocado,ice cream sundae 002,8.53,6.84,-1.6899999999999995,ice cream sundae 002,1598.4000000357628,1599,1598.699999988079,True,i,92691.59999996424,2107.5,1669841328861,2107,HRV,HRV_0297,2022-11-30 20:52:40
47,"[{'imgObject': {}, 'id': 'pear', 'src': '/static/foodstim60/pear.jpg', 'key': 'u', 'origWidth': 411, 'origHeight': 410, 'width': 411, 'height': 410, 'widthPercent': 0.45, 'rescaleHeight': False, 'trialN': 47, 'loaded': True, 'loadedTime': 3798.199999988079, 'positionName': 'LEFT', 'positionCoords': [510.6, 335], 'bid': 5.45}, {'imgObject': {}, 'id': 'yogurt no spoon', 'src': '/static/foodstim60/yogurt no spoon.jpg', 'key': 'i', 'origWidth': 411, 'origHeight': 410, 'width': 411, 'height': 410, 'widthPercent': 0.45, 'rescaleHeight': False, 'trialN': 47, 'loaded': True, 'loadedTime': 2955, 'positionName': 'RIGHT', 'positionCoords': [998.4, 335], 'bid': 6.76}]",92691.89999997616,1669841328862,pear,yogurt no spoon,5.45,6.76,1.3099999999999996,pear,1442.699999988079,1443,1443.199999988079,True,u,94638.69999998808,1946.800000011921,1669841330808,1946,HRV,HRV_0297,2022-11-30 20:52:40
48,"[{'imgObject': {}, 'id': 'eggsalad', 'src': '/static/foodstim60/eggsalad.jpg', 'key': 'u', 'origWidth': 410, 'origHeight': 409, 'width': 410, 'height': 409, 'widthPercent': 0.45, 'rescaleHeight': False, 'trialN': 48, 'loaded': True, 'loadedTime': 3283.699999988079, 'positionName': 'LEFT', 'positionCoords': [511.6, 335.5], 'bid': 4.17}, {'imgObject': {}, 'id': 'grilled chicken strips', 'src': '/static/foodstim60/grilled chicken strips.jpg', 'key': 'i', 'origWidth': 410, 'origHeight': 411, 'width': 410, 'height': 411, 'widthPercent': 0.45, 'rescaleHeight': False, 'trialN': 48, 'loaded': True, 'loadedTime': 3799.399999976158, 'positionName': 'RIGHT', 'positionCoords': [998.4, 334.5], 'bid': 5.88}]",94638.89999997616,1669841330809,eggsalad,grilled chicken strips,4.17,5.88,1.71,grilled chicken strips,1463.800000011921,1464,1464.300000011921,True,i,96606.09999996424,1967.199999988079,1669841332776,1967,HRV,HRV_0297,2022-11-30 20:52:40
49,"[{'imgObject': {}, 'id': 'turkeysandwich', 'src': '/static/foodstim60/turkeysandwich.jpg', 'key': 'u', 'origWidth': 409, 'origHeight': 409, 'width': 409, 'height': 409, 'widthPercent': 0.45, 'rescaleHeight': False, 'trialN': 49, 'loaded': True, 'loadedTime': 3286.7999999523163, 'positionName': 'LEFT', 'positionCoords': [512.6, 335.5], 'bid': 8.16}, {'imgObject': {}, 'id': 'salmon', 'src': '/static/foodstim60/salmon.jpg', 'key': 'i', 'origWidth': 410, 'origHeight': 409, 'width': 410, 'height': 409, 'widthPercent': 0.45, 'rescaleHeight': False, 'trialN': 49, 'loaded': True, 'loadedTime': 3111, 'positionName': 'RIGHT', 'positionCoords': [998.4, 335.5], 'bid': 6.62}]",96606.29999995232,1669841332776,turkeysandwich,salmon,8.16,6.62,-1.54,turkeysandwich,1208.5,1209,1208.800000011921,True,u,98318.79999995232,1712.5,1669841334489,1713,HRV,HRV_0297,2022-11-30 20:52:40
50,"[{'imgObject': {}, 'id': 'mango', 'src': '/static/foodstim60/mango.jpg', 'key': 'u', 'origWidth': 411, 'origHeight': 411, 'width': 411, 'height': 411, 'widthPercent': 0.45, 'rescaleHeight': False, 'trialN': 50, 'loaded': True, 'loadedTime': 3649.399999976158, 'positionName': 'LEFT', 'positionCoords': [510.6, 334.5], 'bid': 7.48}, {'imgObject': {}, 'id': 'burger', 'src': '/static/foodstim60/burger.jpg', 'key': 'i', 'origWidth': 409, 'origHeight': 409, 'width': 409, 'height': 409, 'widthPercent': 0.45, 'rescaleHeight': False, 'trialN': 50, 'loaded': True, 'loadedTime': 3372.399999976158, 'positionName': 'RIGHT', 'positionCoords': [998.4, 335.5], 'bid': 7.56}]",98318.89999997616,1669841334489,mango,burger,7.48,7.56,0.07999999999999918,burger,783.1999999880791,785,784.8000000119209,True,i,99605.79999995232,1286.8999999761581,1669841335776,1287,HRV,HRV_0297,2022-11-30 20:52:40
51,"[{'imgObject': {}, 'id': 'rigatoni', 'src': '/static/foodstim60/rigatoni.jpg', 'key': 'u', 'origWidth': 411, 'origHeight': 411, 'width': 411, 'height': 411, 'widthPercent': 0.45, 'rescaleHeight': False, 'trialN': 51, 'loaded': True, 'loadedTime': 3801.599999964237, 'positionName': 'LEFT', 'positionCoords': [510.6, 334.5], 'bid': 7.19}, {'imgObject': {}, 'id': 'omelette', 'src': '/static/foodstim60/omelette.jpg', 'key': 'i', 'origWidth': 410, 'origHeight': 409, 'width': 410, 'height': 409, 'widthPercent': 0.45, 'rescaleHeight': False, 'trialN': 51, 'loaded': True, 'loadedTime': 3806.599999964237, 'positionName': 'RIGHT', 'positionCoords': [998.4, 335.5], 'bid': 6.34}]",99606.09999996424,1669841335776,rigatoni,omelette,7.19,6.34,-0.8500000000000005,rigatoni,824.6999999880791,825,825.0,True,u,100934.69999998808,1328.6000000238419,1669841337105,1329,HRV,HRV_0297,2022-11-30 20:52:40
52,"[{'imgObject': {}, 'id': 'eggs', 'src': '/static/foodstim60/eggs.jpg', 'key': 'u', 'origWidth': 409, 'origHeight': 409, 'width': 409, 'height': 409, 'widthPercent': 0.45, 'rescaleHeight': False, 'trialN': 52, 'loaded': True, 'loadedTime': 3685.2999999523163, 'positionName': 'LEFT', 'positionCoords': [512.6, 335.5], 'bid': 6.19}, {'imgObject': {}, 'id': 'mashed potato', 'src': '/static/foodstim60/mashed potato.jpg', 'key': 'i', 'origWidth': 409, 'origHeight': 409, 'width': 409, 'height': 409, 'widthPercent': 0.45, 'rescaleHeight': False, 'trialN': 52, 'loaded': True, 'loadedTime': 3439.599999964237, 'positionName': 'RIGHT', 'positionCoords': [998.4, 335.5], 'bid': 3.3000000000000003}]",100937.69999998808,1669841337108,eggs,mashed potato,6.19,3.3000000000000003,-2.89,mashed potato,2028.5999999642372,2029,2029.0999999642372,True,i,103470.09999996424,2532.399999976158,1669841339640,2532,HRV,HRV_0297,2022-11-30 20:52:40
53,"[{'imgObject': {}, 'id': 'steak', 'src': '/static/foodstim60/steak.jpg', 'key': 'u', 'origWidth': 410, 'origHeight': 410, 'width': 410, 'height': 410, 'widthPercent': 0.45, 'rescaleHeight': False, 'trialN': 53, 'loaded': True, 'loadedTime': 3105, 'positionName': 'LEFT', 'positionCoords': [511.6, 335], 'bid': 8.59}, {'imgObject': {}, 'id': 'Grapes', 'src': '/static/foodstim60/Grapes.jpg', 'key': 'i', 'origWidth': 411, 'origHeight': 411, 'width': 411, 'height': 411, 'widthPercent': 0.45, 'rescaleHeight': False, 'trialN': 53, 'loaded': True, 'loadedTime': 3101.899999976158, 'positionName': 'RIGHT', 'positionCoords': [998.4, 334.5], 'bid': 7.95}]",103470.29999995232,1669841339640,steak,Grapes,8.59,7.95,-0.6399999999999997,steak,896.2000000476837,897,896.5,True,u,104869.0,1398.7000000476837,1669841341039,1399,HRV,HRV_0297,2022-11-30 20:52:40
54,"[{'imgObject': {}, 'id': 'mashed potato', 'src': '/static/foodstim60/mashed potato.jpg', 'key': 'u', 'origWidth': 409, 'origHeight': 409, 'width': 409, 'height': 409, 'widthPercent': 0.45, 'rescaleHeight': False, 'trialN': 54, 'loaded': True, 'loadedTime': 3434.899999976158, 'positionName': 'LEFT', 'positionCoords': [512.6, 335.5], 'bid': 3.3000000000000003}, {'imgObject': {}, 'id': 'shreddedwheatwithmilk', 'src': '/static/foodstim60/shreddedwheatwithmilk.jpg', 'key': 'i', 'origWidth': 410, 'origHeight': 410, 'width': 410, 'height': 410, 'widthPercent': 0.45, 'rescaleHeight': False, 'trialN': 54, 'loaded': True, 'loadedTime': 2907.699999988079, 'positionName': 'RIGHT', 'positionCoords': [998.4, 335], 'bid': 4.09}]",104869.29999995232,1669841341039,mashed potato,shreddedwheatwithmilk,3.3000000000000003,4.09,0.7899999999999996,mashed potato,1801.6000000238419,1802,1801.800000011921,True,u,107173.5,2304.2000000476837,1669841343343,2304,HRV,HRV_0297,2022-11-30 20:52:40
55,"[{'imgObject': {}, 'id': 'sushi w_condiments', 'src': '/static/foodstim60/sushi w_condiments.jpg', 'key': 'u', 'origWidth': 410, 'origHeight': 410, 'width': 410, 'height': 410, 'widthPercent': 0.45, 'rescaleHeight': False, 'trialN': 55, 'loaded': True, 'loadedTime': 3092, 'positionName': 'LEFT', 'positionCoords': [511.6, 335], 'bid': 8.25}, {'imgObject': {}, 'id': 'salad w chicken', 'src': '/static/foodstim60/salad w chicken.jpg', 'key': 'i', 'origWidth': 411, 'origHeight': 411, 'width': 411, 'height': 411, 'widthPercent': 0.45, 'rescaleHeight': False, 'trialN': 55, 'loaded': True, 'loadedTime': 3703.399999976158, 'positionName': 'RIGHT', 'positionCoords': [998.4, 334.5], 'bid': 8.89}]",107173.69999998808,1669841343344,sushi w_condiments,salad w chicken,8.25,8.89,0.6400000000000006,sushi w_condiments,881.1999999880791,881,881.5,True,u,108558.5,1384.800000011921,1669841344728,1384,HRV,HRV_0297,2022-11-30 20:52:40
56,"[{'imgObject': {}, 'id': 'baked potato', 'src': '/static/foodstim60/baked potato.jpg', 'key': 'u', 'origWidth': 409, 'origHeight': 410, 'width': 409, 'height': 410, 'widthPercent': 0.45, 'rescaleHeight': False, 'trialN': 56, 'loaded': True, 'loadedTime': 2905, 'positionName': 'LEFT', 'positionCoords': [512.6, 335], 'bid': 6.32}, {'imgObject': {}, 'id': 'yogurt no spoon', 'src': '/static/foodstim60/yogurt no spoon.jpg', 'key': 'i', 'origWidth': 411, 'origHeight': 410, 'width': 411, 'height': 410, 'widthPercent': 0.45, 'rescaleHeight': False, 'trialN': 56, 'loaded': True, 'loadedTime': 2953, 'positionName': 'RIGHT', 'positionCoords': [998.4, 335], 'bid': 6.76}]",108558.79999995232,1669841344729,baked potato,yogurt no spoon,6.32,6.76,0.4399999999999995,baked potato,1528.5,1528,1528.9000000357628,True,u,110590.79999995232,2032.0,1669841346761,2032,HRV,HRV_0297,2022-11-30 20:52:40
57,"[{'imgObject': {}, 'id': 'banana', 'src': '/static/foodstim60/banana.jpg', 'key': 'u', 'origWidth': 410, 'origHeight': 410, 'width': 410, 'height': 410, 'widthPercent': 0.45, 'rescaleHeight': False, 'trialN': 57, 'loaded': True, 'loadedTime': 3808.2999999523163, 'positionName': 'LEFT', 'positionCoords': [511.6, 335], 'bid': 9.32}, {'imgObject': {}, 'id': 'edamame', 'src': '/static/foodstim60/edamame.jpg', 'key': 'i', 'origWidth': 409, 'origHeight': 410, 'width': 409, 'height': 410, 'widthPercent': 0.45, 'rescaleHeight': False, 'trialN': 57, 'loaded': True, 'loadedTime': 3812.599999964237, 'positionName': 'RIGHT', 'positionCoords': [998.4, 335], 'bid': 8.13}]",110591.0,1669841346761,banana,edamame,9.32,8.13,-1.1899999999999995,banana,1632.0,1632,1632.3999999761581,True,u,112736.89999997616,2145.899999976158,1669841348907,2146,HRV,HRV_0297,2022-11-30 20:52:40
58,"[{'imgObject': {}, 'id': 'sweetpotato', 'src': '/static/foodstim60/sweetpotato.jpg', 'key': 'u', 'origWidth': 410, 'origHeight': 410, 'width': 410, 'height': 410, 'widthPercent': 0.45, 'rescaleHeight': False, 'trialN': 58, 'loaded': True, 'loadedTime': 3329.599999964237, 'positionName': 'LEFT', 'positionCoords': [511.6, 335], 'bid': 4.17}, {'imgObject': {}, 'id': 'eggsalad', 'src': '/static/foodstim60/eggsalad.jpg', 'key': 'i', 'origWidth': 410, 'origHeight': 409, 'width': 410, 'height': 409, 'widthPercent': 0.45, 'rescaleHeight': False, 'trialN': 58, 'loaded': True, 'loadedTime': 3283.399999976158, 'positionName': 'RIGHT', 'positionCoords': [998.4, 335.5], 'bid': 4.17}]",112737.09999996424,1669841348907,sweetpotato,eggsalad,4.17,4.17,0.0,eggsalad,1117.1000000238419,1117,1117.300000011921,True,i,114357.69999998808,1620.6000000238419,1669841350527,1620,HRV,HRV_0297,2022-11-30 20:52:40
59,"[{'imgObject': {}, 'id': 'orange slices', 'src': '/static/foodstim60/orange slices.jpg', 'key': 'u', 'origWidth': 409, 'origHeight': 410, 'width': 409, 'height': 410, 'widthPercent': 0.45, 'rescaleHeight': False, 'trialN': 59, 'loaded': True, 'loadedTime': 3668.099999964237, 'positionName': 'LEFT', 'positionCoords': [512.6, 335], 'bid': 7.640000000000001}, {'imgObject': {}, 'id': 'Tribe humus pita', 'src': '/static/foodstim60/Tribe humus pita.jpg', 'key': 'i', 'origWidth': 411, 'origHeight': 411, 'width': 411, 'height': 411, 'widthPercent': 0.45, 'rescaleHeight': False, 'trialN': 59, 'loaded': True, 'loadedTime': 3503.699999988079, 'positionName': 'RIGHT', 'positionCoords': [998.4, 334.5], 'bid': 7.16}]",114358.09999996424,1669841350528,orange slices,Tribe humus pita,7.640000000000001,7.16,-0.4800000000000004,orange slices,920.0,922,922.1999999880791,True,u,115781.79999995232,1423.699999988079,1669841351952,1424,HRV,HRV_0297,2022-11-30 20:52:40
60,"[{'imgObject': {}, 'id': 'cantaloupe', 'src': '/static/foodstim60/cantaloupe.jpg', 'key': 'u', 'origWidth': 409, 'origHeight': 409, 'width': 409, 'height': 409, 'widthPercent': 0.45, 'rescaleHeight': False, 'trialN': 60, 'loaded': True, 'loadedTime': 3821, 'positionName': 'LEFT', 'positionCoords': [512.6, 335.5], 'bid': 8.13}, {'imgObject': {}, 'id': 'tacos', 'src': '/static/foodstim60/tacos.jpg', 'key': 'i', 'origWidth': 411, 'origHeight': 411, 'width': 411, 'height': 411, 'widthPercent': 0.45, 'rescaleHeight': False, 'trialN': 60, 'loaded': True, 'loadedTime': 3005.699999988079, 'positionName': 'RIGHT', 'positionCoords': [998.4, 334.5], 'bid': 9.32}]",115782.09999996424,1669841351952,cantaloupe,tacos,8.13,9.32,1.1899999999999995,cantaloupe,1408.1000000238419,1408,1408.4000000357628,True,u,117693.69999998808,1911.6000000238419,1669841353863,1911,HRV,HRV_0297,2022-11-30 20:52:40
61,"[{'imgObject': {}, 'id': 'chicken nuggets2', 'src': '/static/foodstim60/chicken nuggets2.jpg', 'key': 'u', 'origWidth': 410, 'origHeight': 409, 'width': 410, 'height': 409, 'widthPercent': 0.45, 'rescaleHeight': False, 'trialN': 61, 'loaded': True, 'loadedTime': 3212.699999988079, 'positionName': 'LEFT', 'positionCoords': [511.6, 335.5], 'bid': 8}, {'imgObject': {}, 'id': 'sushi w_condiments', 'src': '/static/foodstim60/sushi w_condiments.jpg', 'key': 'i', 'origWidth': 410, 'origHeight': 410, 'width': 410, 'height': 410, 'widthPercent': 0.45, 'rescaleHeight': False, 'trialN': 61, 'loaded': True, 'loadedTime': 3093.7999999523163, 'positionName': 'RIGHT', 'positionCoords': [998.4, 335], 'bid': 8.25}]",117693.79999995232,1669841353864,chicken nuggets2,sushi w_condiments,8.0,8.25,0.25,chicken nuggets2,1440.300000011921,1440,1440.7000000476837,True,u,119656.69999998808,1962.9000000357628,1669841355826,1962,HRV,HRV_0297,2022-11-30 20:52:40
62,"[{'imgObject': {}, 'id': 'bagel plain', 'src': '/static/foodstim60/bagel plain.jpg', 'key': 'u', 'origWidth': 410, 'origHeight': 410, 'width': 410, 'height': 410, 'widthPercent': 0.45, 'rescaleHeight': False, 'trialN': 62, 'loaded': True, 'loadedTime': 3044.7999999523163, 'positionName': 'LEFT', 'positionCoords': [511.6, 335], 'bid': 6.78}, {'imgObject': {}, 'id': 'popsicles', 'src': '/static/foodstim60/popsicles.jpg', 'key': 'i', 'origWidth': 410, 'origHeight': 410, 'width': 410, 'height': 410, 'widthPercent': 0.45, 'rescaleHeight': False, 'trialN': 62, 'loaded': True, 'loadedTime': 3847.599999964237, 'positionName': 'RIGHT', 'positionCoords': [998.4, 335], 'bid': 6.86}]",119657.0,1669841355827,bagel plain,popsicles,6.78,6.86,0.08000000000000007,popsicles,1237.699999988079,1238,1238.0999999642372,True,i,121398.39999997616,1741.3999999761581,1669841357568,1741,HRV,HRV_0297,2022-11-30 20:52:40
63,"[{'imgObject': {}, 'id': 'strawberries', 'src': '/static/foodstim60/strawberries.jpg', 'key': 'u', 'origWidth': 410, 'origHeight': 410, 'width': 410, 'height': 410, 'widthPercent': 0.45, 'rescaleHeight': False, 'trialN': 63, 'loaded': True, 'loadedTime': 3675.7999999523163, 'positionName': 'LEFT', 'positionCoords': [511.6, 335], 'bid': 8.05}, {'imgObject': {}, 'id': 'hotdog w must', 'src': '/static/foodstim60/hotdog w must.jpg', 'key': 'i', 'origWidth': 409, 'origHeight': 409, 'width': 409, 'height': 409, 'widthPercent': 0.45, 'rescaleHeight': False, 'trialN': 63, 'loaded': True, 'loadedTime': 3854.199999988079, 'positionName': 'RIGHT', 'positionCoords': [998.4, 335.5], 'bid': 8.91}]",121398.59999996424,1669841357568,strawberries,hotdog w must,8.05,8.91,0.8599999999999994,strawberries,1183.9000000357628,1184,1184.199999988079,True,u,123086.09999996424,1687.5,1669841359256,1688,HRV,HRV_0297,2022-11-30 20:52:40
64,"[{'imgObject': {}, 'id': 'hashbrowns', 'src': '/static/foodstim60/hashbrowns.jpg', 'key': 'u', 'origWidth': 411, 'origHeight': 410, 'width': 411, 'height': 410, 'widthPercent': 0.45, 'rescaleHeight': False, 'trialN': 64, 'loaded': True, 'loadedTime': 3600.099999964237, 'positionName': 'LEFT', 'positionCoords': [510.6, 335], 'bid': 7.17}, {'imgObject': {}, 'id': 'Tribe humus pita', 'src': '/static/foodstim60/Tribe humus pita.jpg', 'key': 'i', 'origWidth': 411, 'origHeight': 411, 'width': 411, 'height': 411, 'widthPercent': 0.45, 'rescaleHeight': False, 'trialN': 64, 'loaded': True, 'loadedTime': 3532.7999999523163, 'positionName': 'RIGHT', 'positionCoords': [998.4, 334.5], 'bid': 7.16}]",123086.39999997616,1669841359256,hashbrowns,Tribe humus pita,7.17,7.16,-0.009999999999999787,hashbrowns,1359.8999999761581,1360,1360.1000000238419,True,u,124959.29999995232,1872.8999999761581,1669841361129,1873,HRV,HRV_0297,2022-11-30 20:52:40
65,"[{'imgObject': {}, 'id': 'mac & cheese', 'src': '/static/foodstim60/mac & cheese.jpg', 'key': 'u', 'origWidth': 410, 'origHeight': 410, 'width': 410, 'height': 410, 'widthPercent': 0.45, 'rescaleHeight': False, 'trialN': 65, 'loaded': True, 'loadedTime': 3011.2999999523163, 'positionName': 'LEFT', 'positionCoords': [511.6, 335], 'bid': 8.17}, {'imgObject': {}, 'id': 'mango', 'src': '/static/foodstim60/mango.jpg', 'key': 'i', 'origWidth': 411, 'origHeight': 411, 'width': 411, 'height': 411, 'widthPercent': 0.45, 'rescaleHeight': False, 'trialN': 65, 'loaded': True, 'loadedTime': 3650.199999988079, 'positionName': 'RIGHT', 'positionCoords': [998.4, 334.5], 'bid': 7.48}]",124959.5,1669841361129,mac & cheese,mango,8.17,7.48,-0.6899999999999995,mac & cheese,1214.7999999523163,1215,1215.0999999642372,True,u,126677.79999995232,1718.2999999523163,1669841362847,1718,HRV,HRV_0297,2022-11-30 20:52:40
66,"[{'imgObject': {}, 'id': 'bagel plain', 'src': '/static/foodstim60/bagel plain.jpg', 'key': 'u', 'origWidth': 410, 'origHeight': 410, 'width': 410, 'height': 410, 'widthPercent': 0.45, 'rescaleHeight': False, 'trialN': 66, 'loaded': True, 'loadedTime': 3088.699999988079, 'positionName': 'LEFT', 'positionCoords': [511.6, 335], 'bid': 6.78}, {'imgObject': {}, 'id': 'omelette', 'src': '/static/foodstim60/omelette.jpg', 'key': 'i', 'origWidth': 410, 'origHeight': 409, 'width': 410, 'height': 409, 'widthPercent': 0.45, 'rescaleHeight': False, 'trialN': 66, 'loaded': True, 'loadedTime': 3806.399999976158, 'positionName': 'RIGHT', 'positionCoords': [998.4, 335.5], 'bid': 6.34}]",126678.0,1669841362848,bagel plain,omelette,6.78,6.34,-0.4400000000000004,bagel plain,1152.199999988079,1155,1155.5,True,u,128355.29999995232,1677.2999999523163,1669841364525,1677,HRV,HRV_0297,2022-11-30 20:52:40
67,"[{'imgObject': {}, 'id': 'banana', 'src': '/static/foodstim60/banana.jpg', 'key': 'u', 'origWidth': 410, 'origHeight': 410, 'width': 410, 'height': 410, 'widthPercent': 0.45, 'rescaleHeight': False, 'trialN': 67, 'loaded': True, 'loadedTime': 3809.099999964237, 'positionName': 'LEFT', 'positionCoords': [511.6, 335], 'bid': 9.32}, {'imgObject': {}, 'id': 'hotdog w must', 'src': '/static/foodstim60/hotdog w must.jpg', 'key': 'i', 'origWidth': 409, 'origHeight': 409, 'width': 409, 'height': 409, 'widthPercent': 0.45, 'rescaleHeight': False, 'trialN': 67, 'loaded': True, 'loadedTime': 3854.699999988079, 'positionName': 'RIGHT', 'positionCoords': [998.4, 335.5], 'bid': 8.91}]",128355.39999997616,1669841364525,banana,hotdog w must,9.32,8.91,-0.41000000000000014,hotdog w must,1179.1000000238419,1179,1179.3999999761581,True,i,130037.5,1682.1000000238419,1669841366207,1682,HRV,HRV_0297,2022-11-30 20:52:40
68,"[{'imgObject': {}, 'id': 'hashbrowns', 'src': '/static/foodstim60/hashbrowns.jpg', 'key': 'u', 'origWidth': 411, 'origHeight': 410, 'width': 411, 'height': 410, 'widthPercent': 0.45, 'rescaleHeight': False, 'trialN': 68, 'loaded': True, 'loadedTime': 3636.899999976158, 'positionName': 'LEFT', 'positionCoords': [510.6, 335], 'bid': 7.17}, {'imgObject': {}, 'id': 'eggs', 'src': '/static/foodstim60/eggs.jpg', 'key': 'i', 'origWidth': 409, 'origHeight': 409, 'width': 409, 'height': 409, 'widthPercent': 0.45, 'rescaleHeight': False, 'trialN': 68, 'loaded': True, 'loadedTime': 3684.7999999523163, 'positionName': 'RIGHT', 'positionCoords': [998.4, 335.5], 'bid': 6.19}]",130037.69999998808,1669841366207,hashbrowns,eggs,7.17,6.19,-0.9799999999999995,eggs,1712.5,1713,1712.699999988079,True,i,132253.79999995232,2216.099999964237,1669841368423,2216,HRV,HRV_0297,2022-11-30 20:52:40
69,"[{'imgObject': {}, 'id': 'olives', 'src': '/static/foodstim60/olives.jpg', 'key': 'u', 'origWidth': 410, 'origHeight': 410, 'width': 410, 'height': 410, 'widthPercent': 0.45, 'rescaleHeight': False, 'trialN': 69, 'loaded': True, 'loadedTime': 3121.599999964237, 'positionName': 'LEFT', 'positionCoords': [511.6, 335], 'bid': 6.54}, {'imgObject': {}, 'id': 'fruitsalad', 'src': '/static/foodstim60/fruitsalad.jpg', 'key': 'i', 'origWidth': 410, 'origHeight': 410, 'width': 410, 'height': 410, 'widthPercent': 0.45, 'rescaleHeight': False, 'trialN': 69, 'loaded': True, 'loadedTime': 3883.899999976158, 'positionName': 'RIGHT', 'positionCoords': [998.4, 335], 'bid': 8.16}]",132254.0,1669841368424,olives,fruitsalad,6.54,8.16,1.62,fruitsalad,872.2999999523163,872,872.6999999880791,True,i,133629.89999997616,1375.8999999761581,1669841369799,1375,HRV,HRV_0297,2022-11-30 20:52:40
70,"[{'imgObject': {}, 'id': 'rigatoni', 'src': '/static/foodstim60/rigatoni.jpg', 'key': 'u', 'origWidth': 411, 'origHeight': 411, 'width': 411, 'height': 411, 'widthPercent': 0.45, 'rescaleHeight': False, 'trialN': 70, 'loaded': True, 'loadedTime': 3800.7999999523163, 'positionName': 'LEFT', 'positionCoords': [510.6, 334.5], 'bid': 7.19}, {'imgObject': {}, 'id': 'banana', 'src': '/static/foodstim60/banana.jpg', 'key': 'i', 'origWidth': 410, 'origHeight': 410, 'width': 410, 'height': 410, 'widthPercent': 0.45, 'rescaleHeight': False, 'trialN': 70, 'loaded': True, 'loadedTime': 3810.7999999523163, 'positionName': 'RIGHT', 'positionCoords': [998.4, 335], 'bid': 9.32}]",133630.0,1669841369800,rigatoni,banana,7.19,9.32,2.13,rigatoni,1712.2999999523163,1712,1712.5999999642372,True,u,135846.79999995232,2216.7999999523163,1669841372016,2216,HRV,HRV_0297,2022-11-30 20:52:40
71,"[{'imgObject': {}, 'id': 'shreddedwheatwithmilk', 'src': '/static/foodstim60/shreddedwheatwithmilk.jpg', 'key': 'u', 'origWidth': 410, 'origHeight': 410, 'width': 410, 'height': 410, 'widthPercent': 0.45, 'rescaleHeight': False, 'trialN': 71, 'loaded': True, 'loadedTime': 2909.599999964237, 'positionName': 'LEFT', 'positionCoords': [511.6, 335], 'bid': 4.09}, {'imgObject': {}, 'id': 'blackbeanswithrice', 'src': '/static/foodstim60/blackbeanswithrice.jpg', 'key': 'i', 'origWidth': 410, 'origHeight': 410, 'width': 410, 'height': 410, 'widthPercent': 0.45, 'rescaleHeight': False, 'trialN': 71, 'loaded': True, 'loadedTime': 3232.699999988079, 'positionName': 'RIGHT', 'positionCoords': [998.4, 335], 'bid': 2.44}]",135847.09999996424,1669841372017,shreddedwheatwithmilk,blackbeanswithrice,4.09,2.44,-1.65,shreddedwheatwithmilk,879.1000000238419,879,879.3000000119209,True,u,137230.19999998808,1383.1000000238419,1669841373400,1383,HRV,HRV_0297,2022-11-30 20:52:40
72,"[{'imgObject': {}, 'id': 'roastedpotatoes', 'src': '/static/foodstim60/roastedpotatoes.jpg', 'key': 'u', 'origWidth': 409, 'origHeight': 410, 'width': 409, 'height': 410, 'widthPercent': 0.45, 'rescaleHeight': False, 'trialN': 72, 'loaded': True, 'loadedTime': 3320.899999976158, 'positionName': 'LEFT', 'positionCoords': [512.6, 335], 'bid': 8.02}, {'imgObject': {}, 'id': 'chicken nuggets2', 'src': '/static/foodstim60/chicken nuggets2.jpg', 'key': 'i', 'origWidth': 410, 'origHeight': 409, 'width': 410, 'height': 409, 'widthPercent': 0.45, 'rescaleHeight': False, 'trialN': 72, 'loaded': True, 'loadedTime': 3213.699999988079, 'positionName': 'RIGHT', 'positionCoords': [998.4, 335.5], 'bid': 8}]",137230.39999997616,1669841373400,roastedpotatoes,chicken nuggets2,8.02,8.0,-0.019999999999999574,chicken nuggets2,1863.8999999761581,1875,1874.6000000238419,True,i,139606.0,2375.600000023842,1669841375776,2376,HRV,HRV_0297,2022-11-30 20:52:40
73,"[{'imgObject': {}, 'id': 'Grapes', 'src': '/static/foodstim60/Grapes.jpg', 'key': 'u', 'origWidth': 411, 'origHeight': 411, 'width': 411, 'height': 411, 'widthPercent': 0.45, 'rescaleHeight': False, 'trialN': 73, 'loaded': True, 'loadedTime': 3102.899999976158, 'positionName': 'LEFT', 'positionCoords': [510.6, 334.5], 'bid': 7.95}, {'imgObject': {}, 'id': 'pear', 'src': '/static/foodstim60/pear.jpg', 'key': 'i', 'origWidth': 411, 'origHeight': 410, 'width': 411, 'height': 410, 'widthPercent': 0.45, 'rescaleHeight': False, 'trialN': 73, 'loaded': True, 'loadedTime': 3797.699999988079, 'positionName': 'RIGHT', 'positionCoords': [998.4, 335], 'bid': 5.45}]",139606.09999996424,1669841375776,Grapes,pear,7.95,5.45,-2.5,pear,1872.0,1873,1872.9000000357628,True,i,141982.29999995232,2376.199999988079,1669841378152,2376,HRV,HRV_0297,2022-11-30 20:52:40
74,"[{'imgObject': {}, 'id': 'burrito', 'src': '/static/foodstim60/burrito.jpg', 'key': 'u', 'origWidth': 410, 'origHeight': 410, 'width': 410, 'height': 410, 'widthPercent': 0.45, 'rescaleHeight': False, 'trialN': 74, 'loaded': True, 'loadedTime': 3791.899999976158, 'positionName': 'LEFT', 'positionCoords': [511.6, 335], 'bid': 7.73}, {'imgObject': {}, 'id': 'edamame', 'src': '/static/foodstim60/edamame.jpg', 'key': 'i', 'origWidth': 409, 'origHeight': 410, 'width': 409, 'height': 410, 'widthPercent': 0.45, 'rescaleHeight': False, 'trialN': 74, 'loaded': True, 'loadedTime': 3810.899999976158, 'positionName': 'RIGHT', 'positionCoords': [998.4, 335], 'bid': 8.13}]",141982.5,1669841378152,burrito,edamame,7.73,8.13,0.40000000000000036,burrito,1055.8999999761581,1056,1056.199999988079,True,u,143542.39999997616,1559.8999999761581,1669841379712,1560,HRV,HRV_0297,2022-11-30 20:52:40
75,"[{'imgObject': {}, 'id': 'shreddedwheatwithmilk', 'src': '/static/foodstim60/shreddedwheatwithmilk.jpg', 'key': 'u', 'origWidth': 410, 'origHeight': 410, 'width': 410, 'height': 410, 'widthPercent': 0.45, 'rescaleHeight': False, 'trialN': 75, 'loaded': True, 'loadedTime': 2908.899999976158, 'positionName': 'LEFT', 'positionCoords': [511.6, 335], 'bid': 4.09}, {'imgObject': {}, 'id': 'pear', 'src': '/static/foodstim60/pear.jpg', 'key': 'i', 'origWidth': 411, 'origHeight': 410, 'width': 411, 'height': 410, 'widthPercent': 0.45, 'rescaleHeight': False, 'trialN': 75, 'loaded': True, 'loadedTime': 3796.2999999523163, 'positionName': 'RIGHT', 'positionCoords': [998.4, 335], 'bid': 5.45}]",143542.69999998808,1669841379712,shreddedwheatwithmilk,pear,4.09,5.45,1.3600000000000003,shreddedwheatwithmilk,1632.300000011921,1633,1633.0999999642372,True,u,145678.89999997616,2136.199999988079,1669841381848,2136,HRV,HRV_0297,2022-11-30 20:52:40
76,"[{'imgObject': {}, 'id': 'hotdog w must', 'src': '/static/foodstim60/hotdog w must.jpg', 'key': 'u', 'origWidth': 409, 'origHeight': 409, 'width': 409, 'height': 409, 'widthPercent': 0.45, 'rescaleHeight': False, 'trialN': 76, 'loaded': True, 'loadedTime': 3852.899999976158, 'positionName': 'LEFT', 'positionCoords': [512.6, 335.5], 'bid': 8.91}, {'imgObject': {}, 'id': 'turkeysandwich', 'src': '/static/foodstim60/turkeysandwich.jpg', 'key': 'i', 'origWidth': 409, 'origHeight': 409, 'width': 409, 'height': 409, 'widthPercent': 0.45, 'rescaleHeight': False, 'trialN': 76, 'loaded': True, 'loadedTime': 3292.899999976158, 'positionName': 'RIGHT', 'positionCoords': [998.4, 335.5], 'bid': 8.16}]",145679.09999996424,1669841381849,hotdog w must,turkeysandwich,8.91,8.16,-0.75,turkeysandwich,1759.1000000238419,1759,1759.300000011921,True,i,147941.69999998808,2262.600000023842,1669841384111,2262,HRV,HRV_0297,2022-11-30 20:52:40
77,"[{'imgObject': {}, 'id': 'burger', 'src': '/static/foodstim60/burger.jpg', 'key': 'u', 'origWidth': 409, 'origHeight': 409, 'width': 409, 'height': 409, 'widthPercent': 0.45, 'rescaleHeight': False, 'trialN': 77, 'loaded': True, 'loadedTime': 3372.699999988079, 'positionName': 'LEFT', 'positionCoords': [512.6, 335.5], 'bid': 7.56}, {'imgObject': {}, 'id': 'rigatoni', 'src': '/static/foodstim60/rigatoni.jpg', 'key': 'i', 'origWidth': 411, 'origHeight': 411, 'width': 411, 'height': 411, 'widthPercent': 0.45, 'rescaleHeight': False, 'trialN': 77, 'loaded': True, 'loadedTime': 3799.7999999523163, 'positionName': 'RIGHT', 'positionCoords': [998.4, 334.5], 'bid': 7.19}]",147941.89999997616,1669841384112,burger,rigatoni,7.56,7.19,-0.3699999999999992,rigatoni,1248.1000000238419,1248,1248.3999999761581,True,i,149694.29999995232,1752.3999999761581,1669841385864,1752,HRV,HRV_0297,2022-11-30 20:52:40
78,"[{'imgObject': {}, 'id': 'granola w milk', 'src': '/static/foodstim60/granola w milk.jpg', 'key': 'u', 'origWidth': 410, 'origHeight': 410, 'width': 410, 'height': 410, 'widthPercent': 0.45, 'rescaleHeight': False, 'trialN': 78, 'loaded': True, 'loadedTime': 3440.199999988079, 'positionName': 'LEFT', 'positionCoords': [511.6, 335], 'bid': 6.38}, {'imgObject': {}, 'id': 'omelette', 'src': '/static/foodstim60/omelette.jpg', 'key': 'i', 'origWidth': 410, 'origHeight': 409, 'width': 410, 'height': 409, 'widthPercent': 0.45, 'rescaleHeight': False, 'trialN': 78, 'loaded': True, 'loadedTime': 3806.099999964237, 'positionName': 'RIGHT', 'positionCoords': [998.4, 335.5], 'bid': 6.34}]",149694.69999998808,1669841385864,granola w milk,omelette,6.38,6.34,-0.040000000000000036,granola w milk,1999.699999988079,2002,2001.3999999761581,True,u,152198.0,2503.300000011921,1669841388368,2504,HRV,HRV_0297,2022-11-30 20:52:40
79,"[{'imgObject': {}, 'id': 'Grapes', 'src': '/static/foodstim60/Grapes.jpg', 'key': 'u', 'origWidth': 411, 'origHeight': 411, 'width': 411, 'height': 411, 'widthPercent': 0.45, 'rescaleHeight': False, 'trialN': 79, 'loaded': True, 'loadedTime': 3103.199999988079, 'positionName': 'LEFT', 'positionCoords': [510.6, 334.5], 'bid': 7.95}, {'imgObject': {}, 'id': 'rigatoni', 'src': '/static/foodstim60/rigatoni.jpg', 'key': 'i', 'origWidth': 411, 'origHeight': 411, 'width': 411, 'height': 411, 'widthPercent': 0.45, 'rescaleHeight': False, 'trialN': 79, 'loaded': True, 'loadedTime': 3803.699999988079, 'positionName': 'RIGHT', 'positionCoords': [998.4, 334.5], 'bid': 7.19}]",152198.39999997616,1669841388368,Grapes,rigatoni,7.95,7.19,-0.7599999999999998,rigatoni,1103.6000000238419,1104,1103.8999999761581,True,i,153805.59999996424,1607.199999988079,1669841389975,1607,HRV,HRV_0297,2022-11-30 20:52:40
80,"[{'imgObject': {}, 'id': 'eggs', 'src': '/static/foodstim60/eggs.jpg', 'key': 'u', 'origWidth': 409, 'origHeight': 409, 'width': 409, 'height': 409, 'widthPercent': 0.45, 'rescaleHeight': False, 'trialN': 80, 'loaded': True, 'loadedTime': 3684, 'positionName': 'LEFT', 'positionCoords': [512.6, 335.5], 'bid': 6.19}, {'imgObject': {}, 'id': 'baked potato', 'src': '/static/foodstim60/baked potato.jpg', 'key': 'i', 'origWidth': 409, 'origHeight': 410, 'width': 409, 'height': 410, 'widthPercent': 0.45, 'rescaleHeight': False, 'trialN': 80, 'loaded': True, 'loadedTime': 2893.7999999523163, 'positionName': 'RIGHT', 'positionCoords': [998.4, 335], 'bid': 6.32}]",153806.19999998808,1669841389976,eggs,baked potato,6.19,6.32,0.1299999999999999,baked potato,1368.0,1369,1368.699999988079,True,i,155678.0,1871.800000011921,1669841391848,1872,HRV,HRV_0297,2022-11-30 20:52:40
81,"[{'imgObject': {}, 'id': 'bagel and cc', 'src': '/static/foodstim60/bagel and cc.jpg', 'key': 'u', 'origWidth': 410, 'origHeight': 410, 'width': 410, 'height': 410, 'widthPercent': 0.45, 'rescaleHeight': False, 'trialN': 81, 'loaded': True, 'loadedTime': 3209.399999976158, 'positionName': 'LEFT', 'positionCoords': [511.6, 335], 'bid': 8.67}, {'imgObject': {}, 'id': 'apple slices', 'src': '/static/foodstim60/apple slices.jpg', 'key': 'i', 'origWidth': 409, 'origHeight': 410, 'width': 409, 'height': 410, 'widthPercent': 0.45, 'rescaleHeight': False, 'trialN': 81, 'loaded': True, 'loadedTime': 3691.199999988079, 'positionName': 'RIGHT', 'positionCoords': [998.4, 335], 'bid': 8.14}]",155678.29999995232,1669841391848,bagel and cc,apple slices,8.67,8.14,-0.5299999999999994,apple slices,1240.4000000357628,1241,1240.7000000476837,True,i,157421.89999997616,1743.6000000238419,1669841393591,1743,HRV,HRV_0297,2022-11-30 20:52:40
82,"[{'imgObject': {}, 'id': 'salad w chicken', 'src': '/static/foodstim60/salad w chicken.jpg', 'key': 'u', 'origWidth': 411, 'origHeight': 411, 'width': 411, 'height': 411, 'widthPercent': 0.45, 'rescaleHeight': False, 'trialN': 82, 'loaded': True, 'loadedTime': 3704, 'positionName': 'LEFT', 'positionCoords': [510.6, 334.5], 'bid': 8.89}, {'imgObject': {}, 'id': 'roastedpotatoes', 'src': '/static/foodstim60/roastedpotatoes.jpg', 'key': 'i', 'origWidth': 409, 'origHeight': 410, 'width': 409, 'height': 410, 'widthPercent': 0.45, 'rescaleHeight': False, 'trialN': 82, 'loaded': True, 'loadedTime': 3321, 'positionName': 'RIGHT', 'positionCoords': [998.4, 335], 'bid': 8.02}]",157422.09999996424,1669841393592,salad w chicken,roastedpotatoes,8.89,8.02,-0.870000000000001,salad w chicken,872.1000000238419,872,872.5,True,u,158797.5,1375.4000000357628,1669841394967,1375,HRV,HRV_0297,2022-11-30 20:52:40
83,"[{'imgObject': {}, 'id': 'chickenfingers', 'src': '/static/foodstim60/chickenfingers.jpg', 'key': 'u', 'origWidth': 410, 'origHeight': 410, 'width': 410, 'height': 410, 'widthPercent': 0.45, 'rescaleHeight': False, 'trialN': 83, 'loaded': True, 'loadedTime': 3099, 'positionName': 'LEFT', 'positionCoords': [511.6, 335], 'bid': 7.71}, {'imgObject': {}, 'id': 'raisin bran w milk', 'src': '/static/foodstim60/raisin bran w milk.jpg', 'key': 'i', 'origWidth': 411, 'origHeight': 411, 'width': 411, 'height': 411, 'widthPercent': 0.45, 'rescaleHeight': False, 'trialN': 83, 'loaded': True, 'loadedTime': 3679.599999964237, 'positionName': 'RIGHT', 'positionCoords': [998.4, 334.5], 'bid': 5.0600000000000005}]",158797.59999996424,1669841394967,chickenfingers,raisin bran w milk,7.71,5.0600000000000005,-2.6499999999999995,chickenfingers,1056.5,1057,1056.9000000357628,True,u,160358.0,1560.4000000357628,1669841396528,1561,HRV,HRV_0297,2022-11-30 20:52:40
84,"[{'imgObject': {}, 'id': 'eggsalad', 'src': '/static/foodstim60/eggsalad.jpg', 'key': 'u', 'origWidth': 410, 'origHeight': 409, 'width': 410, 'height': 409, 'widthPercent': 0.45, 'rescaleHeight': False, 'trialN': 84, 'loaded': True, 'loadedTime': 3285.7999999523163, 'positionName': 'LEFT', 'positionCoords': [511.6, 335.5], 'bid': 4.17}, {'imgObject': {}, 'id': 'omelette', 'src': '/static/foodstim60/omelette.jpg', 'key': 'i', 'origWidth': 410, 'origHeight': 409, 'width': 410, 'height': 409, 'widthPercent': 0.45, 'rescaleHeight': False, 'trialN': 84, 'loaded': True, 'loadedTime': 3806.699999988079, 'positionName': 'RIGHT', 'positionCoords': [998.4, 335.5], 'bid': 6.34}]",160358.19999998808,1669841396528,eggsalad,omelette,4.17,6.34,2.17,eggsalad,1168.5,1169,1168.800000011921,True,u,162029.19999998808,1671.0,1669841398199,1671,HRV,HRV_0297,2022-11-30 20:52:40
85,"[{'imgObject': {}, 'id': 'veggieswithdip', 'src': '/static/foodstim60/veggieswithdip.jpg', 'key': 'u', 'origWidth': 409, 'origHeight': 409, 'width': 409, 'height': 409, 'widthPercent': 0.45, 'rescaleHeight': False, 'trialN': 85, 'loaded': True, 'loadedTime': 3502.2999999523163, 'positionName': 'LEFT', 'positionCoords': [512.6, 335.5], 'bid': 7.35}, {'imgObject': {}, 'id': 'blackbeanswithrice', 'src': '/static/foodstim60/blackbeanswithrice.jpg', 'key': 'i', 'origWidth': 410, 'origHeight': 410, 'width': 410, 'height': 410, 'widthPercent': 0.45, 'rescaleHeight': False, 'trialN': 85, 'loaded': True, 'loadedTime': 3234.399999976158, 'positionName': 'RIGHT', 'positionCoords': [998.4, 335], 'bid': 2.44}]",162029.5,1669841398199,veggieswithdip,blackbeanswithrice,7.35,2.44,-4.91,veggieswithdip,920.7999999523163,921,921.1999999880791,True,u,163454.19999998808,1424.699999988079,1669841399624,1425,HRV,HRV_0297,2022-11-30 20:52:40
86,"[{'imgObject': {}, 'id': 'popsicles', 'src': '/static/foodstim60/popsicles.jpg', 'key': 'u', 'origWidth': 410, 'origHeight': 410, 'width': 410, 'height': 410, 'widthPercent': 0.45, 'rescaleHeight': False, 'trialN': 86, 'loaded': True, 'loadedTime': 3852.099999964237, 'positionName': 'LEFT', 'positionCoords': [511.6, 335], 'bid': 6.86}, {'imgObject': {}, 'id': 'raisin bran w milk', 'src': '/static/foodstim60/raisin bran w milk.jpg', 'key': 'i', 'origWidth': 411, 'origHeight': 411, 'width': 411, 'height': 411, 'widthPercent': 0.45, 'rescaleHeight': False, 'trialN': 86, 'loaded': True, 'loadedTime': 3683.399999976158, 'positionName': 'RIGHT', 'positionCoords': [998.4, 334.5], 'bid': 5.0600000000000005}]",163454.39999997616,1669841399624,popsicles,raisin bran w milk,6.86,5.0600000000000005,-1.7999999999999998,popsicles,999.6000000238419,1000,999.8000000119209,True,u,164959.29999995232,1504.8999999761581,1669841401129,1505,HRV,HRV_0297,2022-11-30 20:52:40
87,"[{'imgObject': {}, 'id': 'cantaloupe', 'src': '/static/foodstim60/cantaloupe.jpg', 'key': 'u', 'origWidth': 409, 'origHeight': 409, 'width': 409, 'height': 409, 'widthPercent': 0.45, 'rescaleHeight': False, 'trialN': 87, 'loaded': True, 'loadedTime': 3847.2999999523163, 'positionName': 'LEFT', 'positionCoords': [512.6, 335.5], 'bid': 8.13}, {'imgObject': {}, 'id': 'chickenfingers', 'src': '/static/foodstim60/chickenfingers.jpg', 'key': 'i', 'origWidth': 410, 'origHeight': 410, 'width': 410, 'height': 410, 'widthPercent': 0.45, 'rescaleHeight': False, 'trialN': 87, 'loaded': True, 'loadedTime': 3099.399999976158, 'positionName': 'RIGHT', 'positionCoords': [998.4, 335], 'bid': 7.71}]",164959.39999997616,1669841401129,cantaloupe,chickenfingers,8.13,7.71,-0.4200000000000008,cantaloupe,2047.0,2047,2047.300000011921,True,u,167510.29999995232,2550.899999976158,1669841403680,2551,HRV,HRV_0297,2022-11-30 20:52:40
88,"[{'imgObject': {}, 'id': 'omelette', 'src': '/static/foodstim60/omelette.jpg', 'key': 'u', 'origWidth': 410, 'origHeight': 409, 'width': 410, 'height': 409, 'widthPercent': 0.45, 'rescaleHeight': False, 'trialN': 88, 'loaded': True, 'loadedTime': 3806.699999988079, 'positionName': 'LEFT', 'positionCoords': [511.6, 335.5], 'bid': 6.34}, {'imgObject': {}, 'id': 'edamame', 'src': '/static/foodstim60/edamame.jpg', 'key': 'i', 'origWidth': 409, 'origHeight': 410, 'width': 409, 'height': 410, 'widthPercent': 0.45, 'rescaleHeight': False, 'trialN': 88, 'loaded': True, 'loadedTime': 3811.899999976158, 'positionName': 'RIGHT', 'positionCoords': [998.4, 335], 'bid': 8.13}]",167510.59999996424,1669841403680,omelette,edamame,6.34,8.13,1.790000000000001,omelette,1383.4000000357628,1384,1383.699999988079,True,u,169397.79999995232,1887.199999988079,1669841405567,1887,HRV,HRV_0297,2022-11-30 20:52:40
89,"[{'imgObject': {}, 'id': 'burrito', 'src': '/static/foodstim60/burrito.jpg', 'key': 'u', 'origWidth': 410, 'origHeight': 410, 'width': 410, 'height': 410, 'widthPercent': 0.45, 'rescaleHeight': False, 'trialN': 89, 'loaded': True, 'loadedTime': 3790.099999964237, 'positionName': 'LEFT', 'positionCoords': [511.6, 335], 'bid': 7.73}, {'imgObject': {}, 'id': 'raspberries', 'src': '/static/foodstim60/raspberries.jpg', 'key': 'i', 'origWidth': 411, 'origHeight': 411, 'width': 411, 'height': 411, 'widthPercent': 0.45, 'rescaleHeight': False, 'trialN': 89, 'loaded': True, 'loadedTime': 3656, 'positionName': 'RIGHT', 'positionCoords': [998.4, 334.5], 'bid': 5.11}]",169397.89999997616,1669841405568,burrito,raspberries,7.73,5.11,-2.62,burrito,992.1000000238419,992,992.3999999761581,True,u,170894.5,1496.6000000238419,1669841407064,1496,HRV,HRV_0297,2022-11-30 20:52:40
90,"[{'imgObject': {}, 'id': 'cherry tomato', 'src': '/static/foodstim60/cherry tomato.jpg', 'key': 'u', 'origWidth': 410, 'origHeight': 410, 'width': 410, 'height': 410, 'widthPercent': 0.45, 'rescaleHeight': False, 'trialN': 90, 'loaded': True, 'loadedTime': 3133.199999988079, 'positionName': 'LEFT', 'positionCoords': [511.6, 335], 'bid': 6.98}, {'imgObject': {}, 'id': 'fried eggs', 'src': '/static/foodstim60/fried eggs.jpg', 'key': 'i', 'origWidth': 410, 'origHeight': 410, 'width': 410, 'height': 410, 'widthPercent': 0.45, 'rescaleHeight': False, 'trialN': 90, 'loaded': True, 'loadedTime': 3894.2999999523163, 'positionName': 'RIGHT', 'positionCoords': [998.4, 335], 'bid': 7.04}]",175933.69999998808,1669841412103,cherry tomato,fried eggs,6.98,7.04,0.05999999999999961,cherry tomato,1633.5999999642372,1634,1634.0,True,u,178069.5,2135.800000011921,1669841414240,2137,HRV,HRV_0297,2022-11-30 20:52:40
91,"[{'imgObject': {}, 'id': 'ice cream sundae 002', 'src': '/static/foodstim60/ice cream sundae 002.jpg', 'key': 'u', 'origWidth': 409, 'origHeight': 409, 'width': 409, 'height': 409, 'widthPercent': 0.45, 'rescaleHeight': False, 'trialN': 91, 'loaded': True, 'loadedTime': 3534.099999964237, 'positionName': 'LEFT', 'positionCoords': [512.6, 335.5], 'bid': 6.84}, {'imgObject': {}, 'id': 'kiwi', 'src': '/static/foodstim60/kiwi.jpg', 'key': 'i', 'origWidth': 410, 'origHeight': 410, 'width': 410, 'height': 410, 'widthPercent': 0.45, 'rescaleHeight': False, 'trialN': 91, 'loaded': True, 'loadedTime': 3653.599999964237, 'positionName': 'RIGHT', 'positionCoords': [998.4, 335], 'bid': 6.93}]",178069.79999995232,1669841414240,ice cream sundae 002,kiwi,6.84,6.93,0.08999999999999986,kiwi,1016.6000000238419,1017,1017.0,True,i,179589.79999995232,1520.0,1669841415760,1520,HRV,HRV_0297,2022-11-30 20:52:40
92,"[{'imgObject': {}, 'id': 'shreddedwheatwithmilk', 'src': '/static/foodstim60/shreddedwheatwithmilk.jpg', 'key': 'u', 'origWidth': 410, 'origHeight': 410, 'width': 410, 'height': 410, 'widthPercent': 0.45, 'rescaleHeight': False, 'trialN': 92, 'loaded': True, 'loadedTime': 2912.399999976158, 'positionName': 'LEFT', 'positionCoords': [511.6, 335], 'bid': 4.09}, {'imgObject': {}, 'id': 'cherries', 'src': '/static/foodstim60/cherries.jpg', 'key': 'i', 'origWidth': 410, 'origHeight': 411, 'width': 410, 'height': 411, 'widthPercent': 0.45, 'rescaleHeight': False, 'trialN': 92, 'loaded': True, 'loadedTime': 3699.599999964237, 'positionName': 'RIGHT', 'positionCoords': [998.4, 334.5], 'bid': 6.640000000000001}]",179589.89999997616,1669841415760,shreddedwheatwithmilk,cherries,4.09,6.640000000000001,2.5500000000000007,cherries,1153.199999988079,1154,1153.699999988079,True,i,181246.09999996424,1656.199999988079,1669841417416,1656,HRV,HRV_0297,2022-11-30 20:52:40
93,"[{'imgObject': {}, 'id': 'burrito', 'src': '/static/foodstim60/burrito.jpg', 'key': 'u', 'origWidth': 410, 'origHeight': 410, 'width': 410, 'height': 410, 'widthPercent': 0.45, 'rescaleHeight': False, 'trialN': 93, 'loaded': True, 'loadedTime': 3791.399999976158, 'positionName': 'LEFT', 'positionCoords': [511.6, 335], 'bid': 7.73}, {'imgObject': {}, 'id': 'turkey sandwich', 'src': '/static/foodstim60/turkey sandwich.jpg', 'key': 'i', 'origWidth': 409, 'origHeight': 409, 'width': 409, 'height': 409, 'widthPercent': 0.45, 'rescaleHeight': False, 'trialN': 93, 'loaded': True, 'loadedTime': 3729.099999964237, 'positionName': 'RIGHT', 'positionCoords': [998.4, 335.5], 'bid': 8.58}]",181246.29999995232,1669841417417,burrito,turkey sandwich,7.73,8.58,0.8499999999999996,turkey sandwich,663.6000000238419,663,663.9000000357628,True,i,182413.09999996424,1166.800000011921,1669841418583,1166,HRV,HRV_0297,2022-11-30 20:52:40
94,"[{'imgObject': {}, 'id': 'granola w milk', 'src': '/static/foodstim60/granola w milk.jpg', 'key': 'u', 'origWidth': 410, 'origHeight': 410, 'width': 410, 'height': 410, 'widthPercent': 0.45, 'rescaleHeight': False, 'trialN': 94, 'loaded': True, 'loadedTime': 3442.699999988079, 'positionName': 'LEFT', 'positionCoords': [511.6, 335], 'bid': 6.38}, {'imgObject': {}, 'id': 'seaweed', 'src': '/static/foodstim60/seaweed.jpg', 'key': 'i', 'origWidth': 410, 'origHeight': 410, 'width': 410, 'height': 410, 'widthPercent': 0.45, 'rescaleHeight': False, 'trialN': 94, 'loaded': True, 'loadedTime': 3417.7999999523163, 'positionName': 'RIGHT', 'positionCoords': [998.4, 335], 'bid': 0.75}]",182413.39999997616,1669841418584,granola w milk,seaweed,6.38,0.75,-5.63,granola w milk,784.3999999761581,785,785.0,True,u,183701.39999997616,1288.0,1669841419872,1288,HRV,HRV_0297,2022-11-30 20:52:40
95,"[{'imgObject': {}, 'id': 'veggieswithdip', 'src': '/static/foodstim60/veggieswithdip.jpg', 'key': 'u', 'origWidth': 409, 'origHeight': 409, 'width': 409, 'height': 409, 'widthPercent': 0.45, 'rescaleHeight': False, 'trialN': 95, 'loaded': True, 'loadedTime': 3457.399999976158, 'positionName': 'LEFT', 'positionCoords': [512.6, 335.5], 'bid': 7.35}, {'imgObject': {}, 'id': 'rigatoni', 'src': '/static/foodstim60/rigatoni.jpg', 'key': 'i', 'origWidth': 411, 'origHeight': 411, 'width': 411, 'height': 411, 'widthPercent': 0.45, 'rescaleHeight': False, 'trialN': 95, 'loaded': True, 'loadedTime': 3801.399999976158, 'positionName': 'RIGHT', 'positionCoords': [998.4, 334.5], 'bid': 7.19}]",183701.59999996424,1669841419872,veggieswithdip,rigatoni,7.35,7.19,-0.15999999999999925,veggieswithdip,688.8000000119209,689,689.1000000238419,True,u,184894.59999996424,1193.0,1669841421065,1193,HRV,HRV_0297,2022-11-30 20:52:40
96,"[{'imgObject': {}, 'id': 'banana', 'src': '/static/foodstim60/banana.jpg', 'key': 'u', 'origWidth': 410, 'origHeight': 410, 'width': 410, 'height': 410, 'widthPercent': 0.45, 'rescaleHeight': False, 'trialN': 96, 'loaded': True, 'loadedTime': 3810.699999988079, 'positionName': 'LEFT', 'positionCoords': [511.6, 335], 'bid': 9.32}, {'imgObject': {}, 'id': 'cocktailshrimp', 'src': '/static/foodstim60/cocktailshrimp.jpg', 'key': 'i', 'origWidth': 410, 'origHeight': 410, 'width': 410, 'height': 410, 'widthPercent': 0.45, 'rescaleHeight': False, 'trialN': 96, 'loaded': True, 'loadedTime': 2984.699999988079, 'positionName': 'RIGHT', 'positionCoords': [998.4, 335], 'bid': 8.18}]",184894.79999995232,1669841421065,banana,cocktailshrimp,9.32,8.18,-1.1400000000000006,cocktailshrimp,1007.2000000476837,1008,1007.5,True,i,186405.0,1510.2000000476837,1669841422575,1510,HRV,HRV_0297,2022-11-30 20:52:40
97,"[{'imgObject': {}, 'id': 'eggs', 'src': '/static/foodstim60/eggs.jpg', 'key': 'u', 'origWidth': 409, 'origHeight': 409, 'width': 409, 'height': 409, 'widthPercent': 0.45, 'rescaleHeight': False, 'trialN': 97, 'loaded': True, 'loadedTime': 3687, 'positionName': 'LEFT', 'positionCoords': [512.6, 335.5], 'bid': 6.19}, {'imgObject': {}, 'id': 'omelette', 'src': '/static/foodstim60/omelette.jpg', 'key': 'i', 'origWidth': 410, 'origHeight': 409, 'width': 410, 'height': 409, 'widthPercent': 0.45, 'rescaleHeight': False, 'trialN': 97, 'loaded': True, 'loadedTime': 3804.899999976158, 'positionName': 'RIGHT', 'positionCoords': [998.4, 335.5], 'bid': 6.34}]",186405.19999998808,1669841422575,eggs,omelette,6.19,6.34,0.14999999999999947,eggs,712.6999999880791,714,713.3000000119209,True,u,187628.09999996424,1222.8999999761581,1669841423798,1223,HRV,HRV_0297,2022-11-30 20:52:40
98,"[{'imgObject': {}, 'id': 'Tribe humus pita', 'src': '/static/foodstim60/Tribe humus pita.jpg', 'key': 'u', 'origWidth': 411, 'origHeight': 411, 'width': 411, 'height': 411, 'widthPercent': 0.45, 'rescaleHeight': False, 'trialN': 98, 'loaded': True, 'loadedTime': 3502.899999976158, 'positionName': 'LEFT', 'positionCoords': [510.6, 334.5], 'bid': 7.16}, {'imgObject': {}, 'id': 'blueberries', 'src': '/static/foodstim60/blueberries.jpg', 'key': 'i', 'origWidth': 411, 'origHeight': 411, 'width': 411, 'height': 411, 'widthPercent': 0.45, 'rescaleHeight': False, 'trialN': 98, 'loaded': True, 'loadedTime': 2832.599999964237, 'positionName': 'RIGHT', 'positionCoords': [998.4, 334.5], 'bid': 7.390000000000001}]",187635.39999997616,1669841423806,Tribe humus pita,blueberries,7.16,7.390000000000001,0.23000000000000043,Tribe humus pita,698.8999999761581,699,699.3000000119209,True,u,188837.79999995232,1202.3999999761581,1669841425008,1202,HRV,HRV_0297,2022-11-30 20:52:40
99,"[{'imgObject': {}, 'id': 'grilled chicken strips', 'src': '/static/foodstim60/grilled chicken strips.jpg', 'key': 'u', 'origWidth': 410, 'origHeight': 411, 'width': 410, 'height': 411, 'widthPercent': 0.45, 'rescaleHeight': False, 'trialN': 99, 'loaded': True, 'loadedTime': 3799.699999988079, 'positionName': 'LEFT', 'positionCoords': [511.6, 334.5], 'bid': 5.88}, {'imgObject': {}, 'id': 'seaweed', 'src': '/static/foodstim60/seaweed.jpg', 'key': 'i', 'origWidth': 410, 'origHeight': 410, 'width': 410, 'height': 410, 'widthPercent': 0.45, 'rescaleHeight': False, 'trialN': 99, 'loaded': True, 'loadedTime': 3429.399999976158, 'positionName': 'RIGHT', 'positionCoords': [998.4, 335], 'bid': 0.75}]",188838.09999996424,1669841425008,grilled chicken strips,seaweed,5.88,0.75,-5.13,grilled chicken strips,815.6999999880791,816,816.1000000238419,True,u,190158.09999996424,1320.0,1669841426328,1320,HRV,HRV_0297,2022-11-30 20:52:40
100,"[{'imgObject': {}, 'id': 'raspberries', 'src': '/static/foodstim60/raspberries.jpg', 'key': 'u', 'origWidth': 411, 'origHeight': 411, 'width': 411, 'height': 411, 'widthPercent': 0.45, 'rescaleHeight': False, 'trialN': 100, 'loaded': True, 'loadedTime': 3657.699999988079, 'positionName': 'LEFT', 'positionCoords': [510.6, 334.5], 'bid': 5.11}, {'imgObject': {}, 'id': 'grilled chicken strips', 'src': '/static/foodstim60/grilled chicken strips.jpg', 'key': 'i', 'origWidth': 410, 'origHeight': 411, 'width': 410, 'height': 411, 'widthPercent': 0.45, 'rescaleHeight': False, 'trialN': 100, 'loaded': True, 'loadedTime': 3799.599999964237, 'positionName': 'RIGHT', 'positionCoords': [998.4, 334.5], 'bid': 5.88}]",190158.29999995232,1669841426329,raspberries,grilled chicken strips,5.11,5.88,0.7699999999999996,grilled chicken strips,687.7000000476837,688,687.9000000357628,True,i,191349.5,1191.2000000476837,1669841427520,1191,HRV,HRV_0297,2022-11-30 20:52:40
101,"[{'imgObject': {}, 'id': 'mango', 'src': '/static/foodstim60/mango.jpg', 'key': 'u', 'origWidth': 411, 'origHeight': 411, 'width': 411, 'height': 411, 'widthPercent': 0.45, 'rescaleHeight': False, 'trialN': 101, 'loaded': True, 'loadedTime': 3651, 'positionName': 'LEFT', 'positionCoords': [510.6, 334.5], 'bid': 7.48}, {'imgObject': {}, 'id': 'kiwi', 'src': '/static/foodstim60/kiwi.jpg', 'key': 'i', 'origWidth': 410, 'origHeight': 410, 'width': 410, 'height': 410, 'widthPercent': 0.45, 'rescaleHeight': False, 'trialN': 101, 'loaded': True, 'loadedTime': 3653.399999976158, 'positionName': 'RIGHT', 'positionCoords': [998.4, 335], 'bid': 6.93}]",191349.69999998808,1669841427520,mango,kiwi,7.48,6.93,-0.5500000000000007,kiwi,704.1999999880791,705,704.5999999642372,True,i,192557.89999997616,1208.199999988079,1669841428728,1208,HRV,HRV_0297,2022-11-30 20:52:40
102,"[{'imgObject': {}, 'id': 'luckycharms', 'src': '/static/foodstim60/luckycharms.jpg', 'key': 'u', 'origWidth': 410, 'origHeight': 409, 'width': 410, 'height': 409, 'widthPercent': 0.45, 'rescaleHeight': False, 'trialN': 102, 'loaded': True, 'loadedTime': 3106.5, 'positionName': 'LEFT', 'positionCoords': [511.6, 335.5], 'bid': 8.55}, {'imgObject': {}, 'id': 'popsicles', 'src': '/static/foodstim60/popsicles.jpg', 'key': 'i', 'origWidth': 410, 'origHeight': 410, 'width': 410, 'height': 410, 'widthPercent': 0.45, 'rescaleHeight': False, 'trialN': 102, 'loaded': True, 'loadedTime': 3852.2999999523163, 'positionName': 'RIGHT', 'positionCoords': [998.4, 335], 'bid': 6.86}]",192558.09999996424,1669841428728,luckycharms,popsicles,8.55,6.86,-1.6900000000000004,popsicles,967.9000000357628,970,969.8000000119209,True,i,194034.0,1475.9000000357628,1669841430204,1476,HRV,HRV_0297,2022-11-30 20:52:40
103,"[{'imgObject': {}, 'id': 'salad w chicken', 'src': '/static/foodstim60/salad w chicken.jpg', 'key': 'u', 'origWidth': 411, 'origHeight': 411, 'width': 411, 'height': 411, 'widthPercent': 0.45, 'rescaleHeight': False, 'trialN': 103, 'loaded': True, 'loadedTime': 3704.599999964237, 'positionName': 'LEFT', 'positionCoords': [510.6, 334.5], 'bid': 8.89}, {'imgObject': {}, 'id': 'tacos', 'src': '/static/foodstim60/tacos.jpg', 'key': 'i', 'origWidth': 411, 'origHeight': 411, 'width': 411, 'height': 411, 'widthPercent': 0.45, 'rescaleHeight': False, 'trialN': 103, 'loaded': True, 'loadedTime': 3007.7999999523163, 'positionName': 'RIGHT', 'positionCoords': [998.4, 334.5], 'bid': 9.32}]",194036.0,1669841430206,salad w chicken,tacos,8.89,9.32,0.4299999999999997,tacos,698.0999999642372,699,698.5,True,i,195237.69999998808,1201.699999988079,1669841431408,1202,HRV,HRV_0297,2022-11-30 20:52:40
104,"[{'imgObject': {}, 'id': 'cheerios', 'src': '/static/foodstim60/cheerios.jpg', 'key': 'u', 'origWidth': 409, 'origHeight': 410, 'width': 409, 'height': 410, 'widthPercent': 0.45, 'rescaleHeight': False, 'trialN': 104, 'loaded': True, 'loadedTime': 3663.199999988079, 'positionName': 'LEFT', 'positionCoords': [512.6, 335], 'bid': 4.44}, {'imgObject': {}, 'id': 'eggsalad', 'src': '/static/foodstim60/eggsalad.jpg', 'key': 'i', 'origWidth': 410, 'origHeight': 409, 'width': 410, 'height': 409, 'widthPercent': 0.45, 'rescaleHeight': False, 'trialN': 104, 'loaded': True, 'loadedTime': 3285, 'positionName': 'RIGHT', 'positionCoords': [998.4, 335.5], 'bid': 4.17}]",195237.79999995232,1669841431408,cheerios,eggsalad,4.44,4.17,-0.27000000000000046,cheerios,768.1000000238419,769,768.7000000476837,True,u,196510.19999998808,1272.4000000357628,1669841432680,1272,HRV,HRV_0297,2022-11-30 20:52:40
105,"[{'imgObject': {}, 'id': 'hashbrowns', 'src': '/static/foodstim60/hashbrowns.jpg', 'key': 'u', 'origWidth': 411, 'origHeight': 410, 'width': 411, 'height': 410, 'widthPercent': 0.45, 'rescaleHeight': False, 'trialN': 105, 'loaded': True, 'loadedTime': 3599.699999988079, 'positionName': 'LEFT', 'positionCoords': [510.6, 335], 'bid': 7.17}, {'imgObject': {}, 'id': 'hotdog w must', 'src': '/static/foodstim60/hotdog w must.jpg', 'key': 'i', 'origWidth': 409, 'origHeight': 409, 'width': 409, 'height': 409, 'widthPercent': 0.45, 'rescaleHeight': False, 'trialN': 105, 'loaded': True, 'loadedTime': 3854.699999988079, 'positionName': 'RIGHT', 'positionCoords': [998.4, 335.5], 'bid': 8.91}]",196510.29999995232,1669841432681,hashbrowns,hotdog w must,7.17,8.91,1.7400000000000002,hashbrowns,744.4000000357628,745,745.0,True,u,197757.69999998808,1247.4000000357628,1669841433928,1247,HRV,HRV_0297,2022-11-30 20:52:40
106,"[{'imgObject': {}, 'id': 'mashed potato', 'src': '/static/foodstim60/mashed potato.jpg', 'key': 'u', 'origWidth': 409, 'origHeight': 409, 'width': 409, 'height': 409, 'widthPercent': 0.45, 'rescaleHeight': False, 'trialN': 106, 'loaded': True, 'loadedTime': 3435, 'positionName': 'LEFT', 'positionCoords': [512.6, 335.5], 'bid': 3.3000000000000003}, {'imgObject': {}, 'id': 'salmon', 'src': '/static/foodstim60/salmon.jpg', 'key': 'i', 'origWidth': 410, 'origHeight': 409, 'width': 410, 'height': 409, 'widthPercent': 0.45, 'rescaleHeight': False, 'trialN': 106, 'loaded': True, 'loadedTime': 3112.399999976158, 'positionName': 'RIGHT', 'positionCoords': [998.4, 335.5], 'bid': 6.62}]",197758.0,1669841433928,mashed potato,salmon,3.3000000000000003,6.62,3.32,salmon,929.5,930,930.0,True,i,199189.39999997616,1431.3999999761581,1669841435360,1432,HRV,HRV_0297,2022-11-30 20:52:40
107,"[{'imgObject': {}, 'id': 'ice cream sundae 002', 'src': '/static/foodstim60/ice cream sundae 002.jpg', 'key': 'u', 'origWidth': 409, 'origHeight': 409, 'width': 409, 'height': 409, 'widthPercent': 0.45, 'rescaleHeight': False, 'trialN': 107, 'loaded': True, 'loadedTime': 3538.2999999523163, 'positionName': 'LEFT', 'positionCoords': [512.6, 335.5], 'bid': 6.84}, {'imgObject': {}, 'id': 'cheerios', 'src': '/static/foodstim60/cheerios.jpg', 'key': 'i', 'origWidth': 409, 'origHeight': 410, 'width': 409, 'height': 410, 'widthPercent': 0.45, 'rescaleHeight': False, 'trialN': 107, 'loaded': True, 'loadedTime': 3662.699999988079, 'positionName': 'RIGHT', 'positionCoords': [998.4, 335], 'bid': 4.44}]",199189.69999998808,1669841435360,ice cream sundae 002,cheerios,6.84,4.44,-2.3999999999999995,cheerios,728.3000000119209,730,730.3999999761581,True,i,200431.0,1241.300000011921,1669841436601,1241,HRV,HRV_0297,2022-11-30 20:52:40
