trialN,stimuli,trialStartTime,trialStartTime_UNIX,stimulus1,stimulus2,stimulus1Bid,stimulus2Bid,delta,selected,rt,rt_UNIX,rt_perfnow,receivedResponse,rsp,trialEndTime,trialDuration,trialEndTime_UNIX,trialDuration_UNIX,exp,subjectId,date
0,"[{'imgObject': {}, 'id': 'banana', 'src': '/static/foodstim60/banana.jpg', 'key': 'u', 'origWidth': 410, 'origHeight': 410, 'width': 410, 'height': 410, 'widthPercent': 0.45, 'rescaleHeight': False, 'trialN': 0, 'loaded': True, 'loadedTime': 3387.2000000476837, 'positionName': 'LEFT', 'positionCoords': [327.28, 227], 'bid': 3.0700000000000003}, {'imgObject': {}, 'id': 'burger', 'src': '/static/foodstim60/burger.jpg', 'key': 'i', 'origWidth': 409, 'origHeight': 409, 'width': 409, 'height': 409, 'widthPercent': 0.45, 'rescaleHeight': False, 'trialN': 0, 'loaded': True, 'loadedTime': 3409.9000000953674, 'positionName': 'RIGHT', 'positionCoords': [798.72, 227.5], 'bid': 9.46}]",4349.0,1669831876339,banana,burger,3.0700000000000003,9.46,6.390000000000001,burger,865.5,867,866.7000000476837,True,i,5730.0,1381.0,1669831877721,1382,HRV,HRV_0003,2022-11-30 18:15:50
1,"[{'imgObject': {}, 'id': 'banana', 'src': '/static/foodstim60/banana.jpg', 'key': 'u', 'origWidth': 410, 'origHeight': 410, 'width': 410, 'height': 410, 'widthPercent': 0.45, 'rescaleHeight': False, 'trialN': 1, 'loaded': True, 'loadedTime': 3251.2000000476837, 'positionName': 'LEFT', 'positionCoords': [327.28, 227], 'bid': 3.0700000000000003}, {'imgObject': {}, 'id': 'mango', 'src': '/static/foodstim60/mango.jpg', 'key': 'i', 'origWidth': 411, 'origHeight': 411, 'width': 411, 'height': 411, 'widthPercent': 0.45, 'rescaleHeight': False, 'trialN': 1, 'loaded': True, 'loadedTime': 3426.4000000953674, 'positionName': 'RIGHT', 'positionCoords': [798.72, 226.5], 'bid': 3.03}]",5730.300000190735,1669831877721,banana,mango,3.0700000000000003,3.03,-0.04000000000000048,mango,972.5,973,972.7999999523163,True,i,7219.400000095367,1489.0999999046326,1669831879210,1489,HRV,HRV_0003,2022-11-30 18:15:50
2,"[{'imgObject': {}, 'id': 'kiwi', 'src': '/static/foodstim60/kiwi.jpg', 'key': 'u', 'origWidth': 410, 'origHeight': 410, 'width': 410, 'height': 410, 'widthPercent': 0.45, 'rescaleHeight': False, 'trialN': 2, 'loaded': True, 'loadedTime': 3441.7000000476837, 'positionName': 'LEFT', 'positionCoords': [327.28, 227], 'bid': 2.51}, {'imgObject': {}, 'id': 'granola w milk', 'src': '/static/foodstim60/granola w milk.jpg', 'key': 'i', 'origWidth': 410, 'origHeight': 410, 'width': 410, 'height': 410, 'widthPercent': 0.45, 'rescaleHeight': False, 'trialN': 2, 'loaded': True, 'loadedTime': 3474.300000190735, 'positionName': 'RIGHT', 'positionCoords': [798.72, 227], 'bid': 1.35}]",7219.600000143051,1669831879210,kiwi,granola w milk,2.51,1.35,-1.1599999999999997,granola w milk,907.5999999046326,908,907.8999998569489,True,i,8635.5,1415.8999998569489,1669831880626,1416,HRV,HRV_0003,2022-11-30 18:15:50
3,"[{'imgObject': {}, 'id': 'Tribe humus pita', 'src': '/static/foodstim60/Tribe humus pita.jpg', 'key': 'u', 'origWidth': 411, 'origHeight': 411, 'width': 411, 'height': 411, 'widthPercent': 0.45, 'rescaleHeight': False, 'trialN': 3, 'loaded': True, 'loadedTime': 3482.5, 'positionName': 'LEFT', 'positionCoords': [326.28, 226.5], 'bid': 5.36}, {'imgObject': {}, 'id': 'cheerios', 'src': '/static/foodstim60/cheerios.jpg', 'key': 'i', 'origWidth': 409, 'origHeight': 410, 'width': 409, 'height': 410, 'widthPercent': 0.45, 'rescaleHeight': False, 'trialN': 3, 'loaded': True, 'loadedTime': 3513.9000000953674, 'positionName': 'RIGHT', 'positionCoords': [798.72, 227], 'bid': 2.98}]",8635.600000143051,1669831880626,Tribe humus pita,cheerios,5.36,2.98,-2.3800000000000003,Tribe humus pita,978.7000000476837,979,979.2000000476837,True,u,10132.0,1496.3999998569489,1669831882123,1497,HRV,HRV_0003,2022-11-30 18:15:50
4,"[{'imgObject': {}, 'id': 'blueberries', 'src': '/static/foodstim60/blueberries.jpg', 'key': 'u', 'origWidth': 411, 'origHeight': 411, 'width': 411, 'height': 411, 'widthPercent': 0.45, 'rescaleHeight': False, 'trialN': 4, 'loaded': True, 'loadedTime': 3541.600000143051, 'positionName': 'LEFT', 'positionCoords': [326.28, 226.5], 'bid': 2.03}, {'imgObject': {}, 'id': 'hashbrowns', 'src': '/static/foodstim60/hashbrowns.jpg', 'key': 'i', 'origWidth': 411, 'origHeight': 410, 'width': 411, 'height': 410, 'widthPercent': 0.45, 'rescaleHeight': False, 'trialN': 4, 'loaded': True, 'loadedTime': 3551.100000143051, 'positionName': 'RIGHT', 'positionCoords': [798.72, 227], 'bid': 0.41}]",10132.5,1669831882123,blueberries,hashbrowns,2.03,0.41,-1.6199999999999999,blueberries,1419.0,1430,1430.3000001907349,True,u,12070.100000143051,1937.6000001430511,1669831884061,1938,HRV,HRV_0003,2022-11-30 18:15:50
5,"[{'imgObject': {}, 'id': 'cocktailshrimp', 'src': '/static/foodstim60/cocktailshrimp.jpg', 'key': 'u', 'origWidth': 410, 'origHeight': 410, 'width': 410, 'height': 410, 'widthPercent': 0.45, 'rescaleHeight': False, 'trialN': 5, 'loaded': True, 'loadedTime': 3601.4000000953674, 'positionName': 'LEFT', 'positionCoords': [327.28, 227], 'bid': 0.72}, {'imgObject': {}, 'id': 'mashed potato', 'src': '/static/foodstim60/mashed potato.jpg', 'key': 'i', 'origWidth': 409, 'origHeight': 409, 'width': 409, 'height': 409, 'widthPercent': 0.45, 'rescaleHeight': False, 'trialN': 5, 'loaded': True, 'loadedTime': 3629.9000000953674, 'positionName': 'RIGHT', 'positionCoords': [798.72, 227.5], 'bid': 6.53}]",12070.300000190735,1669831884061,cocktailshrimp,mashed potato,0.72,6.53,5.8100000000000005,mashed potato,1081.0999999046326,1081,1081.5,True,i,13657.600000143051,1587.2999999523163,1669831885648,1587,HRV,HRV_0003,2022-11-30 18:15:50
6,"[{'imgObject': {}, 'id': 'grilled chicken strips', 'src': '/static/foodstim60/grilled chicken strips.jpg', 'key': 'u', 'origWidth': 410, 'origHeight': 411, 'width': 410, 'height': 411, 'widthPercent': 0.45, 'rescaleHeight': False, 'trialN': 6, 'loaded': True, 'loadedTime': 3647.2000000476837, 'positionName': 'LEFT', 'positionCoords': [327.28, 226.5], 'bid': 9.36}, {'imgObject': {}, 'id': 'pear', 'src': '/static/foodstim60/pear.jpg', 'key': 'i', 'origWidth': 411, 'origHeight': 410, 'width': 411, 'height': 410, 'widthPercent': 0.45, 'rescaleHeight': False, 'trialN': 6, 'loaded': True, 'loadedTime': 3690.800000190735, 'positionName': 'RIGHT', 'positionCoords': [798.72, 227], 'bid': 7.86}]",13657.900000095367,1669831885648,grilled chicken strips,pear,9.36,7.86,-1.4999999999999991,grilled chicken strips,751.0,752,751.7999999523163,True,u,14915.0,1257.0999999046326,1669831886905,1257,HRV,HRV_0003,2022-11-30 18:15:50
7,"[{'imgObject': {}, 'id': 'salmon', 'src': '/static/foodstim60/salmon.jpg', 'key': 'u', 'origWidth': 410, 'origHeight': 409, 'width': 410, 'height': 409, 'widthPercent': 0.45, 'rescaleHeight': False, 'trialN': 7, 'loaded': True, 'loadedTime': 3699.800000190735, 'positionName': 'LEFT', 'positionCoords': [327.28, 227.5], 'bid': 3.5}, {'imgObject': {}, 'id': 'raisin bran w milk', 'src': '/static/foodstim60/raisin bran w milk.jpg', 'key': 'i', 'origWidth': 411, 'origHeight': 411, 'width': 411, 'height': 411, 'widthPercent': 0.45, 'rescaleHeight': False, 'trialN': 7, 'loaded': True, 'loadedTime': 3719.5, 'positionName': 'RIGHT', 'positionCoords': [798.72, 226.5], 'bid': 3.82}]",14915.200000047684,1669831886906,salmon,raisin bran w milk,3.5,3.82,0.31999999999999984,salmon,826.4000000953674,826,826.7999999523163,True,u,16262.700000047684,1347.5,1669831888253,1347,HRV,HRV_0003,2022-11-30 18:15:50
8,"[{'imgObject': {}, 'id': 'blueberries', 'src': '/static/foodstim60/blueberries.jpg', 'key': 'u', 'origWidth': 411, 'origHeight': 411, 'width': 411, 'height': 411, 'widthPercent': 0.45, 'rescaleHeight': False, 'trialN': 8, 'loaded': True, 'loadedTime': 3529.9000000953674, 'positionName': 'LEFT', 'positionCoords': [326.28, 226.5], 'bid': 2.03}, {'imgObject': {}, 'id': 'mango', 'src': '/static/foodstim60/mango.jpg', 'key': 'i', 'origWidth': 411, 'origHeight': 411, 'width': 411, 'height': 411, 'widthPercent': 0.45, 'rescaleHeight': False, 'trialN': 8, 'loaded': True, 'loadedTime': 3420.2000000476837, 'positionName': 'RIGHT', 'positionCoords': [798.72, 226.5], 'bid': 3.03}]",16263.300000190735,1669831888254,blueberries,mango,2.03,3.03,1.0,blueberries,1231.5,1232,1232.0,True,u,18012.60000014305,1749.2999999523163,1669831890003,1749,HRV,HRV_0003,2022-11-30 18:15:50
9,"[{'imgObject': {}, 'id': 'eggsalad', 'src': '/static/foodstim60/eggsalad.jpg', 'key': 'u', 'origWidth': 410, 'origHeight': 409, 'width': 410, 'height': 409, 'widthPercent': 0.45, 'rescaleHeight': False, 'trialN': 9, 'loaded': True, 'loadedTime': 3759.7000000476837, 'positionName': 'LEFT', 'positionCoords': [327.28, 227.5], 'bid': 5.2700000000000005}, {'imgObject': {}, 'id': 'shreddedwheatwithmilk', 'src': '/static/foodstim60/shreddedwheatwithmilk.jpg', 'key': 'i', 'origWidth': 410, 'origHeight': 410, 'width': 410, 'height': 410, 'widthPercent': 0.45, 'rescaleHeight': False, 'trialN': 9, 'loaded': True, 'loadedTime': 3778.9000000953674, 'positionName': 'RIGHT', 'positionCoords': [798.72, 227], 'bid': 4.24}]",18012.700000047684,1669831890003,eggsalad,shreddedwheatwithmilk,5.2700000000000005,4.24,-1.0300000000000002,eggsalad,1461.0,1462,1461.7999999523163,True,u,19985.5,1972.7999999523163,1669831891976,1973,HRV,HRV_0003,2022-11-30 18:15:50
10,"[{'imgObject': {}, 'id': 'blackbeanswithrice', 'src': '/static/foodstim60/blackbeanswithrice.jpg', 'key': 'u', 'origWidth': 410, 'origHeight': 410, 'width': 410, 'height': 410, 'widthPercent': 0.45, 'rescaleHeight': False, 'trialN': 10, 'loaded': True, 'loadedTime': 3789.300000190735, 'positionName': 'LEFT', 'positionCoords': [327.28, 227], 'bid': 0.41}, {'imgObject': {}, 'id': 'cocktailshrimp', 'src': '/static/foodstim60/cocktailshrimp.jpg', 'key': 'i', 'origWidth': 410, 'origHeight': 410, 'width': 410, 'height': 410, 'widthPercent': 0.45, 'rescaleHeight': False, 'trialN': 10, 'loaded': True, 'loadedTime': 3609.7000000476837, 'positionName': 'RIGHT', 'positionCoords': [798.72, 227], 'bid': 0.72}]",19985.800000190735,1669831891976,blackbeanswithrice,cocktailshrimp,0.41,0.72,0.31,blackbeanswithrice,1426.0999999046326,1427,1427.0,True,u,21934.800000190735,1949.0,1669831893925,1949,HRV,HRV_0003,2022-11-30 18:15:50
11,"[{'imgObject': {}, 'id': 'steak', 'src': '/static/foodstim60/steak.jpg', 'key': 'u', 'origWidth': 410, 'origHeight': 410, 'width': 410, 'height': 410, 'widthPercent': 0.45, 'rescaleHeight': False, 'trialN': 11, 'loaded': True, 'loadedTime': 3826.7000000476837, 'positionName': 'LEFT', 'positionCoords': [327.28, 227], 'bid': 8.08}, {'imgObject': {}, 'id': 'burger', 'src': '/static/foodstim60/burger.jpg', 'key': 'i', 'origWidth': 409, 'origHeight': 409, 'width': 409, 'height': 409, 'widthPercent': 0.45, 'rescaleHeight': False, 'trialN': 11, 'loaded': True, 'loadedTime': 3412.9000000953674, 'positionName': 'RIGHT', 'positionCoords': [798.72, 227.5], 'bid': 9.46}]",21935.10000014305,1669831893926,steak,burger,8.08,9.46,1.3800000000000008,burger,840.5999999046326,841,841.0,True,i,23283.800000190735,1348.7000000476837,1669831895274,1348,HRV,HRV_0003,2022-11-30 18:15:50
12,"[{'imgObject': {}, 'id': 'mashed potato', 'src': '/static/foodstim60/mashed potato.jpg', 'key': 'u', 'origWidth': 409, 'origHeight': 409, 'width': 409, 'height': 409, 'widthPercent': 0.45, 'rescaleHeight': False, 'trialN': 12, 'loaded': True, 'loadedTime': 3616.600000143051, 'positionName': 'LEFT', 'positionCoords': [328.28, 227.5], 'bid': 6.53}, {'imgObject': {}, 'id': 'rigatoni', 'src': '/static/foodstim60/rigatoni.jpg', 'key': 'i', 'origWidth': 411, 'origHeight': 411, 'width': 411, 'height': 411, 'widthPercent': 0.45, 'rescaleHeight': False, 'trialN': 12, 'loaded': True, 'loadedTime': 3836.4000000953674, 'positionName': 'RIGHT', 'positionCoords': [798.72, 226.5], 'bid': 3.84}]",23284.200000047684,1669831895275,mashed potato,rigatoni,6.53,3.84,-2.6900000000000004,rigatoni,676.1000001430511,676,676.6000001430511,True,i,24465.700000047684,1181.5,1669831896456,1181,HRV,HRV_0003,2022-11-30 18:15:50
13,"[{'imgObject': {}, 'id': 'mashed potato', 'src': '/static/foodstim60/mashed potato.jpg', 'key': 'u', 'origWidth': 409, 'origHeight': 409, 'width': 409, 'height': 409, 'widthPercent': 0.45, 'rescaleHeight': False, 'trialN': 13, 'loaded': True, 'loadedTime': 3644, 'positionName': 'LEFT', 'positionCoords': [328.28, 227.5], 'bid': 6.53}, {'imgObject': {}, 'id': 'grilled chicken strips', 'src': '/static/foodstim60/grilled chicken strips.jpg', 'key': 'i', 'origWidth': 410, 'origHeight': 411, 'width': 410, 'height': 411, 'widthPercent': 0.45, 'rescaleHeight': False, 'trialN': 13, 'loaded': True, 'loadedTime': 3657.800000190735, 'positionName': 'RIGHT', 'positionCoords': [798.72, 226.5], 'bid': 9.36}]",24466.0,1669831896456,mashed potato,grilled chicken strips,6.53,9.36,2.829999999999999,grilled chicken strips,951.9000000953674,953,952.5,True,i,25928.700000047684,1462.7000000476837,1669831897919,1463,HRV,HRV_0003,2022-11-30 18:15:50
14,"[{'imgObject': {}, 'id': 'chicken nuggets2', 'src': '/static/foodstim60/chicken nuggets2.jpg', 'key': 'u', 'origWidth': 410, 'origHeight': 409, 'width': 410, 'height': 409, 'widthPercent': 0.45, 'rescaleHeight': False, 'trialN': 14, 'loaded': True, 'loadedTime': 3853.800000190735, 'positionName': 'LEFT', 'positionCoords': [327.28, 227.5], 'bid': 9.64}, {'imgObject': {}, 'id': 'tacos', 'src': '/static/foodstim60/tacos.jpg', 'key': 'i', 'origWidth': 411, 'origHeight': 411, 'width': 411, 'height': 411, 'widthPercent': 0.45, 'rescaleHeight': False, 'trialN': 14, 'loaded': True, 'loadedTime': 3883.100000143051, 'positionName': 'RIGHT', 'positionCoords': [798.72, 226.5], 'bid': 8.8}]",25928.900000095367,1669831897919,chicken nuggets2,tacos,9.64,8.8,-0.8399999999999999,chicken nuggets2,779.5,780,779.9000000953674,True,u,27231.60000014305,1302.7000000476837,1669831899222,1303,HRV,HRV_0003,2022-11-30 18:15:50
15,"[{'imgObject': {}, 'id': 'eggsalad', 'src': '/static/foodstim60/eggsalad.jpg', 'key': 'u', 'origWidth': 410, 'origHeight': 409, 'width': 410, 'height': 409, 'widthPercent': 0.45, 'rescaleHeight': False, 'trialN': 15, 'loaded': True, 'loadedTime': 3747.5, 'positionName': 'LEFT', 'positionCoords': [327.28, 227.5], 'bid': 5.2700000000000005}, {'imgObject': {}, 'id': 'Tribe humus pita', 'src': '/static/foodstim60/Tribe humus pita.jpg', 'key': 'i', 'origWidth': 411, 'origHeight': 411, 'width': 411, 'height': 411, 'widthPercent': 0.45, 'rescaleHeight': False, 'trialN': 15, 'loaded': True, 'loadedTime': 3478.2000000476837, 'positionName': 'RIGHT', 'positionCoords': [798.72, 226.5], 'bid': 5.36}]",27231.900000095367,1669831899223,eggsalad,Tribe humus pita,5.2700000000000005,5.36,0.08999999999999986,eggsalad,1077.7999999523163,1078,1078.5,True,u,28817.700000047684,1585.7999999523163,1669831900808,1585,HRV,HRV_0003,2022-11-30 18:15:50
16,"[{'imgObject': {}, 'id': 'luckycharms', 'src': '/static/foodstim60/luckycharms.jpg', 'key': 'u', 'origWidth': 410, 'origHeight': 409, 'width': 410, 'height': 409, 'widthPercent': 0.45, 'rescaleHeight': False, 'trialN': 16, 'loaded': True, 'loadedTime': 3910.9000000953674, 'positionName': 'LEFT', 'positionCoords': [327.28, 227.5], 'bid': 6.4}, {'imgObject': {}, 'id': 'yogurt no spoon', 'src': '/static/foodstim60/yogurt no spoon.jpg', 'key': 'i', 'origWidth': 411, 'origHeight': 410, 'width': 411, 'height': 410, 'widthPercent': 0.45, 'rescaleHeight': False, 'trialN': 16, 'loaded': True, 'loadedTime': 3923, 'positionName': 'RIGHT', 'positionCoords': [798.72, 227], 'bid': 9.3}]",28817.900000095367,1669831900809,luckycharms,yogurt no spoon,6.4,9.3,2.9000000000000004,yogurt no spoon,1009.2999999523163,1010,1009.9000000953674,True,i,30342.300000190735,1524.4000000953674,1669831902333,1524,HRV,HRV_0003,2022-11-30 18:15:50
17,"[{'imgObject': {}, 'id': 'lox', 'src': '/static/foodstim60/lox.jpg', 'key': 'u', 'origWidth': 410, 'origHeight': 411, 'width': 410, 'height': 411, 'widthPercent': 0.45, 'rescaleHeight': False, 'trialN': 17, 'loaded': True, 'loadedTime': 3954.7000000476837, 'positionName': 'LEFT', 'positionCoords': [327.28, 226.5], 'bid': 1.13}, {'imgObject': {}, 'id': 'popsicles', 'src': '/static/foodstim60/popsicles.jpg', 'key': 'i', 'origWidth': 410, 'origHeight': 410, 'width': 410, 'height': 410, 'widthPercent': 0.45, 'rescaleHeight': False, 'trialN': 17, 'loaded': True, 'loadedTime': 4345.5, 'positionName': 'RIGHT', 'positionCoords': [798.72, 227], 'bid': 3.51}]",30342.5,1669831902333,lox,popsicles,1.13,3.51,2.38,popsicles,1211.0,1212,1212.3000001907349,True,i,32063.10000014305,1720.6000001430511,1669831904054,1721,HRV,HRV_0003,2022-11-30 18:15:50
18,"[{'imgObject': {}, 'id': 'cantaloupe', 'src': '/static/foodstim60/cantaloupe.jpg', 'key': 'u', 'origWidth': 409, 'origHeight': 409, 'width': 409, 'height': 409, 'widthPercent': 0.45, 'rescaleHeight': False, 'trialN': 18, 'loaded': True, 'loadedTime': 3975.600000143051, 'positionName': 'LEFT', 'positionCoords': [328.28, 227.5], 'bid': 2.81}, {'imgObject': {}, 'id': 'blackbeanswithrice', 'src': '/static/foodstim60/blackbeanswithrice.jpg', 'key': 'i', 'origWidth': 410, 'origHeight': 410, 'width': 410, 'height': 410, 'widthPercent': 0.45, 'rescaleHeight': False, 'trialN': 18, 'loaded': True, 'loadedTime': 3813.5, 'positionName': 'RIGHT', 'positionCoords': [798.72, 227], 'bid': 0.41}]",32063.200000047684,1669831904054,cantaloupe,blackbeanswithrice,2.81,0.41,-2.4,cantaloupe,833.6000001430511,834,833.9000000953674,True,u,33415.90000009537,1352.7000000476837,1669831905407,1353,HRV,HRV_0003,2022-11-30 18:15:50
19,"[{'imgObject': {}, 'id': 'veggieswithdip', 'src': '/static/foodstim60/veggieswithdip.jpg', 'key': 'u', 'origWidth': 409, 'origHeight': 409, 'width': 409, 'height': 409, 'widthPercent': 0.45, 'rescaleHeight': False, 'trialN': 19, 'loaded': True, 'loadedTime': 3993.100000143051, 'positionName': 'LEFT', 'positionCoords': [328.28, 227.5], 'bid': 2.53}, {'imgObject': {}, 'id': 'olives', 'src': '/static/foodstim60/olives.jpg', 'key': 'i', 'origWidth': 410, 'origHeight': 410, 'width': 410, 'height': 410, 'widthPercent': 0.45, 'rescaleHeight': False, 'trialN': 19, 'loaded': True, 'loadedTime': 4021, 'positionName': 'RIGHT', 'positionCoords': [798.72, 227], 'bid': 0.4}]",33416.200000047684,1669831905407,veggieswithdip,olives,2.53,0.4,-2.13,veggieswithdip,1235.2999999523163,1236,1235.6000001430511,True,u,35158.5,1742.2999999523163,1669831907149,1742,HRV,HRV_0003,2022-11-30 18:15:50
20,"[{'imgObject': {}, 'id': 'froot loops w milk', 'src': '/static/foodstim60/froot loops w milk.jpg', 'key': 'u', 'origWidth': 410, 'origHeight': 410, 'width': 410, 'height': 410, 'widthPercent': 0.45, 'rescaleHeight': False, 'trialN': 20, 'loaded': True, 'loadedTime': 4021.600000143051, 'positionName': 'LEFT', 'positionCoords': [327.28, 227], 'bid': 2.34}, {'imgObject': {}, 'id': 'veggieswithdip', 'src': '/static/foodstim60/veggieswithdip.jpg', 'key': 'i', 'origWidth': 409, 'origHeight': 409, 'width': 409, 'height': 409, 'widthPercent': 0.45, 'rescaleHeight': False, 'trialN': 20, 'loaded': True, 'loadedTime': 3985.7000000476837, 'positionName': 'RIGHT', 'positionCoords': [798.72, 227.5], 'bid': 2.53}]",35158.700000047684,1669831907149,froot loops w milk,veggieswithdip,2.34,2.53,0.18999999999999995,froot loops w milk,861.1000001430511,862,861.6000001430511,True,u,36553.200000047684,1394.5,1669831908544,1395,HRV,HRV_0003,2022-11-30 18:15:50
21,"[{'imgObject': {}, 'id': 'ice cream sundae 002', 'src': '/static/foodstim60/ice cream sundae 002.jpg', 'key': 'u', 'origWidth': 409, 'origHeight': 409, 'width': 409, 'height': 409, 'widthPercent': 0.45, 'rescaleHeight': False, 'trialN': 21, 'loaded': True, 'loadedTime': 4031.7000000476837, 'positionName': 'LEFT', 'positionCoords': [328.28, 227.5], 'bid': 4.45}, {'imgObject': {}, 'id': 'luckycharms', 'src': '/static/foodstim60/luckycharms.jpg', 'key': 'i', 'origWidth': 410, 'origHeight': 409, 'width': 410, 'height': 409, 'widthPercent': 0.45, 'rescaleHeight': False, 'trialN': 21, 'loaded': True, 'loadedTime': 3895.2000000476837, 'positionName': 'RIGHT', 'positionCoords': [798.72, 227.5], 'bid': 6.4}]",36553.60000014305,1669831908544,ice cream sundae 002,luckycharms,4.45,6.4,1.9500000000000002,ice cream sundae 002,1410.2000000476837,1411,1410.5999999046326,True,u,38481.0,1927.3999998569489,1669831910472,1928,HRV,HRV_0003,2022-11-30 18:15:50
22,"[{'imgObject': {}, 'id': 'eggs', 'src': '/static/foodstim60/eggs.jpg', 'key': 'u', 'origWidth': 409, 'origHeight': 409, 'width': 409, 'height': 409, 'widthPercent': 0.45, 'rescaleHeight': False, 'trialN': 22, 'loaded': True, 'loadedTime': 4042, 'positionName': 'LEFT', 'positionCoords': [328.28, 227.5], 'bid': 1.35}, {'imgObject': {}, 'id': 'veggieswithdip', 'src': '/static/foodstim60/veggieswithdip.jpg', 'key': 'i', 'origWidth': 409, 'origHeight': 409, 'width': 409, 'height': 409, 'widthPercent': 0.45, 'rescaleHeight': False, 'trialN': 22, 'loaded': True, 'loadedTime': 3981.9000000953674, 'positionName': 'RIGHT', 'positionCoords': [798.72, 227.5], 'bid': 2.53}]",38481.300000190735,1669831910472,eggs,veggieswithdip,1.35,2.53,1.1799999999999997,veggieswithdip,1135.3999998569489,1136,1135.8999998569489,True,i,40127.200000047684,1645.8999998569489,1669831912118,1646,HRV,HRV_0003,2022-11-30 18:15:50
23,"[{'imgObject': {}, 'id': 'tacos', 'src': '/static/foodstim60/tacos.jpg', 'key': 'u', 'origWidth': 411, 'origHeight': 411, 'width': 411, 'height': 411, 'widthPercent': 0.45, 'rescaleHeight': False, 'trialN': 23, 'loaded': True, 'loadedTime': 3887.2000000476837, 'positionName': 'LEFT', 'positionCoords': [326.28, 226.5], 'bid': 8.8}, {'imgObject': {}, 'id': 'blueberries', 'src': '/static/foodstim60/blueberries.jpg', 'key': 'i', 'origWidth': 411, 'origHeight': 411, 'width': 411, 'height': 411, 'widthPercent': 0.45, 'rescaleHeight': False, 'trialN': 23, 'loaded': True, 'loadedTime': 3538.100000143051, 'positionName': 'RIGHT', 'positionCoords': [798.72, 226.5], 'bid': 2.03}]",40127.40000009537,1669831912118,tacos,blueberries,8.8,2.03,-6.770000000000001,tacos,761.2000000476837,762,761.7000000476837,True,u,41392.700000047684,1265.2999999523163,1669831913383,1265,HRV,HRV_0003,2022-11-30 18:15:50
24,"[{'imgObject': {}, 'id': 'froot loops w milk', 'src': '/static/foodstim60/froot loops w milk.jpg', 'key': 'u', 'origWidth': 410, 'origHeight': 410, 'width': 410, 'height': 410, 'widthPercent': 0.45, 'rescaleHeight': False, 'trialN': 24, 'loaded': True, 'loadedTime': 4023.2000000476837, 'positionName': 'LEFT', 'positionCoords': [327.28, 227], 'bid': 2.34}, {'imgObject': {}, 'id': 'blueberries', 'src': '/static/foodstim60/blueberries.jpg', 'key': 'i', 'origWidth': 411, 'origHeight': 411, 'width': 411, 'height': 411, 'widthPercent': 0.45, 'rescaleHeight': False, 'trialN': 24, 'loaded': True, 'loadedTime': 3531.7000000476837, 'positionName': 'RIGHT', 'positionCoords': [798.72, 226.5], 'bid': 2.03}]",41392.90000009537,1669831913384,froot loops w milk,blueberries,2.34,2.03,-0.31000000000000005,froot loops w milk,823.4000000953674,823,823.7000000476837,True,u,42726.0,1333.0999999046326,1669831914717,1333,HRV,HRV_0003,2022-11-30 18:15:50
25,"[{'imgObject': {}, 'id': 'fruitsalad', 'src': '/static/foodstim60/fruitsalad.jpg', 'key': 'u', 'origWidth': 410, 'origHeight': 410, 'width': 410, 'height': 410, 'widthPercent': 0.45, 'rescaleHeight': False, 'trialN': 25, 'loaded': True, 'loadedTime': 4064.7000000476837, 'positionName': 'LEFT', 'positionCoords': [327.28, 227], 'bid': 9.11}, {'imgObject': {}, 'id': 'raspberries', 'src': '/static/foodstim60/raspberries.jpg', 'key': 'i', 'origWidth': 411, 'origHeight': 411, 'width': 411, 'height': 411, 'widthPercent': 0.45, 'rescaleHeight': False, 'trialN': 25, 'loaded': True, 'loadedTime': 4088.100000143051, 'positionName': 'RIGHT', 'positionCoords': [798.72, 226.5], 'bid': 9.02}]",42726.200000047684,1669831914717,fruitsalad,raspberries,9.11,9.02,-0.08999999999999986,fruitsalad,782.1000001430511,782,782.5,True,u,44030.200000047684,1304.0,1669831916021,1304,HRV,HRV_0003,2022-11-30 18:15:50
26,"[{'imgObject': {}, 'id': 'burrito', 'src': '/static/foodstim60/burrito.jpg', 'key': 'u', 'origWidth': 410, 'origHeight': 410, 'width': 410, 'height': 410, 'widthPercent': 0.45, 'rescaleHeight': False, 'trialN': 26, 'loaded': True, 'loadedTime': 4096.300000190735, 'positionName': 'LEFT', 'positionCoords': [327.28, 227], 'bid': 6.82}, {'imgObject': {}, 'id': 'salad w chicken', 'src': '/static/foodstim60/salad w chicken.jpg', 'key': 'i', 'origWidth': 411, 'origHeight': 411, 'width': 411, 'height': 411, 'widthPercent': 0.45, 'rescaleHeight': False, 'trialN': 26, 'loaded': True, 'loadedTime': 4105.600000143051, 'positionName': 'RIGHT', 'positionCoords': [798.72, 226.5], 'bid': 7.640000000000001}]",44030.40000009537,1669831916021,burrito,salad w chicken,6.82,7.640000000000001,0.8200000000000003,salad w chicken,1027.4000000953674,1028,1027.9000000953674,True,i,45567.700000047684,1537.2999999523163,1669831917558,1537,HRV,HRV_0003,2022-11-30 18:15:50
27,"[{'imgObject': {}, 'id': 'edamame', 'src': '/static/foodstim60/edamame.jpg', 'key': 'u', 'origWidth': 409, 'origHeight': 410, 'width': 409, 'height': 410, 'widthPercent': 0.45, 'rescaleHeight': False, 'trialN': 27, 'loaded': True, 'loadedTime': 4125.5, 'positionName': 'LEFT', 'positionCoords': [328.28, 227], 'bid': 0.93}, {'imgObject': {}, 'id': 'salad w chicken', 'src': '/static/foodstim60/salad w chicken.jpg', 'key': 'i', 'origWidth': 411, 'origHeight': 411, 'width': 411, 'height': 411, 'widthPercent': 0.45, 'rescaleHeight': False, 'trialN': 27, 'loaded': True, 'loadedTime': 4111, 'positionName': 'RIGHT', 'positionCoords': [798.72, 226.5], 'bid': 7.640000000000001}]",45567.90000009537,1669831917559,edamame,salad w chicken,0.93,7.640000000000001,6.710000000000001,salad w chicken,1224.9000000953674,1225,1225.2000000476837,True,i,47302.40000009537,1734.5,1669831919293,1734,HRV,HRV_0003,2022-11-30 18:15:50
28,"[{'imgObject': {}, 'id': 'mashed potato', 'src': '/static/foodstim60/mashed potato.jpg', 'key': 'u', 'origWidth': 409, 'origHeight': 409, 'width': 409, 'height': 409, 'widthPercent': 0.45, 'rescaleHeight': False, 'trialN': 28, 'loaded': True, 'loadedTime': 3626.2000000476837, 'positionName': 'LEFT', 'positionCoords': [328.28, 227.5], 'bid': 6.53}, {'imgObject': {}, 'id': 'salad w chicken', 'src': '/static/foodstim60/salad w chicken.jpg', 'key': 'i', 'origWidth': 411, 'origHeight': 411, 'width': 411, 'height': 411, 'widthPercent': 0.45, 'rescaleHeight': False, 'trialN': 28, 'loaded': True, 'loadedTime': 4107.5, 'positionName': 'RIGHT', 'positionCoords': [798.72, 226.5], 'bid': 7.640000000000001}]",47302.60000014305,1669831919293,mashed potato,salad w chicken,6.53,7.640000000000001,1.1100000000000003,salad w chicken,782.7000000476837,783,783.0,True,i,48605.60000014305,1303.0,1669831920596,1303,HRV,HRV_0003,2022-11-30 18:15:50
29,"[{'imgObject': {}, 'id': 'edamame', 'src': '/static/foodstim60/edamame.jpg', 'key': 'u', 'origWidth': 409, 'origHeight': 410, 'width': 409, 'height': 410, 'widthPercent': 0.45, 'rescaleHeight': False, 'trialN': 29, 'loaded': True, 'loadedTime': 4126, 'positionName': 'LEFT', 'positionCoords': [328.28, 227], 'bid': 0.93}, {'imgObject': {}, 'id': 'cherries', 'src': '/static/foodstim60/cherries.jpg', 'key': 'i', 'origWidth': 410, 'origHeight': 411, 'width': 410, 'height': 411, 'widthPercent': 0.45, 'rescaleHeight': False, 'trialN': 29, 'loaded': True, 'loadedTime': 4153.800000190735, 'positionName': 'RIGHT', 'positionCoords': [798.72, 226.5], 'bid': 1.19}]",48605.90000009537,1669831920597,edamame,cherries,0.93,1.19,0.2599999999999999,cherries,1152.5,1152,1152.7999999523163,True,i,50278.5,1672.5999999046326,1669831922269,1672,HRV,HRV_0003,2022-11-30 18:15:50
30,"[{'imgObject': {}, 'id': 'tacos', 'src': '/static/foodstim60/tacos.jpg', 'key': 'u', 'origWidth': 411, 'origHeight': 411, 'width': 411, 'height': 411, 'widthPercent': 0.45, 'rescaleHeight': False, 'trialN': 30, 'loaded': True, 'loadedTime': 3887.5, 'positionName': 'LEFT', 'positionCoords': [326.28, 226.5], 'bid': 8.8}, {'imgObject': {}, 'id': 'rigatoni and sauce', 'src': '/static/foodstim60/rigatoni and sauce.jpg', 'key': 'i', 'origWidth': 410, 'origHeight': 411, 'width': 410, 'height': 411, 'widthPercent': 0.45, 'rescaleHeight': False, 'trialN': 30, 'loaded': True, 'loadedTime': 4163.700000047684, 'positionName': 'RIGHT', 'positionCoords': [798.72, 226.5], 'bid': 8.97}]",50278.60000014305,1669831922269,tacos,rigatoni and sauce,8.8,8.97,0.16999999999999993,rigatoni and sauce,878.2000000476837,879,878.5999999046326,True,i,51664.5,1385.8999998569489,1669831923655,1386,HRV,HRV_0003,2022-11-30 18:15:50
31,"[{'imgObject': {}, 'id': 'salmon', 'src': '/static/foodstim60/salmon.jpg', 'key': 'u', 'origWidth': 410, 'origHeight': 409, 'width': 410, 'height': 409, 'widthPercent': 0.45, 'rescaleHeight': False, 'trialN': 31, 'loaded': True, 'loadedTime': 3702.800000190735, 'positionName': 'LEFT', 'positionCoords': [327.28, 227.5], 'bid': 3.5}, {'imgObject': {}, 'id': 'edamame', 'src': '/static/foodstim60/edamame.jpg', 'key': 'i', 'origWidth': 409, 'origHeight': 410, 'width': 409, 'height': 410, 'widthPercent': 0.45, 'rescaleHeight': False, 'trialN': 31, 'loaded': True, 'loadedTime': 4128.900000095367, 'positionName': 'RIGHT', 'positionCoords': [798.72, 227], 'bid': 0.93}]",51664.700000047684,1669831923655,salmon,edamame,3.5,0.93,-2.57,salmon,845.6000001430511,847,846.2999999523163,True,u,53027.800000190735,1363.1000001430511,1669831925019,1364,HRV,HRV_0003,2022-11-30 18:15:50
32,"[{'imgObject': {}, 'id': 'rigatoni', 'src': '/static/foodstim60/rigatoni.jpg', 'key': 'u', 'origWidth': 411, 'origHeight': 411, 'width': 411, 'height': 411, 'widthPercent': 0.45, 'rescaleHeight': False, 'trialN': 32, 'loaded': True, 'loadedTime': 3840.600000143051, 'positionName': 'LEFT', 'positionCoords': [326.28, 226.5], 'bid': 3.84}, {'imgObject': {}, 'id': 'granola w milk', 'src': '/static/foodstim60/granola w milk.jpg', 'key': 'i', 'origWidth': 410, 'origHeight': 410, 'width': 410, 'height': 410, 'widthPercent': 0.45, 'rescaleHeight': False, 'trialN': 32, 'loaded': True, 'loadedTime': 3465.4000000953674, 'positionName': 'RIGHT', 'positionCoords': [798.72, 227], 'bid': 1.35}]",53027.90000009537,1669831925019,rigatoni,granola w milk,3.84,1.35,-2.4899999999999998,rigatoni,707.5,708,708.2000000476837,True,u,54246.800000190735,1218.9000000953674,1669831926238,1219,HRV,HRV_0003,2022-11-30 18:15:50
33,"[{'imgObject': {}, 'id': 'hashbrowns', 'src': '/static/foodstim60/hashbrowns.jpg', 'key': 'u', 'origWidth': 411, 'origHeight': 410, 'width': 411, 'height': 410, 'widthPercent': 0.45, 'rescaleHeight': False, 'trialN': 33, 'loaded': True, 'loadedTime': 3591, 'positionName': 'LEFT', 'positionCoords': [326.28, 227], 'bid': 0.41}, {'imgObject': {}, 'id': 'cheerios', 'src': '/static/foodstim60/cheerios.jpg', 'key': 'i', 'origWidth': 409, 'origHeight': 410, 'width': 409, 'height': 410, 'widthPercent': 0.45, 'rescaleHeight': False, 'trialN': 33, 'loaded': True, 'loadedTime': 3516.9000000953674, 'positionName': 'RIGHT', 'positionCoords': [798.72, 227], 'bid': 2.98}]",54246.90000009537,1669831926238,hashbrowns,cheerios,0.41,2.98,2.57,hashbrowns,1026.9000000953674,1027,1027.2999999523163,True,u,55782.5,1535.5999999046326,1669831927773,1535,HRV,HRV_0003,2022-11-30 18:15:50
34,"[{'imgObject': {}, 'id': 'omelette', 'src': '/static/foodstim60/omelette.jpg', 'key': 'u', 'origWidth': 410, 'origHeight': 409, 'width': 410, 'height': 409, 'widthPercent': 0.45, 'rescaleHeight': False, 'trialN': 34, 'loaded': True, 'loadedTime': 4183.5, 'positionName': 'LEFT', 'positionCoords': [327.28, 227.5], 'bid': 7.65}, {'imgObject': {}, 'id': 'pear', 'src': '/static/foodstim60/pear.jpg', 'key': 'i', 'origWidth': 411, 'origHeight': 410, 'width': 411, 'height': 410, 'widthPercent': 0.45, 'rescaleHeight': False, 'trialN': 34, 'loaded': True, 'loadedTime': 3687.5, 'positionName': 'RIGHT', 'positionCoords': [798.72, 227], 'bid': 7.86}]",55782.700000047684,1669831927773,omelette,pear,7.65,7.86,0.20999999999999996,pear,1425.6000001430511,1427,1426.2000000476837,True,i,57715.60000014305,1932.9000000953674,1669831929706,1933,HRV,HRV_0003,2022-11-30 18:15:50
35,"[{'imgObject': {}, 'id': 'rigatoni', 'src': '/static/foodstim60/rigatoni.jpg', 'key': 'u', 'origWidth': 411, 'origHeight': 411, 'width': 411, 'height': 411, 'widthPercent': 0.45, 'rescaleHeight': False, 'trialN': 35, 'loaded': True, 'loadedTime': 3841, 'positionName': 'LEFT', 'positionCoords': [326.28, 226.5], 'bid': 3.84}, {'imgObject': {}, 'id': 'roastedpotatoes', 'src': '/static/foodstim60/roastedpotatoes.jpg', 'key': 'i', 'origWidth': 409, 'origHeight': 410, 'width': 409, 'height': 410, 'widthPercent': 0.45, 'rescaleHeight': False, 'trialN': 35, 'loaded': True, 'loadedTime': 4184.300000190735, 'positionName': 'RIGHT', 'positionCoords': [798.72, 227], 'bid': 9.7}]",57715.800000190735,1669831929707,rigatoni,roastedpotatoes,3.84,9.7,5.859999999999999,roastedpotatoes,1125.5,1125,1125.6999998092651,True,i,59357.0,1641.1999998092651,1669831931348,1641,HRV,HRV_0003,2022-11-30 18:15:50
36,"[{'imgObject': {}, 'id': 'eggsalad', 'src': '/static/foodstim60/eggsalad.jpg', 'key': 'u', 'origWidth': 410, 'origHeight': 409, 'width': 410, 'height': 409, 'widthPercent': 0.45, 'rescaleHeight': False, 'trialN': 36, 'loaded': True, 'loadedTime': 3748.9000000953674, 'positionName': 'LEFT', 'positionCoords': [327.28, 227.5], 'bid': 5.2700000000000005}, {'imgObject': {}, 'id': 'salmon', 'src': '/static/foodstim60/salmon.jpg', 'key': 'i', 'origWidth': 410, 'origHeight': 409, 'width': 410, 'height': 409, 'widthPercent': 0.45, 'rescaleHeight': False, 'trialN': 36, 'loaded': True, 'loadedTime': 3709.2000000476837, 'positionName': 'RIGHT', 'positionCoords': [798.72, 227.5], 'bid': 3.5}]",59357.200000047684,1669831931348,eggsalad,salmon,5.2700000000000005,3.5,-1.7700000000000005,eggsalad,1235.7999999523163,1236,1236.1000001430511,True,u,61107.10000014305,1749.9000000953674,1669831933098,1750,HRV,HRV_0003,2022-11-30 18:15:50
37,"[{'imgObject': {}, 'id': 'seaweed', 'src': '/static/foodstim60/seaweed.jpg', 'key': 'u', 'origWidth': 410, 'origHeight': 410, 'width': 410, 'height': 410, 'widthPercent': 0.45, 'rescaleHeight': False, 'trialN': 37, 'loaded': True, 'loadedTime': 4202.5, 'positionName': 'LEFT', 'positionCoords': [327.28, 227], 'bid': 0}, {'imgObject': {}, 'id': 'lox', 'src': '/static/foodstim60/lox.jpg', 'key': 'i', 'origWidth': 410, 'origHeight': 411, 'width': 410, 'height': 411, 'widthPercent': 0.45, 'rescaleHeight': False, 'trialN': 37, 'loaded': True, 'loadedTime': 3962.4000000953674, 'positionName': 'RIGHT', 'positionCoords': [798.72, 226.5], 'bid': 1.13}]",61107.40000009537,1669831933098,seaweed,lox,0.0,1.13,1.13,lox,1171.5999999046326,1172,1172.2000000476837,True,i,62794.800000190735,1687.4000000953674,1669831934785,1687,HRV,HRV_0003,2022-11-30 18:15:50
38,"[{'imgObject': {}, 'id': 'avocado', 'src': '/static/foodstim60/avocado.jpg', 'key': 'u', 'origWidth': 409, 'origHeight': 409, 'width': 409, 'height': 409, 'widthPercent': 0.45, 'rescaleHeight': False, 'trialN': 38, 'loaded': True, 'loadedTime': 4210.5, 'positionName': 'LEFT', 'positionCoords': [328.28, 227.5], 'bid': 0.31}, {'imgObject': {}, 'id': 'sweetpotato', 'src': '/static/foodstim60/sweetpotato.jpg', 'key': 'i', 'origWidth': 410, 'origHeight': 410, 'width': 410, 'height': 410, 'widthPercent': 0.45, 'rescaleHeight': False, 'trialN': 38, 'loaded': True, 'loadedTime': 4241.600000143051, 'positionName': 'RIGHT', 'positionCoords': [798.72, 227], 'bid': 0.31}]",62795.0,1669831934786,avocado,sweetpotato,0.31,0.31,0.0,sweetpotato,844.9000000953674,845,845.3000001907349,True,i,64147.10000014305,1352.1000001430511,1669831936138,1352,HRV,HRV_0003,2022-11-30 18:15:50
39,"[{'imgObject': {}, 'id': 'rigatoni and sauce', 'src': '/static/foodstim60/rigatoni and sauce.jpg', 'key': 'u', 'origWidth': 410, 'origHeight': 411, 'width': 410, 'height': 411, 'widthPercent': 0.45, 'rescaleHeight': False, 'trialN': 39, 'loaded': True, 'loadedTime': 4164.100000143051, 'positionName': 'LEFT', 'positionCoords': [327.28, 226.5], 'bid': 8.97}, {'imgObject': {}, 'id': 'froot loops w milk', 'src': '/static/foodstim60/froot loops w milk.jpg', 'key': 'i', 'origWidth': 410, 'origHeight': 410, 'width': 410, 'height': 410, 'widthPercent': 0.45, 'rescaleHeight': False, 'trialN': 39, 'loaded': True, 'loadedTime': 4023.4000000953674, 'positionName': 'RIGHT', 'positionCoords': [798.72, 227], 'bid': 2.34}]",64147.40000009537,1669831936138,rigatoni and sauce,froot loops w milk,8.97,2.34,-6.630000000000001,rigatoni and sauce,718.5,719,718.7999999523163,True,u,65372.40000009537,1225.0,1669831937363,1225,HRV,HRV_0003,2022-11-30 18:15:50
40,"[{'imgObject': {}, 'id': 'cocktailshrimp', 'src': '/static/foodstim60/cocktailshrimp.jpg', 'key': 'u', 'origWidth': 410, 'origHeight': 410, 'width': 410, 'height': 410, 'widthPercent': 0.45, 'rescaleHeight': False, 'trialN': 40, 'loaded': True, 'loadedTime': 3591.5, 'positionName': 'LEFT', 'positionCoords': [327.28, 227], 'bid': 0.72}, {'imgObject': {}, 'id': 'froot loops w milk', 'src': '/static/foodstim60/froot loops w milk.jpg', 'key': 'i', 'origWidth': 410, 'origHeight': 410, 'width': 410, 'height': 410, 'widthPercent': 0.45, 'rescaleHeight': False, 'trialN': 40, 'loaded': True, 'loadedTime': 4029.800000190735, 'positionName': 'RIGHT', 'positionCoords': [798.72, 227], 'bid': 2.34}]",65372.800000190735,1669831937363,cocktailshrimp,froot loops w milk,0.72,2.34,1.6199999999999999,froot loops w milk,962.6999998092651,964,963.7999999523163,True,i,66841.30000019073,1468.5,1669831938832,1469,HRV,HRV_0003,2022-11-30 18:15:50
41,"[{'imgObject': {}, 'id': 'ice cream sundae 002', 'src': '/static/foodstim60/ice cream sundae 002.jpg', 'key': 'u', 'origWidth': 409, 'origHeight': 409, 'width': 409, 'height': 409, 'widthPercent': 0.45, 'rescaleHeight': False, 'trialN': 41, 'loaded': True, 'loadedTime': 4034.9000000953674, 'positionName': 'LEFT', 'positionCoords': [328.28, 227.5], 'bid': 4.45}, {'imgObject': {}, 'id': 'turkeysandwich', 'src': '/static/foodstim60/turkeysandwich.jpg', 'key': 'i', 'origWidth': 409, 'origHeight': 409, 'width': 409, 'height': 409, 'widthPercent': 0.45, 'rescaleHeight': False, 'trialN': 41, 'loaded': True, 'loadedTime': 4242.400000095367, 'positionName': 'RIGHT', 'positionCoords': [798.72, 227.5], 'bid': 9.83}]",66841.30000019073,1669831938832,ice cream sundae 002,turkeysandwich,4.45,9.83,5.38,turkeysandwich,693.5999999046326,694,694.0,True,i,68047.90000009537,1206.5999999046326,1669831940039,1207,HRV,HRV_0003,2022-11-30 18:15:50
42,"[{'imgObject': {}, 'id': 'strawberries', 'src': '/static/foodstim60/strawberries.jpg', 'key': 'u', 'origWidth': 410, 'origHeight': 410, 'width': 410, 'height': 410, 'widthPercent': 0.45, 'rescaleHeight': False, 'trialN': 42, 'loaded': True, 'loadedTime': 4254.200000047684, 'positionName': 'LEFT', 'positionCoords': [327.28, 227], 'bid': 9.77}, {'imgObject': {}, 'id': 'shreddedwheatwithmilk', 'src': '/static/foodstim60/shreddedwheatwithmilk.jpg', 'key': 'i', 'origWidth': 410, 'origHeight': 410, 'width': 410, 'height': 410, 'widthPercent': 0.45, 'rescaleHeight': False, 'trialN': 42, 'loaded': True, 'loadedTime': 3763.300000190735, 'positionName': 'RIGHT', 'positionCoords': [798.72, 227], 'bid': 4.24}]",68048.30000019073,1669831940039,strawberries,shreddedwheatwithmilk,9.77,4.24,-5.529999999999999,strawberries,833.2999999523163,834,833.7999999523163,True,u,69387.5,1339.1999998092651,1669831941378,1339,HRV,HRV_0003,2022-11-30 18:15:50
43,"[{'imgObject': {}, 'id': 'yogurt no spoon', 'src': '/static/foodstim60/yogurt no spoon.jpg', 'key': 'u', 'origWidth': 411, 'origHeight': 410, 'width': 411, 'height': 410, 'widthPercent': 0.45, 'rescaleHeight': False, 'trialN': 43, 'loaded': True, 'loadedTime': 3914, 'positionName': 'LEFT', 'positionCoords': [326.28, 227], 'bid': 9.3}, {'imgObject': {}, 'id': 'raspberries', 'src': '/static/foodstim60/raspberries.jpg', 'key': 'i', 'origWidth': 411, 'origHeight': 411, 'width': 411, 'height': 411, 'widthPercent': 0.45, 'rescaleHeight': False, 'trialN': 43, 'loaded': True, 'loadedTime': 4068, 'positionName': 'RIGHT', 'positionCoords': [798.72, 226.5], 'bid': 9.02}]",69388.0,1669831941379,yogurt no spoon,raspberries,9.3,9.02,-0.28000000000000114,yogurt no spoon,695.7000000476837,696,696.3000001907349,True,u,70606.60000014305,1218.6000001430511,1669831942597,1218,HRV,HRV_0003,2022-11-30 18:15:50
44,"[{'imgObject': {}, 'id': 'mac & cheese', 'src': '/static/foodstim60/mac & cheese.jpg', 'key': 'u', 'origWidth': 410, 'origHeight': 410, 'width': 410, 'height': 410, 'widthPercent': 0.45, 'rescaleHeight': False, 'trialN': 44, 'loaded': True, 'loadedTime': 4256.900000095367, 'positionName': 'LEFT', 'positionCoords': [327.28, 227], 'bid': 9.32}, {'imgObject': {}, 'id': 'fruitsalad', 'src': '/static/foodstim60/fruitsalad.jpg', 'key': 'i', 'origWidth': 410, 'origHeight': 410, 'width': 410, 'height': 410, 'widthPercent': 0.45, 'rescaleHeight': False, 'trialN': 44, 'loaded': True, 'loadedTime': 4058.100000143051, 'positionName': 'RIGHT', 'positionCoords': [798.72, 227], 'bid': 9.11}]",70606.80000019073,1669831942598,mac & cheese,fruitsalad,9.32,9.11,-0.21000000000000085,mac & cheese,728.3999998569489,728,728.7999999523163,True,u,71841.20000004768,1234.3999998569489,1669831943832,1234,HRV,HRV_0003,2022-11-30 18:15:50
45,"[{'imgObject': {}, 'id': 'cheerios', 'src': '/static/foodstim60/cheerios.jpg', 'key': 'u', 'origWidth': 409, 'origHeight': 410, 'width': 409, 'height': 410, 'widthPercent': 0.45, 'rescaleHeight': False, 'trialN': 45, 'loaded': True, 'loadedTime': 3526.9000000953674, 'positionName': 'LEFT', 'positionCoords': [328.28, 227], 'bid': 2.98}, {'imgObject': {}, 'id': 'bagel plain', 'src': '/static/foodstim60/bagel plain.jpg', 'key': 'i', 'origWidth': 410, 'origHeight': 410, 'width': 410, 'height': 410, 'widthPercent': 0.45, 'rescaleHeight': False, 'trialN': 45, 'loaded': True, 'loadedTime': 4271.200000047684, 'positionName': 'RIGHT', 'positionCoords': [798.72, 227], 'bid': 1.87}]",71841.40000009537,1669831943832,cheerios,bagel plain,2.98,1.87,-1.1099999999999999,bagel plain,1117.2000000476837,1118,1117.7999999523163,True,i,73466.20000004768,1624.7999999523163,1669831945457,1625,HRV,HRV_0003,2022-11-30 18:15:50
46,"[{'imgObject': {}, 'id': 'turkeysandwich', 'src': '/static/foodstim60/turkeysandwich.jpg', 'key': 'u', 'origWidth': 409, 'origHeight': 409, 'width': 409, 'height': 409, 'widthPercent': 0.45, 'rescaleHeight': False, 'trialN': 46, 'loaded': True, 'loadedTime': 4244.400000095367, 'positionName': 'LEFT', 'positionCoords': [328.28, 227.5], 'bid': 9.83}, {'imgObject': {}, 'id': 'burger', 'src': '/static/foodstim60/burger.jpg', 'key': 'i', 'origWidth': 409, 'origHeight': 409, 'width': 409, 'height': 409, 'widthPercent': 0.45, 'rescaleHeight': False, 'trialN': 46, 'loaded': True, 'loadedTime': 3410.2000000476837, 'positionName': 'RIGHT', 'positionCoords': [798.72, 227.5], 'bid': 9.46}]",73466.30000019073,1669831945457,turkeysandwich,burger,9.83,9.46,-0.3699999999999992,turkeysandwich,743.6999998092651,745,744.5999999046326,True,u,74716.0,1249.6999998092651,1669831946707,1250,HRV,HRV_0003,2022-11-30 18:15:50
47,"[{'imgObject': {}, 'id': 'apple slices', 'src': '/static/foodstim60/apple slices.jpg', 'key': 'u', 'origWidth': 409, 'origHeight': 410, 'width': 409, 'height': 410, 'widthPercent': 0.45, 'rescaleHeight': False, 'trialN': 47, 'loaded': True, 'loadedTime': 4294.300000190735, 'positionName': 'LEFT', 'positionCoords': [328.28, 227], 'bid': 8.26}, {'imgObject': {}, 'id': 'burrito', 'src': '/static/foodstim60/burrito.jpg', 'key': 'i', 'origWidth': 410, 'origHeight': 410, 'width': 410, 'height': 410, 'widthPercent': 0.45, 'rescaleHeight': False, 'trialN': 47, 'loaded': True, 'loadedTime': 4102.5, 'positionName': 'RIGHT', 'positionCoords': [798.72, 227], 'bid': 6.82}]",74716.5,1669831946707,apple slices,burrito,8.26,6.82,-1.4399999999999995,apple slices,1280.6000001430511,1282,1281.3000001907349,True,u,76513.0,1796.5,1669831948504,1797,HRV,HRV_0003,2022-11-30 18:15:50
48,"[{'imgObject': {}, 'id': 'roastedpotatoes', 'src': '/static/foodstim60/roastedpotatoes.jpg', 'key': 'u', 'origWidth': 409, 'origHeight': 410, 'width': 409, 'height': 410, 'widthPercent': 0.45, 'rescaleHeight': False, 'trialN': 48, 'loaded': True, 'loadedTime': 4186.300000190735, 'positionName': 'LEFT', 'positionCoords': [328.28, 227], 'bid': 9.7}, {'imgObject': {}, 'id': 'turkeysandwich', 'src': '/static/foodstim60/turkeysandwich.jpg', 'key': 'i', 'origWidth': 409, 'origHeight': 409, 'width': 409, 'height': 409, 'widthPercent': 0.45, 'rescaleHeight': False, 'trialN': 48, 'loaded': True, 'loadedTime': 4244.600000143051, 'positionName': 'RIGHT', 'positionCoords': [798.72, 227.5], 'bid': 9.83}]",76513.60000014305,1669831948504,roastedpotatoes,turkeysandwich,9.7,9.83,0.13000000000000078,roastedpotatoes,723.7999999523163,724,724.0999999046326,True,u,77747.70000004768,1234.0999999046326,1669831949739,1235,HRV,HRV_0003,2022-11-30 18:15:50
49,"[{'imgObject': {}, 'id': 'yogurt no spoon', 'src': '/static/foodstim60/yogurt no spoon.jpg', 'key': 'u', 'origWidth': 411, 'origHeight': 410, 'width': 411, 'height': 410, 'widthPercent': 0.45, 'rescaleHeight': False, 'trialN': 49, 'loaded': True, 'loadedTime': 3927.100000143051, 'positionName': 'LEFT', 'positionCoords': [326.28, 227], 'bid': 9.3}, {'imgObject': {}, 'id': 'cantaloupe', 'src': '/static/foodstim60/cantaloupe.jpg', 'key': 'i', 'origWidth': 409, 'origHeight': 409, 'width': 409, 'height': 409, 'widthPercent': 0.45, 'rescaleHeight': False, 'trialN': 49, 'loaded': True, 'loadedTime': 3975.9000000953674, 'positionName': 'RIGHT', 'positionCoords': [798.72, 227.5], 'bid': 2.81}]",77748.0,1669831949739,yogurt no spoon,cantaloupe,9.3,2.81,-6.49,yogurt no spoon,696.4000000953674,697,697.4000000953674,True,u,78958.20000004768,1210.2000000476837,1669831950949,1210,HRV,HRV_0003,2022-11-30 18:15:50
50,"[{'imgObject': {}, 'id': 'seaweed', 'src': '/static/foodstim60/seaweed.jpg', 'key': 'u', 'origWidth': 410, 'origHeight': 410, 'width': 410, 'height': 410, 'widthPercent': 0.45, 'rescaleHeight': False, 'trialN': 50, 'loaded': True, 'loadedTime': 4202.100000143051, 'positionName': 'LEFT', 'positionCoords': [327.28, 227], 'bid': 0}, {'imgObject': {}, 'id': 'eggsalad', 'src': '/static/foodstim60/eggsalad.jpg', 'key': 'i', 'origWidth': 410, 'origHeight': 409, 'width': 410, 'height': 409, 'widthPercent': 0.45, 'rescaleHeight': False, 'trialN': 50, 'loaded': True, 'loadedTime': 3749.100000143051, 'positionName': 'RIGHT', 'positionCoords': [798.72, 227.5], 'bid': 5.2700000000000005}]",78958.40000009537,1669831950949,seaweed,eggsalad,0.0,5.2700000000000005,5.2700000000000005,eggsalad,867.9000000953674,868,868.2000000476837,True,i,80337.40000009537,1379.0,1669831952328,1379,HRV,HRV_0003,2022-11-30 18:15:50
51,"[{'imgObject': {}, 'id': 'hotdog w must', 'src': '/static/foodstim60/hotdog w must.jpg', 'key': 'u', 'origWidth': 409, 'origHeight': 409, 'width': 409, 'height': 409, 'widthPercent': 0.45, 'rescaleHeight': False, 'trialN': 51, 'loaded': True, 'loadedTime': 4298.100000143051, 'positionName': 'LEFT', 'positionCoords': [328.28, 227.5], 'bid': 7.77}, {'imgObject': {}, 'id': 'steak', 'src': '/static/foodstim60/steak.jpg', 'key': 'i', 'origWidth': 410, 'origHeight': 410, 'width': 410, 'height': 410, 'widthPercent': 0.45, 'rescaleHeight': False, 'trialN': 51, 'loaded': True, 'loadedTime': 3819.300000190735, 'positionName': 'RIGHT', 'positionCoords': [798.72, 227], 'bid': 8.08}]",80337.60000014305,1669831952328,hotdog w must,steak,7.77,8.08,0.3100000000000005,hotdog w must,1507.5,1508,1508.0,True,u,82368.80000019073,2031.2000000476837,1669831954360,2032,HRV,HRV_0003,2022-11-30 18:15:50
52,"[{'imgObject': {}, 'id': 'steak', 'src': '/static/foodstim60/steak.jpg', 'key': 'u', 'origWidth': 410, 'origHeight': 410, 'width': 410, 'height': 410, 'widthPercent': 0.45, 'rescaleHeight': False, 'trialN': 52, 'loaded': True, 'loadedTime': 3827, 'positionName': 'LEFT', 'positionCoords': [327.28, 227], 'bid': 8.08}, {'imgObject': {}, 'id': 'strawberries', 'src': '/static/foodstim60/strawberries.jpg', 'key': 'i', 'origWidth': 410, 'origHeight': 410, 'width': 410, 'height': 410, 'widthPercent': 0.45, 'rescaleHeight': False, 'trialN': 52, 'loaded': True, 'loadedTime': 4252, 'positionName': 'RIGHT', 'positionCoords': [798.72, 227], 'bid': 9.77}]",82369.30000019073,1669831954360,steak,strawberries,8.08,9.77,1.6899999999999995,steak,651.0,651,651.2999999523163,True,u,83532.90000009537,1163.5999999046326,1669831955524,1164,HRV,HRV_0003,2022-11-30 18:15:50
53,"[{'imgObject': {}, 'id': 'froot loops w milk', 'src': '/static/foodstim60/froot loops w milk.jpg', 'key': 'u', 'origWidth': 410, 'origHeight': 410, 'width': 410, 'height': 410, 'widthPercent': 0.45, 'rescaleHeight': False, 'trialN': 53, 'loaded': True, 'loadedTime': 4026.600000143051, 'positionName': 'LEFT', 'positionCoords': [327.28, 227], 'bid': 2.34}, {'imgObject': {}, 'id': 'avocado', 'src': '/static/foodstim60/avocado.jpg', 'key': 'i', 'origWidth': 409, 'origHeight': 409, 'width': 409, 'height': 409, 'widthPercent': 0.45, 'rescaleHeight': False, 'trialN': 53, 'loaded': True, 'loadedTime': 4230.200000047684, 'positionName': 'RIGHT', 'positionCoords': [798.72, 227.5], 'bid': 0.31}]",83533.5,1669831955524,froot loops w milk,avocado,2.34,0.31,-2.03,froot loops w milk,1390.3000001907349,1391,1390.7000000476837,True,u,85438.30000019073,1904.8000001907349,1669831957429,1905,HRV,HRV_0003,2022-11-30 18:15:50
54,"[{'imgObject': {}, 'id': 'raspberries', 'src': '/static/foodstim60/raspberries.jpg', 'key': 'u', 'origWidth': 411, 'origHeight': 411, 'width': 411, 'height': 411, 'widthPercent': 0.45, 'rescaleHeight': False, 'trialN': 54, 'loaded': True, 'loadedTime': 4088.300000190735, 'positionName': 'LEFT', 'positionCoords': [326.28, 226.5], 'bid': 9.02}, {'imgObject': {}, 'id': 'kiwi', 'src': '/static/foodstim60/kiwi.jpg', 'key': 'i', 'origWidth': 410, 'origHeight': 410, 'width': 410, 'height': 410, 'widthPercent': 0.45, 'rescaleHeight': False, 'trialN': 54, 'loaded': True, 'loadedTime': 3455.300000190735, 'positionName': 'RIGHT', 'positionCoords': [798.72, 227], 'bid': 2.51}]",85438.5,1669831957429,raspberries,kiwi,9.02,2.51,-6.51,raspberries,841.6000001430511,842,841.9000000953674,True,u,86794.30000019073,1355.8000001907349,1669831958785,1356,HRV,HRV_0003,2022-11-30 18:15:50
55,"[{'imgObject': {}, 'id': 'burger', 'src': '/static/foodstim60/burger.jpg', 'key': 'u', 'origWidth': 409, 'origHeight': 409, 'width': 409, 'height': 409, 'widthPercent': 0.45, 'rescaleHeight': False, 'trialN': 55, 'loaded': True, 'loadedTime': 3402.9000000953674, 'positionName': 'LEFT', 'positionCoords': [328.28, 227.5], 'bid': 9.46}, {'imgObject': {}, 'id': 'burrito', 'src': '/static/foodstim60/burrito.jpg', 'key': 'i', 'origWidth': 410, 'origHeight': 410, 'width': 410, 'height': 410, 'widthPercent': 0.45, 'rescaleHeight': False, 'trialN': 55, 'loaded': True, 'loadedTime': 4096.100000143051, 'positionName': 'RIGHT', 'positionCoords': [798.72, 227], 'bid': 6.82}]",86794.5,1669831958785,burger,burrito,9.46,6.82,-2.6400000000000006,burger,743.0,733,743.8000001907349,True,u,88051.70000004768,1257.2000000476837,1669831960032,1247,HRV,HRV_0003,2022-11-30 18:15:50
56,"[{'imgObject': {}, 'id': 'apple slices', 'src': '/static/foodstim60/apple slices.jpg', 'key': 'u', 'origWidth': 409, 'origHeight': 410, 'width': 409, 'height': 410, 'widthPercent': 0.45, 'rescaleHeight': False, 'trialN': 56, 'loaded': True, 'loadedTime': 4294.600000143051, 'positionName': 'LEFT', 'positionCoords': [328.28, 227], 'bid': 8.26}, {'imgObject': {}, 'id': 'tacos', 'src': '/static/foodstim60/tacos.jpg', 'key': 'i', 'origWidth': 411, 'origHeight': 411, 'width': 411, 'height': 411, 'widthPercent': 0.45, 'rescaleHeight': False, 'trialN': 56, 'loaded': True, 'loadedTime': 3883.4000000953674, 'positionName': 'RIGHT', 'positionCoords': [798.72, 226.5], 'bid': 8.8}]",88051.80000019073,1669831960032,apple slices,tacos,8.26,8.8,0.5400000000000009,apple slices,1387.5999999046326,1388,1388.0999999046326,True,u,89962.20000004768,1910.3999998569489,1669831961942,1910,HRV,HRV_0003,2022-11-30 18:15:50
57,"[{'imgObject': {}, 'id': 'steak', 'src': '/static/foodstim60/steak.jpg', 'key': 'u', 'origWidth': 410, 'origHeight': 410, 'width': 410, 'height': 410, 'widthPercent': 0.45, 'rescaleHeight': False, 'trialN': 57, 'loaded': True, 'loadedTime': 3830.600000143051, 'positionName': 'LEFT', 'positionCoords': [327.28, 227], 'bid': 8.08}, {'imgObject': {}, 'id': 'pear', 'src': '/static/foodstim60/pear.jpg', 'key': 'i', 'origWidth': 411, 'origHeight': 410, 'width': 411, 'height': 410, 'widthPercent': 0.45, 'rescaleHeight': False, 'trialN': 57, 'loaded': True, 'loadedTime': 3683.300000190735, 'positionName': 'RIGHT', 'positionCoords': [798.72, 227], 'bid': 7.86}]",89962.5,1669831961942,steak,pear,8.08,7.86,-0.21999999999999975,pear,1213.0,1214,1213.3000001907349,True,i,91681.40000009537,1718.9000000953674,1669831963661,1719,HRV,HRV_0003,2022-11-30 18:15:50
58,"[{'imgObject': {}, 'id': 'roastedpotatoes', 'src': '/static/foodstim60/roastedpotatoes.jpg', 'key': 'u', 'origWidth': 409, 'origHeight': 410, 'width': 409, 'height': 410, 'widthPercent': 0.45, 'rescaleHeight': False, 'trialN': 58, 'loaded': True, 'loadedTime': 4190.600000143051, 'positionName': 'LEFT', 'positionCoords': [328.28, 227], 'bid': 9.7}, {'imgObject': {}, 'id': 'mac & cheese', 'src': '/static/foodstim60/mac & cheese.jpg', 'key': 'i', 'origWidth': 410, 'origHeight': 410, 'width': 410, 'height': 410, 'widthPercent': 0.45, 'rescaleHeight': False, 'trialN': 58, 'loaded': True, 'loadedTime': 4255.300000190735, 'positionName': 'RIGHT', 'positionCoords': [798.72, 227], 'bid': 9.32}]",91682.0,1669831963662,roastedpotatoes,mac & cheese,9.7,9.32,-0.379999999999999,roastedpotatoes,1052.8000001907349,1053,1053.3000001907349,True,u,93250.30000019073,1568.3000001907349,1669831965230,1568,HRV,HRV_0003,2022-11-30 18:15:50
59,"[{'imgObject': {}, 'id': 'olives', 'src': '/static/foodstim60/olives.jpg', 'key': 'u', 'origWidth': 410, 'origHeight': 410, 'width': 410, 'height': 410, 'widthPercent': 0.45, 'rescaleHeight': False, 'trialN': 59, 'loaded': True, 'loadedTime': 4003.2000000476837, 'positionName': 'LEFT', 'positionCoords': [327.28, 227], 'bid': 0.4}, {'imgObject': {}, 'id': 'lox', 'src': '/static/foodstim60/lox.jpg', 'key': 'i', 'origWidth': 410, 'origHeight': 411, 'width': 410, 'height': 411, 'widthPercent': 0.45, 'rescaleHeight': False, 'trialN': 59, 'loaded': True, 'loadedTime': 3931.2000000476837, 'positionName': 'RIGHT', 'positionCoords': [798.72, 226.5], 'bid': 1.13}]",93250.5,1669831965231,olives,lox,0.4,1.13,0.7299999999999999,lox,1337.6000001430511,1338,1338.3000001907349,True,i,95107.30000019073,1856.8000001907349,1669831967087,1856,HRV,HRV_0003,2022-11-30 18:15:50
60,"[{'imgObject': {}, 'id': 'burger', 'src': '/static/foodstim60/burger.jpg', 'key': 'u', 'origWidth': 409, 'origHeight': 409, 'width': 409, 'height': 409, 'widthPercent': 0.45, 'rescaleHeight': False, 'trialN': 60, 'loaded': True, 'loadedTime': 3406.800000190735, 'positionName': 'LEFT', 'positionCoords': [328.28, 227.5], 'bid': 9.46}, {'imgObject': {}, 'id': 'chickenfingers', 'src': '/static/foodstim60/chickenfingers.jpg', 'key': 'i', 'origWidth': 410, 'origHeight': 410, 'width': 410, 'height': 410, 'widthPercent': 0.45, 'rescaleHeight': False, 'trialN': 60, 'loaded': True, 'loadedTime': 4298.700000047684, 'positionName': 'RIGHT', 'positionCoords': [798.72, 227], 'bid': 9.62}]",95107.5,1669831967087,burger,chickenfingers,9.46,9.62,0.15999999999999837,chickenfingers,1101.2000000476837,1102,1101.8000001907349,True,i,96716.30000019073,1608.8000001907349,1669831968696,1609,HRV,HRV_0003,2022-11-30 18:15:50
61,"[{'imgObject': {}, 'id': 'rigatoni', 'src': '/static/foodstim60/rigatoni.jpg', 'key': 'u', 'origWidth': 411, 'origHeight': 411, 'width': 411, 'height': 411, 'widthPercent': 0.45, 'rescaleHeight': False, 'trialN': 61, 'loaded': True, 'loadedTime': 3830.9000000953674, 'positionName': 'LEFT', 'positionCoords': [326.28, 226.5], 'bid': 3.84}, {'imgObject': {}, 'id': 'popsicles', 'src': '/static/foodstim60/popsicles.jpg', 'key': 'i', 'origWidth': 410, 'origHeight': 410, 'width': 410, 'height': 410, 'widthPercent': 0.45, 'rescaleHeight': False, 'trialN': 61, 'loaded': True, 'loadedTime': 4345.700000047684, 'positionName': 'RIGHT', 'positionCoords': [798.72, 227], 'bid': 3.51}]",96716.40000009537,1669831968696,rigatoni,popsicles,3.84,3.51,-0.33000000000000007,rigatoni,694.7999999523163,696,695.0999999046326,True,u,97918.90000009537,1202.5,1669831969899,1203,HRV,HRV_0003,2022-11-30 18:15:50
62,"[{'imgObject': {}, 'id': 'steak', 'src': '/static/foodstim60/steak.jpg', 'key': 'u', 'origWidth': 410, 'origHeight': 410, 'width': 410, 'height': 410, 'widthPercent': 0.45, 'rescaleHeight': False, 'trialN': 62, 'loaded': True, 'loadedTime': 3817.100000143051, 'positionName': 'LEFT', 'positionCoords': [327.28, 227], 'bid': 8.08}, {'imgObject': {}, 'id': 'mashed potato', 'src': '/static/foodstim60/mashed potato.jpg', 'key': 'i', 'origWidth': 409, 'origHeight': 409, 'width': 409, 'height': 409, 'widthPercent': 0.45, 'rescaleHeight': False, 'trialN': 62, 'loaded': True, 'loadedTime': 3630.2000000476837, 'positionName': 'RIGHT', 'positionCoords': [798.72, 227.5], 'bid': 6.53}]",97919.10000014305,1669831969899,steak,mashed potato,8.08,6.53,-1.5499999999999998,mashed potato,1142.3999998569489,1143,1142.7000000476837,True,i,99584.10000014305,1665.0,1669831971564,1665,HRV,HRV_0003,2022-11-30 18:15:50
63,"[{'imgObject': {}, 'id': 'pear', 'src': '/static/foodstim60/pear.jpg', 'key': 'u', 'origWidth': 411, 'origHeight': 410, 'width': 411, 'height': 410, 'widthPercent': 0.45, 'rescaleHeight': False, 'trialN': 63, 'loaded': True, 'loadedTime': 3658.300000190735, 'positionName': 'LEFT', 'positionCoords': [326.28, 227], 'bid': 7.86}, {'imgObject': {}, 'id': 'roastedpotatoes', 'src': '/static/foodstim60/roastedpotatoes.jpg', 'key': 'i', 'origWidth': 409, 'origHeight': 410, 'width': 409, 'height': 410, 'widthPercent': 0.45, 'rescaleHeight': False, 'trialN': 63, 'loaded': True, 'loadedTime': 4190, 'positionName': 'RIGHT', 'positionCoords': [798.72, 227], 'bid': 9.7}]",99584.30000019073,1669831971564,pear,roastedpotatoes,7.86,9.7,1.839999999999999,roastedpotatoes,762.5999999046326,763,762.8999998569489,True,i,100855.80000019073,1271.5,1669831972836,1272,HRV,HRV_0003,2022-11-30 18:15:50
64,"[{'imgObject': {}, 'id': 'turkeysandwich', 'src': '/static/foodstim60/turkeysandwich.jpg', 'key': 'u', 'origWidth': 409, 'origHeight': 409, 'width': 409, 'height': 409, 'widthPercent': 0.45, 'rescaleHeight': False, 'trialN': 64, 'loaded': True, 'loadedTime': 4244.900000095367, 'positionName': 'LEFT', 'positionCoords': [328.28, 227.5], 'bid': 9.83}, {'imgObject': {}, 'id': 'strawberries', 'src': '/static/foodstim60/strawberries.jpg', 'key': 'i', 'origWidth': 410, 'origHeight': 410, 'width': 410, 'height': 410, 'widthPercent': 0.45, 'rescaleHeight': False, 'trialN': 64, 'loaded': True, 'loadedTime': 4254.5, 'positionName': 'RIGHT', 'positionCoords': [798.72, 227], 'bid': 9.77}]",100855.90000009537,1669831972836,turkeysandwich,strawberries,9.83,9.77,-0.0600000000000005,strawberries,1172.2000000476837,1172,1172.5,True,i,102548.30000019073,1692.4000000953674,1669831974528,1692,HRV,HRV_0003,2022-11-30 18:15:50
65,"[{'imgObject': {}, 'id': 'veggieswithdip', 'src': '/static/foodstim60/veggieswithdip.jpg', 'key': 'u', 'origWidth': 409, 'origHeight': 409, 'width': 409, 'height': 409, 'widthPercent': 0.45, 'rescaleHeight': False, 'trialN': 65, 'loaded': True, 'loadedTime': 3976.600000143051, 'positionName': 'LEFT', 'positionCoords': [328.28, 227.5], 'bid': 2.53}, {'imgObject': {}, 'id': 'fruitsalad', 'src': '/static/foodstim60/fruitsalad.jpg', 'key': 'i', 'origWidth': 410, 'origHeight': 410, 'width': 410, 'height': 410, 'widthPercent': 0.45, 'rescaleHeight': False, 'trialN': 65, 'loaded': True, 'loadedTime': 4055, 'positionName': 'RIGHT', 'positionCoords': [798.72, 227], 'bid': 9.11}]",102548.5,1669831974529,veggieswithdip,fruitsalad,2.53,9.11,6.58,fruitsalad,877.6000001430511,878,878.3000001907349,True,i,103933.0,1384.5,1669831975913,1384,HRV,HRV_0003,2022-11-30 18:15:50
66,"[{'imgObject': {}, 'id': 'hashbrowns', 'src': '/static/foodstim60/hashbrowns.jpg', 'key': 'u', 'origWidth': 411, 'origHeight': 410, 'width': 411, 'height': 410, 'widthPercent': 0.45, 'rescaleHeight': False, 'trialN': 66, 'loaded': True, 'loadedTime': 3545.4000000953674, 'positionName': 'LEFT', 'positionCoords': [326.28, 227], 'bid': 0.41}, {'imgObject': {}, 'id': 'cocktailshrimp', 'src': '/static/foodstim60/cocktailshrimp.jpg', 'key': 'i', 'origWidth': 410, 'origHeight': 410, 'width': 410, 'height': 410, 'widthPercent': 0.45, 'rescaleHeight': False, 'trialN': 66, 'loaded': True, 'loadedTime': 3601.100000143051, 'positionName': 'RIGHT', 'positionCoords': [798.72, 227], 'bid': 0.72}]",103933.20000004768,1669831975913,hashbrowns,cocktailshrimp,0.41,0.72,0.31,hashbrowns,921.1000001430511,922,921.2999999523163,True,u,105378.40000009537,1445.2000000476837,1669831977358,1445,HRV,HRV_0003,2022-11-30 18:15:50
67,"[{'imgObject': {}, 'id': 'fruitsalad', 'src': '/static/foodstim60/fruitsalad.jpg', 'key': 'u', 'origWidth': 410, 'origHeight': 410, 'width': 410, 'height': 410, 'widthPercent': 0.45, 'rescaleHeight': False, 'trialN': 67, 'loaded': True, 'loadedTime': 4055.2000000476837, 'positionName': 'LEFT', 'positionCoords': [327.28, 227], 'bid': 9.11}, {'imgObject': {}, 'id': 'baked potato', 'src': '/static/foodstim60/baked potato.jpg', 'key': 'i', 'origWidth': 409, 'origHeight': 410, 'width': 409, 'height': 410, 'widthPercent': 0.45, 'rescaleHeight': False, 'trialN': 67, 'loaded': True, 'loadedTime': 4314.700000047684, 'positionName': 'RIGHT', 'positionCoords': [798.72, 227], 'bid': 6.36}]",105378.60000014305,1669831977359,fruitsalad,baked potato,9.11,6.36,-2.749999999999999,baked potato,1074.2000000476837,1074,1074.5999999046326,True,i,106977.90000009537,1599.2999999523163,1669831978958,1599,HRV,HRV_0003,2022-11-30 18:15:50
68,"[{'imgObject': {}, 'id': 'orange slices', 'src': '/static/foodstim60/orange slices.jpg', 'key': 'u', 'origWidth': 409, 'origHeight': 410, 'width': 409, 'height': 410, 'widthPercent': 0.45, 'rescaleHeight': False, 'trialN': 68, 'loaded': True, 'loadedTime': 4315, 'positionName': 'LEFT', 'positionCoords': [328.28, 227], 'bid': 6.08}, {'imgObject': {}, 'id': 'sweetpotato', 'src': '/static/foodstim60/sweetpotato.jpg', 'key': 'i', 'origWidth': 410, 'origHeight': 410, 'width': 410, 'height': 410, 'widthPercent': 0.45, 'rescaleHeight': False, 'trialN': 68, 'loaded': True, 'loadedTime': 4238.5, 'positionName': 'RIGHT', 'positionCoords': [798.72, 227], 'bid': 0.31}]",106978.0,1669831978958,orange slices,sweetpotato,6.08,0.31,-5.7700000000000005,orange slices,934.1000001430511,934,934.4000000953674,True,u,108422.10000014305,1444.1000001430511,1669831980402,1444,HRV,HRV_0003,2022-11-30 18:15:50
69,"[{'imgObject': {}, 'id': 'banana', 'src': '/static/foodstim60/banana.jpg', 'key': 'u', 'origWidth': 410, 'origHeight': 410, 'width': 410, 'height': 410, 'widthPercent': 0.45, 'rescaleHeight': False, 'trialN': 69, 'loaded': True, 'loadedTime': 3384.300000190735, 'positionName': 'LEFT', 'positionCoords': [327.28, 227], 'bid': 3.0700000000000003}, {'imgObject': {}, 'id': 'froot loops w milk', 'src': '/static/foodstim60/froot loops w milk.jpg', 'key': 'i', 'origWidth': 410, 'origHeight': 410, 'width': 410, 'height': 410, 'widthPercent': 0.45, 'rescaleHeight': False, 'trialN': 69, 'loaded': True, 'loadedTime': 4022.9000000953674, 'positionName': 'RIGHT', 'positionCoords': [798.72, 227], 'bid': 2.34}]",108422.30000019073,1669831980402,banana,froot loops w milk,3.0700000000000003,2.34,-0.7300000000000004,froot loops w milk,751.1999998092651,752,751.5,True,i,109691.10000014305,1268.7999999523163,1669831981671,1269,HRV,HRV_0003,2022-11-30 18:15:50
70,"[{'imgObject': {}, 'id': 'blackbeanswithrice', 'src': '/static/foodstim60/blackbeanswithrice.jpg', 'key': 'u', 'origWidth': 410, 'origHeight': 410, 'width': 410, 'height': 410, 'widthPercent': 0.45, 'rescaleHeight': False, 'trialN': 70, 'loaded': True, 'loadedTime': 3789.7000000476837, 'positionName': 'LEFT', 'positionCoords': [327.28, 227], 'bid': 0.41}, {'imgObject': {}, 'id': 'luckycharms', 'src': '/static/foodstim60/luckycharms.jpg', 'key': 'i', 'origWidth': 410, 'origHeight': 409, 'width': 410, 'height': 409, 'widthPercent': 0.45, 'rescaleHeight': False, 'trialN': 70, 'loaded': True, 'loadedTime': 3907.7000000476837, 'positionName': 'RIGHT', 'positionCoords': [798.72, 227.5], 'bid': 6.4}]",109691.40000009537,1669831981671,blackbeanswithrice,luckycharms,0.41,6.4,5.99,luckycharms,767.2000000476837,768,767.7999999523163,True,i,110961.20000004768,1269.7999999523163,1669831982941,1270,HRV,HRV_0003,2022-11-30 18:15:50
71,"[{'imgObject': {}, 'id': 'strawberries', 'src': '/static/foodstim60/strawberries.jpg', 'key': 'u', 'origWidth': 410, 'origHeight': 410, 'width': 410, 'height': 410, 'widthPercent': 0.45, 'rescaleHeight': False, 'trialN': 71, 'loaded': True, 'loadedTime': 4254.700000047684, 'positionName': 'LEFT', 'positionCoords': [327.28, 227], 'bid': 9.77}, {'imgObject': {}, 'id': 'raspberries', 'src': '/static/foodstim60/raspberries.jpg', 'key': 'i', 'origWidth': 411, 'origHeight': 411, 'width': 411, 'height': 411, 'widthPercent': 0.45, 'rescaleHeight': False, 'trialN': 71, 'loaded': True, 'loadedTime': 4069.300000190735, 'positionName': 'RIGHT', 'positionCoords': [798.72, 226.5], 'bid': 9.02}]",110961.40000009537,1669831982941,strawberries,raspberries,9.77,9.02,-0.75,strawberries,791.2000000476837,793,792.2999999523163,True,u,112272.30000019073,1310.9000000953674,1669831984252,1311,HRV,HRV_0003,2022-11-30 18:15:50
72,"[{'imgObject': {}, 'id': 'cantaloupe', 'src': '/static/foodstim60/cantaloupe.jpg', 'key': 'u', 'origWidth': 409, 'origHeight': 409, 'width': 409, 'height': 409, 'widthPercent': 0.45, 'rescaleHeight': False, 'trialN': 72, 'loaded': True, 'loadedTime': 3976.100000143051, 'positionName': 'LEFT', 'positionCoords': [328.28, 227.5], 'bid': 2.81}, {'imgObject': {}, 'id': 'cheerios', 'src': '/static/foodstim60/cheerios.jpg', 'key': 'i', 'origWidth': 409, 'origHeight': 410, 'width': 409, 'height': 410, 'widthPercent': 0.45, 'rescaleHeight': False, 'trialN': 72, 'loaded': True, 'loadedTime': 3523.800000190735, 'positionName': 'RIGHT', 'positionCoords': [798.72, 227], 'bid': 2.98}]",112272.5,1669831984252,cantaloupe,cheerios,2.81,2.98,0.16999999999999993,cantaloupe,1052.8000001907349,1054,1053.1000001430511,True,u,113865.60000014305,1593.1000001430511,1669831985846,1594,HRV,HRV_0003,2022-11-30 18:15:50
73,"[{'imgObject': {}, 'id': 'turkeysandwich', 'src': '/static/foodstim60/turkeysandwich.jpg', 'key': 'u', 'origWidth': 409, 'origHeight': 409, 'width': 409, 'height': 409, 'widthPercent': 0.45, 'rescaleHeight': False, 'trialN': 73, 'loaded': True, 'loadedTime': 4244.200000047684, 'positionName': 'LEFT', 'positionCoords': [328.28, 227.5], 'bid': 9.83}, {'imgObject': {}, 'id': 'fruitsalad', 'src': '/static/foodstim60/fruitsalad.jpg', 'key': 'i', 'origWidth': 410, 'origHeight': 410, 'width': 410, 'height': 410, 'widthPercent': 0.45, 'rescaleHeight': False, 'trialN': 73, 'loaded': True, 'loadedTime': 4061.800000190735, 'positionName': 'RIGHT', 'positionCoords': [798.72, 227], 'bid': 9.11}]",113865.70000004768,1669831985846,turkeysandwich,fruitsalad,9.83,9.11,-0.7200000000000006,turkeysandwich,691.0,691,691.7000000476837,True,u,115069.80000019073,1204.1000001430511,1669831987050,1204,HRV,HRV_0003,2022-11-30 18:15:50
74,"[{'imgObject': {}, 'id': 'bagel and cc', 'src': '/static/foodstim60/bagel and cc.jpg', 'key': 'u', 'origWidth': 410, 'origHeight': 410, 'width': 410, 'height': 410, 'widthPercent': 0.45, 'rescaleHeight': False, 'trialN': 74, 'loaded': True, 'loadedTime': 4322.400000095367, 'positionName': 'LEFT', 'positionCoords': [327.28, 227], 'bid': 5.83}, {'imgObject': {}, 'id': 'raisin bran w milk', 'src': '/static/foodstim60/raisin bran w milk.jpg', 'key': 'i', 'origWidth': 411, 'origHeight': 411, 'width': 411, 'height': 411, 'widthPercent': 0.45, 'rescaleHeight': False, 'trialN': 74, 'loaded': True, 'loadedTime': 3719.9000000953674, 'positionName': 'RIGHT', 'positionCoords': [798.72, 226.5], 'bid': 3.82}]",115070.0,1669831987050,bagel and cc,raisin bran w milk,5.83,3.82,-2.0100000000000002,bagel and cc,944.0,944,944.4000000953674,True,u,116529.40000009537,1459.4000000953674,1669831988509,1459,HRV,HRV_0003,2022-11-30 18:15:50
75,"[{'imgObject': {}, 'id': 'salad w chicken', 'src': '/static/foodstim60/salad w chicken.jpg', 'key': 'u', 'origWidth': 411, 'origHeight': 411, 'width': 411, 'height': 411, 'widthPercent': 0.45, 'rescaleHeight': False, 'trialN': 75, 'loaded': True, 'loadedTime': 4113.900000095367, 'positionName': 'LEFT', 'positionCoords': [326.28, 226.5], 'bid': 7.640000000000001}, {'imgObject': {}, 'id': 'turkey sandwich', 'src': '/static/foodstim60/turkey sandwich.jpg', 'key': 'i', 'origWidth': 409, 'origHeight': 409, 'width': 409, 'height': 409, 'widthPercent': 0.45, 'rescaleHeight': False, 'trialN': 75, 'loaded': True, 'loadedTime': 4324.300000190735, 'positionName': 'RIGHT', 'positionCoords': [798.72, 227.5], 'bid': 9.6}]",116529.5,1669831988510,salad w chicken,turkey sandwich,7.640000000000001,9.6,1.959999999999999,turkey sandwich,862.3000001907349,862,863.0,True,i,117909.5,1380.0,1669831989890,1380,HRV,HRV_0003,2022-11-30 18:15:50
76,"[{'imgObject': {}, 'id': 'shreddedwheatwithmilk', 'src': '/static/foodstim60/shreddedwheatwithmilk.jpg', 'key': 'u', 'origWidth': 410, 'origHeight': 410, 'width': 410, 'height': 410, 'widthPercent': 0.45, 'rescaleHeight': False, 'trialN': 76, 'loaded': True, 'loadedTime': 3775.600000143051, 'positionName': 'LEFT', 'positionCoords': [327.28, 227], 'bid': 4.24}, {'imgObject': {}, 'id': 'ice cream sundae 002', 'src': '/static/foodstim60/ice cream sundae 002.jpg', 'key': 'i', 'origWidth': 409, 'origHeight': 409, 'width': 409, 'height': 409, 'widthPercent': 0.45, 'rescaleHeight': False, 'trialN': 76, 'loaded': True, 'loadedTime': 4030.100000143051, 'positionName': 'RIGHT', 'positionCoords': [798.72, 227.5], 'bid': 4.45}]",117909.70000004768,1669831989890,shreddedwheatwithmilk,ice cream sundae 002,4.24,4.45,0.20999999999999996,ice cream sundae 002,897.6000001430511,898,898.0,True,i,119320.10000014305,1410.4000000953674,1669831991300,1410,HRV,HRV_0003,2022-11-30 18:15:50
77,"[{'imgObject': {}, 'id': 'shreddedwheatwithmilk', 'src': '/static/foodstim60/shreddedwheatwithmilk.jpg', 'key': 'u', 'origWidth': 410, 'origHeight': 410, 'width': 410, 'height': 410, 'widthPercent': 0.45, 'rescaleHeight': False, 'trialN': 77, 'loaded': True, 'loadedTime': 3779.2000000476837, 'positionName': 'LEFT', 'positionCoords': [327.28, 227], 'bid': 4.24}, {'imgObject': {}, 'id': 'eggs', 'src': '/static/foodstim60/eggs.jpg', 'key': 'i', 'origWidth': 409, 'origHeight': 409, 'width': 409, 'height': 409, 'widthPercent': 0.45, 'rescaleHeight': False, 'trialN': 77, 'loaded': True, 'loadedTime': 4047.300000190735, 'positionName': 'RIGHT', 'positionCoords': [798.72, 227.5], 'bid': 1.35}]",119320.30000019073,1669831991300,shreddedwheatwithmilk,eggs,4.24,1.35,-2.89,shreddedwheatwithmilk,711.2999999523163,712,711.5999999046326,True,u,120543.70000004768,1223.3999998569489,1669831992524,1224,HRV,HRV_0003,2022-11-30 18:15:50
78,"[{'imgObject': {}, 'id': 'shreddedwheatwithmilk', 'src': '/static/foodstim60/shreddedwheatwithmilk.jpg', 'key': 'u', 'origWidth': 410, 'origHeight': 410, 'width': 410, 'height': 410, 'widthPercent': 0.45, 'rescaleHeight': False, 'trialN': 78, 'loaded': True, 'loadedTime': 3768.7000000476837, 'positionName': 'LEFT', 'positionCoords': [327.28, 227], 'bid': 4.24}, {'imgObject': {}, 'id': 'baked potato', 'src': '/static/foodstim60/baked potato.jpg', 'key': 'i', 'origWidth': 409, 'origHeight': 410, 'width': 409, 'height': 410, 'widthPercent': 0.45, 'rescaleHeight': False, 'trialN': 78, 'loaded': True, 'loadedTime': 4314.300000190735, 'positionName': 'RIGHT', 'positionCoords': [798.72, 227], 'bid': 6.36}]",120544.10000014305,1669831992524,shreddedwheatwithmilk,baked potato,4.24,6.36,2.12,baked potato,770.0999999046326,771,770.5,True,i,121830.30000019073,1286.2000000476837,1669831993810,1286,HRV,HRV_0003,2022-11-30 18:15:50
79,"[{'imgObject': {}, 'id': 'turkey sandwich', 'src': '/static/foodstim60/turkey sandwich.jpg', 'key': 'u', 'origWidth': 409, 'origHeight': 409, 'width': 409, 'height': 409, 'widthPercent': 0.45, 'rescaleHeight': False, 'trialN': 79, 'loaded': True, 'loadedTime': 4323, 'positionName': 'LEFT', 'positionCoords': [328.28, 227.5], 'bid': 9.6}, {'imgObject': {}, 'id': 'chickenfingers', 'src': '/static/foodstim60/chickenfingers.jpg', 'key': 'i', 'origWidth': 410, 'origHeight': 410, 'width': 410, 'height': 410, 'widthPercent': 0.45, 'rescaleHeight': False, 'trialN': 79, 'loaded': True, 'loadedTime': 4300.100000143051, 'positionName': 'RIGHT', 'positionCoords': [798.72, 227], 'bid': 9.62}]",121830.40000009537,1669831993810,turkey sandwich,chickenfingers,9.6,9.62,0.019999999999999574,turkey sandwich,1013.9000000953674,1015,1014.7000000476837,True,u,123362.30000019073,1531.9000000953674,1669831995342,1532,HRV,HRV_0003,2022-11-30 18:15:50
80,"[{'imgObject': {}, 'id': 'chicken nuggets2', 'src': '/static/foodstim60/chicken nuggets2.jpg', 'key': 'u', 'origWidth': 410, 'origHeight': 409, 'width': 410, 'height': 409, 'widthPercent': 0.45, 'rescaleHeight': False, 'trialN': 80, 'loaded': True, 'loadedTime': 3857.5, 'positionName': 'LEFT', 'positionCoords': [327.28, 227.5], 'bid': 9.64}, {'imgObject': {}, 'id': 'raisin bran w milk', 'src': '/static/foodstim60/raisin bran w milk.jpg', 'key': 'i', 'origWidth': 411, 'origHeight': 411, 'width': 411, 'height': 411, 'widthPercent': 0.45, 'rescaleHeight': False, 'trialN': 80, 'loaded': True, 'loadedTime': 3723.4000000953674, 'positionName': 'RIGHT', 'positionCoords': [798.72, 226.5], 'bid': 3.82}]",123362.5,1669831995342,chicken nuggets2,raisin bran w milk,9.64,3.82,-5.82,chicken nuggets2,868.1000001430511,869,868.4000000953674,True,u,124755.0,1392.5,1669831996735,1393,HRV,HRV_0003,2022-11-30 18:15:50
81,"[{'imgObject': {}, 'id': 'veggieswithdip', 'src': '/static/foodstim60/veggieswithdip.jpg', 'key': 'u', 'origWidth': 409, 'origHeight': 409, 'width': 409, 'height': 409, 'widthPercent': 0.45, 'rescaleHeight': False, 'trialN': 81, 'loaded': True, 'loadedTime': 3989.7000000476837, 'positionName': 'LEFT', 'positionCoords': [328.28, 227.5], 'bid': 2.53}, {'imgObject': {}, 'id': 'edamame', 'src': '/static/foodstim60/edamame.jpg', 'key': 'i', 'origWidth': 409, 'origHeight': 410, 'width': 409, 'height': 410, 'widthPercent': 0.45, 'rescaleHeight': False, 'trialN': 81, 'loaded': True, 'loadedTime': 4117.200000047684, 'positionName': 'RIGHT', 'positionCoords': [798.72, 227], 'bid': 0.93}]",124755.20000004768,1669831996735,veggieswithdip,edamame,2.53,0.93,-1.5999999999999996,veggieswithdip,924.2000000476837,925,925.0,True,u,126184.60000014305,1429.4000000953674,1669831998165,1430,HRV,HRV_0003,2022-11-30 18:15:50
82,"[{'imgObject': {}, 'id': 'veggieswithdip', 'src': '/static/foodstim60/veggieswithdip.jpg', 'key': 'u', 'origWidth': 409, 'origHeight': 409, 'width': 409, 'height': 409, 'widthPercent': 0.45, 'rescaleHeight': False, 'trialN': 82, 'loaded': True, 'loadedTime': 3989.4000000953674, 'positionName': 'LEFT', 'positionCoords': [328.28, 227.5], 'bid': 2.53}, {'imgObject': {}, 'id': 'kiwi', 'src': '/static/foodstim60/kiwi.jpg', 'key': 'i', 'origWidth': 410, 'origHeight': 410, 'width': 410, 'height': 410, 'widthPercent': 0.45, 'rescaleHeight': False, 'trialN': 82, 'loaded': True, 'loadedTime': 3452, 'positionName': 'RIGHT', 'positionCoords': [798.72, 227], 'bid': 2.51}]",126184.70000004768,1669831998165,veggieswithdip,kiwi,2.53,2.51,-0.020000000000000018,veggieswithdip,801.5,802,801.9000000953674,True,u,127503.5,1318.7999999523163,1669831999483,1318,HRV,HRV_0003,2022-11-30 18:15:50
83,"[{'imgObject': {}, 'id': 'mango', 'src': '/static/foodstim60/mango.jpg', 'key': 'u', 'origWidth': 411, 'origHeight': 411, 'width': 411, 'height': 411, 'widthPercent': 0.45, 'rescaleHeight': False, 'trialN': 83, 'loaded': True, 'loadedTime': 3438.100000143051, 'positionName': 'LEFT', 'positionCoords': [326.28, 226.5], 'bid': 3.03}, {'imgObject': {}, 'id': 'grilled chicken strips', 'src': '/static/foodstim60/grilled chicken strips.jpg', 'key': 'i', 'origWidth': 410, 'origHeight': 411, 'width': 410, 'height': 411, 'widthPercent': 0.45, 'rescaleHeight': False, 'trialN': 83, 'loaded': True, 'loadedTime': 3657.5, 'positionName': 'RIGHT', 'positionCoords': [798.72, 226.5], 'bid': 9.36}]",127503.70000004768,1669831999484,mango,grilled chicken strips,3.03,9.36,6.33,grilled chicken strips,834.4000000953674,835,834.9000000953674,True,i,128841.10000014305,1337.4000000953674,1669832000821,1337,HRV,HRV_0003,2022-11-30 18:15:50
84,"[{'imgObject': {}, 'id': 'apple slices', 'src': '/static/foodstim60/apple slices.jpg', 'key': 'u', 'origWidth': 409, 'origHeight': 410, 'width': 409, 'height': 410, 'widthPercent': 0.45, 'rescaleHeight': False, 'trialN': 84, 'loaded': True, 'loadedTime': 4271.900000095367, 'positionName': 'LEFT', 'positionCoords': [328.28, 227], 'bid': 8.26}, {'imgObject': {}, 'id': 'corn cob', 'src': '/static/foodstim60/corn cob.jpg', 'key': 'i', 'origWidth': 411, 'origHeight': 411, 'width': 411, 'height': 411, 'widthPercent': 0.45, 'rescaleHeight': False, 'trialN': 84, 'loaded': True, 'loadedTime': 4327.200000047684, 'positionName': 'RIGHT', 'positionCoords': [798.72, 226.5], 'bid': 8.64}]",128841.30000019073,1669832000821,apple slices,corn cob,8.26,8.64,0.3800000000000008,corn cob,764.5999999046326,766,765.2999999523163,True,i,130112.40000009537,1271.0999999046326,1669832002092,1271,HRV,HRV_0003,2022-11-30 18:15:50
85,"[{'imgObject': {}, 'id': 'cherry tomato', 'src': '/static/foodstim60/cherry tomato.jpg', 'key': 'u', 'origWidth': 410, 'origHeight': 410, 'width': 410, 'height': 410, 'widthPercent': 0.45, 'rescaleHeight': False, 'trialN': 85, 'loaded': True, 'loadedTime': 4329.800000190735, 'positionName': 'LEFT', 'positionCoords': [327.28, 227], 'bid': 0.78}, {'imgObject': {}, 'id': 'lox', 'src': '/static/foodstim60/lox.jpg', 'key': 'i', 'origWidth': 410, 'origHeight': 411, 'width': 410, 'height': 411, 'widthPercent': 0.45, 'rescaleHeight': False, 'trialN': 85, 'loaded': True, 'loadedTime': 3950.800000190735, 'positionName': 'RIGHT', 'positionCoords': [798.72, 226.5], 'bid': 1.13}]",130112.5,1669832002093,cherry tomato,lox,0.78,1.13,0.34999999999999987,lox,1304.6000001430511,1305,1305.1000001430511,True,i,131935.40000009537,1822.9000000953674,1669832003915,1822,HRV,HRV_0003,2022-11-30 18:15:50
86,"[{'imgObject': {}, 'id': 'baked potato', 'src': '/static/foodstim60/baked potato.jpg', 'key': 'u', 'origWidth': 409, 'origHeight': 410, 'width': 409, 'height': 410, 'widthPercent': 0.45, 'rescaleHeight': False, 'trialN': 86, 'loaded': True, 'loadedTime': 4314.100000143051, 'positionName': 'LEFT', 'positionCoords': [328.28, 227], 'bid': 6.36}, {'imgObject': {}, 'id': 'salmon', 'src': '/static/foodstim60/salmon.jpg', 'key': 'i', 'origWidth': 410, 'origHeight': 409, 'width': 410, 'height': 409, 'widthPercent': 0.45, 'rescaleHeight': False, 'trialN': 86, 'loaded': True, 'loadedTime': 3706.100000143051, 'positionName': 'RIGHT', 'positionCoords': [798.72, 227.5], 'bid': 3.5}]",131935.70000004768,1669832003916,baked potato,salmon,6.36,3.5,-2.8600000000000003,baked potato,928.5,929,928.9000000953674,True,u,133373.80000019073,1438.1000001430511,1669832005354,1438,HRV,HRV_0003,2022-11-30 18:15:50
87,"[{'imgObject': {}, 'id': 'cherry tomato', 'src': '/static/foodstim60/cherry tomato.jpg', 'key': 'u', 'origWidth': 410, 'origHeight': 410, 'width': 410, 'height': 410, 'widthPercent': 0.45, 'rescaleHeight': False, 'trialN': 87, 'loaded': True, 'loadedTime': 4330.800000190735, 'positionName': 'LEFT', 'positionCoords': [327.28, 227], 'bid': 0.78}, {'imgObject': {}, 'id': 'banana', 'src': '/static/foodstim60/banana.jpg', 'key': 'i', 'origWidth': 410, 'origHeight': 410, 'width': 410, 'height': 410, 'widthPercent': 0.45, 'rescaleHeight': False, 'trialN': 87, 'loaded': True, 'loadedTime': 3378, 'positionName': 'RIGHT', 'positionCoords': [798.72, 227], 'bid': 3.0700000000000003}]",133373.80000019073,1669832005354,cherry tomato,banana,0.78,3.0700000000000003,2.29,banana,1459.2999999523163,1460,1460.0999999046326,True,i,135341.0,1967.1999998092651,1669832007321,1967,HRV,HRV_0003,2022-11-30 18:15:50
88,"[{'imgObject': {}, 'id': 'turkeysandwich', 'src': '/static/foodstim60/turkeysandwich.jpg', 'key': 'u', 'origWidth': 409, 'origHeight': 409, 'width': 409, 'height': 409, 'widthPercent': 0.45, 'rescaleHeight': False, 'trialN': 88, 'loaded': True, 'loadedTime': 4248.600000143051, 'positionName': 'LEFT', 'positionCoords': [328.28, 227.5], 'bid': 9.83}, {'imgObject': {}, 'id': 'apple slices', 'src': '/static/foodstim60/apple slices.jpg', 'key': 'i', 'origWidth': 409, 'origHeight': 410, 'width': 409, 'height': 410, 'widthPercent': 0.45, 'rescaleHeight': False, 'trialN': 88, 'loaded': True, 'loadedTime': 4294, 'positionName': 'RIGHT', 'positionCoords': [798.72, 227], 'bid': 8.26}]",135341.10000014305,1669832007321,turkeysandwich,apple slices,9.83,8.26,-1.5700000000000003,turkeysandwich,879.7000000476837,880,880.0999999046326,True,u,136737.20000004768,1396.0999999046326,1669832008717,1396,HRV,HRV_0003,2022-11-30 18:15:50
89,"[{'imgObject': {}, 'id': 'avocado', 'src': '/static/foodstim60/avocado.jpg', 'key': 'u', 'origWidth': 409, 'origHeight': 409, 'width': 409, 'height': 409, 'widthPercent': 0.45, 'rescaleHeight': False, 'trialN': 89, 'loaded': True, 'loadedTime': 4226.100000143051, 'positionName': 'LEFT', 'positionCoords': [328.28, 227.5], 'bid': 0.31}, {'imgObject': {}, 'id': 'cherry tomato', 'src': '/static/foodstim60/cherry tomato.jpg', 'key': 'i', 'origWidth': 410, 'origHeight': 410, 'width': 410, 'height': 410, 'widthPercent': 0.45, 'rescaleHeight': False, 'trialN': 89, 'loaded': True, 'loadedTime': 4329.600000143051, 'positionName': 'RIGHT', 'positionCoords': [798.72, 227], 'bid': 0.78}]",136737.40000009537,1669832008717,avocado,cherry tomato,0.31,0.78,0.47000000000000003,cherry tomato,1295.0,1296,1295.4000000953674,True,i,138537.5,1800.0999999046326,1669832010518,1801,HRV,HRV_0003,2022-11-30 18:15:50
90,"[{'imgObject': {}, 'id': 'eggsalad', 'src': '/static/foodstim60/eggsalad.jpg', 'key': 'u', 'origWidth': 410, 'origHeight': 409, 'width': 410, 'height': 409, 'widthPercent': 0.45, 'rescaleHeight': False, 'trialN': 90, 'loaded': True, 'loadedTime': 3752.4000000953674, 'positionName': 'LEFT', 'positionCoords': [327.28, 227.5], 'bid': 5.2700000000000005}, {'imgObject': {}, 'id': 'corn cob', 'src': '/static/foodstim60/corn cob.jpg', 'key': 'i', 'origWidth': 411, 'origHeight': 411, 'width': 411, 'height': 411, 'widthPercent': 0.45, 'rescaleHeight': False, 'trialN': 90, 'loaded': True, 'loadedTime': 4328, 'positionName': 'RIGHT', 'positionCoords': [798.72, 226.5], 'bid': 8.64}]",141578.60000014305,1669832013559,eggsalad,corn cob,5.2700000000000005,8.64,3.37,corn cob,959.2000000476837,959,959.7000000476837,True,i,143047.70000004768,1469.0999999046326,1669832015028,1469,HRV,HRV_0003,2022-11-30 18:15:50
91,"[{'imgObject': {}, 'id': 'popsicles', 'src': '/static/foodstim60/popsicles.jpg', 'key': 'u', 'origWidth': 410, 'origHeight': 410, 'width': 410, 'height': 410, 'widthPercent': 0.45, 'rescaleHeight': False, 'trialN': 91, 'loaded': True, 'loadedTime': 4345.300000190735, 'positionName': 'LEFT', 'positionCoords': [327.28, 227], 'bid': 3.51}, {'imgObject': {}, 'id': 'salmon', 'src': '/static/foodstim60/salmon.jpg', 'key': 'i', 'origWidth': 410, 'origHeight': 409, 'width': 410, 'height': 409, 'widthPercent': 0.45, 'rescaleHeight': False, 'trialN': 91, 'loaded': True, 'loadedTime': 3712.2000000476837, 'positionName': 'RIGHT', 'positionCoords': [798.72, 227.5], 'bid': 3.5}]",143047.70000004768,1669832015028,popsicles,salmon,3.51,3.5,-0.009999999999999787,salmon,676.0,676,676.7000000476837,True,i,144248.10000014305,1200.4000000953674,1669832016228,1200,HRV,HRV_0003,2022-11-30 18:15:50
92,"[{'imgObject': {}, 'id': 'eggs', 'src': '/static/foodstim60/eggs.jpg', 'key': 'u', 'origWidth': 409, 'origHeight': 409, 'width': 409, 'height': 409, 'widthPercent': 0.45, 'rescaleHeight': False, 'trialN': 92, 'loaded': True, 'loadedTime': 4043.7000000476837, 'positionName': 'LEFT', 'positionCoords': [328.28, 227.5], 'bid': 1.35}, {'imgObject': {}, 'id': 'granola w milk', 'src': '/static/foodstim60/granola w milk.jpg', 'key': 'i', 'origWidth': 410, 'origHeight': 410, 'width': 410, 'height': 410, 'widthPercent': 0.45, 'rescaleHeight': False, 'trialN': 92, 'loaded': True, 'loadedTime': 3468.600000143051, 'positionName': 'RIGHT', 'positionCoords': [798.72, 227], 'bid': 1.35}]",144248.10000014305,1669832016228,eggs,granola w milk,1.35,1.35,0.0,granola w milk,1156.2999999523163,1157,1156.5999999046326,True,i,145914.5,1666.3999998569489,1669832017894,1666,HRV,HRV_0003,2022-11-30 18:15:50
93,"[{'imgObject': {}, 'id': 'Grapes', 'src': '/static/foodstim60/Grapes.jpg', 'key': 'u', 'origWidth': 411, 'origHeight': 411, 'width': 411, 'height': 411, 'widthPercent': 0.45, 'rescaleHeight': False, 'trialN': 93, 'loaded': True, 'loadedTime': 4331.300000190735, 'positionName': 'LEFT', 'positionCoords': [326.28, 226.5], 'bid': 6.4}, {'imgObject': {}, 'id': 'mac & cheese', 'src': '/static/foodstim60/mac & cheese.jpg', 'key': 'i', 'origWidth': 410, 'origHeight': 410, 'width': 410, 'height': 410, 'widthPercent': 0.45, 'rescaleHeight': False, 'trialN': 93, 'loaded': True, 'loadedTime': 4257.300000190735, 'positionName': 'RIGHT', 'positionCoords': [798.72, 227], 'bid': 9.32}]",145914.70000004768,1669832017895,Grapes,mac & cheese,6.4,9.32,2.92,mac & cheese,967.5,969,968.9000000953674,True,i,147387.70000004768,1473.0,1669832019368,1473,HRV,HRV_0003,2022-11-30 18:15:50
94,"[{'imgObject': {}, 'id': 'cantaloupe', 'src': '/static/foodstim60/cantaloupe.jpg', 'key': 'u', 'origWidth': 409, 'origHeight': 409, 'width': 409, 'height': 409, 'widthPercent': 0.45, 'rescaleHeight': False, 'trialN': 94, 'loaded': True, 'loadedTime': 3969.800000190735, 'positionName': 'LEFT', 'positionCoords': [328.28, 227.5], 'bid': 2.81}, {'imgObject': {}, 'id': 'fried eggs', 'src': '/static/foodstim60/fried eggs.jpg', 'key': 'i', 'origWidth': 410, 'origHeight': 410, 'width': 410, 'height': 410, 'widthPercent': 0.45, 'rescaleHeight': False, 'trialN': 94, 'loaded': True, 'loadedTime': 4336.700000047684, 'positionName': 'RIGHT', 'positionCoords': [798.72, 227], 'bid': 1.73}]",147387.90000009537,1669832019368,cantaloupe,fried eggs,2.81,1.73,-1.08,cantaloupe,851.5999999046326,858,851.9000000953674,True,u,148751.60000014305,1363.7000000476837,1669832020738,1370,HRV,HRV_0003,2022-11-30 18:15:50
95,"[{'imgObject': {}, 'id': 'Grapes', 'src': '/static/foodstim60/Grapes.jpg', 'key': 'u', 'origWidth': 411, 'origHeight': 411, 'width': 411, 'height': 411, 'widthPercent': 0.45, 'rescaleHeight': False, 'trialN': 95, 'loaded': True, 'loadedTime': 4333.600000143051, 'positionName': 'LEFT', 'positionCoords': [326.28, 226.5], 'bid': 6.4}, {'imgObject': {}, 'id': 'hashbrowns', 'src': '/static/foodstim60/hashbrowns.jpg', 'key': 'i', 'origWidth': 411, 'origHeight': 410, 'width': 411, 'height': 410, 'widthPercent': 0.45, 'rescaleHeight': False, 'trialN': 95, 'loaded': True, 'loadedTime': 3573.2000000476837, 'positionName': 'RIGHT', 'positionCoords': [798.72, 227], 'bid': 0.41}]",148752.0,1669832020738,Grapes,hashbrowns,6.4,0.41,-5.99,Grapes,1158.6000001430511,1160,1159.4000000953674,True,u,150418.60000014305,1666.6000001430511,1669832022405,1667,HRV,HRV_0003,2022-11-30 18:15:50
96,"[{'imgObject': {}, 'id': 'cantaloupe', 'src': '/static/foodstim60/cantaloupe.jpg', 'key': 'u', 'origWidth': 409, 'origHeight': 409, 'width': 409, 'height': 409, 'widthPercent': 0.45, 'rescaleHeight': False, 'trialN': 96, 'loaded': True, 'loadedTime': 3975.300000190735, 'positionName': 'LEFT', 'positionCoords': [328.28, 227.5], 'bid': 2.81}, {'imgObject': {}, 'id': 'eggsalad', 'src': '/static/foodstim60/eggsalad.jpg', 'key': 'i', 'origWidth': 410, 'origHeight': 409, 'width': 410, 'height': 409, 'widthPercent': 0.45, 'rescaleHeight': False, 'trialN': 96, 'loaded': True, 'loadedTime': 3756.2000000476837, 'positionName': 'RIGHT', 'positionCoords': [798.72, 227.5], 'bid': 5.2700000000000005}]",150418.80000019073,1669832022405,cantaloupe,eggsalad,2.81,5.2700000000000005,2.4600000000000004,cantaloupe,1031.3999998569489,1032,1031.8999998569489,True,u,151965.10000014305,1546.2999999523163,1669832023951,1546,HRV,HRV_0003,2022-11-30 18:15:50
97,"[{'imgObject': {}, 'id': 'seaweed', 'src': '/static/foodstim60/seaweed.jpg', 'key': 'u', 'origWidth': 410, 'origHeight': 410, 'width': 410, 'height': 410, 'widthPercent': 0.45, 'rescaleHeight': False, 'trialN': 97, 'loaded': True, 'loadedTime': 4206.700000047684, 'positionName': 'LEFT', 'positionCoords': [327.28, 227], 'bid': 0}, {'imgObject': {}, 'id': 'avocado', 'src': '/static/foodstim60/avocado.jpg', 'key': 'i', 'origWidth': 409, 'origHeight': 409, 'width': 409, 'height': 409, 'widthPercent': 0.45, 'rescaleHeight': False, 'trialN': 97, 'loaded': True, 'loadedTime': 4229.900000095367, 'positionName': 'RIGHT', 'positionCoords': [798.72, 227.5], 'bid': 0.31}]",151965.40000009537,1669832023952,seaweed,avocado,0.0,0.31,0.31,avocado,871.2999999523163,872,871.7999999523163,True,i,153359.40000009537,1394.0,1669832025346,1394,HRV,HRV_0003,2022-11-30 18:15:50
98,"[{'imgObject': {}, 'id': 'burrito', 'src': '/static/foodstim60/burrito.jpg', 'key': 'u', 'origWidth': 410, 'origHeight': 410, 'width': 410, 'height': 410, 'widthPercent': 0.45, 'rescaleHeight': False, 'trialN': 98, 'loaded': True, 'loadedTime': 4099.600000143051, 'positionName': 'LEFT', 'positionCoords': [327.28, 227], 'bid': 6.82}, {'imgObject': {}, 'id': 'Grapes', 'src': '/static/foodstim60/Grapes.jpg', 'key': 'i', 'origWidth': 411, 'origHeight': 411, 'width': 411, 'height': 411, 'widthPercent': 0.45, 'rescaleHeight': False, 'trialN': 98, 'loaded': True, 'loadedTime': 4335, 'positionName': 'RIGHT', 'positionCoords': [798.72, 226.5], 'bid': 6.4}]",153359.70000004768,1669832025346,burrito,Grapes,6.82,6.4,-0.41999999999999993,burrito,975.7999999523163,976,976.4000000953674,True,u,154859.0,1499.2999999523163,1669832026845,1499,HRV,HRV_0003,2022-11-30 18:15:50
99,"[{'imgObject': {}, 'id': 'cheerios', 'src': '/static/foodstim60/cheerios.jpg', 'key': 'u', 'origWidth': 409, 'origHeight': 410, 'width': 409, 'height': 410, 'widthPercent': 0.45, 'rescaleHeight': False, 'trialN': 99, 'loaded': True, 'loadedTime': 3520.5, 'positionName': 'LEFT', 'positionCoords': [328.28, 227], 'bid': 2.98}, {'imgObject': {}, 'id': 'banana', 'src': '/static/foodstim60/banana.jpg', 'key': 'i', 'origWidth': 410, 'origHeight': 410, 'width': 410, 'height': 410, 'widthPercent': 0.45, 'rescaleHeight': False, 'trialN': 99, 'loaded': True, 'loadedTime': 3381.300000190735, 'positionName': 'RIGHT', 'positionCoords': [798.72, 227], 'bid': 3.0700000000000003}]",154859.10000014305,1669832026845,cheerios,banana,2.98,3.0700000000000003,0.0900000000000003,banana,1126.5999999046326,1165,1164.8999998569489,True,i,156541.30000019073,1682.2000000476837,1669832028528,1683,HRV,HRV_0003,2022-11-30 18:15:50
100,"[{'imgObject': {}, 'id': 'orange slices', 'src': '/static/foodstim60/orange slices.jpg', 'key': 'u', 'origWidth': 409, 'origHeight': 410, 'width': 409, 'height': 410, 'widthPercent': 0.45, 'rescaleHeight': False, 'trialN': 100, 'loaded': True, 'loadedTime': 4320.200000047684, 'positionName': 'LEFT', 'positionCoords': [328.28, 227], 'bid': 6.08}, {'imgObject': {}, 'id': 'luckycharms', 'src': '/static/foodstim60/luckycharms.jpg', 'key': 'i', 'origWidth': 410, 'origHeight': 409, 'width': 410, 'height': 409, 'widthPercent': 0.45, 'rescaleHeight': False, 'trialN': 100, 'loaded': True, 'loadedTime': 3900.5, 'positionName': 'RIGHT', 'positionCoords': [798.72, 227.5], 'bid': 6.4}]",156541.70000004768,1669832028528,orange slices,luckycharms,6.08,6.4,0.3200000000000003,luckycharms,1241.4000000953674,1242,1242.2000000476837,True,i,158295.90000009537,1754.2000000476837,1669832030282,1754,HRV,HRV_0003,2022-11-30 18:15:50
101,"[{'imgObject': {}, 'id': 'raspberries', 'src': '/static/foodstim60/raspberries.jpg', 'key': 'u', 'origWidth': 411, 'origHeight': 411, 'width': 411, 'height': 411, 'widthPercent': 0.45, 'rescaleHeight': False, 'trialN': 101, 'loaded': True, 'loadedTime': 4084.2000000476837, 'positionName': 'LEFT', 'positionCoords': [326.28, 226.5], 'bid': 9.02}, {'imgObject': {}, 'id': 'orange slices', 'src': '/static/foodstim60/orange slices.jpg', 'key': 'i', 'origWidth': 409, 'origHeight': 410, 'width': 409, 'height': 410, 'widthPercent': 0.45, 'rescaleHeight': False, 'trialN': 101, 'loaded': True, 'loadedTime': 4316.600000143051, 'positionName': 'RIGHT', 'positionCoords': [798.72, 227], 'bid': 6.08}]",158296.20000004768,1669832030282,raspberries,orange slices,9.02,6.08,-2.9399999999999995,raspberries,1187.0,1188,1187.6000001430511,True,u,159988.70000004768,1692.5,1669832031975,1693,HRV,HRV_0003,2022-11-30 18:15:50
102,"[{'imgObject': {}, 'id': 'Tribe humus pita', 'src': '/static/foodstim60/Tribe humus pita.jpg', 'key': 'u', 'origWidth': 411, 'origHeight': 411, 'width': 411, 'height': 411, 'widthPercent': 0.45, 'rescaleHeight': False, 'trialN': 102, 'loaded': True, 'loadedTime': 3489.800000190735, 'positionName': 'LEFT', 'positionCoords': [326.28, 226.5], 'bid': 5.36}, {'imgObject': {}, 'id': 'popsicles', 'src': '/static/foodstim60/popsicles.jpg', 'key': 'i', 'origWidth': 410, 'origHeight': 410, 'width': 410, 'height': 410, 'widthPercent': 0.45, 'rescaleHeight': False, 'trialN': 102, 'loaded': True, 'loadedTime': 4344.800000190735, 'positionName': 'RIGHT', 'positionCoords': [798.72, 227], 'bid': 3.51}]",159989.10000014305,1669832031975,Tribe humus pita,popsicles,5.36,3.51,-1.8500000000000005,popsicles,962.0999999046326,963,963.0,True,i,161459.20000004768,1470.0999999046326,1669832033445,1470,HRV,HRV_0003,2022-11-30 18:15:50
103,"[{'imgObject': {}, 'id': 'shreddedwheatwithmilk', 'src': '/static/foodstim60/shreddedwheatwithmilk.jpg', 'key': 'u', 'origWidth': 410, 'origHeight': 410, 'width': 410, 'height': 410, 'widthPercent': 0.45, 'rescaleHeight': False, 'trialN': 103, 'loaded': True, 'loadedTime': 3772.2000000476837, 'positionName': 'LEFT', 'positionCoords': [327.28, 227], 'bid': 4.24}, {'imgObject': {}, 'id': 'burrito', 'src': '/static/foodstim60/burrito.jpg', 'key': 'i', 'origWidth': 410, 'origHeight': 410, 'width': 410, 'height': 410, 'widthPercent': 0.45, 'rescaleHeight': False, 'trialN': 103, 'loaded': True, 'loadedTime': 4095.800000190735, 'positionName': 'RIGHT', 'positionCoords': [798.72, 227], 'bid': 6.82}]",161459.30000019073,1669832033446,shreddedwheatwithmilk,burrito,4.24,6.82,2.58,burrito,1848.7999999523163,1849,1849.2999999523163,True,i,163826.0,2366.699999809265,1669832035812,2366,HRV,HRV_0003,2022-11-30 18:15:50
104,"[{'imgObject': {}, 'id': 'mango', 'src': '/static/foodstim60/mango.jpg', 'key': 'u', 'origWidth': 411, 'origHeight': 411, 'width': 411, 'height': 411, 'widthPercent': 0.45, 'rescaleHeight': False, 'trialN': 104, 'loaded': True, 'loadedTime': 3426.7000000476837, 'positionName': 'LEFT', 'positionCoords': [326.28, 226.5], 'bid': 3.03}, {'imgObject': {}, 'id': 'cantaloupe', 'src': '/static/foodstim60/cantaloupe.jpg', 'key': 'i', 'origWidth': 409, 'origHeight': 409, 'width': 409, 'height': 409, 'widthPercent': 0.45, 'rescaleHeight': False, 'trialN': 104, 'loaded': True, 'loadedTime': 3976.4000000953674, 'positionName': 'RIGHT', 'positionCoords': [798.72, 227.5], 'bid': 2.81}]",163826.20000004768,1669832035812,mango,cantaloupe,3.03,2.81,-0.21999999999999975,mango,1496.4000000953674,1497,1496.7000000476837,True,u,165825.40000009537,1999.2000000476837,1669832037812,2000,HRV,HRV_0003,2022-11-30 18:15:50
105,"[{'imgObject': {}, 'id': 'hashbrowns', 'src': '/static/foodstim60/hashbrowns.jpg', 'key': 'u', 'origWidth': 411, 'origHeight': 410, 'width': 411, 'height': 410, 'widthPercent': 0.45, 'rescaleHeight': False, 'trialN': 105, 'loaded': True, 'loadedTime': 3551.5, 'positionName': 'LEFT', 'positionCoords': [326.28, 227], 'bid': 0.41}, {'imgObject': {}, 'id': 'olives', 'src': '/static/foodstim60/olives.jpg', 'key': 'i', 'origWidth': 410, 'origHeight': 410, 'width': 410, 'height': 410, 'widthPercent': 0.45, 'rescaleHeight': False, 'trialN': 105, 'loaded': True, 'loadedTime': 3996.9000000953674, 'positionName': 'RIGHT', 'positionCoords': [798.72, 227], 'bid': 0.4}]",165825.60000014305,1669832037812,hashbrowns,olives,0.41,0.4,-0.009999999999999953,hashbrowns,1140.5999999046326,1141,1141.2999999523163,True,u,167480.60000014305,1655.0,1669832039467,1655,HRV,HRV_0003,2022-11-30 18:15:50
106,"[{'imgObject': {}, 'id': 'fried eggs', 'src': '/static/foodstim60/fried eggs.jpg', 'key': 'u', 'origWidth': 410, 'origHeight': 410, 'width': 410, 'height': 410, 'widthPercent': 0.45, 'rescaleHeight': False, 'trialN': 106, 'loaded': True, 'loadedTime': 4335.200000047684, 'positionName': 'LEFT', 'positionCoords': [327.28, 227], 'bid': 1.73}, {'imgObject': {}, 'id': 'apple slices', 'src': '/static/foodstim60/apple slices.jpg', 'key': 'i', 'origWidth': 409, 'origHeight': 410, 'width': 409, 'height': 410, 'widthPercent': 0.45, 'rescaleHeight': False, 'trialN': 106, 'loaded': True, 'loadedTime': 4276.100000143051, 'positionName': 'RIGHT', 'positionCoords': [798.72, 227], 'bid': 8.26}]",167480.80000019073,1669832039467,fried eggs,apple slices,1.73,8.26,6.529999999999999,apple slices,818.5999999046326,819,819.0,True,i,168807.10000014305,1326.2999999523163,1669832040793,1326,HRV,HRV_0003,2022-11-30 18:15:50
107,"[{'imgObject': {}, 'id': 'kiwi', 'src': '/static/foodstim60/kiwi.jpg', 'key': 'u', 'origWidth': 410, 'origHeight': 410, 'width': 410, 'height': 410, 'widthPercent': 0.45, 'rescaleHeight': False, 'trialN': 107, 'loaded': True, 'loadedTime': 3458.600000143051, 'positionName': 'LEFT', 'positionCoords': [327.28, 227], 'bid': 2.51}, {'imgObject': {}, 'id': 'sweetpotato', 'src': '/static/foodstim60/sweetpotato.jpg', 'key': 'i', 'origWidth': 410, 'origHeight': 410, 'width': 410, 'height': 410, 'widthPercent': 0.45, 'rescaleHeight': False, 'trialN': 107, 'loaded': True, 'loadedTime': 4238.200000047684, 'positionName': 'RIGHT', 'positionCoords': [798.72, 227], 'bid': 0.31}]",168807.60000014305,1669832040794,kiwi,sweetpotato,2.51,0.31,-2.1999999999999997,kiwi,1267.2000000476837,1267,1267.5999999046326,True,u,170587.30000019073,1779.7000000476837,1669832042574,1780,HRV,HRV_0003,2022-11-30 18:15:50
108,"[{'imgObject': {}, 'id': 'chicken nuggets2', 'src': '/static/foodstim60/chicken nuggets2.jpg', 'key': 'u', 'origWidth': 410, 'origHeight': 409, 'width': 410, 'height': 409, 'widthPercent': 0.45, 'rescaleHeight': False, 'trialN': 108, 'loaded': True, 'loadedTime': 3844.600000143051, 'positionName': 'LEFT', 'positionCoords': [327.28, 227.5], 'bid': 9.64}, {'imgObject': {}, 'id': 'strawberries', 'src': '/static/foodstim60/strawberries.jpg', 'key': 'i', 'origWidth': 410, 'origHeight': 410, 'width': 410, 'height': 410, 'widthPercent': 0.45, 'rescaleHeight': False, 'trialN': 108, 'loaded': True, 'loadedTime': 4255, 'positionName': 'RIGHT', 'positionCoords': [798.72, 227], 'bid': 9.77}]",170587.60000014305,1669832042574,chicken nuggets2,strawberries,9.64,9.77,0.129999999999999,chicken nuggets2,688.3999998569489,689,689.2000000476837,True,u,171797.5,1209.8999998569489,1669832043784,1210,HRV,HRV_0003,2022-11-30 18:15:50
