success,trial_type,trial_index,time_elapsed,internal_node_id,Block,TrialNumber,TrialTime,trialTimeDiff,FPS_avg,FPS_med,FPS_mode,TrialDur,winResizeTime,rt,block,button_pressed,MotCoh,MotDir,ColCoh,Color,ChoiceKey,Choice,Accuracy,RT,nFrames,FPS,PPD,missTrial,missTrialMsg,onsetDelay,fullScreenExitTime,canvCenter,TrialType,Score,BlockTrial,stimulus,button_labels,exp,subjectId,date
True,fullscreen,0,1725,0.0-0.0,0.0,1.0,,,,,,,,,,,,,,,,,,,,,,,,,,,,,,,,HRV,HRV_0003,2022-11-30 18:25:09
,wl-check-fps,1,6748,0.0-1.0,0.0,2.0,"[2265.6, 2266.6, 2282.3, 2302.4, 2322.9, 2337.1, 2350.4, 2365.2, 2380.3, 2394, 2408.4, 2425.6, 2437, 2454.9, 2467.7, 2486, 2499.3, 2515.4, 2532.2, 2545, 2563.8, 2578.9, 2592.6, 2610.6, 2623.2, 2639.6, 2653, 2669.2, 2687.3, 2699.8, 2719.6, 2738.9, 2754, 2763.3, 2781.2, 2794.7, 2811.6, 2829.4, 2841.3, 2859.6, 2872.2, 2887.6, 2904.4, 2918.5, 2934.6, 2950.6, 2965.9, 2980.8, 3001.5, 3027.9, 3056.3, 3084.7, 3096.5, 3126.8, 3140.6, 3157.4, 3173.1, 3189.4, 3203.7, 3217, 3233.1, 3249.6, 3266.6, 3282.8, 3300.2, 3317, 3328.8, 3342.7, 3358.8, 3372.9, 3389.4, 3412.5, 3422.6, 3440.7, 3457.7, 3471.8, 3486.8, 3496.9, 3520.7, 3529.8, 3549.7, 3560.3, 3581.2, 3590.7, 3606.7, 3627.6, 3641, 3654.4, 3668.6, 3683.7, 3699.6, 3716.3, 3731.5, 3746.5, 3762.6, 3778.2, 3793.2, 3809.2, 3825.2, 3841.3, 3855.7, 3871.7, 3887.6, 3903.8, 3918.6, 3934.4, 3949.6, 3966.6, 3982, 3998, 4012.8, 4027.7, 4044.9, 4060.1, 4075.7, 4090.7, 4108.9, 4125.3, 4141, 4159, 4172.9, 4189.5, 4200.4, 4218.7, 4233.9, 4247, 4262.7, 4278.9, 4295.2, 4310.7, 4326.3, 4342.2, 4359.1, 4376, 4390.7, 4407.7, 4423.4, 4436.3, 4455.7, 4466.9, 4490, 4497.4, 4513.2, 4529.8, 4546, 4561.5, 4575.5, 4598.9, 4608.8, 4624.8, 4638, 4655.1, 4669.5, 4686, 4700.1, 4715.8, 4730.7, 4746.8, 4765.6, 4778, 4798.5, 4816.4, 4828.5, 4843, 4856.6, 4876.9, 4888.1, 4903.2, 4924.2, 4935.8, 4950.4, 4968.7, 4984.3, 5005.1, 5019.7, 5033.8, 5056.3, 5070.6, 5095.4, 5111, 5133.1, 5155.1, 5176.4, 5189, 5221, 5232.7, 5252.1, 5271, 5279.4, 5295.9, 5313, 5330.9, 5345.1, 5380.8, 5392.6, 5407.2, 5421.4, 5436.2, 5455.2, 5466.7, 5485.1, 5501.8, 5515.7, 5535.4, 5551.6, 5565.3, 5580.7, 5595, 5610.3, 5628.1, 5646.6, 5666.1, 5683.7, 5705.2, 5721.8, 5737.5, 5750.6, 5767.3, 5782.2, 5802.8, 5829.6, 5854.8, 5878.6, 5896.7, 5951.6, 5988.5, 6018.6, 6051, 6086.8, 6105.9, 6127.7, 6144.7, 6172.8, 6191.1, 6205.4, 6221.6, 6235.2, 6248.9, 6263.8, 6278.3, 6300.5, 6314.3, 6327, 6360.1, 6377.8, 6393.1, 6407.5, 6428.9, 6443.9, 6462.2, 6498.8, 6518.6, 6530.8, 6547.1, 6563.8, 6576.3, 6591.6, 6607, 6621.7, 6639, 6652.7, 6669.7, 6683.9, 6700, 6715.9, 6730.9, 6746.9, 6763.1, 6777.9, 6793.9, 6808.9, 6824.9, 6840.9, 6856.9, 6871.8, 6887.8, 6903.8, 6919.4, 6934.1, 6950.1, 6966.1, 6981, 6997.1, 7013, 7028, 7044, 7059.1, 7075, 7092.9, 7107.3, 7122.1, 7137.2, 7152.4, 7168.3, 7185.2, 7199.2, 7215.3, 7231.2, 7246.2, 7262.3]","[5.9, 1, 15.7, 20.1, 20.5, 14.2, 13.3, 14.8, 15.1, 13.7, 14.4, 17.2, 11.4, 17.9, 12.8, 18.3, 13.3, 16.1, 16.8, 12.8, 18.8, 15.1, 13.7, 18, 12.6, 16.4, 13.4, 16.2, 18.1, 12.5, 19.8, 19.3, 15.1, 9.3, 17.9, 13.5, 16.9, 17.8, 11.9, 18.3, 12.6, 15.4, 16.8, 14.1, 16.1, 16, 15.3, 14.9, 20.7, 26.4, 28.4, 28.4, 11.8, 30.3, 13.8, 16.8, 15.7, 16.3, 14.3, 13.3, 16.1, 16.5, 17, 16.2, 17.4, 16.8, 11.8, 13.9, 16.1, 14.1, 16.5, 23.1, 10.1, 18.1, 17, 14.1, 15, 10.1, 23.8, 9.1, 19.9, 10.6, 20.9, 9.5, 16, 20.9, 13.4, 13.4, 14.2, 15.1, 15.9, 16.7, 15.2, 15, 16.1, 15.6, 15, 16, 16, 16.1, 14.4, 16, 15.9, 16.2, 14.8, 15.8, 15.2, 17, 15.4, 16, 14.8, 14.9, 17.2, 15.2, 15.6, 15, 18.2, 16.4, 15.7, 18, 13.9, 16.6, 10.9, 18.3, 15.2, 13.1, 15.7, 16.2, 16.3, 15.5, 15.6, 15.9, 16.9, 16.9, 14.7, 17, 15.7, 12.9, 19.4, 11.2, 23.1, 7.4, 15.8, 16.6, 16.2, 15.5, 14, 23.4, 9.9, 16, 13.2, 17.1, 14.4, 16.5, 14.1, 15.7, 14.9, 16.1, 18.8, 12.4, 20.5, 17.9, 12.1, 14.5, 13.6, 20.3, 11.2, 15.1, 21, 11.6, 14.6, 18.3, 15.6, 20.8, 14.6, 14.1, 22.5, 14.3, 24.8, 15.6, 22.1, 22, 21.3, 12.6, 32, 11.7, 19.4, 18.9, 8.4, 16.5, 17.1, 17.9, 14.2, 35.7, 11.8, 14.6, 14.2, 14.8, 19, 11.5, 18.4, 16.7, 13.9, 19.7, 16.2, 13.7, 15.4, 14.3, 15.3, 17.8, 18.5, 19.5, 17.6, 21.5, 16.6, 15.7, 13.1, 16.7, 14.9, 20.6, 26.8, 25.2, 23.8, 18.1, 54.9, 36.9, 30.1, 32.4, 35.8, 19.1, 21.8, 17, 28.1, 18.3, 14.3, 16.2, 13.6, 13.7, 14.9, 14.5, 22.2, 13.8, 12.7, 33.1, 17.7, 15.3, 14.4, 21.4, 15, 18.3, 36.6, 19.8, 12.2, 16.3, 16.7, 12.5, 15.3, 15.4, 14.7, 17.3, 13.7, 17, 14.2, 16.1, 15.9, 15, 16, 16.2, 14.8, 16, 15, 16, 16, 16, 14.9, 16, 16, 15.6, 14.7, 16, 16, 14.9, 16.1, 15.9, 15, 16, 15.1, 15.9, 17.9, 14.4, 14.8, 15.1, 15.2, 15.9, 16.9, 14, 16.1, 15.9, 15, 16.1]",60.0,68.0,63.0,5018.6,[],,,,,,,,,,,,,,,,,,,,,,,,,HRV,HRV_0003,2022-11-30 18:25:09
,wl-html-keyboard-response,2,19776,0.0-2.0-0.0,0.0,3.0,,,,,,,,10996.399999856949,0.0,0,,,,,,,,,,,,,,,,,,,,,,HRV,HRV_0003,2022-11-30 18:25:09
,wl-rdm,3,26349,0.0-3.0-0.0,0.0,4.0,,,,,,,[],,,,0.0,0.0,87.9,0.0,u,0.0,True,956.2000000476837,59.0,63.0,40.0,False,,3000.0,[],"[768, 432]",ColorTask_Demo,,,,,HRV,HRV_0003,2022-11-30 18:25:09
,wl-rdm,4,31527,0.0-3.0-1.0,0.0,5.0,,,,,,,[],,,,0.0,0.0,87.9,1.0,i,1.0,True,1101.5000002384186,70.0,63.0,40.0,False,,2000.0,[],"[768, 432]",ColorTask_Demo,,,,,HRV,HRV_0003,2022-11-30 18:25:09
,wl-html-keyboard-response,5,36246,0.0-3.0-2.0,0.0,6.0,,,,,,,,2712.2999999523163,0.0,1,,,,,,,,,,,,,,,,,,,,,,HRV,HRV_0003,2022-11-30 18:25:09
,wl-html-keyboard-response,6,47005,0.0-4.0-0.0,0.0,7.0,,,,,,,,8755.899999856949,0.0,0,,,,,,,,,,,,,,,,,,,,,,HRV,HRV_0003,2022-11-30 18:25:09
,wl-html-keyboard-response,7,54564,0.0-5.0-0.0,0.0,8.0,,,,,,,,5549.699999809265,0.0,0,,,,,,,,,,,,,,,,,,,,,,HRV,HRV_0003,2022-11-30 18:25:09
,wl-rdm,8,56938,0.0-6.0-0.0,0.0,9.0,,,,,,,[],,,,,,56.4,0.0,u,0.0,True,981.6999998092651,56.0,63.0,40.0,False,,313.3963680836945,[],"[768, 432]",ColorTask,1.0,1.0,,,HRV,HRV_0003,2022-11-30 18:25:09
,wl-rdm,9,59370,0.0-6.1-0.1,0.0,10.0,,,,,,,[],,,,,,56.4,1.0,i,1.0,True,1036.0999999046326,59.0,63.0,40.0,False,,329.05747132515313,[],"[768, 432]",ColorTask,2.0,2.0,,,HRV,HRV_0003,2022-11-30 18:25:09
,wl-rdm,10,61361,0.0-6.2-0.2,0.0,11.0,,,,,,,[],,,,,,73.6,0.0,u,0.0,True,652.5,42.0,63.0,40.0,False,,267.81855797105777,[],"[768, 432]",ColorTask,3.0,3.0,,,HRV,HRV_0003,2022-11-30 18:25:09
,wl-rdm,11,63730,0.0-6.3-0.3,0.0,12.0,,,,,,,[],,,,,,56.4,0.0,u,0.0,True,908.9000000953674,56.0,63.0,40.0,False,,398.0398268572942,[],"[768, 432]",ColorTask,4.0,4.0,,,HRV,HRV_0003,2022-11-30 18:25:09
,wl-rdm,12,66138,0.0-6.4-0.4,0.0,13.0,,,,,,,[],,,,,,50.0,0.0,u,0.0,True,933.5,55.0,63.0,40.0,False,,395.3975343135787,[],"[768, 432]",ColorTask,5.0,5.0,,,HRV,HRV_0003,2022-11-30 18:25:09
,wl-rdm,13,68167,0.0-6.5-0.5,0.0,14.0,,,,,,,[],,,,,,87.9,1.0,i,1.0,True,637.4000000953674,38.0,63.0,40.0,False,,342.512886610352,[],"[768, 432]",ColorTask,6.0,6.0,,,HRV,HRV_0003,2022-11-30 18:25:09
,wl-rdm,14,70529,0.0-6.6-0.6,0.0,15.0,,,,,,,[],,,,,,73.6,0.0,u,0.0,True,973.0,59.0,63.0,40.0,False,,307.8287782227075,[],"[768, 432]",ColorTask,7.0,7.0,,,HRV,HRV_0003,2022-11-30 18:25:09
,wl-rdm,15,72800,0.0-6.7-0.7,0.0,16.0,,,,,,,[],,,,,,50.0,0.0,u,0.0,True,978.8999998569489,63.0,63.0,40.0,False,,226.99050396919543,[],"[768, 432]",ColorTask,8.0,8.0,,,HRV,HRV_0003,2022-11-30 18:25:09
,wl-rdm,16,75230,0.0-6.8-0.8,0.0,17.0,,,,,,,[],,,,,,56.4,0.0,u,0.0,True,984.0999999046326,58.0,63.0,40.0,False,,392.24453885088764,[],"[768, 432]",ColorTask,9.0,9.0,,,HRV,HRV_0003,2022-11-30 18:25:09
,wl-rdm,17,77395,0.0-6.9-0.9,0.0,18.0,,,,,,,[],,,,,,62.5,0.0,u,0.0,True,704.3999998569489,44.0,63.0,40.0,False,,393.9297921066084,[],"[768, 432]",ColorTask,10.0,10.0,,,HRV,HRV_0003,2022-11-30 18:25:09
,wl-rdm,18,79293,0.0-6.10-0.10,0.0,19.0,,,,,,,[],,,,,,87.9,0.0,u,0.0,True,618.4000000953674,35.0,63.0,40.0,False,,232.5191775964353,[],"[768, 432]",ColorTask,11.0,11.0,,,HRV,HRV_0003,2022-11-30 18:25:09
,wl-rdm,19,81468,0.0-6.11-0.11,0.0,20.0,,,,,,,[],,,,,,73.6,1.0,i,1.0,True,708.9000000953674,42.0,63.0,40.0,False,,395.3841515683042,[],"[768, 432]",ColorTask,12.0,12.0,,,HRV,HRV_0003,2022-11-30 18:25:09
,wl-rdm,20,83745,0.0-6.12-0.12,0.0,21.0,,,,,,,[],,,,,,50.0,1.0,i,1.0,True,915.0,47.0,63.0,40.0,False,,300.895337575739,[],"[768, 432]",ColorTask,13.0,13.0,,,HRV,HRV_0003,2022-11-30 18:25:09
,wl-rdm,21,85790,0.0-6.13-0.13,0.0,22.0,,,,,,,[],,,,,,87.9,1.0,i,1.0,True,645.3999998569489,29.0,63.0,40.0,False,,294.00102170634153,[],"[768, 432]",ColorTask,14.0,14.0,,,HRV,HRV_0003,2022-11-30 18:25:09
,wl-rdm,22,88142,0.0-6.14-0.14,0.0,23.0,,,,,,,[],,,,,,73.6,1.0,i,1.0,True,954.7000000476837,60.0,63.0,40.0,False,,301.3039091442441,[],"[768, 432]",ColorTask,15.0,15.0,,,HRV,HRV_0003,2022-11-30 18:25:09
,wl-rdm,23,90169,0.0-6.15-0.15,0.0,24.0,,,,,,,[],,,,,,87.9,1.0,i,1.0,True,619.4000000953674,39.0,63.0,40.0,False,,355.7985050040031,[],"[768, 432]",ColorTask,16.0,16.0,,,HRV,HRV_0003,2022-11-30 18:25:09
,wl-rdm,24,92385,0.0-6.16-0.16,0.0,25.0,,,,,,,[],,,,,,56.4,1.0,i,1.0,True,884.6999998092651,40.0,63.0,40.0,False,,248.64632153293962,[],"[768, 432]",ColorTask,17.0,17.0,,,HRV,HRV_0003,2022-11-30 18:25:09
,wl-rdm,25,94441,0.0-6.17-0.17,0.0,26.0,,,,,,,[],,,,,,62.5,0.0,u,0.0,True,609.5999999046326,38.0,63.0,40.0,False,,369.6042958821066,[],"[768, 432]",ColorTask,18.0,18.0,,,HRV,HRV_0003,2022-11-30 18:25:09
,wl-rdm,26,96582,0.0-6.18-0.18,0.0,27.0,,,,,,,[],,,,,,56.4,1.0,u,0.0,False,809.4000000953674,50.0,63.0,40.0,False,,270.9468774154433,[],"[768, 432]",ColorTask,17.0,19.0,,,HRV,HRV_0003,2022-11-30 18:25:09
,wl-rdm,27,98679,0.0-6.19-0.19,0.0,28.0,,,,,,,[],,,,,,87.9,0.0,u,0.0,True,722.7999999523163,46.0,63.0,40.0,False,,309.7394655345791,[],"[768, 432]",ColorTask,18.0,20.0,,,HRV,HRV_0003,2022-11-30 18:25:09
,wl-rdm,28,101486,0.0-6.20-0.20,0.0,29.0,,,,,,,[],,,,,,56.4,0.0,u,0.0,True,1444.6999998092651,86.0,63.0,40.0,False,,287.42695147590143,[],"[768, 432]",ColorTask,19.0,21.0,,,HRV,HRV_0003,2022-11-30 18:25:09
,wl-rdm,29,103780,0.0-6.21-0.21,0.0,30.0,,,,,,,[],,,,,,62.5,1.0,i,1.0,True,865.0,45.0,63.0,40.0,False,,351.23354134548197,[],"[768, 432]",ColorTask,20.0,22.0,,,HRV,HRV_0003,2022-11-30 18:25:09
,wl-rdm,30,106192,0.0-6.22-0.22,0.0,31.0,,,,,,,[],,,,,,53.2,0.0,i,1.0,False,1074.1999998092651,64.0,63.0,40.0,False,,277.8096280895181,[],"[768, 432]",ColorTask,19.0,23.0,,,HRV,HRV_0003,2022-11-30 18:25:09
,wl-rdm,31,108134,0.0-6.23-0.23,0.0,32.0,,,,,,,[],,,,,,87.9,1.0,i,1.0,True,551.8000001907349,36.0,63.0,40.0,False,,323.7267170639441,[],"[768, 432]",ColorTask,20.0,24.0,,,HRV,HRV_0003,2022-11-30 18:25:09
,wl-rdm,32,110284,0.0-6.24-0.24,0.0,33.0,,,,,,,[],,,,,,73.6,1.0,i,1.0,True,748.5,45.0,63.0,40.0,False,,285.48508830708863,[],"[768, 432]",ColorTask,21.0,25.0,,,HRV,HRV_0003,2022-11-30 18:25:09
,wl-rdm,33,112137,0.0-6.25-0.25,0.0,34.0,,,,,,,[],,,,,,73.6,1.0,i,1.0,True,552.4000000953674,34.0,63.0,40.0,False,,218.83433129445615,[],"[768, 432]",ColorTask,22.0,26.0,,,HRV,HRV_0003,2022-11-30 18:25:09
,wl-rdm,34,114042,0.0-6.26-0.26,0.0,35.0,,,,,,,[],,,,,,56.4,1.0,u,0.0,False,515.0000002384186,32.0,63.0,40.0,False,,320.3285273844464,[],"[768, 432]",ColorTask,21.0,27.0,,,HRV,HRV_0003,2022-11-30 18:25:09
,wl-rdm,35,116372,0.0-6.27-0.27,0.0,36.0,,,,,,,[],,,,,,50.0,1.0,u,0.0,False,1048.1999998092651,62.0,63.0,40.0,False,,213.7167044841298,[],"[768, 432]",ColorTask,20.0,28.0,,,HRV,HRV_0003,2022-11-30 18:25:09
,wl-rdm,36,118623,0.0-6.28-0.28,0.0,37.0,,,,,,,[],,,,,,56.4,1.0,i,1.0,True,961.3999998569489,62.0,63.0,40.0,False,,240.92727587037075,[],"[768, 432]",ColorTask,21.0,29.0,,,HRV,HRV_0003,2022-11-30 18:25:09
,wl-rdm,37,121277,0.0-6.29-0.29,0.0,38.0,,,,,,,[],,,,,,56.4,0.0,i,1.0,False,1272.5999999046326,76.0,63.0,40.0,False,,320.8346728385535,[],"[768, 432]",ColorTask,20.0,30.0,,,HRV,HRV_0003,2022-11-30 18:25:09
,wl-rdm,38,123839,0.0-6.30-0.30,0.0,39.0,,,,,,,[],,,,,,50.0,0.0,u,0.0,True,1293.7000000476837,81.0,63.0,40.0,False,,217.54919360422375,[],"[768, 432]",ColorTask,21.0,31.0,,,HRV,HRV_0003,2022-11-30 18:25:09
,wl-rdm,39,125980,0.0-6.31-0.31,0.0,40.0,,,,,,,[],,,,,,56.4,1.0,i,1.0,True,766.4000000953674,47.0,63.0,40.0,False,,305.3316154753885,[],"[768, 432]",ColorTask,22.0,32.0,,,HRV,HRV_0003,2022-11-30 18:25:09
,wl-rdm,40,127917,0.0-6.32-0.32,0.0,41.0,,,,,,,[],,,,,,87.9,0.0,u,0.0,True,568.6000001430511,32.0,63.0,40.0,False,,308.7888416394887,[],"[768, 432]",ColorTask,23.0,33.0,,,HRV,HRV_0003,2022-11-30 18:25:09
,wl-rdm,41,129964,0.0-6.33-0.33,0.0,42.0,,,,,,,[],,,,,,73.6,1.0,i,1.0,True,603.5000002384186,38.0,63.0,40.0,False,,365.2932572817796,[],"[768, 432]",ColorTask,24.0,34.0,,,HRV,HRV_0003,2022-11-30 18:25:09
,wl-rdm,42,131942,0.0-6.34-0.34,0.0,43.0,,,,,,,[],,,,,,73.6,0.0,i,1.0,False,685.5999999046326,42.0,63.0,40.0,False,,227.3765354955481,[],"[768, 432]",ColorTask,23.0,35.0,,,HRV,HRV_0003,2022-11-30 18:25:09
,wl-rdm,43,134673,0.0-6.35-0.35,0.0,44.0,,,,,,,[],,,,,,62.5,1.0,i,1.0,True,1372.5999999046326,84.0,63.0,40.0,False,,291.77959641230603,[],"[768, 432]",ColorTask,24.0,36.0,,,HRV,HRV_0003,2022-11-30 18:25:09
,wl-rdm,44,136621,0.0-6.36-0.36,0.0,45.0,,,,,,,[],,,,,,73.6,0.0,u,0.0,True,647.0999999046326,35.0,63.0,40.0,False,,206.04333689912636,[],"[768, 432]",ColorTask,25.0,37.0,,,HRV,HRV_0003,2022-11-30 18:25:09
,wl-rdm,45,139359,0.0-6.37-0.37,0.0,46.0,,,,,,,[],,,,,,50.0,0.0,i,1.0,False,1247.0999999046326,77.0,63.0,40.0,False,,398.0574660866524,[],"[768, 432]",ColorTask,24.0,38.0,,,HRV,HRV_0003,2022-11-30 18:25:09
,wl-rdm,46,141939,0.0-6.38-0.38,0.0,47.0,,,,,,,[],,,,,,53.2,1.0,i,1.0,True,1246.2999999523163,75.0,63.0,40.0,False,,265.90686124718735,[],"[768, 432]",ColorTask,25.0,39.0,,,HRV,HRV_0003,2022-11-30 18:25:09
,wl-rdm,47,144129,0.0-6.39-0.39,0.0,48.0,,,,,,,[],,,,,,53.2,1.0,i,1.0,True,837.4000000953674,47.0,63.0,40.0,False,,293.1951392127455,[],"[768, 432]",ColorTask,26.0,40.0,,,HRV,HRV_0003,2022-11-30 18:25:09
,wl-rdm,48,146152,0.0-6.40-0.40,0.0,49.0,,,,,,,[],,,,,,62.5,0.0,u,0.0,True,596.8999998569489,37.0,63.0,40.0,False,,359.10346004066764,[],"[768, 432]",ColorTask,27.0,41.0,,,HRV,HRV_0003,2022-11-30 18:25:09
,wl-rdm,49,148143,0.0-6.41-0.41,0.0,50.0,,,,,,,[],,,,,,62.5,0.0,u,0.0,True,696.5000002384186,40.0,63.0,40.0,False,,214.1237510726164,[],"[768, 432]",ColorTask,28.0,42.0,,,HRV,HRV_0003,2022-11-30 18:25:09
,wl-rdm,50,150223,0.0-6.42-0.42,0.0,51.0,,,,,,,[],,,,,,73.6,1.0,i,1.0,True,658.7000000476837,42.0,63.0,40.0,False,,366.7035118206375,[],"[768, 432]",ColorTask,29.0,43.0,,,HRV,HRV_0003,2022-11-30 18:25:09
,wl-rdm,51,152406,0.0-6.43-0.43,0.0,52.0,,,,,,,[],,,,,,62.5,1.0,i,1.0,True,761.2999999523163,43.0,63.0,40.0,False,,356.03032368271124,[],"[768, 432]",ColorTask,30.0,44.0,,,HRV,HRV_0003,2022-11-30 18:25:09
,wl-rdm,52,154214,0.0-6.44-0.44,0.0,53.0,,,,,,,[],,,,,,73.6,0.0,u,0.0,True,536.2999999523163,34.0,63.0,40.0,False,,204.34427557015914,[],"[768, 432]",ColorTask,31.0,45.0,,,HRV,HRV_0003,2022-11-30 18:25:09
,wl-rdm,53,156325,0.0-6.45-0.45,0.0,54.0,,,,,,,[],,,,,,73.6,1.0,i,1.0,True,666.9000000953674,39.0,63.0,40.0,False,,374.54105038610066,[],"[768, 432]",ColorTask,32.0,46.0,,,HRV,HRV_0003,2022-11-30 18:25:09
,wl-rdm,54,158555,0.0-6.46-0.46,0.0,55.0,,,,,,,[],,,,,,53.2,1.0,u,0.0,False,771.7000002861023,46.0,63.0,40.0,False,,386.066977774218,[],"[768, 432]",ColorTask,31.0,47.0,,,HRV,HRV_0003,2022-11-30 18:25:09
,wl-rdm,55,160599,0.0-6.47-0.47,0.0,56.0,,,,,,,[],,,,,,56.4,1.0,i,1.0,True,739.6000001430511,41.0,63.0,40.0,False,,225.45104967322968,[],"[768, 432]",ColorTask,32.0,48.0,,,HRV,HRV_0003,2022-11-30 18:25:09
,wl-rdm,56,162566,0.0-6.48-0.48,0.0,57.0,,,,,,,[],,,,,,73.6,1.0,i,1.0,True,654.3000001907349,41.0,63.0,40.0,False,,252.18860353456066,[],"[768, 432]",ColorTask,33.0,49.0,,,HRV,HRV_0003,2022-11-30 18:25:09
,wl-rdm,57,164436,0.0-6.49-0.49,0.0,58.0,,,,,,,[],,,,,,87.9,1.0,i,1.0,True,604.2999999523163,29.0,63.0,40.0,False,,214.2259436563016,[],"[768, 432]",ColorTask,34.0,50.0,,,HRV,HRV_0003,2022-11-30 18:25:09
,wl-rdm,58,166344,0.0-6.50-0.50,0.0,59.0,,,,,,,[],,,,,,87.9,1.0,i,1.0,True,585.3999998569489,26.0,63.0,40.0,False,,266.1390176205715,[],"[768, 432]",ColorTask,35.0,51.0,,,HRV,HRV_0003,2022-11-30 18:25:09
,wl-rdm,59,168503,0.0-6.51-0.51,0.0,60.0,,,,,,,[],,,,,,50.0,1.0,u,0.0,False,757.7999999523163,44.0,63.0,40.0,False,,334.0642074061161,[],"[768, 432]",ColorTask,34.0,52.0,,,HRV,HRV_0003,2022-11-30 18:25:09
,wl-rdm,60,170723,0.0-6.52-0.52,0.0,61.0,,,,,,,[],,,,,,73.6,0.0,u,0.0,True,779.5999999046326,44.0,63.0,40.0,False,,383.89070422165594,[],"[768, 432]",ColorTask,35.0,53.0,,,HRV,HRV_0003,2022-11-30 18:25:09
,wl-rdm,61,173327,0.0-6.53-0.53,0.0,62.0,,,,,,,[],,,,,,53.2,1.0,u,0.0,False,1343.6000001430511,78.0,63.0,40.0,False,,201.2656253666622,[],"[768, 432]",ColorTask,34.0,54.0,,,HRV,HRV_0003,2022-11-30 18:25:09
,wl-rdm,62,175328,0.0-6.54-0.54,0.0,63.0,,,,,,,[],,,,,,87.9,0.0,u,0.0,True,653.0999999046326,33.0,63.0,40.0,False,,299.6851890672531,[],"[768, 432]",ColorTask,35.0,55.0,,,HRV,HRV_0003,2022-11-30 18:25:09
,wl-rdm,63,177293,0.0-6.55-0.55,0.0,64.0,,,,,,,[],,,,,,87.9,0.0,u,0.0,True,615.9999997615814,38.0,63.0,40.0,False,,263.31544929365305,[],"[768, 432]",ColorTask,36.0,56.0,,,HRV,HRV_0003,2022-11-30 18:25:09
,wl-rdm,64,179674,0.0-6.56-0.56,0.0,65.0,,,,,,,[],,,,,,62.5,0.0,i,1.0,False,1111.0999999046326,66.0,63.0,40.0,False,,215.05544600727396,[],"[768, 432]",ColorTask,35.0,57.0,,,HRV,HRV_0003,2022-11-30 18:25:09
,wl-rdm,65,181842,0.0-6.57-0.57,0.0,66.0,,,,,,,[],,,,,,53.2,1.0,u,0.0,False,857.2000000476837,50.0,63.0,40.0,False,,237.65585775996698,[],"[768, 432]",ColorTask,34.0,58.0,,,HRV,HRV_0003,2022-11-30 18:25:09
,wl-rdm,66,184611,0.0-6.58-0.58,0.0,67.0,,,,,,,[],,,,,,53.2,0.0,u,0.0,True,1465.7999999523163,85.0,63.0,40.0,False,,223.40023374147677,[],"[768, 432]",ColorTask,35.0,59.0,,,HRV,HRV_0003,2022-11-30 18:25:09
,wl-rdm,67,187522,0.0-6.59-0.59,0.0,68.0,,,,,,,[],,,,,,56.4,0.0,u,0.0,True,1498.6999998092651,90.0,63.0,40.0,False,,351.2027038424536,[],"[768, 432]",ColorTask,36.0,60.0,,,HRV,HRV_0003,2022-11-30 18:25:09
,wl-rdm,68,189855,0.0-6.60-0.60,0.0,69.0,,,,,,,[],,,,,,56.4,0.0,u,0.0,True,1060.5,62.0,63.0,40.0,False,,207.90347483940698,[],"[768, 432]",ColorTask,37.0,61.0,,,HRV,HRV_0003,2022-11-30 18:25:09
,wl-rdm,69,191820,0.0-6.61-0.61,0.0,70.0,,,,,,,[],,,,,,87.9,0.0,u,0.0,True,607.5,36.0,63.0,40.0,False,,286.2890587977049,[],"[768, 432]",ColorTask,38.0,62.0,,,HRV,HRV_0003,2022-11-30 18:25:09
,wl-rdm,70,193748,0.0-6.62-0.62,0.0,71.0,,,,,,,[],,,,,,73.6,0.0,u,0.0,True,607.9999997615814,37.0,63.0,40.0,False,,235.4676048719137,[],"[768, 432]",ColorTask,39.0,63.0,,,HRV,HRV_0003,2022-11-30 18:25:09
,wl-rdm,71,195754,0.0-6.63-0.63,0.0,72.0,,,,,,,[],,,,,,50.0,0.0,u,0.0,True,716.0999999046326,34.0,63.0,40.0,False,,223.3846411271947,[],"[768, 432]",ColorTask,40.0,64.0,,,HRV,HRV_0003,2022-11-30 18:25:09
,wl-rdm,72,197721,0.0-6.64-0.64,0.0,73.0,,,,,,,[],,,,,,56.4,0.0,u,0.0,True,640.5,40.0,63.0,40.0,False,,258.84039529141506,[],"[768, 432]",ColorTask,41.0,65.0,,,HRV,HRV_0003,2022-11-30 18:25:09
,wl-rdm,73,199616,0.0-6.65-0.65,0.0,74.0,,,,,,,[],,,,,,53.2,0.0,u,0.0,True,607.6000001430511,38.0,63.0,40.0,False,,225.6944740411649,[],"[768, 432]",ColorTask,42.0,66.0,,,HRV,HRV_0003,2022-11-30 18:25:09
,wl-rdm,74,201888,0.0-6.66-0.66,0.0,75.0,,,,,,,[],,,,,,53.2,1.0,u,0.0,False,811.2999999523163,46.0,63.0,40.0,False,,398.2593513385167,[],"[768, 432]",ColorTask,41.0,67.0,,,HRV,HRV_0003,2022-11-30 18:25:09
,wl-rdm,75,204339,0.0-6.67-0.67,0.0,76.0,,,,,,,[],,,,,,50.0,1.0,i,1.0,True,1025.2000000476837,62.0,63.0,40.0,False,,313.5560338079107,[],"[768, 432]",ColorTask,42.0,68.0,,,HRV,HRV_0003,2022-11-30 18:25:09
,wl-rdm,76,206364,0.0-6.68-0.68,0.0,77.0,,,,,,,[],,,,,,53.2,0.0,i,1.0,False,557.9000000953674,35.0,63.0,40.0,False,,383.411260853453,[],"[768, 432]",ColorTask,41.0,69.0,,,HRV,HRV_0003,2022-11-30 18:25:09
,wl-rdm,77,209059,0.0-6.69-0.69,0.0,78.0,,,,,,,[],,,,,,50.0,1.0,i,1.0,True,1398.1000001430511,80.0,63.0,40.0,False,,230.224567790044,[],"[768, 432]",ColorTask,42.0,70.0,,,HRV,HRV_0003,2022-11-30 18:25:09
,wl-rdm,78,211136,0.0-6.70-0.70,0.0,79.0,,,,,,,[],,,,,,62.5,1.0,i,1.0,True,741.3000001907349,44.0,63.0,40.0,False,,276.32990169705073,[],"[768, 432]",ColorTask,43.0,71.0,,,HRV,HRV_0003,2022-11-30 18:25:09
,wl-rdm,79,213177,0.0-6.71-0.71,0.0,80.0,,,,,,,[],,,,,,53.2,0.0,u,0.0,True,768.0999999046326,32.0,63.0,40.0,False,,203.02275309383796,[],"[768, 432]",ColorTask,44.0,72.0,,,HRV,HRV_0003,2022-11-30 18:25:09
,wl-rdm,80,215597,0.0-6.72-0.72,0.0,81.0,,,,,,,[],,,,,,53.2,0.0,u,0.0,True,1076.8999998569489,63.0,63.0,40.0,False,,287.5122707449681,[],"[768, 432]",ColorTask,45.0,73.0,,,HRV,HRV_0003,2022-11-30 18:25:09
,wl-rdm,81,217707,0.0-6.73-0.73,0.0,82.0,,,,,,,[],,,,,,62.5,1.0,i,1.0,True,670.5,38.0,63.0,40.0,False,,378.87156419585466,[],"[768, 432]",ColorTask,46.0,74.0,,,HRV,HRV_0003,2022-11-30 18:25:09
,wl-rdm,82,219731,0.0-6.74-0.74,0.0,83.0,,,,,,,[],,,,,,87.9,1.0,i,1.0,True,583.4999997615814,36.0,63.0,40.0,False,,334.3142589739035,[],"[768, 432]",ColorTask,47.0,75.0,,,HRV,HRV_0003,2022-11-30 18:25:09
,wl-rdm,83,222362,0.0-6.75-0.75,0.0,84.0,,,,,,,[],,,,,,53.2,0.0,i,1.0,False,1308.5000002384186,84.0,63.0,40.0,False,,247.05084506485213,[],"[768, 432]",ColorTask,46.0,76.0,,,HRV,HRV_0003,2022-11-30 18:25:09
,wl-rdm,84,224693,0.0-6.76-0.76,0.0,85.0,,,,,,,[],,,,,,50.0,0.0,u,0.0,True,962.0000002384186,57.0,63.0,40.0,False,,294.448763301896,[],"[768, 432]",ColorTask,47.0,77.0,,,HRV,HRV_0003,2022-11-30 18:25:09
,wl-rdm,85,227038,0.0-6.77-0.77,0.0,86.0,,,,,,,[],,,,,,53.2,1.0,u,0.0,False,985.5000002384186,43.0,63.0,40.0,False,,297.1390657180633,[],"[768, 432]",ColorTask,46.0,78.0,,,HRV,HRV_0003,2022-11-30 18:25:09
,wl-rdm,86,229756,0.0-6.78-0.78,0.0,87.0,,,,,,,[],,,,,,62.5,0.0,u,0.0,True,1284.5999999046326,74.0,63.0,40.0,False,,360.11439188287875,[],"[768, 432]",ColorTask,47.0,79.0,,,HRV,HRV_0003,2022-11-30 18:25:09
,wl-rdm,87,231663,0.0-6.79-0.79,0.0,88.0,,,,,,,[],,,,,,87.9,1.0,i,1.0,True,633.0999999046326,31.0,63.0,40.0,False,,204.96601023567405,[],"[768, 432]",ColorTask,48.0,80.0,,,HRV,HRV_0003,2022-11-30 18:25:09
,wl-rdm,88,234167,0.0-6.80-0.80,0.0,89.0,,,,,,,[],,,,,,56.4,0.0,u,0.0,True,1161.6000001430511,68.0,63.0,40.0,False,,293.2328334619451,[],"[768, 432]",ColorTask,49.0,81.0,,,HRV,HRV_0003,2022-11-30 18:25:09
,wl-rdm,89,236568,0.0-6.81-0.81,0.0,90.0,,,,,,,[],,,,,,62.5,0.0,u,0.0,True,1061.7000002861023,66.0,63.0,40.0,False,,256.00791937719805,[],"[768, 432]",ColorTask,50.0,82.0,,,HRV,HRV_0003,2022-11-30 18:25:09
,wl-rdm,90,238668,0.0-6.82-0.82,0.0,91.0,,,,,,,[],,,,,,50.0,1.0,i,1.0,True,825.9999997615814,37.0,63.0,40.0,False,,218.06530228850409,[],"[768, 432]",ColorTask,51.0,83.0,,,HRV,HRV_0003,2022-11-30 18:25:09
,wl-rdm,91,240640,0.0-6.83-0.83,0.0,92.0,,,,,,,[],,,,,,87.9,0.0,u,0.0,True,638.1999998092651,40.0,63.0,40.0,False,,269.5073053792353,[],"[768, 432]",ColorTask,52.0,84.0,,,HRV,HRV_0003,2022-11-30 18:25:09
,wl-rdm,92,242743,0.0-6.84-0.84,0.0,93.0,,,,,,,[],,,,,,53.2,1.0,i,1.0,True,771.5,37.0,63.0,40.0,False,,268.27062110795407,[],"[768, 432]",ColorTask,53.0,85.0,,,HRV,HRV_0003,2022-11-30 18:25:09
,wl-rdm,93,244706,0.0-6.85-0.85,0.0,94.0,,,,,,,[],,,,,,62.5,1.0,u,0.0,False,651.8000001907349,31.0,63.0,40.0,False,,228.87473900225203,[],"[768, 432]",ColorTask,52.0,86.0,,,HRV,HRV_0003,2022-11-30 18:25:09
,wl-rdm,94,247312,0.0-6.86-0.86,0.0,95.0,,,,,,,[],,,,,,53.2,0.0,u,0.0,True,1319.1999998092651,75.0,63.0,40.0,False,,240.0634031097591,[],"[768, 432]",ColorTask,53.0,87.0,,,HRV,HRV_0003,2022-11-30 18:25:09
,wl-rdm,95,249493,0.0-6.87-0.87,0.0,96.0,,,,,,,[],,,,,,50.0,1.0,u,0.0,False,885.5999999046326,43.0,63.0,40.0,False,,209.49654815986207,[],"[768, 432]",ColorTask,52.0,88.0,,,HRV,HRV_0003,2022-11-30 18:25:09
,wl-rdm,96,251465,0.0-6.88-0.88,0.0,97.0,,,,,,,[],,,,,,87.9,1.0,i,1.0,True,616.3000001907349,38.0,63.0,40.0,False,,297.0639639826016,[],"[768, 432]",ColorTask,53.0,89.0,,,HRV,HRV_0003,2022-11-30 18:25:09
,wl-rdm,97,253686,0.0-6.89-0.89,0.0,98.0,,,,,,,[],,,,,,62.5,0.0,u,0.0,True,886.2000000476837,56.0,63.0,40.0,False,,277.0178213735817,[],"[768, 432]",ColorTask,54.0,90.0,,,HRV,HRV_0003,2022-11-30 18:25:09
,wl-rdm,98,255931,0.0-6.90-0.90,0.0,99.0,,,,,,,[],,,,,,62.5,1.0,i,1.0,True,953.9999997615814,57.0,63.0,40.0,False,,222.8155377281685,[],"[768, 432]",ColorTask,55.0,91.0,,,HRV,HRV_0003,2022-11-30 18:25:09
,wl-rdm,99,258083,0.0-6.91-0.91,0.0,100.0,,,,,,,[],,,,,,62.5,1.0,i,1.0,True,695.9000000953674,40.0,63.0,40.0,False,,385.0698229451748,[],"[768, 432]",ColorTask,56.0,92.0,,,HRV,HRV_0003,2022-11-30 18:25:09
,wl-rdm,100,260216,0.0-6.92-0.92,0.0,101.0,,,,,,,[],,,,,,62.5,0.0,u,0.0,True,828.7000002861023,44.0,63.0,40.0,False,,256.037090536081,[],"[768, 432]",ColorTask,57.0,93.0,,,HRV,HRV_0003,2022-11-30 18:25:09
,wl-rdm,101,262521,0.0-6.93-0.93,0.0,102.0,,,,,,,[],,,,,,50.0,1.0,u,0.0,False,1007.9000000953674,63.0,63.0,40.0,False,,215.17488915163065,[],"[768, 432]",ColorTask,56.0,94.0,,,HRV,HRV_0003,2022-11-30 18:25:09
,wl-rdm,102,264776,0.0-6.94-0.94,0.0,103.0,,,,,,,[],,,,,,73.6,0.0,u,0.0,True,798.3999998569489,51.0,63.0,40.0,False,,372.88261191611383,[],"[768, 432]",ColorTask,57.0,95.0,,,HRV,HRV_0003,2022-11-30 18:25:09
,wl-rdm,103,267152,0.0-6.95-0.95,0.0,104.0,,,,,,,[],,,,,,50.0,0.0,u,0.0,True,974.5,58.0,63.0,40.0,False,,328.0373820281783,[],"[768, 432]",ColorTask,58.0,96.0,,,HRV,HRV_0003,2022-11-30 18:25:09
,wl-rdm,104,269158,0.0-6.96-0.96,0.0,105.0,,,,,,,[],,,,,,73.6,1.0,i,1.0,True,663.8999998569489,34.0,63.0,40.0,False,,237.13600574771488,[],"[768, 432]",ColorTask,59.0,97.0,,,HRV,HRV_0003,2022-11-30 18:25:09
,wl-rdm,105,271085,0.0-6.97-0.97,0.0,106.0,,,,,,,[],,,,,,73.6,0.0,u,0.0,True,586.3999998569489,34.0,63.0,40.0,False,,278.0425399056004,[],"[768, 432]",ColorTask,60.0,98.0,,,HRV,HRV_0003,2022-11-30 18:25:09
,wl-rdm,106,273601,0.0-6.98-0.98,0.0,107.0,,,,,,,[],,,,,,50.0,0.0,u,0.0,True,1129.4000000953674,70.0,63.0,40.0,False,,321.3941306357637,[],"[768, 432]",ColorTask,61.0,99.0,,,HRV,HRV_0003,2022-11-30 18:25:09
,wl-rdm,107,275527,0.0-6.99-0.99,0.0,108.0,,,,,,,[],,,,,,87.9,0.0,u,0.0,True,641.7000000476837,41.0,63.0,40.0,False,,214.62120240810626,[],"[768, 432]",ColorTask,62.0,100.0,,,HRV,HRV_0003,2022-11-30 18:25:09
,wl-rdm,108,277777,0.0-6.100-0.100,0.0,109.0,,,,,,,[],,,,,,50.0,1.0,i,1.0,True,957.3000001907349,56.0,63.0,40.0,False,,228.78918356481958,[],"[768, 432]",ColorTask,63.0,101.0,,,HRV,HRV_0003,2022-11-30 18:25:09
,wl-rdm,109,279873,0.0-6.101-0.101,0.0,110.0,,,,,,,[],,,,,,53.2,0.0,u,0.0,True,828.2000000476837,53.0,63.0,40.0,False,,212.17520271831592,[],"[768, 432]",ColorTask,64.0,102.0,,,HRV,HRV_0003,2022-11-30 18:25:09
,wl-rdm,110,282796,0.0-6.102-0.102,0.0,111.0,,,,,,,[],,,,,,50.0,0.0,u,0.0,True,1510.3999998569489,91.0,63.0,40.0,False,,338.8967810626611,[],"[768, 432]",ColorTask,65.0,103.0,,,HRV,HRV_0003,2022-11-30 18:25:09
,wl-rdm,111,284791,0.0-6.103-0.103,0.0,112.0,,,,,,,[],,,,,,87.9,0.0,u,0.0,True,614.2000002861023,31.0,63.0,40.0,False,,287.29804676008905,[],"[768, 432]",ColorTask,66.0,104.0,,,HRV,HRV_0003,2022-11-30 18:25:09
,wl-rdm,112,286803,0.0-6.104-0.104,0.0,113.0,,,,,,,[],,,,,,62.5,1.0,i,1.0,True,698.0999999046326,43.0,63.0,40.0,False,,255.73582366129173,[],"[768, 432]",ColorTask,67.0,105.0,,,HRV,HRV_0003,2022-11-30 18:25:09
,wl-rdm,113,289128,0.0-6.105-0.105,0.0,114.0,,,,,,,[],,,,,,56.4,1.0,i,1.0,True,1018.2999999523163,65.0,63.0,40.0,False,,255.8490448872911,[],"[768, 432]",ColorTask,68.0,106.0,,,HRV,HRV_0003,2022-11-30 18:25:09
,wl-rdm,114,291351,0.0-6.106-0.106,0.0,115.0,,,,,,,[],,,,,,53.2,1.0,i,1.0,True,824.5,47.0,63.0,40.0,False,,331.6047177276916,[],"[768, 432]",ColorTask,69.0,107.0,,,HRV,HRV_0003,2022-11-30 18:25:09
,wl-rdm,115,293527,0.0-6.107-0.107,0.0,116.0,,,,,,,[],,,,,,56.4,1.0,u,0.0,False,753.2000000476837,46.0,63.0,40.0,False,,346.39384957991683,[],"[768, 432]",ColorTask,68.0,108.0,,,HRV,HRV_0003,2022-11-30 18:25:09
,wl-html-keyboard-response,116,300908,0.0-7.0-0.0,1.0,117.0,,,,,,,,5363.099999904633,1.0,0,,,,,,,,,,,,,,,,,,,,,,HRV,HRV_0003,2022-11-30 18:25:09
,wl-rdm,117,303246,0.0-8.0-0.0,1.0,118.0,,,,,,,[],,,,,,62.5,0.0,u,0.0,True,1069.2999999523163,67.0,63.0,40.0,False,,214.62083341484546,[],"[768, 432]",ColorTask,69.0,1.0,,,HRV,HRV_0003,2022-11-30 18:25:09
,wl-rdm,118,305615,0.0-8.1-0.1,1.0,119.0,,,,,,,[],,,,,,53.2,1.0,u,0.0,False,1048.1000001430511,60.0,63.0,40.0,False,,243.86310419894676,[],"[768, 432]",ColorTask,68.0,2.0,,,HRV,HRV_0003,2022-11-30 18:25:09
,wl-rdm,119,308371,0.0-8.2-0.2,1.0,120.0,,,,,,,[],,,,,,56.4,0.0,u,0.0,True,1309.0000002384186,84.0,63.0,40.0,False,,381.3036886818579,[],"[768, 432]",ColorTask,69.0,3.0,,,HRV,HRV_0003,2022-11-30 18:25:09
,wl-rdm,120,310409,0.0-8.3-0.3,1.0,121.0,,,,,,,[],,,,,,73.6,1.0,i,1.0,True,656.0,40.0,63.0,40.0,False,,295.3881752219149,[],"[768, 432]",ColorTask,70.0,4.0,,,HRV,HRV_0003,2022-11-30 18:25:09
,wl-rdm,121,312902,0.0-8.4-0.4,1.0,122.0,,,,,,,[],,,,,,50.0,1.0,i,1.0,True,1226.5,73.0,63.0,40.0,False,,210.1954400187867,[],"[768, 432]",ColorTask,71.0,5.0,,,HRV,HRV_0003,2022-11-30 18:25:09
,wl-rdm,122,314847,0.0-8.5-0.5,1.0,123.0,,,,,,,[],,,,,,87.9,0.0,u,0.0,True,585.2999999523163,31.0,63.0,40.0,False,,285.32183527961837,[],"[768, 432]",ColorTask,72.0,6.0,,,HRV,HRV_0003,2022-11-30 18:25:09
,wl-rdm,123,317277,0.0-8.6-0.6,1.0,124.0,,,,,,,[],,,,,,56.4,0.0,i,1.0,False,1072.3000001907349,50.0,63.0,40.0,False,,295.013651790054,[],"[768, 432]",ColorTask,71.0,7.0,,,HRV,HRV_0003,2022-11-30 18:25:09
,wl-rdm,124,319359,0.0-8.7-0.7,1.0,125.0,,,,,,,[],,,,,,73.6,1.0,i,1.0,True,783.9000000953674,43.0,63.0,40.0,False,,224.43571678654337,[],"[768, 432]",ColorTask,72.0,8.0,,,HRV,HRV_0003,2022-11-30 18:25:09
,wl-rdm,125,321918,0.0-8.8-0.8,1.0,126.0,,,,,,,[],,,,,,53.2,0.0,u,0.0,True,1156.9999997615814,53.0,63.0,40.0,False,,338.43994149651087,[],"[768, 432]",ColorTask,73.0,9.0,,,HRV,HRV_0003,2022-11-30 18:25:09
,wl-rdm,126,324466,0.0-8.9-0.9,1.0,127.0,,,,,,,[],,,,,,53.2,0.0,u,0.0,True,1267.6999998092651,75.0,63.0,40.0,False,,219.24870945137826,[],"[768, 432]",ColorTask,74.0,10.0,,,HRV,HRV_0003,2022-11-30 18:25:09
,wl-rdm,127,326501,0.0-8.10-0.10,1.0,128.0,,,,,,,[],,,,,,50.0,0.0,i,1.0,False,661.8000001907349,41.0,63.0,40.0,False,,305.49000815142733,[],"[768, 432]",ColorTask,73.0,11.0,,,HRV,HRV_0003,2022-11-30 18:25:09
,wl-rdm,128,328400,0.0-8.11-0.11,1.0,129.0,,,,,,,[],,,,,,73.6,1.0,i,1.0,True,627.7000000476837,39.0,63.0,40.0,False,,212.65105010293465,[],"[768, 432]",ColorTask,74.0,12.0,,,HRV,HRV_0003,2022-11-30 18:25:09
,wl-rdm,129,330370,0.0-8.12-0.12,1.0,130.0,,,,,,,[],,,,,,73.6,1.0,i,1.0,True,630.5,37.0,63.0,40.0,False,,275.605796058644,[],"[768, 432]",ColorTask,75.0,13.0,,,HRV,HRV_0003,2022-11-30 18:25:09
,wl-rdm,130,332489,0.0-8.13-0.13,1.0,131.0,,,,,,,[],,,,,,53.2,1.0,i,1.0,True,773.0,44.0,63.0,40.0,False,,285.6596124779148,[],"[768, 432]",ColorTask,76.0,14.0,,,HRV,HRV_0003,2022-11-30 18:25:09
,wl-rdm,131,334555,0.0-8.14-0.14,1.0,132.0,,,,,,,[],,,,,,53.2,0.0,u,0.0,True,790.6999998092651,45.0,63.0,40.0,False,,207.39699921133897,[],"[768, 432]",ColorTask,77.0,15.0,,,HRV,HRV_0003,2022-11-30 18:25:09
,wl-rdm,132,336550,0.0-8.15-0.15,1.0,133.0,,,,,,,[],,,,,,73.6,1.0,i,1.0,True,640.0,36.0,63.0,40.0,False,,281.6621617389088,[],"[768, 432]",ColorTask,78.0,16.0,,,HRV,HRV_0003,2022-11-30 18:25:09
,wl-rdm,133,338475,0.0-8.16-0.16,1.0,134.0,,,,,,,[],,,,,,87.9,0.0,u,0.0,True,489.09999990463257,32.0,63.0,40.0,False,,360.69999197914393,[],"[768, 432]",ColorTask,79.0,17.0,,,HRV,HRV_0003,2022-11-30 18:25:09
,wl-rdm,134,340589,0.0-8.17-0.17,1.0,135.0,,,,,,,[],,,,,,62.5,1.0,i,1.0,True,639.5999999046326,39.0,63.0,40.0,False,,382.36641536557977,[],"[768, 432]",ColorTask,80.0,18.0,,,HRV,HRV_0003,2022-11-30 18:25:09
,wl-rdm,135,342805,0.0-8.18-0.18,1.0,136.0,,,,,,,[],,,,,,50.0,0.0,i,1.0,False,876.6000001430511,55.0,63.0,40.0,False,,279.672599963798,[],"[768, 432]",ColorTask,79.0,19.0,,,HRV,HRV_0003,2022-11-30 18:25:09
,wl-rdm,136,345137,0.0-8.19-0.19,1.0,137.0,,,,,,,[],,,,,,56.4,1.0,u,0.0,False,971.5,51.0,63.0,40.0,False,,299.0461080868715,[],"[768, 432]",ColorTask,78.0,20.0,,,HRV,HRV_0003,2022-11-30 18:25:09
,wl-rdm,137,348048,0.0-8.20-0.20,1.0,138.0,,,,,,,[],,,,,,50.0,1.0,u,0.0,False,1571.7999999523163,90.0,63.0,40.0,False,,207.79375498271378,[],"[768, 432]",ColorTask,77.0,21.0,,,HRV,HRV_0003,2022-11-30 18:25:09
,wl-rdm,138,349984,0.0-8.21-0.21,1.0,139.0,,,,,,,[],,,,,,87.9,1.0,i,1.0,True,609.0999999046326,38.0,63.0,40.0,False,,258.90080894265367,[],"[768, 432]",ColorTask,78.0,22.0,,,HRV,HRV_0003,2022-11-30 18:25:09
,wl-rdm,139,352429,0.0-8.22-0.22,1.0,140.0,,,,,,,[],,,,,,50.0,0.0,i,1.0,False,1120.6999998092651,64.0,63.0,40.0,False,,246.55819055131622,[],"[768, 432]",ColorTask,77.0,23.0,,,HRV,HRV_0003,2022-11-30 18:25:09
,wl-rdm,140,355268,0.0-8.23-0.23,1.0,141.0,,,,,,,[],,,,,,62.5,1.0,i,1.0,True,1563.2999997138977,89.0,63.0,40.0,False,,219.96786916700478,[],"[768, 432]",ColorTask,78.0,24.0,,,HRV,HRV_0003,2022-11-30 18:25:09
,wl-rdm,141,357235,0.0-8.24-0.24,1.0,142.0,,,,,,,[],,,,,,73.6,1.0,i,1.0,True,700.3999998569489,40.0,63.0,40.0,False,,203.69846950797194,[],"[768, 432]",ColorTask,79.0,25.0,,,HRV,HRV_0003,2022-11-30 18:25:09
,wl-rdm,142,359285,0.0-8.25-0.25,1.0,143.0,,,,,,,[],,,,,,87.9,1.0,i,1.0,True,613.9999997615814,39.0,63.0,40.0,False,,363.4023051928974,[],"[768, 432]",ColorTask,80.0,26.0,,,HRV,HRV_0003,2022-11-30 18:25:09
,wl-rdm,143,361951,0.0-8.26-0.26,1.0,144.0,,,,,,,[],,,,,,56.4,1.0,u,0.0,False,1198.5999999046326,62.0,63.0,40.0,False,,347.8984957183298,[],"[768, 432]",ColorTask,79.0,27.0,,,HRV,HRV_0003,2022-11-30 18:25:09
,wl-rdm,144,364535,0.0-8.27-0.27,1.0,145.0,,,,,,,[],,,,,,50.0,0.0,i,1.0,False,1280.2000000476837,74.0,63.0,40.0,False,,232.39405112830002,[],"[768, 432]",ColorTask,78.0,28.0,,,HRV,HRV_0003,2022-11-30 18:25:09
,wl-rdm,145,367506,0.0-8.28-0.28,1.0,146.0,,,,,,,[],,,,,,53.2,0.0,u,0.0,True,1569.6000001430511,94.0,63.0,40.0,False,,329.4208815917674,[],"[768, 432]",ColorTask,79.0,29.0,,,HRV,HRV_0003,2022-11-30 18:25:09
,wl-rdm,146,369841,0.0-8.29-0.29,1.0,147.0,,,,,,,[],,,,,,56.4,0.0,u,0.0,True,892.8000001907349,48.0,63.0,40.0,False,,381.06980930101486,[],"[768, 432]",ColorTask,80.0,30.0,,,HRV,HRV_0003,2022-11-30 18:25:09
,wl-rdm,147,372091,0.0-8.30-0.30,1.0,148.0,,,,,,,[],,,,,,56.4,1.0,i,1.0,True,981.2999999523163,57.0,63.0,40.0,False,,200.03200304316428,[],"[768, 432]",ColorTask,81.0,31.0,,,HRV,HRV_0003,2022-11-30 18:25:09
,wl-rdm,148,374085,0.0-8.31-0.31,1.0,149.0,,,,,,,[],,,,,,62.5,0.0,u,0.0,True,668.0999999046326,42.0,63.0,40.0,False,,267.39828232097716,[],"[768, 432]",ColorTask,82.0,32.0,,,HRV,HRV_0003,2022-11-30 18:25:09
,wl-rdm,149,376421,0.0-8.32-0.32,1.0,150.0,,,,,,,[],,,,,,53.2,1.0,i,1.0,True,996.4000000953674,60.0,63.0,40.0,False,,273.1647141046841,[],"[768, 432]",ColorTask,83.0,33.0,,,HRV,HRV_0003,2022-11-30 18:25:09
,wl-rdm,150,378536,0.0-8.33-0.33,1.0,151.0,,,,,,,[],,,,,,73.6,0.0,u,0.0,True,753.0000002384186,45.0,63.0,40.0,False,,240.81915591970082,[],"[768, 432]",ColorTask,84.0,34.0,,,HRV,HRV_0003,2022-11-30 18:25:09
,wl-rdm,151,380574,0.0-8.34-0.34,1.0,152.0,,,,,,,[],,,,,,56.4,1.0,u,0.0,False,707.9999997615814,39.0,63.0,40.0,False,,280.460891914114,[],"[768, 432]",ColorTask,83.0,35.0,,,HRV,HRV_0003,2022-11-30 18:25:09
,wl-rdm,152,383328,0.0-8.35-0.35,1.0,153.0,,,,,,,[],,,,,,53.2,1.0,u,0.0,False,1318.2999999523163,73.0,63.0,40.0,False,,358.5592974878551,[],"[768, 432]",ColorTask,82.0,36.0,,,HRV,HRV_0003,2022-11-30 18:25:09
,wl-rdm,153,385422,0.0-8.36-0.36,1.0,154.0,,,,,,,[],,,,,,73.6,0.0,u,0.0,True,816.0999999046326,52.0,63.0,40.0,False,,202.5756523733583,[],"[768, 432]",ColorTask,83.0,37.0,,,HRV,HRV_0003,2022-11-30 18:25:09
,wl-rdm,154,387966,0.0-8.37-0.37,1.0,155.0,,,,,,,[],,,,,,56.4,1.0,i,1.0,True,1239.1000001430511,77.0,63.0,40.0,False,,238.81343961769784,[],"[768, 432]",ColorTask,84.0,38.0,,,HRV,HRV_0003,2022-11-30 18:25:09
,wl-rdm,155,390203,0.0-8.38-0.38,1.0,156.0,,,,,,,[],,,,,,62.5,1.0,i,1.0,True,767.7999999523163,46.0,63.0,40.0,False,,396.343475366236,[],"[768, 432]",ColorTask,85.0,39.0,,,HRV,HRV_0003,2022-11-30 18:25:09
,wl-rdm,156,392408,0.0-8.39-0.39,1.0,157.0,,,,,,,[],,,,,,50.0,1.0,i,1.0,True,832.9000000953674,52.0,63.0,40.0,False,,283.7493098656267,[],"[768, 432]",ColorTask,86.0,40.0,,,HRV,HRV_0003,2022-11-30 18:25:09
,wl-rdm,157,394747,0.0-8.40-0.40,1.0,158.0,,,,,,,[],,,,,,62.5,1.0,i,1.0,True,952.1000001430511,51.0,63.0,40.0,False,,310.97037301235804,[],"[768, 432]",ColorTask,87.0,41.0,,,HRV,HRV_0003,2022-11-30 18:25:09
,wl-rdm,158,397405,0.0-8.41-0.41,1.0,159.0,,,,,,,[],,,,,,53.2,0.0,u,0.0,True,1222.7000000476837,73.0,63.0,40.0,False,,351.368800876907,[],"[768, 432]",ColorTask,88.0,42.0,,,HRV,HRV_0003,2022-11-30 18:25:09
,wl-rdm,159,399418,0.0-8.42-0.42,1.0,160.0,,,,,,,[],,,,,,87.9,0.0,u,0.0,True,685.5,35.0,63.0,40.0,False,,260.61583280113757,[],"[768, 432]",ColorTask,89.0,43.0,,,HRV,HRV_0003,2022-11-30 18:25:09
,wl-rdm,160,401667,0.0-8.43-0.43,1.0,161.0,,,,,,,[],,,,,,50.0,1.0,u,0.0,False,783.7000002861023,48.0,63.0,40.0,False,,393.57901753151225,[],"[768, 432]",ColorTask,88.0,44.0,,,HRV,HRV_0003,2022-11-30 18:25:09
,wl-rdm,161,404057,0.0-8.44-0.44,1.0,162.0,,,,,,,[],,,,,,62.5,1.0,i,1.0,True,990.0,57.0,63.0,40.0,False,,304.5195955257612,[],"[768, 432]",ColorTask,89.0,45.0,,,HRV,HRV_0003,2022-11-30 18:25:09
,wl-rdm,162,406296,0.0-8.45-0.45,1.0,163.0,,,,,,,[],,,,,,62.5,0.0,i,1.0,False,862.1999998092651,42.0,63.0,40.0,False,,308.28593037943966,[],"[768, 432]",ColorTask,88.0,46.0,,,HRV,HRV_0003,2022-11-30 18:25:09
,wl-rdm,163,410073,0.0-8.46-0.46,1.0,164.0,,,,,,,[],,,,,,53.2,1.0,u,0.0,False,2319.4000000953674,134.0,63.0,40.0,False,,382.8406800083602,[],"[768, 432]",ColorTask,87.0,47.0,,,HRV,HRV_0003,2022-11-30 18:25:09
,wl-rdm,164,412058,0.0-8.47-0.47,1.0,165.0,,,,,,,[],,,,,,73.6,1.0,i,1.0,True,721.7999999523163,36.0,63.0,40.0,False,,206.03840705892085,[],"[768, 432]",ColorTask,88.0,48.0,,,HRV,HRV_0003,2022-11-30 18:25:09
,wl-rdm,165,414069,0.0-8.48-0.48,1.0,166.0,,,,,,,[],,,,,,87.9,1.0,i,1.0,True,655.2999999523163,42.0,63.0,40.0,False,,283.5037033149827,[],"[768, 432]",ColorTask,89.0,49.0,,,HRV,HRV_0003,2022-11-30 18:25:09
,wl-rdm,166,416423,0.0-8.49-0.49,1.0,167.0,,,,,,,[],,,,,,50.0,1.0,i,1.0,True,991.5,59.0,63.0,40.0,False,,276.02522627613826,[],"[768, 432]",ColorTask,90.0,50.0,,,HRV,HRV_0003,2022-11-30 18:25:09
,wl-rdm,167,418668,0.0-8.50-0.50,1.0,168.0,,,,,,,[],,,,,,53.2,0.0,i,1.0,False,873.0,50.0,63.0,40.0,False,,308.39509426224305,[],"[768, 432]",ColorTask,89.0,51.0,,,HRV,HRV_0003,2022-11-30 18:25:09
,wl-rdm,168,420645,0.0-8.51-0.51,1.0,169.0,,,,,,,[],,,,,,87.9,1.0,i,1.0,True,694.7999999523163,41.0,63.0,40.0,False,,217.56046453206017,[],"[768, 432]",ColorTask,90.0,52.0,,,HRV,HRV_0003,2022-11-30 18:25:09
,wl-rdm,169,422762,0.0-8.52-0.52,1.0,170.0,,,,,,,[],,,,,,73.6,0.0,u,0.0,True,694.2000002861023,39.0,63.0,40.0,False,,357.9332521152346,[],"[768, 432]",ColorTask,91.0,53.0,,,HRV,HRV_0003,2022-11-30 18:25:09
,wl-rdm,170,424856,0.0-8.53-0.53,1.0,171.0,,,,,,,[],,,,,,56.4,1.0,i,1.0,True,787.6000001430511,43.0,63.0,40.0,False,,216.17555805536242,[],"[768, 432]",ColorTask,92.0,54.0,,,HRV,HRV_0003,2022-11-30 18:25:09
,wl-rdm,171,426816,0.0-8.54-0.54,1.0,172.0,,,,,,,[],,,,,,53.2,1.0,i,1.0,True,539.4999997615814,30.0,63.0,40.0,False,,354.1844949463778,[],"[768, 432]",ColorTask,93.0,55.0,,,HRV,HRV_0003,2022-11-30 18:25:09
,wl-rdm,172,429039,0.0-8.55-0.55,1.0,173.0,,,,,,,[],,,,,,50.0,0.0,i,1.0,False,864.0,41.0,63.0,40.0,False,,290.17778064517245,[],"[768, 432]",ColorTask,92.0,56.0,,,HRV,HRV_0003,2022-11-30 18:25:09
,wl-rdm,173,431194,0.0-8.56-0.56,1.0,174.0,,,,,,,[],,,,,,87.9,0.0,u,0.0,True,763.2000000476837,47.0,63.0,40.0,False,,331.7254142804765,[],"[768, 432]",ColorTask,93.0,57.0,,,HRV,HRV_0003,2022-11-30 18:25:09
,wl-rdm,174,434088,0.0-8.57-0.57,1.0,175.0,,,,,,,[],,,,,,53.2,1.0,u,0.0,False,1539.8999998569489,82.0,63.0,40.0,False,,299.03160157503896,[],"[768, 432]",ColorTask,92.0,58.0,,,HRV,HRV_0003,2022-11-30 18:25:09
,wl-rdm,175,436873,0.0-8.58-0.58,1.0,176.0,,,,,,,[],,,,,,62.5,1.0,i,1.0,True,1528.0999999046326,92.0,63.0,40.0,False,,200.31141146211354,[],"[768, 432]",ColorTask,93.0,59.0,,,HRV,HRV_0003,2022-11-30 18:25:09
,wl-rdm,176,438739,0.0-8.59-0.59,1.0,177.0,,,,,,,[],,,,,,62.5,1.0,i,1.0,True,591.0000002384186,36.0,63.0,40.0,False,,207.90098869569206,[],"[768, 432]",ColorTask,94.0,60.0,,,HRV,HRV_0003,2022-11-30 18:25:09
,wl-rdm,177,441546,0.0-8.60-0.60,1.0,178.0,,,,,,,[],,,,,,50.0,0.0,u,0.0,True,1486.0,79.0,63.0,40.0,False,,255.53220054552494,[],"[768, 432]",ColorTask,95.0,61.0,,,HRV,HRV_0003,2022-11-30 18:25:09
,wl-rdm,178,443973,0.0-8.61-0.61,1.0,179.0,,,,,,,[],,,,,,50.0,1.0,u,0.0,False,1115.5999999046326,70.0,63.0,40.0,False,,227.66889865838277,[],"[768, 432]",ColorTask,94.0,62.0,,,HRV,HRV_0003,2022-11-30 18:25:09
,wl-rdm,179,446734,0.0-8.62-0.62,1.0,180.0,,,,,,,[],,,,,,56.4,0.0,u,0.0,True,1410.0999999046326,89.0,63.0,40.0,False,,279.0697258689517,[],"[768, 432]",ColorTask,95.0,63.0,,,HRV,HRV_0003,2022-11-30 18:25:09
,wl-rdm,180,449285,0.0-8.63-0.63,1.0,181.0,,,,,,,[],,,,,,50.0,1.0,u,0.0,False,1175.2000000476837,68.0,63.0,40.0,False,,324.61268413002557,[],"[768, 432]",ColorTask,94.0,64.0,,,HRV,HRV_0003,2022-11-30 18:25:09
,wl-rdm,181,452160,0.0-8.64-0.64,1.0,182.0,,,,,,,[],,,,,,53.2,1.0,i,1.0,True,1508.5999999046326,92.0,63.0,40.0,False,,290.72583714669804,[],"[768, 432]",ColorTask,95.0,65.0,,,HRV,HRV_0003,2022-11-30 18:25:09
,wl-rdm,182,455046,0.0-8.65-0.65,1.0,183.0,,,,,,,[],,,,,,56.4,0.0,u,0.0,True,1414.6000001430511,84.0,63.0,40.0,False,,387.493944417428,[],"[768, 432]",ColorTask,96.0,66.0,,,HRV,HRV_0003,2022-11-30 18:25:09
,wl-rdm,183,457644,0.0-8.66-0.66,1.0,184.0,,,,,,,[],,,,,,73.6,0.0,u,0.0,True,1150.0,69.0,63.0,40.0,False,,341.7968440423936,[],"[768, 432]",ColorTask,97.0,67.0,,,HRV,HRV_0003,2022-11-30 18:25:09
,wl-rdm,184,459768,0.0-8.67-0.67,1.0,185.0,,,,,,,[],,,,,,87.9,1.0,i,1.0,True,702.2000000476837,44.0,63.0,40.0,False,,349.8281859372984,[],"[768, 432]",ColorTask,98.0,68.0,,,HRV,HRV_0003,2022-11-30 18:25:09
,wl-rdm,185,461702,0.0-8.68-0.68,1.0,186.0,,,,,,,[],,,,,,87.9,0.0,u,0.0,True,632.2999999523163,39.0,63.0,40.0,False,,234.23690465776656,[],"[768, 432]",ColorTask,99.0,69.0,,,HRV,HRV_0003,2022-11-30 18:25:09
,wl-rdm,186,463868,0.0-8.69-0.69,1.0,187.0,,,,,,,[],,,,,,87.9,0.0,u,0.0,True,738.7999999523163,40.0,63.0,40.0,False,,308.7448950101607,[],"[768, 432]",ColorTask,100.0,70.0,,,HRV,HRV_0003,2022-11-30 18:25:09
,wl-rdm,187,465777,0.0-8.70-0.70,1.0,188.0,,,,,,,[],,,,,,87.9,1.0,i,1.0,True,577.3000001907349,34.0,63.0,40.0,False,,235.15832843890874,[],"[768, 432]",ColorTask,101.0,71.0,,,HRV,HRV_0003,2022-11-30 18:25:09
,wl-rdm,188,467793,0.0-8.71-0.71,1.0,189.0,,,,,,,[],,,,,,87.9,0.0,u,0.0,True,728.7000000476837,45.0,63.0,40.0,False,,234.4322098056069,[],"[768, 432]",ColorTask,102.0,72.0,,,HRV,HRV_0003,2022-11-30 18:25:09
,wl-rdm,189,469751,0.0-8.72-0.72,1.0,190.0,,,,,,,[],,,,,,87.9,1.0,i,1.0,True,632.7999999523163,37.0,63.0,40.0,False,,254.22297440931268,[],"[768, 432]",ColorTask,103.0,73.0,,,HRV,HRV_0003,2022-11-30 18:25:09
,wl-rdm,190,472058,0.0-8.73-0.73,1.0,191.0,,,,,,,[],,,,,,62.5,1.0,i,1.0,True,1014.2000000476837,57.0,63.0,40.0,False,,230.55668665973013,[],"[768, 432]",ColorTask,104.0,74.0,,,HRV,HRV_0003,2022-11-30 18:25:09
,wl-rdm,191,474337,0.0-8.74-0.74,1.0,192.0,,,,,,,[],,,,,,53.2,0.0,i,1.0,False,991.5,55.0,63.0,40.0,False,,215.26428101749872,[],"[768, 432]",ColorTask,103.0,75.0,,,HRV,HRV_0003,2022-11-30 18:25:09
,wl-rdm,192,477203,0.0-8.75-0.75,1.0,193.0,,,,,,,[],,,,,,50.0,1.0,i,1.0,True,1402.7999999523163,72.0,63.0,40.0,False,,380.86370793966614,[],"[768, 432]",ColorTask,104.0,76.0,,,HRV,HRV_0003,2022-11-30 18:25:09
,wl-rdm,193,480181,0.0-8.76-0.76,1.0,194.0,,,,,,,[],,,,,,50.0,0.0,i,1.0,False,1563.2000000476837,74.0,63.0,40.0,False,,362.0252609767589,[],"[768, 432]",ColorTask,103.0,77.0,,,HRV,HRV_0003,2022-11-30 18:25:09
,wl-rdm,194,482298,0.0-8.77-0.77,1.0,195.0,,,,,,,[],,,,,,56.4,0.0,u,0.0,True,742.5,41.0,63.0,40.0,False,,304.9387666524862,[],"[768, 432]",ColorTask,104.0,78.0,,,HRV,HRV_0003,2022-11-30 18:25:09
,wl-rdm,195,484508,0.0-8.78-0.78,1.0,196.0,,,,,,,[],,,,,,53.2,0.0,u,0.0,True,910.0,58.0,63.0,40.0,False,,239.9642033462586,[],"[768, 432]",ColorTask,105.0,79.0,,,HRV,HRV_0003,2022-11-30 18:25:09
,wl-rdm,196,487343,0.0-8.79-0.79,1.0,197.0,,,,,,,[],,,,,,62.5,0.0,u,0.0,True,1413.2000000476837,84.0,63.0,40.0,False,,344.5265695375126,[],"[768, 432]",ColorTask,106.0,80.0,,,HRV,HRV_0003,2022-11-30 18:25:09
,wl-rdm,197,489361,0.0-8.80-0.80,1.0,198.0,,,,,,,[],,,,,,73.6,0.0,u,0.0,True,664.7000000476837,41.0,63.0,40.0,False,,276.3893327529802,[],"[768, 432]",ColorTask,107.0,81.0,,,HRV,HRV_0003,2022-11-30 18:25:09
,wl-rdm,198,491367,0.0-8.81-0.81,1.0,199.0,,,,,,,[],,,,,,73.6,0.0,u,0.0,True,698.5999999046326,35.0,63.0,40.0,False,,223.56099441246764,[],"[768, 432]",ColorTask,108.0,82.0,,,HRV,HRV_0003,2022-11-30 18:25:09
,wl-rdm,199,493500,0.0-8.82-0.82,1.0,200.0,,,,,,,[],,,,,,73.6,1.0,i,1.0,True,814.9000000953674,45.0,63.0,40.0,False,,239.99867731632543,[],"[768, 432]",ColorTask,109.0,83.0,,,HRV,HRV_0003,2022-11-30 18:25:09
,wl-rdm,200,495652,0.0-8.83-0.83,1.0,201.0,,,,,,,[],,,,,,62.5,0.0,u,0.0,True,856.9000000953674,52.0,63.0,40.0,False,,237.42503630011475,[],"[768, 432]",ColorTask,110.0,84.0,,,HRV,HRV_0003,2022-11-30 18:25:09
,wl-rdm,201,498170,0.0-8.84-0.84,1.0,202.0,,,,,,,[],,,,,,56.4,0.0,u,0.0,True,1140.5,66.0,63.0,40.0,False,,325.1368908369817,[],"[768, 432]",ColorTask,111.0,85.0,,,HRV,HRV_0003,2022-11-30 18:25:09
,wl-rdm,202,500269,0.0-8.85-0.85,1.0,203.0,,,,,,,[],,,,,,87.9,1.0,i,1.0,True,666.1999998092651,38.0,63.0,40.0,False,,367.3439619568747,[],"[768, 432]",ColorTask,112.0,86.0,,,HRV,HRV_0003,2022-11-30 18:25:09
,wl-rdm,203,502654,0.0-8.86-0.86,1.0,204.0,,,,,,,[],,,,,,50.0,0.0,u,0.0,True,1061.1999998092651,58.0,63.0,40.0,False,,246.26904965366526,[],"[768, 432]",ColorTask,113.0,87.0,,,HRV,HRV_0003,2022-11-30 18:25:09
,wl-rdm,204,505046,0.0-8.87-0.87,1.0,205.0,,,,,,,[],,,,,,73.6,0.0,u,0.0,True,935.2999999523163,50.0,63.0,40.0,False,,379.60633813709484,[],"[768, 432]",ColorTask,114.0,88.0,,,HRV,HRV_0003,2022-11-30 18:25:09
,wl-rdm,205,507709,0.0-8.88-0.88,1.0,206.0,,,,,,,[],,,,,,56.4,1.0,i,1.0,True,1358.3999998569489,72.0,63.0,40.0,False,,244.81247348980793,[],"[768, 432]",ColorTask,115.0,89.0,,,HRV,HRV_0003,2022-11-30 18:25:09
,wl-rdm,206,509889,0.0-8.89-0.89,1.0,207.0,,,,,,,[],,,,,,73.6,0.0,u,0.0,True,853.7000000476837,50.0,63.0,40.0,False,,264.146561519889,[],"[768, 432]",ColorTask,116.0,90.0,,,HRV,HRV_0003,2022-11-30 18:25:09
,wl-rdm,207,511987,0.0-8.90-0.90,1.0,208.0,,,,,,,[],,,,,,62.5,0.0,u,0.0,True,679.5000002384186,40.0,63.0,40.0,False,,357.67676198544893,[],"[768, 432]",ColorTask,117.0,91.0,,,HRV,HRV_0003,2022-11-30 18:25:09
,wl-rdm,208,514683,0.0-8.91-0.91,1.0,209.0,,,,,,,[],,,,,,53.2,0.0,u,0.0,True,1406.6999998092651,88.0,63.0,40.0,False,,211.9406724689081,[],"[768, 432]",ColorTask,118.0,92.0,,,HRV,HRV_0003,2022-11-30 18:25:09
,wl-rdm,209,516749,0.0-8.92-0.92,1.0,210.0,,,,,,,[],,,,,,73.6,1.0,i,1.0,True,784.7999999523163,46.0,63.0,40.0,False,,226.0644830257978,[],"[768, 432]",ColorTask,119.0,93.0,,,HRV,HRV_0003,2022-11-30 18:25:09
,wl-rdm,210,519313,0.0-8.93-0.93,1.0,211.0,,,,,,,[],,,,,,73.6,0.0,u,0.0,True,1201.8999998569489,58.0,63.0,40.0,False,,297.05952105570606,[],"[768, 432]",ColorTask,120.0,94.0,,,HRV,HRV_0003,2022-11-30 18:25:09
,wl-rdm,211,521474,0.0-8.94-0.94,1.0,212.0,,,,,,,[],,,,,,87.9,0.0,u,0.0,True,733.7000000476837,44.0,63.0,40.0,False,,327.3821153558123,[],"[768, 432]",ColorTask,121.0,95.0,,,HRV,HRV_0003,2022-11-30 18:25:09
,wl-rdm,212,524385,0.0-8.95-0.95,1.0,213.0,,,,,,,[],,,,,,56.4,0.0,u,0.0,True,1579.7999999523163,96.0,63.0,40.0,False,,247.27294056721001,[],"[768, 432]",ColorTask,122.0,96.0,,,HRV,HRV_0003,2022-11-30 18:25:09
,wl-rdm,213,526496,0.0-8.96-0.96,1.0,214.0,,,,,,,[],,,,,,62.5,0.0,u,0.0,True,756.6000001430511,45.0,63.0,40.0,False,,286.55778756862463,[],"[768, 432]",ColorTask,123.0,97.0,,,HRV,HRV_0003,2022-11-30 18:25:09
,wl-rdm,214,528825,0.0-8.97-0.97,1.0,215.0,,,,,,,[],,,,,,56.4,1.0,i,1.0,True,990.9999997615814,64.0,63.0,40.0,False,,280.35864694835584,[],"[768, 432]",ColorTask,124.0,98.0,,,HRV,HRV_0003,2022-11-30 18:25:09
,wl-rdm,215,530761,0.0-8.98-0.98,1.0,216.0,,,,,,,[],,,,,,87.9,1.0,i,1.0,True,594.0,35.0,63.0,40.0,False,,265.5937248336496,[],"[768, 432]",ColorTask,125.0,99.0,,,HRV,HRV_0003,2022-11-30 18:25:09
,wl-rdm,216,533121,0.0-8.99-0.99,1.0,217.0,,,,,,,[],,,,,,56.4,0.0,u,0.0,True,993.0999999046326,55.0,63.0,40.0,False,,310.0951208905344,[],"[768, 432]",ColorTask,126.0,100.0,,,HRV,HRV_0003,2022-11-30 18:25:09
,wl-rdm,217,535260,0.0-8.100-0.100,1.0,218.0,,,,,,,[],,,,,,62.5,0.0,u,0.0,True,696.0,41.0,63.0,40.0,False,,375.18874054454864,[],"[768, 432]",ColorTask,127.0,101.0,,,HRV,HRV_0003,2022-11-30 18:25:09
,wl-rdm,218,537483,0.0-8.101-0.101,1.0,219.0,,,,,,,[],,,,,,53.2,1.0,i,1.0,True,859.7000000476837,55.0,63.0,40.0,False,,305.75494345636923,[],"[768, 432]",ColorTask,128.0,102.0,,,HRV,HRV_0003,2022-11-30 18:25:09
,wl-rdm,219,539875,0.0-8.102-0.102,1.0,220.0,,,,,,,[],,,,,,50.0,1.0,i,1.0,True,1107.6999998092651,71.0,63.0,40.0,False,,229.07956023499477,[],"[768, 432]",ColorTask,129.0,103.0,,,HRV,HRV_0003,2022-11-30 18:25:09
,wl-rdm,220,542270,0.0-8.103-0.103,1.0,221.0,,,,,,,[],,,,,,62.5,1.0,i,1.0,True,1134.6999998092651,67.0,63.0,40.0,False,,201.43045352973257,[],"[768, 432]",ColorTask,130.0,104.0,,,HRV,HRV_0003,2022-11-30 18:25:09
,wl-rdm,221,544933,0.0-8.104-0.104,1.0,222.0,,,,,,,[],,,,,,50.0,0.0,u,0.0,True,1377.3999998569489,87.0,63.0,40.0,False,,214.49574571875215,[],"[768, 432]",ColorTask,131.0,105.0,,,HRV,HRV_0003,2022-11-30 18:25:09
,wl-rdm,222,547183,0.0-8.105-0.105,1.0,223.0,,,,,,,[],,,,,,87.9,0.0,u,0.0,True,808.5999999046326,51.0,63.0,40.0,False,,387.7629442508053,[],"[768, 432]",ColorTask,132.0,106.0,,,HRV,HRV_0003,2022-11-30 18:25:09
,wl-rdm,223,549699,0.0-8.106-0.106,1.0,224.0,,,,,,,[],,,,,,56.4,1.0,i,1.0,True,1089.7000000476837,66.0,63.0,40.0,False,,356.92197854942674,[],"[768, 432]",ColorTask,133.0,107.0,,,HRV,HRV_0003,2022-11-30 18:25:09
,wl-rdm,224,552326,0.0-8.107-0.107,1.0,225.0,,,,,,,[],,,,,,62.5,0.0,u,0.0,True,1250.5,76.0,63.0,40.0,False,,319.3154318613162,[],"[768, 432]",ColorTask,134.0,108.0,,,HRV,HRV_0003,2022-11-30 18:25:09
,wl-html-button-response,225,554633,0.0-9.0-0.0,,,,,,,,,,2297.9000000953674,,0,,,,,,,,,,,,,,,,,,,,<h3>End of this session. Thank you!</h3><br>,['Close window'],HRV,HRV_0003,2022-11-30 18:25:09
