trialN,stimuli,trialStartTime,trialStartTime_UNIX,stimulus1,stimulus2,stimulus1Bid,stimulus2Bid,delta,selected,rt,rt_UNIX,rt_perfnow,receivedResponse,rsp,trialEndTime,trialDuration,trialEndTime_UNIX,trialDuration_UNIX,exp,subjectId,date
0,"[{'imgObject': {}, 'id': 'ice cream sundae 002', 'src': '/static/foodstim60/ice cream sundae 002.jpg', 'key': 'u', 'origWidth': 409, 'origHeight': 409, 'width': 409, 'height': 409, 'widthPercent': 0.45, 'rescaleHeight': False, 'trialN': 0, 'loaded': True, 'loadedTime': 2331.2999999821186, 'positionName': 'LEFT', 'positionCoords': [512.6, 335.5], 'bid': 4.45}, {'imgObject': {}, 'id': 'grilled chicken strips', 'src': '/static/foodstim60/grilled chicken strips.jpg', 'key': 'i', 'origWidth': 410, 'origHeight': 411, 'width': 410, 'height': 411, 'widthPercent': 0.45, 'rescaleHeight': False, 'trialN': 0, 'loaded': True, 'loadedTime': 2412.7999999821186, 'positionName': 'RIGHT', 'positionCoords': [998.4, 334.5], 'bid': 4.54}]",2551.399999976158,1669830127955,ice cream sundae 002,grilled chicken strips,4.45,4.54,0.08999999999999986,ice cream sundae 002,1536.0,1536,1536.5,True,u,4605.799999982119,2054.4000000059605,1669830130009,2054,HRV,HRV_0007,2022-11-30 17:47:10
1,"[{'imgObject': {}, 'id': 'blueberries', 'src': '/static/foodstim60/blueberries.jpg', 'key': 'u', 'origWidth': 411, 'origHeight': 411, 'width': 411, 'height': 411, 'widthPercent': 0.45, 'rescaleHeight': False, 'trialN': 1, 'loaded': True, 'loadedTime': 2421.5, 'positionName': 'LEFT', 'positionCoords': [510.6, 334.5], 'bid': 3.29}, {'imgObject': {}, 'id': 'raspberries', 'src': '/static/foodstim60/raspberries.jpg', 'key': 'i', 'origWidth': 411, 'origHeight': 411, 'width': 411, 'height': 411, 'widthPercent': 0.45, 'rescaleHeight': False, 'trialN': 1, 'loaded': True, 'loadedTime': 2423, 'positionName': 'RIGHT', 'positionCoords': [998.4, 334.5], 'bid': 3.82}]",4605.899999976158,1669830130009,blueberries,raspberries,3.29,3.82,0.5299999999999998,blueberries,1657.4000000059605,1658,1657.800000011921,True,u,6769.0999999940395,2163.2000000178814,1669830132173,2164,HRV,HRV_0007,2022-11-30 17:47:10
2,"[{'imgObject': {}, 'id': 'orange slices', 'src': '/static/foodstim60/orange slices.jpg', 'key': 'u', 'origWidth': 409, 'origHeight': 410, 'width': 409, 'height': 410, 'widthPercent': 0.45, 'rescaleHeight': False, 'trialN': 2, 'loaded': True, 'loadedTime': 2423.5999999940395, 'positionName': 'LEFT', 'positionCoords': [512.6, 335], 'bid': 1.81}, {'imgObject': {}, 'id': 'mac & cheese', 'src': '/static/foodstim60/mac & cheese.jpg', 'key': 'i', 'origWidth': 410, 'origHeight': 410, 'width': 410, 'height': 410, 'widthPercent': 0.45, 'rescaleHeight': False, 'trialN': 2, 'loaded': True, 'loadedTime': 2424.5999999940395, 'positionName': 'RIGHT', 'positionCoords': [998.4, 335], 'bid': 4.44}]",6769.299999982119,1669830132173,orange slices,mac & cheese,1.81,4.44,2.6300000000000003,mac & cheese,1710.5,1710,1710.7000000178814,True,i,8994.59999999404,2225.300000011921,1669830134398,2225,HRV,HRV_0007,2022-11-30 17:47:10
3,"[{'imgObject': {}, 'id': 'Grapes', 'src': '/static/foodstim60/Grapes.jpg', 'key': 'u', 'origWidth': 411, 'origHeight': 411, 'width': 411, 'height': 411, 'widthPercent': 0.45, 'rescaleHeight': False, 'trialN': 3, 'loaded': True, 'loadedTime': 2425.2999999821186, 'positionName': 'LEFT', 'positionCoords': [510.6, 334.5], 'bid': 3.08}, {'imgObject': {}, 'id': 'burrito', 'src': '/static/foodstim60/burrito.jpg', 'key': 'i', 'origWidth': 410, 'origHeight': 410, 'width': 410, 'height': 410, 'widthPercent': 0.45, 'rescaleHeight': False, 'trialN': 3, 'loaded': True, 'loadedTime': 2425.899999976158, 'positionName': 'RIGHT', 'positionCoords': [998.4, 335], 'bid': 3.33}]",8994.899999976158,1669830134398,Grapes,burrito,3.08,3.33,0.25,Grapes,1629.300000011921,1630,1629.6000000238419,True,u,11136.899999976158,2142.0,1669830136540,2142,HRV,HRV_0007,2022-11-30 17:47:10
4,"[{'imgObject': {}, 'id': 'mango', 'src': '/static/foodstim60/mango.jpg', 'key': 'u', 'origWidth': 411, 'origHeight': 411, 'width': 411, 'height': 411, 'widthPercent': 0.45, 'rescaleHeight': False, 'trialN': 4, 'loaded': True, 'loadedTime': 2426.5999999940395, 'positionName': 'LEFT', 'positionCoords': [510.6, 334.5], 'bid': 2.72}, {'imgObject': {}, 'id': 'cheerios', 'src': '/static/foodstim60/cheerios.jpg', 'key': 'i', 'origWidth': 409, 'origHeight': 410, 'width': 409, 'height': 410, 'widthPercent': 0.45, 'rescaleHeight': False, 'trialN': 4, 'loaded': True, 'loadedTime': 2427, 'positionName': 'RIGHT', 'positionCoords': [998.4, 335], 'bid': 5.04}]",11137.299999982119,1669830136541,mango,cheerios,2.72,5.04,2.32,cheerios,901.9000000059605,902,902.0999999940395,True,i,12559.899999976158,1422.5999999940395,1669830137963,1422,HRV,HRV_0007,2022-11-30 17:47:10
5,"[{'imgObject': {}, 'id': 'eggs', 'src': '/static/foodstim60/eggs.jpg', 'key': 'u', 'origWidth': 409, 'origHeight': 409, 'width': 409, 'height': 409, 'widthPercent': 0.45, 'rescaleHeight': False, 'trialN': 5, 'loaded': True, 'loadedTime': 2427.5, 'positionName': 'LEFT', 'positionCoords': [512.6, 335.5], 'bid': 0.72}, {'imgObject': {}, 'id': 'hashbrowns', 'src': '/static/foodstim60/hashbrowns.jpg', 'key': 'i', 'origWidth': 411, 'origHeight': 410, 'width': 411, 'height': 410, 'widthPercent': 0.45, 'rescaleHeight': False, 'trialN': 5, 'loaded': True, 'loadedTime': 2428.199999988079, 'positionName': 'RIGHT', 'positionCoords': [998.4, 335], 'bid': 2.57}]",12560.299999982119,1669830137964,eggs,hashbrowns,0.72,2.57,1.8499999999999999,eggs,2103.0999999940395,2103,2103.2000000178814,True,u,15175.799999982119,2615.5,1669830140579,2615,HRV,HRV_0007,2022-11-30 17:47:10
6,"[{'imgObject': {}, 'id': 'granola w milk', 'src': '/static/foodstim60/granola w milk.jpg', 'key': 'u', 'origWidth': 410, 'origHeight': 410, 'width': 410, 'height': 410, 'widthPercent': 0.45, 'rescaleHeight': False, 'trialN': 6, 'loaded': True, 'loadedTime': 2428.7999999821186, 'positionName': 'LEFT', 'positionCoords': [511.6, 335], 'bid': 5.05}, {'imgObject': {}, 'id': 'froot loops w milk', 'src': '/static/foodstim60/froot loops w milk.jpg', 'key': 'i', 'origWidth': 410, 'origHeight': 410, 'width': 410, 'height': 410, 'widthPercent': 0.45, 'rescaleHeight': False, 'trialN': 6, 'loaded': True, 'loadedTime': 2429.5, 'positionName': 'RIGHT', 'positionCoords': [998.4, 335], 'bid': 5.01}]",15176.0,1669830140580,granola w milk,froot loops w milk,5.05,5.01,-0.040000000000000036,granola w milk,1679.8999999761581,1671,1680.3999999761581,True,u,17361.899999976158,2185.899999976158,1669830142756,2176,HRV,HRV_0007,2022-11-30 17:47:10
7,"[{'imgObject': {}, 'id': 'mango', 'src': '/static/foodstim60/mango.jpg', 'key': 'u', 'origWidth': 411, 'origHeight': 411, 'width': 411, 'height': 411, 'widthPercent': 0.45, 'rescaleHeight': False, 'trialN': 7, 'loaded': True, 'loadedTime': 2426.5, 'positionName': 'LEFT', 'positionCoords': [510.6, 334.5], 'bid': 2.72}, {'imgObject': {}, 'id': 'omelette', 'src': '/static/foodstim60/omelette.jpg', 'key': 'i', 'origWidth': 410, 'origHeight': 409, 'width': 410, 'height': 409, 'widthPercent': 0.45, 'rescaleHeight': False, 'trialN': 7, 'loaded': True, 'loadedTime': 2430.199999988079, 'positionName': 'RIGHT', 'positionCoords': [998.4, 335.5], 'bid': 3.08}]",17362.09999999404,1669830142756,mango,omelette,2.72,3.08,0.3599999999999999,mango,989.0,990,989.1999999880791,True,u,18859.0,1496.9000000059605,1669830144253,1497,HRV,HRV_0007,2022-11-30 17:47:10
8,"[{'imgObject': {}, 'id': 'bagel and cc', 'src': '/static/foodstim60/bagel and cc.jpg', 'key': 'u', 'origWidth': 410, 'origHeight': 410, 'width': 410, 'height': 410, 'widthPercent': 0.45, 'rescaleHeight': False, 'trialN': 8, 'loaded': True, 'loadedTime': 2430.5999999940395, 'positionName': 'LEFT', 'positionCoords': [511.6, 335], 'bid': 9.13}, {'imgObject': {}, 'id': 'sushi w_condiments', 'src': '/static/foodstim60/sushi w_condiments.jpg', 'key': 'i', 'origWidth': 410, 'origHeight': 410, 'width': 410, 'height': 410, 'widthPercent': 0.45, 'rescaleHeight': False, 'trialN': 8, 'loaded': True, 'loadedTime': 2431.199999988079, 'positionName': 'RIGHT', 'positionCoords': [998.4, 335], 'bid': 3.73}]",18859.09999999404,1669830144253,bagel and cc,sushi w_condiments,9.13,3.73,-5.4,bagel and cc,1053.0,1054,1053.4000000059605,True,u,20429.399999976158,1570.2999999821186,1669830145824,1571,HRV,HRV_0007,2022-11-30 17:47:10
9,"[{'imgObject': {}, 'id': 'ice cream sundae 002', 'src': '/static/foodstim60/ice cream sundae 002.jpg', 'key': 'u', 'origWidth': 409, 'origHeight': 409, 'width': 409, 'height': 409, 'widthPercent': 0.45, 'rescaleHeight': False, 'trialN': 9, 'loaded': True, 'loadedTime': 2394.5, 'positionName': 'LEFT', 'positionCoords': [512.6, 335.5], 'bid': 4.45}, {'imgObject': {}, 'id': 'cheerios', 'src': '/static/foodstim60/cheerios.jpg', 'key': 'i', 'origWidth': 409, 'origHeight': 410, 'width': 409, 'height': 410, 'widthPercent': 0.45, 'rescaleHeight': False, 'trialN': 9, 'loaded': True, 'loadedTime': 2427, 'positionName': 'RIGHT', 'positionCoords': [998.4, 335], 'bid': 5.04}]",20429.59999999404,1669830145824,ice cream sundae 002,cheerios,4.45,5.04,0.5899999999999999,ice cream sundae 002,818.6999999880791,819,819.0,True,u,21753.399999976158,1323.7999999821186,1669830147148,1324,HRV,HRV_0007,2022-11-30 17:47:10
10,"[{'imgObject': {}, 'id': 'Tribe humus pita', 'src': '/static/foodstim60/Tribe humus pita.jpg', 'key': 'u', 'origWidth': 411, 'origHeight': 411, 'width': 411, 'height': 411, 'widthPercent': 0.45, 'rescaleHeight': False, 'trialN': 10, 'loaded': True, 'loadedTime': 2432, 'positionName': 'LEFT', 'positionCoords': [510.6, 334.5], 'bid': 3.81}, {'imgObject': {}, 'id': 'strawberries', 'src': '/static/foodstim60/strawberries.jpg', 'key': 'i', 'origWidth': 410, 'origHeight': 410, 'width': 410, 'height': 410, 'widthPercent': 0.45, 'rescaleHeight': False, 'trialN': 10, 'loaded': True, 'loadedTime': 2432.7999999821186, 'positionName': 'RIGHT', 'positionCoords': [998.4, 335], 'bid': 2.48}]",21753.69999998808,1669830147148,Tribe humus pita,strawberries,3.81,2.48,-1.33,strawberries,1549.699999988079,1550,1549.9000000059605,True,i,23821.09999999404,2067.4000000059605,1669830149215,2067,HRV,HRV_0007,2022-11-30 17:47:10
11,"[{'imgObject': {}, 'id': 'corn cob', 'src': '/static/foodstim60/corn cob.jpg', 'key': 'u', 'origWidth': 411, 'origHeight': 411, 'width': 411, 'height': 411, 'widthPercent': 0.45, 'rescaleHeight': False, 'trialN': 11, 'loaded': True, 'loadedTime': 2433.399999976158, 'positionName': 'LEFT', 'positionCoords': [510.6, 334.5], 'bid': 6}, {'imgObject': {}, 'id': 'popsicles', 'src': '/static/foodstim60/popsicles.jpg', 'key': 'i', 'origWidth': 410, 'origHeight': 410, 'width': 410, 'height': 410, 'widthPercent': 0.45, 'rescaleHeight': False, 'trialN': 11, 'loaded': True, 'loadedTime': 2435.5999999940395, 'positionName': 'RIGHT', 'positionCoords': [998.4, 335], 'bid': 3.31}]",23821.29999998212,1669830149216,corn cob,popsicles,6.0,3.31,-2.69,corn cob,866.3000000119209,866,866.8000000119209,True,u,25207.899999976158,1386.5999999940395,1669830150602,1386,HRV,HRV_0007,2022-11-30 17:47:10
12,"[{'imgObject': {}, 'id': 'raisin bran w milk', 'src': '/static/foodstim60/raisin bran w milk.jpg', 'key': 'u', 'origWidth': 411, 'origHeight': 411, 'width': 411, 'height': 411, 'widthPercent': 0.45, 'rescaleHeight': False, 'trialN': 12, 'loaded': True, 'loadedTime': 2441.0999999940395, 'positionName': 'LEFT', 'positionCoords': [510.6, 334.5], 'bid': 4.44}, {'imgObject': {}, 'id': 'blackbeanswithrice', 'src': '/static/foodstim60/blackbeanswithrice.jpg', 'key': 'i', 'origWidth': 410, 'origHeight': 410, 'width': 410, 'height': 410, 'widthPercent': 0.45, 'rescaleHeight': False, 'trialN': 12, 'loaded': True, 'loadedTime': 2446.5, 'positionName': 'RIGHT', 'positionCoords': [998.4, 335], 'bid': 4.3100000000000005}]",25208.0,1669830150602,raisin bran w milk,blackbeanswithrice,4.44,4.3100000000000005,-0.1299999999999999,raisin bran w milk,1576.199999988079,1577,1576.5999999940395,True,u,27301.899999976158,2093.899999976158,1669830152696,2094,HRV,HRV_0007,2022-11-30 17:47:10
13,"[{'imgObject': {}, 'id': 'rigatoni', 'src': '/static/foodstim60/rigatoni.jpg', 'key': 'u', 'origWidth': 411, 'origHeight': 411, 'width': 411, 'height': 411, 'widthPercent': 0.45, 'rescaleHeight': False, 'trialN': 13, 'loaded': True, 'loadedTime': 2452.5, 'positionName': 'LEFT', 'positionCoords': [510.6, 334.5], 'bid': 3.95}, {'imgObject': {}, 'id': 'rigatoni and sauce', 'src': '/static/foodstim60/rigatoni and sauce.jpg', 'key': 'i', 'origWidth': 410, 'origHeight': 411, 'width': 410, 'height': 411, 'widthPercent': 0.45, 'rescaleHeight': False, 'trialN': 13, 'loaded': True, 'loadedTime': 2463.5, 'positionName': 'RIGHT', 'positionCoords': [998.4, 334.5], 'bid': 3.89}]",27302.0,1669830152696,rigatoni,rigatoni and sauce,3.95,3.89,-0.06000000000000005,rigatoni and sauce,1522.2999999821186,1523,1523.0,True,i,29342.19999998808,2040.199999988079,1669830154737,2041,HRV,HRV_0007,2022-11-30 17:47:10
14,"[{'imgObject': {}, 'id': 'popsicles', 'src': '/static/foodstim60/popsicles.jpg', 'key': 'u', 'origWidth': 410, 'origHeight': 410, 'width': 410, 'height': 410, 'widthPercent': 0.45, 'rescaleHeight': False, 'trialN': 14, 'loaded': True, 'loadedTime': 2435.699999988079, 'positionName': 'LEFT', 'positionCoords': [511.6, 335], 'bid': 3.31}, {'imgObject': {}, 'id': 'mango', 'src': '/static/foodstim60/mango.jpg', 'key': 'i', 'origWidth': 411, 'origHeight': 411, 'width': 411, 'height': 411, 'widthPercent': 0.45, 'rescaleHeight': False, 'trialN': 14, 'loaded': True, 'loadedTime': 2426, 'positionName': 'RIGHT', 'positionCoords': [998.4, 334.5], 'bid': 2.72}]",29342.399999976158,1669830154737,popsicles,mango,3.31,2.72,-0.5899999999999999,mango,1112.9000000059605,1113,1113.1000000238419,True,i,30965.29999998212,1622.9000000059605,1669830156360,1623,HRV,HRV_0007,2022-11-30 17:47:10
15,"[{'imgObject': {}, 'id': 'steak', 'src': '/static/foodstim60/steak.jpg', 'key': 'u', 'origWidth': 410, 'origHeight': 410, 'width': 410, 'height': 410, 'widthPercent': 0.45, 'rescaleHeight': False, 'trialN': 15, 'loaded': True, 'loadedTime': 2472.5, 'positionName': 'LEFT', 'positionCoords': [511.6, 335], 'bid': 0.37}, {'imgObject': {}, 'id': 'sweetpotato', 'src': '/static/foodstim60/sweetpotato.jpg', 'key': 'i', 'origWidth': 410, 'origHeight': 410, 'width': 410, 'height': 410, 'widthPercent': 0.45, 'rescaleHeight': False, 'trialN': 15, 'loaded': True, 'loadedTime': 2477, 'positionName': 'RIGHT', 'positionCoords': [998.4, 335], 'bid': 3.82}]",30965.5,1669830156360,steak,sweetpotato,0.37,3.82,3.4499999999999997,sweetpotato,947.6999999880791,948,948.3999999761581,True,i,32422.59999999404,1457.0999999940395,1669830157817,1457,HRV,HRV_0007,2022-11-30 17:47:10
16,"[{'imgObject': {}, 'id': 'Tribe humus pita', 'src': '/static/foodstim60/Tribe humus pita.jpg', 'key': 'u', 'origWidth': 411, 'origHeight': 411, 'width': 411, 'height': 411, 'widthPercent': 0.45, 'rescaleHeight': False, 'trialN': 16, 'loaded': True, 'loadedTime': 2432.0999999940395, 'positionName': 'LEFT', 'positionCoords': [510.6, 334.5], 'bid': 3.81}, {'imgObject': {}, 'id': 'raspberries', 'src': '/static/foodstim60/raspberries.jpg', 'key': 'i', 'origWidth': 411, 'origHeight': 411, 'width': 411, 'height': 411, 'widthPercent': 0.45, 'rescaleHeight': False, 'trialN': 16, 'loaded': True, 'loadedTime': 2422.899999976158, 'positionName': 'RIGHT', 'positionCoords': [998.4, 334.5], 'bid': 3.82}]",32423.0,1669830157817,Tribe humus pita,raspberries,3.81,3.82,0.009999999999999787,raspberries,936.2999999821186,937,936.7999999821186,True,i,33875.69999998808,1452.699999988079,1669830159270,1453,HRV,HRV_0007,2022-11-30 17:47:10
17,"[{'imgObject': {}, 'id': 'luckycharms', 'src': '/static/foodstim60/luckycharms.jpg', 'key': 'u', 'origWidth': 410, 'origHeight': 409, 'width': 410, 'height': 409, 'widthPercent': 0.45, 'rescaleHeight': False, 'trialN': 17, 'loaded': True, 'loadedTime': 2477.0999999940395, 'positionName': 'LEFT', 'positionCoords': [511.6, 335.5], 'bid': 4.8500000000000005}, {'imgObject': {}, 'id': 'blackbeanswithrice', 'src': '/static/foodstim60/blackbeanswithrice.jpg', 'key': 'i', 'origWidth': 410, 'origHeight': 410, 'width': 410, 'height': 410, 'widthPercent': 0.45, 'rescaleHeight': False, 'trialN': 17, 'loaded': True, 'loadedTime': 2447.2999999821186, 'positionName': 'RIGHT', 'positionCoords': [998.4, 335], 'bid': 4.3100000000000005}]",33876.29999998212,1669830159271,luckycharms,blackbeanswithrice,4.8500000000000005,4.3100000000000005,-0.54,luckycharms,1075.5999999940395,1075,1075.9000000059605,True,u,35462.19999998808,1585.9000000059605,1669830160856,1585,HRV,HRV_0007,2022-11-30 17:47:10
18,"[{'imgObject': {}, 'id': 'eggs', 'src': '/static/foodstim60/eggs.jpg', 'key': 'u', 'origWidth': 409, 'origHeight': 409, 'width': 409, 'height': 409, 'widthPercent': 0.45, 'rescaleHeight': False, 'trialN': 18, 'loaded': True, 'loadedTime': 2427.5999999940395, 'positionName': 'LEFT', 'positionCoords': [512.6, 335.5], 'bid': 0.72}, {'imgObject': {}, 'id': 'cocktailshrimp', 'src': '/static/foodstim60/cocktailshrimp.jpg', 'key': 'i', 'origWidth': 410, 'origHeight': 410, 'width': 410, 'height': 410, 'widthPercent': 0.45, 'rescaleHeight': False, 'trialN': 18, 'loaded': True, 'loadedTime': 2485.5999999940395, 'positionName': 'RIGHT', 'positionCoords': [998.4, 335], 'bid': 2.32}]",35462.19999998808,1669830160857,eggs,cocktailshrimp,0.72,2.32,1.5999999999999999,cocktailshrimp,1049.0999999940395,1049,1049.199999988079,True,i,37022.39999997616,1560.199999988079,1669830162417,1560,HRV,HRV_0007,2022-11-30 17:47:10
19,"[{'imgObject': {}, 'id': 'fried eggs', 'src': '/static/foodstim60/fried eggs.jpg', 'key': 'u', 'origWidth': 410, 'origHeight': 410, 'width': 410, 'height': 410, 'widthPercent': 0.45, 'rescaleHeight': False, 'trialN': 19, 'loaded': True, 'loadedTime': 2490.699999988079, 'positionName': 'LEFT', 'positionCoords': [511.6, 335], 'bid': 3.41}, {'imgObject': {}, 'id': 'sweetpotato', 'src': '/static/foodstim60/sweetpotato.jpg', 'key': 'i', 'origWidth': 410, 'origHeight': 410, 'width': 410, 'height': 410, 'widthPercent': 0.45, 'rescaleHeight': False, 'trialN': 19, 'loaded': True, 'loadedTime': 2476.899999976158, 'positionName': 'RIGHT', 'positionCoords': [998.4, 335], 'bid': 3.82}]",37022.59999999404,1669830162417,fried eggs,sweetpotato,3.41,3.82,0.4099999999999997,sweetpotato,961.5999999940395,962,962.0999999940395,True,i,38504.19999998808,1481.5999999940395,1669830163898,1481,HRV,HRV_0007,2022-11-30 17:47:10
20,"[{'imgObject': {}, 'id': 'edamame', 'src': '/static/foodstim60/edamame.jpg', 'key': 'u', 'origWidth': 409, 'origHeight': 410, 'width': 409, 'height': 410, 'widthPercent': 0.45, 'rescaleHeight': False, 'trialN': 20, 'loaded': True, 'loadedTime': 2492.399999976158, 'positionName': 'LEFT', 'positionCoords': [512.6, 335], 'bid': 0.43}, {'imgObject': {}, 'id': 'steak', 'src': '/static/foodstim60/steak.jpg', 'key': 'i', 'origWidth': 410, 'origHeight': 410, 'width': 410, 'height': 410, 'widthPercent': 0.45, 'rescaleHeight': False, 'trialN': 20, 'loaded': True, 'loadedTime': 2472.5999999940395, 'positionName': 'RIGHT', 'positionCoords': [998.4, 335], 'bid': 0.37}]",38504.29999998212,1669830163899,edamame,steak,0.43,0.37,-0.06,edamame,695.7000000178814,696,696.0,True,u,39715.5,1211.2000000178814,1669830165110,1211,HRV,HRV_0007,2022-11-30 17:47:10
21,"[{'imgObject': {}, 'id': 'pear', 'src': '/static/foodstim60/pear.jpg', 'key': 'u', 'origWidth': 411, 'origHeight': 410, 'width': 411, 'height': 410, 'widthPercent': 0.45, 'rescaleHeight': False, 'trialN': 21, 'loaded': True, 'loadedTime': 2495.0999999940395, 'positionName': 'LEFT', 'positionCoords': [510.6, 335], 'bid': 0.59}, {'imgObject': {}, 'id': 'rigatoni', 'src': '/static/foodstim60/rigatoni.jpg', 'key': 'i', 'origWidth': 411, 'origHeight': 411, 'width': 411, 'height': 411, 'widthPercent': 0.45, 'rescaleHeight': False, 'trialN': 21, 'loaded': True, 'loadedTime': 2451.899999976158, 'positionName': 'RIGHT', 'positionCoords': [998.4, 334.5], 'bid': 3.95}]",39715.59999999404,1669830165110,pear,rigatoni,0.59,3.95,3.3600000000000003,pear,1284.4000000059605,1285,1284.9000000059605,True,u,41517.69999998808,1802.0999999940395,1669830166912,1802,HRV,HRV_0007,2022-11-30 17:47:10
22,"[{'imgObject': {}, 'id': 'avocado', 'src': '/static/foodstim60/avocado.jpg', 'key': 'u', 'origWidth': 409, 'origHeight': 409, 'width': 409, 'height': 409, 'widthPercent': 0.45, 'rescaleHeight': False, 'trialN': 22, 'loaded': True, 'loadedTime': 2496, 'positionName': 'LEFT', 'positionCoords': [512.6, 335.5], 'bid': 2.15}, {'imgObject': {}, 'id': 'steak', 'src': '/static/foodstim60/steak.jpg', 'key': 'i', 'origWidth': 410, 'origHeight': 410, 'width': 410, 'height': 410, 'widthPercent': 0.45, 'rescaleHeight': False, 'trialN': 22, 'loaded': True, 'loadedTime': 2467.5, 'positionName': 'RIGHT', 'positionCoords': [998.4, 335], 'bid': 0.37}]",41517.89999997616,1669830166912,avocado,steak,2.15,0.37,-1.7799999999999998,avocado,1002.2000000178814,1003,1002.5,True,u,43039.0,1521.1000000238419,1669830168433,1521,HRV,HRV_0007,2022-11-30 17:47:10
23,"[{'imgObject': {}, 'id': 'ice cream sundae 002', 'src': '/static/foodstim60/ice cream sundae 002.jpg', 'key': 'u', 'origWidth': 409, 'origHeight': 409, 'width': 409, 'height': 409, 'widthPercent': 0.45, 'rescaleHeight': False, 'trialN': 23, 'loaded': True, 'loadedTime': 2399.199999988079, 'positionName': 'LEFT', 'positionCoords': [512.6, 335.5], 'bid': 4.45}, {'imgObject': {}, 'id': 'roastedpotatoes', 'src': '/static/foodstim60/roastedpotatoes.jpg', 'key': 'i', 'origWidth': 409, 'origHeight': 410, 'width': 409, 'height': 410, 'widthPercent': 0.45, 'rescaleHeight': False, 'trialN': 23, 'loaded': True, 'loadedTime': 2499.399999976158, 'positionName': 'RIGHT', 'positionCoords': [998.4, 335], 'bid': 6.59}]",43039.19999998808,1669830168434,ice cream sundae 002,roastedpotatoes,4.45,6.59,2.1399999999999997,roastedpotatoes,745.5,746,746.0,True,i,44289.19999998808,1250.0,1669830169683,1249,HRV,HRV_0007,2022-11-30 17:47:10
24,"[{'imgObject': {}, 'id': 'burrito', 'src': '/static/foodstim60/burrito.jpg', 'key': 'u', 'origWidth': 410, 'origHeight': 410, 'width': 410, 'height': 410, 'widthPercent': 0.45, 'rescaleHeight': False, 'trialN': 24, 'loaded': True, 'loadedTime': 2425.899999976158, 'positionName': 'LEFT', 'positionCoords': [511.6, 335], 'bid': 3.33}, {'imgObject': {}, 'id': 'popsicles', 'src': '/static/foodstim60/popsicles.jpg', 'key': 'i', 'origWidth': 410, 'origHeight': 410, 'width': 410, 'height': 410, 'widthPercent': 0.45, 'rescaleHeight': False, 'trialN': 24, 'loaded': True, 'loadedTime': 2435.399999976158, 'positionName': 'RIGHT', 'positionCoords': [998.4, 335], 'bid': 3.31}]",44289.39999997616,1669830169684,burrito,popsicles,3.33,3.31,-0.020000000000000018,burrito,878.6000000238419,879,878.9000000059605,True,u,45678.19999998808,1388.800000011921,1669830171073,1389,HRV,HRV_0007,2022-11-30 17:47:10
25,"[{'imgObject': {}, 'id': 'baked potato', 'src': '/static/foodstim60/baked potato.jpg', 'key': 'u', 'origWidth': 409, 'origHeight': 410, 'width': 409, 'height': 410, 'widthPercent': 0.45, 'rescaleHeight': False, 'trialN': 25, 'loaded': True, 'loadedTime': 2503.5, 'positionName': 'LEFT', 'positionCoords': [512.6, 335], 'bid': 6.73}, {'imgObject': {}, 'id': 'bagel plain', 'src': '/static/foodstim60/bagel plain.jpg', 'key': 'i', 'origWidth': 410, 'origHeight': 410, 'width': 410, 'height': 410, 'widthPercent': 0.45, 'rescaleHeight': False, 'trialN': 25, 'loaded': True, 'loadedTime': 2512.5, 'positionName': 'RIGHT', 'positionCoords': [998.4, 335], 'bid': 6.87}]",45678.39999997616,1669830171073,baked potato,bagel plain,6.73,6.87,0.13999999999999968,baked potato,1001.1000000238419,1001,1001.4000000059605,True,u,47184.79999998212,1506.4000000059605,1669830172579,1506,HRV,HRV_0007,2022-11-30 17:47:10
26,"[{'imgObject': {}, 'id': 'granola w milk', 'src': '/static/foodstim60/granola w milk.jpg', 'key': 'u', 'origWidth': 410, 'origHeight': 410, 'width': 410, 'height': 410, 'widthPercent': 0.45, 'rescaleHeight': False, 'trialN': 26, 'loaded': True, 'loadedTime': 2428.5999999940395, 'positionName': 'LEFT', 'positionCoords': [511.6, 335], 'bid': 5.05}, {'imgObject': {}, 'id': 'rigatoni and sauce', 'src': '/static/foodstim60/rigatoni and sauce.jpg', 'key': 'i', 'origWidth': 410, 'origHeight': 411, 'width': 410, 'height': 411, 'widthPercent': 0.45, 'rescaleHeight': False, 'trialN': 26, 'loaded': True, 'loadedTime': 2462.199999988079, 'positionName': 'RIGHT', 'positionCoords': [998.4, 334.5], 'bid': 3.89}]",47184.79999998212,1669830172579,granola w milk,rigatoni and sauce,5.05,3.89,-1.1599999999999997,granola w milk,1022.5999999940395,1023,1022.9000000059605,True,u,48716.29999998212,1531.5,1669830174111,1532,HRV,HRV_0007,2022-11-30 17:47:10
27,"[{'imgObject': {}, 'id': 'turkeysandwich', 'src': '/static/foodstim60/turkeysandwich.jpg', 'key': 'u', 'origWidth': 409, 'origHeight': 409, 'width': 409, 'height': 409, 'widthPercent': 0.45, 'rescaleHeight': False, 'trialN': 27, 'loaded': True, 'loadedTime': 2516.399999976158, 'positionName': 'LEFT', 'positionCoords': [512.6, 335.5], 'bid': 5.7700000000000005}, {'imgObject': {}, 'id': 'veggieswithdip', 'src': '/static/foodstim60/veggieswithdip.jpg', 'key': 'i', 'origWidth': 409, 'origHeight': 409, 'width': 409, 'height': 409, 'widthPercent': 0.45, 'rescaleHeight': False, 'trialN': 27, 'loaded': True, 'loadedTime': 2517, 'positionName': 'RIGHT', 'positionCoords': [998.4, 335.5], 'bid': 3.17}]",48716.5,1669830174111,turkeysandwich,veggieswithdip,5.7700000000000005,3.17,-2.6000000000000005,turkeysandwich,978.6999999880791,979,979.0999999940395,True,u,50200.59999999404,1484.0999999940395,1669830175595,1484,HRV,HRV_0007,2022-11-30 17:47:10
28,"[{'imgObject': {}, 'id': 'luckycharms', 'src': '/static/foodstim60/luckycharms.jpg', 'key': 'u', 'origWidth': 410, 'origHeight': 409, 'width': 410, 'height': 409, 'widthPercent': 0.45, 'rescaleHeight': False, 'trialN': 28, 'loaded': True, 'loadedTime': 2481, 'positionName': 'LEFT', 'positionCoords': [511.6, 335.5], 'bid': 4.8500000000000005}, {'imgObject': {}, 'id': 'bagel and cc', 'src': '/static/foodstim60/bagel and cc.jpg', 'key': 'i', 'origWidth': 410, 'origHeight': 410, 'width': 410, 'height': 410, 'widthPercent': 0.45, 'rescaleHeight': False, 'trialN': 28, 'loaded': True, 'loadedTime': 2430.699999988079, 'positionName': 'RIGHT', 'positionCoords': [998.4, 335], 'bid': 9.13}]",50200.69999998808,1669830175595,luckycharms,bagel and cc,4.8500000000000005,9.13,4.28,bagel and cc,934.5999999940395,935,934.9000000059605,True,i,51652.69999998808,1452.0,1669830177047,1452,HRV,HRV_0007,2022-11-30 17:47:10
29,"[{'imgObject': {}, 'id': 'shreddedwheatwithmilk', 'src': '/static/foodstim60/shreddedwheatwithmilk.jpg', 'key': 'u', 'origWidth': 410, 'origHeight': 410, 'width': 410, 'height': 410, 'widthPercent': 0.45, 'rescaleHeight': False, 'trialN': 29, 'loaded': True, 'loadedTime': 2521.2999999821186, 'positionName': 'LEFT', 'positionCoords': [511.6, 335], 'bid': 4.97}, {'imgObject': {}, 'id': 'turkey sandwich', 'src': '/static/foodstim60/turkey sandwich.jpg', 'key': 'i', 'origWidth': 409, 'origHeight': 409, 'width': 409, 'height': 409, 'widthPercent': 0.45, 'rescaleHeight': False, 'trialN': 29, 'loaded': True, 'loadedTime': 2521.5, 'positionName': 'RIGHT', 'positionCoords': [998.4, 335.5], 'bid': 6.44}]",51653.0,1669830177047,shreddedwheatwithmilk,turkey sandwich,4.97,6.44,1.4700000000000006,turkey sandwich,1747.199999988079,1748,1747.5,True,i,53909.5,2256.5,1669830179304,2257,HRV,HRV_0007,2022-11-30 17:47:10
30,"[{'imgObject': {}, 'id': 'raisin bran w milk', 'src': '/static/foodstim60/raisin bran w milk.jpg', 'key': 'u', 'origWidth': 411, 'origHeight': 411, 'width': 411, 'height': 411, 'widthPercent': 0.45, 'rescaleHeight': False, 'trialN': 30, 'loaded': True, 'loadedTime': 2442.0999999940395, 'positionName': 'LEFT', 'positionCoords': [510.6, 334.5], 'bid': 4.44}, {'imgObject': {}, 'id': 'turkey sandwich', 'src': '/static/foodstim60/turkey sandwich.jpg', 'key': 'i', 'origWidth': 409, 'origHeight': 409, 'width': 409, 'height': 409, 'widthPercent': 0.45, 'rescaleHeight': False, 'trialN': 30, 'loaded': True, 'loadedTime': 2522, 'positionName': 'RIGHT', 'positionCoords': [998.4, 335.5], 'bid': 6.44}]",53909.69999998808,1669830179304,raisin bran w milk,turkey sandwich,4.44,6.44,2.0,turkey sandwich,1626.5999999940395,1627,1627.0,True,i,56052.09999999404,2142.4000000059605,1669830181446,2142,HRV,HRV_0007,2022-11-30 17:47:10
31,"[{'imgObject': {}, 'id': 'sweetpotato', 'src': '/static/foodstim60/sweetpotato.jpg', 'key': 'u', 'origWidth': 410, 'origHeight': 410, 'width': 410, 'height': 410, 'widthPercent': 0.45, 'rescaleHeight': False, 'trialN': 31, 'loaded': True, 'loadedTime': 2472.5999999940395, 'positionName': 'LEFT', 'positionCoords': [511.6, 335], 'bid': 3.82}, {'imgObject': {}, 'id': 'raspberries', 'src': '/static/foodstim60/raspberries.jpg', 'key': 'i', 'origWidth': 411, 'origHeight': 411, 'width': 411, 'height': 411, 'widthPercent': 0.45, 'rescaleHeight': False, 'trialN': 31, 'loaded': True, 'loadedTime': 2422.5, 'positionName': 'RIGHT', 'positionCoords': [998.4, 334.5], 'bid': 3.82}]",56052.29999998212,1669830181447,sweetpotato,raspberries,3.82,3.82,0.0,sweetpotato,787.5999999940395,787,787.8000000119209,True,u,57346.5,1294.2000000178814,1669830182741,1294,HRV,HRV_0007,2022-11-30 17:47:10
32,"[{'imgObject': {}, 'id': 'orange slices', 'src': '/static/foodstim60/orange slices.jpg', 'key': 'u', 'origWidth': 409, 'origHeight': 410, 'width': 409, 'height': 410, 'widthPercent': 0.45, 'rescaleHeight': False, 'trialN': 32, 'loaded': True, 'loadedTime': 2423.0999999940395, 'positionName': 'LEFT', 'positionCoords': [512.6, 335], 'bid': 1.81}, {'imgObject': {}, 'id': 'omelette', 'src': '/static/foodstim60/omelette.jpg', 'key': 'i', 'origWidth': 410, 'origHeight': 409, 'width': 410, 'height': 409, 'widthPercent': 0.45, 'rescaleHeight': False, 'trialN': 32, 'loaded': True, 'loadedTime': 2430, 'positionName': 'RIGHT', 'positionCoords': [998.4, 335.5], 'bid': 3.08}]",57346.69999998808,1669830182741,orange slices,omelette,1.81,3.08,1.27,orange slices,884.6999999880791,885,885.0,True,u,58747.0,1400.300000011921,1669830184141,1400,HRV,HRV_0007,2022-11-30 17:47:10
33,"[{'imgObject': {}, 'id': 'granola w milk', 'src': '/static/foodstim60/granola w milk.jpg', 'key': 'u', 'origWidth': 410, 'origHeight': 410, 'width': 410, 'height': 410, 'widthPercent': 0.45, 'rescaleHeight': False, 'trialN': 33, 'loaded': True, 'loadedTime': 2428.7999999821186, 'positionName': 'LEFT', 'positionCoords': [511.6, 335], 'bid': 5.05}, {'imgObject': {}, 'id': 'grilled chicken strips', 'src': '/static/foodstim60/grilled chicken strips.jpg', 'key': 'i', 'origWidth': 410, 'origHeight': 411, 'width': 410, 'height': 411, 'widthPercent': 0.45, 'rescaleHeight': False, 'trialN': 33, 'loaded': True, 'loadedTime': 2418, 'positionName': 'RIGHT', 'positionCoords': [998.4, 334.5], 'bid': 4.54}]",58747.29999998212,1669830184142,granola w milk,grilled chicken strips,5.05,4.54,-0.5099999999999998,granola w milk,1860.2000000178814,1860,1860.4000000059605,True,u,61120.79999998212,2373.5,1669830186515,2373,HRV,HRV_0007,2022-11-30 17:47:10
34,"[{'imgObject': {}, 'id': 'Tribe humus pita', 'src': '/static/foodstim60/Tribe humus pita.jpg', 'key': 'u', 'origWidth': 411, 'origHeight': 411, 'width': 411, 'height': 411, 'widthPercent': 0.45, 'rescaleHeight': False, 'trialN': 34, 'loaded': True, 'loadedTime': 2431.399999976158, 'positionName': 'LEFT', 'positionCoords': [510.6, 334.5], 'bid': 3.81}, {'imgObject': {}, 'id': 'lox', 'src': '/static/foodstim60/lox.jpg', 'key': 'i', 'origWidth': 410, 'origHeight': 411, 'width': 410, 'height': 411, 'widthPercent': 0.45, 'rescaleHeight': False, 'trialN': 34, 'loaded': True, 'loadedTime': 2526.399999976158, 'positionName': 'RIGHT', 'positionCoords': [998.4, 334.5], 'bid': 9.17}]",61120.89999997616,1669830186515,Tribe humus pita,lox,3.81,9.17,5.359999999999999,lox,1055.7000000178814,1056,1056.300000011921,True,i,62693.59999999404,1572.7000000178814,1669830188088,1573,HRV,HRV_0007,2022-11-30 17:47:10
35,"[{'imgObject': {}, 'id': 'raisin bran w milk', 'src': '/static/foodstim60/raisin bran w milk.jpg', 'key': 'u', 'origWidth': 411, 'origHeight': 411, 'width': 411, 'height': 411, 'widthPercent': 0.45, 'rescaleHeight': False, 'trialN': 35, 'loaded': True, 'loadedTime': 2442, 'positionName': 'LEFT', 'positionCoords': [510.6, 334.5], 'bid': 4.44}, {'imgObject': {}, 'id': 'froot loops w milk', 'src': '/static/foodstim60/froot loops w milk.jpg', 'key': 'i', 'origWidth': 410, 'origHeight': 410, 'width': 410, 'height': 410, 'widthPercent': 0.45, 'rescaleHeight': False, 'trialN': 35, 'loaded': True, 'loadedTime': 2429.5, 'positionName': 'RIGHT', 'positionCoords': [998.4, 335], 'bid': 5.01}]",62693.69999998808,1669830188088,raisin bran w milk,froot loops w milk,4.44,5.01,0.5699999999999994,raisin bran w milk,1410.0999999940395,1410,1410.199999988079,True,u,64613.39999997616,1919.699999988079,1669830190008,1920,HRV,HRV_0007,2022-11-30 17:47:10
36,"[{'imgObject': {}, 'id': 'bagel plain', 'src': '/static/foodstim60/bagel plain.jpg', 'key': 'u', 'origWidth': 410, 'origHeight': 410, 'width': 410, 'height': 410, 'widthPercent': 0.45, 'rescaleHeight': False, 'trialN': 36, 'loaded': True, 'loadedTime': 2508.399999976158, 'positionName': 'LEFT', 'positionCoords': [511.6, 335], 'bid': 6.87}, {'imgObject': {}, 'id': 'tacos', 'src': '/static/foodstim60/tacos.jpg', 'key': 'i', 'origWidth': 411, 'origHeight': 411, 'width': 411, 'height': 411, 'widthPercent': 0.45, 'rescaleHeight': False, 'trialN': 36, 'loaded': True, 'loadedTime': 2527.2999999821186, 'positionName': 'RIGHT', 'positionCoords': [998.4, 334.5], 'bid': 5.98}]",64613.39999997616,1669830190008,bagel plain,tacos,6.87,5.98,-0.8899999999999997,bagel plain,1050.1000000238419,1050,1050.300000011921,True,u,66177.39999997616,1564.0,1669830191572,1564,HRV,HRV_0007,2022-11-30 17:47:10
37,"[{'imgObject': {}, 'id': 'bagel plain', 'src': '/static/foodstim60/bagel plain.jpg', 'key': 'u', 'origWidth': 410, 'origHeight': 410, 'width': 410, 'height': 410, 'widthPercent': 0.45, 'rescaleHeight': False, 'trialN': 37, 'loaded': True, 'loadedTime': 2509, 'positionName': 'LEFT', 'positionCoords': [511.6, 335], 'bid': 6.87}, {'imgObject': {}, 'id': 'yogurt no spoon', 'src': '/static/foodstim60/yogurt no spoon.jpg', 'key': 'i', 'origWidth': 411, 'origHeight': 410, 'width': 411, 'height': 410, 'widthPercent': 0.45, 'rescaleHeight': False, 'trialN': 37, 'loaded': True, 'loadedTime': 2528.399999976158, 'positionName': 'RIGHT', 'positionCoords': [998.4, 335], 'bid': 4.8100000000000005}]",66177.39999997616,1669830191572,bagel plain,yogurt no spoon,6.87,4.8100000000000005,-2.0599999999999996,yogurt no spoon,918.3000000119209,918,918.6000000238419,True,i,67600.79999998212,1423.4000000059605,1669830192995,1423,HRV,HRV_0007,2022-11-30 17:47:10
38,"[{'imgObject': {}, 'id': 'edamame', 'src': '/static/foodstim60/edamame.jpg', 'key': 'u', 'origWidth': 409, 'origHeight': 410, 'width': 409, 'height': 410, 'widthPercent': 0.45, 'rescaleHeight': False, 'trialN': 38, 'loaded': True, 'loadedTime': 2492.199999988079, 'positionName': 'LEFT', 'positionCoords': [512.6, 335], 'bid': 0.43}, {'imgObject': {}, 'id': 'apple slices', 'src': '/static/foodstim60/apple slices.jpg', 'key': 'i', 'origWidth': 409, 'origHeight': 410, 'width': 409, 'height': 410, 'widthPercent': 0.45, 'rescaleHeight': False, 'trialN': 38, 'loaded': True, 'loadedTime': 2528.899999976158, 'positionName': 'RIGHT', 'positionCoords': [998.4, 335], 'bid': 1.68}]",67601.0,1669830192995,edamame,apple slices,0.43,1.68,1.25,edamame,1503.3999999761581,1504,1504.0999999940395,True,u,69617.39999997616,2016.3999999761581,1669830195012,2017,HRV,HRV_0007,2022-11-30 17:47:10
39,"[{'imgObject': {}, 'id': 'mac & cheese', 'src': '/static/foodstim60/mac & cheese.jpg', 'key': 'u', 'origWidth': 410, 'origHeight': 410, 'width': 410, 'height': 410, 'widthPercent': 0.45, 'rescaleHeight': False, 'trialN': 39, 'loaded': True, 'loadedTime': 2424.5999999940395, 'positionName': 'LEFT', 'positionCoords': [511.6, 335], 'bid': 4.44}, {'imgObject': {}, 'id': 'shreddedwheatwithmilk', 'src': '/static/foodstim60/shreddedwheatwithmilk.jpg', 'key': 'i', 'origWidth': 410, 'origHeight': 410, 'width': 410, 'height': 410, 'widthPercent': 0.45, 'rescaleHeight': False, 'trialN': 39, 'loaded': True, 'loadedTime': 2517.5999999940395, 'positionName': 'RIGHT', 'positionCoords': [998.4, 335], 'bid': 4.97}]",69617.79999998212,1669830195012,mac & cheese,shreddedwheatwithmilk,4.44,4.97,0.5299999999999994,shreddedwheatwithmilk,1637.5,1638,1637.800000011921,True,i,71765.09999999404,2147.300000011921,1669830197159,2147,HRV,HRV_0007,2022-11-30 17:47:10
40,"[{'imgObject': {}, 'id': 'mashed potato', 'src': '/static/foodstim60/mashed potato.jpg', 'key': 'u', 'origWidth': 409, 'origHeight': 409, 'width': 409, 'height': 409, 'widthPercent': 0.45, 'rescaleHeight': False, 'trialN': 40, 'loaded': True, 'loadedTime': 2529.399999976158, 'positionName': 'LEFT', 'positionCoords': [512.6, 335.5], 'bid': 5.54}, {'imgObject': {}, 'id': 'turkey sandwich', 'src': '/static/foodstim60/turkey sandwich.jpg', 'key': 'i', 'origWidth': 409, 'origHeight': 409, 'width': 409, 'height': 409, 'widthPercent': 0.45, 'rescaleHeight': False, 'trialN': 40, 'loaded': True, 'loadedTime': 2522, 'positionName': 'RIGHT', 'positionCoords': [998.4, 335.5], 'bid': 6.44}]",71765.29999998212,1669830197160,mashed potato,turkey sandwich,5.54,6.44,0.9000000000000004,turkey sandwich,1386.300000011921,1386,1386.800000011921,True,i,73669.29999998212,1904.0,1669830199064,1904,HRV,HRV_0007,2022-11-30 17:47:10
41,"[{'imgObject': {}, 'id': 'banana', 'src': '/static/foodstim60/banana.jpg', 'key': 'u', 'origWidth': 410, 'origHeight': 410, 'width': 410, 'height': 410, 'widthPercent': 0.45, 'rescaleHeight': False, 'trialN': 41, 'loaded': True, 'loadedTime': 2531.0999999940395, 'positionName': 'LEFT', 'positionCoords': [511.6, 335], 'bid': 2.33}, {'imgObject': {}, 'id': 'strawberries', 'src': '/static/foodstim60/strawberries.jpg', 'key': 'i', 'origWidth': 410, 'origHeight': 410, 'width': 410, 'height': 410, 'widthPercent': 0.45, 'rescaleHeight': False, 'trialN': 41, 'loaded': True, 'loadedTime': 2432.899999976158, 'positionName': 'RIGHT', 'positionCoords': [998.4, 335], 'bid': 2.48}]",73669.5,1669830199064,banana,strawberries,2.33,2.48,0.1499999999999999,strawberries,1355.3999999761581,1356,1355.699999988079,True,i,75542.89999997616,1873.3999999761581,1669830200937,1873,HRV,HRV_0007,2022-11-30 17:47:10
42,"[{'imgObject': {}, 'id': 'turkeysandwich', 'src': '/static/foodstim60/turkeysandwich.jpg', 'key': 'u', 'origWidth': 409, 'origHeight': 409, 'width': 409, 'height': 409, 'widthPercent': 0.45, 'rescaleHeight': False, 'trialN': 42, 'loaded': True, 'loadedTime': 2516.0999999940395, 'positionName': 'LEFT', 'positionCoords': [512.6, 335.5], 'bid': 5.7700000000000005}, {'imgObject': {}, 'id': 'baked potato', 'src': '/static/foodstim60/baked potato.jpg', 'key': 'i', 'origWidth': 409, 'origHeight': 410, 'width': 409, 'height': 410, 'widthPercent': 0.45, 'rescaleHeight': False, 'trialN': 42, 'loaded': True, 'loadedTime': 2504.199999988079, 'positionName': 'RIGHT', 'positionCoords': [998.4, 335], 'bid': 6.73}]",75543.09999999404,1669830200937,turkeysandwich,baked potato,5.7700000000000005,6.73,0.96,baked potato,936.1999999880791,937,936.4000000059605,True,i,76993.0,1449.9000000059605,1669830202396,1459,HRV,HRV_0007,2022-11-30 17:47:10
43,"[{'imgObject': {}, 'id': 'mashed potato', 'src': '/static/foodstim60/mashed potato.jpg', 'key': 'u', 'origWidth': 409, 'origHeight': 409, 'width': 409, 'height': 409, 'widthPercent': 0.45, 'rescaleHeight': False, 'trialN': 43, 'loaded': True, 'loadedTime': 2529.399999976158, 'positionName': 'LEFT', 'positionCoords': [512.6, 335.5], 'bid': 5.54}, {'imgObject': {}, 'id': 'rigatoni', 'src': '/static/foodstim60/rigatoni.jpg', 'key': 'i', 'origWidth': 411, 'origHeight': 411, 'width': 411, 'height': 411, 'widthPercent': 0.45, 'rescaleHeight': False, 'trialN': 43, 'loaded': True, 'loadedTime': 2457.199999988079, 'positionName': 'RIGHT', 'positionCoords': [998.4, 334.5], 'bid': 3.95}]",76993.39999997616,1669830202396,mashed potato,rigatoni,5.54,3.95,-1.5899999999999999,mashed potato,829.8000000119209,830,829.9000000059605,True,u,78338.0,1344.6000000238419,1669830203741,1345,HRV,HRV_0007,2022-11-30 17:47:10
44,"[{'imgObject': {}, 'id': 'mashed potato', 'src': '/static/foodstim60/mashed potato.jpg', 'key': 'u', 'origWidth': 409, 'origHeight': 409, 'width': 409, 'height': 409, 'widthPercent': 0.45, 'rescaleHeight': False, 'trialN': 44, 'loaded': True, 'loadedTime': 2529.399999976158, 'positionName': 'LEFT', 'positionCoords': [512.6, 335.5], 'bid': 5.54}, {'imgObject': {}, 'id': 'turkeysandwich', 'src': '/static/foodstim60/turkeysandwich.jpg', 'key': 'i', 'origWidth': 409, 'origHeight': 409, 'width': 409, 'height': 409, 'widthPercent': 0.45, 'rescaleHeight': False, 'trialN': 44, 'loaded': True, 'loadedTime': 2513, 'positionName': 'RIGHT', 'positionCoords': [998.4, 335.5], 'bid': 5.7700000000000005}]",78338.09999999404,1669830203741,mashed potato,turkeysandwich,5.54,5.7700000000000005,0.23000000000000043,turkeysandwich,813.4000000059605,814,814.0,True,i,79671.29999998212,1333.199999988079,1669830205074,1333,HRV,HRV_0007,2022-11-30 17:47:10
45,"[{'imgObject': {}, 'id': 'lox', 'src': '/static/foodstim60/lox.jpg', 'key': 'u', 'origWidth': 410, 'origHeight': 411, 'width': 410, 'height': 411, 'widthPercent': 0.45, 'rescaleHeight': False, 'trialN': 45, 'loaded': True, 'loadedTime': 2526.5999999940395, 'positionName': 'LEFT', 'positionCoords': [511.6, 334.5], 'bid': 9.17}, {'imgObject': {}, 'id': 'shreddedwheatwithmilk', 'src': '/static/foodstim60/shreddedwheatwithmilk.jpg', 'key': 'i', 'origWidth': 410, 'origHeight': 410, 'width': 410, 'height': 410, 'widthPercent': 0.45, 'rescaleHeight': False, 'trialN': 45, 'loaded': True, 'loadedTime': 2517.699999988079, 'positionName': 'RIGHT', 'positionCoords': [998.4, 335], 'bid': 4.97}]",79671.5,1669830205074,lox,shreddedwheatwithmilk,9.17,4.97,-4.2,lox,704.1999999880791,705,704.5999999940395,True,u,80881.59999999404,1210.0999999940395,1669830206285,1211,HRV,HRV_0007,2022-11-30 17:47:10
46,"[{'imgObject': {}, 'id': 'mac & cheese', 'src': '/static/foodstim60/mac & cheese.jpg', 'key': 'u', 'origWidth': 410, 'origHeight': 410, 'width': 410, 'height': 410, 'widthPercent': 0.45, 'rescaleHeight': False, 'trialN': 46, 'loaded': True, 'loadedTime': 2424.399999976158, 'positionName': 'LEFT', 'positionCoords': [511.6, 335], 'bid': 4.44}, {'imgObject': {}, 'id': 'sushi w_condiments', 'src': '/static/foodstim60/sushi w_condiments.jpg', 'key': 'i', 'origWidth': 410, 'origHeight': 410, 'width': 410, 'height': 410, 'widthPercent': 0.45, 'rescaleHeight': False, 'trialN': 46, 'loaded': True, 'loadedTime': 2431.199999988079, 'positionName': 'RIGHT', 'positionCoords': [998.4, 335], 'bid': 3.73}]",80881.89999997616,1669830206285,mac & cheese,sushi w_condiments,4.44,3.73,-0.7100000000000004,sushi w_condiments,2366.4000000059605,2367,2367.100000023842,True,i,83765.19999998808,2883.300000011921,1669830209168,2883,HRV,HRV_0007,2022-11-30 17:47:10
47,"[{'imgObject': {}, 'id': 'avocado', 'src': '/static/foodstim60/avocado.jpg', 'key': 'u', 'origWidth': 409, 'origHeight': 409, 'width': 409, 'height': 409, 'widthPercent': 0.45, 'rescaleHeight': False, 'trialN': 47, 'loaded': True, 'loadedTime': 2495.7999999821186, 'positionName': 'LEFT', 'positionCoords': [512.6, 335.5], 'bid': 2.15}, {'imgObject': {}, 'id': 'cherry tomato', 'src': '/static/foodstim60/cherry tomato.jpg', 'key': 'i', 'origWidth': 410, 'origHeight': 410, 'width': 410, 'height': 410, 'widthPercent': 0.45, 'rescaleHeight': False, 'trialN': 47, 'loaded': True, 'loadedTime': 2536.2999999821186, 'positionName': 'RIGHT', 'positionCoords': [998.4, 335], 'bid': 0.62}]",83765.39999997616,1669830209168,avocado,cherry tomato,2.15,0.62,-1.5299999999999998,avocado,922.3000000119209,923,922.7000000178814,True,u,85206.5,1441.1000000238419,1669830210609,1441,HRV,HRV_0007,2022-11-30 17:47:10
48,"[{'imgObject': {}, 'id': 'seaweed', 'src': '/static/foodstim60/seaweed.jpg', 'key': 'u', 'origWidth': 410, 'origHeight': 410, 'width': 410, 'height': 410, 'widthPercent': 0.45, 'rescaleHeight': False, 'trialN': 48, 'loaded': True, 'loadedTime': 2537.7999999821186, 'positionName': 'LEFT', 'positionCoords': [511.6, 335], 'bid': 2.47}, {'imgObject': {}, 'id': 'luckycharms', 'src': '/static/foodstim60/luckycharms.jpg', 'key': 'i', 'origWidth': 410, 'origHeight': 409, 'width': 410, 'height': 409, 'widthPercent': 0.45, 'rescaleHeight': False, 'trialN': 48, 'loaded': True, 'loadedTime': 2477.5, 'positionName': 'RIGHT', 'positionCoords': [998.4, 335.5], 'bid': 4.8500000000000005}]",85206.69999998808,1669830210610,seaweed,luckycharms,2.47,4.8500000000000005,2.3800000000000003,luckycharms,1034.199999988079,1034,1034.5999999940395,True,i,86752.5,1545.800000011921,1669830212155,1545,HRV,HRV_0007,2022-11-30 17:47:10
49,"[{'imgObject': {}, 'id': 'cantaloupe', 'src': '/static/foodstim60/cantaloupe.jpg', 'key': 'u', 'origWidth': 409, 'origHeight': 409, 'width': 409, 'height': 409, 'widthPercent': 0.45, 'rescaleHeight': False, 'trialN': 49, 'loaded': True, 'loadedTime': 2538.399999976158, 'positionName': 'LEFT', 'positionCoords': [512.6, 335.5], 'bid': 3.15}, {'imgObject': {}, 'id': 'omelette', 'src': '/static/foodstim60/omelette.jpg', 'key': 'i', 'origWidth': 410, 'origHeight': 409, 'width': 410, 'height': 409, 'widthPercent': 0.45, 'rescaleHeight': False, 'trialN': 49, 'loaded': True, 'loadedTime': 2430.199999988079, 'positionName': 'RIGHT', 'positionCoords': [998.4, 335.5], 'bid': 3.08}]",86752.79999998212,1669830212156,cantaloupe,omelette,3.15,3.08,-0.06999999999999984,cantaloupe,823.5,824,824.0999999940395,True,u,88084.79999998212,1332.0,1669830213488,1332,HRV,HRV_0007,2022-11-30 17:47:10
50,"[{'imgObject': {}, 'id': 'seaweed', 'src': '/static/foodstim60/seaweed.jpg', 'key': 'u', 'origWidth': 410, 'origHeight': 410, 'width': 410, 'height': 410, 'widthPercent': 0.45, 'rescaleHeight': False, 'trialN': 50, 'loaded': True, 'loadedTime': 2537.899999976158, 'positionName': 'LEFT', 'positionCoords': [511.6, 335], 'bid': 2.47}, {'imgObject': {}, 'id': 'sushi w_condiments', 'src': '/static/foodstim60/sushi w_condiments.jpg', 'key': 'i', 'origWidth': 410, 'origHeight': 410, 'width': 410, 'height': 410, 'widthPercent': 0.45, 'rescaleHeight': False, 'trialN': 50, 'loaded': True, 'loadedTime': 2431.2999999821186, 'positionName': 'RIGHT', 'positionCoords': [998.4, 335], 'bid': 3.73}]",88084.79999998212,1669830213488,seaweed,sushi w_condiments,2.47,3.73,1.2599999999999998,sushi w_condiments,1114.800000011921,1115,1115.2000000178814,True,i,89718.19999998808,1633.4000000059605,1669830215121,1633,HRV,HRV_0007,2022-11-30 17:47:10
51,"[{'imgObject': {}, 'id': 'cherry tomato', 'src': '/static/foodstim60/cherry tomato.jpg', 'key': 'u', 'origWidth': 410, 'origHeight': 410, 'width': 410, 'height': 410, 'widthPercent': 0.45, 'rescaleHeight': False, 'trialN': 51, 'loaded': True, 'loadedTime': 2531.0999999940395, 'positionName': 'LEFT', 'positionCoords': [511.6, 335], 'bid': 0.62}, {'imgObject': {}, 'id': 'strawberries', 'src': '/static/foodstim60/strawberries.jpg', 'key': 'i', 'origWidth': 410, 'origHeight': 410, 'width': 410, 'height': 410, 'widthPercent': 0.45, 'rescaleHeight': False, 'trialN': 51, 'loaded': True, 'loadedTime': 2432.5999999940395, 'positionName': 'RIGHT', 'positionCoords': [998.4, 335], 'bid': 2.48}]",89718.5,1669830215121,cherry tomato,strawberries,0.62,2.48,1.8599999999999999,strawberries,857.1999999880791,858,857.7999999821186,True,i,91089.0,1370.5,1669830216492,1371,HRV,HRV_0007,2022-11-30 17:47:10
52,"[{'imgObject': {}, 'id': 'granola w milk', 'src': '/static/foodstim60/granola w milk.jpg', 'key': 'u', 'origWidth': 410, 'origHeight': 410, 'width': 410, 'height': 410, 'widthPercent': 0.45, 'rescaleHeight': False, 'trialN': 52, 'loaded': True, 'loadedTime': 2428.699999988079, 'positionName': 'LEFT', 'positionCoords': [511.6, 335], 'bid': 5.05}, {'imgObject': {}, 'id': 'bagel plain', 'src': '/static/foodstim60/bagel plain.jpg', 'key': 'i', 'origWidth': 410, 'origHeight': 410, 'width': 410, 'height': 410, 'widthPercent': 0.45, 'rescaleHeight': False, 'trialN': 52, 'loaded': True, 'loadedTime': 2512.5, 'positionName': 'RIGHT', 'positionCoords': [998.4, 335], 'bid': 6.87}]",91089.29999998212,1669830216492,granola w milk,bagel plain,5.05,6.87,1.8200000000000003,granola w milk,1110.7000000178814,1111,1111.2000000178814,True,u,92711.69999998808,1622.4000000059605,1669830218115,1623,HRV,HRV_0007,2022-11-30 17:47:10
53,"[{'imgObject': {}, 'id': 'bagel plain', 'src': '/static/foodstim60/bagel plain.jpg', 'key': 'u', 'origWidth': 410, 'origHeight': 410, 'width': 410, 'height': 410, 'widthPercent': 0.45, 'rescaleHeight': False, 'trialN': 53, 'loaded': True, 'loadedTime': 2512.2999999821186, 'positionName': 'LEFT', 'positionCoords': [511.6, 335], 'bid': 6.87}, {'imgObject': {}, 'id': 'fruitsalad', 'src': '/static/foodstim60/fruitsalad.jpg', 'key': 'i', 'origWidth': 410, 'origHeight': 410, 'width': 410, 'height': 410, 'widthPercent': 0.45, 'rescaleHeight': False, 'trialN': 53, 'loaded': True, 'loadedTime': 2539.5, 'positionName': 'RIGHT', 'positionCoords': [998.4, 335], 'bid': 3.73}]",92711.89999997616,1669830218115,bagel plain,fruitsalad,6.87,3.73,-3.14,fruitsalad,1168.5,1169,1169.1000000238419,True,i,94392.09999999404,1680.2000000178814,1669830219795,1680,HRV,HRV_0007,2022-11-30 17:47:10
54,"[{'imgObject': {}, 'id': 'turkeysandwich', 'src': '/static/foodstim60/turkeysandwich.jpg', 'key': 'u', 'origWidth': 409, 'origHeight': 409, 'width': 409, 'height': 409, 'widthPercent': 0.45, 'rescaleHeight': False, 'trialN': 54, 'loaded': True, 'loadedTime': 2516.5, 'positionName': 'LEFT', 'positionCoords': [512.6, 335.5], 'bid': 5.7700000000000005}, {'imgObject': {}, 'id': 'burger', 'src': '/static/foodstim60/burger.jpg', 'key': 'i', 'origWidth': 409, 'origHeight': 409, 'width': 409, 'height': 409, 'widthPercent': 0.45, 'rescaleHeight': False, 'trialN': 54, 'loaded': True, 'loadedTime': 2540.0999999940395, 'positionName': 'RIGHT', 'positionCoords': [998.4, 335.5], 'bid': 4.15}]",94392.19999998808,1669830219795,turkeysandwich,burger,5.7700000000000005,4.15,-1.62,turkeysandwich,1814.9000000059605,1815,1815.199999988079,True,u,96714.79999998212,2322.5999999940395,1669830222118,2323,HRV,HRV_0007,2022-11-30 17:47:10
55,"[{'imgObject': {}, 'id': 'burger', 'src': '/static/foodstim60/burger.jpg', 'key': 'u', 'origWidth': 409, 'origHeight': 409, 'width': 409, 'height': 409, 'widthPercent': 0.45, 'rescaleHeight': False, 'trialN': 55, 'loaded': True, 'loadedTime': 2540.0999999940395, 'positionName': 'LEFT', 'positionCoords': [512.6, 335.5], 'bid': 4.15}, {'imgObject': {}, 'id': 'Tribe humus pita', 'src': '/static/foodstim60/Tribe humus pita.jpg', 'key': 'i', 'origWidth': 411, 'origHeight': 411, 'width': 411, 'height': 411, 'widthPercent': 0.45, 'rescaleHeight': False, 'trialN': 55, 'loaded': True, 'loadedTime': 2432.0999999940395, 'positionName': 'RIGHT', 'positionCoords': [998.4, 334.5], 'bid': 3.81}]",96715.0,1669830222118,burger,Tribe humus pita,4.15,3.81,-0.3400000000000003,burger,1149.0999999940395,1150,1149.5999999940395,True,u,98380.89999997616,1665.8999999761581,1669830223784,1666,HRV,HRV_0007,2022-11-30 17:47:10
56,"[{'imgObject': {}, 'id': 'turkey sandwich', 'src': '/static/foodstim60/turkey sandwich.jpg', 'key': 'u', 'origWidth': 409, 'origHeight': 409, 'width': 409, 'height': 409, 'widthPercent': 0.45, 'rescaleHeight': False, 'trialN': 56, 'loaded': True, 'loadedTime': 2522, 'positionName': 'LEFT', 'positionCoords': [512.6, 335.5], 'bid': 6.44}, {'imgObject': {}, 'id': 'corn cob', 'src': '/static/foodstim60/corn cob.jpg', 'key': 'i', 'origWidth': 411, 'origHeight': 411, 'width': 411, 'height': 411, 'widthPercent': 0.45, 'rescaleHeight': False, 'trialN': 56, 'loaded': True, 'loadedTime': 2433.399999976158, 'positionName': 'RIGHT', 'positionCoords': [998.4, 334.5], 'bid': 6}]",98381.0,1669830223784,turkey sandwich,corn cob,6.44,6.0,-0.4400000000000004,corn cob,818.7999999821186,819,819.2999999821186,True,i,99710.29999998212,1329.2999999821186,1669830225113,1329,HRV,HRV_0007,2022-11-30 17:47:10
57,"[{'imgObject': {}, 'id': 'Grapes', 'src': '/static/foodstim60/Grapes.jpg', 'key': 'u', 'origWidth': 411, 'origHeight': 411, 'width': 411, 'height': 411, 'widthPercent': 0.45, 'rescaleHeight': False, 'trialN': 57, 'loaded': True, 'loadedTime': 2425.399999976158, 'positionName': 'LEFT', 'positionCoords': [510.6, 334.5], 'bid': 3.08}, {'imgObject': {}, 'id': 'kiwi', 'src': '/static/foodstim60/kiwi.jpg', 'key': 'i', 'origWidth': 410, 'origHeight': 410, 'width': 410, 'height': 410, 'widthPercent': 0.45, 'rescaleHeight': False, 'trialN': 57, 'loaded': True, 'loadedTime': 2540.699999988079, 'positionName': 'RIGHT', 'positionCoords': [998.4, 335], 'bid': 0.53}]",99710.5,1669830225113,Grapes,kiwi,3.08,0.53,-2.55,Grapes,961.5,962,961.8999999761581,True,u,101187.39999997616,1476.8999999761581,1669830226590,1477,HRV,HRV_0007,2022-11-30 17:47:10
58,"[{'imgObject': {}, 'id': 'apple slices', 'src': '/static/foodstim60/apple slices.jpg', 'key': 'u', 'origWidth': 409, 'origHeight': 410, 'width': 409, 'height': 410, 'widthPercent': 0.45, 'rescaleHeight': False, 'trialN': 58, 'loaded': True, 'loadedTime': 2528.899999976158, 'positionName': 'LEFT', 'positionCoords': [512.6, 335], 'bid': 1.68}, {'imgObject': {}, 'id': 'olives', 'src': '/static/foodstim60/olives.jpg', 'key': 'i', 'origWidth': 410, 'origHeight': 410, 'width': 410, 'height': 410, 'widthPercent': 0.45, 'rescaleHeight': False, 'trialN': 58, 'loaded': True, 'loadedTime': 2541.0999999940395, 'positionName': 'RIGHT', 'positionCoords': [998.4, 335], 'bid': 1.65}]",101187.5,1669830226590,apple slices,olives,1.68,1.65,-0.030000000000000027,apple slices,1764.0999999940395,1765,1764.2999999821186,True,u,103469.79999998212,2282.2999999821186,1669830228873,2283,HRV,HRV_0007,2022-11-30 17:47:10
59,"[{'imgObject': {}, 'id': 'veggieswithdip', 'src': '/static/foodstim60/veggieswithdip.jpg', 'key': 'u', 'origWidth': 409, 'origHeight': 409, 'width': 409, 'height': 409, 'widthPercent': 0.45, 'rescaleHeight': False, 'trialN': 59, 'loaded': True, 'loadedTime': 2517.199999988079, 'positionName': 'LEFT', 'positionCoords': [512.6, 335.5], 'bid': 3.17}, {'imgObject': {}, 'id': 'eggs', 'src': '/static/foodstim60/eggs.jpg', 'key': 'i', 'origWidth': 409, 'origHeight': 409, 'width': 409, 'height': 409, 'widthPercent': 0.45, 'rescaleHeight': False, 'trialN': 59, 'loaded': True, 'loadedTime': 2427.0999999940395, 'positionName': 'RIGHT', 'positionCoords': [998.4, 335.5], 'bid': 0.72}]",103469.89999997616,1669830228873,veggieswithdip,eggs,3.17,0.72,-2.45,veggieswithdip,1114.0,1114,1114.6000000238419,True,u,105090.69999998808,1620.800000011921,1669830230494,1621,HRV,HRV_0007,2022-11-30 17:47:10
60,"[{'imgObject': {}, 'id': 'blueberries', 'src': '/static/foodstim60/blueberries.jpg', 'key': 'u', 'origWidth': 411, 'origHeight': 411, 'width': 411, 'height': 411, 'widthPercent': 0.45, 'rescaleHeight': False, 'trialN': 60, 'loaded': True, 'loadedTime': 2420.399999976158, 'positionName': 'LEFT', 'positionCoords': [510.6, 334.5], 'bid': 3.29}, {'imgObject': {}, 'id': 'olives', 'src': '/static/foodstim60/olives.jpg', 'key': 'i', 'origWidth': 410, 'origHeight': 410, 'width': 410, 'height': 410, 'widthPercent': 0.45, 'rescaleHeight': False, 'trialN': 60, 'loaded': True, 'loadedTime': 2541.0999999940395, 'positionName': 'RIGHT', 'positionCoords': [998.4, 335], 'bid': 1.65}]",105091.0,1669830230494,blueberries,olives,3.29,1.65,-1.6400000000000001,olives,2228.0999999940395,2228,2228.2999999821186,True,i,107835.29999998212,2744.2999999821186,1669830233238,2744,HRV,HRV_0007,2022-11-30 17:47:10
61,"[{'imgObject': {}, 'id': 'roastedpotatoes', 'src': '/static/foodstim60/roastedpotatoes.jpg', 'key': 'u', 'origWidth': 409, 'origHeight': 410, 'width': 409, 'height': 410, 'widthPercent': 0.45, 'rescaleHeight': False, 'trialN': 61, 'loaded': True, 'loadedTime': 2499.7999999821186, 'positionName': 'LEFT', 'positionCoords': [512.6, 335], 'bid': 6.59}, {'imgObject': {}, 'id': 'chickenfingers', 'src': '/static/foodstim60/chickenfingers.jpg', 'key': 'i', 'origWidth': 410, 'origHeight': 410, 'width': 410, 'height': 410, 'widthPercent': 0.45, 'rescaleHeight': False, 'trialN': 61, 'loaded': True, 'loadedTime': 2542.7999999821186, 'positionName': 'RIGHT', 'positionCoords': [998.4, 335], 'bid': 6.01}]",107835.59999999404,1669830233238,roastedpotatoes,chickenfingers,6.59,6.01,-0.5800000000000001,roastedpotatoes,1060.0999999940395,1061,1060.5,True,u,109402.0,1566.4000000059605,1669830234805,1567,HRV,HRV_0007,2022-11-30 17:47:10
62,"[{'imgObject': {}, 'id': 'pear', 'src': '/static/foodstim60/pear.jpg', 'key': 'u', 'origWidth': 411, 'origHeight': 410, 'width': 411, 'height': 410, 'widthPercent': 0.45, 'rescaleHeight': False, 'trialN': 62, 'loaded': True, 'loadedTime': 2493.399999976158, 'positionName': 'LEFT', 'positionCoords': [510.6, 335], 'bid': 0.59}, {'imgObject': {}, 'id': 'eggsalad', 'src': '/static/foodstim60/eggsalad.jpg', 'key': 'i', 'origWidth': 410, 'origHeight': 409, 'width': 410, 'height': 409, 'widthPercent': 0.45, 'rescaleHeight': False, 'trialN': 62, 'loaded': True, 'loadedTime': 2543.199999988079, 'positionName': 'RIGHT', 'positionCoords': [998.4, 335.5], 'bid': 2.13}]",109402.0,1669830234805,pear,eggsalad,0.59,2.13,1.54,pear,1429.5999999940395,1430,1429.8999999761581,True,u,111337.09999999404,1935.0999999940395,1669830236740,1935,HRV,HRV_0007,2022-11-30 17:47:10
63,"[{'imgObject': {}, 'id': 'strawberries', 'src': '/static/foodstim60/strawberries.jpg', 'key': 'u', 'origWidth': 410, 'origHeight': 410, 'width': 410, 'height': 410, 'widthPercent': 0.45, 'rescaleHeight': False, 'trialN': 63, 'loaded': True, 'loadedTime': 2432.2999999821186, 'positionName': 'LEFT', 'positionCoords': [511.6, 335], 'bid': 2.48}, {'imgObject': {}, 'id': 'hashbrowns', 'src': '/static/foodstim60/hashbrowns.jpg', 'key': 'i', 'origWidth': 411, 'origHeight': 410, 'width': 411, 'height': 410, 'widthPercent': 0.45, 'rescaleHeight': False, 'trialN': 63, 'loaded': True, 'loadedTime': 2428.199999988079, 'positionName': 'RIGHT', 'positionCoords': [998.4, 335], 'bid': 2.57}]",111337.19999998808,1669830236740,strawberries,hashbrowns,2.48,2.57,0.08999999999999986,strawberries,918.4000000059605,919,918.6999999880791,True,u,112767.19999998808,1430.0,1669830238170,1430,HRV,HRV_0007,2022-11-30 17:47:10
64,"[{'imgObject': {}, 'id': 'mango', 'src': '/static/foodstim60/mango.jpg', 'key': 'u', 'origWidth': 411, 'origHeight': 411, 'width': 411, 'height': 411, 'widthPercent': 0.45, 'rescaleHeight': False, 'trialN': 64, 'loaded': True, 'loadedTime': 2426.5, 'positionName': 'LEFT', 'positionCoords': [510.6, 334.5], 'bid': 2.72}, {'imgObject': {}, 'id': 'olives', 'src': '/static/foodstim60/olives.jpg', 'key': 'i', 'origWidth': 410, 'origHeight': 410, 'width': 410, 'height': 410, 'widthPercent': 0.45, 'rescaleHeight': False, 'trialN': 64, 'loaded': True, 'loadedTime': 2542.2999999821186, 'positionName': 'RIGHT', 'positionCoords': [998.4, 335], 'bid': 1.65}]",112767.39999997616,1669830238170,mango,olives,2.72,1.65,-1.0700000000000003,mango,1383.9000000059605,1385,1384.4000000059605,True,u,114664.29999998212,1896.9000000059605,1669830240067,1897,HRV,HRV_0007,2022-11-30 17:47:10
65,"[{'imgObject': {}, 'id': 'froot loops w milk', 'src': '/static/foodstim60/froot loops w milk.jpg', 'key': 'u', 'origWidth': 410, 'origHeight': 410, 'width': 410, 'height': 410, 'widthPercent': 0.45, 'rescaleHeight': False, 'trialN': 65, 'loaded': True, 'loadedTime': 2429.399999976158, 'positionName': 'LEFT', 'positionCoords': [511.6, 335], 'bid': 5.01}, {'imgObject': {}, 'id': 'hashbrowns', 'src': '/static/foodstim60/hashbrowns.jpg', 'key': 'i', 'origWidth': 411, 'origHeight': 410, 'width': 411, 'height': 410, 'widthPercent': 0.45, 'rescaleHeight': False, 'trialN': 65, 'loaded': True, 'loadedTime': 2428.0999999940395, 'positionName': 'RIGHT', 'positionCoords': [998.4, 335], 'bid': 2.57}]",114664.89999997616,1669830240068,froot loops w milk,hashbrowns,5.01,2.57,-2.44,froot loops w milk,950.9000000059605,951,951.3000000119209,True,u,116129.89999997616,1465.0,1669830241533,1465,HRV,HRV_0007,2022-11-30 17:47:10
66,"[{'imgObject': {}, 'id': 'steak', 'src': '/static/foodstim60/steak.jpg', 'key': 'u', 'origWidth': 410, 'origHeight': 410, 'width': 410, 'height': 410, 'widthPercent': 0.45, 'rescaleHeight': False, 'trialN': 66, 'loaded': True, 'loadedTime': 2468.2999999821186, 'positionName': 'LEFT', 'positionCoords': [511.6, 335], 'bid': 0.37}, {'imgObject': {}, 'id': 'olives', 'src': '/static/foodstim60/olives.jpg', 'key': 'i', 'origWidth': 410, 'origHeight': 410, 'width': 410, 'height': 410, 'widthPercent': 0.45, 'rescaleHeight': False, 'trialN': 66, 'loaded': True, 'loadedTime': 2540.899999976158, 'positionName': 'RIGHT', 'positionCoords': [998.4, 335], 'bid': 1.65}]",116130.0,1669830241533,steak,olives,0.37,1.65,1.2799999999999998,olives,822.2999999821186,823,822.6999999880791,True,i,117455.39999997616,1325.3999999761581,1669830242858,1325,HRV,HRV_0007,2022-11-30 17:47:10
67,"[{'imgObject': {}, 'id': 'baked potato', 'src': '/static/foodstim60/baked potato.jpg', 'key': 'u', 'origWidth': 409, 'origHeight': 410, 'width': 409, 'height': 410, 'widthPercent': 0.45, 'rescaleHeight': False, 'trialN': 67, 'loaded': True, 'loadedTime': 2504.199999988079, 'positionName': 'LEFT', 'positionCoords': [512.6, 335], 'bid': 6.73}, {'imgObject': {}, 'id': 'grilled chicken strips', 'src': '/static/foodstim60/grilled chicken strips.jpg', 'key': 'i', 'origWidth': 410, 'origHeight': 411, 'width': 410, 'height': 411, 'widthPercent': 0.45, 'rescaleHeight': False, 'trialN': 67, 'loaded': True, 'loadedTime': 2413.5999999940395, 'positionName': 'RIGHT', 'positionCoords': [998.4, 334.5], 'bid': 4.54}]",117455.59999999404,1669830242859,baked potato,grilled chicken strips,6.73,4.54,-2.1900000000000004,baked potato,1785.199999988079,1785,1785.5999999940395,True,u,119757.0,2301.4000000059605,1669830245160,2301,HRV,HRV_0007,2022-11-30 17:47:10
68,"[{'imgObject': {}, 'id': 'ice cream sundae 002', 'src': '/static/foodstim60/ice cream sundae 002.jpg', 'key': 'u', 'origWidth': 409, 'origHeight': 409, 'width': 409, 'height': 409, 'widthPercent': 0.45, 'rescaleHeight': False, 'trialN': 68, 'loaded': True, 'loadedTime': 2398.899999976158, 'positionName': 'LEFT', 'positionCoords': [512.6, 335.5], 'bid': 4.45}, {'imgObject': {}, 'id': 'turkeysandwich', 'src': '/static/foodstim60/turkeysandwich.jpg', 'key': 'i', 'origWidth': 409, 'origHeight': 409, 'width': 409, 'height': 409, 'widthPercent': 0.45, 'rescaleHeight': False, 'trialN': 68, 'loaded': True, 'loadedTime': 2516.399999976158, 'positionName': 'RIGHT', 'positionCoords': [998.4, 335.5], 'bid': 5.7700000000000005}]",119757.09999999404,1669830245160,ice cream sundae 002,turkeysandwich,4.45,5.7700000000000005,1.3200000000000003,turkeysandwich,1458.5999999940395,1459,1458.9000000059605,True,i,121732.89999997616,1975.7999999821186,1669830247136,1976,HRV,HRV_0007,2022-11-30 17:47:10
69,"[{'imgObject': {}, 'id': 'olives', 'src': '/static/foodstim60/olives.jpg', 'key': 'u', 'origWidth': 410, 'origHeight': 410, 'width': 410, 'height': 410, 'widthPercent': 0.45, 'rescaleHeight': False, 'trialN': 69, 'loaded': True, 'loadedTime': 2541.199999988079, 'positionName': 'LEFT', 'positionCoords': [511.6, 335], 'bid': 1.65}, {'imgObject': {}, 'id': 'salad w chicken', 'src': '/static/foodstim60/salad w chicken.jpg', 'key': 'i', 'origWidth': 411, 'origHeight': 411, 'width': 411, 'height': 411, 'widthPercent': 0.45, 'rescaleHeight': False, 'trialN': 69, 'loaded': True, 'loadedTime': 2543.7999999821186, 'positionName': 'RIGHT', 'positionCoords': [998.4, 334.5], 'bid': 4.25}]",121733.0,1669830247136,olives,salad w chicken,1.65,4.25,2.6,salad w chicken,1242.2999999821186,1242,1242.3999999761581,True,i,123489.59999999404,1756.5999999940395,1669830248892,1756,HRV,HRV_0007,2022-11-30 17:47:10
70,"[{'imgObject': {}, 'id': 'cherries', 'src': '/static/foodstim60/cherries.jpg', 'key': 'u', 'origWidth': 410, 'origHeight': 411, 'width': 410, 'height': 411, 'widthPercent': 0.45, 'rescaleHeight': False, 'trialN': 70, 'loaded': True, 'loadedTime': 2544.199999988079, 'positionName': 'LEFT', 'positionCoords': [511.6, 334.5], 'bid': 3.96}, {'imgObject': {}, 'id': 'chicken nuggets2', 'src': '/static/foodstim60/chicken nuggets2.jpg', 'key': 'i', 'origWidth': 410, 'origHeight': 409, 'width': 410, 'height': 409, 'widthPercent': 0.45, 'rescaleHeight': False, 'trialN': 70, 'loaded': True, 'loadedTime': 2544.899999976158, 'positionName': 'RIGHT', 'positionCoords': [998.4, 335.5], 'bid': 5.64}]",123489.69999998808,1669830248893,cherries,chicken nuggets2,3.96,5.64,1.6799999999999997,chicken nuggets2,1158.300000011921,1158,1158.5,True,i,125157.19999998808,1667.5,1669830250560,1667,HRV,HRV_0007,2022-11-30 17:47:10
71,"[{'imgObject': {}, 'id': 'sushi w_condiments', 'src': '/static/foodstim60/sushi w_condiments.jpg', 'key': 'u', 'origWidth': 410, 'origHeight': 410, 'width': 410, 'height': 410, 'widthPercent': 0.45, 'rescaleHeight': False, 'trialN': 71, 'loaded': True, 'loadedTime': 2431.199999988079, 'positionName': 'LEFT', 'positionCoords': [511.6, 335], 'bid': 3.73}, {'imgObject': {}, 'id': 'sweetpotato', 'src': '/static/foodstim60/sweetpotato.jpg', 'key': 'i', 'origWidth': 410, 'origHeight': 410, 'width': 410, 'height': 410, 'widthPercent': 0.45, 'rescaleHeight': False, 'trialN': 71, 'loaded': True, 'loadedTime': 2476.899999976158, 'positionName': 'RIGHT', 'positionCoords': [998.4, 335], 'bid': 3.82}]",125157.29999998212,1669830250560,sushi w_condiments,sweetpotato,3.73,3.82,0.08999999999999986,sweetpotato,1091.5,1093,1092.300000011921,True,i,126767.5,1610.2000000178814,1669830252170,1610,HRV,HRV_0007,2022-11-30 17:47:10
72,"[{'imgObject': {}, 'id': 'eggs', 'src': '/static/foodstim60/eggs.jpg', 'key': 'u', 'origWidth': 409, 'origHeight': 409, 'width': 409, 'height': 409, 'widthPercent': 0.45, 'rescaleHeight': False, 'trialN': 72, 'loaded': True, 'loadedTime': 2427.5999999940395, 'positionName': 'LEFT', 'positionCoords': [512.6, 335.5], 'bid': 0.72}, {'imgObject': {}, 'id': 'apple slices', 'src': '/static/foodstim60/apple slices.jpg', 'key': 'i', 'origWidth': 409, 'origHeight': 410, 'width': 409, 'height': 410, 'widthPercent': 0.45, 'rescaleHeight': False, 'trialN': 72, 'loaded': True, 'loadedTime': 2529, 'positionName': 'RIGHT', 'positionCoords': [998.4, 335], 'bid': 1.68}]",126767.69999998808,1669830252171,eggs,apple slices,0.72,1.68,0.96,apple slices,999.5999999940395,999,999.9000000059605,True,i,128284.09999999404,1516.4000000059605,1669830253687,1516,HRV,HRV_0007,2022-11-30 17:47:10
73,"[{'imgObject': {}, 'id': 'fruitsalad', 'src': '/static/foodstim60/fruitsalad.jpg', 'key': 'u', 'origWidth': 410, 'origHeight': 410, 'width': 410, 'height': 410, 'widthPercent': 0.45, 'rescaleHeight': False, 'trialN': 73, 'loaded': True, 'loadedTime': 2539.5, 'positionName': 'LEFT', 'positionCoords': [511.6, 335], 'bid': 3.73}, {'imgObject': {}, 'id': 'salmon', 'src': '/static/foodstim60/salmon.jpg', 'key': 'i', 'origWidth': 410, 'origHeight': 409, 'width': 410, 'height': 409, 'widthPercent': 0.45, 'rescaleHeight': False, 'trialN': 73, 'loaded': True, 'loadedTime': 2545.199999988079, 'positionName': 'RIGHT', 'positionCoords': [998.4, 335.5], 'bid': 3.47}]",128284.29999998212,1669830253687,fruitsalad,salmon,3.73,3.47,-0.2599999999999998,fruitsalad,1260.800000011921,1261,1261.0999999940395,True,u,130051.19999998808,1766.9000000059605,1669830255454,1767,HRV,HRV_0007,2022-11-30 17:47:10
74,"[{'imgObject': {}, 'id': 'turkeysandwich', 'src': '/static/foodstim60/turkeysandwich.jpg', 'key': 'u', 'origWidth': 409, 'origHeight': 409, 'width': 409, 'height': 409, 'widthPercent': 0.45, 'rescaleHeight': False, 'trialN': 74, 'loaded': True, 'loadedTime': 2512.5, 'positionName': 'LEFT', 'positionCoords': [512.6, 335.5], 'bid': 5.7700000000000005}, {'imgObject': {}, 'id': 'tacos', 'src': '/static/foodstim60/tacos.jpg', 'key': 'i', 'origWidth': 411, 'origHeight': 411, 'width': 411, 'height': 411, 'widthPercent': 0.45, 'rescaleHeight': False, 'trialN': 74, 'loaded': True, 'loadedTime': 2527.399999976158, 'positionName': 'RIGHT', 'positionCoords': [998.4, 334.5], 'bid': 5.98}]",130051.29999998212,1669830255454,turkeysandwich,tacos,5.7700000000000005,5.98,0.20999999999999996,turkeysandwich,1291.800000011921,1292,1292.0999999940395,True,u,131851.19999998808,1799.9000000059605,1669830257254,1800,HRV,HRV_0007,2022-11-30 17:47:10
75,"[{'imgObject': {}, 'id': 'Tribe humus pita', 'src': '/static/foodstim60/Tribe humus pita.jpg', 'key': 'u', 'origWidth': 411, 'origHeight': 411, 'width': 411, 'height': 411, 'widthPercent': 0.45, 'rescaleHeight': False, 'trialN': 75, 'loaded': True, 'loadedTime': 2432.199999988079, 'positionName': 'LEFT', 'positionCoords': [510.6, 334.5], 'bid': 3.81}, {'imgObject': {}, 'id': 'raisin bran w milk', 'src': '/static/foodstim60/raisin bran w milk.jpg', 'key': 'i', 'origWidth': 411, 'origHeight': 411, 'width': 411, 'height': 411, 'widthPercent': 0.45, 'rescaleHeight': False, 'trialN': 75, 'loaded': True, 'loadedTime': 2446.399999976158, 'positionName': 'RIGHT', 'positionCoords': [998.4, 334.5], 'bid': 4.44}]",131851.5,1669830257254,Tribe humus pita,raisin bran w milk,3.81,4.44,0.6300000000000003,raisin bran w milk,1004.6999999880791,1006,1005.5,True,i,133367.0,1515.5,1669830258770,1516,HRV,HRV_0007,2022-11-30 17:47:10
76,"[{'imgObject': {}, 'id': 'fruitsalad', 'src': '/static/foodstim60/fruitsalad.jpg', 'key': 'u', 'origWidth': 410, 'origHeight': 410, 'width': 410, 'height': 410, 'widthPercent': 0.45, 'rescaleHeight': False, 'trialN': 76, 'loaded': True, 'loadedTime': 2539.699999988079, 'positionName': 'LEFT', 'positionCoords': [511.6, 335], 'bid': 3.73}, {'imgObject': {}, 'id': 'rigatoni', 'src': '/static/foodstim60/rigatoni.jpg', 'key': 'i', 'origWidth': 411, 'origHeight': 411, 'width': 411, 'height': 411, 'widthPercent': 0.45, 'rescaleHeight': False, 'trialN': 76, 'loaded': True, 'loadedTime': 2456.7999999821186, 'positionName': 'RIGHT', 'positionCoords': [998.4, 334.5], 'bid': 3.95}]",133367.39999997616,1669830258770,fruitsalad,rigatoni,3.73,3.95,0.2200000000000002,fruitsalad,879.7000000178814,880,879.9000000059605,True,u,134758.09999999404,1390.7000000178814,1669830260161,1391,HRV,HRV_0007,2022-11-30 17:47:10
77,"[{'imgObject': {}, 'id': 'yogurt no spoon', 'src': '/static/foodstim60/yogurt no spoon.jpg', 'key': 'u', 'origWidth': 411, 'origHeight': 410, 'width': 411, 'height': 410, 'widthPercent': 0.45, 'rescaleHeight': False, 'trialN': 77, 'loaded': True, 'loadedTime': 2528.199999988079, 'positionName': 'LEFT', 'positionCoords': [510.6, 335], 'bid': 4.8100000000000005}, {'imgObject': {}, 'id': 'corn cob', 'src': '/static/foodstim60/corn cob.jpg', 'key': 'i', 'origWidth': 411, 'origHeight': 411, 'width': 411, 'height': 411, 'widthPercent': 0.45, 'rescaleHeight': False, 'trialN': 77, 'loaded': True, 'loadedTime': 2433.399999976158, 'positionName': 'RIGHT', 'positionCoords': [998.4, 334.5], 'bid': 6}]",134758.39999997616,1669830260161,yogurt no spoon,corn cob,4.8100000000000005,6.0,1.1899999999999995,corn cob,880.9000000059605,882,881.2000000178814,True,i,136159.09999999404,1400.7000000178814,1669830261562,1401,HRV,HRV_0007,2022-11-30 17:47:10
78,"[{'imgObject': {}, 'id': 'salmon', 'src': '/static/foodstim60/salmon.jpg', 'key': 'u', 'origWidth': 410, 'origHeight': 409, 'width': 410, 'height': 409, 'widthPercent': 0.45, 'rescaleHeight': False, 'trialN': 78, 'loaded': True, 'loadedTime': 2545.199999988079, 'positionName': 'LEFT', 'positionCoords': [511.6, 335.5], 'bid': 3.47}, {'imgObject': {}, 'id': 'fried eggs', 'src': '/static/foodstim60/fried eggs.jpg', 'key': 'i', 'origWidth': 410, 'origHeight': 410, 'width': 410, 'height': 410, 'widthPercent': 0.45, 'rescaleHeight': False, 'trialN': 78, 'loaded': True, 'loadedTime': 2489.699999988079, 'positionName': 'RIGHT', 'positionCoords': [998.4, 335], 'bid': 3.41}]",136159.19999998808,1669830261562,salmon,fried eggs,3.47,3.41,-0.06000000000000005,salmon,1568.0,1562,1568.199999988079,True,u,138233.09999999404,2073.9000000059605,1669830263629,2067,HRV,HRV_0007,2022-11-30 17:47:10
79,"[{'imgObject': {}, 'id': 'avocado', 'src': '/static/foodstim60/avocado.jpg', 'key': 'u', 'origWidth': 409, 'origHeight': 409, 'width': 409, 'height': 409, 'widthPercent': 0.45, 'rescaleHeight': False, 'trialN': 79, 'loaded': True, 'loadedTime': 2496, 'positionName': 'LEFT', 'positionCoords': [512.6, 335.5], 'bid': 2.15}, {'imgObject': {}, 'id': 'cocktailshrimp', 'src': '/static/foodstim60/cocktailshrimp.jpg', 'key': 'i', 'origWidth': 410, 'origHeight': 410, 'width': 410, 'height': 410, 'widthPercent': 0.45, 'rescaleHeight': False, 'trialN': 79, 'loaded': True, 'loadedTime': 2485.399999976158, 'positionName': 'RIGHT', 'positionCoords': [998.4, 335], 'bid': 2.32}]",138233.39999997616,1669830263630,avocado,cocktailshrimp,2.15,2.32,0.16999999999999993,cocktailshrimp,1982.4000000059605,1982,1982.800000011921,True,i,140727.89999997616,2494.5,1669830266124,2494,HRV,HRV_0007,2022-11-30 17:47:10
80,"[{'imgObject': {}, 'id': 'sweetpotato', 'src': '/static/foodstim60/sweetpotato.jpg', 'key': 'u', 'origWidth': 410, 'origHeight': 410, 'width': 410, 'height': 410, 'widthPercent': 0.45, 'rescaleHeight': False, 'trialN': 80, 'loaded': True, 'loadedTime': 2473.199999988079, 'positionName': 'LEFT', 'positionCoords': [511.6, 335], 'bid': 3.82}, {'imgObject': {}, 'id': 'veggieswithdip', 'src': '/static/foodstim60/veggieswithdip.jpg', 'key': 'i', 'origWidth': 409, 'origHeight': 409, 'width': 409, 'height': 409, 'widthPercent': 0.45, 'rescaleHeight': False, 'trialN': 80, 'loaded': True, 'loadedTime': 2517.0999999940395, 'positionName': 'RIGHT', 'positionCoords': [998.4, 335.5], 'bid': 3.17}]",140728.09999999404,1669830266124,sweetpotato,veggieswithdip,3.82,3.17,-0.6499999999999999,sweetpotato,1383.0,1383,1383.2999999821186,True,u,142630.59999999404,1902.5,1669830268027,1903,HRV,HRV_0007,2022-11-30 17:47:10
81,"[{'imgObject': {}, 'id': 'blackbeanswithrice', 'src': '/static/foodstim60/blackbeanswithrice.jpg', 'key': 'u', 'origWidth': 410, 'origHeight': 410, 'width': 410, 'height': 410, 'widthPercent': 0.45, 'rescaleHeight': False, 'trialN': 81, 'loaded': True, 'loadedTime': 2447.199999988079, 'positionName': 'LEFT', 'positionCoords': [511.6, 335], 'bid': 4.3100000000000005}, {'imgObject': {}, 'id': 'fruitsalad', 'src': '/static/foodstim60/fruitsalad.jpg', 'key': 'i', 'origWidth': 410, 'origHeight': 410, 'width': 410, 'height': 410, 'widthPercent': 0.45, 'rescaleHeight': False, 'trialN': 81, 'loaded': True, 'loadedTime': 2539.5, 'positionName': 'RIGHT', 'positionCoords': [998.4, 335], 'bid': 3.73}]",142630.79999998212,1669830268027,blackbeanswithrice,fruitsalad,4.3100000000000005,3.73,-0.5800000000000005,fruitsalad,888.5,889,888.7000000178814,True,i,144028.19999998808,1397.4000000059605,1669830269424,1397,HRV,HRV_0007,2022-11-30 17:47:10
82,"[{'imgObject': {}, 'id': 'burger', 'src': '/static/foodstim60/burger.jpg', 'key': 'u', 'origWidth': 409, 'origHeight': 409, 'width': 409, 'height': 409, 'widthPercent': 0.45, 'rescaleHeight': False, 'trialN': 82, 'loaded': True, 'loadedTime': 2540.0999999940395, 'positionName': 'LEFT', 'positionCoords': [512.6, 335.5], 'bid': 4.15}, {'imgObject': {}, 'id': 'cherries', 'src': '/static/foodstim60/cherries.jpg', 'key': 'i', 'origWidth': 410, 'origHeight': 411, 'width': 410, 'height': 411, 'widthPercent': 0.45, 'rescaleHeight': False, 'trialN': 82, 'loaded': True, 'loadedTime': 2544.2999999821186, 'positionName': 'RIGHT', 'positionCoords': [998.4, 334.5], 'bid': 3.96}]",144028.5,1669830269425,burger,cherries,4.15,3.96,-0.1900000000000004,burger,1003.5,1004,1004.0999999940395,True,u,145536.19999998808,1507.699999988079,1669830270932,1507,HRV,HRV_0007,2022-11-30 17:47:10
83,"[{'imgObject': {}, 'id': 'chicken nuggets2', 'src': '/static/foodstim60/chicken nuggets2.jpg', 'key': 'u', 'origWidth': 410, 'origHeight': 409, 'width': 410, 'height': 409, 'widthPercent': 0.45, 'rescaleHeight': False, 'trialN': 83, 'loaded': True, 'loadedTime': 2544.2999999821186, 'positionName': 'LEFT', 'positionCoords': [511.6, 335.5], 'bid': 5.64}, {'imgObject': {}, 'id': 'lox', 'src': '/static/foodstim60/lox.jpg', 'key': 'i', 'origWidth': 410, 'origHeight': 411, 'width': 410, 'height': 411, 'widthPercent': 0.45, 'rescaleHeight': False, 'trialN': 83, 'loaded': True, 'loadedTime': 2522.0999999940395, 'positionName': 'RIGHT', 'positionCoords': [998.4, 334.5], 'bid': 9.17}]",145536.29999998212,1669830270933,chicken nuggets2,lox,5.64,9.17,3.5300000000000002,lox,879.4000000059605,879,879.8000000119209,True,i,146930.39999997616,1394.0999999940395,1669830272327,1394,HRV,HRV_0007,2022-11-30 17:47:10
84,"[{'imgObject': {}, 'id': 'cherries', 'src': '/static/foodstim60/cherries.jpg', 'key': 'u', 'origWidth': 410, 'origHeight': 411, 'width': 410, 'height': 411, 'widthPercent': 0.45, 'rescaleHeight': False, 'trialN': 84, 'loaded': True, 'loadedTime': 2544.2999999821186, 'positionName': 'LEFT', 'positionCoords': [511.6, 334.5], 'bid': 3.96}, {'imgObject': {}, 'id': 'fried eggs', 'src': '/static/foodstim60/fried eggs.jpg', 'key': 'i', 'origWidth': 410, 'origHeight': 410, 'width': 410, 'height': 410, 'widthPercent': 0.45, 'rescaleHeight': False, 'trialN': 84, 'loaded': True, 'loadedTime': 2490.7999999821186, 'positionName': 'RIGHT', 'positionCoords': [998.4, 335], 'bid': 3.41}]",146930.5,1669830272327,cherries,fried eggs,3.96,3.41,-0.5499999999999998,fried eggs,1957.699999988079,1958,1958.199999988079,True,i,149402.5,2472.0,1669830274799,2472,HRV,HRV_0007,2022-11-30 17:47:10
85,"[{'imgObject': {}, 'id': 'olives', 'src': '/static/foodstim60/olives.jpg', 'key': 'u', 'origWidth': 410, 'origHeight': 410, 'width': 410, 'height': 410, 'widthPercent': 0.45, 'rescaleHeight': False, 'trialN': 85, 'loaded': True, 'loadedTime': 2541.0999999940395, 'positionName': 'LEFT', 'positionCoords': [511.6, 335], 'bid': 1.65}, {'imgObject': {}, 'id': 'cherry tomato', 'src': '/static/foodstim60/cherry tomato.jpg', 'key': 'i', 'origWidth': 410, 'origHeight': 410, 'width': 410, 'height': 410, 'widthPercent': 0.45, 'rescaleHeight': False, 'trialN': 85, 'loaded': True, 'loadedTime': 2535.5, 'positionName': 'RIGHT', 'positionCoords': [998.4, 335], 'bid': 0.62}]",149402.89999997616,1669830274799,olives,cherry tomato,1.65,0.62,-1.0299999999999998,olives,837.2000000178814,838,837.7000000178814,True,u,150751.29999998212,1348.4000000059605,1669830276147,1348,HRV,HRV_0007,2022-11-30 17:47:10
86,"[{'imgObject': {}, 'id': 'hotdog w must', 'src': '/static/foodstim60/hotdog w must.jpg', 'key': 'u', 'origWidth': 409, 'origHeight': 409, 'width': 409, 'height': 409, 'widthPercent': 0.45, 'rescaleHeight': False, 'trialN': 86, 'loaded': True, 'loadedTime': 2545.2999999821186, 'positionName': 'LEFT', 'positionCoords': [512.6, 335.5], 'bid': 3.43}, {'imgObject': {}, 'id': 'roastedpotatoes', 'src': '/static/foodstim60/roastedpotatoes.jpg', 'key': 'i', 'origWidth': 409, 'origHeight': 410, 'width': 409, 'height': 410, 'widthPercent': 0.45, 'rescaleHeight': False, 'trialN': 86, 'loaded': True, 'loadedTime': 2499.5999999940395, 'positionName': 'RIGHT', 'positionCoords': [998.4, 335], 'bid': 6.59}]",150751.59999999404,1669830276148,hotdog w must,roastedpotatoes,3.43,6.59,3.1599999999999997,roastedpotatoes,919.6999999880791,920,919.7999999821186,True,i,152177.09999999404,1425.5,1669830277573,1425,HRV,HRV_0007,2022-11-30 17:47:10
87,"[{'imgObject': {}, 'id': 'mashed potato', 'src': '/static/foodstim60/mashed potato.jpg', 'key': 'u', 'origWidth': 409, 'origHeight': 409, 'width': 409, 'height': 409, 'widthPercent': 0.45, 'rescaleHeight': False, 'trialN': 87, 'loaded': True, 'loadedTime': 2529.5, 'positionName': 'LEFT', 'positionCoords': [512.6, 335.5], 'bid': 5.54}, {'imgObject': {}, 'id': 'chicken nuggets2', 'src': '/static/foodstim60/chicken nuggets2.jpg', 'key': 'i', 'origWidth': 410, 'origHeight': 409, 'width': 410, 'height': 409, 'widthPercent': 0.45, 'rescaleHeight': False, 'trialN': 87, 'loaded': True, 'loadedTime': 2544.899999976158, 'positionName': 'RIGHT', 'positionCoords': [998.4, 335.5], 'bid': 5.64}]",152177.19999998808,1669830277573,mashed potato,chicken nuggets2,5.54,5.64,0.09999999999999964,chicken nuggets2,758.0999999940395,759,758.4000000059605,True,i,153446.0,1268.800000011921,1669830278842,1269,HRV,HRV_0007,2022-11-30 17:47:10
88,"[{'imgObject': {}, 'id': 'banana', 'src': '/static/foodstim60/banana.jpg', 'key': 'u', 'origWidth': 410, 'origHeight': 410, 'width': 410, 'height': 410, 'widthPercent': 0.45, 'rescaleHeight': False, 'trialN': 88, 'loaded': True, 'loadedTime': 2531.0999999940395, 'positionName': 'LEFT', 'positionCoords': [511.6, 335], 'bid': 2.33}, {'imgObject': {}, 'id': 'yogurt no spoon', 'src': '/static/foodstim60/yogurt no spoon.jpg', 'key': 'i', 'origWidth': 411, 'origHeight': 410, 'width': 411, 'height': 410, 'widthPercent': 0.45, 'rescaleHeight': False, 'trialN': 88, 'loaded': True, 'loadedTime': 2528.199999988079, 'positionName': 'RIGHT', 'positionCoords': [998.4, 335], 'bid': 4.8100000000000005}]",153446.19999998808,1669830278842,banana,yogurt no spoon,2.33,4.8100000000000005,2.4800000000000004,yogurt no spoon,1146.0999999940395,1147,1146.699999988079,True,i,155100.5,1654.300000011921,1669830280497,1655,HRV,HRV_0007,2022-11-30 17:47:10
89,"[{'imgObject': {}, 'id': 'baked potato', 'src': '/static/foodstim60/baked potato.jpg', 'key': 'u', 'origWidth': 409, 'origHeight': 410, 'width': 409, 'height': 410, 'widthPercent': 0.45, 'rescaleHeight': False, 'trialN': 89, 'loaded': True, 'loadedTime': 2508.2999999821186, 'positionName': 'LEFT', 'positionCoords': [512.6, 335], 'bid': 6.73}, {'imgObject': {}, 'id': 'bagel and cc', 'src': '/static/foodstim60/bagel and cc.jpg', 'key': 'i', 'origWidth': 410, 'origHeight': 410, 'width': 410, 'height': 410, 'widthPercent': 0.45, 'rescaleHeight': False, 'trialN': 89, 'loaded': True, 'loadedTime': 2430.199999988079, 'positionName': 'RIGHT', 'positionCoords': [998.4, 335], 'bid': 9.13}]",155100.79999998212,1669830280497,baked potato,bagel and cc,6.73,9.13,2.4000000000000004,bagel and cc,882.5999999940395,883,882.7000000178814,True,i,156499.39999997616,1398.5999999940395,1669830281895,1398,HRV,HRV_0007,2022-11-30 17:47:10
90,"[{'imgObject': {}, 'id': 'fried eggs', 'src': '/static/foodstim60/fried eggs.jpg', 'key': 'u', 'origWidth': 410, 'origHeight': 410, 'width': 410, 'height': 410, 'widthPercent': 0.45, 'rescaleHeight': False, 'trialN': 90, 'loaded': True, 'loadedTime': 2490.899999976158, 'positionName': 'LEFT', 'positionCoords': [511.6, 335], 'bid': 3.41}, {'imgObject': {}, 'id': 'turkey sandwich', 'src': '/static/foodstim60/turkey sandwich.jpg', 'key': 'i', 'origWidth': 409, 'origHeight': 409, 'width': 409, 'height': 409, 'widthPercent': 0.45, 'rescaleHeight': False, 'trialN': 90, 'loaded': True, 'loadedTime': 2522, 'positionName': 'RIGHT', 'positionCoords': [998.4, 335.5], 'bid': 6.44}]",159595.79999998212,1669830284992,fried eggs,turkey sandwich,3.41,6.44,3.0300000000000002,turkey sandwich,1747.800000011921,1748,1748.0999999940395,True,i,161853.69999998808,2257.9000000059605,1669830287250,2258,HRV,HRV_0007,2022-11-30 17:47:10
91,"[{'imgObject': {}, 'id': 'cocktailshrimp', 'src': '/static/foodstim60/cocktailshrimp.jpg', 'key': 'u', 'origWidth': 410, 'origHeight': 410, 'width': 410, 'height': 410, 'widthPercent': 0.45, 'rescaleHeight': False, 'trialN': 91, 'loaded': True, 'loadedTime': 2485.5, 'positionName': 'LEFT', 'positionCoords': [511.6, 335], 'bid': 2.32}, {'imgObject': {}, 'id': 'salmon', 'src': '/static/foodstim60/salmon.jpg', 'key': 'i', 'origWidth': 410, 'origHeight': 409, 'width': 410, 'height': 409, 'widthPercent': 0.45, 'rescaleHeight': False, 'trialN': 91, 'loaded': True, 'loadedTime': 2544.899999976158, 'positionName': 'RIGHT', 'positionCoords': [998.4, 335.5], 'bid': 3.47}]",161853.89999997616,1669830287250,cocktailshrimp,salmon,2.32,3.47,1.1500000000000004,salmon,1161.5,1162,1161.800000011921,True,i,163532.39999997616,1678.5,1669830288929,1679,HRV,HRV_0007,2022-11-30 17:47:10
92,"[{'imgObject': {}, 'id': 'cantaloupe', 'src': '/static/foodstim60/cantaloupe.jpg', 'key': 'u', 'origWidth': 409, 'origHeight': 409, 'width': 409, 'height': 409, 'widthPercent': 0.45, 'rescaleHeight': False, 'trialN': 92, 'loaded': True, 'loadedTime': 2538, 'positionName': 'LEFT', 'positionCoords': [512.6, 335.5], 'bid': 3.15}, {'imgObject': {}, 'id': 'seaweed', 'src': '/static/foodstim60/seaweed.jpg', 'key': 'i', 'origWidth': 410, 'origHeight': 410, 'width': 410, 'height': 410, 'widthPercent': 0.45, 'rescaleHeight': False, 'trialN': 92, 'loaded': True, 'loadedTime': 2536.699999988079, 'positionName': 'RIGHT', 'positionCoords': [998.4, 335], 'bid': 2.47}]",163532.59999999404,1669830288929,cantaloupe,seaweed,3.15,2.47,-0.6799999999999997,cantaloupe,947.5,948,948.0,True,u,164993.19999998808,1460.5999999940395,1669830290389,1460,HRV,HRV_0007,2022-11-30 17:47:10
93,"[{'imgObject': {}, 'id': 'salad w chicken', 'src': '/static/foodstim60/salad w chicken.jpg', 'key': 'u', 'origWidth': 411, 'origHeight': 411, 'width': 411, 'height': 411, 'widthPercent': 0.45, 'rescaleHeight': False, 'trialN': 93, 'loaded': True, 'loadedTime': 2543.7999999821186, 'positionName': 'LEFT', 'positionCoords': [510.6, 334.5], 'bid': 4.25}, {'imgObject': {}, 'id': 'salmon', 'src': '/static/foodstim60/salmon.jpg', 'key': 'i', 'origWidth': 410, 'origHeight': 409, 'width': 410, 'height': 409, 'widthPercent': 0.45, 'rescaleHeight': False, 'trialN': 93, 'loaded': True, 'loadedTime': 2545.2999999821186, 'positionName': 'RIGHT', 'positionCoords': [998.4, 335.5], 'bid': 3.47}]",164993.5,1669830290390,salad w chicken,salmon,4.25,3.47,-0.7799999999999998,salad w chicken,774.5999999940395,775,775.0999999940395,True,u,166274.09999999404,1280.5999999940395,1669830291670,1280,HRV,HRV_0007,2022-11-30 17:47:10
94,"[{'imgObject': {}, 'id': 'turkey sandwich', 'src': '/static/foodstim60/turkey sandwich.jpg', 'key': 'u', 'origWidth': 409, 'origHeight': 409, 'width': 409, 'height': 409, 'widthPercent': 0.45, 'rescaleHeight': False, 'trialN': 94, 'loaded': True, 'loadedTime': 2522, 'positionName': 'LEFT', 'positionCoords': [512.6, 335.5], 'bid': 6.44}, {'imgObject': {}, 'id': 'roastedpotatoes', 'src': '/static/foodstim60/roastedpotatoes.jpg', 'key': 'i', 'origWidth': 409, 'origHeight': 410, 'width': 409, 'height': 410, 'widthPercent': 0.45, 'rescaleHeight': False, 'trialN': 94, 'loaded': True, 'loadedTime': 2499.7999999821186, 'positionName': 'RIGHT', 'positionCoords': [998.4, 335], 'bid': 6.59}]",166274.09999999404,1669830291670,turkey sandwich,roastedpotatoes,6.44,6.59,0.14999999999999947,roastedpotatoes,781.4000000059605,782,781.6999999880791,True,i,167569.19999998808,1295.0999999940395,1669830292965,1295,HRV,HRV_0007,2022-11-30 17:47:10
95,"[{'imgObject': {}, 'id': 'salad w chicken', 'src': '/static/foodstim60/salad w chicken.jpg', 'key': 'u', 'origWidth': 411, 'origHeight': 411, 'width': 411, 'height': 411, 'widthPercent': 0.45, 'rescaleHeight': False, 'trialN': 95, 'loaded': True, 'loadedTime': 2543.2999999821186, 'positionName': 'LEFT', 'positionCoords': [510.6, 334.5], 'bid': 4.25}, {'imgObject': {}, 'id': 'tacos', 'src': '/static/foodstim60/tacos.jpg', 'key': 'i', 'origWidth': 411, 'origHeight': 411, 'width': 411, 'height': 411, 'widthPercent': 0.45, 'rescaleHeight': False, 'trialN': 95, 'loaded': True, 'loadedTime': 2527.199999988079, 'positionName': 'RIGHT', 'positionCoords': [998.4, 334.5], 'bid': 5.98}]",167569.19999998808,1669830292965,salad w chicken,tacos,4.25,5.98,1.7300000000000004,salad w chicken,807.6999999880791,809,808.3000000119209,True,u,168887.69999998808,1318.5,1669830294284,1319,HRV,HRV_0007,2022-11-30 17:47:10
96,"[{'imgObject': {}, 'id': 'sweetpotato', 'src': '/static/foodstim60/sweetpotato.jpg', 'key': 'u', 'origWidth': 410, 'origHeight': 410, 'width': 410, 'height': 410, 'widthPercent': 0.45, 'rescaleHeight': False, 'trialN': 96, 'loaded': True, 'loadedTime': 2476.699999988079, 'positionName': 'LEFT', 'positionCoords': [511.6, 335], 'bid': 3.82}, {'imgObject': {}, 'id': 'froot loops w milk', 'src': '/static/foodstim60/froot loops w milk.jpg', 'key': 'i', 'origWidth': 410, 'origHeight': 410, 'width': 410, 'height': 410, 'widthPercent': 0.45, 'rescaleHeight': False, 'trialN': 96, 'loaded': True, 'loadedTime': 2429.5, 'positionName': 'RIGHT', 'positionCoords': [998.4, 335], 'bid': 5.01}]",168888.09999999404,1669830294284,sweetpotato,froot loops w milk,3.82,5.01,1.19,sweetpotato,912.2999999821186,913,913.0,True,u,170313.39999997616,1425.2999999821186,1669830295710,1426,HRV,HRV_0007,2022-11-30 17:47:10
97,"[{'imgObject': {}, 'id': 'grilled chicken strips', 'src': '/static/foodstim60/grilled chicken strips.jpg', 'key': 'u', 'origWidth': 410, 'origHeight': 411, 'width': 410, 'height': 411, 'widthPercent': 0.45, 'rescaleHeight': False, 'trialN': 97, 'loaded': True, 'loadedTime': 2413.399999976158, 'positionName': 'LEFT', 'positionCoords': [511.6, 334.5], 'bid': 4.54}, {'imgObject': {}, 'id': 'cocktailshrimp', 'src': '/static/foodstim60/cocktailshrimp.jpg', 'key': 'i', 'origWidth': 410, 'origHeight': 410, 'width': 410, 'height': 410, 'widthPercent': 0.45, 'rescaleHeight': False, 'trialN': 97, 'loaded': True, 'loadedTime': 2485.199999988079, 'positionName': 'RIGHT', 'positionCoords': [998.4, 335], 'bid': 2.32}]",170313.5,1669830295710,grilled chicken strips,cocktailshrimp,4.54,2.32,-2.22,grilled chicken strips,974.0,974,974.3999999761581,True,u,171792.59999999404,1479.0999999940395,1669830297189,1479,HRV,HRV_0007,2022-11-30 17:47:10
98,"[{'imgObject': {}, 'id': 'shreddedwheatwithmilk', 'src': '/static/foodstim60/shreddedwheatwithmilk.jpg', 'key': 'u', 'origWidth': 410, 'origHeight': 410, 'width': 410, 'height': 410, 'widthPercent': 0.45, 'rescaleHeight': False, 'trialN': 98, 'loaded': True, 'loadedTime': 2517.5999999940395, 'positionName': 'LEFT', 'positionCoords': [511.6, 335], 'bid': 4.97}, {'imgObject': {}, 'id': 'strawberries', 'src': '/static/foodstim60/strawberries.jpg', 'key': 'i', 'origWidth': 410, 'origHeight': 410, 'width': 410, 'height': 410, 'widthPercent': 0.45, 'rescaleHeight': False, 'trialN': 98, 'loaded': True, 'loadedTime': 2432.7999999821186, 'positionName': 'RIGHT', 'positionCoords': [998.4, 335], 'bid': 2.48}]",171792.79999998212,1669830297189,shreddedwheatwithmilk,strawberries,4.97,2.48,-2.4899999999999998,strawberries,1623.2000000178814,1623,1623.5,True,i,173923.5,2130.7000000178814,1669830299320,2131,HRV,HRV_0007,2022-11-30 17:47:10
99,"[{'imgObject': {}, 'id': 'eggsalad', 'src': '/static/foodstim60/eggsalad.jpg', 'key': 'u', 'origWidth': 410, 'origHeight': 409, 'width': 410, 'height': 409, 'widthPercent': 0.45, 'rescaleHeight': False, 'trialN': 99, 'loaded': True, 'loadedTime': 2543.2999999821186, 'positionName': 'LEFT', 'positionCoords': [511.6, 335.5], 'bid': 2.13}, {'imgObject': {}, 'id': 'cocktailshrimp', 'src': '/static/foodstim60/cocktailshrimp.jpg', 'key': 'i', 'origWidth': 410, 'origHeight': 410, 'width': 410, 'height': 410, 'widthPercent': 0.45, 'rescaleHeight': False, 'trialN': 99, 'loaded': True, 'loadedTime': 2481.7999999821186, 'positionName': 'RIGHT', 'positionCoords': [998.4, 335], 'bid': 2.32}]",173923.59999999404,1669830299320,eggsalad,cocktailshrimp,2.13,2.32,0.18999999999999995,cocktailshrimp,1020.0999999940395,1020,1020.4000000059605,True,i,175463.19999998808,1539.5999999940395,1669830300859,1539,HRV,HRV_0007,2022-11-30 17:47:10
100,"[{'imgObject': {}, 'id': 'hotdog w must', 'src': '/static/foodstim60/hotdog w must.jpg', 'key': 'u', 'origWidth': 409, 'origHeight': 409, 'width': 409, 'height': 409, 'widthPercent': 0.45, 'rescaleHeight': False, 'trialN': 100, 'loaded': True, 'loadedTime': 2545.699999988079, 'positionName': 'LEFT', 'positionCoords': [512.6, 335.5], 'bid': 3.43}, {'imgObject': {}, 'id': 'fried eggs', 'src': '/static/foodstim60/fried eggs.jpg', 'key': 'i', 'origWidth': 410, 'origHeight': 410, 'width': 410, 'height': 410, 'widthPercent': 0.45, 'rescaleHeight': False, 'trialN': 100, 'loaded': True, 'loadedTime': 2491.2999999821186, 'positionName': 'RIGHT', 'positionCoords': [998.4, 335], 'bid': 3.41}]",175463.39999997616,1669830300860,hotdog w must,fried eggs,3.43,3.41,-0.020000000000000018,fried eggs,1106.9000000059605,1107,1107.2000000178814,True,i,177077.09999999404,1613.7000000178814,1669830302473,1613,HRV,HRV_0007,2022-11-30 17:47:10
101,"[{'imgObject': {}, 'id': 'lox', 'src': '/static/foodstim60/lox.jpg', 'key': 'u', 'origWidth': 410, 'origHeight': 411, 'width': 410, 'height': 411, 'widthPercent': 0.45, 'rescaleHeight': False, 'trialN': 101, 'loaded': True, 'loadedTime': 2526.5999999940395, 'positionName': 'LEFT', 'positionCoords': [511.6, 334.5], 'bid': 9.17}, {'imgObject': {}, 'id': 'bagel plain', 'src': '/static/foodstim60/bagel plain.jpg', 'key': 'i', 'origWidth': 410, 'origHeight': 410, 'width': 410, 'height': 410, 'widthPercent': 0.45, 'rescaleHeight': False, 'trialN': 101, 'loaded': True, 'loadedTime': 2508.899999976158, 'positionName': 'RIGHT', 'positionCoords': [998.4, 335], 'bid': 6.87}]",177077.39999997616,1669830302474,lox,bagel plain,9.17,6.87,-2.3,lox,1041.9000000059605,1042,1042.1000000238419,True,u,178638.19999998808,1560.800000011921,1669830304034,1560,HRV,HRV_0007,2022-11-30 17:47:10
102,"[{'imgObject': {}, 'id': 'raspberries', 'src': '/static/foodstim60/raspberries.jpg', 'key': 'u', 'origWidth': 411, 'origHeight': 411, 'width': 411, 'height': 411, 'widthPercent': 0.45, 'rescaleHeight': False, 'trialN': 102, 'loaded': True, 'loadedTime': 2422.899999976158, 'positionName': 'LEFT', 'positionCoords': [510.6, 334.5], 'bid': 3.82}, {'imgObject': {}, 'id': 'hotdog w must', 'src': '/static/foodstim60/hotdog w must.jpg', 'key': 'i', 'origWidth': 409, 'origHeight': 409, 'width': 409, 'height': 409, 'widthPercent': 0.45, 'rescaleHeight': False, 'trialN': 102, 'loaded': True, 'loadedTime': 2545.699999988079, 'positionName': 'RIGHT', 'positionCoords': [998.4, 335.5], 'bid': 3.43}]",178638.29999998212,1669830304034,raspberries,hotdog w must,3.82,3.43,-0.3899999999999997,raspberries,1041.300000011921,1042,1041.5,True,u,180189.79999998212,1551.5,1669830305586,1552,HRV,HRV_0007,2022-11-30 17:47:10
103,"[{'imgObject': {}, 'id': 'kiwi', 'src': '/static/foodstim60/kiwi.jpg', 'key': 'u', 'origWidth': 410, 'origHeight': 410, 'width': 410, 'height': 410, 'widthPercent': 0.45, 'rescaleHeight': False, 'trialN': 103, 'loaded': True, 'loadedTime': 2540.899999976158, 'positionName': 'LEFT', 'positionCoords': [511.6, 335], 'bid': 0.53}, {'imgObject': {}, 'id': 'orange slices', 'src': '/static/foodstim60/orange slices.jpg', 'key': 'i', 'origWidth': 409, 'origHeight': 410, 'width': 409, 'height': 410, 'widthPercent': 0.45, 'rescaleHeight': False, 'trialN': 103, 'loaded': True, 'loadedTime': 2423.7999999821186, 'positionName': 'RIGHT', 'positionCoords': [998.4, 335], 'bid': 1.81}]",180189.89999997616,1669830305586,kiwi,orange slices,0.53,1.81,1.28,orange slices,1033.5,1034,1033.800000011921,True,i,181730.29999998212,1540.4000000059605,1669830307126,1540,HRV,HRV_0007,2022-11-30 17:47:10
104,"[{'imgObject': {}, 'id': 'edamame', 'src': '/static/foodstim60/edamame.jpg', 'key': 'u', 'origWidth': 409, 'origHeight': 410, 'width': 409, 'height': 410, 'widthPercent': 0.45, 'rescaleHeight': False, 'trialN': 104, 'loaded': True, 'loadedTime': 2492.399999976158, 'positionName': 'LEFT', 'positionCoords': [512.6, 335], 'bid': 0.43}, {'imgObject': {}, 'id': 'cocktailshrimp', 'src': '/static/foodstim60/cocktailshrimp.jpg', 'key': 'i', 'origWidth': 410, 'origHeight': 410, 'width': 410, 'height': 410, 'widthPercent': 0.45, 'rescaleHeight': False, 'trialN': 104, 'loaded': True, 'loadedTime': 2481.2999999821186, 'positionName': 'RIGHT', 'positionCoords': [998.4, 335], 'bid': 2.32}]",181730.39999997616,1669830307127,edamame,cocktailshrimp,0.43,2.32,1.89,edamame,2319.100000023842,2319,2319.5,True,u,184556.19999998808,2825.800000011921,1669830309952,2825,HRV,HRV_0007,2022-11-30 17:47:10
105,"[{'imgObject': {}, 'id': 'omelette', 'src': '/static/foodstim60/omelette.jpg', 'key': 'u', 'origWidth': 410, 'origHeight': 409, 'width': 410, 'height': 409, 'widthPercent': 0.45, 'rescaleHeight': False, 'trialN': 105, 'loaded': True, 'loadedTime': 2430.199999988079, 'positionName': 'LEFT', 'positionCoords': [511.6, 335.5], 'bid': 3.08}, {'imgObject': {}, 'id': 'mashed potato', 'src': '/static/foodstim60/mashed potato.jpg', 'key': 'i', 'origWidth': 409, 'origHeight': 409, 'width': 409, 'height': 409, 'widthPercent': 0.45, 'rescaleHeight': False, 'trialN': 105, 'loaded': True, 'loadedTime': 2529.5, 'positionName': 'RIGHT', 'positionCoords': [998.4, 335.5], 'bid': 5.54}]",184556.29999998212,1669830309952,omelette,mashed potato,3.08,5.54,2.46,mashed potato,971.9000000059605,973,972.5,True,i,186041.29999998212,1485.0,1669830311438,1486,HRV,HRV_0007,2022-11-30 17:47:10
106,"[{'imgObject': {}, 'id': 'luckycharms', 'src': '/static/foodstim60/luckycharms.jpg', 'key': 'u', 'origWidth': 410, 'origHeight': 409, 'width': 410, 'height': 409, 'widthPercent': 0.45, 'rescaleHeight': False, 'trialN': 106, 'loaded': True, 'loadedTime': 2477.5999999940395, 'positionName': 'LEFT', 'positionCoords': [511.6, 335.5], 'bid': 4.8500000000000005}, {'imgObject': {}, 'id': 'yogurt no spoon', 'src': '/static/foodstim60/yogurt no spoon.jpg', 'key': 'i', 'origWidth': 411, 'origHeight': 410, 'width': 411, 'height': 410, 'widthPercent': 0.45, 'rescaleHeight': False, 'trialN': 106, 'loaded': True, 'loadedTime': 2528.399999976158, 'positionName': 'RIGHT', 'positionCoords': [998.4, 335], 'bid': 4.8100000000000005}]",186041.5,1669830311438,luckycharms,yogurt no spoon,4.8500000000000005,4.8100000000000005,-0.040000000000000036,yogurt no spoon,1669.8999999761581,1670,1670.2999999821186,True,i,188222.5,2181.0,1669830313619,2181,HRV,HRV_0007,2022-11-30 17:47:10
107,"[{'imgObject': {}, 'id': 'banana', 'src': '/static/foodstim60/banana.jpg', 'key': 'u', 'origWidth': 410, 'origHeight': 410, 'width': 410, 'height': 410, 'widthPercent': 0.45, 'rescaleHeight': False, 'trialN': 107, 'loaded': True, 'loadedTime': 2529.5999999940395, 'positionName': 'LEFT', 'positionCoords': [511.6, 335], 'bid': 2.33}, {'imgObject': {}, 'id': 'kiwi', 'src': '/static/foodstim60/kiwi.jpg', 'key': 'i', 'origWidth': 410, 'origHeight': 410, 'width': 410, 'height': 410, 'widthPercent': 0.45, 'rescaleHeight': False, 'trialN': 107, 'loaded': True, 'loadedTime': 2540.399999976158, 'positionName': 'RIGHT', 'positionCoords': [998.4, 335], 'bid': 0.53}]",188222.69999998808,1669830313619,banana,kiwi,2.33,0.53,-1.8,banana,1208.9000000059605,1209,1209.4000000059605,True,u,189943.69999998808,1721.0,1669830315340,1721,HRV,HRV_0007,2022-11-30 17:47:10
108,"[{'imgObject': {}, 'id': 'cantaloupe', 'src': '/static/foodstim60/cantaloupe.jpg', 'key': 'u', 'origWidth': 409, 'origHeight': 409, 'width': 409, 'height': 409, 'widthPercent': 0.45, 'rescaleHeight': False, 'trialN': 108, 'loaded': True, 'loadedTime': 2538.5, 'positionName': 'LEFT', 'positionCoords': [512.6, 335.5], 'bid': 3.15}, {'imgObject': {}, 'id': 'chicken nuggets2', 'src': '/static/foodstim60/chicken nuggets2.jpg', 'key': 'i', 'origWidth': 410, 'origHeight': 409, 'width': 410, 'height': 409, 'widthPercent': 0.45, 'rescaleHeight': False, 'trialN': 108, 'loaded': True, 'loadedTime': 2544.899999976158, 'positionName': 'RIGHT', 'positionCoords': [998.4, 335.5], 'bid': 5.64}]",189944.19999998808,1669830315340,cantaloupe,chicken nuggets2,3.15,5.64,2.4899999999999998,cantaloupe,2616.4000000059605,2618,2617.199999988079,True,u,193078.89999997616,3134.699999988079,1669830318475,3135,HRV,HRV_0007,2022-11-30 17:47:10
