success,trial_type,trial_index,time_elapsed,internal_node_id,Block,TrialNumber,TrialTime,trialTimeDiff,FPS_avg,FPS_med,FPS_mode,TrialDur,winResizeTime,rt,block,button_pressed,MotCoh,MotDir,ColCoh,Color,ChoiceKey,Choice,Accuracy,RT,nFrames,FPS,PPD,missTrial,missTrialMsg,onsetDelay,fullScreenExitTime,canvCenter,TrialType,Score,BlockTrial,stimulus,button_labels,exp,subjectId,date
True,fullscreen,0,3225,0.0-0.0,0.0,1.0,,,,,,,,,,,,,,,,,,,,,,,,,,,,,,,,HRV,HRV_0007,2022-11-30 17:58:21
,wl-check-fps,1,7228,0.0-1.0,0.0,2.0,"[3466.3, 3479.3, 3492.9, 3506, 3519.4, 3532.8, 3546.1, 3559.5, 3572.7, 3586.2, 3599.6, 3612.6, 3626, 3639.4, 3652.7, 3666.1, 3679.7, 3692.9, 3706.1, 3719.4, 3732.8, 3746.4, 3759.7, 3772.8, 3786.1, 3799.5, 3812.6, 3826.1, 3839.4, 3852.9, 3866.1, 3879.4, 3892.9, 3906, 3919.6, 3932.9, 3946.2, 3959.5, 3972.7, 3986.1, 3999.5, 4012.7, 4026, 4039.7, 4053.1, 4066, 4079.5, 4092.9, 4106.4, 4119.6, 4132.9, 4146.2, 4159.6, 4173, 4186.5, 4199.5, 4213.1, 4226.3, 4239.3, 4253.1, 4266.2, 4279.6, 4292.9, 4306.1, 4319.4, 4332.8, 4346.1, 4359.5, 4372.8, 4386.2, 4399.4, 4413.1, 4426.3, 4439.5, 4452.9, 4466.1, 4479.6, 4492.9, 4506.3, 4519.7, 4533.1, 4546.3, 4559.6, 4572.9, 4586.4, 4599.5, 4612.9, 4626.2, 4639.6, 4653, 4666.3, 4679.6, 4692.8, 4706.2, 4719.6, 4733, 4746.3, 4759.6, 4773.1, 4786.3, 4799.5, 4813.1, 4826.4, 4839.6, 4853.1, 4866.2, 4879.6, 4893.3, 4906.3, 4919.5, 4932.9, 4946.4, 4959.5, 4973, 4986.2, 4999.5, 5013, 5026.3, 5039.7, 5052.8, 5066.3, 5079.8, 5093, 5106.4, 5119.7, 5133.2, 5146.6, 5159.8, 5173.1, 5186.5, 5199.6, 5213, 5226.3, 5239.7, 5253.4, 5266.4, 5279.7, 5293, 5306.4, 5319.6, 5333, 5346.4, 5359.6, 5373, 5386.4, 5399.7, 5413, 5426.3, 5439.6, 5453, 5466.4, 5479.6, 5493, 5506.4, 5520, 5533.4, 5546.5, 5559.6, 5573, 5586.5, 5600.2, 5613.1, 5626.5, 5639.7, 5653.3, 5666.6, 5679.7, 5693.1, 5706.4, 5719.7, 5733.1, 5746.5, 5759.9, 5773.1, 5786.5, 5799.7, 5813.2, 5826.6, 5839.7, 5853.4, 5866.5, 5880, 5893.1, 5906.6, 5919.7, 5933.3, 5946.6, 5959.6, 5973.2, 5986.7, 5999.9, 6013.2, 6026.6, 6039.8, 6053.1, 6066.5, 6079.9, 6093.3, 6106.5, 6119.8, 6133.1, 6146.6, 6159.7, 6173.2, 6186.5, 6199.8, 6213.2, 6226.3, 6239.9, 6253.3, 6266.5, 6279.9, 6293.2, 6306.4, 6319.8, 6333.3, 6346.7, 6360, 6373.4, 6386.6, 6400, 6413.3, 6426.5, 6439.8, 6453.5, 6466.7, 6479.8, 6493.3, 6506.5, 6519.8, 6533.4, 6546.8, 6559.7, 6573.2, 6586.7, 6599.8, 6613.3, 6626.6, 6639.9, 6653.2, 6666.8, 6679.9, 6693.1, 6706.6, 6720, 6733.5, 6746.7, 6760.2, 6773.3, 6786.5, 6799.9, 6813.4, 6826.6, 6839.9, 6853.2, 6866.6, 6879.9, 6893.2, 6906.7, 6920, 6933.5, 6946.8, 6960.1, 6973.5, 6986.7, 7000.2, 7013.4, 7026.6, 7040.1, 7053.1, 7066.6, 7080, 7093.3, 7106.6, 7120, 7133.5, 7146.6, 7160.1, 7173.3, 7186.5, 7200.1, 7213.4, 7226.6, 7240, 7253.3, 7266.7, 7280, 7293.3, 7306.6, 7320.1, 7333.4, 7346.8, 7360.1, 7373.3, 7386.6, 7400.1, 7413.4, 7426.6, 7440, 7453.6]","[0.6, 13, 13.6, 13.1, 13.4, 13.4, 13.3, 13.4, 13.2, 13.5, 13.4, 13, 13.4, 13.4, 13.3, 13.4, 13.6, 13.2, 13.2, 13.3, 13.4, 13.6, 13.3, 13.1, 13.3, 13.4, 13.1, 13.5, 13.3, 13.5, 13.2, 13.3, 13.5, 13.1, 13.6, 13.3, 13.3, 13.3, 13.2, 13.4, 13.4, 13.2, 13.3, 13.7, 13.4, 12.9, 13.5, 13.4, 13.5, 13.2, 13.3, 13.3, 13.4, 13.4, 13.5, 13, 13.6, 13.2, 13, 13.8, 13.1, 13.4, 13.3, 13.2, 13.3, 13.4, 13.3, 13.4, 13.3, 13.4, 13.2, 13.7, 13.2, 13.2, 13.4, 13.2, 13.5, 13.3, 13.4, 13.4, 13.4, 13.2, 13.3, 13.3, 13.5, 13.1, 13.4, 13.3, 13.4, 13.4, 13.3, 13.3, 13.2, 13.4, 13.4, 13.4, 13.3, 13.3, 13.5, 13.2, 13.2, 13.6, 13.3, 13.2, 13.5, 13.1, 13.4, 13.7, 13, 13.2, 13.4, 13.5, 13.1, 13.5, 13.2, 13.3, 13.5, 13.3, 13.4, 13.1, 13.5, 13.5, 13.2, 13.4, 13.3, 13.5, 13.4, 13.2, 13.3, 13.4, 13.1, 13.4, 13.3, 13.4, 13.7, 13, 13.3, 13.3, 13.4, 13.2, 13.4, 13.4, 13.2, 13.4, 13.4, 13.3, 13.3, 13.3, 13.3, 13.4, 13.4, 13.2, 13.4, 13.4, 13.6, 13.4, 13.1, 13.1, 13.4, 13.5, 13.7, 12.9, 13.4, 13.2, 13.6, 13.3, 13.1, 13.4, 13.3, 13.3, 13.4, 13.4, 13.4, 13.2, 13.4, 13.2, 13.5, 13.4, 13.1, 13.7, 13.1, 13.5, 13.1, 13.5, 13.1, 13.6, 13.3, 13, 13.6, 13.5, 13.2, 13.3, 13.4, 13.2, 13.3, 13.4, 13.4, 13.4, 13.2, 13.3, 13.3, 13.5, 13.1, 13.5, 13.3, 13.3, 13.4, 13.1, 13.6, 13.4, 13.2, 13.4, 13.3, 13.2, 13.4, 13.5, 13.4, 13.3, 13.4, 13.2, 13.4, 13.3, 13.2, 13.3, 13.7, 13.2, 13.1, 13.5, 13.2, 13.3, 13.6, 13.4, 12.9, 13.5, 13.5, 13.1, 13.5, 13.3, 13.3, 13.3, 13.6, 13.1, 13.2, 13.5, 13.4, 13.5, 13.2, 13.5, 13.1, 13.2, 13.4, 13.5, 13.2, 13.3, 13.3, 13.4, 13.3, 13.3, 13.5, 13.3, 13.5, 13.3, 13.3, 13.4, 13.2, 13.5, 13.2, 13.2, 13.5, 13, 13.5, 13.4, 13.3, 13.3, 13.4, 13.5, 13.1, 13.5, 13.2, 13.2, 13.6, 13.3, 13.2, 13.4, 13.3, 13.4, 13.3, 13.3, 13.3, 13.5, 13.3, 13.4, 13.3, 13.2, 13.3, 13.5, 13.3, 13.2, 13.4, 13.6]",75.0,75.0,75.0,4001.1,[],,,,,,,,,,,,,,,,,,,,,,,,,HRV,HRV_0007,2022-11-30 17:58:21
,wl-html-keyboard-response,2,33043,0.0-2.0-0.0,0.0,3.0,,,,,,,,23802.899999976158,0.0,0,,,,,,,,,,,,,,,,,,,,,,HRV,HRV_0007,2022-11-30 17:58:21
,wl-rdm,3,42075,0.0-3.0-0.0,0.0,4.0,,,,,,,[],,,,0.0,0.0,87.9,0.0,u,0.0,True,3490.5999999940395,262.0,75.0,40.0,False,,3000.0,[],"[960, 540]",ColorTask_Demo,,,,,HRV,HRV_0007,2022-11-30 17:58:21
,wl-rdm,4,47222,0.0-3.0-1.0,0.0,5.0,,,,,,,[],,,,0.0,0.0,87.9,1.0,i,1.0,True,1089.199999988079,82.0,75.0,40.0,False,,2000.0,[],"[960, 540]",ColorTask_Demo,,,,,HRV,HRV_0007,2022-11-30 17:58:21
,wl-html-keyboard-response,5,53930,0.0-3.0-2.0,0.0,6.0,,,,,,,,4698.600000023842,0.0,1,,,,,,,,,,,,,,,,,,,,,,HRV,HRV_0007,2022-11-30 17:58:21
,wl-html-keyboard-response,6,64150,0.0-4.0-0.0,0.0,7.0,,,,,,,,8198.5,0.0,0,,,,,,,,,,,,,,,,,,,,,,HRV,HRV_0007,2022-11-30 17:58:21
,wl-html-keyboard-response,7,101723,0.0-5.0-0.0,0.0,8.0,,,,,,,,35563.09999999404,0.0,0,,,,,,,,,,,,,,,,,,,,,,HRV,HRV_0007,2022-11-30 17:58:21
,wl-rdm,8,104727,0.0-6.0-0.0,0.0,9.0,,,,,,,[],,,,,,87.9,1.0,i,1.0,True,1548.5999999940395,117.0,75.0,40.0,False,,398.16369142592663,[],"[960, 540]",ColorTask,1.0,1.0,,,HRV,HRV_0007,2022-11-30 17:58:21
,wl-rdm,9,107007,0.0-6.1-0.1,0.0,10.0,,,,,,,[],,,,,,87.9,0.0,u,0.0,True,1008.5,76.0,75.0,40.0,False,,217.55353355537463,[],"[960, 540]",ColorTask,2.0,2.0,,,HRV,HRV_0007,2022-11-30 17:58:21
,wl-rdm,10,109288,0.0-6.2-0.2,0.0,11.0,,,,,,,[],,,,,,87.9,0.0,u,0.0,True,927.9000000059605,70.0,75.0,40.0,False,,295.64504309702863,[],"[960, 540]",ColorTask,3.0,3.0,,,HRV,HRV_0007,2022-11-30 17:58:21
,wl-rdm,11,112222,0.0-6.3-0.3,0.0,12.0,,,,,,,[],,,,,,53.2,0.0,i,1.0,False,1556.3999999761581,117.0,75.0,40.0,False,,329.9321857025728,[],"[960, 540]",ColorTask,2.0,4.0,,,HRV,HRV_0007,2022-11-30 17:58:21
,wl-rdm,12,115102,0.0-6.4-0.4,0.0,13.0,,,,,,,[],,,,,,73.6,1.0,i,1.0,True,1609.7000000178814,121.0,75.0,40.0,False,,213.40192090465834,[],"[960, 540]",ColorTask,3.0,5.0,,,HRV,HRV_0007,2022-11-30 17:58:21
,wl-rdm,13,117223,0.0-6.5-0.5,0.0,14.0,,,,,,,[],,,,,,87.9,1.0,i,1.0,True,742.9000000059605,56.0,75.0,40.0,False,,325.4455390645279,[],"[960, 540]",ColorTask,4.0,6.0,,,HRV,HRV_0007,2022-11-30 17:58:21
,wl-rdm,14,120437,0.0-6.6-0.6,0.0,15.0,,,,,,,[],,,,,,56.4,0.0,u,0.0,True,1869.4000000059605,141.0,75.0,40.0,False,,291.35721943192567,[],"[960, 540]",ColorTask,5.0,7.0,,,HRV,HRV_0007,2022-11-30 17:58:21
,wl-rdm,15,122397,0.0-6.7-0.7,0.0,16.0,,,,,,,[],,,,,,87.9,1.0,i,1.0,True,638.0999999940395,48.0,75.0,40.0,False,,268.0670606436429,[],"[960, 540]",ColorTask,6.0,8.0,,,HRV,HRV_0007,2022-11-30 17:58:21
,wl-rdm,16,124931,0.0-6.8-0.8,0.0,17.0,,,,,,,[],,,,,,56.4,0.0,i,1.0,False,1244.5000000298023,94.0,75.0,40.0,False,,232.70743540886934,[],"[960, 540]",ColorTask,5.0,9.0,,,HRV,HRV_0007,2022-11-30 17:58:21
,wl-rdm,17,127758,0.0-6.9-0.9,0.0,18.0,,,,,,,[],,,,,,50.0,1.0,u,0.0,False,1534.5,116.0,75.0,40.0,False,,228.78959510857644,[],"[960, 540]",ColorTask,4.0,10.0,,,HRV,HRV_0007,2022-11-30 17:58:21
,wl-rdm,18,130118,0.0-6.10-0.10,0.0,19.0,,,,,,,[],,,,,,73.6,1.0,i,1.0,True,975.6000000238419,74.0,75.0,40.0,False,,330.5985721706867,[],"[960, 540]",ColorTask,5.0,11.0,,,HRV,HRV_0007,2022-11-30 17:58:21
,wl-rdm,19,132173,0.0-6.11-0.11,0.0,20.0,,,,,,,[],,,,,,56.4,1.0,i,1.0,True,744.8000000119209,56.0,75.0,40.0,False,,260.282470559701,[],"[960, 540]",ColorTask,6.0,12.0,,,HRV,HRV_0007,2022-11-30 17:58:21
,wl-rdm,20,135413,0.0-6.12-0.12,0.0,21.0,,,,,,,[],,,,,,56.4,1.0,i,1.0,True,1816.800000011921,137.0,75.0,40.0,False,,364.51529027789184,[],"[960, 540]",ColorTask,7.0,13.0,,,HRV,HRV_0007,2022-11-30 17:58:21
,wl-rdm,21,138027,0.0-6.13-0.13,0.0,22.0,,,,,,,[],,,,,,50.0,0.0,u,0.0,True,1200.0,90.0,75.0,40.0,False,,362.77007830942193,[],"[960, 540]",ColorTask,8.0,14.0,,,HRV,HRV_0007,2022-11-30 17:58:21
,wl-rdm,22,140321,0.0-6.14-0.14,0.0,23.0,,,,,,,[],,,,,,62.5,1.0,i,1.0,True,953.8999999761581,72.0,75.0,40.0,False,,292.4447305043819,[],"[960, 540]",ColorTask,9.0,15.0,,,HRV,HRV_0007,2022-11-30 17:58:21
,wl-rdm,23,142801,0.0-6.15-0.15,0.0,24.0,,,,,,,[],,,,,,62.5,0.0,u,0.0,True,1167.199999988079,88.0,75.0,40.0,False,,264.27011505777773,[],"[960, 540]",ColorTask,10.0,16.0,,,HRV,HRV_0007,2022-11-30 17:58:21
,wl-rdm,24,145148,0.0-6.16-0.16,0.0,25.0,,,,,,,[],,,,,,50.0,1.0,u,0.0,False,1083.800000011921,82.0,75.0,40.0,False,,204.2711856027623,[],"[960, 540]",ColorTask,9.0,17.0,,,HRV,HRV_0007,2022-11-30 17:58:21
,wl-rdm,25,147762,0.0-6.17-0.17,0.0,26.0,,,,,,,[],,,,,,73.6,0.0,u,0.0,True,1273.3999999761581,96.0,75.0,40.0,False,,283.93344195150723,[],"[960, 540]",ColorTask,10.0,18.0,,,HRV,HRV_0007,2022-11-30 17:58:21
,wl-rdm,26,149749,0.0-6.18-0.18,0.0,27.0,,,,,,,[],,,,,,73.6,1.0,i,1.0,True,570.0,43.0,75.0,40.0,False,,365.943877396193,[],"[960, 540]",ColorTask,11.0,19.0,,,HRV,HRV_0007,2022-11-30 17:58:21
,wl-rdm,27,151989,0.0-6.19-0.19,0.0,28.0,,,,,,,[],,,,,,50.0,0.0,u,0.0,True,976.2999999821186,74.0,75.0,40.0,False,,200.12161929038984,[],"[960, 540]",ColorTask,12.0,20.0,,,HRV,HRV_0007,2022-11-30 17:58:21
,wl-rdm,28,154697,0.0-6.20-0.20,0.0,29.0,,,,,,,[],,,,,,87.9,1.0,i,1.0,True,1380.0,104.0,75.0,40.0,False,,275.4515844917814,[],"[960, 540]",ColorTask,13.0,21.0,,,HRV,HRV_0007,2022-11-30 17:58:21
,wl-rdm,29,157924,0.0-6.21-0.21,0.0,30.0,,,,,,,[],,,,,,53.2,0.0,i,1.0,False,1790.2999999821186,135.0,75.0,40.0,False,,377.9165218774139,[],"[960, 540]",ColorTask,12.0,22.0,,,HRV,HRV_0007,2022-11-30 17:58:21
,wl-rdm,30,160645,0.0-6.22-0.22,0.0,31.0,,,,,,,[],,,,,,53.2,0.0,u,0.0,True,1331.2000000178814,100.0,75.0,40.0,False,,343.86522182611657,[],"[960, 540]",ColorTask,13.0,23.0,,,HRV,HRV_0007,2022-11-30 17:58:21
,wl-rdm,31,163432,0.0-6.23-0.23,0.0,32.0,,,,,,,[],,,,,,62.5,1.0,u,0.0,False,1407.5999999940395,106.0,75.0,40.0,False,,328.54652931628596,[],"[960, 540]",ColorTask,12.0,24.0,,,HRV,HRV_0007,2022-11-30 17:58:21
,wl-rdm,32,166605,0.0-6.24-0.24,0.0,33.0,,,,,,,[],,,,,,62.5,0.0,i,1.0,False,1810.0,136.0,75.0,40.0,False,,313.9316589885212,[],"[960, 540]",ColorTask,11.0,25.0,,,HRV,HRV_0007,2022-11-30 17:58:21
,wl-rdm,33,169739,0.0-6.25-0.25,0.0,34.0,,,,,,,[],,,,,,50.0,0.0,i,1.0,False,1698.2000000178814,128.0,75.0,40.0,False,,381.2280535466574,[],"[960, 540]",ColorTask,10.0,26.0,,,HRV,HRV_0007,2022-11-30 17:58:21
,wl-rdm,34,172580,0.0-6.26-0.26,0.0,35.0,,,,,,,[],,,,,,73.6,1.0,i,1.0,True,1545.699999988079,116.0,75.0,40.0,False,,252.4896037025251,[],"[960, 540]",ColorTask,11.0,27.0,,,HRV,HRV_0007,2022-11-30 17:58:21
,wl-rdm,35,174767,0.0-6.27-0.27,0.0,36.0,,,,,,,[],,,,,,87.9,1.0,i,1.0,True,734.5000000298023,56.0,75.0,40.0,False,,393.47819579779014,[],"[960, 540]",ColorTask,12.0,28.0,,,HRV,HRV_0007,2022-11-30 17:58:21
,wl-rdm,36,177181,0.0-6.28-0.28,0.0,37.0,,,,,,,[],,,,,,50.0,0.0,u,0.0,True,1136.2999999821186,86.0,75.0,40.0,False,,221.84251795393263,[],"[960, 540]",ColorTask,13.0,29.0,,,HRV,HRV_0007,2022-11-30 17:58:21
,wl-rdm,37,179528,0.0-6.29-0.29,0.0,38.0,,,,,,,[],,,,,,56.4,0.0,u,0.0,True,1033.5999999940395,78.0,75.0,40.0,False,,261.1769512430312,[],"[960, 540]",ColorTask,14.0,30.0,,,HRV,HRV_0007,2022-11-30 17:58:21
,wl-rdm,38,182968,0.0-6.30-0.30,0.0,39.0,,,,,,,[],,,,,,50.0,0.0,i,1.0,False,2007.699999988079,151.0,75.0,40.0,False,,379.0526982431427,[],"[960, 540]",ColorTask,13.0,31.0,,,HRV,HRV_0007,2022-11-30 17:58:21
,wl-rdm,39,185329,0.0-6.31-0.31,0.0,40.0,,,,,,,[],,,,,,53.2,0.0,u,0.0,True,979.4000000357628,74.0,75.0,40.0,False,,320.30006132610777,[],"[960, 540]",ColorTask,14.0,32.0,,,HRV,HRV_0007,2022-11-30 17:58:21
,wl-rdm,40,187689,0.0-6.32-0.32,0.0,41.0,,,,,,,[],,,,,,87.9,1.0,i,1.0,True,1019.0999999940395,77.0,75.0,40.0,False,,292.194087118969,[],"[960, 540]",ColorTask,15.0,33.0,,,HRV,HRV_0007,2022-11-30 17:58:21
,wl-rdm,41,189703,0.0-6.33-0.33,0.0,42.0,,,,,,,[],,,,,,50.0,0.0,i,1.0,False,747.3999999761581,57.0,75.0,40.0,False,,202.67362571566713,[],"[960, 540]",ColorTask,14.0,34.0,,,HRV,HRV_0007,2022-11-30 17:58:21
,wl-rdm,42,192197,0.0-6.34-0.34,0.0,43.0,,,,,,,[],,,,,,56.4,0.0,u,0.0,True,1210.699999988079,91.0,75.0,40.0,False,,235.4322684570394,[],"[960, 540]",ColorTask,15.0,35.0,,,HRV,HRV_0007,2022-11-30 17:58:21
,wl-rdm,43,194624,0.0-6.35-0.35,0.0,44.0,,,,,,,[],,,,,,56.4,1.0,i,1.0,True,1153.800000011921,87.0,75.0,40.0,False,,216.60429241873027,[],"[960, 540]",ColorTask,16.0,36.0,,,HRV,HRV_0007,2022-11-30 17:58:21
,wl-rdm,44,196798,0.0-6.36-0.36,0.0,45.0,,,,,,,[],,,,,,87.9,1.0,u,0.0,False,841.5,64.0,75.0,40.0,False,,267.8343479823968,[],"[960, 540]",ColorTask,15.0,37.0,,,HRV,HRV_0007,2022-11-30 17:58:21
,wl-rdm,45,199879,0.0-6.37-0.37,0.0,46.0,,,,,,,[],,,,,,62.5,1.0,i,1.0,True,1795.7000000178814,135.0,75.0,40.0,False,,227.91007163407988,[],"[960, 540]",ColorTask,16.0,38.0,,,HRV,HRV_0007,2022-11-30 17:58:21
,wl-rdm,46,202079,0.0-6.38-0.38,0.0,47.0,,,,,,,[],,,,,,73.6,0.0,u,0.0,True,915.1999999880791,69.0,75.0,40.0,False,,234.31061595481992,[],"[960, 540]",ColorTask,17.0,39.0,,,HRV,HRV_0007,2022-11-30 17:58:21
,wl-rdm,47,204773,0.0-6.39-0.39,0.0,48.0,,,,,,,[],,,,,,87.9,0.0,u,0.0,True,1424.5,107.0,75.0,40.0,False,,224.66756211219936,[],"[960, 540]",ColorTask,18.0,40.0,,,HRV,HRV_0007,2022-11-30 17:58:21
,wl-rdm,48,208214,0.0-6.40-0.40,0.0,49.0,,,,,,,[],,,,,,62.5,0.0,u,0.0,True,2023.5,152.0,75.0,40.0,False,,370.44071652826824,[],"[960, 540]",ColorTask,19.0,41.0,,,HRV,HRV_0007,2022-11-30 17:58:21
,wl-rdm,49,210601,0.0-6.41-0.41,0.0,50.0,,,,,,,[],,,,,,56.4,0.0,i,1.0,False,1007.1999999880791,76.0,75.0,40.0,False,,328.39130948026616,[],"[960, 540]",ColorTask,18.0,42.0,,,HRV,HRV_0007,2022-11-30 17:58:21
,wl-rdm,50,212814,0.0-6.42-0.42,0.0,51.0,,,,,,,[],,,,,,87.9,0.0,u,0.0,True,934.2000000178814,71.0,75.0,40.0,False,,225.9209184613295,[],"[960, 540]",ColorTask,19.0,43.0,,,HRV,HRV_0007,2022-11-30 17:58:21
,wl-rdm,51,216095,0.0-6.43-0.43,0.0,52.0,,,,,,,[],,,,,,56.4,0.0,u,0.0,True,1970.3000000417233,148.0,75.0,40.0,False,,255.50997503106677,[],"[960, 540]",ColorTask,20.0,44.0,,,HRV,HRV_0007,2022-11-30 17:58:21
,wl-rdm,52,218896,0.0-6.44-0.44,0.0,53.0,,,,,,,[],,,,,,56.4,1.0,i,1.0,True,1488.5,112.0,75.0,40.0,False,,265.267887513705,[],"[960, 540]",ColorTask,21.0,45.0,,,HRV,HRV_0007,2022-11-30 17:58:21
,wl-rdm,53,220989,0.0-6.45-0.45,0.0,54.0,,,,,,,[],,,,,,56.4,1.0,i,1.0,True,770.5,58.0,75.0,40.0,False,,279.9085330398021,[],"[960, 540]",ColorTask,22.0,46.0,,,HRV,HRV_0007,2022-11-30 17:58:21
,wl-rdm,54,222976,0.0-6.46-0.46,0.0,55.0,,,,,,,[],,,,,,53.2,0.0,i,1.0,False,686.7000000178814,52.0,75.0,40.0,False,,251.45420428824121,[],"[960, 540]",ColorTask,21.0,47.0,,,HRV,HRV_0007,2022-11-30 17:58:21
,wl-rdm,55,225217,0.0-6.47-0.47,0.0,56.0,,,,,,,[],,,,,,50.0,1.0,i,1.0,True,967.1000000238419,73.0,75.0,40.0,False,,225.9346931882933,[],"[960, 540]",ColorTask,22.0,48.0,,,HRV,HRV_0007,2022-11-30 17:58:21
,wl-rdm,56,227870,0.0-6.48-0.48,0.0,57.0,,,,,,,[],,,,,,73.6,1.0,i,1.0,True,1376.6000000238419,104.0,75.0,40.0,False,,221.5121535441366,[],"[960, 540]",ColorTask,23.0,49.0,,,HRV,HRV_0007,2022-11-30 17:58:21
,wl-rdm,57,230831,0.0-6.49-0.49,0.0,58.0,,,,,,,[],,,,,,53.2,0.0,u,0.0,True,1654.199999988079,125.0,75.0,40.0,False,,247.01094957334794,[],"[960, 540]",ColorTask,24.0,50.0,,,HRV,HRV_0007,2022-11-30 17:58:21
,wl-rdm,58,233285,0.0-6.50-0.50,0.0,59.0,,,,,,,[],,,,,,73.6,0.0,u,0.0,True,1091.5999999940395,82.0,75.0,40.0,False,,315.93295144926554,[],"[960, 540]",ColorTask,25.0,51.0,,,HRV,HRV_0007,2022-11-30 17:58:21
,wl-rdm,59,235379,0.0-6.51-0.51,0.0,60.0,,,,,,,[],,,,,,73.6,1.0,i,1.0,True,652.9000000059605,49.0,75.0,40.0,False,,390.8463431690093,[],"[960, 540]",ColorTask,26.0,52.0,,,HRV,HRV_0007,2022-11-30 17:58:21
,wl-rdm,60,237299,0.0-6.52-0.52,0.0,61.0,,,,,,,[],,,,,,53.2,1.0,i,1.0,True,626.5,47.0,75.0,40.0,False,,247.33124841365722,[],"[960, 540]",ColorTask,27.0,53.0,,,HRV,HRV_0007,2022-11-30 17:58:21
,wl-rdm,61,240139,0.0-6.53-0.53,0.0,62.0,,,,,,,[],,,,,,50.0,0.0,i,1.0,False,1577.800000011921,119.0,75.0,40.0,False,,213.14639782488985,[],"[960, 540]",ColorTask,26.0,54.0,,,HRV,HRV_0007,2022-11-30 17:58:21
,wl-rdm,62,242633,0.0-6.54-0.54,0.0,63.0,,,,,,,[],,,,,,53.2,0.0,u,0.0,True,1046.0999999940395,79.0,75.0,40.0,False,,394.1556472854136,[],"[960, 540]",ColorTask,27.0,55.0,,,HRV,HRV_0007,2022-11-30 17:58:21
,wl-rdm,63,244807,0.0-6.55-0.55,0.0,64.0,,,,,,,[],,,,,,87.9,1.0,u,0.0,False,760.8000000119209,58.0,75.0,40.0,False,,351.50975775305164,[],"[960, 540]",ColorTask,26.0,56.0,,,HRV,HRV_0007,2022-11-30 17:58:21
,wl-rdm,64,246847,0.0-6.56-0.56,0.0,65.0,,,,,,,[],,,,,,62.5,1.0,i,1.0,True,660.9000000059605,50.0,75.0,40.0,False,,332.59500168459374,[],"[960, 540]",ColorTask,27.0,57.0,,,HRV,HRV_0007,2022-11-30 17:58:21
,wl-rdm,65,248674,0.0-6.57-0.57,0.0,66.0,,,,,,,[],,,,,,50.0,1.0,i,1.0,True,565.0999999940395,43.0,75.0,40.0,False,,202.24035645977943,[],"[960, 540]",ColorTask,28.0,58.0,,,HRV,HRV_0007,2022-11-30 17:58:21
,wl-rdm,66,251608,0.0-6.58-0.58,0.0,67.0,,,,,,,[],,,,,,53.2,1.0,u,0.0,False,1675.199999988079,126.0,75.0,40.0,False,,208.42057853099791,[],"[960, 540]",ColorTask,27.0,59.0,,,HRV,HRV_0007,2022-11-30 17:58:21
,wl-rdm,67,253942,0.0-6.59-0.59,0.0,68.0,,,,,,,[],,,,,,73.6,0.0,u,0.0,True,1014.8000000119209,77.0,75.0,40.0,False,,257.1098493115047,[],"[960, 540]",ColorTask,28.0,60.0,,,HRV,HRV_0007,2022-11-30 17:58:21
,wl-rdm,68,257089,0.0-6.60-0.60,0.0,69.0,,,,,,,[],,,,,,53.2,1.0,i,1.0,True,1792.9000000059605,135.0,75.0,40.0,False,,295.3453955876423,[],"[960, 540]",ColorTask,29.0,61.0,,,HRV,HRV_0007,2022-11-30 17:58:21
,wl-rdm,69,259196,0.0-6.61-0.61,0.0,70.0,,,,,,,[],,,,,,73.6,0.0,u,0.0,True,843.1999999880791,64.0,75.0,40.0,False,,204.79917504202587,[],"[960, 540]",ColorTask,30.0,62.0,,,HRV,HRV_0007,2022-11-30 17:58:21
,wl-rdm,70,261624,0.0-6.62-0.62,0.0,71.0,,,,,,,[],,,,,,53.2,1.0,i,1.0,True,1148.4000000059605,87.0,75.0,40.0,False,,220.71392723814407,[],"[960, 540]",ColorTask,31.0,63.0,,,HRV,HRV_0007,2022-11-30 17:58:21
,wl-rdm,71,264010,0.0-6.63-0.63,0.0,72.0,,,,,,,[],,,,,,56.4,1.0,u,0.0,False,1125.199999988079,85.0,75.0,40.0,False,,201.48007743700433,[],"[960, 540]",ColorTask,30.0,64.0,,,HRV,HRV_0007,2022-11-30 17:58:21
,wl-rdm,72,266171,0.0-6.64-0.64,0.0,73.0,,,,,,,[],,,,,,73.6,1.0,i,1.0,True,759.3999999761581,57.0,75.0,40.0,False,,351.0371795466132,[],"[960, 540]",ColorTask,31.0,65.0,,,HRV,HRV_0007,2022-11-30 17:58:21
,wl-rdm,73,269078,0.0-6.65-0.65,0.0,74.0,,,,,,,[],,,,,,53.2,1.0,u,0.0,False,1521.3999999761581,115.0,75.0,40.0,False,,331.0213064683801,[],"[960, 540]",ColorTask,30.0,66.0,,,HRV,HRV_0007,2022-11-30 17:58:21
,wl-rdm,74,271759,0.0-6.66-0.66,0.0,75.0,,,,,,,[],,,,,,62.5,1.0,i,1.0,True,1294.199999988079,98.0,75.0,40.0,False,,333.20796620385124,[],"[960, 540]",ColorTask,31.0,67.0,,,HRV,HRV_0007,2022-11-30 17:58:21
,wl-rdm,75,274226,0.0-6.67-0.67,0.0,76.0,,,,,,,[],,,,,,50.0,0.0,i,1.0,False,1152.699999988079,87.0,75.0,40.0,False,,264.22944409902027,[],"[960, 540]",ColorTask,30.0,68.0,,,HRV,HRV_0007,2022-11-30 17:58:21
,wl-rdm,76,276667,0.0-6.68-0.68,0.0,77.0,,,,,,,[],,,,,,73.6,0.0,u,0.0,True,1018.1000000238419,77.0,75.0,40.0,False,,363.62560323314875,[],"[960, 540]",ColorTask,31.0,69.0,,,HRV,HRV_0007,2022-11-30 17:58:21
,wl-rdm,77,278960,0.0-6.69-0.69,0.0,78.0,,,,,,,[],,,,,,50.0,1.0,u,0.0,False,1020.5,77.0,75.0,40.0,False,,217.7505132789515,[],"[960, 540]",ColorTask,30.0,70.0,,,HRV,HRV_0007,2022-11-30 17:58:21
,wl-rdm,78,281374,0.0-6.70-0.70,0.0,79.0,,,,,,,[],,,,,,62.5,0.0,i,1.0,False,1062.7999999821186,80.0,75.0,40.0,False,,296.6696458182768,[],"[960, 540]",ColorTask,29.0,71.0,,,HRV,HRV_0007,2022-11-30 17:58:21
,wl-rdm,79,283881,0.0-6.71-0.71,0.0,80.0,,,,,,,[],,,,,,62.5,0.0,u,0.0,True,1166.800000011921,88.0,75.0,40.0,False,,291.5940128416277,[],"[960, 540]",ColorTask,30.0,72.0,,,HRV,HRV_0007,2022-11-30 17:58:21
,wl-rdm,80,286815,0.0-6.72-0.72,0.0,81.0,,,,,,,[],,,,,,53.2,1.0,u,0.0,False,1502.300000011921,113.0,75.0,40.0,False,,380.19331214130256,[],"[960, 540]",ColorTask,29.0,73.0,,,HRV,HRV_0007,2022-11-30 17:58:21
,wl-rdm,81,289549,0.0-6.73-0.73,0.0,82.0,,,,,,,[],,,,,,62.5,0.0,u,0.0,True,1450.9999999701977,109.0,75.0,40.0,False,,232.02754335653282,[],"[960, 540]",ColorTask,30.0,74.0,,,HRV,HRV_0007,2022-11-30 17:58:21
,wl-rdm,82,291989,0.0-6.74-0.74,0.0,83.0,,,,,,,[],,,,,,73.6,0.0,u,0.0,True,1175.0,89.0,75.0,40.0,False,,212.52693338017946,[],"[960, 540]",ColorTask,31.0,75.0,,,HRV,HRV_0007,2022-11-30 17:58:21
,wl-rdm,83,293976,0.0-6.75-0.75,0.0,84.0,,,,,,,[],,,,,,53.2,0.0,i,1.0,False,647.1999999880791,49.0,75.0,40.0,False,,288.5881197458435,[],"[960, 540]",ColorTask,30.0,76.0,,,HRV,HRV_0007,2022-11-30 17:58:21
,wl-rdm,84,296416,0.0-6.76-0.76,0.0,85.0,,,,,,,[],,,,,,56.4,1.0,i,1.0,True,1113.5,84.0,75.0,40.0,False,,270.0528503242281,[],"[960, 540]",ColorTask,31.0,77.0,,,HRV,HRV_0007,2022-11-30 17:58:21
,wl-rdm,85,298751,0.0-6.77-0.77,0.0,86.0,,,,,,,[],,,,,,62.5,1.0,i,1.0,True,935.9000000059605,71.0,75.0,40.0,False,,336.02145797147875,[],"[960, 540]",ColorTask,32.0,78.0,,,HRV,HRV_0007,2022-11-30 17:58:21
,wl-rdm,86,302311,0.0-6.78-0.78,0.0,87.0,,,,,,,[],,,,,,53.2,1.0,u,0.0,False,2148.2999999821186,162.0,75.0,40.0,False,,347.6084335356468,[],"[960, 540]",ColorTask,31.0,79.0,,,HRV,HRV_0007,2022-11-30 17:58:21
,wl-rdm,87,304645,0.0-6.79-0.79,0.0,88.0,,,,,,,[],,,,,,50.0,1.0,u,0.0,False,975.3000000119209,74.0,75.0,40.0,False,,306.4453489365999,[],"[960, 540]",ColorTask,30.0,80.0,,,HRV,HRV_0007,2022-11-30 17:58:21
,wl-rdm,88,307325,0.0-6.80-0.80,0.0,89.0,,,,,,,[],,,,,,50.0,1.0,i,1.0,True,1228.699999988079,93.0,75.0,40.0,False,,388.1739487886322,[],"[960, 540]",ColorTask,31.0,81.0,,,HRV,HRV_0007,2022-11-30 17:58:21
,wl-rdm,89,309166,0.0-6.81-0.81,0.0,90.0,,,,,,,[],,,,,,56.4,0.0,i,1.0,False,570.9999999701977,43.0,75.0,40.0,False,,214.43520755221385,[],"[960, 540]",ColorTask,30.0,82.0,,,HRV,HRV_0007,2022-11-30 17:58:21
,wl-rdm,90,311780,0.0-6.82-0.82,0.0,91.0,,,,,,,[],,,,,,56.4,1.0,i,1.0,True,1244.1000000238419,94.0,75.0,40.0,False,,313.3671510641849,[],"[960, 540]",ColorTask,31.0,83.0,,,HRV,HRV_0007,2022-11-30 17:58:21
,wl-rdm,91,314287,0.0-6.83-0.83,0.0,92.0,,,,,,,[],,,,,,73.6,0.0,u,0.0,True,1208.9000000059605,91.0,75.0,40.0,False,,245.65435741489347,[],"[960, 540]",ColorTask,32.0,84.0,,,HRV,HRV_0007,2022-11-30 17:58:21
,wl-rdm,92,316741,0.0-6.84-0.84,0.0,93.0,,,,,,,[],,,,,,50.0,1.0,i,1.0,True,1091.0999999940395,82.0,75.0,40.0,False,,308.48674819399037,[],"[960, 540]",ColorTask,33.0,85.0,,,HRV,HRV_0007,2022-11-30 17:58:21
,wl-rdm,93,319781,0.0-6.85-0.85,0.0,94.0,,,,,,,[],,,,,,62.5,1.0,i,1.0,True,1731.5,130.0,75.0,40.0,False,,255.1529758869105,[],"[960, 540]",ColorTask,34.0,86.0,,,HRV,HRV_0007,2022-11-30 17:58:21
,wl-rdm,94,322822,0.0-6.86-0.86,0.0,95.0,,,,,,,[],,,,,,50.0,1.0,i,1.0,True,1689.9000000059605,127.0,75.0,40.0,False,,301.9673717065475,[],"[960, 540]",ColorTask,35.0,87.0,,,HRV,HRV_0007,2022-11-30 17:58:21
,wl-rdm,95,324889,0.0-6.87-0.87,0.0,96.0,,,,,,,[],,,,,,87.9,0.0,u,0.0,True,766.6999999880791,58.0,75.0,40.0,False,,251.83938915938194,[],"[960, 540]",ColorTask,36.0,88.0,,,HRV,HRV_0007,2022-11-30 17:58:21
,wl-rdm,96,327183,0.0-6.88-0.88,0.0,97.0,,,,,,,[],,,,,,56.4,1.0,i,1.0,True,1035.9000000059605,78.0,75.0,40.0,False,,211.67120375684334,[],"[960, 540]",ColorTask,37.0,89.0,,,HRV,HRV_0007,2022-11-30 17:58:21
,wl-rdm,97,330330,0.0-6.89-0.89,0.0,98.0,,,,,,,[],,,,,,62.5,0.0,u,0.0,True,1726.9000000059605,130.0,75.0,40.0,False,,370.4754312389837,[],"[960, 540]",ColorTask,38.0,90.0,,,HRV,HRV_0007,2022-11-30 17:58:21
,wl-rdm,98,333477,0.0-6.90-0.90,0.0,99.0,,,,,,,[],,,,,,62.5,0.0,u,0.0,True,1842.7999999821186,139.0,75.0,40.0,False,,252.23037472053574,[],"[960, 540]",ColorTask,39.0,91.0,,,HRV,HRV_0007,2022-11-30 17:58:21
,wl-rdm,99,335545,0.0-6.91-0.91,0.0,100.0,,,,,,,[],,,,,,62.5,1.0,i,1.0,True,700.6999999880791,53.0,75.0,40.0,False,,307.55450809809804,[],"[960, 540]",ColorTask,40.0,92.0,,,HRV,HRV_0007,2022-11-30 17:58:21
,wl-rdm,100,338078,0.0-6.92-0.92,0.0,101.0,,,,,,,[],,,,,,73.6,0.0,u,0.0,True,1264.0,95.0,75.0,40.0,False,,224.3198971768114,[],"[960, 540]",ColorTask,41.0,93.0,,,HRV,HRV_0007,2022-11-30 17:58:21
,wl-rdm,101,340252,0.0-6.93-0.93,0.0,102.0,,,,,,,[],,,,,,87.9,0.0,u,0.0,True,905.5999999940395,68.0,75.0,40.0,False,,224.10366084418303,[],"[960, 540]",ColorTask,42.0,94.0,,,HRV,HRV_0007,2022-11-30 17:58:21
,wl-rdm,102,343252,0.0-6.94-0.94,0.0,103.0,,,,,,,[],,,,,,56.4,0.0,i,1.0,False,1697.0,128.0,75.0,40.0,False,,247.69184397498051,[],"[960, 540]",ColorTask,41.0,95.0,,,HRV,HRV_0007,2022-11-30 17:58:21
,wl-rdm,103,345506,0.0-6.95-0.95,0.0,104.0,,,,,,,[],,,,,,87.9,0.0,u,0.0,True,898.8999999761581,68.0,75.0,40.0,False,,298.06204674796993,[],"[960, 540]",ColorTask,42.0,96.0,,,HRV,HRV_0007,2022-11-30 17:58:21
,wl-rdm,104,348053,0.0-6.96-0.96,0.0,105.0,,,,,,,[],,,,,,53.2,1.0,i,1.0,True,1104.5999999940395,83.0,75.0,40.0,False,,399.39255504438586,[],"[960, 540]",ColorTask,43.0,97.0,,,HRV,HRV_0007,2022-11-30 17:58:21
,wl-rdm,105,350200,0.0-6.97-0.97,0.0,106.0,,,,,,,[],,,,,,87.9,0.0,u,0.0,True,820.3000000119209,62.0,75.0,40.0,False,,274.8793939244672,[],"[960, 540]",ColorTask,44.0,98.0,,,HRV,HRV_0007,2022-11-30 17:58:21
,wl-rdm,106,352974,0.0-6.98-0.98,0.0,107.0,,,,,,,[],,,,,,87.9,1.0,i,1.0,True,1415.199999988079,107.0,75.0,40.0,False,,295.4120720623125,[],"[960, 540]",ColorTask,45.0,99.0,,,HRV,HRV_0007,2022-11-30 17:58:21
,wl-rdm,107,355015,0.0-6.99-0.99,0.0,108.0,,,,,,,[],,,,,,73.6,1.0,i,1.0,True,721.0999999940395,55.0,75.0,40.0,False,,264.2001162614403,[],"[960, 540]",ColorTask,46.0,100.0,,,HRV,HRV_0007,2022-11-30 17:58:21
,wl-rdm,108,357295,0.0-6.100-0.100,0.0,109.0,,,,,,,[],,,,,,87.9,0.0,u,0.0,True,943.3000000119209,71.0,75.0,40.0,False,,286.3777805149581,[],"[960, 540]",ColorTask,47.0,101.0,,,HRV,HRV_0007,2022-11-30 17:58:21
,wl-rdm,109,360095,0.0-6.101-0.101,0.0,110.0,,,,,,,[],,,,,,62.5,1.0,i,1.0,True,1515.5,114.0,75.0,40.0,False,,228.92147053257895,[],"[960, 540]",ColorTask,48.0,102.0,,,HRV,HRV_0007,2022-11-30 17:58:21
,wl-rdm,110,363056,0.0-6.102-0.102,0.0,111.0,,,,,,,[],,,,,,56.4,0.0,u,0.0,True,1594.2000000178814,120.0,75.0,40.0,False,,317.0429068428182,[],"[960, 540]",ColorTask,49.0,103.0,,,HRV,HRV_0007,2022-11-30 17:58:21
,wl-rdm,111,365030,0.0-6.103-0.103,0.0,112.0,,,,,,,[],,,,,,53.2,1.0,i,1.0,True,655.6999999880791,50.0,75.0,40.0,False,,265.9301399964766,[],"[960, 540]",ColorTask,50.0,104.0,,,HRV,HRV_0007,2022-11-30 17:58:21
,wl-rdm,112,367017,0.0-6.104-0.104,0.0,113.0,,,,,,,[],,,,,,73.6,1.0,i,1.0,True,673.5,51.0,75.0,40.0,False,,255.491202971674,[],"[960, 540]",ColorTask,51.0,105.0,,,HRV,HRV_0007,2022-11-30 17:58:21
,wl-rdm,113,369351,0.0-6.105-0.105,0.0,114.0,,,,,,,[],,,,,,53.2,0.0,i,1.0,False,1054.0,80.0,75.0,40.0,False,,216.68808481346306,[],"[960, 540]",ColorTask,50.0,106.0,,,HRV,HRV_0007,2022-11-30 17:58:21
,wl-rdm,114,371645,0.0-6.106-0.106,0.0,115.0,,,,,,,[],,,,,,62.5,0.0,u,0.0,True,883.0999999940395,67.0,75.0,40.0,False,,349.4727537603168,[],"[960, 540]",ColorTask,51.0,107.0,,,HRV,HRV_0007,2022-11-30 17:58:21
,wl-rdm,115,373792,0.0-6.107-0.107,0.0,116.0,,,,,,,[],,,,,,50.0,0.0,i,1.0,False,707.4000000059605,54.0,75.0,40.0,False,,382.87047413602386,[],"[960, 540]",ColorTask,50.0,108.0,,,HRV,HRV_0007,2022-11-30 17:58:21
,wl-html-keyboard-response,116,412708,0.0-7.0-0.0,1.0,117.0,,,,,,,,36905.09999999404,1.0,0,,,,,,,,,,,,,,,,,,,,,,HRV,HRV_0007,2022-11-30 17:58:21
,wl-rdm,117,415520,0.0-8.0-0.0,1.0,118.0,,,,,,,[],,,,,,56.4,0.0,u,0.0,True,1454.6000000238419,110.0,75.0,40.0,False,,299.9734420696635,[],"[960, 540]",ColorTask,51.0,1.0,,,HRV,HRV_0007,2022-11-30 17:58:21
,wl-rdm,118,417854,0.0-8.1-0.1,1.0,119.0,,,,,,,[],,,,,,62.5,0.0,u,0.0,True,1050.5999999940395,79.0,75.0,40.0,False,,237.367400138231,[],"[960, 540]",ColorTask,52.0,2.0,,,HRV,HRV_0007,2022-11-30 17:58:21
,wl-rdm,119,420041,0.0-8.2-0.2,1.0,120.0,,,,,,,[],,,,,,62.5,1.0,u,0.0,False,794.2000000178814,60.0,75.0,40.0,False,,341.5103253804425,[],"[960, 540]",ColorTask,51.0,3.0,,,HRV,HRV_0007,2022-11-30 17:58:21
,wl-rdm,120,422388,0.0-8.3-0.3,1.0,121.0,,,,,,,[],,,,,,62.5,1.0,u,0.0,False,911.2000000178814,69.0,75.0,40.0,False,,376.67974067350934,[],"[960, 540]",ColorTask,50.0,4.0,,,HRV,HRV_0007,2022-11-30 17:58:21
,wl-rdm,121,424575,0.0-8.4-0.4,1.0,122.0,,,,,,,[],,,,,,73.6,0.0,u,0.0,True,782.8000000119209,59.0,75.0,40.0,False,,356.34996383328485,[],"[960, 540]",ColorTask,51.0,5.0,,,HRV,HRV_0007,2022-11-30 17:58:21
,wl-rdm,122,426548,0.0-8.5-0.5,1.0,123.0,,,,,,,[],,,,,,53.2,1.0,i,1.0,True,571.6999999880791,43.0,75.0,40.0,False,,350.91585703252144,[],"[960, 540]",ColorTask,52.0,6.0,,,HRV,HRV_0007,2022-11-30 17:58:21
,wl-rdm,123,428509,0.0-8.6-0.6,1.0,124.0,,,,,,,[],,,,,,53.2,0.0,i,1.0,False,691.0,52.0,75.0,40.0,False,,218.24071070818502,[],"[960, 540]",ColorTask,51.0,7.0,,,HRV,HRV_0007,2022-11-30 17:58:21
,wl-rdm,124,430563,0.0-8.7-0.7,1.0,125.0,,,,,,,[],,,,,,62.5,0.0,u,0.0,True,765.2999999821186,58.0,75.0,40.0,False,,227.44199346474386,[],"[960, 540]",ColorTask,52.0,8.0,,,HRV,HRV_0007,2022-11-30 17:58:21
,wl-rdm,125,432349,0.0-8.8-0.8,1.0,126.0,,,,,,,[],,,,,,53.2,1.0,i,1.0,True,517.3000000119209,39.0,75.0,40.0,False,,223.7781180034568,[],"[960, 540]",ColorTask,53.0,9.0,,,HRV,HRV_0007,2022-11-30 17:58:21
,wl-rdm,126,434363,0.0-8.9-0.9,1.0,127.0,,,,,,,[],,,,,,50.0,1.0,i,1.0,True,639.6999999880791,48.0,75.0,40.0,False,,332.41207754200525,[],"[960, 540]",ColorTask,54.0,10.0,,,HRV,HRV_0007,2022-11-30 17:58:21
,wl-rdm,127,436311,0.0-8.10-0.10,1.0,128.0,,,,,,,[],,,,,,87.9,1.0,i,1.0,True,676.7999999821186,51.0,75.0,40.0,False,,218.12213830495102,[],"[960, 540]",ColorTask,55.0,11.0,,,HRV,HRV_0007,2022-11-30 17:58:21
,wl-rdm,128,438057,0.0-8.11-0.11,1.0,129.0,,,,,,,[],,,,,,62.5,0.0,u,0.0,True,433.19999998807907,33.0,75.0,40.0,False,,255.6874424112053,[],"[960, 540]",ColorTask,56.0,12.0,,,HRV,HRV_0007,2022-11-30 17:58:21
,wl-rdm,129,439751,0.0-8.12-0.12,1.0,130.0,,,,,,,[],,,,,,56.4,0.0,i,1.0,False,421.89999997615814,32.0,75.0,40.0,False,,222.20019676460933,[],"[960, 540]",ColorTask,55.0,13.0,,,HRV,HRV_0007,2022-11-30 17:58:21
,wl-rdm,130,441845,0.0-8.13-0.13,1.0,131.0,,,,,,,[],,,,,,53.2,1.0,u,0.0,False,784.5999999940395,59.0,75.0,40.0,False,,254.22612359966192,[],"[960, 540]",ColorTask,54.0,14.0,,,HRV,HRV_0007,2022-11-30 17:58:21
,wl-rdm,131,444472,0.0-8.14-0.14,1.0,132.0,,,,,,,[],,,,,,50.0,0.0,i,1.0,False,1354.7999999821186,102.0,75.0,40.0,False,,217.91156310630748,[],"[960, 540]",ColorTask,53.0,15.0,,,HRV,HRV_0007,2022-11-30 17:58:21
,wl-rdm,132,446699,0.0-8.15-0.15,1.0,133.0,,,,,,,[],,,,,,62.5,1.0,u,0.0,False,778.1999999880791,59.0,75.0,40.0,False,,398.324525321981,[],"[960, 540]",ColorTask,52.0,16.0,,,HRV,HRV_0007,2022-11-30 17:58:21
,wl-rdm,133,449460,0.0-8.16-0.16,1.0,134.0,,,,,,,[],,,,,,50.0,1.0,i,1.0,True,1478.5,111.0,75.0,40.0,False,,239.36621243702191,[],"[960, 540]",ColorTask,53.0,17.0,,,HRV,HRV_0007,2022-11-30 17:58:21
,wl-rdm,134,451380,0.0-8.17-0.17,1.0,135.0,,,,,,,[],,,,,,62.5,1.0,i,1.0,True,524.0,40.0,75.0,40.0,False,,337.1244533801274,[],"[960, 540]",ColorTask,54.0,18.0,,,HRV,HRV_0007,2022-11-30 17:58:21
,wl-rdm,135,453113,0.0-8.18-0.18,1.0,136.0,,,,,,,[],,,,,,73.6,1.0,i,1.0,True,472.90000000596046,36.0,75.0,40.0,False,,210.5593840484098,[],"[960, 540]",ColorTask,55.0,19.0,,,HRV,HRV_0007,2022-11-30 17:58:21
,wl-rdm,136,454940,0.0-8.19-0.19,1.0,137.0,,,,,,,[],,,,,,87.9,1.0,i,1.0,True,537.3000000119209,41.0,75.0,40.0,False,,234.21477239577843,[],"[960, 540]",ColorTask,56.0,20.0,,,HRV,HRV_0007,2022-11-30 17:58:21
,wl-rdm,137,457021,0.0-8.20-0.20,1.0,138.0,,,,,,,[],,,,,,87.9,0.0,u,0.0,True,677.5,51.0,75.0,40.0,False,,348.16387050675996,[],"[960, 540]",ColorTask,57.0,21.0,,,HRV,HRV_0007,2022-11-30 17:58:21
,wl-rdm,138,458915,0.0-8.21-0.21,1.0,139.0,,,,,,,[],,,,,,73.6,1.0,i,1.0,True,599.6999999880791,45.0,75.0,40.0,False,,242.23262217452205,[],"[960, 540]",ColorTask,58.0,22.0,,,HRV,HRV_0007,2022-11-30 17:58:21
,wl-rdm,139,460875,0.0-8.22-0.22,1.0,140.0,,,,,,,[],,,,,,62.5,0.0,i,1.0,False,599.2999999821186,45.0,75.0,40.0,False,,316.7027716081233,[],"[960, 540]",ColorTask,57.0,23.0,,,HRV,HRV_0007,2022-11-30 17:58:21
,wl-rdm,140,463209,0.0-8.23-0.23,1.0,141.0,,,,,,,[],,,,,,56.4,0.0,i,1.0,False,980.5,74.0,75.0,40.0,False,,304.4623460930658,[],"[960, 540]",ColorTask,56.0,24.0,,,HRV,HRV_0007,2022-11-30 17:58:21
,wl-rdm,141,465436,0.0-8.24-0.24,1.0,142.0,,,,,,,[],,,,,,87.9,1.0,i,1.0,True,853.0,64.0,75.0,40.0,False,,320.62769416182954,[],"[960, 540]",ColorTask,57.0,25.0,,,HRV,HRV_0007,2022-11-30 17:58:21
,wl-rdm,142,467463,0.0-8.25-0.25,1.0,143.0,,,,,,,[],,,,,,50.0,1.0,i,1.0,True,614.5,47.0,75.0,40.0,False,,351.8117114263142,[],"[960, 540]",ColorTask,58.0,26.0,,,HRV,HRV_0007,2022-11-30 17:58:21
,wl-rdm,143,469757,0.0-8.26-0.26,1.0,144.0,,,,,,,[],,,,,,73.6,1.0,i,1.0,True,904.9000000059605,68.0,75.0,40.0,False,,340.5202759519326,[],"[960, 540]",ColorTask,59.0,27.0,,,HRV,HRV_0007,2022-11-30 17:58:21
,wl-rdm,144,472037,0.0-8.27-0.27,1.0,145.0,,,,,,,[],,,,,,50.0,1.0,i,1.0,True,989.4000000059605,75.0,75.0,40.0,False,,228.55123925767248,[],"[960, 540]",ColorTask,60.0,28.0,,,HRV,HRV_0007,2022-11-30 17:58:21
,wl-rdm,145,474451,0.0-8.28-0.28,1.0,146.0,,,,,,,[],,,,,,53.2,0.0,u,0.0,True,992.1000000238419,75.0,75.0,40.0,False,,367.5930873476744,[],"[960, 540]",ColorTask,61.0,29.0,,,HRV,HRV_0007,2022-11-30 17:58:21
,wl-rdm,146,476611,0.0-8.29-0.29,1.0,147.0,,,,,,,[],,,,,,87.9,1.0,i,1.0,True,858.1999999880791,65.0,75.0,40.0,False,,249.30316482833967,[],"[960, 540]",ColorTask,62.0,30.0,,,HRV,HRV_0007,2022-11-30 17:58:21
,wl-rdm,147,478612,0.0-8.30-0.30,1.0,148.0,,,,,,,[],,,,,,53.2,1.0,i,1.0,True,638.7000000178814,48.0,75.0,40.0,False,,312.5671696899202,[],"[960, 540]",ColorTask,63.0,31.0,,,HRV,HRV_0007,2022-11-30 17:58:21
,wl-rdm,148,480559,0.0-8.31-0.31,1.0,149.0,,,,,,,[],,,,,,87.9,0.0,u,0.0,True,649.9000000059605,49.0,75.0,40.0,False,,241.38837556911542,[],"[960, 540]",ColorTask,64.0,32.0,,,HRV,HRV_0007,2022-11-30 17:58:21
,wl-rdm,149,483173,0.0-8.32-0.32,1.0,150.0,,,,,,,[],,,,,,53.2,0.0,u,0.0,True,1224.5999999940395,92.0,75.0,40.0,False,,337.1320534571785,[],"[960, 540]",ColorTask,65.0,33.0,,,HRV,HRV_0007,2022-11-30 17:58:21
,wl-rdm,150,485346,0.0-8.33-0.33,1.0,151.0,,,,,,,[],,,,,,56.4,0.0,i,1.0,False,832.2999999821186,63.0,75.0,40.0,False,,287.5564342892389,[],"[960, 540]",ColorTask,64.0,34.0,,,HRV,HRV_0007,2022-11-30 17:58:21
,wl-rdm,151,487974,0.0-8.34-0.34,1.0,152.0,,,,,,,[],,,,,,73.6,0.0,u,0.0,True,1371.300000011921,103.0,75.0,40.0,False,,201.29886717566777,[],"[960, 540]",ColorTask,65.0,35.0,,,HRV,HRV_0007,2022-11-30 17:58:21
,wl-rdm,152,490121,0.0-8.35-0.35,1.0,153.0,,,,,,,[],,,,,,53.2,0.0,i,1.0,False,807.3000000119209,61.0,75.0,40.0,False,,287.1843952282669,[],"[960, 540]",ColorTask,64.0,36.0,,,HRV,HRV_0007,2022-11-30 17:58:21
,wl-rdm,153,492868,0.0-8.36-0.36,1.0,154.0,,,,,,,[],,,,,,53.2,0.0,u,0.0,True,1390.9000000357628,105.0,75.0,40.0,False,,295.93236619372806,[],"[960, 540]",ColorTask,65.0,37.0,,,HRV,HRV_0007,2022-11-30 17:58:21
,wl-rdm,154,495614,0.0-8.37-0.37,1.0,155.0,,,,,,,[],,,,,,73.6,1.0,i,1.0,True,1347.5999999940395,102.0,75.0,40.0,False,,340.83119234279707,[],"[960, 540]",ColorTask,66.0,38.0,,,HRV,HRV_0007,2022-11-30 17:58:21
,wl-rdm,155,498001,0.0-8.38-0.38,1.0,156.0,,,,,,,[],,,,,,50.0,1.0,u,0.0,False,1126.1000000238419,85.0,75.0,40.0,False,,206.407797958431,[],"[960, 540]",ColorTask,65.0,39.0,,,HRV,HRV_0007,2022-11-30 17:58:21
,wl-rdm,156,499788,0.0-8.39-0.39,1.0,157.0,,,,,,,[],,,,,,62.5,1.0,i,1.0,True,517.5999999940395,39.0,75.0,40.0,False,,223.46246367487038,[],"[960, 540]",ColorTask,66.0,40.0,,,HRV,HRV_0007,2022-11-30 17:58:21
,wl-rdm,157,501602,0.0-8.40-0.40,1.0,158.0,,,,,,,[],,,,,,50.0,1.0,i,1.0,True,546.5999999940395,41.0,75.0,40.0,False,,224.6127918524049,[],"[960, 540]",ColorTask,67.0,41.0,,,HRV,HRV_0007,2022-11-30 17:58:21
,wl-rdm,158,503923,0.0-8.41-0.41,1.0,159.0,,,,,,,[],,,,,,56.4,1.0,u,0.0,False,951.0,72.0,75.0,40.0,False,,308.44611804450005,[],"[960, 540]",ColorTask,66.0,42.0,,,HRV,HRV_0007,2022-11-30 17:58:21
,wl-rdm,159,506283,0.0-8.42-0.42,1.0,160.0,,,,,,,[],,,,,,62.5,1.0,i,1.0,True,1065.9000000357628,80.0,75.0,40.0,False,,250.3982977177466,[],"[960, 540]",ColorTask,67.0,43.0,,,HRV,HRV_0007,2022-11-30 17:58:21
,wl-rdm,160,508350,0.0-8.43-0.43,1.0,161.0,,,,,,,[],,,,,,87.9,0.0,u,0.0,True,729.5,55.0,75.0,40.0,False,,283.1033734253771,[],"[960, 540]",ColorTask,68.0,44.0,,,HRV,HRV_0007,2022-11-30 17:58:21
,wl-rdm,161,510284,0.0-8.44-0.44,1.0,162.0,,,,,,,[],,,,,,62.5,1.0,i,1.0,True,678.5,51.0,75.0,40.0,False,,209.4289594622486,[],"[960, 540]",ColorTask,69.0,45.0,,,HRV,HRV_0007,2022-11-30 17:58:21
,wl-rdm,162,512791,0.0-8.45-0.45,1.0,163.0,,,,,,,[],,,,,,73.6,0.0,u,0.0,True,1068.0,81.0,75.0,40.0,False,,375.0974854056385,[],"[960, 540]",ColorTask,70.0,46.0,,,HRV,HRV_0007,2022-11-30 17:58:21
,wl-rdm,163,515404,0.0-8.46-0.46,1.0,164.0,,,,,,,[],,,,,,73.6,1.0,i,1.0,True,1216.5999999940395,92.0,75.0,40.0,False,,337.54275053914705,[],"[960, 540]",ColorTask,71.0,47.0,,,HRV,HRV_0007,2022-11-30 17:58:21
,wl-rdm,164,517645,0.0-8.47-0.47,1.0,165.0,,,,,,,[],,,,,,73.6,1.0,i,1.0,True,828.6000000238419,63.0,75.0,40.0,False,,350.68072801447937,[],"[960, 540]",ColorTask,72.0,48.0,,,HRV,HRV_0007,2022-11-30 17:58:21
,wl-rdm,165,520446,0.0-8.48-0.48,1.0,166.0,,,,,,,[],,,,,,56.4,1.0,i,1.0,True,1357.0,102.0,75.0,40.0,False,,396.2584350164262,[],"[960, 540]",ColorTask,73.0,49.0,,,HRV,HRV_0007,2022-11-30 17:58:21
,wl-rdm,166,523420,0.0-8.49-0.49,1.0,167.0,,,,,,,[],,,,,,56.4,0.0,i,1.0,False,1652.0999999940395,124.0,75.0,40.0,False,,277.98645728391165,[],"[960, 540]",ColorTask,72.0,50.0,,,HRV,HRV_0007,2022-11-30 17:58:21
,wl-rdm,167,525580,0.0-8.50-0.50,1.0,168.0,,,,,,,[],,,,,,56.4,1.0,i,1.0,True,784.0,59.0,75.0,40.0,False,,332.7293171172195,[],"[960, 540]",ColorTask,73.0,51.0,,,HRV,HRV_0007,2022-11-30 17:58:21
,wl-rdm,168,528087,0.0-8.51-0.51,1.0,169.0,,,,,,,[],,,,,,73.6,0.0,u,0.0,True,1201.2999999821186,91.0,75.0,40.0,False,,247.79610637593098,[],"[960, 540]",ColorTask,74.0,52.0,,,HRV,HRV_0007,2022-11-30 17:58:21
,wl-rdm,169,530501,0.0-8.52-0.52,1.0,170.0,,,,,,,[],,,,,,73.6,1.0,i,1.0,True,1149.300000011921,87.0,75.0,40.0,False,,203.84168292508963,[],"[960, 540]",ColorTask,75.0,53.0,,,HRV,HRV_0007,2022-11-30 17:58:21
,wl-rdm,170,532995,0.0-8.53-0.53,1.0,171.0,,,,,,,[],,,,,,56.4,0.0,u,0.0,True,1226.0999999940395,92.0,75.0,40.0,False,,219.07304528248378,[],"[960, 540]",ColorTask,76.0,54.0,,,HRV,HRV_0007,2022-11-30 17:58:21
,wl-rdm,171,535115,0.0-8.54-0.54,1.0,172.0,,,,,,,[],,,,,,62.5,1.0,i,1.0,True,723.6999999880791,55.0,75.0,40.0,False,,342.5490895392973,[],"[960, 540]",ColorTask,77.0,55.0,,,HRV,HRV_0007,2022-11-30 17:58:21
,wl-rdm,172,537836,0.0-8.55-0.55,1.0,173.0,,,,,,,[],,,,,,56.4,1.0,i,1.0,True,1332.0,100.0,75.0,40.0,False,,344.6759086453163,[],"[960, 540]",ColorTask,78.0,56.0,,,HRV,HRV_0007,2022-11-30 17:58:21
,wl-rdm,173,540250,0.0-8.56-0.56,1.0,174.0,,,,,,,[],,,,,,73.6,0.0,u,0.0,True,1112.4000000059605,84.0,75.0,40.0,False,,241.02963672083683,[],"[960, 540]",ColorTask,79.0,57.0,,,HRV,HRV_0007,2022-11-30 17:58:21
,wl-rdm,174,542303,0.0-8.57-0.57,1.0,175.0,,,,,,,[],,,,,,87.9,0.0,u,0.0,True,676.0,51.0,75.0,40.0,False,,329.2037557159169,[],"[960, 540]",ColorTask,80.0,58.0,,,HRV,HRV_0007,2022-11-30 17:58:21
,wl-rdm,175,545610,0.0-8.58-0.58,1.0,176.0,,,,,,,[],,,,,,50.0,0.0,u,0.0,True,2004.5,151.0,75.0,40.0,False,,243.80993740831033,[],"[960, 540]",ColorTask,81.0,59.0,,,HRV,HRV_0007,2022-11-30 17:58:21
,wl-rdm,176,547664,0.0-8.59-0.59,1.0,177.0,,,,,,,[],,,,,,87.9,0.0,u,0.0,True,753.5999999940395,57.0,75.0,40.0,False,,245.71336346005265,[],"[960, 540]",ColorTask,82.0,60.0,,,HRV,HRV_0007,2022-11-30 17:58:21
,wl-rdm,177,549718,0.0-8.60-0.60,1.0,178.0,,,,,,,[],,,,,,62.5,0.0,i,1.0,False,796.0999999940395,60.0,75.0,40.0,False,,200.8382892778641,[],"[960, 540]",ColorTask,81.0,61.0,,,HRV,HRV_0007,2022-11-30 17:58:21
,wl-rdm,178,552145,0.0-8.61-0.61,1.0,179.0,,,,,,,[],,,,,,53.2,0.0,u,0.0,True,1166.800000011921,88.0,75.0,40.0,False,,202.80787484040337,[],"[960, 540]",ColorTask,82.0,62.0,,,HRV,HRV_0007,2022-11-30 17:58:21
,wl-rdm,179,554573,0.0-8.62-0.62,1.0,180.0,,,,,,,[],,,,,,50.0,0.0,u,0.0,True,1137.2000000178814,86.0,75.0,40.0,False,,234.78693425555858,[],"[960, 540]",ColorTask,83.0,63.0,,,HRV,HRV_0007,2022-11-30 17:58:21
,wl-rdm,180,556800,0.0-8.63-0.63,1.0,181.0,,,,,,,[],,,,,,73.6,0.0,u,0.0,True,787.3000000119209,60.0,75.0,40.0,False,,376.53564514952075,[],"[960, 540]",ColorTask,84.0,64.0,,,HRV,HRV_0007,2022-11-30 17:58:21
,wl-rdm,181,559094,0.0-8.64-0.64,1.0,182.0,,,,,,,[],,,,,,87.9,0.0,u,0.0,True,1037.1000000238419,78.0,75.0,40.0,False,,207.3060484774025,[],"[960, 540]",ColorTask,85.0,65.0,,,HRV,HRV_0007,2022-11-30 17:58:21
,wl-rdm,182,560921,0.0-8.65-0.65,1.0,183.0,,,,,,,[],,,,,,50.0,1.0,i,1.0,True,553.7000000178814,42.0,75.0,40.0,False,,217.26490037337877,[],"[960, 540]",ColorTask,86.0,66.0,,,HRV,HRV_0007,2022-11-30 17:58:21
,wl-rdm,183,563041,0.0-8.66-0.66,1.0,184.0,,,,,,,[],,,,,,50.0,0.0,i,1.0,False,687.3000000119209,52.0,75.0,40.0,False,,373.1204300729522,[],"[960, 540]",ColorTask,85.0,67.0,,,HRV,HRV_0007,2022-11-30 17:58:21
,wl-rdm,184,566322,0.0-8.67-0.67,1.0,185.0,,,,,,,[],,,,,,50.0,0.0,i,1.0,False,2021.0,152.0,75.0,40.0,False,,207.55565189406886,[],"[960, 540]",ColorTask,84.0,68.0,,,HRV,HRV_0007,2022-11-30 17:58:21
,wl-rdm,185,568576,0.0-8.68-0.68,1.0,186.0,,,,,,,[],,,,,,87.9,0.0,u,0.0,True,920.5999999940395,70.0,75.0,40.0,False,,277.33364365243614,[],"[960, 540]",ColorTask,85.0,69.0,,,HRV,HRV_0007,2022-11-30 17:58:21
,wl-rdm,186,570816,0.0-8.69-0.69,1.0,187.0,,,,,,,[],,,,,,87.9,0.0,u,0.0,True,900.7000000178814,68.0,75.0,40.0,False,,282.64440513594786,[],"[960, 540]",ColorTask,86.0,70.0,,,HRV,HRV_0007,2022-11-30 17:58:21
,wl-rdm,187,573110,0.0-8.70-0.70,1.0,188.0,,,,,,,[],,,,,,87.9,0.0,u,0.0,True,989.4000000357628,75.0,75.0,40.0,False,,249.68290042789874,[],"[960, 540]",ColorTask,87.0,71.0,,,HRV,HRV_0007,2022-11-30 17:58:21
,wl-rdm,188,575083,0.0-8.71-0.71,1.0,189.0,,,,,,,[],,,,,,50.0,0.0,i,1.0,False,698.0999999940395,53.0,75.0,40.0,False,,221.6973686932025,[],"[960, 540]",ColorTask,86.0,72.0,,,HRV,HRV_0007,2022-11-30 17:58:21
,wl-rdm,189,577164,0.0-8.72-0.72,1.0,190.0,,,,,,,[],,,,,,73.6,0.0,u,0.0,True,644.3000000119209,49.0,75.0,40.0,False,,376.10624531051974,[],"[960, 540]",ColorTask,87.0,73.0,,,HRV,HRV_0007,2022-11-30 17:58:21
,wl-rdm,190,579884,0.0-8.73-0.73,1.0,191.0,,,,,,,[],,,,,,50.0,0.0,u,0.0,True,1443.9000000059605,109.0,75.0,40.0,False,,226.3463730799536,[],"[960, 540]",ColorTask,88.0,74.0,,,HRV,HRV_0007,2022-11-30 17:58:21
,wl-rdm,191,583205,0.0-8.74-0.74,1.0,192.0,,,,,,,[],,,,,,53.2,1.0,i,1.0,True,1883.5999999940395,142.0,75.0,40.0,False,,382.03128344820647,[],"[960, 540]",ColorTask,89.0,75.0,,,HRV,HRV_0007,2022-11-30 17:58:21
,wl-rdm,192,587125,0.0-8.75-0.75,1.0,193.0,,,,,,,[],,,,,,56.4,1.0,u,0.0,False,2496.0,188.0,75.0,40.0,False,,367.4569909506543,[],"[960, 540]",ColorTask,88.0,76.0,,,HRV,HRV_0007,2022-11-30 17:58:21
,wl-rdm,193,589500,0.0-8.76-0.76,1.0,194.0,,,,,,,[],,,,,,53.2,0.0,u,0.0,True,1079.300000011921,81.0,75.0,40.0,False,,250.28867806123247,[],"[960, 540]",ColorTask,89.0,77.0,,,HRV,HRV_0007,2022-11-30 17:58:21
,wl-rdm,194,591780,0.0-8.77-0.77,1.0,195.0,,,,,,,[],,,,,,53.2,0.0,i,1.0,False,964.1999999880791,73.0,75.0,40.0,False,,254.2130875220581,[],"[960, 540]",ColorTask,88.0,78.0,,,HRV,HRV_0007,2022-11-30 17:58:21
,wl-rdm,195,593874,0.0-8.78-0.78,1.0,196.0,,,,,,,[],,,,,,73.6,1.0,i,1.0,True,792.8000000119209,60.0,75.0,40.0,False,,242.59930796177105,[],"[960, 540]",ColorTask,89.0,79.0,,,HRV,HRV_0007,2022-11-30 17:58:21
,wl-rdm,196,597408,0.0-8.79-0.79,1.0,197.0,,,,,,,[],,,,,,62.5,0.0,u,0.0,True,2255.4000000059605,170.0,75.0,40.0,False,,225.33895346512222,[],"[960, 540]",ColorTask,90.0,80.0,,,HRV,HRV_0007,2022-11-30 17:58:21
,wl-rdm,197,599995,0.0-8.80-0.80,1.0,198.0,,,,,,,[],,,,,,73.6,0.0,u,0.0,True,1192.0999999940395,90.0,75.0,40.0,False,,344.77634984898157,[],"[960, 540]",ColorTask,91.0,81.0,,,HRV,HRV_0007,2022-11-30 17:58:21
,wl-rdm,198,602275,0.0-8.81-0.81,1.0,199.0,,,,,,,[],,,,,,87.9,1.0,i,1.0,True,912.4000000059605,69.0,75.0,40.0,False,,311.40425331410444,[],"[960, 540]",ColorTask,92.0,82.0,,,HRV,HRV_0007,2022-11-30 17:58:21
,wl-rdm,199,604716,0.0-8.82-0.82,1.0,200.0,,,,,,,[],,,,,,56.4,1.0,i,1.0,True,1172.0,88.0,75.0,40.0,False,,215.1160104842067,[],"[960, 540]",ColorTask,93.0,83.0,,,HRV,HRV_0007,2022-11-30 17:58:21
,wl-rdm,200,608236,0.0-8.83-0.83,1.0,201.0,,,,,,,[],,,,,,53.2,1.0,i,1.0,True,2252.2000000178814,169.0,75.0,40.0,False,,223.49277995321987,[],"[960, 540]",ColorTask,94.0,84.0,,,HRV,HRV_0007,2022-11-30 17:58:21
,wl-rdm,201,611064,0.0-8.84-0.84,1.0,202.0,,,,,,,[],,,,,,56.4,1.0,i,1.0,True,1374.2000000476837,104.0,75.0,40.0,False,,399.531383397843,[],"[960, 540]",ColorTask,95.0,85.0,,,HRV,HRV_0007,2022-11-30 17:58:21
,wl-rdm,202,615424,0.0-8.85-0.85,1.0,203.0,,,,,,,[],,,,,,62.5,0.0,u,0.0,True,2935.2000000476837,221.0,75.0,40.0,False,,366.6716801992736,[],"[960, 540]",ColorTask,96.0,86.0,,,HRV,HRV_0007,2022-11-30 17:58:21
,wl-rdm,203,618398,0.0-8.86-0.86,1.0,204.0,,,,,,,[],,,,,,62.5,0.0,u,0.0,True,1655.199999988079,125.0,75.0,40.0,False,,256.50676355889954,[],"[960, 540]",ColorTask,97.0,87.0,,,HRV,HRV_0007,2022-11-30 17:58:21
,wl-rdm,204,621732,0.0-8.87-0.87,1.0,205.0,,,,,,,[],,,,,,56.4,0.0,i,1.0,False,2066.0999999940395,155.0,75.0,40.0,False,,215.8245277948806,[],"[960, 540]",ColorTask,96.0,88.0,,,HRV,HRV_0007,2022-11-30 17:58:21
,wl-rdm,205,623959,0.0-8.88-0.88,1.0,206.0,,,,,,,[],,,,,,53.2,1.0,i,1.0,True,907.7000000178814,69.0,75.0,40.0,False,,255.33006634414204,[],"[960, 540]",ColorTask,97.0,89.0,,,HRV,HRV_0007,2022-11-30 17:58:21
,wl-rdm,206,625973,0.0-8.89-0.89,1.0,207.0,,,,,,,[],,,,,,50.0,1.0,i,1.0,True,717.3999999761581,54.0,75.0,40.0,False,,251.22563475960845,[],"[960, 540]",ColorTask,98.0,90.0,,,HRV,HRV_0007,2022-11-30 17:58:21
,wl-rdm,207,628427,0.0-8.90-0.90,1.0,208.0,,,,,,,[],,,,,,53.2,1.0,u,0.0,False,1125.4000000059605,85.0,75.0,40.0,False,,278.91606901600034,[],"[960, 540]",ColorTask,97.0,91.0,,,HRV,HRV_0007,2022-11-30 17:58:21
,wl-rdm,208,631027,0.0-8.91-0.91,1.0,209.0,,,,,,,[],,,,,,73.6,1.0,i,1.0,True,1266.800000011921,95.0,75.0,40.0,False,,283.10601364364345,[],"[960, 540]",ColorTask,98.0,92.0,,,HRV,HRV_0007,2022-11-30 17:58:21
,wl-rdm,209,633708,0.0-8.92-0.92,1.0,210.0,,,,,,,[],,,,,,50.0,1.0,i,1.0,True,1364.1000000238419,103.0,75.0,40.0,False,,255.7356340473083,[],"[960, 540]",ColorTask,99.0,93.0,,,HRV,HRV_0007,2022-11-30 17:58:21
,wl-rdm,210,635615,0.0-8.93-0.93,1.0,211.0,,,,,,,[],,,,,,87.9,1.0,i,1.0,True,609.8000000119209,46.0,75.0,40.0,False,,248.16768877789525,[],"[960, 540]",ColorTask,100.0,94.0,,,HRV,HRV_0007,2022-11-30 17:58:21
,wl-rdm,211,637735,0.0-8.94-0.94,1.0,212.0,,,,,,,[],,,,,,56.4,1.0,i,1.0,True,781.5,59.0,75.0,40.0,False,,280.87455762696516,[],"[960, 540]",ColorTask,101.0,95.0,,,HRV,HRV_0007,2022-11-30 17:58:21
,wl-rdm,212,639696,0.0-8.95-0.95,1.0,213.0,,,,,,,[],,,,,,56.4,0.0,i,1.0,False,541.5999999940395,41.0,75.0,40.0,False,,370.87508373499986,[],"[960, 540]",ColorTask,100.0,96.0,,,HRV,HRV_0007,2022-11-30 17:58:21
,wl-rdm,213,641683,0.0-8.96-0.96,1.0,214.0,,,,,,,[],,,,,,87.9,1.0,i,1.0,True,712.5000000298023,54.0,75.0,40.0,False,,220.6239647319758,[],"[960, 540]",ColorTask,101.0,97.0,,,HRV,HRV_0007,2022-11-30 17:58:21
,wl-rdm,214,643870,0.0-8.97-0.97,1.0,215.0,,,,,,,[],,,,,,56.4,0.0,u,0.0,True,904.4000000059605,68.0,75.0,40.0,False,,236.48131513140618,[],"[960, 540]",ColorTask,102.0,98.0,,,HRV,HRV_0007,2022-11-30 17:58:21
,wl-rdm,215,646137,0.0-8.98-0.98,1.0,216.0,,,,,,,[],,,,,,62.5,0.0,u,0.0,True,940.4000000059605,71.0,75.0,40.0,False,,272.01625896140047,[],"[960, 540]",ColorTask,103.0,99.0,,,HRV,HRV_0007,2022-11-30 17:58:21
,wl-rdm,216,648004,0.0-8.99-0.99,1.0,217.0,,,,,,,[],,,,,,62.5,1.0,i,1.0,True,564.2000000178814,43.0,75.0,40.0,False,,249.74634113276323,[],"[960, 540]",ColorTask,104.0,100.0,,,HRV,HRV_0007,2022-11-30 17:58:21
,wl-rdm,217,649845,0.0-8.100-0.100,1.0,218.0,,,,,,,[],,,,,,87.9,1.0,i,1.0,True,523.6999999880791,40.0,75.0,40.0,False,,264.08640356283786,[],"[960, 540]",ColorTask,105.0,101.0,,,HRV,HRV_0007,2022-11-30 17:58:21
,wl-rdm,218,651898,0.0-8.101-0.101,1.0,219.0,,,,,,,[],,,,,,73.6,0.0,u,0.0,True,699.4999999701977,53.0,75.0,40.0,False,,303.0489795799886,[],"[960, 540]",ColorTask,106.0,102.0,,,HRV,HRV_0007,2022-11-30 17:58:21
,wl-rdm,219,653671,0.0-8.102-0.102,1.0,220.0,,,,,,,[],,,,,,87.9,1.0,i,1.0,True,514.8999999761581,39.0,75.0,40.0,False,,212.16822143719895,[],"[960, 540]",ColorTask,107.0,103.0,,,HRV,HRV_0007,2022-11-30 17:58:21
,wl-rdm,220,655672,0.0-8.103-0.103,1.0,221.0,,,,,,,[],,,,,,53.2,0.0,i,1.0,False,727.9000000059605,55.0,75.0,40.0,False,,213.9540735595434,[],"[960, 540]",ColorTask,106.0,104.0,,,HRV,HRV_0007,2022-11-30 17:58:21
,wl-rdm,221,657565,0.0-8.104-0.104,1.0,222.0,,,,,,,[],,,,,,53.2,1.0,i,1.0,True,575.5,44.0,75.0,40.0,False,,265.77291969573554,[],"[960, 540]",ColorTask,107.0,105.0,,,HRV,HRV_0007,2022-11-30 17:58:21
,wl-rdm,222,659526,0.0-8.105-0.105,1.0,223.0,,,,,,,[],,,,,,50.0,0.0,i,1.0,False,663.0,50.0,75.0,40.0,False,,250.75131258776466,[],"[960, 540]",ColorTask,106.0,106.0,,,HRV,HRV_0007,2022-11-30 17:58:21
,wl-rdm,223,662233,0.0-8.106-0.106,1.0,224.0,,,,,,,[],,,,,,50.0,0.0,i,1.0,False,1380.5,104.0,75.0,40.0,False,,269.1517401009494,[],"[960, 540]",ColorTask,105.0,107.0,,,HRV,HRV_0007,2022-11-30 17:58:21
,wl-rdm,224,664460,0.0-8.107-0.107,1.0,225.0,,,,,,,[],,,,,,56.4,1.0,i,1.0,True,851.5999999940395,64.0,75.0,40.0,False,,324.4870364872412,[],"[960, 540]",ColorTask,106.0,108.0,,,HRV,HRV_0007,2022-11-30 17:58:21
,wl-html-button-response,225,667132,0.0-9.0-0.0,,,,,,,,,,2669.5,,0,,,,,,,,,,,,,,,,,,,,<h3>End of this session. Thank you!</h3><br>,['Close window'],HRV,HRV_0007,2022-11-30 17:58:21
