Answer,C_Pay,Question,QuestionNum,jitter,C_Trial,C_QPresent,rsp,C_SWK,C_SWK_rt,C_AnswerPresent,C_WorthPresent,C_Worth,C_Worth_rt,C_TrialEnd,exp,subjectId,date
Dorito is Spanish for little golden things,1,What does Dorito actually mean?,434,0.531,0,2640.399999976158,t,W,4670.200000017881,9840.399999976158,13856.59999999404,4,1839.199999988079,16755.5,HRV,HRV_0007,2022-11-30 17:34:27
All in the Family ,2,"What's the only TV show to top the Nielsen ratings five seasons in a row, from 1972 to 1976?  ",311,0.927,1,16755.5,q,S,6683.5,,,,,24890.79999998212,HRV,HRV_0007,2022-11-30 17:34:27
Endeavour ,7,What is the name of the ship that carried Captain Cook to Australia?  ,208,0.64,2,24890.899999976158,q,S,2845.5,,,,,28911.29999998212,HRV,HRV_0007,2022-11-30 17:34:27
Haddock,3,"If you ordered an Omelet Arnold Bennett, what fish would you find in it?",429,1.887,3,28911.29999998212,,,,,,,,38426.19999998808,HRV,HRV_0007,2022-11-30 17:34:27
UFOs,7,What was studied by Project Blue Book?   ,279,1.153,4,38426.19999998808,q,S,1765.5999999940395,,,,,41871.5,HRV,HRV_0007,2022-11-30 17:34:27
A sneeze,1,The air expelled from what can travel at 100 mph?,90,1.89,5,41871.5,q,S,4055.2999999821186,,,,,48345.59999999404,HRV,HRV_0007,2022-11-30 17:34:27
The crust and the mantle,5,"The ""Mohorovicic discontinuity"" divides what two outer layers of the earth?",87,0.662,6,48345.59999999404,q,S,2117.699999988079,,,,,51646.0,HRV,HRV_0007,2022-11-30 17:34:27
Thomas Crapper,2,What was the unfortunate name of the plumber who helped popularize and improve the flush toilet? ,294,1.181,7,51646.09999999404,p,K,7904.799999982119,,,,,61248.79999998212,HRV,HRV_0007,2022-11-30 17:34:27
A red giant ,3,"What kind of enormous, cool star will our own sun become in five billion years? ",224,1.146,8,61248.79999998212,q,S,5774.300000011921,,,,,68694.0,HRV,HRV_0007,2022-11-30 17:34:27
Vietnam,4,"In what country did the domesticated ""potbellied pig"" originate?",61,1.762,9,68694.0,t,W,4840.899999976158,76057.19999998808,80073.59999999404,,,84594.39999997616,HRV,HRV_0007,2022-11-30 17:34:27
Luge,2,What sports term is the shortest word ever to decide the National Spelling Bee?   ,261,1.453,10,84594.79999998212,t,W,6532.800000011921,93649.59999999404,97668.5,,,102193.29999998212,HRV,HRV_0007,2022-11-30 17:34:27
A jenny ,4,What is a female donkey called?,194,1.539,11,102193.39999997616,q,S,3077.4000000059605,,,,,107325.79999998212,HRV,HRV_0007,2022-11-30 17:34:27
Prussian Blue ,3,What craylola color became 'midnight blue' in 1985 to remove an out-of-date geographical term? ,160,0.621,12,107325.79999998212,q,S,5210.4000000059605,,,,,113686.79999998212,HRV,HRV_0007,2022-11-30 17:34:27
Bumblebee bat,2,"Which mammal is the world's smallest, weighing less than a penny? ",347,1.708,13,113686.79999998212,q,S,2200.0999999940395,,,,,118128.19999998808,HRV,HRV_0007,2022-11-30 17:34:27
Hong Kong ,2,What city's harbor is overlooked by Victoria Peak? ,185,0.73,14,118128.19999998808,q,S,1630.800000011921,,,,,121022.39999997616,HRV,HRV_0007,2022-11-30 17:34:27
American Pie,4,What was the name of the plane Buddy Holly died in?  ,289,1.581,15,121022.39999997616,q,S,2328.600000023842,,,,,125459.29999998212,HRV,HRV_0007,2022-11-30 17:34:27
Violin,5,What instrument was invented to sound like a human singing? ,189,1.105,16,125459.29999998212,t,W,4164.5999999940395,132148.09999999404,136165.09999999404,5,1185.699999988079,138990.89999997616,HRV,HRV_0007,2022-11-30 17:34:27
Bright red,6,Vitamin A is largely available in natural food sources with which colour?,448,0.795,17,138991.0,q,S,5352.199999988079,,,,,145668.89999997616,HRV,HRV_0007,2022-11-30 17:34:27
Radioactivity,4,What is measured in becquerels? ,201,1.189,18,145668.89999997616,q,S,2442.0,,,,,149825.29999998212,HRV,HRV_0007,2022-11-30 17:34:27
Condoleeza (con dolcezza) Rice ,7,"Whose unusual first name is derived from an Italian musical term for ""with sweetness""? ",390,1.305,19,149825.29999998212,q,S,6302.9000000059605,,,,,157964.59999999404,HRV,HRV_0007,2022-11-30 17:34:27
Pig,7,What is the only type of animal besides a human that can get a sunburn?,212,1.476,20,157964.59999999404,q,S,3356.0999999940395,,,,,163316.69999998808,HRV,HRV_0007,2022-11-30 17:34:27
at least 97%,1,How much caffeine needs to be taken out of coffee for it to be described as decaffeinated?,427,1.243,21,163316.69999998808,t,W,4570.800000011921,170419.39999997616,174434.0,4,662.0,176877.19999998808,HRV,HRV_0007,2022-11-30 17:34:27
Brigham Young University,7,What is the most sober school according to The Princeton Review? ,206,0.943,22,176877.19999998808,t,W,3833.5999999940395,183229.0,187236.39999997616,3,1210.800000011921,189905.69999998808,HRV,HRV_0007,2022-11-30 17:34:27
George Orwell ,5,"Whose first book was ""Down and Out in Paris and London"", about his year among the poverty-stricken underclass of those cities?",388,0.617,23,189905.69999998808,q,S,2829.4000000059605,,,,,193877.69999998808,HRV,HRV_0007,2022-11-30 17:34:27
Rhesus antigens (Rh or RhD),7,"What is absent in ""negative"" blood types like O negative and AB negative? ",196,1.714,24,193877.69999998808,q,S,4050.300000011921,,,,,200155.39999997616,HRV,HRV_0007,2022-11-30 17:34:27
Canadian Oil,4,What is canola an abbreviation for?,436,1.303,25,200155.59999999404,q,S,4035.699999988079,,,,,206028.0,HRV,HRV_0007,2022-11-30 17:34:27
Giant squid,3,Which animal can have eyes that are a foot in diameter? ,324,0.803,26,206028.0,q,S,3859.0999999940395,,,,,211226.59999999404,HRV,HRV_0007,2022-11-30 17:34:27
Adding olive juice,7,What turns a plain martini into a dirty martini?,440,1.424,27,211226.59999999404,q,S,4220.799999982119,,,,,217399.29999998212,HRV,HRV_0007,2022-11-30 17:34:27
Ostrich,1,Which animal's eyes are bigger than its brain?   ,327,1.067,28,217399.29999998212,q,S,2223.4000000059605,,,,,221227.89999997616,HRV,HRV_0007,2022-11-30 17:34:27
France,1,"What country launched Europe's first super-high-speed passenger train, in 1981?",159,0.631,29,221227.89999997616,p,K,7459.5,,,,,229843.89999997616,HRV,HRV_0007,2022-11-30 17:34:27
Broccoli! ,2,Whice vegeteable has more vitamin C than an orange and as much calcium as whole milk?,456,1.525,30,229843.89999997616,t,W,6067.200000017881,238433.39999997616,242442.19999998808,5,860.4000000059605,245347.29999998212,HRV,HRV_0007,2022-11-30 17:34:27
Kayak,5,An umiak is a larger version of what? ,20,0.854,31,245347.29999998212,q,S,1676.800000011921,,,,,248406.19999998808,HRV,HRV_0007,2022-11-30 17:34:27
Peanuts ,2,What snack food is an ingredient in the explosive dynamite?  ,408,1.252,32,248406.19999998808,q,S,4977.199999988079,,,,,255151.69999998808,HRV,HRV_0007,2022-11-30 17:34:27
The Korean War,4,"What 20th-century conflict was dubbed the ""forgotten war"" despite over 50,000 U.S. deaths?",126,0.97,33,255151.69999998808,p,K,5103.5,,,,,261747.39999997616,HRV,HRV_0007,2022-11-30 17:34:27
Czechoslovakia,4,Shirley Temple Black was the U.S. ambassador to what nation at the time of its 1989 revolution?,83,1.028,34,261747.39999997616,q,S,2828.800000011921,,,,,266122.2999999821,HRV,HRV_0007,2022-11-30 17:34:27
Green Eggs and Ham,5,What 1960 classic originated when Bennett Cerf bet one of his authors that he couldn't write a book using only fifty words?,419,1.184,35,266122.2999999821,q,S,2837.5999999940395,,,,,270685.59999999404,HRV,HRV_0007,2022-11-30 17:34:27
Coca-Cola,4,"The BBC once banned the Beatles' ""Come Together"" for ""advertising"" what product in the lyrics?",93,0.932,36,270685.59999999404,q,S,4601.5,,,,,276750.59999999404,HRV,HRV_0007,2022-11-30 17:34:27
Pinko,4,What five-letter word did Time magazine coin in 1926 to refer to left-leaners? ,177,0.996,37,276750.59999999404,q,S,6672.5,,,,,284950.39999997616,HRV,HRV_0007,2022-11-30 17:34:27
Rat,7,Which animal can go longer without water than a camel can? ,323,1.662,38,284950.39999997616,t,W,4473.0,291947.1999999881,295953.6999999881,5,558.5,298696.59999999404,HRV,HRV_0007,2022-11-30 17:34:27
The crocodile,2,The Egyptian plover is a bird best known for its symbiotic relationship with what host animal?,95,0.529,39,298696.6999999881,q,S,2734.300000011921,,,,,302476.59999999404,HRV,HRV_0007,2022-11-30 17:34:27
Prairie dogs,1,"In 1900, Texas biologist Vernon Bailey discovered a network of tunnels the size of the state of Maryland. What had dug them?",51,0.842,40,302476.59999999404,t,W,6163.5,311169.5,315190.39999997616,3,616.6000000238419,317172.39999997616,HRV,HRV_0007,2022-11-30 17:34:27
The bishop,4,Which chess piece was originally called 'the elephant'? ,334,0.906,41,317172.5,q,S,2106.5999999940395,,,,,320702.2999999821,HRV,HRV_0007,2022-11-30 17:34:27
Gerald Ford ,7,What president was shot while walking to California Governor Jerry Brown's office?  ,247,0.823,42,320702.2999999821,q,S,2281.0,,,,,324320.59999999404,HRV,HRV_0007,2022-11-30 17:34:27
Genetics,3,Har Gobind Khorana won the 1968 Nobel Prize for Medicine for research into what?,44,1.391,43,324320.6999999881,q,S,1959.9000000059605,,,,,328199.6999999881,HRV,HRV_0007,2022-11-30 17:34:27
Liberia,5,"Before his ears were cut off in 1990 by a political rival, what nation was ruled by dictator Samuel Doe?",27,1.246,44,328199.6999999881,q,S,3864.800000011921,,,,,333827.1999999881,HRV,HRV_0007,2022-11-30 17:34:27
Shower curtain ,4,David Schmidt won the 2001 Ig Nobel Prize in Physics for discovering the horizontal vortex that makes what household item blow inward?,33,1.868,45,333827.1999999881,q,S,2741.199999988079,,,,,338966.2999999821,HRV,HRV_0007,2022-11-30 17:34:27
It causes sour foods subsequently consumed to taste sweet. ,5,Why is the Synsepalum dulcificum berry called the miracle fruit?,464,0.788,46,338966.2999999821,q,S,3353.7000000178814,,,,,343646.1999999881,HRV,HRV_0007,2022-11-30 17:34:27
Sepia,7,What tinting process for black and white photography was named for the genus of cuttlefish that originally provided the pigment?,266,1.591,47,343646.1999999881,q,S,2280.699999988079,,,,,348041.89999997616,HRV,HRV_0007,2022-11-30 17:34:27
Queen Isabella I ,7,"In 1893, who became the first woman ever to appear on a U.S. postage stamp?",50,1.55,48,348041.89999997616,p,K,3869.2000000178814,,,,,353982.59999999404,HRV,HRV_0007,2022-11-30 17:34:27
The World Almanac and Book of Facts,3,What reference classic is still named for the defunct New York newspaper that first published it in 1868?,250,1.347,49,353982.6999999881,q,S,5736.300000011921,,,,,361586.5,HRV,HRV_0007,2022-11-30 17:34:27
The popsicle,2,Which popular treat was invented by an 11-year-old in California? ,413,0.834,50,361586.5,t,W,3300.7999999821186,367423.59999999404,371444.6999999881,4,1427.199999988079,374224.5,HRV,HRV_0007,2022-11-30 17:34:27
Butt,7,The adjective callipygian refers to someone who has a beautiful what? ,88,0.858,51,374224.5,q,S,6014.799999982119,,,,,381624.1999999881,HRV,HRV_0007,2022-11-30 17:34:27
China,7,Which country first used the decimal system?  ,338,0.554,52,381624.1999999881,t,W,3215.0,387359.6999999881,391383.39999997616,3,1120.0,393579.6999999881,HRV,HRV_0007,2022-11-30 17:34:27
On a Jell-O box,5,"Where would you see the consumer warning ""Do not use fresh or frozen pineapple, kiwi, ginger-root, papaya, figs, or guava""?",411,1.783,53,393579.6999999881,q,S,5700.199999988079,,,,,401589.09999999404,HRV,HRV_0007,2022-11-30 17:34:27
Pumpkin,4,Whittaker Chambers hid Alger Hiss's purloined State Department documents in a hollowed-out what?,360,1.689,54,401589.09999999404,q,S,2026.699999988079,,,,,405824.7999999821,HRV,HRV_0007,2022-11-30 17:34:27
The Guinness Book of World Records,7,What did Ross and Norris McWhirter compile as a promotional giveaway in 1955? ,164,0.982,55,405824.7999999821,q,S,2166.5999999940395,,,,,409491.59999999404,HRV,HRV_0007,2022-11-30 17:34:27
Habanero,2,What chili pepper was believed the hottest in the world until the Naga Jolokia pepper was discovered in India in 2000?,401,1.329,56,409491.59999999404,q,S,1795.699999988079,,,,,413150.2999999821,HRV,HRV_0007,2022-11-30 17:34:27
Latex. This is known as the latex-fruit syndrome. ,6,Allergy to which material is associated with allergy to fruit such as papaya and banana? ,462,1.092,57,413150.39999997616,q,S,3752.5,,,,,418515.1999999881,HRV,HRV_0007,2022-11-30 17:34:27
" ""!"" ",4,"Eager to find out how his novel Les Miserables was being received, Victor Hugo sent a telegram to his publisher that read ""?"" What did his publisher reply?",35,0.719,58,418515.1999999881,q,S,4732.0,,,,,424500.0,HRV,HRV_0007,2022-11-30 17:34:27
Bookkeeper,7,What is the only English word with three consecutive double letters?  ,209,0.812,59,424500.0,q,S,4764.199999988079,,,,,430609.0,HRV,HRV_0007,2022-11-30 17:34:27
Columbus Circle ,5,What Manhattan intersection was America's first traffic circle?,228,1.015,60,430609.0,p,K,3717.7999999821186,,,,,435855.5,HRV,HRV_0007,2022-11-30 17:34:27
Capitol Hill,4,"Until 1790, what was known as Jenkins Hill? ",119,1.398,61,435855.5,q,S,2103.5,,,,,439887.0,HRV,HRV_0007,2022-11-30 17:34:27
Geyser,7,What English word comes from the name of a hot spring in Iceland's Haukadalur valley? ,171,1.645,62,439887.0,q,S,2352.5999999940395,,,,,444416.39999997616,HRV,HRV_0007,2022-11-30 17:34:27
Adobe,4,"What word for mud bricks comes to us from the ancient Egyptian word ""dbt""? ",298,1.673,63,444416.39999997616,q,S,4464.0,,,,,451080.1999999881,HRV,HRV_0007,2022-11-30 17:34:27
Tears,2,"At 6-8 weeks, babies start producing what? ",23,1.146,64,451080.1999999881,q,S,1984.800000011921,,,,,454729.6999999881,HRV,HRV_0007,2022-11-30 17:34:27
Orville Wright,6,Who was flying the plane in which the first US airplane fatality occurred? ,377,0.714,65,454729.7999999821,p,K,5581.200000017881,,,,,461564.2999999821,HRV,HRV_0007,2022-11-30 17:34:27
chickpeas,4,What is used to make hummus?,424,1.057,66,461564.2999999821,p,K,2275.300000011921,,,,,465424.7999999821,HRV,HRV_0007,2022-11-30 17:34:27
Steamboat Geyser,2,"Which Yellowstone geyser, with eruptions 100 fee taller than Old Faithful's, is the world's tallest?",359,1.445,67,465424.7999999821,q,S,6046.700000017881,,,,,473446.6999999881,HRV,HRV_0007,2022-11-30 17:34:27
Darwin's,2,"For his tenacity, 19th century biologist Thomas Huxley was nicknamed whose ""bulldog""?",40,1.68,68,473446.6999999881,q,S,2888.5,,,,,478534.59999999404,HRV,HRV_0007,2022-11-30 17:34:27
@,2,"in 2004, for the Internet age, what new character was added to the Morse code alphabet, the first ever official addition since world war I?",56,1.45,69,478534.59999999404,q,S,4432.5,,,,,484932.89999997616,HRV,HRV_0007,2022-11-30 17:34:27
Every jar of peanut butter must be at least 90% peanuts,5,What percentage of peanuts is found in a standard jar of peanut butter?,423,1.069,70,484932.89999997616,t,W,3650.300000011921,491110.09999999404,495116.5,5,778.5999999940395,497489.2999999821,HRV,HRV_0007,2022-11-30 17:34:27
Nutmeg,4,What slightly hallucinogenic spice did Malcolm X use to get high while in prison? ,407,1.421,71,497489.2999999821,p,K,5103.200000017881,,,,,504539.6999999881,HRV,HRV_0007,2022-11-30 17:34:27
Sri Lanka,7,"The word serendipity comes from Serendip, the Persian name for what island? ",109,1.529,72,504539.6999999881,q,S,5251.800000011921,,,,,511839.0,HRV,HRV_0007,2022-11-30 17:34:27
Bacon,1,"In Britain, what kind of meat comes in rashers?",397,1.57,73,511839.0,q,S,1680.3999999761581,,,,,515631.5,HRV,HRV_0007,2022-11-30 17:34:27
Thomas Nast ,2,Which cartoonist is famous for creating the popular image of Santa Claus? ,333,1.773,74,515631.5,q,S,2184.199999988079,,,,,520100.89999997616,HRV,HRV_0007,2022-11-30 17:34:27
South Africa,6,In what country was the largest rough diamond ever discovered?,62,1.927,75,520100.89999997616,q,S,2570.300000011921,,,,,525116.599999994,HRV,HRV_0007,2022-11-30 17:34:27
The Mona Lisa,5,Pablo Picasso was one of the suspects questioned when what item was stolen in Paris in 1911? ,78,1.067,76,525116.599999994,t,W,7339.799999982119,534982.0,538988.3999999762,5,1411.6000000238419,541976.599999994,HRV,HRV_0007,2022-11-30 17:34:27
Mushrooms which have been exposed to light,7,What is the only non-animal natural source of vitamin D?,459,1.244,77,541976.599999994,p,K,4254.9000000059605,,,,,547998.5,HRV,HRV_0007,2022-11-30 17:34:27
OutKast,7,Who was sued in 1999 by Rosa Parks after they used her name to title a hit song?  ,379,1.369,78,547998.6999999881,q,S,3640.300000011921,,,,,553535.6999999881,HRV,HRV_0007,2022-11-30 17:34:27
Zinfindel,5,"What grape, used to make a popular California wine, is called Primitivo in Europe?  ",403,1.213,79,553535.6999999881,q,S,1911.5999999940395,,,,,557185.599999994,HRV,HRV_0007,2022-11-30 17:34:27
Pepper and Mustard,4,What are the top two most popular spices in the world?,422,1.274,80,557185.599999994,q,S,1957.5,,,,,560949.6999999881,HRV,HRV_0007,2022-11-30 17:34:27
The Blair Witch Project,2,"What 1990's movie was filmed on a budget of $60,000 but grossed over $100 million? ",125,0.53,81,560949.6999999881,t,W,4849.300000011921,568330.099999994,572348.1999999881,5,940.0,574333.7999999821,HRV,HRV_0007,2022-11-30 17:34:27
Phosphorus,2,"What element did alchemist Hennig Brand discover in 1669 when, boiling his own urine in the hopes of making gold, he observed glowing fumes?",169,0.543,82,574333.7999999821,q,S,2569.0999999940395,,,,,577972.6999999881,HRV,HRV_0007,2022-11-30 17:34:27
Bruce Springsteen's Born in the USA ,5,What was the first CD pressed for commerical release in the U.S.?,282,0.913,83,577972.6999999881,t,W,3642.5,584147.2999999821,588164.599999994,2,1549.0,591159.0,HRV,HRV_0007,2022-11-30 17:34:27
Rod Serling ,1,What famed TV personality wrote the screenplay for 1968's Planet of the Apes? ,175,1.693,84,591159.099999994,q,S,4178.0999999940395,,,,,597560.1999999881,HRV,HRV_0007,2022-11-30 17:34:27
C,6,"James Bond works for M, but what single initial is used for the real-life director of Britain's MI6?",71,1.531,85,597560.1999999881,q,S,1870.699999988079,,,,,601498.099999994,HRV,HRV_0007,2022-11-30 17:34:27
