trialN,stimuli,trialStartTime,trialStartTime_UNIX,stimulus1,stimulus2,stimulus1Bid,stimulus2Bid,delta,selected,rt,rt_UNIX,rt_perfnow,receivedResponse,rsp,trialEndTime,trialDuration,trialEndTime_UNIX,trialDuration_UNIX,exp,subjectId,date
0,"[{'imgObject': {}, 'id': 'lox', 'src': '/static/foodstim60/lox.jpg', 'key': 'u', 'origWidth': 410, 'origHeight': 411, 'width': 185.4, 'height': 185.8521951219512, 'widthPercent': 0.45, 'rescaleHeight': False, 'trialN': 0, 'loaded': True, 'loadedTime': 4249.700000047684, 'positionName': 'LEFT', 'positionCoords': [12.76, 362], 'bid': 2.66}, {'imgObject': {}, 'id': 'hashbrowns', 'src': '/static/foodstim60/hashbrowns.jpg', 'key': 'i', 'origWidth': 411, 'origHeight': 410, 'width': 185.4, 'height': 184.94890510948906, 'widthPercent': 0.45, 'rescaleHeight': False, 'trialN': 0, 'loaded': True, 'loadedTime': 4254.600000023842, 'positionName': 'RIGHT', 'positionCoords': [214.24, 362.5], 'bid': 1.35}]",4550.400000095367,1669831818152,lox,hashbrowns,2.66,1.35,-1.31,hashbrowns,1008.2999999523163,1018,1018.5999999046326,True,i,6078.200000047684,1527.7999999523163,1669831819679,1527,HRV,HRV_0176,2022-11-30 18:15:14
1,"[{'imgObject': {}, 'id': 'salmon', 'src': '/static/foodstim60/salmon.jpg', 'key': 'u', 'origWidth': 410, 'origHeight': 409, 'width': 185.4, 'height': 184.9478048780488, 'widthPercent': 0.45, 'rescaleHeight': False, 'trialN': 1, 'loaded': True, 'loadedTime': 4255.700000047684, 'positionName': 'LEFT', 'positionCoords': [12.76, 362.5], 'bid': 3.25}, {'imgObject': {}, 'id': 'sushi w_condiments', 'src': '/static/foodstim60/sushi w_condiments.jpg', 'key': 'i', 'origWidth': 410, 'origHeight': 410, 'width': 185.4, 'height': 185.4, 'widthPercent': 0.45, 'rescaleHeight': False, 'trialN': 1, 'loaded': True, 'loadedTime': 4267.600000023842, 'positionName': 'RIGHT', 'positionCoords': [214.24, 362], 'bid': 6.11}]",6079.0,1669831819680,salmon,sushi w_condiments,3.25,6.11,2.8600000000000003,salmon,1268.7000000476837,1280,1279.8000000715256,True,u,7862.0,1783.0,1669831821463,1783,HRV,HRV_0176,2022-11-30 18:15:14
2,"[{'imgObject': {}, 'id': 'salmon', 'src': '/static/foodstim60/salmon.jpg', 'key': 'u', 'origWidth': 410, 'origHeight': 409, 'width': 185.4, 'height': 184.9478048780488, 'widthPercent': 0.45, 'rescaleHeight': False, 'trialN': 2, 'loaded': True, 'loadedTime': 4266.300000071526, 'positionName': 'LEFT', 'positionCoords': [12.76, 362.5], 'bid': 3.25}, {'imgObject': {}, 'id': 'lox', 'src': '/static/foodstim60/lox.jpg', 'key': 'i', 'origWidth': 410, 'origHeight': 411, 'width': 185.4, 'height': 185.8521951219512, 'widthPercent': 0.45, 'rescaleHeight': False, 'trialN': 2, 'loaded': True, 'loadedTime': 4250.400000095367, 'positionName': 'RIGHT', 'positionCoords': [214.24, 362], 'bid': 2.66}]",7862.900000095367,1669831821464,salmon,lox,3.25,2.66,-0.5899999999999999,salmon,911.7999999523163,924,923.5,True,u,9295.0,1432.0999999046326,1669831822896,1432,HRV,HRV_0176,2022-11-30 18:15:14
3,"[{'imgObject': {}, 'id': 'rigatoni', 'src': '/static/foodstim60/rigatoni.jpg', 'key': 'u', 'origWidth': 411, 'origHeight': 411, 'width': 185.4, 'height': 185.4, 'widthPercent': 0.45, 'rescaleHeight': False, 'trialN': 3, 'loaded': True, 'loadedTime': 4276.700000047684, 'positionName': 'LEFT', 'positionCoords': [12.76, 362], 'bid': 1.26}, {'imgObject': {}, 'id': 'raspberries', 'src': '/static/foodstim60/raspberries.jpg', 'key': 'i', 'origWidth': 411, 'origHeight': 411, 'width': 185.4, 'height': 185.4, 'widthPercent': 0.45, 'rescaleHeight': False, 'trialN': 3, 'loaded': True, 'loadedTime': 4286.800000071526, 'positionName': 'RIGHT', 'positionCoords': [214.24, 362], 'bid': 2.62}]",9295.600000023842,1669831822897,rigatoni,raspberries,1.26,2.62,1.36,rigatoni,1056.1000000238419,1070,1070.2000000476837,True,u,10869.200000047684,1573.6000000238419,1669831824470,1573,HRV,HRV_0176,2022-11-30 18:15:14
4,"[{'imgObject': {}, 'id': 'roastedpotatoes', 'src': '/static/foodstim60/roastedpotatoes.jpg', 'key': 'u', 'origWidth': 409, 'origHeight': 410, 'width': 185.4, 'height': 185.85330073349635, 'widthPercent': 0.45, 'rescaleHeight': False, 'trialN': 4, 'loaded': True, 'loadedTime': 4289.600000023842, 'positionName': 'LEFT', 'positionCoords': [12.76, 362], 'bid': 9.27}, {'imgObject': {}, 'id': 'tacos', 'src': '/static/foodstim60/tacos.jpg', 'key': 'i', 'origWidth': 411, 'origHeight': 411, 'width': 185.4, 'height': 185.4, 'widthPercent': 0.45, 'rescaleHeight': False, 'trialN': 4, 'loaded': True, 'loadedTime': 4295.700000047684, 'positionName': 'RIGHT', 'positionCoords': [214.24, 362], 'bid': 9.7}]",10869.600000023842,1669831824471,roastedpotatoes,tacos,9.27,9.7,0.4299999999999997,tacos,818.1000000238419,830,829.8999999761581,True,i,12205.100000023842,1335.5,1669831825806,1335,HRV,HRV_0176,2022-11-30 18:15:14
5,"[{'imgObject': {}, 'id': 'cherries', 'src': '/static/foodstim60/cherries.jpg', 'key': 'u', 'origWidth': 410, 'origHeight': 411, 'width': 185.4, 'height': 185.8521951219512, 'widthPercent': 0.45, 'rescaleHeight': False, 'trialN': 5, 'loaded': True, 'loadedTime': 4298.400000095367, 'positionName': 'LEFT', 'positionCoords': [12.76, 362], 'bid': 0.63}, {'imgObject': {}, 'id': 'shreddedwheatwithmilk', 'src': '/static/foodstim60/shreddedwheatwithmilk.jpg', 'key': 'i', 'origWidth': 410, 'origHeight': 410, 'width': 185.4, 'height': 185.4, 'widthPercent': 0.45, 'rescaleHeight': False, 'trialN': 5, 'loaded': True, 'loadedTime': 4306.800000071526, 'positionName': 'RIGHT', 'positionCoords': [214.24, 362], 'bid': 0.92}]",12205.5,1669831825807,cherries,shreddedwheatwithmilk,0.63,0.92,0.29000000000000004,shreddedwheatwithmilk,1429.2000000476837,1439,1439.3000000715256,True,i,14148.600000023842,1943.1000000238419,1669831827750,1943,HRV,HRV_0176,2022-11-30 18:15:14
6,"[{'imgObject': {}, 'id': 'rigatoni', 'src': '/static/foodstim60/rigatoni.jpg', 'key': 'u', 'origWidth': 411, 'origHeight': 411, 'width': 185.4, 'height': 185.4, 'widthPercent': 0.45, 'rescaleHeight': False, 'trialN': 6, 'loaded': True, 'loadedTime': 4273.5, 'positionName': 'LEFT', 'positionCoords': [12.76, 362], 'bid': 1.26}, {'imgObject': {}, 'id': 'strawberries', 'src': '/static/foodstim60/strawberries.jpg', 'key': 'i', 'origWidth': 410, 'origHeight': 410, 'width': 185.4, 'height': 185.4, 'widthPercent': 0.45, 'rescaleHeight': False, 'trialN': 6, 'loaded': True, 'loadedTime': 4310.700000047684, 'positionName': 'RIGHT', 'positionCoords': [214.24, 362], 'bid': 0.04}]",14149.0,1669831827750,rigatoni,strawberries,1.26,0.04,-1.22,rigatoni,981.7000000476837,992,992.1000000238419,True,u,15646.600000023842,1497.6000000238419,1669831829248,1498,HRV,HRV_0176,2022-11-30 18:15:14
7,"[{'imgObject': {}, 'id': 'eggs', 'src': '/static/foodstim60/eggs.jpg', 'key': 'u', 'origWidth': 409, 'origHeight': 409, 'width': 185.4, 'height': 185.4, 'widthPercent': 0.45, 'rescaleHeight': False, 'trialN': 7, 'loaded': True, 'loadedTime': 4314.700000047684, 'positionName': 'LEFT', 'positionCoords': [12.76, 362], 'bid': 8.49}, {'imgObject': {}, 'id': 'luckycharms', 'src': '/static/foodstim60/luckycharms.jpg', 'key': 'i', 'origWidth': 410, 'origHeight': 409, 'width': 185.4, 'height': 184.9478048780488, 'widthPercent': 0.45, 'rescaleHeight': False, 'trialN': 7, 'loaded': True, 'loadedTime': 4326.900000095367, 'positionName': 'RIGHT', 'positionCoords': [214.24, 362.5], 'bid': 9.7}]",15647.900000095367,1669831829249,eggs,luckycharms,8.49,9.7,1.209999999999999,luckycharms,1015.7999999523163,1031,1031.2999999523163,True,i,17181.600000023842,1533.6999999284744,1669831830783,1534,HRV,HRV_0176,2022-11-30 18:15:14
8,"[{'imgObject': {}, 'id': 'Grapes', 'src': '/static/foodstim60/Grapes.jpg', 'key': 'u', 'origWidth': 411, 'origHeight': 411, 'width': 185.4, 'height': 185.4, 'widthPercent': 0.45, 'rescaleHeight': False, 'trialN': 8, 'loaded': True, 'loadedTime': 4344.700000047684, 'positionName': 'LEFT', 'positionCoords': [12.76, 362], 'bid': 1.16}, {'imgObject': {}, 'id': 'rigatoni', 'src': '/static/foodstim60/rigatoni.jpg', 'key': 'i', 'origWidth': 411, 'origHeight': 411, 'width': 185.4, 'height': 185.4, 'widthPercent': 0.45, 'rescaleHeight': False, 'trialN': 8, 'loaded': True, 'loadedTime': 4277.700000047684, 'positionName': 'RIGHT', 'positionCoords': [214.24, 362], 'bid': 1.26}]",17182.200000047684,1669831830784,Grapes,rigatoni,1.16,1.26,0.10000000000000009,rigatoni,963.5,974,975.1000000238419,True,i,18663.100000023842,1480.8999999761581,1669831832264,1480,HRV,HRV_0176,2022-11-30 18:15:14
9,"[{'imgObject': {}, 'id': 'avocado', 'src': '/static/foodstim60/avocado.jpg', 'key': 'u', 'origWidth': 409, 'origHeight': 409, 'width': 185.4, 'height': 185.4, 'widthPercent': 0.45, 'rescaleHeight': False, 'trialN': 9, 'loaded': True, 'loadedTime': 4345.200000047684, 'positionName': 'LEFT', 'positionCoords': [12.76, 362], 'bid': 0.67}, {'imgObject': {}, 'id': 'raspberries', 'src': '/static/foodstim60/raspberries.jpg', 'key': 'i', 'origWidth': 411, 'origHeight': 411, 'width': 185.4, 'height': 185.4, 'widthPercent': 0.45, 'rescaleHeight': False, 'trialN': 9, 'loaded': True, 'loadedTime': 4280.700000047684, 'positionName': 'RIGHT', 'positionCoords': [214.24, 362], 'bid': 2.62}]",18664.0,1669831832265,avocado,raspberries,0.67,2.62,1.9500000000000002,raspberries,1091.7000000476837,1104,1103.4000000953674,True,i,20269.800000071526,1605.8000000715256,1669831833871,1606,HRV,HRV_0176,2022-11-30 18:15:14
10,"[{'imgObject': {}, 'id': 'Grapes', 'src': '/static/foodstim60/Grapes.jpg', 'key': 'u', 'origWidth': 411, 'origHeight': 411, 'width': 185.4, 'height': 185.4, 'widthPercent': 0.45, 'rescaleHeight': False, 'trialN': 10, 'loaded': True, 'loadedTime': 4344.400000095367, 'positionName': 'LEFT', 'positionCoords': [12.76, 362], 'bid': 1.16}, {'imgObject': {}, 'id': 'cherry tomato', 'src': '/static/foodstim60/cherry tomato.jpg', 'key': 'i', 'origWidth': 410, 'origHeight': 410, 'width': 185.4, 'height': 185.4, 'widthPercent': 0.45, 'rescaleHeight': False, 'trialN': 10, 'loaded': True, 'loadedTime': 4327.800000071526, 'positionName': 'RIGHT', 'positionCoords': [214.24, 362], 'bid': 2.62}]",20270.5,1669831833872,Grapes,cherry tomato,1.16,2.62,1.4600000000000002,Grapes,1267.2000000476837,1282,1281.9000000953674,True,u,22063.300000071526,1792.8000000715256,1669831835665,1793,HRV,HRV_0176,2022-11-30 18:15:14
11,"[{'imgObject': {}, 'id': 'eggs', 'src': '/static/foodstim60/eggs.jpg', 'key': 'u', 'origWidth': 409, 'origHeight': 409, 'width': 185.4, 'height': 185.4, 'widthPercent': 0.45, 'rescaleHeight': False, 'trialN': 11, 'loaded': True, 'loadedTime': 4317.200000047684, 'positionName': 'LEFT', 'positionCoords': [12.76, 362], 'bid': 8.49}, {'imgObject': {}, 'id': 'mashed potato', 'src': '/static/foodstim60/mashed potato.jpg', 'key': 'i', 'origWidth': 409, 'origHeight': 409, 'width': 185.4, 'height': 185.4, 'widthPercent': 0.45, 'rescaleHeight': False, 'trialN': 11, 'loaded': True, 'loadedTime': 4334.5, 'positionName': 'RIGHT', 'positionCoords': [214.24, 362], 'bid': 8.73}]",22064.5,1669831835666,eggs,mashed potato,8.49,8.73,0.2400000000000002,eggs,923.2000000476837,937,937.5,True,u,23511.400000095367,1446.9000000953674,1669831837113,1447,HRV,HRV_0176,2022-11-30 18:15:14
12,"[{'imgObject': {}, 'id': 'Grapes', 'src': '/static/foodstim60/Grapes.jpg', 'key': 'u', 'origWidth': 411, 'origHeight': 411, 'width': 185.4, 'height': 185.4, 'widthPercent': 0.45, 'rescaleHeight': False, 'trialN': 12, 'loaded': True, 'loadedTime': 4343.800000071526, 'positionName': 'LEFT', 'positionCoords': [12.76, 362], 'bid': 1.16}, {'imgObject': {}, 'id': 'hashbrowns', 'src': '/static/foodstim60/hashbrowns.jpg', 'key': 'i', 'origWidth': 411, 'origHeight': 410, 'width': 185.4, 'height': 184.94890510948906, 'widthPercent': 0.45, 'rescaleHeight': False, 'trialN': 12, 'loaded': True, 'loadedTime': 4254.200000047684, 'positionName': 'RIGHT', 'positionCoords': [214.24, 362.5], 'bid': 1.35}]",23512.5,1669831837114,Grapes,hashbrowns,1.16,1.35,0.19000000000000017,Grapes,1327.2000000476837,1338,1338.2000000476837,True,u,25358.100000023842,1845.6000000238419,1669831838959,1845,HRV,HRV_0176,2022-11-30 18:15:14
13,"[{'imgObject': {}, 'id': 'burrito', 'src': '/static/foodstim60/burrito.jpg', 'key': 'u', 'origWidth': 410, 'origHeight': 410, 'width': 185.4, 'height': 185.4, 'widthPercent': 0.45, 'rescaleHeight': False, 'trialN': 13, 'loaded': True, 'loadedTime': 4353, 'positionName': 'LEFT', 'positionCoords': [12.76, 362], 'bid': 9.7}, {'imgObject': {}, 'id': 'omelette', 'src': '/static/foodstim60/omelette.jpg', 'key': 'i', 'origWidth': 410, 'origHeight': 409, 'width': 185.4, 'height': 184.9478048780488, 'widthPercent': 0.45, 'rescaleHeight': False, 'trialN': 13, 'loaded': True, 'loadedTime': 4357.800000071526, 'positionName': 'RIGHT', 'positionCoords': [214.24, 362.5], 'bid': 9.7}]",25358.900000095367,1669831838960,burrito,omelette,9.7,9.7,0.0,omelette,1214.7999999523163,1228,1227.3999999761581,True,i,27092.800000071526,1733.8999999761581,1669831840694,1734,HRV,HRV_0176,2022-11-30 18:15:14
14,"[{'imgObject': {}, 'id': 'mango', 'src': '/static/foodstim60/mango.jpg', 'key': 'u', 'origWidth': 411, 'origHeight': 411, 'width': 185.4, 'height': 185.4, 'widthPercent': 0.45, 'rescaleHeight': False, 'trialN': 14, 'loaded': True, 'loadedTime': 4366.700000047684, 'positionName': 'LEFT', 'positionCoords': [12.76, 362], 'bid': 9.41}, {'imgObject': {}, 'id': 'turkey sandwich', 'src': '/static/foodstim60/turkey sandwich.jpg', 'key': 'i', 'origWidth': 409, 'origHeight': 409, 'width': 185.4, 'height': 185.4, 'widthPercent': 0.45, 'rescaleHeight': False, 'trialN': 14, 'loaded': True, 'loadedTime': 4370.700000047684, 'positionName': 'RIGHT', 'positionCoords': [214.24, 362], 'bid': 9.8}]",27093.200000047684,1669831840694,mango,turkey sandwich,9.41,9.8,0.39000000000000057,turkey sandwich,832.5,847,846.2999999523163,True,i,28447.400000095367,1354.2000000476837,1669831842049,1355,HRV,HRV_0176,2022-11-30 18:15:14
15,"[{'imgObject': {}, 'id': 'banana', 'src': '/static/foodstim60/banana.jpg', 'key': 'u', 'origWidth': 410, 'origHeight': 410, 'width': 185.4, 'height': 185.4, 'widthPercent': 0.45, 'rescaleHeight': False, 'trialN': 15, 'loaded': True, 'loadedTime': 4373.700000047684, 'positionName': 'LEFT', 'positionCoords': [12.76, 362], 'bid': 9.7}, {'imgObject': {}, 'id': 'luckycharms', 'src': '/static/foodstim60/luckycharms.jpg', 'key': 'i', 'origWidth': 410, 'origHeight': 409, 'width': 185.4, 'height': 184.9478048780488, 'widthPercent': 0.45, 'rescaleHeight': False, 'trialN': 15, 'loaded': True, 'loadedTime': 4327.300000071526, 'positionName': 'RIGHT', 'positionCoords': [214.24, 362.5], 'bid': 9.7}]",28448.5,1669831842050,banana,luckycharms,9.7,9.7,0.0,luckycharms,1377.2000000476837,1388,1388.6000000238419,True,i,30342.400000095367,1893.9000000953674,1669831843944,1894,HRV,HRV_0176,2022-11-30 18:15:14
16,"[{'imgObject': {}, 'id': 'strawberries', 'src': '/static/foodstim60/strawberries.jpg', 'key': 'u', 'origWidth': 410, 'origHeight': 410, 'width': 185.4, 'height': 185.4, 'widthPercent': 0.45, 'rescaleHeight': False, 'trialN': 16, 'loaded': True, 'loadedTime': 4314.100000023842, 'positionName': 'LEFT', 'positionCoords': [12.76, 362], 'bid': 0.04}, {'imgObject': {}, 'id': 'edamame', 'src': '/static/foodstim60/edamame.jpg', 'key': 'i', 'origWidth': 409, 'origHeight': 410, 'width': 185.4, 'height': 185.85330073349635, 'widthPercent': 0.45, 'rescaleHeight': False, 'trialN': 16, 'loaded': True, 'loadedTime': 4374.900000095367, 'positionName': 'RIGHT', 'positionCoords': [214.24, 362], 'bid': 0.04}]",30343.400000095367,1669831843945,strawberries,edamame,0.04,0.04,0.0,strawberries,1204.2999999523163,1215,1215.0999999046326,True,u,32063.5,1720.0999999046326,1669831845665,1720,HRV,HRV_0176,2022-11-30 18:15:14
17,"[{'imgObject': {}, 'id': 'kiwi', 'src': '/static/foodstim60/kiwi.jpg', 'key': 'u', 'origWidth': 410, 'origHeight': 410, 'width': 185.4, 'height': 185.4, 'widthPercent': 0.45, 'rescaleHeight': False, 'trialN': 17, 'loaded': True, 'loadedTime': 4386.800000071526, 'positionName': 'LEFT', 'positionCoords': [12.76, 362], 'bid': 0.43}, {'imgObject': {}, 'id': 'pear', 'src': '/static/foodstim60/pear.jpg', 'key': 'i', 'origWidth': 411, 'origHeight': 410, 'width': 185.4, 'height': 184.94890510948906, 'widthPercent': 0.45, 'rescaleHeight': False, 'trialN': 17, 'loaded': True, 'loadedTime': 4388.300000071526, 'positionName': 'RIGHT', 'positionCoords': [214.24, 362.5], 'bid': 0.24}]",32064.700000047684,1669831845666,kiwi,pear,0.43,0.24,-0.19,pear,1689.0,1702,1702.3999999761581,True,i,34268.90000009537,2204.2000000476837,1669831847870,2204,HRV,HRV_0176,2022-11-30 18:15:14
18,"[{'imgObject': {}, 'id': 'cherries', 'src': '/static/foodstim60/cherries.jpg', 'key': 'u', 'origWidth': 410, 'origHeight': 411, 'width': 185.4, 'height': 185.8521951219512, 'widthPercent': 0.45, 'rescaleHeight': False, 'trialN': 18, 'loaded': True, 'loadedTime': 4304.700000047684, 'positionName': 'LEFT', 'positionCoords': [12.76, 362], 'bid': 0.63}, {'imgObject': {}, 'id': 'avocado', 'src': '/static/foodstim60/avocado.jpg', 'key': 'i', 'origWidth': 409, 'origHeight': 409, 'width': 185.4, 'height': 185.4, 'widthPercent': 0.45, 'rescaleHeight': False, 'trialN': 18, 'loaded': True, 'loadedTime': 4348.400000095367, 'positionName': 'RIGHT', 'positionCoords': [214.24, 362], 'bid': 0.67}]",34270.10000002384,1669831847871,cherries,avocado,0.63,0.67,0.040000000000000036,avocado,1504.6000000238419,1514,1513.8000000715256,True,i,36285.700000047684,2015.6000000238419,1669831849887,2016,HRV,HRV_0176,2022-11-30 18:15:14
19,"[{'imgObject': {}, 'id': 'turkey sandwich', 'src': '/static/foodstim60/turkey sandwich.jpg', 'key': 'u', 'origWidth': 409, 'origHeight': 409, 'width': 185.4, 'height': 185.4, 'widthPercent': 0.45, 'rescaleHeight': False, 'trialN': 19, 'loaded': True, 'loadedTime': 4367.800000071526, 'positionName': 'LEFT', 'positionCoords': [12.76, 362], 'bid': 9.8}, {'imgObject': {}, 'id': 'cheerios', 'src': '/static/foodstim60/cheerios.jpg', 'key': 'i', 'origWidth': 409, 'origHeight': 410, 'width': 185.4, 'height': 185.85330073349635, 'widthPercent': 0.45, 'rescaleHeight': False, 'trialN': 19, 'loaded': True, 'loadedTime': 4394.5, 'positionName': 'RIGHT', 'positionCoords': [214.24, 362], 'bid': 9.17}]",36286.10000002384,1669831849887,turkey sandwich,cheerios,9.8,9.17,-0.6300000000000008,turkey sandwich,1124.6000000238419,1137,1136.8999999761581,True,u,37928.300000071526,1642.2000000476837,1669831851530,1643,HRV,HRV_0176,2022-11-30 18:15:14
20,"[{'imgObject': {}, 'id': 'raisin bran w milk', 'src': '/static/foodstim60/raisin bran w milk.jpg', 'key': 'u', 'origWidth': 411, 'origHeight': 411, 'width': 185.4, 'height': 185.4, 'widthPercent': 0.45, 'rescaleHeight': False, 'trialN': 20, 'loaded': True, 'loadedTime': 4396.100000023842, 'positionName': 'LEFT', 'positionCoords': [12.76, 362], 'bid': 2.91}, {'imgObject': {}, 'id': 'lox', 'src': '/static/foodstim60/lox.jpg', 'key': 'i', 'origWidth': 410, 'origHeight': 411, 'width': 185.4, 'height': 185.8521951219512, 'widthPercent': 0.45, 'rescaleHeight': False, 'trialN': 20, 'loaded': True, 'loadedTime': 4250, 'positionName': 'RIGHT', 'positionCoords': [214.24, 362], 'bid': 2.66}]",37929.10000002384,1669831851530,raisin bran w milk,lox,2.91,2.66,-0.25,raisin bran w milk,1583.6000000238419,1598,1597.3000000715256,True,u,40031.5,2102.399999976158,1669831853633,2103,HRV,HRV_0176,2022-11-30 18:15:14
21,"[{'imgObject': {}, 'id': 'corn cob', 'src': '/static/foodstim60/corn cob.jpg', 'key': 'u', 'origWidth': 411, 'origHeight': 411, 'width': 185.4, 'height': 185.4, 'widthPercent': 0.45, 'rescaleHeight': False, 'trialN': 21, 'loaded': True, 'loadedTime': 4399.600000023842, 'positionName': 'LEFT', 'positionCoords': [12.76, 362], 'bid': 8.15}, {'imgObject': {}, 'id': 'burrito', 'src': '/static/foodstim60/burrito.jpg', 'key': 'i', 'origWidth': 410, 'origHeight': 410, 'width': 185.4, 'height': 185.4, 'widthPercent': 0.45, 'rescaleHeight': False, 'trialN': 21, 'loaded': True, 'loadedTime': 4352.5, 'positionName': 'RIGHT', 'positionCoords': [214.24, 362], 'bid': 9.7}]",40032.60000002384,1669831853634,corn cob,burrito,8.15,9.7,1.549999999999999,burrito,1155.1000000238419,1168,1168.1000000238419,True,i,41709.300000071526,1676.7000000476837,1669831855311,1677,HRV,HRV_0176,2022-11-30 18:15:14
22,"[{'imgObject': {}, 'id': 'sushi w_condiments', 'src': '/static/foodstim60/sushi w_condiments.jpg', 'key': 'u', 'origWidth': 410, 'origHeight': 410, 'width': 185.4, 'height': 185.4, 'widthPercent': 0.45, 'rescaleHeight': False, 'trialN': 22, 'loaded': True, 'loadedTime': 4272, 'positionName': 'LEFT', 'positionCoords': [12.76, 362], 'bid': 6.11}, {'imgObject': {}, 'id': 'fried eggs', 'src': '/static/foodstim60/fried eggs.jpg', 'key': 'i', 'origWidth': 410, 'origHeight': 410, 'width': 185.4, 'height': 185.4, 'widthPercent': 0.45, 'rescaleHeight': False, 'trialN': 22, 'loaded': True, 'loadedTime': 4421, 'positionName': 'RIGHT', 'positionCoords': [214.24, 362], 'bid': 6.99}]",41709.800000071526,1669831855311,sushi w_condiments,fried eggs,6.11,6.99,0.8799999999999999,fried eggs,1007.8999999761581,1018,1018.2999999523163,True,i,43238.10000002384,1528.2999999523163,1669831856839,1528,HRV,HRV_0176,2022-11-30 18:15:14
23,"[{'imgObject': {}, 'id': 'popsicles', 'src': '/static/foodstim60/popsicles.jpg', 'key': 'u', 'origWidth': 410, 'origHeight': 410, 'width': 185.4, 'height': 185.4, 'widthPercent': 0.45, 'rescaleHeight': False, 'trialN': 23, 'loaded': True, 'loadedTime': 4424.5, 'positionName': 'LEFT', 'positionCoords': [12.76, 362], 'bid': 9.41}, {'imgObject': {}, 'id': 'mango', 'src': '/static/foodstim60/mango.jpg', 'key': 'i', 'origWidth': 411, 'origHeight': 411, 'width': 185.4, 'height': 185.4, 'widthPercent': 0.45, 'rescaleHeight': False, 'trialN': 23, 'loaded': True, 'loadedTime': 4366, 'positionName': 'RIGHT', 'positionCoords': [214.24, 362], 'bid': 9.41}]",43238.700000047684,1669831856840,popsicles,mango,9.41,9.41,0.0,popsicles,898.0,908,908.1000000238419,True,u,44653.700000047684,1415.0,1669831858255,1415,HRV,HRV_0176,2022-11-30 18:15:14
24,"[{'imgObject': {}, 'id': 'luckycharms', 'src': '/static/foodstim60/luckycharms.jpg', 'key': 'u', 'origWidth': 410, 'origHeight': 409, 'width': 185.4, 'height': 184.9478048780488, 'widthPercent': 0.45, 'rescaleHeight': False, 'trialN': 24, 'loaded': True, 'loadedTime': 4326.600000023842, 'positionName': 'LEFT', 'positionCoords': [12.76, 362.5], 'bid': 9.7}, {'imgObject': {}, 'id': 'burger', 'src': '/static/foodstim60/burger.jpg', 'key': 'i', 'origWidth': 409, 'origHeight': 409, 'width': 185.4, 'height': 185.4, 'widthPercent': 0.45, 'rescaleHeight': False, 'trialN': 24, 'loaded': True, 'loadedTime': 4425.600000023842, 'positionName': 'RIGHT', 'positionCoords': [214.24, 362], 'bid': 9.75}]",44654.5,1669831858256,luckycharms,burger,9.7,9.75,0.05000000000000071,luckycharms,987.2000000476837,999,999.3000000715256,True,u,46158.700000047684,1504.2000000476837,1669831859760,1504,HRV,HRV_0176,2022-11-30 18:15:14
25,"[{'imgObject': {}, 'id': 'omelette', 'src': '/static/foodstim60/omelette.jpg', 'key': 'u', 'origWidth': 410, 'origHeight': 409, 'width': 185.4, 'height': 184.9478048780488, 'widthPercent': 0.45, 'rescaleHeight': False, 'trialN': 25, 'loaded': True, 'loadedTime': 4357.200000047684, 'positionName': 'LEFT', 'positionCoords': [12.76, 362.5], 'bid': 9.7}, {'imgObject': {}, 'id': 'steak', 'src': '/static/foodstim60/steak.jpg', 'key': 'i', 'origWidth': 410, 'origHeight': 410, 'width': 185.4, 'height': 185.4, 'widthPercent': 0.45, 'rescaleHeight': False, 'trialN': 25, 'loaded': True, 'loadedTime': 4431.900000095367, 'positionName': 'RIGHT', 'positionCoords': [214.24, 362], 'bid': 9.7}]",46159.300000071526,1669831859761,omelette,steak,9.7,9.7,0.0,steak,1045.3999999761581,1056,1056.6999999284744,True,i,47719.0,1559.6999999284744,1669831861320,1559,HRV,HRV_0176,2022-11-30 18:15:14
26,"[{'imgObject': {}, 'id': 'eggsalad', 'src': '/static/foodstim60/eggsalad.jpg', 'key': 'u', 'origWidth': 410, 'origHeight': 409, 'width': 185.4, 'height': 184.9478048780488, 'widthPercent': 0.45, 'rescaleHeight': False, 'trialN': 26, 'loaded': True, 'loadedTime': 4435.100000023842, 'positionName': 'LEFT', 'positionCoords': [12.76, 362.5], 'bid': 5.92}, {'imgObject': {}, 'id': 'seaweed', 'src': '/static/foodstim60/seaweed.jpg', 'key': 'i', 'origWidth': 410, 'origHeight': 410, 'width': 185.4, 'height': 185.4, 'widthPercent': 0.45, 'rescaleHeight': False, 'trialN': 26, 'loaded': True, 'loadedTime': 4445.400000095367, 'positionName': 'RIGHT', 'positionCoords': [214.24, 362], 'bid': 5.92}]",47719.90000009537,1669831861321,eggsalad,seaweed,5.92,5.92,0.0,eggsalad,1567.7999999523163,1579,1578.6999999284744,True,u,49805.700000047684,2085.7999999523163,1669831863407,2086,HRV,HRV_0176,2022-11-30 18:15:14
27,"[{'imgObject': {}, 'id': 'eggsalad', 'src': '/static/foodstim60/eggsalad.jpg', 'key': 'u', 'origWidth': 410, 'origHeight': 409, 'width': 185.4, 'height': 184.9478048780488, 'widthPercent': 0.45, 'rescaleHeight': False, 'trialN': 27, 'loaded': True, 'loadedTime': 4441.100000023842, 'positionName': 'LEFT', 'positionCoords': [12.76, 362.5], 'bid': 5.92}, {'imgObject': {}, 'id': 'froot loops w milk', 'src': '/static/foodstim60/froot loops w milk.jpg', 'key': 'i', 'origWidth': 410, 'origHeight': 410, 'width': 185.4, 'height': 185.4, 'widthPercent': 0.45, 'rescaleHeight': False, 'trialN': 27, 'loaded': True, 'loadedTime': 4448.900000095367, 'positionName': 'RIGHT', 'positionCoords': [214.24, 362], 'bid': 9.9}]",49806.300000071526,1669831863407,eggsalad,froot loops w milk,5.92,9.9,3.9800000000000004,froot loops w milk,922.3999999761581,936,935.1999999284744,True,i,51247.5,1441.1999999284744,1669831864849,1442,HRV,HRV_0176,2022-11-30 18:15:14
28,"[{'imgObject': {}, 'id': 'cocktailshrimp', 'src': '/static/foodstim60/cocktailshrimp.jpg', 'key': 'u', 'origWidth': 410, 'origHeight': 410, 'width': 185.4, 'height': 185.4, 'widthPercent': 0.45, 'rescaleHeight': False, 'trialN': 28, 'loaded': True, 'loadedTime': 4468.900000095367, 'positionName': 'LEFT', 'positionCoords': [12.76, 362], 'bid': 8.2}, {'imgObject': {}, 'id': 'salad w chicken', 'src': '/static/foodstim60/salad w chicken.jpg', 'key': 'i', 'origWidth': 411, 'origHeight': 411, 'width': 185.4, 'height': 185.4, 'widthPercent': 0.45, 'rescaleHeight': False, 'trialN': 28, 'loaded': True, 'loadedTime': 4456.200000047684, 'positionName': 'RIGHT', 'positionCoords': [214.24, 362], 'bid': 8.2}]",51248.40000009537,1669831864850,cocktailshrimp,salad w chicken,8.2,8.2,0.0,salad w chicken,1327.2999999523163,1340,1340.2999999523163,True,i,53094.40000009537,1846.0,1669831866696,1846,HRV,HRV_0176,2022-11-30 18:15:14
29,"[{'imgObject': {}, 'id': 'eggsalad', 'src': '/static/foodstim60/eggsalad.jpg', 'key': 'u', 'origWidth': 410, 'origHeight': 409, 'width': 185.4, 'height': 184.9478048780488, 'widthPercent': 0.45, 'rescaleHeight': False, 'trialN': 29, 'loaded': True, 'loadedTime': 4435.400000095367, 'positionName': 'LEFT', 'positionCoords': [12.76, 362.5], 'bid': 5.92}, {'imgObject': {}, 'id': 'cocktailshrimp', 'src': '/static/foodstim60/cocktailshrimp.jpg', 'key': 'i', 'origWidth': 410, 'origHeight': 410, 'width': 185.4, 'height': 185.4, 'widthPercent': 0.45, 'rescaleHeight': False, 'trialN': 29, 'loaded': True, 'loadedTime': 4466.400000095367, 'positionName': 'RIGHT', 'positionCoords': [214.24, 362], 'bid': 8.2}]",53095.200000047684,1669831866696,eggsalad,cocktailshrimp,5.92,8.2,2.2799999999999994,eggsalad,934.5,949,948.7000000476837,True,u,54551.5,1456.2999999523163,1669831868153,1457,HRV,HRV_0176,2022-11-30 18:15:14
30,"[{'imgObject': {}, 'id': 'popsicles', 'src': '/static/foodstim60/popsicles.jpg', 'key': 'u', 'origWidth': 410, 'origHeight': 410, 'width': 185.4, 'height': 185.4, 'widthPercent': 0.45, 'rescaleHeight': False, 'trialN': 30, 'loaded': True, 'loadedTime': 4425.200000047684, 'positionName': 'LEFT', 'positionCoords': [12.76, 362], 'bid': 9.41}, {'imgObject': {}, 'id': 'raspberries', 'src': '/static/foodstim60/raspberries.jpg', 'key': 'i', 'origWidth': 411, 'origHeight': 411, 'width': 185.4, 'height': 185.4, 'widthPercent': 0.45, 'rescaleHeight': False, 'trialN': 30, 'loaded': True, 'loadedTime': 4280.400000095367, 'positionName': 'RIGHT', 'positionCoords': [214.24, 362], 'bid': 2.62}]",54552.5,1669831868154,popsicles,raspberries,9.41,2.62,-6.79,popsicles,834.2000000476837,850,850.3000000715256,True,u,55911.60000002384,1359.1000000238419,1669831869513,1359,HRV,HRV_0176,2022-11-30 18:15:14
31,"[{'imgObject': {}, 'id': 'roastedpotatoes', 'src': '/static/foodstim60/roastedpotatoes.jpg', 'key': 'u', 'origWidth': 409, 'origHeight': 410, 'width': 185.4, 'height': 185.85330073349635, 'widthPercent': 0.45, 'rescaleHeight': False, 'trialN': 31, 'loaded': True, 'loadedTime': 4290.5, 'positionName': 'LEFT', 'positionCoords': [12.76, 362], 'bid': 9.27}, {'imgObject': {}, 'id': 'froot loops w milk', 'src': '/static/foodstim60/froot loops w milk.jpg', 'key': 'i', 'origWidth': 410, 'origHeight': 410, 'width': 185.4, 'height': 185.4, 'widthPercent': 0.45, 'rescaleHeight': False, 'trialN': 31, 'loaded': True, 'loadedTime': 4445.800000071526, 'positionName': 'RIGHT', 'positionCoords': [214.24, 362], 'bid': 9.9}]",55912.60000002384,1669831869514,roastedpotatoes,froot loops w milk,9.27,9.9,0.6300000000000008,froot loops w milk,880.1000000238419,892,892.0,True,i,57311.200000047684,1398.6000000238419,1669831870912,1398,HRV,HRV_0176,2022-11-30 18:15:14
32,"[{'imgObject': {}, 'id': 'edamame', 'src': '/static/foodstim60/edamame.jpg', 'key': 'u', 'origWidth': 409, 'origHeight': 410, 'width': 185.4, 'height': 185.85330073349635, 'widthPercent': 0.45, 'rescaleHeight': False, 'trialN': 32, 'loaded': True, 'loadedTime': 4377.300000071526, 'positionName': 'LEFT', 'positionCoords': [12.76, 362], 'bid': 0.04}, {'imgObject': {}, 'id': 'ice cream sundae 002', 'src': '/static/foodstim60/ice cream sundae 002.jpg', 'key': 'i', 'origWidth': 409, 'origHeight': 409, 'width': 185.4, 'height': 185.4, 'widthPercent': 0.45, 'rescaleHeight': False, 'trialN': 32, 'loaded': True, 'loadedTime': 4449.300000071526, 'positionName': 'RIGHT', 'positionCoords': [214.24, 362], 'bid': 2.03}]",57312.300000071526,1669831870913,edamame,ice cream sundae 002,0.04,2.03,1.9899999999999998,ice cream sundae 002,1043.3999999761581,1055,1054.6999999284744,True,i,58868.700000047684,1556.3999999761581,1669831872470,1557,HRV,HRV_0176,2022-11-30 18:15:14
33,"[{'imgObject': {}, 'id': 'eggs', 'src': '/static/foodstim60/eggs.jpg', 'key': 'u', 'origWidth': 409, 'origHeight': 409, 'width': 185.4, 'height': 185.4, 'widthPercent': 0.45, 'rescaleHeight': False, 'trialN': 33, 'loaded': True, 'loadedTime': 4321.900000095367, 'positionName': 'LEFT', 'positionCoords': [12.76, 362], 'bid': 8.49}, {'imgObject': {}, 'id': 'chickenfingers', 'src': '/static/foodstim60/chickenfingers.jpg', 'key': 'i', 'origWidth': 410, 'origHeight': 410, 'width': 185.4, 'height': 185.4, 'widthPercent': 0.45, 'rescaleHeight': False, 'trialN': 33, 'loaded': True, 'loadedTime': 4455.300000071526, 'positionName': 'RIGHT', 'positionCoords': [214.24, 362], 'bid': 9.36}]",58869.5,1669831872471,eggs,chickenfingers,8.49,9.36,0.8699999999999992,eggs,782.2000000476837,796,796.3000000715256,True,u,60175.200000047684,1305.7000000476837,1669831873776,1305,HRV,HRV_0176,2022-11-30 18:15:14
34,"[{'imgObject': {}, 'id': 'turkey sandwich', 'src': '/static/foodstim60/turkey sandwich.jpg', 'key': 'u', 'origWidth': 409, 'origHeight': 409, 'width': 185.4, 'height': 185.4, 'widthPercent': 0.45, 'rescaleHeight': False, 'trialN': 34, 'loaded': True, 'loadedTime': 4371.100000023842, 'positionName': 'LEFT', 'positionCoords': [12.76, 362], 'bid': 9.8}, {'imgObject': {}, 'id': 'burger', 'src': '/static/foodstim60/burger.jpg', 'key': 'i', 'origWidth': 409, 'origHeight': 409, 'width': 185.4, 'height': 185.4, 'widthPercent': 0.45, 'rescaleHeight': False, 'trialN': 34, 'loaded': True, 'loadedTime': 4428.300000071526, 'positionName': 'RIGHT', 'positionCoords': [214.24, 362], 'bid': 9.75}]",60176.200000047684,1669831873777,turkey sandwich,burger,9.8,9.75,-0.05000000000000071,burger,2297.5,2313,2312.2000000476837,True,i,62999.200000047684,2823.0,1669831876600,2823,HRV,HRV_0176,2022-11-30 18:15:14
35,"[{'imgObject': {}, 'id': 'blueberries', 'src': '/static/foodstim60/blueberries.jpg', 'key': 'u', 'origWidth': 411, 'origHeight': 411, 'width': 185.4, 'height': 185.4, 'widthPercent': 0.45, 'rescaleHeight': False, 'trialN': 35, 'loaded': True, 'loadedTime': 4464.900000095367, 'positionName': 'LEFT', 'positionCoords': [12.76, 362], 'bid': 0.38}, {'imgObject': {}, 'id': 'fruitsalad', 'src': '/static/foodstim60/fruitsalad.jpg', 'key': 'i', 'origWidth': 410, 'origHeight': 410, 'width': 185.4, 'height': 185.4, 'widthPercent': 0.45, 'rescaleHeight': False, 'trialN': 35, 'loaded': True, 'loadedTime': 4473.100000023842, 'positionName': 'RIGHT', 'positionCoords': [214.24, 362], 'bid': 0}]",63000.60000002384,1669831876602,blueberries,fruitsalad,0.38,0.0,-0.38,blueberries,1263.1000000238419,1276,1276.5,True,u,64783.5,1782.8999999761581,1669831878385,1783,HRV,HRV_0176,2022-11-30 18:15:14
36,"[{'imgObject': {}, 'id': 'granola w milk', 'src': '/static/foodstim60/granola w milk.jpg', 'key': 'u', 'origWidth': 410, 'origHeight': 410, 'width': 185.4, 'height': 185.4, 'widthPercent': 0.45, 'rescaleHeight': False, 'trialN': 36, 'loaded': True, 'loadedTime': 4476.5, 'positionName': 'LEFT', 'positionCoords': [12.76, 362], 'bid': 1.45}, {'imgObject': {}, 'id': 'pear', 'src': '/static/foodstim60/pear.jpg', 'key': 'i', 'origWidth': 411, 'origHeight': 410, 'width': 185.4, 'height': 184.94890510948906, 'widthPercent': 0.45, 'rescaleHeight': False, 'trialN': 36, 'loaded': True, 'loadedTime': 4391.600000023842, 'positionName': 'RIGHT', 'positionCoords': [214.24, 362.5], 'bid': 0.24}]",64784.60000002384,1669831878386,granola w milk,pear,1.45,0.24,-1.21,pear,780.1000000238419,791,791.3999999761581,True,i,66079.5,1294.8999999761581,1669831879681,1295,HRV,HRV_0176,2022-11-30 18:15:14
37,"[{'imgObject': {}, 'id': 'tacos', 'src': '/static/foodstim60/tacos.jpg', 'key': 'u', 'origWidth': 411, 'origHeight': 411, 'width': 185.4, 'height': 185.4, 'widthPercent': 0.45, 'rescaleHeight': False, 'trialN': 37, 'loaded': True, 'loadedTime': 4292.100000023842, 'positionName': 'LEFT', 'positionCoords': [12.76, 362], 'bid': 9.7}, {'imgObject': {}, 'id': 'steak', 'src': '/static/foodstim60/steak.jpg', 'key': 'i', 'origWidth': 410, 'origHeight': 410, 'width': 185.4, 'height': 185.4, 'widthPercent': 0.45, 'rescaleHeight': False, 'trialN': 37, 'loaded': True, 'loadedTime': 4432.100000023842, 'positionName': 'RIGHT', 'positionCoords': [214.24, 362], 'bid': 9.7}]",66080.60000002384,1669831879682,tacos,steak,9.7,9.7,0.0,steak,1432.1000000238419,1449,1449.6000000238419,True,i,68039.40000009537,1958.8000000715256,1669831881641,1959,HRV,HRV_0176,2022-11-30 18:15:14
38,"[{'imgObject': {}, 'id': 'chickenfingers', 'src': '/static/foodstim60/chickenfingers.jpg', 'key': 'u', 'origWidth': 410, 'origHeight': 410, 'width': 185.4, 'height': 185.4, 'widthPercent': 0.45, 'rescaleHeight': False, 'trialN': 38, 'loaded': True, 'loadedTime': 4455.900000095367, 'positionName': 'LEFT', 'positionCoords': [12.76, 362], 'bid': 9.36}, {'imgObject': {}, 'id': 'mac & cheese', 'src': '/static/foodstim60/mac & cheese.jpg', 'key': 'i', 'origWidth': 410, 'origHeight': 410, 'width': 185.4, 'height': 185.4, 'widthPercent': 0.45, 'rescaleHeight': False, 'trialN': 38, 'loaded': True, 'loadedTime': 4480.200000047684, 'positionName': 'RIGHT', 'positionCoords': [214.24, 362], 'bid': 9.41}]",68040.40000009537,1669831881642,chickenfingers,mac & cheese,9.36,9.41,0.05000000000000071,mac & cheese,1252.2999999523163,1266,1266.5999999046326,True,i,69813.80000007153,1773.3999999761581,1669831883415,1773,HRV,HRV_0176,2022-11-30 18:15:14
39,"[{'imgObject': {}, 'id': 'hashbrowns', 'src': '/static/foodstim60/hashbrowns.jpg', 'key': 'u', 'origWidth': 411, 'origHeight': 410, 'width': 185.4, 'height': 184.94890510948906, 'widthPercent': 0.45, 'rescaleHeight': False, 'trialN': 39, 'loaded': True, 'loadedTime': 4254.900000095367, 'positionName': 'LEFT', 'positionCoords': [12.76, 362.5], 'bid': 1.35}, {'imgObject': {}, 'id': 'roastedpotatoes', 'src': '/static/foodstim60/roastedpotatoes.jpg', 'key': 'i', 'origWidth': 409, 'origHeight': 410, 'width': 185.4, 'height': 185.85330073349635, 'widthPercent': 0.45, 'rescaleHeight': False, 'trialN': 39, 'loaded': True, 'loadedTime': 4290.700000047684, 'positionName': 'RIGHT', 'positionCoords': [214.24, 362], 'bid': 9.27}]",69814.60000002384,1669831883416,hashbrowns,roastedpotatoes,1.35,9.27,7.92,roastedpotatoes,1278.1000000238419,1289,1289.6000000238419,True,i,71613.30000007153,1798.7000000476837,1669831885215,1799,HRV,HRV_0176,2022-11-30 18:15:14
40,"[{'imgObject': {}, 'id': 'shreddedwheatwithmilk', 'src': '/static/foodstim60/shreddedwheatwithmilk.jpg', 'key': 'u', 'origWidth': 410, 'origHeight': 410, 'width': 185.4, 'height': 185.4, 'widthPercent': 0.45, 'rescaleHeight': False, 'trialN': 40, 'loaded': True, 'loadedTime': 4309.200000047684, 'positionName': 'LEFT', 'positionCoords': [12.76, 362], 'bid': 0.92}, {'imgObject': {}, 'id': 'eggs', 'src': '/static/foodstim60/eggs.jpg', 'key': 'i', 'origWidth': 409, 'origHeight': 409, 'width': 185.4, 'height': 185.4, 'widthPercent': 0.45, 'rescaleHeight': False, 'trialN': 40, 'loaded': True, 'loadedTime': 4322.800000071526, 'positionName': 'RIGHT', 'positionCoords': [214.24, 362], 'bid': 8.49}]",71613.90000009537,1669831885215,shreddedwheatwithmilk,eggs,0.92,8.49,7.57,eggs,1275.7999999523163,1287,1286.7999999523163,True,i,73405.90000009537,1792.0,1669831887007,1792,HRV,HRV_0176,2022-11-30 18:15:14
41,"[{'imgObject': {}, 'id': 'granola w milk', 'src': '/static/foodstim60/granola w milk.jpg', 'key': 'u', 'origWidth': 410, 'origHeight': 410, 'width': 185.4, 'height': 185.4, 'widthPercent': 0.45, 'rescaleHeight': False, 'trialN': 41, 'loaded': True, 'loadedTime': 4473.400000095367, 'positionName': 'LEFT', 'positionCoords': [12.76, 362], 'bid': 1.45}, {'imgObject': {}, 'id': 'chicken nuggets2', 'src': '/static/foodstim60/chicken nuggets2.jpg', 'key': 'i', 'origWidth': 410, 'origHeight': 409, 'width': 185.4, 'height': 184.9478048780488, 'widthPercent': 0.45, 'rescaleHeight': False, 'trialN': 41, 'loaded': True, 'loadedTime': 4483.200000047684, 'positionName': 'RIGHT', 'positionCoords': [214.24, 362.5], 'bid': 9.32}]",73406.60000002384,1669831887008,granola w milk,chicken nuggets2,1.45,9.32,7.87,chicken nuggets2,1187.1000000238419,1202,1201.8000000715256,True,i,75119.60000002384,1713.0,1669831888721,1713,HRV,HRV_0176,2022-11-30 18:15:14
42,"[{'imgObject': {}, 'id': 'avocado', 'src': '/static/foodstim60/avocado.jpg', 'key': 'u', 'origWidth': 409, 'origHeight': 409, 'width': 185.4, 'height': 185.4, 'widthPercent': 0.45, 'rescaleHeight': False, 'trialN': 42, 'loaded': True, 'loadedTime': 4348.900000095367, 'positionName': 'LEFT', 'positionCoords': [12.76, 362], 'bid': 0.67}, {'imgObject': {}, 'id': 'olives', 'src': '/static/foodstim60/olives.jpg', 'key': 'i', 'origWidth': 410, 'origHeight': 410, 'width': 185.4, 'height': 185.4, 'widthPercent': 0.45, 'rescaleHeight': False, 'trialN': 42, 'loaded': True, 'loadedTime': 4486.100000023842, 'positionName': 'RIGHT', 'positionCoords': [214.24, 362], 'bid': 1.16}]",75120.5,1669831888722,avocado,olives,0.67,1.16,0.4899999999999999,avocado,1745.2000000476837,1758,1758.3000000715256,True,u,77383.20000004768,2262.7000000476837,1669831890984,2262,HRV,HRV_0176,2022-11-30 18:15:14
43,"[{'imgObject': {}, 'id': 'veggieswithdip', 'src': '/static/foodstim60/veggieswithdip.jpg', 'key': 'u', 'origWidth': 409, 'origHeight': 409, 'width': 185.4, 'height': 185.4, 'widthPercent': 0.45, 'rescaleHeight': False, 'trialN': 43, 'loaded': True, 'loadedTime': 4494.5, 'positionName': 'LEFT', 'positionCoords': [12.76, 362], 'bid': 4.9}, {'imgObject': {}, 'id': 'Tribe humus pita', 'src': '/static/foodstim60/Tribe humus pita.jpg', 'key': 'i', 'origWidth': 411, 'origHeight': 411, 'width': 185.4, 'height': 185.4, 'widthPercent': 0.45, 'rescaleHeight': False, 'trialN': 43, 'loaded': True, 'loadedTime': 4499.300000071526, 'positionName': 'RIGHT', 'positionCoords': [214.24, 362], 'bid': 5}]",77384.30000007153,1669831890986,veggieswithdip,Tribe humus pita,4.9,5.0,0.09999999999999964,veggieswithdip,1846.3999999761581,1857,1857.1999999284744,True,u,79751.60000002384,2367.2999999523163,1669831893353,2367,HRV,HRV_0176,2022-11-30 18:15:14
44,"[{'imgObject': {}, 'id': 'hashbrowns', 'src': '/static/foodstim60/hashbrowns.jpg', 'key': 'u', 'origWidth': 411, 'origHeight': 410, 'width': 185.4, 'height': 184.94890510948906, 'widthPercent': 0.45, 'rescaleHeight': False, 'trialN': 44, 'loaded': True, 'loadedTime': 4253.800000071526, 'positionName': 'LEFT', 'positionCoords': [12.76, 362.5], 'bid': 1.35}, {'imgObject': {}, 'id': 'granola w milk', 'src': '/static/foodstim60/granola w milk.jpg', 'key': 'i', 'origWidth': 410, 'origHeight': 410, 'width': 185.4, 'height': 185.4, 'widthPercent': 0.45, 'rescaleHeight': False, 'trialN': 44, 'loaded': True, 'loadedTime': 4476.600000023842, 'positionName': 'RIGHT', 'positionCoords': [214.24, 362], 'bid': 1.45}]",79752.5,1669831893354,hashbrowns,granola w milk,1.35,1.45,0.09999999999999987,granola w milk,1095.2000000476837,1107,1107.2000000476837,True,i,81367.30000007153,1614.8000000715256,1669831894969,1615,HRV,HRV_0176,2022-11-30 18:15:14
45,"[{'imgObject': {}, 'id': 'cantaloupe', 'src': '/static/foodstim60/cantaloupe.jpg', 'key': 'u', 'origWidth': 409, 'origHeight': 409, 'width': 185.4, 'height': 185.4, 'widthPercent': 0.45, 'rescaleHeight': False, 'trialN': 45, 'loaded': True, 'loadedTime': 4502.900000095367, 'positionName': 'LEFT', 'positionCoords': [12.76, 362], 'bid': 0.09}, {'imgObject': {}, 'id': 'blueberries', 'src': '/static/foodstim60/blueberries.jpg', 'key': 'i', 'origWidth': 411, 'origHeight': 411, 'width': 185.4, 'height': 185.4, 'widthPercent': 0.45, 'rescaleHeight': False, 'trialN': 45, 'loaded': True, 'loadedTime': 4460, 'positionName': 'RIGHT', 'positionCoords': [214.24, 362], 'bid': 0.38}]",81368.40000009537,1669831894970,cantaloupe,blueberries,0.09,0.38,0.29000000000000004,blueberries,1285.2999999523163,1301,1301.2999999523163,True,i,83175.10000002384,1806.6999999284744,1669831896776,1806,HRV,HRV_0176,2022-11-30 18:15:14
46,"[{'imgObject': {}, 'id': 'rigatoni and sauce', 'src': '/static/foodstim60/rigatoni and sauce.jpg', 'key': 'u', 'origWidth': 410, 'origHeight': 411, 'width': 185.4, 'height': 185.8521951219512, 'widthPercent': 0.45, 'rescaleHeight': False, 'trialN': 46, 'loaded': True, 'loadedTime': 4506.400000095367, 'positionName': 'LEFT', 'positionCoords': [12.76, 362], 'bid': 4.5600000000000005}, {'imgObject': {}, 'id': 'fried eggs', 'src': '/static/foodstim60/fried eggs.jpg', 'key': 'i', 'origWidth': 410, 'origHeight': 410, 'width': 185.4, 'height': 185.4, 'widthPercent': 0.45, 'rescaleHeight': False, 'trialN': 46, 'loaded': True, 'loadedTime': 4421.200000047684, 'positionName': 'RIGHT', 'positionCoords': [214.24, 362], 'bid': 6.99}]",83175.90000009537,1669831896777,rigatoni and sauce,fried eggs,4.5600000000000005,6.99,2.4299999999999997,rigatoni and sauce,999.7999999523163,1015,1015.2999999523163,True,u,84695.40000009537,1519.5,1669831898297,1520,HRV,HRV_0176,2022-11-30 18:15:14
47,"[{'imgObject': {}, 'id': 'bagel plain', 'src': '/static/foodstim60/bagel plain.jpg', 'key': 'u', 'origWidth': 410, 'origHeight': 410, 'width': 185.4, 'height': 185.4, 'widthPercent': 0.45, 'rescaleHeight': False, 'trialN': 47, 'loaded': True, 'loadedTime': 4509.800000071526, 'positionName': 'LEFT', 'positionCoords': [12.76, 362], 'bid': 5.92}, {'imgObject': {}, 'id': 'lox', 'src': '/static/foodstim60/lox.jpg', 'key': 'i', 'origWidth': 410, 'origHeight': 411, 'width': 185.4, 'height': 185.8521951219512, 'widthPercent': 0.45, 'rescaleHeight': False, 'trialN': 47, 'loaded': True, 'loadedTime': 4250.900000095367, 'positionName': 'RIGHT', 'positionCoords': [214.24, 362], 'bid': 2.66}]",84696.40000009537,1669831898298,bagel plain,lox,5.92,2.66,-3.26,bagel plain,916.2999999523163,927,927.0999999046326,True,u,86125.60000002384,1429.1999999284744,1669831899727,1429,HRV,HRV_0176,2022-11-30 18:15:14
48,"[{'imgObject': {}, 'id': 'raspberries', 'src': '/static/foodstim60/raspberries.jpg', 'key': 'u', 'origWidth': 411, 'origHeight': 411, 'width': 185.4, 'height': 185.4, 'widthPercent': 0.45, 'rescaleHeight': False, 'trialN': 48, 'loaded': True, 'loadedTime': 4286.5, 'positionName': 'LEFT', 'positionCoords': [12.76, 362], 'bid': 2.62}, {'imgObject': {}, 'id': 'ice cream sundae 002', 'src': '/static/foodstim60/ice cream sundae 002.jpg', 'key': 'i', 'origWidth': 409, 'origHeight': 409, 'width': 185.4, 'height': 185.4, 'widthPercent': 0.45, 'rescaleHeight': False, 'trialN': 48, 'loaded': True, 'loadedTime': 4452.200000047684, 'positionName': 'RIGHT', 'positionCoords': [214.24, 362], 'bid': 2.03}]",86126.20000004768,1669831899727,raspberries,ice cream sundae 002,2.62,2.03,-0.5900000000000003,ice cream sundae 002,1063.5,1078,1077.2000000476837,True,i,87709.90000009537,1583.7000000476837,1669831901311,1584,HRV,HRV_0176,2022-11-30 18:15:14
49,"[{'imgObject': {}, 'id': 'salmon', 'src': '/static/foodstim60/salmon.jpg', 'key': 'u', 'origWidth': 410, 'origHeight': 409, 'width': 185.4, 'height': 184.9478048780488, 'widthPercent': 0.45, 'rescaleHeight': False, 'trialN': 49, 'loaded': True, 'loadedTime': 4258.700000047684, 'positionName': 'LEFT', 'positionCoords': [12.76, 362.5], 'bid': 3.25}, {'imgObject': {}, 'id': 'burrito', 'src': '/static/foodstim60/burrito.jpg', 'key': 'i', 'origWidth': 410, 'origHeight': 410, 'width': 185.4, 'height': 185.4, 'widthPercent': 0.45, 'rescaleHeight': False, 'trialN': 49, 'loaded': True, 'loadedTime': 4353.300000071526, 'positionName': 'RIGHT', 'positionCoords': [214.24, 362], 'bid': 9.7}]",87710.5,1669831901312,salmon,burrito,3.25,9.7,6.449999999999999,burrito,1130.2000000476837,1143,1142.8000000715256,True,i,89359.0,1648.5,1669831902960,1648,HRV,HRV_0176,2022-11-30 18:15:14
50,"[{'imgObject': {}, 'id': 'popsicles', 'src': '/static/foodstim60/popsicles.jpg', 'key': 'u', 'origWidth': 410, 'origHeight': 410, 'width': 185.4, 'height': 185.4, 'widthPercent': 0.45, 'rescaleHeight': False, 'trialN': 50, 'loaded': True, 'loadedTime': 4424.700000047684, 'positionName': 'LEFT', 'positionCoords': [12.76, 362], 'bid': 9.41}, {'imgObject': {}, 'id': 'steak', 'src': '/static/foodstim60/steak.jpg', 'key': 'i', 'origWidth': 410, 'origHeight': 410, 'width': 185.4, 'height': 185.4, 'widthPercent': 0.45, 'rescaleHeight': False, 'trialN': 50, 'loaded': True, 'loadedTime': 4429.200000047684, 'positionName': 'RIGHT', 'positionCoords': [214.24, 362], 'bid': 9.7}]",89360.0,1669831902961,popsicles,steak,9.41,9.7,0.28999999999999915,popsicles,717.7000000476837,730,729.7000000476837,True,u,90597.5,1237.5,1669831904199,1238,HRV,HRV_0176,2022-11-30 18:15:14
51,"[{'imgObject': {}, 'id': 'yogurt no spoon', 'src': '/static/foodstim60/yogurt no spoon.jpg', 'key': 'u', 'origWidth': 411, 'origHeight': 410, 'width': 185.4, 'height': 184.94890510948906, 'widthPercent': 0.45, 'rescaleHeight': False, 'trialN': 51, 'loaded': True, 'loadedTime': 4513.100000023842, 'positionName': 'LEFT', 'positionCoords': [12.76, 362.5], 'bid': 1.99}, {'imgObject': {}, 'id': 'cherry tomato', 'src': '/static/foodstim60/cherry tomato.jpg', 'key': 'i', 'origWidth': 410, 'origHeight': 410, 'width': 185.4, 'height': 185.4, 'widthPercent': 0.45, 'rescaleHeight': False, 'trialN': 51, 'loaded': True, 'loadedTime': 4330.300000071526, 'positionName': 'RIGHT', 'positionCoords': [214.24, 362], 'bid': 2.62}]",90598.0,1669831904199,yogurt no spoon,cherry tomato,1.99,2.62,0.6300000000000001,yogurt no spoon,2072.7000000476837,2086,2085.3000000715256,True,u,93191.5,2593.5,1669831906793,2594,HRV,HRV_0176,2022-11-30 18:15:14
52,"[{'imgObject': {}, 'id': 'seaweed', 'src': '/static/foodstim60/seaweed.jpg', 'key': 'u', 'origWidth': 410, 'origHeight': 410, 'width': 185.4, 'height': 185.4, 'widthPercent': 0.45, 'rescaleHeight': False, 'trialN': 52, 'loaded': True, 'loadedTime': 4445.100000023842, 'positionName': 'LEFT', 'positionCoords': [12.76, 362], 'bid': 5.92}, {'imgObject': {}, 'id': 'bagel plain', 'src': '/static/foodstim60/bagel plain.jpg', 'key': 'i', 'origWidth': 410, 'origHeight': 410, 'width': 185.4, 'height': 185.4, 'widthPercent': 0.45, 'rescaleHeight': False, 'trialN': 52, 'loaded': True, 'loadedTime': 4509.100000023842, 'positionName': 'RIGHT', 'positionCoords': [214.24, 362], 'bid': 5.92}]",93192.5,1669831906794,seaweed,bagel plain,5.92,5.92,0.0,seaweed,1178.2000000476837,1193,1193.2000000476837,True,u,94895.10000002384,1702.6000000238419,1669831908496,1702,HRV,HRV_0176,2022-11-30 18:15:14
53,"[{'imgObject': {}, 'id': 'chickenfingers', 'src': '/static/foodstim60/chickenfingers.jpg', 'key': 'u', 'origWidth': 410, 'origHeight': 410, 'width': 185.4, 'height': 185.4, 'widthPercent': 0.45, 'rescaleHeight': False, 'trialN': 53, 'loaded': True, 'loadedTime': 4455.100000023842, 'positionName': 'LEFT', 'positionCoords': [12.76, 362], 'bid': 9.36}, {'imgObject': {}, 'id': 'hotdog w must', 'src': '/static/foodstim60/hotdog w must.jpg', 'key': 'i', 'origWidth': 409, 'origHeight': 409, 'width': 185.4, 'height': 185.4, 'widthPercent': 0.45, 'rescaleHeight': False, 'trialN': 53, 'loaded': True, 'loadedTime': 4513.5, 'positionName': 'RIGHT', 'positionCoords': [214.24, 362], 'bid': 5.92}]",94896.0,1669831908497,chickenfingers,hotdog w must,9.36,5.92,-3.4399999999999995,hotdog w must,1610.7000000476837,1623,1622.8000000715256,True,i,97024.0,2128.0,1669831910625,2128,HRV,HRV_0176,2022-11-30 18:15:14
54,"[{'imgObject': {}, 'id': 'mac & cheese', 'src': '/static/foodstim60/mac & cheese.jpg', 'key': 'u', 'origWidth': 410, 'origHeight': 410, 'width': 185.4, 'height': 185.4, 'widthPercent': 0.45, 'rescaleHeight': False, 'trialN': 54, 'loaded': True, 'loadedTime': 4479.400000095367, 'positionName': 'LEFT', 'positionCoords': [12.76, 362], 'bid': 9.41}, {'imgObject': {}, 'id': 'mashed potato', 'src': '/static/foodstim60/mashed potato.jpg', 'key': 'i', 'origWidth': 409, 'origHeight': 409, 'width': 185.4, 'height': 185.4, 'widthPercent': 0.45, 'rescaleHeight': False, 'trialN': 54, 'loaded': True, 'loadedTime': 4334, 'positionName': 'RIGHT', 'positionCoords': [214.24, 362], 'bid': 8.73}]",97024.90000009537,1669831910626,mac & cheese,mashed potato,9.41,8.73,-0.6799999999999997,mac & cheese,826.7999999523163,839,838.5,True,u,98367.5,1342.5999999046326,1669831911969,1343,HRV,HRV_0176,2022-11-30 18:15:14
55,"[{'imgObject': {}, 'id': 'tacos', 'src': '/static/foodstim60/tacos.jpg', 'key': 'u', 'origWidth': 411, 'origHeight': 411, 'width': 185.4, 'height': 185.4, 'widthPercent': 0.45, 'rescaleHeight': False, 'trialN': 55, 'loaded': True, 'loadedTime': 4295.300000071526, 'positionName': 'LEFT', 'positionCoords': [12.76, 362], 'bid': 9.7}, {'imgObject': {}, 'id': 'veggieswithdip', 'src': '/static/foodstim60/veggieswithdip.jpg', 'key': 'i', 'origWidth': 409, 'origHeight': 409, 'width': 185.4, 'height': 185.4, 'widthPercent': 0.45, 'rescaleHeight': False, 'trialN': 55, 'loaded': True, 'loadedTime': 4495.5, 'positionName': 'RIGHT', 'positionCoords': [214.24, 362], 'bid': 4.9}]",98368.5,1669831911970,tacos,veggieswithdip,9.7,4.9,-4.799999999999999,tacos,849.2000000476837,861,860.8000000715256,True,u,99733.5,1365.0,1669831913335,1365,HRV,HRV_0176,2022-11-30 18:15:14
56,"[{'imgObject': {}, 'id': 'bagel plain', 'src': '/static/foodstim60/bagel plain.jpg', 'key': 'u', 'origWidth': 410, 'origHeight': 410, 'width': 185.4, 'height': 185.4, 'widthPercent': 0.45, 'rescaleHeight': False, 'trialN': 56, 'loaded': True, 'loadedTime': 4509.5, 'positionName': 'LEFT', 'positionCoords': [12.76, 362], 'bid': 5.92}, {'imgObject': {}, 'id': 'fruitsalad', 'src': '/static/foodstim60/fruitsalad.jpg', 'key': 'i', 'origWidth': 410, 'origHeight': 410, 'width': 185.4, 'height': 185.4, 'widthPercent': 0.45, 'rescaleHeight': False, 'trialN': 56, 'loaded': True, 'loadedTime': 4472.900000095367, 'positionName': 'RIGHT', 'positionCoords': [214.24, 362], 'bid': 0}]",99733.90000009537,1669831913335,bagel plain,fruitsalad,5.92,0.0,-5.92,bagel plain,737.7999999523163,752,751.7999999523163,True,u,100991.5,1257.5999999046326,1669831914593,1258,HRV,HRV_0176,2022-11-30 18:15:14
57,"[{'imgObject': {}, 'id': 'fried eggs', 'src': '/static/foodstim60/fried eggs.jpg', 'key': 'u', 'origWidth': 410, 'origHeight': 410, 'width': 185.4, 'height': 185.4, 'widthPercent': 0.45, 'rescaleHeight': False, 'trialN': 57, 'loaded': True, 'loadedTime': 4421.800000071526, 'positionName': 'LEFT', 'positionCoords': [12.76, 362], 'bid': 6.99}, {'imgObject': {}, 'id': 'blackbeanswithrice', 'src': '/static/foodstim60/blackbeanswithrice.jpg', 'key': 'i', 'origWidth': 410, 'origHeight': 410, 'width': 185.4, 'height': 185.4, 'widthPercent': 0.45, 'rescaleHeight': False, 'trialN': 57, 'loaded': True, 'loadedTime': 4517, 'positionName': 'RIGHT', 'positionCoords': [214.24, 362], 'bid': 7.81}]",100992.5,1669831914594,fried eggs,blackbeanswithrice,6.99,7.81,0.8199999999999994,fried eggs,812.2000000476837,824,824.4000000953674,True,u,102326.70000004768,1334.2000000476837,1669831915928,1334,HRV,HRV_0176,2022-11-30 18:15:14
58,"[{'imgObject': {}, 'id': 'salad w chicken', 'src': '/static/foodstim60/salad w chicken.jpg', 'key': 'u', 'origWidth': 411, 'origHeight': 411, 'width': 185.4, 'height': 185.4, 'widthPercent': 0.45, 'rescaleHeight': False, 'trialN': 58, 'loaded': True, 'loadedTime': 4459.300000071526, 'positionName': 'LEFT', 'positionCoords': [12.76, 362], 'bid': 8.2}, {'imgObject': {}, 'id': 'cherries', 'src': '/static/foodstim60/cherries.jpg', 'key': 'i', 'origWidth': 410, 'origHeight': 411, 'width': 185.4, 'height': 185.8521951219512, 'widthPercent': 0.45, 'rescaleHeight': False, 'trialN': 58, 'loaded': True, 'loadedTime': 4296, 'positionName': 'RIGHT', 'positionCoords': [214.24, 362], 'bid': 0.63}]",102327.60000002384,1669831915929,salad w chicken,cherries,8.2,0.63,-7.569999999999999,salad w chicken,1162.1000000238419,1173,1173.3999999761581,True,u,104005.60000002384,1678.0,1669831917607,1678,HRV,HRV_0176,2022-11-30 18:15:14
59,"[{'imgObject': {}, 'id': 'salad w chicken', 'src': '/static/foodstim60/salad w chicken.jpg', 'key': 'u', 'origWidth': 411, 'origHeight': 411, 'width': 185.4, 'height': 185.4, 'widthPercent': 0.45, 'rescaleHeight': False, 'trialN': 59, 'loaded': True, 'loadedTime': 4459.400000095367, 'positionName': 'LEFT', 'positionCoords': [12.76, 362], 'bid': 8.2}, {'imgObject': {}, 'id': 'apple slices', 'src': '/static/foodstim60/apple slices.jpg', 'key': 'i', 'origWidth': 409, 'origHeight': 410, 'width': 185.4, 'height': 185.85330073349635, 'widthPercent': 0.45, 'rescaleHeight': False, 'trialN': 59, 'loaded': True, 'loadedTime': 4520.5, 'positionName': 'RIGHT', 'positionCoords': [214.24, 362], 'bid': 8.05}]",104006.20000004768,1669831917607,salad w chicken,apple slices,8.2,8.05,-0.14999999999999858,salad w chicken,876.5,890,889.7000000476837,True,u,105399.5,1393.2999999523163,1669831919001,1394,HRV,HRV_0176,2022-11-30 18:15:14
60,"[{'imgObject': {}, 'id': 'corn cob', 'src': '/static/foodstim60/corn cob.jpg', 'key': 'u', 'origWidth': 411, 'origHeight': 411, 'width': 185.4, 'height': 185.4, 'widthPercent': 0.45, 'rescaleHeight': False, 'trialN': 60, 'loaded': True, 'loadedTime': 4407.900000095367, 'positionName': 'LEFT', 'positionCoords': [12.76, 362], 'bid': 8.15}, {'imgObject': {}, 'id': 'turkeysandwich', 'src': '/static/foodstim60/turkeysandwich.jpg', 'key': 'i', 'origWidth': 409, 'origHeight': 409, 'width': 185.4, 'height': 185.4, 'widthPercent': 0.45, 'rescaleHeight': False, 'trialN': 60, 'loaded': True, 'loadedTime': 4527.100000023842, 'positionName': 'RIGHT', 'positionCoords': [214.24, 362], 'bid': 5.04}]",105400.60000002384,1669831919002,corn cob,turkeysandwich,8.15,5.04,-3.1100000000000003,turkeysandwich,1556.1000000238419,1566,1566.7000000476837,True,i,107469.70000004768,2069.100000023842,1669831921071,2069,HRV,HRV_0176,2022-11-30 18:15:14
61,"[{'imgObject': {}, 'id': 'salmon', 'src': '/static/foodstim60/salmon.jpg', 'key': 'u', 'origWidth': 410, 'origHeight': 409, 'width': 185.4, 'height': 184.9478048780488, 'widthPercent': 0.45, 'rescaleHeight': False, 'trialN': 61, 'loaded': True, 'loadedTime': 4266.900000095367, 'positionName': 'LEFT', 'positionCoords': [12.76, 362.5], 'bid': 3.25}, {'imgObject': {}, 'id': 'rigatoni and sauce', 'src': '/static/foodstim60/rigatoni and sauce.jpg', 'key': 'i', 'origWidth': 410, 'origHeight': 411, 'width': 185.4, 'height': 185.8521951219512, 'widthPercent': 0.45, 'rescaleHeight': False, 'trialN': 61, 'loaded': True, 'loadedTime': 4503.200000047684, 'positionName': 'RIGHT', 'positionCoords': [214.24, 362], 'bid': 4.5600000000000005}]",107470.30000007153,1669831921072,salmon,rigatoni and sauce,3.25,4.5600000000000005,1.3100000000000005,salmon,947.3999999761581,959,959.1999999284744,True,u,108935.0,1464.6999999284744,1669831922536,1464,HRV,HRV_0176,2022-11-30 18:15:14
62,"[{'imgObject': {}, 'id': 'sushi w_condiments', 'src': '/static/foodstim60/sushi w_condiments.jpg', 'key': 'u', 'origWidth': 410, 'origHeight': 410, 'width': 185.4, 'height': 185.4, 'widthPercent': 0.45, 'rescaleHeight': False, 'trialN': 62, 'loaded': True, 'loadedTime': 4271.700000047684, 'positionName': 'LEFT', 'positionCoords': [12.76, 362], 'bid': 6.11}, {'imgObject': {}, 'id': 'mac & cheese', 'src': '/static/foodstim60/mac & cheese.jpg', 'key': 'i', 'origWidth': 410, 'origHeight': 410, 'width': 185.4, 'height': 185.4, 'widthPercent': 0.45, 'rescaleHeight': False, 'trialN': 62, 'loaded': True, 'loadedTime': 4479.800000071526, 'positionName': 'RIGHT', 'positionCoords': [214.24, 362], 'bid': 9.41}]",108936.0,1669831922537,sushi w_condiments,mac & cheese,6.11,9.41,3.3,mac & cheese,1065.7000000476837,1076,1075.4000000953674,True,i,110517.90000009537,1581.9000000953674,1669831924119,1582,HRV,HRV_0176,2022-11-30 18:15:14
63,"[{'imgObject': {}, 'id': 'blueberries', 'src': '/static/foodstim60/blueberries.jpg', 'key': 'u', 'origWidth': 411, 'origHeight': 411, 'width': 185.4, 'height': 185.4, 'widthPercent': 0.45, 'rescaleHeight': False, 'trialN': 63, 'loaded': True, 'loadedTime': 4466.200000047684, 'positionName': 'LEFT', 'positionCoords': [12.76, 362], 'bid': 0.38}, {'imgObject': {}, 'id': 'raisin bran w milk', 'src': '/static/foodstim60/raisin bran w milk.jpg', 'key': 'i', 'origWidth': 411, 'origHeight': 411, 'width': 185.4, 'height': 185.4, 'widthPercent': 0.45, 'rescaleHeight': False, 'trialN': 63, 'loaded': True, 'loadedTime': 4398.400000095367, 'positionName': 'RIGHT', 'positionCoords': [214.24, 362], 'bid': 2.91}]",110518.5,1669831924120,blueberries,raisin bran w milk,0.38,2.91,2.5300000000000002,raisin bran w milk,974.2000000476837,985,985.2000000476837,True,i,112007.40000009537,1488.9000000953674,1669831925609,1489,HRV,HRV_0176,2022-11-30 18:15:14
64,"[{'imgObject': {}, 'id': 'corn cob', 'src': '/static/foodstim60/corn cob.jpg', 'key': 'u', 'origWidth': 411, 'origHeight': 411, 'width': 185.4, 'height': 185.4, 'widthPercent': 0.45, 'rescaleHeight': False, 'trialN': 64, 'loaded': True, 'loadedTime': 4402, 'positionName': 'LEFT', 'positionCoords': [12.76, 362], 'bid': 8.15}, {'imgObject': {}, 'id': 'cheerios', 'src': '/static/foodstim60/cheerios.jpg', 'key': 'i', 'origWidth': 409, 'origHeight': 410, 'width': 185.4, 'height': 185.85330073349635, 'widthPercent': 0.45, 'rescaleHeight': False, 'trialN': 64, 'loaded': True, 'loadedTime': 4395, 'positionName': 'RIGHT', 'positionCoords': [214.24, 362], 'bid': 9.17}]",112008.5,1669831925610,corn cob,cheerios,8.15,9.17,1.0199999999999996,cheerios,1482.2000000476837,1492,1492.1000000238419,True,i,114006.10000002384,1997.6000000238419,1669831927607,1997,HRV,HRV_0176,2022-11-30 18:15:14
65,"[{'imgObject': {}, 'id': 'rigatoni and sauce', 'src': '/static/foodstim60/rigatoni and sauce.jpg', 'key': 'u', 'origWidth': 410, 'origHeight': 411, 'width': 185.4, 'height': 185.8521951219512, 'widthPercent': 0.45, 'rescaleHeight': False, 'trialN': 65, 'loaded': True, 'loadedTime': 4505.800000071526, 'positionName': 'LEFT', 'positionCoords': [12.76, 362], 'bid': 4.5600000000000005}, {'imgObject': {}, 'id': 'ice cream sundae 002', 'src': '/static/foodstim60/ice cream sundae 002.jpg', 'key': 'i', 'origWidth': 409, 'origHeight': 409, 'width': 185.4, 'height': 185.4, 'widthPercent': 0.45, 'rescaleHeight': False, 'trialN': 65, 'loaded': True, 'loadedTime': 4451.600000023842, 'positionName': 'RIGHT', 'positionCoords': [214.24, 362], 'bid': 2.03}]",114007.20000004768,1669831927608,rigatoni and sauce,ice cream sundae 002,4.5600000000000005,2.03,-2.5300000000000007,rigatoni and sauce,1109.5,1122,1122.0,True,u,115638.20000004768,1631.0,1669831929239,1631,HRV,HRV_0176,2022-11-30 18:15:14
66,"[{'imgObject': {}, 'id': 'omelette', 'src': '/static/foodstim60/omelette.jpg', 'key': 'u', 'origWidth': 410, 'origHeight': 409, 'width': 185.4, 'height': 184.9478048780488, 'widthPercent': 0.45, 'rescaleHeight': False, 'trialN': 66, 'loaded': True, 'loadedTime': 4353.700000047684, 'positionName': 'LEFT', 'positionCoords': [12.76, 362.5], 'bid': 9.7}, {'imgObject': {}, 'id': 'salad w chicken', 'src': '/static/foodstim60/salad w chicken.jpg', 'key': 'i', 'origWidth': 411, 'origHeight': 411, 'width': 185.4, 'height': 185.4, 'widthPercent': 0.45, 'rescaleHeight': False, 'trialN': 66, 'loaded': True, 'loadedTime': 4458.900000095367, 'positionName': 'RIGHT', 'positionCoords': [214.24, 362], 'bid': 8.2}]",115639.10000002384,1669831929240,omelette,salad w chicken,9.7,8.2,-1.5,salad w chicken,1095.6000000238419,1111,1110.2000000476837,True,i,117255.20000004768,1616.1000000238419,1669831930856,1616,HRV,HRV_0176,2022-11-30 18:15:14
67,"[{'imgObject': {}, 'id': 'granola w milk', 'src': '/static/foodstim60/granola w milk.jpg', 'key': 'u', 'origWidth': 410, 'origHeight': 410, 'width': 185.4, 'height': 185.4, 'widthPercent': 0.45, 'rescaleHeight': False, 'trialN': 67, 'loaded': True, 'loadedTime': 4476.300000071526, 'positionName': 'LEFT', 'positionCoords': [12.76, 362], 'bid': 1.45}, {'imgObject': {}, 'id': 'fruitsalad', 'src': '/static/foodstim60/fruitsalad.jpg', 'key': 'i', 'origWidth': 410, 'origHeight': 410, 'width': 185.4, 'height': 185.4, 'widthPercent': 0.45, 'rescaleHeight': False, 'trialN': 67, 'loaded': True, 'loadedTime': 4472.600000023842, 'positionName': 'RIGHT', 'positionCoords': [214.24, 362], 'bid': 0}]",117256.20000004768,1669831930857,granola w milk,fruitsalad,1.45,0.0,-1.45,granola w milk,1085.5,1098,1098.0,True,u,118863.5,1607.2999999523163,1669831932465,1608,HRV,HRV_0176,2022-11-30 18:15:14
68,"[{'imgObject': {}, 'id': 'sushi w_condiments', 'src': '/static/foodstim60/sushi w_condiments.jpg', 'key': 'u', 'origWidth': 410, 'origHeight': 410, 'width': 185.4, 'height': 185.4, 'widthPercent': 0.45, 'rescaleHeight': False, 'trialN': 68, 'loaded': True, 'loadedTime': 4272.300000071526, 'positionName': 'LEFT', 'positionCoords': [12.76, 362], 'bid': 6.11}, {'imgObject': {}, 'id': 'edamame', 'src': '/static/foodstim60/edamame.jpg', 'key': 'i', 'origWidth': 409, 'origHeight': 410, 'width': 185.4, 'height': 185.85330073349635, 'widthPercent': 0.45, 'rescaleHeight': False, 'trialN': 68, 'loaded': True, 'loadedTime': 4377.700000047684, 'positionName': 'RIGHT', 'positionCoords': [214.24, 362], 'bid': 0.04}]",118864.5,1669831932466,sushi w_condiments,edamame,6.11,0.04,-6.07,sushi w_condiments,908.2000000476837,919,919.7000000476837,True,u,120295.10000002384,1430.6000000238419,1669831933896,1430,HRV,HRV_0176,2022-11-30 18:15:14
69,"[{'imgObject': {}, 'id': 'chicken nuggets2', 'src': '/static/foodstim60/chicken nuggets2.jpg', 'key': 'u', 'origWidth': 410, 'origHeight': 409, 'width': 185.4, 'height': 184.9478048780488, 'widthPercent': 0.45, 'rescaleHeight': False, 'trialN': 69, 'loaded': True, 'loadedTime': 4483, 'positionName': 'LEFT', 'positionCoords': [12.76, 362.5], 'bid': 9.32}, {'imgObject': {}, 'id': 'steak', 'src': '/static/foodstim60/steak.jpg', 'key': 'i', 'origWidth': 410, 'origHeight': 410, 'width': 185.4, 'height': 185.4, 'widthPercent': 0.45, 'rescaleHeight': False, 'trialN': 69, 'loaded': True, 'loadedTime': 4432.5, 'positionName': 'RIGHT', 'positionCoords': [214.24, 362], 'bid': 9.7}]",120296.20000004768,1669831933897,chicken nuggets2,steak,9.32,9.7,0.379999999999999,chicken nuggets2,1180.5,1193,1192.0,True,u,121999.30000007153,1703.1000000238419,1669831935601,1704,HRV,HRV_0176,2022-11-30 18:15:14
70,"[{'imgObject': {}, 'id': 'olives', 'src': '/static/foodstim60/olives.jpg', 'key': 'u', 'origWidth': 410, 'origHeight': 410, 'width': 185.4, 'height': 185.4, 'widthPercent': 0.45, 'rescaleHeight': False, 'trialN': 70, 'loaded': True, 'loadedTime': 4486.300000071526, 'positionName': 'LEFT', 'positionCoords': [12.76, 362], 'bid': 1.16}, {'imgObject': {}, 'id': 'mashed potato', 'src': '/static/foodstim60/mashed potato.jpg', 'key': 'i', 'origWidth': 409, 'origHeight': 409, 'width': 185.4, 'height': 185.4, 'widthPercent': 0.45, 'rescaleHeight': False, 'trialN': 70, 'loaded': True, 'loadedTime': 4331.5, 'positionName': 'RIGHT', 'positionCoords': [214.24, 362], 'bid': 8.73}]",122000.10000002384,1669831935601,olives,mashed potato,1.16,8.73,7.57,mashed potato,866.6000000238419,880,879.8999999761581,True,i,123383.30000007153,1383.2000000476837,1669831936985,1384,HRV,HRV_0176,2022-11-30 18:15:14
71,"[{'imgObject': {}, 'id': 'roastedpotatoes', 'src': '/static/foodstim60/roastedpotatoes.jpg', 'key': 'u', 'origWidth': 409, 'origHeight': 410, 'width': 185.4, 'height': 185.85330073349635, 'widthPercent': 0.45, 'rescaleHeight': False, 'trialN': 71, 'loaded': True, 'loadedTime': 4290.200000047684, 'positionName': 'LEFT', 'positionCoords': [12.76, 362], 'bid': 9.27}, {'imgObject': {}, 'id': 'salad w chicken', 'src': '/static/foodstim60/salad w chicken.jpg', 'key': 'i', 'origWidth': 411, 'origHeight': 411, 'width': 185.4, 'height': 185.4, 'widthPercent': 0.45, 'rescaleHeight': False, 'trialN': 71, 'loaded': True, 'loadedTime': 4459.800000071526, 'positionName': 'RIGHT', 'positionCoords': [214.24, 362], 'bid': 8.2}]",123384.5,1669831936986,roastedpotatoes,salad w chicken,9.27,8.2,-1.0700000000000003,roastedpotatoes,872.2000000476837,883,883.4000000953674,True,u,124775.60000002384,1391.1000000238419,1669831938377,1391,HRV,HRV_0176,2022-11-30 18:15:14
72,"[{'imgObject': {}, 'id': 'cherries', 'src': '/static/foodstim60/cherries.jpg', 'key': 'u', 'origWidth': 410, 'origHeight': 411, 'width': 185.4, 'height': 185.8521951219512, 'widthPercent': 0.45, 'rescaleHeight': False, 'trialN': 72, 'loaded': True, 'loadedTime': 4304.200000047684, 'positionName': 'LEFT', 'positionCoords': [12.76, 362], 'bid': 0.63}, {'imgObject': {}, 'id': 'edamame', 'src': '/static/foodstim60/edamame.jpg', 'key': 'i', 'origWidth': 409, 'origHeight': 410, 'width': 185.4, 'height': 185.85330073349635, 'widthPercent': 0.45, 'rescaleHeight': False, 'trialN': 72, 'loaded': True, 'loadedTime': 4377.600000023842, 'positionName': 'RIGHT', 'positionCoords': [214.24, 362], 'bid': 0.04}]",124776.80000007153,1669831938378,cherries,edamame,0.63,0.04,-0.59,edamame,842.8999999761581,855,855.3999999761581,True,i,126135.10000002384,1358.2999999523163,1669831939736,1358,HRV,HRV_0176,2022-11-30 18:15:14
73,"[{'imgObject': {}, 'id': 'orange slices', 'src': '/static/foodstim60/orange slices.jpg', 'key': 'u', 'origWidth': 409, 'origHeight': 410, 'width': 185.4, 'height': 185.85330073349635, 'widthPercent': 0.45, 'rescaleHeight': False, 'trialN': 73, 'loaded': True, 'loadedTime': 4527.600000023842, 'positionName': 'LEFT', 'positionCoords': [12.76, 362], 'bid': 4.9}, {'imgObject': {}, 'id': 'turkeysandwich', 'src': '/static/foodstim60/turkeysandwich.jpg', 'key': 'i', 'origWidth': 409, 'origHeight': 409, 'width': 185.4, 'height': 185.4, 'widthPercent': 0.45, 'rescaleHeight': False, 'trialN': 73, 'loaded': True, 'loadedTime': 4524, 'positionName': 'RIGHT', 'positionCoords': [214.24, 362], 'bid': 5.04}]",126136.20000004768,1669831939737,orange slices,turkeysandwich,4.9,5.04,0.13999999999999968,turkeysandwich,1712.5,1726,1725.6000000238419,True,i,128366.80000007153,2230.600000023842,1669831941968,2231,HRV,HRV_0176,2022-11-30 18:15:14
74,"[{'imgObject': {}, 'id': 'avocado', 'src': '/static/foodstim60/avocado.jpg', 'key': 'u', 'origWidth': 409, 'origHeight': 409, 'width': 185.4, 'height': 185.4, 'widthPercent': 0.45, 'rescaleHeight': False, 'trialN': 74, 'loaded': True, 'loadedTime': 4348.5, 'positionName': 'LEFT', 'positionCoords': [12.76, 362], 'bid': 0.67}, {'imgObject': {}, 'id': 'veggieswithdip', 'src': '/static/foodstim60/veggieswithdip.jpg', 'key': 'i', 'origWidth': 409, 'origHeight': 409, 'width': 185.4, 'height': 185.4, 'widthPercent': 0.45, 'rescaleHeight': False, 'trialN': 74, 'loaded': True, 'loadedTime': 4489.800000071526, 'positionName': 'RIGHT', 'positionCoords': [214.24, 362], 'bid': 4.9}]",128367.80000007153,1669831941969,avocado,veggieswithdip,0.67,4.9,4.23,veggieswithdip,1821.8999999761581,1835,1835.3999999761581,True,i,130710.80000007153,2343.0,1669831944312,2343,HRV,HRV_0176,2022-11-30 18:15:14
75,"[{'imgObject': {}, 'id': 'omelette', 'src': '/static/foodstim60/omelette.jpg', 'key': 'u', 'origWidth': 410, 'origHeight': 409, 'width': 185.4, 'height': 184.9478048780488, 'widthPercent': 0.45, 'rescaleHeight': False, 'trialN': 75, 'loaded': True, 'loadedTime': 4357.900000095367, 'positionName': 'LEFT', 'positionCoords': [12.76, 362.5], 'bid': 9.7}, {'imgObject': {}, 'id': 'cheerios', 'src': '/static/foodstim60/cheerios.jpg', 'key': 'i', 'origWidth': 409, 'origHeight': 410, 'width': 185.4, 'height': 185.85330073349635, 'widthPercent': 0.45, 'rescaleHeight': False, 'trialN': 75, 'loaded': True, 'loadedTime': 4392, 'positionName': 'RIGHT', 'positionCoords': [214.24, 362], 'bid': 9.17}]",130711.70000004768,1669831944313,omelette,cheerios,9.7,9.17,-0.5299999999999994,omelette,778.0,783,782.7999999523163,True,u,131996.20000004768,1284.5,1669831945597,1284,HRV,HRV_0176,2022-11-30 18:15:14
76,"[{'imgObject': {}, 'id': 'avocado', 'src': '/static/foodstim60/avocado.jpg', 'key': 'u', 'origWidth': 409, 'origHeight': 409, 'width': 185.4, 'height': 185.4, 'widthPercent': 0.45, 'rescaleHeight': False, 'trialN': 76, 'loaded': True, 'loadedTime': 4348.100000023842, 'positionName': 'LEFT', 'positionCoords': [12.76, 362], 'bid': 0.67}, {'imgObject': {}, 'id': 'strawberries', 'src': '/static/foodstim60/strawberries.jpg', 'key': 'i', 'origWidth': 410, 'origHeight': 410, 'width': 185.4, 'height': 185.4, 'widthPercent': 0.45, 'rescaleHeight': False, 'trialN': 76, 'loaded': True, 'loadedTime': 4313.5, 'positionName': 'RIGHT', 'positionCoords': [214.24, 362], 'bid': 0.04}]",131996.5,1669831945598,avocado,strawberries,0.67,0.04,-0.63,avocado,1564.2000000476837,1577,1576.9000000953674,True,u,134080.0,2083.5,1669831947681,2083,HRV,HRV_0176,2022-11-30 18:15:14
77,"[{'imgObject': {}, 'id': 'hotdog w must', 'src': '/static/foodstim60/hotdog w must.jpg', 'key': 'u', 'origWidth': 409, 'origHeight': 409, 'width': 185.4, 'height': 185.4, 'widthPercent': 0.45, 'rescaleHeight': False, 'trialN': 77, 'loaded': True, 'loadedTime': 4515.800000071526, 'positionName': 'LEFT', 'positionCoords': [12.76, 362], 'bid': 5.92}, {'imgObject': {}, 'id': 'eggsalad', 'src': '/static/foodstim60/eggsalad.jpg', 'key': 'i', 'origWidth': 410, 'origHeight': 409, 'width': 185.4, 'height': 184.9478048780488, 'widthPercent': 0.45, 'rescaleHeight': False, 'trialN': 77, 'loaded': True, 'loadedTime': 4432.700000047684, 'positionName': 'RIGHT', 'positionCoords': [214.24, 362.5], 'bid': 5.92}]",134081.0,1669831947682,hotdog w must,eggsalad,5.92,5.92,0.0,eggsalad,1055.7000000476837,1069,1068.4000000953674,True,i,135653.80000007153,1572.8000000715256,1669831949255,1573,HRV,HRV_0176,2022-11-30 18:15:14
78,"[{'imgObject': {}, 'id': 'seaweed', 'src': '/static/foodstim60/seaweed.jpg', 'key': 'u', 'origWidth': 410, 'origHeight': 410, 'width': 185.4, 'height': 185.4, 'widthPercent': 0.45, 'rescaleHeight': False, 'trialN': 78, 'loaded': True, 'loadedTime': 4444.5, 'positionName': 'LEFT', 'positionCoords': [12.76, 362], 'bid': 5.92}, {'imgObject': {}, 'id': 'baked potato', 'src': '/static/foodstim60/baked potato.jpg', 'key': 'i', 'origWidth': 409, 'origHeight': 410, 'width': 185.4, 'height': 185.85330073349635, 'widthPercent': 0.45, 'rescaleHeight': False, 'trialN': 78, 'loaded': True, 'loadedTime': 4533.700000047684, 'positionName': 'RIGHT', 'positionCoords': [214.24, 362], 'bid': 7.76}]",135654.60000002384,1669831949256,seaweed,baked potato,5.92,7.76,1.8399999999999999,seaweed,1096.1000000238419,1108,1108.5,True,u,137271.20000004768,1616.6000000238419,1669831950872,1616,HRV,HRV_0176,2022-11-30 18:15:14
79,"[{'imgObject': {}, 'id': 'omelette', 'src': '/static/foodstim60/omelette.jpg', 'key': 'u', 'origWidth': 410, 'origHeight': 409, 'width': 185.4, 'height': 184.9478048780488, 'widthPercent': 0.45, 'rescaleHeight': False, 'trialN': 79, 'loaded': True, 'loadedTime': 4356.200000047684, 'positionName': 'LEFT', 'positionCoords': [12.76, 362.5], 'bid': 9.7}, {'imgObject': {}, 'id': 'rigatoni and sauce', 'src': '/static/foodstim60/rigatoni and sauce.jpg', 'key': 'i', 'origWidth': 410, 'origHeight': 411, 'width': 185.4, 'height': 185.8521951219512, 'widthPercent': 0.45, 'rescaleHeight': False, 'trialN': 79, 'loaded': True, 'loadedTime': 4506, 'positionName': 'RIGHT', 'positionCoords': [214.24, 362], 'bid': 4.5600000000000005}]",137272.30000007153,1669831950874,omelette,rigatoni and sauce,9.7,4.5600000000000005,-5.139999999999999,omelette,1409.3999999761581,1418,1418.6999999284744,True,u,139197.60000002384,1925.2999999523163,1669831952799,1925,HRV,HRV_0176,2022-11-30 18:15:14
80,"[{'imgObject': {}, 'id': 'grilled chicken strips', 'src': '/static/foodstim60/grilled chicken strips.jpg', 'key': 'u', 'origWidth': 410, 'origHeight': 411, 'width': 185.4, 'height': 185.8521951219512, 'widthPercent': 0.45, 'rescaleHeight': False, 'trialN': 80, 'loaded': True, 'loadedTime': 4542.800000071526, 'positionName': 'LEFT', 'positionCoords': [12.76, 362], 'bid': 9.8}, {'imgObject': {}, 'id': 'banana', 'src': '/static/foodstim60/banana.jpg', 'key': 'i', 'origWidth': 410, 'origHeight': 410, 'width': 185.4, 'height': 185.4, 'widthPercent': 0.45, 'rescaleHeight': False, 'trialN': 80, 'loaded': True, 'loadedTime': 4374, 'positionName': 'RIGHT', 'positionCoords': [214.24, 362], 'bid': 9.7}]",139198.10000002384,1669831952799,grilled chicken strips,banana,9.8,9.7,-0.10000000000000142,banana,1338.6000000238419,1351,1351.1000000238419,True,i,141053.40000009537,1855.3000000715256,1669831954655,1856,HRV,HRV_0176,2022-11-30 18:15:14
81,"[{'imgObject': {}, 'id': 'chickenfingers', 'src': '/static/foodstim60/chickenfingers.jpg', 'key': 'u', 'origWidth': 410, 'origHeight': 410, 'width': 185.4, 'height': 185.4, 'widthPercent': 0.45, 'rescaleHeight': False, 'trialN': 81, 'loaded': True, 'loadedTime': 4455.700000047684, 'positionName': 'LEFT', 'positionCoords': [12.76, 362], 'bid': 9.36}, {'imgObject': {}, 'id': 'burger', 'src': '/static/foodstim60/burger.jpg', 'key': 'i', 'origWidth': 409, 'origHeight': 409, 'width': 185.4, 'height': 185.4, 'widthPercent': 0.45, 'rescaleHeight': False, 'trialN': 81, 'loaded': True, 'loadedTime': 4428, 'positionName': 'RIGHT', 'positionCoords': [214.24, 362], 'bid': 9.75}]",141053.70000004768,1669831954655,chickenfingers,burger,9.36,9.75,0.39000000000000057,burger,800.0,812,812.2000000476837,True,i,142375.40000009537,1321.7000000476837,1669831955977,1322,HRV,HRV_0176,2022-11-30 18:15:14
82,"[{'imgObject': {}, 'id': 'burger', 'src': '/static/foodstim60/burger.jpg', 'key': 'u', 'origWidth': 409, 'origHeight': 409, 'width': 185.4, 'height': 185.4, 'widthPercent': 0.45, 'rescaleHeight': False, 'trialN': 82, 'loaded': True, 'loadedTime': 4428.900000095367, 'positionName': 'LEFT', 'positionCoords': [12.76, 362], 'bid': 9.75}, {'imgObject': {}, 'id': 'grilled chicken strips', 'src': '/static/foodstim60/grilled chicken strips.jpg', 'key': 'i', 'origWidth': 410, 'origHeight': 411, 'width': 185.4, 'height': 185.8521951219512, 'widthPercent': 0.45, 'rescaleHeight': False, 'trialN': 82, 'loaded': True, 'loadedTime': 4536.700000047684, 'positionName': 'RIGHT', 'positionCoords': [214.24, 362], 'bid': 9.8}]",142376.5,1669831955978,burger,grilled chicken strips,9.75,9.8,0.05000000000000071,burger,794.2000000476837,807,806.8000000715256,True,u,143684.70000004768,1308.2000000476837,1669831957286,1308,HRV,HRV_0176,2022-11-30 18:15:14
83,"[{'imgObject': {}, 'id': 'Tribe humus pita', 'src': '/static/foodstim60/Tribe humus pita.jpg', 'key': 'u', 'origWidth': 411, 'origHeight': 411, 'width': 185.4, 'height': 185.4, 'widthPercent': 0.45, 'rescaleHeight': False, 'trialN': 83, 'loaded': True, 'loadedTime': 4499, 'positionName': 'LEFT', 'positionCoords': [12.76, 362], 'bid': 5}, {'imgObject': {}, 'id': 'turkeysandwich', 'src': '/static/foodstim60/turkeysandwich.jpg', 'key': 'i', 'origWidth': 409, 'origHeight': 409, 'width': 185.4, 'height': 185.4, 'widthPercent': 0.45, 'rescaleHeight': False, 'trialN': 83, 'loaded': True, 'loadedTime': 4526.900000095367, 'positionName': 'RIGHT', 'positionCoords': [214.24, 362], 'bid': 5.04}]",143685.60000002384,1669831957287,Tribe humus pita,turkeysandwich,5.0,5.04,0.040000000000000036,turkeysandwich,846.1000000238419,855,855.6000000238419,True,i,145046.90000009537,1361.3000000715256,1669831958648,1361,HRV,HRV_0176,2022-11-30 18:15:14
84,"[{'imgObject': {}, 'id': 'bagel and cc', 'src': '/static/foodstim60/bagel and cc.jpg', 'key': 'u', 'origWidth': 410, 'origHeight': 410, 'width': 185.4, 'height': 185.4, 'widthPercent': 0.45, 'rescaleHeight': False, 'trialN': 84, 'loaded': True, 'loadedTime': 4545.800000071526, 'positionName': 'LEFT', 'positionCoords': [12.76, 362], 'bid': 9.17}, {'imgObject': {}, 'id': 'cheerios', 'src': '/static/foodstim60/cheerios.jpg', 'key': 'i', 'origWidth': 409, 'origHeight': 410, 'width': 185.4, 'height': 185.85330073349635, 'widthPercent': 0.45, 'rescaleHeight': False, 'trialN': 84, 'loaded': True, 'loadedTime': 4394.600000023842, 'positionName': 'RIGHT', 'positionCoords': [214.24, 362], 'bid': 9.17}]",145047.90000009537,1669831958649,bagel and cc,cheerios,9.17,9.17,0.0,bagel and cc,866.7999999523163,880,879.5,True,u,146431.40000009537,1383.5,1669831960033,1384,HRV,HRV_0176,2022-11-30 18:15:14
85,"[{'imgObject': {}, 'id': 'fried eggs', 'src': '/static/foodstim60/fried eggs.jpg', 'key': 'u', 'origWidth': 410, 'origHeight': 410, 'width': 185.4, 'height': 185.4, 'widthPercent': 0.45, 'rescaleHeight': False, 'trialN': 85, 'loaded': True, 'loadedTime': 4421.600000023842, 'positionName': 'LEFT', 'positionCoords': [12.76, 362], 'bid': 6.99}, {'imgObject': {}, 'id': 'mango', 'src': '/static/foodstim60/mango.jpg', 'key': 'i', 'origWidth': 411, 'origHeight': 411, 'width': 185.4, 'height': 185.4, 'widthPercent': 0.45, 'rescaleHeight': False, 'trialN': 85, 'loaded': True, 'loadedTime': 4366.900000095367, 'positionName': 'RIGHT', 'positionCoords': [214.24, 362], 'bid': 9.41}]",146432.40000009537,1669831960034,fried eggs,mango,6.99,9.41,2.42,fried eggs,1035.2999999523163,1046,1046.5999999046326,True,u,147983.40000009537,1551.0,1669831961585,1551,HRV,HRV_0176,2022-11-30 18:15:14
86,"[{'imgObject': {}, 'id': 'seaweed', 'src': '/static/foodstim60/seaweed.jpg', 'key': 'u', 'origWidth': 410, 'origHeight': 410, 'width': 185.4, 'height': 185.4, 'widthPercent': 0.45, 'rescaleHeight': False, 'trialN': 86, 'loaded': True, 'loadedTime': 4441.600000023842, 'positionName': 'LEFT', 'positionCoords': [12.76, 362], 'bid': 5.92}, {'imgObject': {}, 'id': 'turkey sandwich', 'src': '/static/foodstim60/turkey sandwich.jpg', 'key': 'i', 'origWidth': 409, 'origHeight': 409, 'width': 185.4, 'height': 185.4, 'widthPercent': 0.45, 'rescaleHeight': False, 'trialN': 86, 'loaded': True, 'loadedTime': 4370.900000095367, 'positionName': 'RIGHT', 'positionCoords': [214.24, 362], 'bid': 9.8}]",147984.40000009537,1669831961586,seaweed,turkey sandwich,5.92,9.8,3.880000000000001,turkey sandwich,1273.2999999523163,1284,1284.2999999523163,True,i,149774.20000004768,1789.7999999523163,1669831963375,1789,HRV,HRV_0176,2022-11-30 18:15:14
87,"[{'imgObject': {}, 'id': 'bagel and cc', 'src': '/static/foodstim60/bagel and cc.jpg', 'key': 'u', 'origWidth': 410, 'origHeight': 410, 'width': 185.4, 'height': 185.4, 'widthPercent': 0.45, 'rescaleHeight': False, 'trialN': 87, 'loaded': True, 'loadedTime': 4546, 'positionName': 'LEFT', 'positionCoords': [12.76, 362], 'bid': 9.17}, {'imgObject': {}, 'id': 'eggs', 'src': '/static/foodstim60/eggs.jpg', 'key': 'i', 'origWidth': 409, 'origHeight': 409, 'width': 185.4, 'height': 185.4, 'widthPercent': 0.45, 'rescaleHeight': False, 'trialN': 87, 'loaded': True, 'loadedTime': 4322.5, 'positionName': 'RIGHT', 'positionCoords': [214.24, 362], 'bid': 8.49}]",149775.0,1669831963376,bagel and cc,eggs,9.17,8.49,-0.6799999999999997,bagel and cc,806.7000000476837,818,818.1000000238419,True,u,151103.20000004768,1328.2000000476837,1669831964705,1329,HRV,HRV_0176,2022-11-30 18:15:14
88,"[{'imgObject': {}, 'id': 'blueberries', 'src': '/static/foodstim60/blueberries.jpg', 'key': 'u', 'origWidth': 411, 'origHeight': 411, 'width': 185.4, 'height': 185.4, 'widthPercent': 0.45, 'rescaleHeight': False, 'trialN': 88, 'loaded': True, 'loadedTime': 4465.5, 'positionName': 'LEFT', 'positionCoords': [12.76, 362], 'bid': 0.38}, {'imgObject': {}, 'id': 'kiwi', 'src': '/static/foodstim60/kiwi.jpg', 'key': 'i', 'origWidth': 410, 'origHeight': 410, 'width': 185.4, 'height': 185.4, 'widthPercent': 0.45, 'rescaleHeight': False, 'trialN': 88, 'loaded': True, 'loadedTime': 4386.300000071526, 'positionName': 'RIGHT', 'positionCoords': [214.24, 362], 'bid': 0.43}]",151104.30000007153,1669831964706,blueberries,kiwi,0.38,0.43,0.04999999999999999,blueberries,1295.3999999761581,1306,1306.6999999284744,True,u,152917.20000004768,1812.8999999761581,1669831966518,1812,HRV,HRV_0176,2022-11-30 18:15:14
89,"[{'imgObject': {}, 'id': 'chicken nuggets2', 'src': '/static/foodstim60/chicken nuggets2.jpg', 'key': 'u', 'origWidth': 410, 'origHeight': 409, 'width': 185.4, 'height': 184.9478048780488, 'widthPercent': 0.45, 'rescaleHeight': False, 'trialN': 89, 'loaded': True, 'loadedTime': 4480.400000095367, 'positionName': 'LEFT', 'positionCoords': [12.76, 362.5], 'bid': 9.32}, {'imgObject': {}, 'id': 'bagel plain', 'src': '/static/foodstim60/bagel plain.jpg', 'key': 'i', 'origWidth': 410, 'origHeight': 410, 'width': 185.4, 'height': 185.4, 'widthPercent': 0.45, 'rescaleHeight': False, 'trialN': 89, 'loaded': True, 'loadedTime': 4509.700000047684, 'positionName': 'RIGHT', 'positionCoords': [214.24, 362], 'bid': 5.92}]",152917.60000002384,1669831966519,chicken nuggets2,bagel plain,9.32,5.92,-3.4000000000000004,bagel plain,1246.1000000238419,1259,1258.8000000715256,True,i,154685.90000009537,1768.3000000715256,1669831968287,1768,HRV,HRV_0176,2022-11-30 18:15:14
90,"[{'imgObject': {}, 'id': 'salad w chicken', 'src': '/static/foodstim60/salad w chicken.jpg', 'key': 'u', 'origWidth': 411, 'origHeight': 411, 'width': 185.4, 'height': 185.4, 'widthPercent': 0.45, 'rescaleHeight': False, 'trialN': 90, 'loaded': True, 'loadedTime': 4459.100000023842, 'positionName': 'LEFT', 'positionCoords': [12.76, 362], 'bid': 8.2}, {'imgObject': {}, 'id': 'seaweed', 'src': '/static/foodstim60/seaweed.jpg', 'key': 'i', 'origWidth': 410, 'origHeight': 410, 'width': 185.4, 'height': 185.4, 'widthPercent': 0.45, 'rescaleHeight': False, 'trialN': 90, 'loaded': True, 'loadedTime': 4445, 'positionName': 'RIGHT', 'positionCoords': [214.24, 362], 'bid': 5.92}]",156988.80000007153,1669831970590,salad w chicken,seaweed,8.2,5.92,-2.2799999999999994,salad w chicken,891.8999999761581,896,896.3999999761581,True,u,158388.30000007153,1399.5,1669831971990,1400,HRV,HRV_0176,2022-11-30 18:15:14
91,"[{'imgObject': {}, 'id': 'pear', 'src': '/static/foodstim60/pear.jpg', 'key': 'u', 'origWidth': 411, 'origHeight': 410, 'width': 185.4, 'height': 184.94890510948906, 'widthPercent': 0.45, 'rescaleHeight': False, 'trialN': 91, 'loaded': True, 'loadedTime': 4391.400000095367, 'positionName': 'LEFT', 'positionCoords': [12.76, 362.5], 'bid': 0.24}, {'imgObject': {}, 'id': 'olives', 'src': '/static/foodstim60/olives.jpg', 'key': 'i', 'origWidth': 410, 'origHeight': 410, 'width': 185.4, 'height': 185.4, 'widthPercent': 0.45, 'rescaleHeight': False, 'trialN': 91, 'loaded': True, 'loadedTime': 4483.900000095367, 'positionName': 'RIGHT', 'positionCoords': [214.24, 362], 'bid': 1.16}]",158388.80000007153,1669831971990,pear,olives,0.24,1.16,0.9199999999999999,pear,1286.8999999761581,1298,1297.5,True,u,160191.30000007153,1802.5,1669831973793,1803,HRV,HRV_0176,2022-11-30 18:15:14
92,"[{'imgObject': {}, 'id': 'cocktailshrimp', 'src': '/static/foodstim60/cocktailshrimp.jpg', 'key': 'u', 'origWidth': 410, 'origHeight': 410, 'width': 185.4, 'height': 185.4, 'widthPercent': 0.45, 'rescaleHeight': False, 'trialN': 92, 'loaded': True, 'loadedTime': 4469.5, 'positionName': 'LEFT', 'positionCoords': [12.76, 362], 'bid': 8.2}, {'imgObject': {}, 'id': 'avocado', 'src': '/static/foodstim60/avocado.jpg', 'key': 'i', 'origWidth': 409, 'origHeight': 409, 'width': 185.4, 'height': 185.4, 'widthPercent': 0.45, 'rescaleHeight': False, 'trialN': 92, 'loaded': True, 'loadedTime': 4349.200000047684, 'positionName': 'RIGHT', 'positionCoords': [214.24, 362], 'bid': 0.67}]",160192.20000004768,1669831973793,cocktailshrimp,avocado,8.2,0.67,-7.529999999999999,avocado,1068.5,1081,1080.3999999761581,True,i,161783.5,1591.2999999523163,1669831975385,1592,HRV,HRV_0176,2022-11-30 18:15:14
93,"[{'imgObject': {}, 'id': 'burrito', 'src': '/static/foodstim60/burrito.jpg', 'key': 'u', 'origWidth': 410, 'origHeight': 410, 'width': 185.4, 'height': 185.4, 'widthPercent': 0.45, 'rescaleHeight': False, 'trialN': 93, 'loaded': True, 'loadedTime': 4352.800000071526, 'positionName': 'LEFT', 'positionCoords': [12.76, 362], 'bid': 9.7}, {'imgObject': {}, 'id': 'turkey sandwich', 'src': '/static/foodstim60/turkey sandwich.jpg', 'key': 'i', 'origWidth': 409, 'origHeight': 409, 'width': 185.4, 'height': 185.4, 'widthPercent': 0.45, 'rescaleHeight': False, 'trialN': 93, 'loaded': True, 'loadedTime': 4370.600000023842, 'positionName': 'RIGHT', 'positionCoords': [214.24, 362], 'bid': 9.8}]",161784.60000002384,1669831975386,burrito,turkey sandwich,9.7,9.8,0.10000000000000142,burrito,1322.1000000238419,1333,1333.5,True,u,163621.10000002384,1836.5,1669831977222,1836,HRV,HRV_0176,2022-11-30 18:15:14
94,"[{'imgObject': {}, 'id': 'shreddedwheatwithmilk', 'src': '/static/foodstim60/shreddedwheatwithmilk.jpg', 'key': 'u', 'origWidth': 410, 'origHeight': 410, 'width': 185.4, 'height': 185.4, 'widthPercent': 0.45, 'rescaleHeight': False, 'trialN': 94, 'loaded': True, 'loadedTime': 4309.900000095367, 'positionName': 'LEFT', 'positionCoords': [12.76, 362], 'bid': 0.92}, {'imgObject': {}, 'id': 'olives', 'src': '/static/foodstim60/olives.jpg', 'key': 'i', 'origWidth': 410, 'origHeight': 410, 'width': 185.4, 'height': 185.4, 'widthPercent': 0.45, 'rescaleHeight': False, 'trialN': 94, 'loaded': True, 'loadedTime': 4486.800000071526, 'positionName': 'RIGHT', 'positionCoords': [214.24, 362], 'bid': 1.16}]",163621.5,1669831977223,shreddedwheatwithmilk,olives,0.92,1.16,0.23999999999999988,shreddedwheatwithmilk,1450.2000000476837,1464,1464.4000000953674,True,u,165591.30000007153,1969.8000000715256,1669831979193,1970,HRV,HRV_0176,2022-11-30 18:15:14
95,"[{'imgObject': {}, 'id': 'mashed potato', 'src': '/static/foodstim60/mashed potato.jpg', 'key': 'u', 'origWidth': 409, 'origHeight': 409, 'width': 185.4, 'height': 185.4, 'widthPercent': 0.45, 'rescaleHeight': False, 'trialN': 95, 'loaded': True, 'loadedTime': 4334.700000047684, 'positionName': 'LEFT', 'positionCoords': [12.76, 362], 'bid': 8.73}, {'imgObject': {}, 'id': 'banana', 'src': '/static/foodstim60/banana.jpg', 'key': 'i', 'origWidth': 410, 'origHeight': 410, 'width': 185.4, 'height': 185.4, 'widthPercent': 0.45, 'rescaleHeight': False, 'trialN': 95, 'loaded': True, 'loadedTime': 4374.700000047684, 'positionName': 'RIGHT', 'positionCoords': [214.24, 362], 'bid': 9.7}]",165592.20000004768,1669831979193,mashed potato,banana,8.73,9.7,0.9699999999999989,mashed potato,872.5,879,878.1000000238419,True,u,166974.30000007153,1382.1000000238419,1669831980575,1382,HRV,HRV_0176,2022-11-30 18:15:14
96,"[{'imgObject': {}, 'id': 'froot loops w milk', 'src': '/static/foodstim60/froot loops w milk.jpg', 'key': 'u', 'origWidth': 410, 'origHeight': 410, 'width': 185.4, 'height': 185.4, 'widthPercent': 0.45, 'rescaleHeight': False, 'trialN': 96, 'loaded': True, 'loadedTime': 4448.600000023842, 'positionName': 'LEFT', 'positionCoords': [12.76, 362], 'bid': 9.9}, {'imgObject': {}, 'id': 'grilled chicken strips', 'src': '/static/foodstim60/grilled chicken strips.jpg', 'key': 'i', 'origWidth': 410, 'origHeight': 411, 'width': 185.4, 'height': 185.8521951219512, 'widthPercent': 0.45, 'rescaleHeight': False, 'trialN': 96, 'loaded': True, 'loadedTime': 4536.900000095367, 'positionName': 'RIGHT', 'positionCoords': [214.24, 362], 'bid': 9.8}]",166975.20000004768,1669831980576,froot loops w milk,grilled chicken strips,9.9,9.8,-0.09999999999999964,froot loops w milk,1202.5,1214,1214.0,True,u,168693.20000004768,1718.0,1669831982294,1718,HRV,HRV_0176,2022-11-30 18:15:14
97,"[{'imgObject': {}, 'id': 'baked potato', 'src': '/static/foodstim60/baked potato.jpg', 'key': 'u', 'origWidth': 409, 'origHeight': 410, 'width': 185.4, 'height': 185.85330073349635, 'widthPercent': 0.45, 'rescaleHeight': False, 'trialN': 97, 'loaded': True, 'loadedTime': 4533.5, 'positionName': 'LEFT', 'positionCoords': [12.76, 362], 'bid': 7.76}, {'imgObject': {}, 'id': 'cantaloupe', 'src': '/static/foodstim60/cantaloupe.jpg', 'key': 'i', 'origWidth': 409, 'origHeight': 409, 'width': 185.4, 'height': 185.4, 'widthPercent': 0.45, 'rescaleHeight': False, 'trialN': 97, 'loaded': True, 'loadedTime': 4502.400000095367, 'positionName': 'RIGHT', 'positionCoords': [214.24, 362], 'bid': 0.09}]",168693.60000002384,1669831982295,baked potato,cantaloupe,7.76,0.09,-7.67,baked potato,1141.1000000238419,1152,1152.3999999761581,True,u,170349.5,1655.8999999761581,1669831983951,1656,HRV,HRV_0176,2022-11-30 18:15:14
98,"[{'imgObject': {}, 'id': 'edamame', 'src': '/static/foodstim60/edamame.jpg', 'key': 'u', 'origWidth': 409, 'origHeight': 410, 'width': 185.4, 'height': 185.85330073349635, 'widthPercent': 0.45, 'rescaleHeight': False, 'trialN': 98, 'loaded': True, 'loadedTime': 4377.900000095367, 'positionName': 'LEFT', 'positionCoords': [12.76, 362], 'bid': 0.04}, {'imgObject': {}, 'id': 'Grapes', 'src': '/static/foodstim60/Grapes.jpg', 'key': 'i', 'origWidth': 411, 'origHeight': 411, 'width': 185.4, 'height': 185.4, 'widthPercent': 0.45, 'rescaleHeight': False, 'trialN': 98, 'loaded': True, 'loadedTime': 4340.300000071526, 'positionName': 'RIGHT', 'positionCoords': [214.24, 362], 'bid': 1.16}]",170350.0,1669831983951,edamame,Grapes,0.04,1.16,1.1199999999999999,Grapes,1691.7000000476837,1704,1703.6000000238419,True,i,172559.40000009537,2209.4000000953674,1669831986161,2210,HRV,HRV_0176,2022-11-30 18:15:14
99,"[{'imgObject': {}, 'id': 'eggs', 'src': '/static/foodstim60/eggs.jpg', 'key': 'u', 'origWidth': 409, 'origHeight': 409, 'width': 185.4, 'height': 185.4, 'widthPercent': 0.45, 'rescaleHeight': False, 'trialN': 99, 'loaded': True, 'loadedTime': 4323, 'positionName': 'LEFT', 'positionCoords': [12.76, 362], 'bid': 8.49}, {'imgObject': {}, 'id': 'steak', 'src': '/static/foodstim60/steak.jpg', 'key': 'i', 'origWidth': 410, 'origHeight': 410, 'width': 185.4, 'height': 185.4, 'widthPercent': 0.45, 'rescaleHeight': False, 'trialN': 99, 'loaded': True, 'loadedTime': 4431.700000047684, 'positionName': 'RIGHT', 'positionCoords': [214.24, 362], 'bid': 9.7}]",172560.40000009537,1669831986162,eggs,steak,8.49,9.7,1.209999999999999,steak,1106.2999999523163,1118,1118.3999999761581,True,i,174181.5,1621.0999999046326,1669831987783,1621,HRV,HRV_0176,2022-11-30 18:15:14
100,"[{'imgObject': {}, 'id': 'pear', 'src': '/static/foodstim60/pear.jpg', 'key': 'u', 'origWidth': 411, 'origHeight': 410, 'width': 185.4, 'height': 184.94890510948906, 'widthPercent': 0.45, 'rescaleHeight': False, 'trialN': 100, 'loaded': True, 'loadedTime': 4390.700000047684, 'positionName': 'LEFT', 'positionCoords': [12.76, 362.5], 'bid': 0.24}, {'imgObject': {}, 'id': 'blackbeanswithrice', 'src': '/static/foodstim60/blackbeanswithrice.jpg', 'key': 'i', 'origWidth': 410, 'origHeight': 410, 'width': 185.4, 'height': 185.4, 'widthPercent': 0.45, 'rescaleHeight': False, 'trialN': 100, 'loaded': True, 'loadedTime': 4519.700000047684, 'positionName': 'RIGHT', 'positionCoords': [214.24, 362], 'bid': 7.81}]",174182.10000002384,1669831987783,pear,blackbeanswithrice,0.24,7.81,7.569999999999999,blackbeanswithrice,1036.6000000238419,1048,1048.0,True,i,175734.60000002384,1552.5,1669831989336,1553,HRV,HRV_0176,2022-11-30 18:15:14
101,"[{'imgObject': {}, 'id': 'cherries', 'src': '/static/foodstim60/cherries.jpg', 'key': 'u', 'origWidth': 410, 'origHeight': 411, 'width': 185.4, 'height': 185.8521951219512, 'widthPercent': 0.45, 'rescaleHeight': False, 'trialN': 101, 'loaded': True, 'loadedTime': 4298.600000023842, 'positionName': 'LEFT', 'positionCoords': [12.76, 362], 'bid': 0.63}, {'imgObject': {}, 'id': 'cherry tomato', 'src': '/static/foodstim60/cherry tomato.jpg', 'key': 'i', 'origWidth': 410, 'origHeight': 410, 'width': 185.4, 'height': 185.4, 'widthPercent': 0.45, 'rescaleHeight': False, 'trialN': 101, 'loaded': True, 'loadedTime': 4331.400000095367, 'positionName': 'RIGHT', 'positionCoords': [214.24, 362], 'bid': 2.62}]",175735.20000004768,1669831989336,cherries,cherry tomato,0.63,2.62,1.9900000000000002,cherry tomato,1344.5,1356,1355.8999999761581,True,i,177598.60000002384,1863.3999999761581,1669831991200,1864,HRV,HRV_0176,2022-11-30 18:15:14
102,"[{'imgObject': {}, 'id': 'fruitsalad', 'src': '/static/foodstim60/fruitsalad.jpg', 'key': 'u', 'origWidth': 410, 'origHeight': 410, 'width': 185.4, 'height': 185.4, 'widthPercent': 0.45, 'rescaleHeight': False, 'trialN': 102, 'loaded': True, 'loadedTime': 4473.300000071526, 'positionName': 'LEFT', 'positionCoords': [12.76, 362], 'bid': 0}, {'imgObject': {}, 'id': 'edamame', 'src': '/static/foodstim60/edamame.jpg', 'key': 'i', 'origWidth': 409, 'origHeight': 410, 'width': 185.4, 'height': 185.85330073349635, 'widthPercent': 0.45, 'rescaleHeight': False, 'trialN': 102, 'loaded': True, 'loadedTime': 4378, 'positionName': 'RIGHT', 'positionCoords': [214.24, 362], 'bid': 0.04}]",177599.60000002384,1669831991201,fruitsalad,edamame,0.0,0.04,0.04,fruitsalad,1796.1000000238419,1808,1808.2000000476837,True,u,179908.90000009537,2309.3000000715256,1669831993510,2309,HRV,HRV_0176,2022-11-30 18:15:14
103,"[{'imgObject': {}, 'id': 'apple slices', 'src': '/static/foodstim60/apple slices.jpg', 'key': 'u', 'origWidth': 409, 'origHeight': 410, 'width': 185.4, 'height': 185.85330073349635, 'widthPercent': 0.45, 'rescaleHeight': False, 'trialN': 103, 'loaded': True, 'loadedTime': 4523.600000023842, 'positionName': 'LEFT', 'positionCoords': [12.76, 362], 'bid': 8.05}, {'imgObject': {}, 'id': 'bagel and cc', 'src': '/static/foodstim60/bagel and cc.jpg', 'key': 'i', 'origWidth': 410, 'origHeight': 410, 'width': 185.4, 'height': 185.4, 'widthPercent': 0.45, 'rescaleHeight': False, 'trialN': 103, 'loaded': True, 'loadedTime': 4543.300000071526, 'positionName': 'RIGHT', 'positionCoords': [214.24, 362], 'bid': 9.17}]",179909.70000004768,1669831993511,apple slices,bagel and cc,8.05,9.17,1.1199999999999992,bagel and cc,965.0,978,978.2999999523163,True,i,181389.70000004768,1480.0,1669831994991,1480,HRV,HRV_0176,2022-11-30 18:15:14
104,"[{'imgObject': {}, 'id': 'bagel and cc', 'src': '/static/foodstim60/bagel and cc.jpg', 'key': 'u', 'origWidth': 410, 'origHeight': 410, 'width': 185.4, 'height': 185.4, 'widthPercent': 0.45, 'rescaleHeight': False, 'trialN': 104, 'loaded': True, 'loadedTime': 4546.300000071526, 'positionName': 'LEFT', 'positionCoords': [12.76, 362], 'bid': 9.17}, {'imgObject': {}, 'id': 'Grapes', 'src': '/static/foodstim60/Grapes.jpg', 'key': 'i', 'origWidth': 411, 'origHeight': 411, 'width': 185.4, 'height': 185.4, 'widthPercent': 0.45, 'rescaleHeight': False, 'trialN': 104, 'loaded': True, 'loadedTime': 4344.100000023842, 'positionName': 'RIGHT', 'positionCoords': [214.24, 362], 'bid': 1.16}]",181390.20000004768,1669831994991,bagel and cc,Grapes,9.17,1.16,-8.01,bagel and cc,715.5,731,730.5,True,u,182631.20000004768,1241.0,1669831996232,1241,HRV,HRV_0176,2022-11-30 18:15:14
105,"[{'imgObject': {}, 'id': 'Tribe humus pita', 'src': '/static/foodstim60/Tribe humus pita.jpg', 'key': 'u', 'origWidth': 411, 'origHeight': 411, 'width': 185.4, 'height': 185.4, 'widthPercent': 0.45, 'rescaleHeight': False, 'trialN': 105, 'loaded': True, 'loadedTime': 4496.300000071526, 'positionName': 'LEFT', 'positionCoords': [12.76, 362], 'bid': 5}, {'imgObject': {}, 'id': 'burger', 'src': '/static/foodstim60/burger.jpg', 'key': 'i', 'origWidth': 409, 'origHeight': 409, 'width': 185.4, 'height': 185.4, 'widthPercent': 0.45, 'rescaleHeight': False, 'trialN': 105, 'loaded': True, 'loadedTime': 4428.5, 'positionName': 'RIGHT', 'positionCoords': [214.24, 362], 'bid': 9.75}]",182632.20000004768,1669831996233,Tribe humus pita,burger,5.0,9.75,4.75,burger,904.5,919,918.2999999523163,True,i,184053.5,1421.2999999523163,1669831997655,1422,HRV,HRV_0176,2022-11-30 18:15:14
106,"[{'imgObject': {}, 'id': 'mac & cheese', 'src': '/static/foodstim60/mac & cheese.jpg', 'key': 'u', 'origWidth': 410, 'origHeight': 410, 'width': 185.4, 'height': 185.4, 'widthPercent': 0.45, 'rescaleHeight': False, 'trialN': 106, 'loaded': True, 'loadedTime': 4479.600000023842, 'positionName': 'LEFT', 'positionCoords': [12.76, 362], 'bid': 9.41}, {'imgObject': {}, 'id': 'ice cream sundae 002', 'src': '/static/foodstim60/ice cream sundae 002.jpg', 'key': 'i', 'origWidth': 409, 'origHeight': 409, 'width': 185.4, 'height': 185.4, 'widthPercent': 0.45, 'rescaleHeight': False, 'trialN': 106, 'loaded': True, 'loadedTime': 4452, 'positionName': 'RIGHT', 'positionCoords': [214.24, 362], 'bid': 2.03}]",184054.10000002384,1669831997655,mac & cheese,ice cream sundae 002,9.41,2.03,-7.380000000000001,mac & cheese,754.6000000238419,768,768.1000000238419,True,u,185325.90000009537,1271.8000000715256,1669831998927,1272,HRV,HRV_0176,2022-11-30 18:15:14
107,"[{'imgObject': {}, 'id': 'fried eggs', 'src': '/static/foodstim60/fried eggs.jpg', 'key': 'u', 'origWidth': 410, 'origHeight': 410, 'width': 185.4, 'height': 185.4, 'widthPercent': 0.45, 'rescaleHeight': False, 'trialN': 107, 'loaded': True, 'loadedTime': 4418.300000071526, 'positionName': 'LEFT', 'positionCoords': [12.76, 362], 'bid': 6.99}, {'imgObject': {}, 'id': 'turkeysandwich', 'src': '/static/foodstim60/turkeysandwich.jpg', 'key': 'i', 'origWidth': 409, 'origHeight': 409, 'width': 185.4, 'height': 185.4, 'widthPercent': 0.45, 'rescaleHeight': False, 'trialN': 107, 'loaded': True, 'loadedTime': 4526.5, 'positionName': 'RIGHT', 'positionCoords': [214.24, 362], 'bid': 5.04}]",185326.70000004768,1669831998928,fried eggs,turkeysandwich,6.99,5.04,-1.9500000000000002,fried eggs,875.0,889,889.2999999523163,True,u,186719.5,1392.7999999523163,1669832000321,1393,HRV,HRV_0176,2022-11-30 18:15:14
