trialN,stimuli,question,trialStartTime,trialStartTime_UNIX,stimulus1,rt,receivedResponse,rating,trialEndTime,trialDuration,stimulus1Loaded,exp,subjectId,date
0,"[{'imgObject': {}, 'id': 'burger', 'src': '/static/foodstim60/burger.jpg', 'key': 'NaN', 'origWidth': 409, 'origHeight': 409, 'width': 329.6, 'height': 329.6, 'widthPercent': 0.8, 'rescaleHeight': True, 'trialN': 0, 'loaded': True, 'loadedTime': 4235.5, 'positionName': 'CENTER', 'positionCoords': [41.5, 290]}]",Rate how much you want to eat this food from 0 (least) to 10 (most).,4371.299999952316,1669831533522,burger,4592.600000023842,True,9.75,8963.899999976158,4592.600000023842,True,HRV,HRV_0176,2022-11-30 18:09:20
1,"[{'imgObject': {}, 'id': 'sweetpotato', 'src': '/static/foodstim60/sweetpotato.jpg', 'key': 'NaN', 'origWidth': 410, 'origHeight': 410, 'width': 329.6, 'height': 329.6, 'widthPercent': 0.8, 'rescaleHeight': True, 'trialN': 1, 'loaded': True, 'loadedTime': 4238.399999976158, 'positionName': 'CENTER', 'positionCoords': [41.5, 290]}]",Rate how much you want to eat this food from 0 (least) to 10 (most).,8973.5,1669831538125,sweetpotato,2937.399999976158,True,0.04,11910.899999976158,2937.399999976158,True,HRV,HRV_0176,2022-11-30 18:09:20
2,"[{'imgObject': {}, 'id': 'mashed potato', 'src': '/static/foodstim60/mashed potato.jpg', 'key': 'NaN', 'origWidth': 409, 'origHeight': 409, 'width': 329.6, 'height': 329.6, 'widthPercent': 0.8, 'rescaleHeight': True, 'trialN': 2, 'loaded': True, 'loadedTime': 4239.699999928474, 'positionName': 'CENTER', 'positionCoords': [41.5, 290]}]",Rate how much you want to eat this food from 0 (least) to 10 (most).,11916.100000023842,1669831541067,mashed potato,2030.7999999523163,True,8.73,13946.899999976158,2030.7999999523163,True,HRV,HRV_0176,2022-11-30 18:09:20
3,"[{'imgObject': {}, 'id': 'strawberries', 'src': '/static/foodstim60/strawberries.jpg', 'key': 'NaN', 'origWidth': 410, 'origHeight': 410, 'width': 329.6, 'height': 329.6, 'widthPercent': 0.8, 'rescaleHeight': True, 'trialN': 3, 'loaded': True, 'loadedTime': 4241.100000023842, 'positionName': 'CENTER', 'positionCoords': [41.5, 290]}]",Rate how much you want to eat this food from 0 (least) to 10 (most).,13955.199999928474,1669831543106,strawberries,2849.7000000476837,True,0.04,16804.899999976158,2849.7000000476837,True,HRV,HRV_0176,2022-11-30 18:09:20
4,"[{'imgObject': {}, 'id': 'chicken nuggets2', 'src': '/static/foodstim60/chicken nuggets2.jpg', 'key': 'NaN', 'origWidth': 410, 'origHeight': 409, 'width': 329.6, 'height': 328.7960975609756, 'widthPercent': 0.8, 'rescaleHeight': True, 'trialN': 4, 'loaded': True, 'loadedTime': 4244.699999928474, 'positionName': 'CENTER', 'positionCoords': [41.5, 290.5]}]",Rate how much you want to eat this food from 0 (least) to 10 (most).,16814.399999976158,1669831545965,chicken nuggets2,4096.5,True,9.32,20910.899999976158,4096.5,True,HRV,HRV_0176,2022-11-30 18:09:20
5,"[{'imgObject': {}, 'id': 'avocado', 'src': '/static/foodstim60/avocado.jpg', 'key': 'NaN', 'origWidth': 409, 'origHeight': 409, 'width': 329.6, 'height': 329.6, 'widthPercent': 0.8, 'rescaleHeight': True, 'trialN': 5, 'loaded': True, 'loadedTime': 4247, 'positionName': 'CENTER', 'positionCoords': [41.5, 290]}]",Rate how much you want to eat this food from 0 (least) to 10 (most).,20917.399999976158,1669831550068,avocado,2423.5,True,0.67,23340.899999976158,2423.5,True,HRV,HRV_0176,2022-11-30 18:09:20
6,"[{'imgObject': {}, 'id': 'fried eggs', 'src': '/static/foodstim60/fried eggs.jpg', 'key': 'NaN', 'origWidth': 410, 'origHeight': 410, 'width': 329.6, 'height': 329.6, 'widthPercent': 0.8, 'rescaleHeight': True, 'trialN': 6, 'loaded': True, 'loadedTime': 4248.399999976158, 'positionName': 'CENTER', 'positionCoords': [41.5, 290]}]",Rate how much you want to eat this food from 0 (least) to 10 (most).,23346.5,1669831552498,fried eggs,2436.399999976158,True,6.99,25782.899999976158,2436.399999976158,True,HRV,HRV_0176,2022-11-30 18:09:20
7,"[{'imgObject': {}, 'id': 'eggs', 'src': '/static/foodstim60/eggs.jpg', 'key': 'NaN', 'origWidth': 409, 'origHeight': 409, 'width': 329.6, 'height': 329.6, 'widthPercent': 0.8, 'rescaleHeight': True, 'trialN': 7, 'loaded': True, 'loadedTime': 4254.5, 'positionName': 'CENTER', 'positionCoords': [41.5, 290]}]",Rate how much you want to eat this food from 0 (least) to 10 (most).,25790.100000023842,1669831554941,eggs,1546.7999999523163,True,8.49,27336.899999976158,1546.7999999523163,True,HRV,HRV_0176,2022-11-30 18:09:20
8,"[{'imgObject': {}, 'id': 'ice cream sundae 002', 'src': '/static/foodstim60/ice cream sundae 002.jpg', 'key': 'NaN', 'origWidth': 409, 'origHeight': 409, 'width': 329.6, 'height': 329.6, 'widthPercent': 0.8, 'rescaleHeight': True, 'trialN': 8, 'loaded': True, 'loadedTime': 4256, 'positionName': 'CENTER', 'positionCoords': [41.5, 290]}]",Rate how much you want to eat this food from 0 (least) to 10 (most).,27343.899999976158,1669831556495,ice cream sundae 002,1701.0,True,2.0300000000000002,29044.899999976158,1701.0,True,HRV,HRV_0176,2022-11-30 18:09:20
9,"[{'imgObject': {}, 'id': 'yogurt no spoon', 'src': '/static/foodstim60/yogurt no spoon.jpg', 'key': 'NaN', 'origWidth': 411, 'origHeight': 410, 'width': 329.6, 'height': 328.7980535279805, 'widthPercent': 0.8, 'rescaleHeight': True, 'trialN': 9, 'loaded': True, 'loadedTime': 4250.299999952316, 'positionName': 'CENTER', 'positionCoords': [41.5, 290.5]}]",Rate how much you want to eat this food from 0 (least) to 10 (most).,29051.299999952316,1669831558202,yogurt no spoon,588.6000000238419,True,1.99,29639.899999976158,588.6000000238419,True,HRV,HRV_0176,2022-11-30 18:09:20
10,"[{'imgObject': {}, 'id': 'popsicles', 'src': '/static/foodstim60/popsicles.jpg', 'key': 'NaN', 'origWidth': 410, 'origHeight': 410, 'width': 329.6, 'height': 329.6, 'widthPercent': 0.8, 'rescaleHeight': True, 'trialN': 10, 'loaded': True, 'loadedTime': 4257.799999952316, 'positionName': 'CENTER', 'positionCoords': [41.5, 290]}]",Rate how much you want to eat this food from 0 (least) to 10 (most).,29644.399999976158,1669831558795,popsicles,5340.5,True,9.41,34984.89999997616,5340.5,True,HRV,HRV_0176,2022-11-30 18:09:20
11,"[{'imgObject': {}, 'id': 'mango', 'src': '/static/foodstim60/mango.jpg', 'key': 'NaN', 'origWidth': 411, 'origHeight': 411, 'width': 329.6, 'height': 329.6, 'widthPercent': 0.8, 'rescaleHeight': True, 'trialN': 11, 'loaded': True, 'loadedTime': 4259.299999952316, 'positionName': 'CENTER', 'positionCoords': [41.5, 290]}]",Rate how much you want to eat this food from 0 (least) to 10 (most).,34994.5,1669831564146,mango,238.39999997615814,True,9.41,35232.89999997616,238.39999997615814,True,HRV,HRV_0176,2022-11-30 18:09:20
12,"[{'imgObject': {}, 'id': 'Tribe humus pita', 'src': '/static/foodstim60/Tribe humus pita.jpg', 'key': 'NaN', 'origWidth': 411, 'origHeight': 411, 'width': 329.6, 'height': 329.6, 'widthPercent': 0.8, 'rescaleHeight': True, 'trialN': 12, 'loaded': True, 'loadedTime': 4260.799999952316, 'positionName': 'CENTER', 'positionCoords': [41.5, 290]}]",Rate how much you want to eat this food from 0 (least) to 10 (most).,35241.199999928474,1669831564392,Tribe humus pita,8078.700000047684,True,5.0,43319.89999997616,8078.700000047684,True,HRV,HRV_0176,2022-11-30 18:09:20
13,"[{'imgObject': {}, 'id': 'granola w milk', 'src': '/static/foodstim60/granola w milk.jpg', 'key': 'NaN', 'origWidth': 410, 'origHeight': 410, 'width': 329.6, 'height': 329.6, 'widthPercent': 0.8, 'rescaleHeight': True, 'trialN': 13, 'loaded': True, 'loadedTime': 4262.199999928474, 'positionName': 'CENTER', 'positionCoords': [41.5, 290]}]",Rate how much you want to eat this food from 0 (least) to 10 (most).,43325.799999952316,1669831572477,granola w milk,2696.100000023842,True,1.45,46021.89999997616,2696.100000023842,True,HRV,HRV_0176,2022-11-30 18:09:20
14,"[{'imgObject': {}, 'id': 'bagel plain', 'src': '/static/foodstim60/bagel plain.jpg', 'key': 'NaN', 'origWidth': 410, 'origHeight': 410, 'width': 329.6, 'height': 329.6, 'widthPercent': 0.8, 'rescaleHeight': True, 'trialN': 14, 'loaded': True, 'loadedTime': 4264.100000023842, 'positionName': 'CENTER', 'positionCoords': [41.5, 290]}]",Rate how much you want to eat this food from 0 (least) to 10 (most).,46031.199999928474,1669831575182,bagel plain,3771.7000000476837,True,5.92,49802.89999997616,3771.7000000476837,True,HRV,HRV_0176,2022-11-30 18:09:20
15,"[{'imgObject': {}, 'id': 'eggsalad', 'src': '/static/foodstim60/eggsalad.jpg', 'key': 'NaN', 'origWidth': 410, 'origHeight': 409, 'width': 329.6, 'height': 328.7960975609756, 'widthPercent': 0.8, 'rescaleHeight': True, 'trialN': 15, 'loaded': True, 'loadedTime': 4270.299999952316, 'positionName': 'CENTER', 'positionCoords': [41.5, 290.5]}]",Rate how much you want to eat this food from 0 (least) to 10 (most).,49811.699999928474,1669831578963,eggsalad,2149.2000000476837,True,5.92,51960.89999997616,2149.2000000476837,True,HRV,HRV_0176,2022-11-30 18:09:20
16,"[{'imgObject': {}, 'id': 'seaweed', 'src': '/static/foodstim60/seaweed.jpg', 'key': 'NaN', 'origWidth': 410, 'origHeight': 410, 'width': 329.6, 'height': 329.6, 'widthPercent': 0.8, 'rescaleHeight': True, 'trialN': 16, 'loaded': True, 'loadedTime': 4277.199999928474, 'positionName': 'CENTER', 'positionCoords': [41.5, 290]}]",Rate how much you want to eat this food from 0 (least) to 10 (most).,51967.39999997616,1669831581118,seaweed,1332.5,True,5.92,53299.89999997616,1332.5,True,HRV,HRV_0176,2022-11-30 18:09:20
17,"[{'imgObject': {}, 'id': 'hotdog w must', 'src': '/static/foodstim60/hotdog w must.jpg', 'key': 'NaN', 'origWidth': 409, 'origHeight': 409, 'width': 329.6, 'height': 329.6, 'widthPercent': 0.8, 'rescaleHeight': True, 'trialN': 17, 'loaded': True, 'loadedTime': 4279.299999952316, 'positionName': 'CENTER', 'positionCoords': [41.5, 290]}]",Rate how much you want to eat this food from 0 (least) to 10 (most).,53306.89999997616,1669831582458,hotdog w must,1399.0,True,5.92,54705.89999997616,1399.0,True,HRV,HRV_0176,2022-11-30 18:09:20
18,"[{'imgObject': {}, 'id': 'orange slices', 'src': '/static/foodstim60/orange slices.jpg', 'key': 'NaN', 'origWidth': 409, 'origHeight': 410, 'width': 329.6, 'height': 330.4058679706602, 'widthPercent': 0.8, 'rescaleHeight': True, 'trialN': 18, 'loaded': True, 'loadedTime': 4281.699999928474, 'positionName': 'CENTER', 'positionCoords': [41.5, 289.5]}]",Rate how much you want to eat this food from 0 (least) to 10 (most).,54713.5,1669831583864,orange slices,5809.399999976158,True,4.9,60522.89999997616,5809.399999976158,True,HRV,HRV_0176,2022-11-30 18:09:20
19,"[{'imgObject': {}, 'id': 'cantaloupe', 'src': '/static/foodstim60/cantaloupe.jpg', 'key': 'NaN', 'origWidth': 409, 'origHeight': 409, 'width': 329.6, 'height': 329.6, 'widthPercent': 0.8, 'rescaleHeight': True, 'trialN': 19, 'loaded': True, 'loadedTime': 4284.600000023842, 'positionName': 'CENTER', 'positionCoords': [41.5, 290]}]",Rate how much you want to eat this food from 0 (least) to 10 (most).,60532.39999997616,1669831589683,cantaloupe,3634.5,True,0.09,64166.89999997616,3634.5,True,HRV,HRV_0176,2022-11-30 18:09:20
20,"[{'imgObject': {}, 'id': 'shreddedwheatwithmilk', 'src': '/static/foodstim60/shreddedwheatwithmilk.jpg', 'key': 'NaN', 'origWidth': 410, 'origHeight': 410, 'width': 329.6, 'height': 329.6, 'widthPercent': 0.8, 'rescaleHeight': True, 'trialN': 20, 'loaded': True, 'loadedTime': 4286.699999928474, 'positionName': 'CENTER', 'positionCoords': [41.5, 290]}]",Rate how much you want to eat this food from 0 (least) to 10 (most).,64173.799999952316,1669831593325,shreddedwheatwithmilk,2603.100000023842,True,0.92,66776.89999997616,2603.100000023842,True,HRV,HRV_0176,2022-11-30 18:09:20
21,"[{'imgObject': {}, 'id': 'turkeysandwich', 'src': '/static/foodstim60/turkeysandwich.jpg', 'key': 'NaN', 'origWidth': 409, 'origHeight': 409, 'width': 329.6, 'height': 329.6, 'widthPercent': 0.8, 'rescaleHeight': True, 'trialN': 21, 'loaded': True, 'loadedTime': 4290.299999952316, 'positionName': 'CENTER', 'positionCoords': [41.5, 290]}]",Rate how much you want to eat this food from 0 (least) to 10 (most).,66785.5,1669831595937,turkeysandwich,2748.399999976158,True,5.04,69533.89999997616,2748.399999976158,True,HRV,HRV_0176,2022-11-30 18:09:20
22,"[{'imgObject': {}, 'id': 'rigatoni', 'src': '/static/foodstim60/rigatoni.jpg', 'key': 'NaN', 'origWidth': 411, 'origHeight': 411, 'width': 329.6, 'height': 329.6, 'widthPercent': 0.8, 'rescaleHeight': True, 'trialN': 22, 'loaded': True, 'loadedTime': 4292.299999952316, 'positionName': 'CENTER', 'positionCoords': [41.5, 290]}]",Rate how much you want to eat this food from 0 (least) to 10 (most).,69542.39999997616,1669831598693,rigatoni,2354.5,True,1.26,71896.89999997616,2354.5,True,HRV,HRV_0176,2022-11-30 18:09:20
23,"[{'imgObject': {}, 'id': 'edamame', 'src': '/static/foodstim60/edamame.jpg', 'key': 'NaN', 'origWidth': 409, 'origHeight': 410, 'width': 329.6, 'height': 330.4058679706602, 'widthPercent': 0.8, 'rescaleHeight': True, 'trialN': 23, 'loaded': True, 'loadedTime': 4294.399999976158, 'positionName': 'CENTER', 'positionCoords': [41.5, 289.5]}]",Rate how much you want to eat this food from 0 (least) to 10 (most).,71905.60000002384,1669831601057,edamame,14439.299999952316,True,0.04,86344.89999997616,14439.299999952316,True,HRV,HRV_0176,2022-11-30 18:09:20
24,"[{'imgObject': {}, 'id': 'fruitsalad', 'src': '/static/foodstim60/fruitsalad.jpg', 'key': 'NaN', 'origWidth': 410, 'origHeight': 410, 'width': 329.6, 'height': 329.6, 'widthPercent': 0.8, 'rescaleHeight': True, 'trialN': 24, 'loaded': True, 'loadedTime': 4299.100000023842, 'positionName': 'CENTER', 'positionCoords': [41.5, 290]}]",Rate how much you want to eat this food from 0 (least) to 10 (most).,86355.89999997616,1669831615507,fruitsalad,4608.0,True,0.0,90963.89999997616,4608.0,True,HRV,HRV_0176,2022-11-30 18:09:20
25,"[{'imgObject': {}, 'id': 'salmon', 'src': '/static/foodstim60/salmon.jpg', 'key': 'NaN', 'origWidth': 410, 'origHeight': 409, 'width': 329.6, 'height': 328.7960975609756, 'widthPercent': 0.8, 'rescaleHeight': True, 'trialN': 25, 'loaded': True, 'loadedTime': 4300.799999952316, 'positionName': 'CENTER', 'positionCoords': [41.5, 290.5]}]",Rate how much you want to eat this food from 0 (least) to 10 (most).,90969.5,1669831620120,salmon,5870.399999976158,True,3.25,96839.89999997616,5870.399999976158,True,HRV,HRV_0176,2022-11-30 18:09:20
26,"[{'imgObject': {}, 'id': 'froot loops w milk', 'src': '/static/foodstim60/froot loops w milk.jpg', 'key': 'NaN', 'origWidth': 410, 'origHeight': 410, 'width': 329.6, 'height': 329.6, 'widthPercent': 0.8, 'rescaleHeight': True, 'trialN': 26, 'loaded': True, 'loadedTime': 4302.899999976158, 'positionName': 'CENTER', 'positionCoords': [41.5, 290]}]",Rate how much you want to eat this food from 0 (least) to 10 (most).,96847.69999992847,1669831625999,froot loops w milk,2812.2000000476837,True,9.9,99659.89999997616,2812.2000000476837,True,HRV,HRV_0176,2022-11-30 18:09:20
27,"[{'imgObject': {}, 'id': 'kiwi', 'src': '/static/foodstim60/kiwi.jpg', 'key': 'NaN', 'origWidth': 410, 'origHeight': 410, 'width': 329.6, 'height': 329.6, 'widthPercent': 0.8, 'rescaleHeight': True, 'trialN': 27, 'loaded': True, 'loadedTime': 4306.600000023842, 'positionName': 'CENTER', 'positionCoords': [41.5, 290]}]",Rate how much you want to eat this food from 0 (least) to 10 (most).,99665.29999995232,1669831628816,kiwi,3405.600000023842,True,0.43,103070.89999997616,3405.600000023842,True,HRV,HRV_0176,2022-11-30 18:09:20
28,"[{'imgObject': {}, 'id': 'cheerios', 'src': '/static/foodstim60/cheerios.jpg', 'key': 'NaN', 'origWidth': 409, 'origHeight': 410, 'width': 329.6, 'height': 330.4058679706602, 'widthPercent': 0.8, 'rescaleHeight': True, 'trialN': 28, 'loaded': True, 'loadedTime': 4308.5, 'positionName': 'CENTER', 'positionCoords': [41.5, 289.5]}]",Rate how much you want to eat this food from 0 (least) to 10 (most).,103078.19999992847,1669831632229,cheerios,6539.700000047684,True,9.17,109617.89999997616,6539.700000047684,True,HRV,HRV_0176,2022-11-30 18:09:20
29,"[{'imgObject': {}, 'id': 'bagel and cc', 'src': '/static/foodstim60/bagel and cc.jpg', 'key': 'NaN', 'origWidth': 410, 'origHeight': 410, 'width': 329.6, 'height': 329.6, 'widthPercent': 0.8, 'rescaleHeight': True, 'trialN': 29, 'loaded': True, 'loadedTime': 4309.899999976158, 'positionName': 'CENTER', 'positionCoords': [41.5, 290]}]",Rate how much you want to eat this food from 0 (least) to 10 (most).,109627.19999992847,1669831638778,bagel and cc,1993.7000000476837,True,9.17,111620.89999997616,1993.7000000476837,True,HRV,HRV_0176,2022-11-30 18:09:20
30,"[{'imgObject': {}, 'id': 'steak', 'src': '/static/foodstim60/steak.jpg', 'key': 'NaN', 'origWidth': 410, 'origHeight': 410, 'width': 329.6, 'height': 329.6, 'widthPercent': 0.8, 'rescaleHeight': True, 'trialN': 30, 'loaded': True, 'loadedTime': 4311.299999952316, 'positionName': 'CENTER', 'positionCoords': [41.5, 290]}]",Rate how much you want to eat this food from 0 (least) to 10 (most).,111631.89999997616,1669831640783,steak,1259.0,True,9.700000000000001,112890.89999997616,1259.0,True,HRV,HRV_0176,2022-11-30 18:09:20
31,"[{'imgObject': {}, 'id': 'tacos', 'src': '/static/foodstim60/tacos.jpg', 'key': 'NaN', 'origWidth': 411, 'origHeight': 411, 'width': 329.6, 'height': 329.6, 'widthPercent': 0.8, 'rescaleHeight': True, 'trialN': 31, 'loaded': True, 'loadedTime': 4317.199999928474, 'positionName': 'CENTER', 'positionCoords': [41.5, 290]}]",Rate how much you want to eat this food from 0 (least) to 10 (most).,112898.29999995232,1669831642049,tacos,937.6000000238419,True,9.700000000000001,113835.89999997616,937.6000000238419,True,HRV,HRV_0176,2022-11-30 18:09:20
32,"[{'imgObject': {}, 'id': 'omelette', 'src': '/static/foodstim60/omelette.jpg', 'key': 'NaN', 'origWidth': 410, 'origHeight': 409, 'width': 329.6, 'height': 328.7960975609756, 'widthPercent': 0.8, 'rescaleHeight': True, 'trialN': 32, 'loaded': True, 'loadedTime': 4321.399999976158, 'positionName': 'CENTER', 'positionCoords': [41.5, 290.5]}]",Rate how much you want to eat this food from 0 (least) to 10 (most).,113843.19999992847,1669831642994,omelette,1735.7000000476837,True,9.700000000000001,115578.89999997616,1735.7000000476837,True,HRV,HRV_0176,2022-11-30 18:09:20
33,"[{'imgObject': {}, 'id': 'burrito', 'src': '/static/foodstim60/burrito.jpg', 'key': 'NaN', 'origWidth': 410, 'origHeight': 410, 'width': 329.6, 'height': 329.6, 'widthPercent': 0.8, 'rescaleHeight': True, 'trialN': 33, 'loaded': True, 'loadedTime': 4323.199999928474, 'positionName': 'CENTER', 'positionCoords': [41.5, 290]}]",Rate how much you want to eat this food from 0 (least) to 10 (most).,115584.5,1669831644736,burrito,1070.3999999761581,True,9.700000000000001,116654.89999997616,1070.3999999761581,True,HRV,HRV_0176,2022-11-30 18:09:20
34,"[{'imgObject': {}, 'id': 'banana', 'src': '/static/foodstim60/banana.jpg', 'key': 'NaN', 'origWidth': 410, 'origHeight': 410, 'width': 329.6, 'height': 329.6, 'widthPercent': 0.8, 'rescaleHeight': True, 'trialN': 34, 'loaded': True, 'loadedTime': 4325.299999952316, 'positionName': 'CENTER', 'positionCoords': [41.5, 290]}]",Rate how much you want to eat this food from 0 (least) to 10 (most).,116660.10000002384,1669831645811,banana,944.7999999523163,True,9.700000000000001,117604.89999997616,944.7999999523163,True,HRV,HRV_0176,2022-11-30 18:09:20
35,"[{'imgObject': {}, 'id': 'luckycharms', 'src': '/static/foodstim60/luckycharms.jpg', 'key': 'NaN', 'origWidth': 410, 'origHeight': 409, 'width': 329.6, 'height': 328.7960975609756, 'widthPercent': 0.8, 'rescaleHeight': True, 'trialN': 35, 'loaded': True, 'loadedTime': 4326.5, 'positionName': 'CENTER', 'positionCoords': [41.5, 290.5]}]",Rate how much you want to eat this food from 0 (least) to 10 (most).,117609.79999995232,1669831646761,luckycharms,905.1000000238419,True,9.700000000000001,118514.89999997616,905.1000000238419,True,HRV,HRV_0176,2022-11-30 18:09:20
36,"[{'imgObject': {}, 'id': 'pear', 'src': '/static/foodstim60/pear.jpg', 'key': 'NaN', 'origWidth': 411, 'origHeight': 410, 'width': 329.6, 'height': 328.7980535279805, 'widthPercent': 0.8, 'rescaleHeight': True, 'trialN': 36, 'loaded': True, 'loadedTime': 4328.399999976158, 'positionName': 'CENTER', 'positionCoords': [41.5, 290.5]}]",Rate how much you want to eat this food from 0 (least) to 10 (most).,118520.89999997616,1669831647672,pear,2920.0,True,0.24,121440.89999997616,2920.0,True,HRV,HRV_0176,2022-11-30 18:09:20
37,"[{'imgObject': {}, 'id': 'mac & cheese', 'src': '/static/foodstim60/mac & cheese.jpg', 'key': 'NaN', 'origWidth': 410, 'origHeight': 410, 'width': 329.6, 'height': 329.6, 'widthPercent': 0.8, 'rescaleHeight': True, 'trialN': 37, 'loaded': True, 'loadedTime': 4330.299999952316, 'positionName': 'CENTER', 'positionCoords': [41.5, 290]}]",Rate how much you want to eat this food from 0 (least) to 10 (most).,121447.60000002384,1669831650599,mac & cheese,16702.299999952316,True,9.41,138149.89999997616,16702.299999952316,True,HRV,HRV_0176,2022-11-30 18:09:20
38,"[{'imgObject': {}, 'id': 'hashbrowns', 'src': '/static/foodstim60/hashbrowns.jpg', 'key': 'NaN', 'origWidth': 411, 'origHeight': 410, 'width': 329.6, 'height': 328.7980535279805, 'widthPercent': 0.8, 'rescaleHeight': True, 'trialN': 38, 'loaded': True, 'loadedTime': 4332.600000023842, 'positionName': 'CENTER', 'positionCoords': [41.5, 290.5]}]",Rate how much you want to eat this food from 0 (least) to 10 (most).,138159.89999997616,1669831667311,hashbrowns,40015.0,True,1.35,178174.89999997616,40015.0,True,HRV,HRV_0176,2022-11-30 18:09:20
39,"[{'imgObject': {}, 'id': 'roastedpotatoes', 'src': '/static/foodstim60/roastedpotatoes.jpg', 'key': 'NaN', 'origWidth': 409, 'origHeight': 410, 'width': 329.6, 'height': 330.4058679706602, 'widthPercent': 0.8, 'rescaleHeight': True, 'trialN': 39, 'loaded': True, 'loadedTime': 4336, 'positionName': 'CENTER', 'positionCoords': [41.5, 289.5]}]",Rate how much you want to eat this food from 0 (least) to 10 (most).,178183.69999992847,1669831707335,roastedpotatoes,2904.2000000476837,True,9.27,181087.89999997616,2904.2000000476837,True,HRV,HRV_0176,2022-11-30 18:09:20
40,"[{'imgObject': {}, 'id': 'veggieswithdip', 'src': '/static/foodstim60/veggieswithdip.jpg', 'key': 'NaN', 'origWidth': 409, 'origHeight': 409, 'width': 329.6, 'height': 329.6, 'widthPercent': 0.8, 'rescaleHeight': True, 'trialN': 40, 'loaded': True, 'loadedTime': 4339.100000023842, 'positionName': 'CENTER', 'positionCoords': [41.5, 290]}]",Rate how much you want to eat this food from 0 (least) to 10 (most).,181094.39999997616,1669831710245,veggieswithdip,2040.5,True,4.9,183134.89999997616,2040.5,True,HRV,HRV_0176,2022-11-30 18:09:20
41,"[{'imgObject': {}, 'id': 'cocktailshrimp', 'src': '/static/foodstim60/cocktailshrimp.jpg', 'key': 'NaN', 'origWidth': 410, 'origHeight': 410, 'width': 329.6, 'height': 329.6, 'widthPercent': 0.8, 'rescaleHeight': True, 'trialN': 41, 'loaded': True, 'loadedTime': 4340.600000023842, 'positionName': 'CENTER', 'positionCoords': [41.5, 290]}]",Rate how much you want to eat this food from 0 (least) to 10 (most).,183140.69999992847,1669831712292,cocktailshrimp,1777.2000000476837,True,8.2,184917.89999997616,1777.2000000476837,True,HRV,HRV_0176,2022-11-30 18:09:20
42,"[{'imgObject': {}, 'id': 'salad w chicken', 'src': '/static/foodstim60/salad w chicken.jpg', 'key': 'NaN', 'origWidth': 411, 'origHeight': 411, 'width': 329.6, 'height': 329.6, 'widthPercent': 0.8, 'rescaleHeight': True, 'trialN': 42, 'loaded': True, 'loadedTime': 4342.100000023842, 'positionName': 'CENTER', 'positionCoords': [41.5, 290]}]",Rate how much you want to eat this food from 0 (least) to 10 (most).,184929.29999995232,1669831714080,salad w chicken,119.60000002384186,True,8.2,185048.89999997616,119.60000002384186,True,HRV,HRV_0176,2022-11-30 18:09:20
43,"[{'imgObject': {}, 'id': 'grilled chicken strips', 'src': '/static/foodstim60/grilled chicken strips.jpg', 'key': 'NaN', 'origWidth': 410, 'origHeight': 411, 'width': 329.6, 'height': 330.4039024390244, 'widthPercent': 0.8, 'rescaleHeight': True, 'trialN': 43, 'loaded': True, 'loadedTime': 4343.799999952316, 'positionName': 'CENTER', 'positionCoords': [41.5, 289.5]}]",Rate how much you want to eat this food from 0 (least) to 10 (most).,185055.60000002384,1669831714207,grilled chicken strips,2692.2999999523163,True,9.8,187747.89999997616,2692.2999999523163,True,HRV,HRV_0176,2022-11-30 18:09:20
44,"[{'imgObject': {}, 'id': 'blueberries', 'src': '/static/foodstim60/blueberries.jpg', 'key': 'NaN', 'origWidth': 411, 'origHeight': 411, 'width': 329.6, 'height': 329.6, 'widthPercent': 0.8, 'rescaleHeight': True, 'trialN': 44, 'loaded': True, 'loadedTime': 4345.299999952316, 'positionName': 'CENTER', 'positionCoords': [41.5, 290]}]",Rate how much you want to eat this food from 0 (least) to 10 (most).,187753.69999992847,1669831716905,blueberries,2605.2000000476837,True,0.38,190358.89999997616,2605.2000000476837,True,HRV,HRV_0176,2022-11-30 18:09:20
45,"[{'imgObject': {}, 'id': 'rigatoni and sauce', 'src': '/static/foodstim60/rigatoni and sauce.jpg', 'key': 'NaN', 'origWidth': 410, 'origHeight': 411, 'width': 329.6, 'height': 330.4039024390244, 'widthPercent': 0.8, 'rescaleHeight': True, 'trialN': 45, 'loaded': True, 'loadedTime': 4346.699999928474, 'positionName': 'CENTER', 'positionCoords': [41.5, 289.5]}]",Rate how much you want to eat this food from 0 (least) to 10 (most).,190365.10000002384,1669831719516,rigatoni and sauce,2051.7999999523163,True,4.5600000000000005,192416.89999997616,2051.7999999523163,True,HRV,HRV_0176,2022-11-30 18:09:20
46,"[{'imgObject': {}, 'id': 'raisin bran w milk', 'src': '/static/foodstim60/raisin bran w milk.jpg', 'key': 'NaN', 'origWidth': 411, 'origHeight': 411, 'width': 329.6, 'height': 329.6, 'widthPercent': 0.8, 'rescaleHeight': True, 'trialN': 46, 'loaded': True, 'loadedTime': 4352.100000023842, 'positionName': 'CENTER', 'positionCoords': [41.5, 290]}]",Rate how much you want to eat this food from 0 (least) to 10 (most).,192422.79999995232,1669831721574,raisin bran w milk,2188.100000023842,True,2.91,194610.89999997616,2188.100000023842,True,HRV,HRV_0176,2022-11-30 18:09:20
47,"[{'imgObject': {}, 'id': 'apple slices', 'src': '/static/foodstim60/apple slices.jpg', 'key': 'NaN', 'origWidth': 409, 'origHeight': 410, 'width': 329.6, 'height': 330.4058679706602, 'widthPercent': 0.8, 'rescaleHeight': True, 'trialN': 47, 'loaded': True, 'loadedTime': 4353.799999952316, 'positionName': 'CENTER', 'positionCoords': [41.5, 289.5]}]",Rate how much you want to eat this food from 0 (least) to 10 (most).,194618.79999995232,1669831723770,apple slices,3277.100000023842,True,8.05,197895.89999997616,3277.100000023842,True,HRV,HRV_0176,2022-11-30 18:09:20
48,"[{'imgObject': {}, 'id': 'Grapes', 'src': '/static/foodstim60/Grapes.jpg', 'key': 'NaN', 'origWidth': 411, 'origHeight': 411, 'width': 329.6, 'height': 329.6, 'widthPercent': 0.8, 'rescaleHeight': True, 'trialN': 48, 'loaded': True, 'loadedTime': 4355.299999952316, 'positionName': 'CENTER', 'positionCoords': [41.5, 290]}]",Rate how much you want to eat this food from 0 (least) to 10 (most).,197904.60000002384,1669831727056,Grapes,6946.299999952316,True,1.16,204850.89999997616,6946.299999952316,True,HRV,HRV_0176,2022-11-30 18:09:20
49,"[{'imgObject': {}, 'id': 'olives', 'src': '/static/foodstim60/olives.jpg', 'key': 'NaN', 'origWidth': 410, 'origHeight': 410, 'width': 329.6, 'height': 329.6, 'widthPercent': 0.8, 'rescaleHeight': True, 'trialN': 49, 'loaded': True, 'loadedTime': 4356.699999928474, 'positionName': 'CENTER', 'positionCoords': [41.5, 290]}]",Rate how much you want to eat this food from 0 (least) to 10 (most).,204860.5,1669831734011,olives,179.39999997615814,True,1.16,205039.89999997616,179.39999997615814,True,HRV,HRV_0176,2022-11-30 18:09:20
50,"[{'imgObject': {}, 'id': 'cherries', 'src': '/static/foodstim60/cherries.jpg', 'key': 'NaN', 'origWidth': 410, 'origHeight': 411, 'width': 329.6, 'height': 330.4039024390244, 'widthPercent': 0.8, 'rescaleHeight': True, 'trialN': 50, 'loaded': True, 'loadedTime': 4358, 'positionName': 'CENTER', 'positionCoords': [41.5, 289.5]}]",Rate how much you want to eat this food from 0 (least) to 10 (most).,205046.79999995232,1669831734198,cherries,1118.1000000238419,True,0.63,206164.89999997616,1118.1000000238419,True,HRV,HRV_0176,2022-11-30 18:09:20
51,"[{'imgObject': {}, 'id': 'turkey sandwich', 'src': '/static/foodstim60/turkey sandwich.jpg', 'key': 'NaN', 'origWidth': 409, 'origHeight': 409, 'width': 329.6, 'height': 329.6, 'widthPercent': 0.8, 'rescaleHeight': True, 'trialN': 51, 'loaded': True, 'loadedTime': 4359.399999976158, 'positionName': 'CENTER', 'positionCoords': [41.5, 290]}]",Rate how much you want to eat this food from 0 (least) to 10 (most).,206172.0,1669831735323,turkey sandwich,2917.899999976158,True,9.8,209089.89999997616,2917.899999976158,True,HRV,HRV_0176,2022-11-30 18:09:20
52,"[{'imgObject': {}, 'id': 'corn cob', 'src': '/static/foodstim60/corn cob.jpg', 'key': 'NaN', 'origWidth': 411, 'origHeight': 411, 'width': 329.6, 'height': 329.6, 'widthPercent': 0.8, 'rescaleHeight': True, 'trialN': 52, 'loaded': True, 'loadedTime': 4360.799999952316, 'positionName': 'CENTER', 'positionCoords': [41.5, 290]}]",Rate how much you want to eat this food from 0 (least) to 10 (most).,209093.29999995232,1669831738244,corn cob,1762.6000000238419,True,8.15,210855.89999997616,1762.6000000238419,True,HRV,HRV_0176,2022-11-30 18:09:20
53,"[{'imgObject': {}, 'id': 'cherry tomato', 'src': '/static/foodstim60/cherry tomato.jpg', 'key': 'NaN', 'origWidth': 410, 'origHeight': 410, 'width': 329.6, 'height': 329.6, 'widthPercent': 0.8, 'rescaleHeight': True, 'trialN': 53, 'loaded': True, 'loadedTime': 4362.299999952316, 'positionName': 'CENTER', 'positionCoords': [41.5, 290]}]",Rate how much you want to eat this food from 0 (least) to 10 (most).,210861.79999995232,1669831740013,cherry tomato,3854.100000023842,True,2.62,214715.89999997616,3854.100000023842,True,HRV,HRV_0176,2022-11-30 18:09:20
54,"[{'imgObject': {}, 'id': 'raspberries', 'src': '/static/foodstim60/raspberries.jpg', 'key': 'NaN', 'origWidth': 411, 'origHeight': 411, 'width': 329.6, 'height': 329.6, 'widthPercent': 0.8, 'rescaleHeight': True, 'trialN': 54, 'loaded': True, 'loadedTime': 4363.600000023842, 'positionName': 'CENTER', 'positionCoords': [41.5, 290]}]",Rate how much you want to eat this food from 0 (least) to 10 (most).,214723.10000002384,1669831743874,raspberries,1296.7999999523163,True,2.62,216019.89999997616,1296.7999999523163,True,HRV,HRV_0176,2022-11-30 18:09:20
55,"[{'imgObject': {}, 'id': 'sushi w_condiments', 'src': '/static/foodstim60/sushi w_condiments.jpg', 'key': 'NaN', 'origWidth': 410, 'origHeight': 410, 'width': 329.6, 'height': 329.6, 'widthPercent': 0.8, 'rescaleHeight': True, 'trialN': 55, 'loaded': True, 'loadedTime': 4364.899999976158, 'positionName': 'CENTER', 'positionCoords': [41.5, 290]}]",Rate how much you want to eat this food from 0 (least) to 10 (most).,216028.69999992847,1669831745180,sushi w_condiments,1904.2000000476837,True,6.11,217932.89999997616,1904.2000000476837,True,HRV,HRV_0176,2022-11-30 18:09:20
56,"[{'imgObject': {}, 'id': 'lox', 'src': '/static/foodstim60/lox.jpg', 'key': 'NaN', 'origWidth': 410, 'origHeight': 411, 'width': 329.6, 'height': 330.4039024390244, 'widthPercent': 0.8, 'rescaleHeight': True, 'trialN': 56, 'loaded': True, 'loadedTime': 4366.299999952316, 'positionName': 'CENTER', 'positionCoords': [41.5, 289.5]}]",Rate how much you want to eat this food from 0 (least) to 10 (most).,217936.39999997616,1669831747087,lox,5991.5,True,2.66,223927.89999997616,5991.5,True,HRV,HRV_0176,2022-11-30 18:09:20
57,"[{'imgObject': {}, 'id': 'chickenfingers', 'src': '/static/foodstim60/chickenfingers.jpg', 'key': 'NaN', 'origWidth': 410, 'origHeight': 410, 'width': 329.6, 'height': 329.6, 'widthPercent': 0.8, 'rescaleHeight': True, 'trialN': 57, 'loaded': True, 'loadedTime': 4367.699999928474, 'positionName': 'CENTER', 'positionCoords': [41.5, 290]}]",Rate how much you want to eat this food from 0 (least) to 10 (most).,223933.79999995232,1669831753085,chickenfingers,1749.1000000238419,True,9.36,225682.89999997616,1749.1000000238419,True,HRV,HRV_0176,2022-11-30 18:09:20
58,"[{'imgObject': {}, 'id': 'baked potato', 'src': '/static/foodstim60/baked potato.jpg', 'key': 'NaN', 'origWidth': 409, 'origHeight': 410, 'width': 329.6, 'height': 330.4058679706602, 'widthPercent': 0.8, 'rescaleHeight': True, 'trialN': 58, 'loaded': True, 'loadedTime': 4369.100000023842, 'positionName': 'CENTER', 'positionCoords': [41.5, 289.5]}]",Rate how much you want to eat this food from 0 (least) to 10 (most).,225691.5,1669831754842,baked potato,2591.399999976158,True,7.76,228282.89999997616,2591.399999976158,True,HRV,HRV_0176,2022-11-30 18:09:20
59,"[{'imgObject': {}, 'id': 'blackbeanswithrice', 'src': '/static/foodstim60/blackbeanswithrice.jpg', 'key': 'NaN', 'origWidth': 410, 'origHeight': 410, 'width': 329.6, 'height': 329.6, 'widthPercent': 0.8, 'rescaleHeight': True, 'trialN': 59, 'loaded': True, 'loadedTime': 4370.399999976158, 'positionName': 'CENTER', 'positionCoords': [41.5, 290]}]",Rate how much you want to eat this food from 0 (least) to 10 (most).,228290.60000002384,1669831757442,blackbeanswithrice,1487.2999999523163,True,7.8100000000000005,229777.89999997616,1487.2999999523163,True,HRV,HRV_0176,2022-11-30 18:09:20
