trialN,stimuli,question,trialStartTime,trialStartTime_UNIX,stimulus1,rt,receivedResponse,rating,trialEndTime,trialDuration,stimulus1Loaded,exp,subjectId,date
0,"[{'imgObject': {}, 'id': 'turkeysandwich', 'src': '/static/foodstim60/turkeysandwich.jpg', 'key': 'NaN', 'origWidth': 409, 'origHeight': 409, 'width': 329.6, 'height': 329.6, 'widthPercent': 0.8, 'rescaleHeight': True, 'trialN': 0, 'loaded': True, 'loadedTime': 6155.200000047684, 'positionName': 'CENTER', 'positionCoords': [41.5, 290]}]",Rate how much you want to eat this food from 0 (least) to 10 (most).,7614.700000047684,1669831254191,turkeysandwich,1724.5,True,8.05,9339.200000047684,1724.5,True,HRV,HRV_0176,2022-11-30 18:04:56
1,"[{'imgObject': {}, 'id': 'corn cob', 'src': '/static/foodstim60/corn cob.jpg', 'key': 'NaN', 'origWidth': 411, 'origHeight': 411, 'width': 329.6, 'height': 329.6, 'widthPercent': 0.8, 'rescaleHeight': True, 'trialN': 1, 'loaded': True, 'loadedTime': 6301.600000023842, 'positionName': 'CENTER', 'positionCoords': [41.5, 290]}]",Rate how much you want to eat this food from 0 (least) to 10 (most).,9356.200000047684,1669831255933,corn cob,2730.0,True,8.0,12086.200000047684,2730.0,True,HRV,HRV_0176,2022-11-30 18:04:56
2,"[{'imgObject': {}, 'id': 'mashed potato', 'src': '/static/foodstim60/mashed potato.jpg', 'key': 'NaN', 'origWidth': 409, 'origHeight': 409, 'width': 329.6, 'height': 329.6, 'widthPercent': 0.8, 'rescaleHeight': True, 'trialN': 2, 'loaded': True, 'loadedTime': 6403.700000047684, 'positionName': 'CENTER', 'positionCoords': [41.5, 290]}]",Rate how much you want to eat this food from 0 (least) to 10 (most).,12100.400000095367,1669831258677,mashed potato,2312.7999999523163,True,9.17,14413.200000047684,2312.7999999523163,True,HRV,HRV_0176,2022-11-30 18:04:56
3,"[{'imgObject': {}, 'id': 'luckycharms', 'src': '/static/foodstim60/luckycharms.jpg', 'key': 'NaN', 'origWidth': 410, 'origHeight': 409, 'width': 329.6, 'height': 328.7960975609756, 'widthPercent': 0.8, 'rescaleHeight': True, 'trialN': 3, 'loaded': True, 'loadedTime': 6288.800000071526, 'positionName': 'CENTER', 'positionCoords': [41.5, 290.5]}]",Rate how much you want to eat this food from 0 (least) to 10 (most).,14429.200000047684,1669831261006,luckycharms,1753.0,True,9.75,16182.200000047684,1753.0,True,HRV,HRV_0176,2022-11-30 18:04:56
4,"[{'imgObject': {}, 'id': 'strawberries', 'src': '/static/foodstim60/strawberries.jpg', 'key': 'NaN', 'origWidth': 410, 'origHeight': 410, 'width': 329.6, 'height': 329.6, 'widthPercent': 0.8, 'rescaleHeight': True, 'trialN': 4, 'loaded': True, 'loadedTime': 6400.5, 'positionName': 'CENTER', 'positionCoords': [41.5, 290]}]",Rate how much you want to eat this food from 0 (least) to 10 (most).,16195.0,1669831262772,strawberries,1906.2000000476837,True,3.0,18101.200000047684,1906.2000000476837,True,HRV,HRV_0176,2022-11-30 18:04:56
5,"[{'imgObject': {}, 'id': 'hashbrowns', 'src': '/static/foodstim60/hashbrowns.jpg', 'key': 'NaN', 'origWidth': 411, 'origHeight': 410, 'width': 329.6, 'height': 328.7980535279805, 'widthPercent': 0.8, 'rescaleHeight': True, 'trialN': 5, 'loaded': True, 'loadedTime': 6394.300000071526, 'positionName': 'CENTER', 'positionCoords': [41.5, 290.5]}]",Rate how much you want to eat this food from 0 (least) to 10 (most).,18115.700000047684,1669831264692,hashbrowns,5991.5,True,0.48,24107.200000047684,5991.5,True,HRV,HRV_0176,2022-11-30 18:04:56
6,"[{'imgObject': {}, 'id': 'turkey sandwich', 'src': '/static/foodstim60/turkey sandwich.jpg', 'key': 'NaN', 'origWidth': 409, 'origHeight': 409, 'width': 329.6, 'height': 329.6, 'widthPercent': 0.8, 'rescaleHeight': True, 'trialN': 6, 'loaded': True, 'loadedTime': 6405.5, 'positionName': 'CENTER', 'positionCoords': [41.5, 290]}]",Rate how much you want to eat this food from 0 (least) to 10 (most).,24122.300000071526,1669831270699,turkey sandwich,1820.8999999761581,True,9.36,25943.200000047684,1820.8999999761581,True,HRV,HRV_0176,2022-11-30 18:04:56
7,"[{'imgObject': {}, 'id': 'Grapes', 'src': '/static/foodstim60/Grapes.jpg', 'key': 'NaN', 'origWidth': 411, 'origHeight': 411, 'width': 329.6, 'height': 329.6, 'widthPercent': 0.8, 'rescaleHeight': True, 'trialN': 7, 'loaded': True, 'loadedTime': 6417.300000071526, 'positionName': 'CENTER', 'positionCoords': [41.5, 290]}]",Rate how much you want to eat this food from 0 (least) to 10 (most).,25958.300000071526,1669831272535,Grapes,6530.899999976158,True,5.04,32489.200000047684,6530.899999976158,True,HRV,HRV_0176,2022-11-30 18:04:56
8,"[{'imgObject': {}, 'id': 'yogurt no spoon', 'src': '/static/foodstim60/yogurt no spoon.jpg', 'key': 'NaN', 'origWidth': 411, 'origHeight': 410, 'width': 329.6, 'height': 328.7980535279805, 'widthPercent': 0.8, 'rescaleHeight': True, 'trialN': 8, 'loaded': True, 'loadedTime': 6421.800000071526, 'positionName': 'CENTER', 'positionCoords': [41.5, 290.5]}]",Rate how much you want to eat this food from 0 (least) to 10 (most).,32505.700000047684,1669831279082,yogurt no spoon,5474.5,True,1.74,37980.200000047684,5474.5,True,HRV,HRV_0176,2022-11-30 18:04:56
9,"[{'imgObject': {}, 'id': 'grilled chicken strips', 'src': '/static/foodstim60/grilled chicken strips.jpg', 'key': 'NaN', 'origWidth': 410, 'origHeight': 411, 'width': 329.6, 'height': 330.4039024390244, 'widthPercent': 0.8, 'rescaleHeight': True, 'trialN': 9, 'loaded': True, 'loadedTime': 6571.5, 'positionName': 'CENTER', 'positionCoords': [41.5, 289.5]}]",Rate how much you want to eat this food from 0 (least) to 10 (most).,37994.800000071526,1669831284571,grilled chicken strips,2378.399999976158,True,9.41,40373.200000047684,2378.399999976158,True,HRV,HRV_0176,2022-11-30 18:04:56
10,"[{'imgObject': {}, 'id': 'bagel and cc', 'src': '/static/foodstim60/bagel and cc.jpg', 'key': 'NaN', 'origWidth': 410, 'origHeight': 410, 'width': 329.6, 'height': 329.6, 'widthPercent': 0.8, 'rescaleHeight': True, 'trialN': 10, 'loaded': True, 'loadedTime': 6535.600000023842, 'positionName': 'CENTER', 'positionCoords': [41.5, 290]}]",Rate how much you want to eat this food from 0 (least) to 10 (most).,40388.60000002384,1669831286965,bagel and cc,4491.600000023842,True,7.86,44880.200000047684,4491.600000023842,True,HRV,HRV_0176,2022-11-30 18:04:56
11,"[{'imgObject': {}, 'id': 'omelette', 'src': '/static/foodstim60/omelette.jpg', 'key': 'NaN', 'origWidth': 410, 'origHeight': 409, 'width': 329.6, 'height': 328.7960975609756, 'widthPercent': 0.8, 'rescaleHeight': True, 'trialN': 11, 'loaded': True, 'loadedTime': 6540.400000095367, 'positionName': 'CENTER', 'positionCoords': [41.5, 290.5]}]",Rate how much you want to eat this food from 0 (least) to 10 (most).,44895.60000002384,1669831291472,omelette,6323.600000023842,True,5.09,51219.200000047684,6323.600000023842,True,HRV,HRV_0176,2022-11-30 18:04:56
12,"[{'imgObject': {}, 'id': 'chicken nuggets2', 'src': '/static/foodstim60/chicken nuggets2.jpg', 'key': 'NaN', 'origWidth': 410, 'origHeight': 409, 'width': 329.6, 'height': 328.7960975609756, 'widthPercent': 0.8, 'rescaleHeight': True, 'trialN': 12, 'loaded': True, 'loadedTime': 6629, 'positionName': 'CENTER', 'positionCoords': [41.5, 290.5]}]",Rate how much you want to eat this food from 0 (least) to 10 (most).,51234.300000071526,1669831297811,chicken nuggets2,3788.899999976158,True,7.18,55023.200000047684,3788.899999976158,True,HRV,HRV_0176,2022-11-30 18:04:56
13,"[{'imgObject': {}, 'id': 'burger', 'src': '/static/foodstim60/burger.jpg', 'key': 'NaN', 'origWidth': 409, 'origHeight': 409, 'width': 329.6, 'height': 329.6, 'widthPercent': 0.8, 'rescaleHeight': True, 'trialN': 13, 'loaded': True, 'loadedTime': 6549, 'positionName': 'CENTER', 'positionCoords': [41.5, 290]}]",Rate how much you want to eat this food from 0 (least) to 10 (most).,55037.0,1669831301614,burger,1937.2000000476837,True,9.32,56974.200000047684,1937.2000000476837,True,HRV,HRV_0176,2022-11-30 18:04:56
14,"[{'imgObject': {}, 'id': 'froot loops w milk', 'src': '/static/foodstim60/froot loops w milk.jpg', 'key': 'NaN', 'origWidth': 410, 'origHeight': 410, 'width': 329.6, 'height': 329.6, 'widthPercent': 0.8, 'rescaleHeight': True, 'trialN': 14, 'loaded': True, 'loadedTime': 6554.600000023842, 'positionName': 'CENTER', 'positionCoords': [41.5, 290]}]",Rate how much you want to eat this food from 0 (least) to 10 (most).,56988.90000009537,1669831303566,froot loops w milk,1721.2999999523163,True,8.88,58710.200000047684,1721.2999999523163,True,HRV,HRV_0176,2022-11-30 18:04:56
15,"[{'imgObject': {}, 'id': 'raspberries', 'src': '/static/foodstim60/raspberries.jpg', 'key': 'NaN', 'origWidth': 411, 'origHeight': 411, 'width': 329.6, 'height': 329.6, 'widthPercent': 0.8, 'rescaleHeight': True, 'trialN': 15, 'loaded': True, 'loadedTime': 6623, 'positionName': 'CENTER', 'positionCoords': [41.5, 290]}]",Rate how much you want to eat this food from 0 (least) to 10 (most).,58726.200000047684,1669831305303,raspberries,4155.0,True,1.5,62881.200000047684,4155.0,True,HRV,HRV_0176,2022-11-30 18:04:56
16,"[{'imgObject': {}, 'id': 'mango', 'src': '/static/foodstim60/mango.jpg', 'key': 'NaN', 'origWidth': 411, 'origHeight': 411, 'width': 329.6, 'height': 329.6, 'widthPercent': 0.8, 'rescaleHeight': True, 'trialN': 16, 'loaded': True, 'loadedTime': 6662.300000071526, 'positionName': 'CENTER', 'positionCoords': [41.5, 290]}]",Rate how much you want to eat this food from 0 (least) to 10 (most).,62894.90000009537,1669831309472,mango,1615.2999999523163,True,1.99,64510.200000047684,1615.2999999523163,True,HRV,HRV_0176,2022-11-30 18:04:56
17,"[{'imgObject': {}, 'id': 'popsicles', 'src': '/static/foodstim60/popsicles.jpg', 'key': 'NaN', 'origWidth': 410, 'origHeight': 410, 'width': 329.6, 'height': 329.6, 'widthPercent': 0.8, 'rescaleHeight': True, 'trialN': 17, 'loaded': True, 'loadedTime': 6672.800000071526, 'positionName': 'CENTER', 'positionCoords': [41.5, 290]}]",Rate how much you want to eat this food from 0 (least) to 10 (most).,64524.5,1669831311101,popsicles,2182.7000000476837,True,9.8,66707.20000004768,2182.7000000476837,True,HRV,HRV_0176,2022-11-30 18:04:56
18,"[{'imgObject': {}, 'id': 'fruitsalad', 'src': '/static/foodstim60/fruitsalad.jpg', 'key': 'NaN', 'origWidth': 410, 'origHeight': 410, 'width': 329.6, 'height': 329.6, 'widthPercent': 0.8, 'rescaleHeight': True, 'trialN': 18, 'loaded': True, 'loadedTime': 6666.600000023842, 'positionName': 'CENTER', 'positionCoords': [41.5, 290]}]",Rate how much you want to eat this food from 0 (least) to 10 (most).,66721.0,1669831313298,fruitsalad,1614.2000000476837,True,1.21,68335.20000004768,1614.2000000476837,True,HRV,HRV_0176,2022-11-30 18:04:56
19,"[{'imgObject': {}, 'id': 'blackbeanswithrice', 'src': '/static/foodstim60/blackbeanswithrice.jpg', 'key': 'NaN', 'origWidth': 410, 'origHeight': 410, 'width': 329.6, 'height': 329.6, 'widthPercent': 0.8, 'rescaleHeight': True, 'trialN': 19, 'loaded': True, 'loadedTime': 6692.700000047684, 'positionName': 'CENTER', 'positionCoords': [41.5, 290]}]",Rate how much you want to eat this food from 0 (least) to 10 (most).,68352.0,1669831314929,blackbeanswithrice,1661.2000000476837,True,7.62,70013.20000004768,1661.2000000476837,True,HRV,HRV_0176,2022-11-30 18:04:56
20,"[{'imgObject': {}, 'id': 'tacos', 'src': '/static/foodstim60/tacos.jpg', 'key': 'NaN', 'origWidth': 411, 'origHeight': 411, 'width': 329.6, 'height': 329.6, 'widthPercent': 0.8, 'rescaleHeight': True, 'trialN': 20, 'loaded': True, 'loadedTime': 6741.700000047684, 'positionName': 'CENTER', 'positionCoords': [41.5, 290]}]",Rate how much you want to eat this food from 0 (least) to 10 (most).,70028.40000009537,1669831316605,tacos,1423.7999999523163,True,7.96,71452.20000004768,1423.7999999523163,True,HRV,HRV_0176,2022-11-30 18:04:56
21,"[{'imgObject': {}, 'id': 'raisin bran w milk', 'src': '/static/foodstim60/raisin bran w milk.jpg', 'key': 'NaN', 'origWidth': 411, 'origHeight': 411, 'width': 329.6, 'height': 329.6, 'widthPercent': 0.8, 'rescaleHeight': True, 'trialN': 21, 'loaded': True, 'loadedTime': 6751.200000047684, 'positionName': 'CENTER', 'positionCoords': [41.5, 290]}]",Rate how much you want to eat this food from 0 (least) to 10 (most).,71469.20000004768,1669831318046,raisin bran w milk,3952.0,True,1.94,75421.20000004768,3952.0,True,HRV,HRV_0176,2022-11-30 18:04:56
22,"[{'imgObject': {}, 'id': 'cantaloupe', 'src': '/static/foodstim60/cantaloupe.jpg', 'key': 'NaN', 'origWidth': 409, 'origHeight': 409, 'width': 329.6, 'height': 329.6, 'widthPercent': 0.8, 'rescaleHeight': True, 'trialN': 22, 'loaded': True, 'loadedTime': 6778.5, 'positionName': 'CENTER', 'positionCoords': [41.5, 290]}]",Rate how much you want to eat this food from 0 (least) to 10 (most).,75436.0,1669831322013,cantaloupe,1779.2000000476837,True,0.19,77215.20000004768,1779.2000000476837,True,HRV,HRV_0176,2022-11-30 18:04:56
23,"[{'imgObject': {}, 'id': 'kiwi', 'src': '/static/foodstim60/kiwi.jpg', 'key': 'NaN', 'origWidth': 410, 'origHeight': 410, 'width': 329.6, 'height': 329.6, 'widthPercent': 0.8, 'rescaleHeight': True, 'trialN': 23, 'loaded': True, 'loadedTime': 6867.200000047684, 'positionName': 'CENTER', 'positionCoords': [41.5, 290]}]",Rate how much you want to eat this food from 0 (least) to 10 (most).,77225.5,1669831323802,kiwi,1774.7000000476837,True,1.06,79000.20000004768,1774.7000000476837,True,HRV,HRV_0176,2022-11-30 18:04:56
24,"[{'imgObject': {}, 'id': 'apple slices', 'src': '/static/foodstim60/apple slices.jpg', 'key': 'NaN', 'origWidth': 409, 'origHeight': 410, 'width': 329.6, 'height': 330.4058679706602, 'widthPercent': 0.8, 'rescaleHeight': True, 'trialN': 24, 'loaded': True, 'loadedTime': 6795.800000071526, 'positionName': 'CENTER', 'positionCoords': [41.5, 289.5]}]",Rate how much you want to eat this food from 0 (least) to 10 (most).,79015.40000009537,1669831325592,apple slices,1622.7999999523163,True,5.0,80638.20000004768,1622.7999999523163,True,HRV,HRV_0176,2022-11-30 18:04:56
25,"[{'imgObject': {}, 'id': 'Tribe humus pita', 'src': '/static/foodstim60/Tribe humus pita.jpg', 'key': 'NaN', 'origWidth': 411, 'origHeight': 411, 'width': 329.6, 'height': 329.6, 'widthPercent': 0.8, 'rescaleHeight': True, 'trialN': 25, 'loaded': True, 'loadedTime': 6804.5, 'positionName': 'CENTER', 'positionCoords': [41.5, 290]}]",Rate how much you want to eat this food from 0 (least) to 10 (most).,80652.20000004768,1669831327229,Tribe humus pita,2102.0,True,5.04,82754.20000004768,2102.0,True,HRV,HRV_0176,2022-11-30 18:04:56
26,"[{'imgObject': {}, 'id': 'granola w milk', 'src': '/static/foodstim60/granola w milk.jpg', 'key': 'NaN', 'origWidth': 410, 'origHeight': 410, 'width': 329.6, 'height': 329.6, 'widthPercent': 0.8, 'rescaleHeight': True, 'trialN': 26, 'loaded': True, 'loadedTime': 6861.700000047684, 'positionName': 'CENTER', 'positionCoords': [41.5, 290]}]",Rate how much you want to eat this food from 0 (least) to 10 (most).,82769.90000009537,1669831329347,granola w milk,7533.299999952316,True,1.11,90303.20000004768,7533.299999952316,True,HRV,HRV_0176,2022-11-30 18:04:56
27,"[{'imgObject': {}, 'id': 'sweetpotato', 'src': '/static/foodstim60/sweetpotato.jpg', 'key': 'NaN', 'origWidth': 410, 'origHeight': 410, 'width': 329.6, 'height': 329.6, 'widthPercent': 0.8, 'rescaleHeight': True, 'trialN': 27, 'loaded': True, 'loadedTime': 6902.800000071526, 'positionName': 'CENTER', 'positionCoords': [41.5, 290]}]",Rate how much you want to eat this food from 0 (least) to 10 (most).,90318.60000002384,1669831336895,sweetpotato,100.60000002384186,True,0.97,90419.20000004768,100.60000002384186,True,HRV,HRV_0176,2022-11-30 18:04:56
28,"[{'imgObject': {}, 'id': 'rigatoni', 'src': '/static/foodstim60/rigatoni.jpg', 'key': 'NaN', 'origWidth': 411, 'origHeight': 411, 'width': 329.6, 'height': 329.6, 'widthPercent': 0.8, 'rescaleHeight': True, 'trialN': 28, 'loaded': True, 'loadedTime': 6896.5, 'positionName': 'CENTER', 'positionCoords': [41.5, 290]}]",Rate how much you want to eat this food from 0 (least) to 10 (most).,90432.10000002384,1669831337009,rigatoni,3660.100000023842,True,1.74,94092.20000004768,3660.100000023842,True,HRV,HRV_0176,2022-11-30 18:04:56
29,"[{'imgObject': {}, 'id': 'steak', 'src': '/static/foodstim60/steak.jpg', 'key': 'NaN', 'origWidth': 410, 'origHeight': 410, 'width': 329.6, 'height': 329.6, 'widthPercent': 0.8, 'rescaleHeight': True, 'trialN': 29, 'loaded': True, 'loadedTime': 6920.400000095367, 'positionName': 'CENTER', 'positionCoords': [41.5, 290]}]",Rate how much you want to eat this food from 0 (least) to 10 (most).,94109.10000002384,1669831340686,steak,1992.1000000238419,True,9.17,96101.20000004768,1992.1000000238419,True,HRV,HRV_0176,2022-11-30 18:04:56
30,"[{'imgObject': {}, 'id': 'orange slices', 'src': '/static/foodstim60/orange slices.jpg', 'key': 'NaN', 'origWidth': 409, 'origHeight': 410, 'width': 329.6, 'height': 330.4058679706602, 'widthPercent': 0.8, 'rescaleHeight': True, 'trialN': 30, 'loaded': True, 'loadedTime': 6924.600000023842, 'positionName': 'CENTER', 'positionCoords': [41.5, 289.5]}]",Rate how much you want to eat this food from 0 (least) to 10 (most).,96116.60000002384,1669831342693,orange slices,2224.600000023842,True,4.66,98341.20000004768,2224.600000023842,True,HRV,HRV_0176,2022-11-30 18:04:56
31,"[{'imgObject': {}, 'id': 'mac & cheese', 'src': '/static/foodstim60/mac & cheese.jpg', 'key': 'NaN', 'origWidth': 410, 'origHeight': 410, 'width': 329.6, 'height': 329.6, 'widthPercent': 0.8, 'rescaleHeight': True, 'trialN': 31, 'loaded': True, 'loadedTime': 6972.800000071526, 'positionName': 'CENTER', 'positionCoords': [41.5, 290]}]",Rate how much you want to eat this food from 0 (least) to 10 (most).,98358.10000002384,1669831344935,mac & cheese,1422.1000000238419,True,9.120000000000001,99780.20000004768,1422.1000000238419,True,HRV,HRV_0176,2022-11-30 18:04:56
32,"[{'imgObject': {}, 'id': 'edamame', 'src': '/static/foodstim60/edamame.jpg', 'key': 'NaN', 'origWidth': 409, 'origHeight': 410, 'width': 329.6, 'height': 330.4058679706602, 'widthPercent': 0.8, 'rescaleHeight': True, 'trialN': 32, 'loaded': True, 'loadedTime': 7030.300000071526, 'positionName': 'CENTER', 'positionCoords': [41.5, 289.5]}]",Rate how much you want to eat this food from 0 (least) to 10 (most).,99795.40000009537,1669831346372,edamame,3431.7999999523163,True,0.19,103227.20000004768,3431.7999999523163,True,HRV,HRV_0176,2022-11-30 18:04:56
33,"[{'imgObject': {}, 'id': 'seaweed', 'src': '/static/foodstim60/seaweed.jpg', 'key': 'NaN', 'origWidth': 410, 'origHeight': 410, 'width': 329.6, 'height': 329.6, 'widthPercent': 0.8, 'rescaleHeight': True, 'trialN': 33, 'loaded': True, 'loadedTime': 7043.400000095367, 'positionName': 'CENTER', 'positionCoords': [41.5, 290]}]",Rate how much you want to eat this food from 0 (least) to 10 (most).,103241.70000004768,1669831349818,seaweed,2036.5,True,5.14,105278.20000004768,2036.5,True,HRV,HRV_0176,2022-11-30 18:04:56
34,"[{'imgObject': {}, 'id': 'burrito', 'src': '/static/foodstim60/burrito.jpg', 'key': 'NaN', 'origWidth': 410, 'origHeight': 410, 'width': 329.6, 'height': 329.6, 'widthPercent': 0.8, 'rescaleHeight': True, 'trialN': 34, 'loaded': True, 'loadedTime': 7048.400000095367, 'positionName': 'CENTER', 'positionCoords': [41.5, 290]}]",Rate how much you want to eat this food from 0 (least) to 10 (most).,105293.70000004768,1669831351870,burrito,2418.5,True,7.8100000000000005,107712.20000004768,2418.5,True,HRV,HRV_0176,2022-11-30 18:04:56
35,"[{'imgObject': {}, 'id': 'salmon', 'src': '/static/foodstim60/salmon.jpg', 'key': 'NaN', 'origWidth': 410, 'origHeight': 409, 'width': 329.6, 'height': 328.7960975609756, 'widthPercent': 0.8, 'rescaleHeight': True, 'trialN': 35, 'loaded': True, 'loadedTime': 7052.100000023842, 'positionName': 'CENTER', 'positionCoords': [41.5, 290.5]}]",Rate how much you want to eat this food from 0 (least) to 10 (most).,107725.70000004768,1669831354302,salmon,7796.5,True,2.57,115522.20000004768,7796.5,True,HRV,HRV_0176,2022-11-30 18:04:56
36,"[{'imgObject': {}, 'id': 'ice cream sundae 002', 'src': '/static/foodstim60/ice cream sundae 002.jpg', 'key': 'NaN', 'origWidth': 409, 'origHeight': 409, 'width': 329.6, 'height': 329.6, 'widthPercent': 0.8, 'rescaleHeight': True, 'trialN': 36, 'loaded': True, 'loadedTime': 7083.600000023842, 'positionName': 'CENTER', 'positionCoords': [41.5, 290]}]",Rate how much you want to eat this food from 0 (least) to 10 (most).,115536.30000007153,1669831362113,ice cream sundae 002,1687.8999999761581,True,2.62,117224.20000004768,1687.8999999761581,True,HRV,HRV_0176,2022-11-30 18:04:56
37,"[{'imgObject': {}, 'id': 'lox', 'src': '/static/foodstim60/lox.jpg', 'key': 'NaN', 'origWidth': 410, 'origHeight': 411, 'width': 329.6, 'height': 330.4039024390244, 'widthPercent': 0.8, 'rescaleHeight': True, 'trialN': 37, 'loaded': True, 'loadedTime': 7089.200000047684, 'positionName': 'CENTER', 'positionCoords': [41.5, 289.5]}]",Rate how much you want to eat this food from 0 (least) to 10 (most).,117239.10000002384,1669831363816,lox,12546.100000023842,True,0.33,129785.20000004768,12546.100000023842,True,HRV,HRV_0176,2022-11-30 18:04:56
38,"[{'imgObject': {}, 'id': 'cherry tomato', 'src': '/static/foodstim60/cherry tomato.jpg', 'key': 'NaN', 'origWidth': 410, 'origHeight': 410, 'width': 329.6, 'height': 329.6, 'widthPercent': 0.8, 'rescaleHeight': True, 'trialN': 38, 'loaded': True, 'loadedTime': 7150.400000095367, 'positionName': 'CENTER', 'positionCoords': [41.5, 290]}]",Rate how much you want to eat this food from 0 (least) to 10 (most).,129802.10000002384,1669831376379,cherry tomato,4181.100000023842,True,3.3000000000000003,133983.20000004768,4181.100000023842,True,HRV,HRV_0176,2022-11-30 18:04:56
39,"[{'imgObject': {}, 'id': 'eggsalad', 'src': '/static/foodstim60/eggsalad.jpg', 'key': 'NaN', 'origWidth': 410, 'origHeight': 409, 'width': 329.6, 'height': 328.7960975609756, 'widthPercent': 0.8, 'rescaleHeight': True, 'trialN': 39, 'loaded': True, 'loadedTime': 7143.800000071526, 'positionName': 'CENTER', 'positionCoords': [41.5, 290.5]}]",Rate how much you want to eat this food from 0 (least) to 10 (most).,133996.30000007153,1669831380573,eggsalad,2029.8999999761581,True,7.8100000000000005,136026.20000004768,2029.8999999761581,True,HRV,HRV_0176,2022-11-30 18:04:56
40,"[{'imgObject': {}, 'id': 'baked potato', 'src': '/static/foodstim60/baked potato.jpg', 'key': 'NaN', 'origWidth': 409, 'origHeight': 410, 'width': 329.6, 'height': 330.4058679706602, 'widthPercent': 0.8, 'rescaleHeight': True, 'trialN': 40, 'loaded': True, 'loadedTime': 7268.100000023842, 'positionName': 'CENTER', 'positionCoords': [41.5, 289.5]}]",Rate how much you want to eat this food from 0 (least) to 10 (most).,136040.5,1669831382617,baked potato,5577.700000047684,True,9.02,141618.20000004768,5577.700000047684,True,HRV,HRV_0176,2022-11-30 18:04:56
41,"[{'imgObject': {}, 'id': 'rigatoni and sauce', 'src': '/static/foodstim60/rigatoni and sauce.jpg', 'key': 'NaN', 'origWidth': 410, 'origHeight': 411, 'width': 329.6, 'height': 330.4039024390244, 'widthPercent': 0.8, 'rescaleHeight': True, 'trialN': 41, 'loaded': True, 'loadedTime': 7199.900000095367, 'positionName': 'CENTER', 'positionCoords': [41.5, 289.5]}]",Rate how much you want to eat this food from 0 (least) to 10 (most).,141632.90000009537,1669831388210,rigatoni and sauce,9157.299999952316,True,2.71,150790.20000004768,9157.299999952316,True,HRV,HRV_0176,2022-11-30 18:04:56
42,"[{'imgObject': {}, 'id': 'olives', 'src': '/static/foodstim60/olives.jpg', 'key': 'NaN', 'origWidth': 410, 'origHeight': 410, 'width': 329.6, 'height': 329.6, 'widthPercent': 0.8, 'rescaleHeight': True, 'trialN': 42, 'loaded': True, 'loadedTime': 7273.5, 'positionName': 'CENTER', 'positionCoords': [41.5, 290]}]",Rate how much you want to eat this food from 0 (least) to 10 (most).,150799.5,1669831397376,olives,5953.700000047684,True,0.14,156753.20000004768,5953.700000047684,True,HRV,HRV_0176,2022-11-30 18:04:56
43,"[{'imgObject': {}, 'id': 'hotdog w must', 'src': '/static/foodstim60/hotdog w must.jpg', 'key': 'NaN', 'origWidth': 409, 'origHeight': 409, 'width': 329.6, 'height': 329.6, 'widthPercent': 0.8, 'rescaleHeight': True, 'trialN': 43, 'loaded': True, 'loadedTime': 7193.800000071526, 'positionName': 'CENTER', 'positionCoords': [41.5, 290]}]",Rate how much you want to eat this food from 0 (least) to 10 (most).,156763.90000009537,1669831403341,hotdog w must,3250.2999999523163,True,6.890000000000001,160014.20000004768,3250.2999999523163,True,HRV,HRV_0176,2022-11-30 18:04:56
44,"[{'imgObject': {}, 'id': 'cheerios', 'src': '/static/foodstim60/cheerios.jpg', 'key': 'NaN', 'origWidth': 409, 'origHeight': 410, 'width': 329.6, 'height': 330.4058679706602, 'widthPercent': 0.8, 'rescaleHeight': True, 'trialN': 44, 'loaded': True, 'loadedTime': 7287.100000023842, 'positionName': 'CENTER', 'positionCoords': [41.5, 289.5]}]",Rate how much you want to eat this food from 0 (least) to 10 (most).,160021.20000004768,1669831406598,cheerios,3258.0,True,9.8,163279.20000004768,3258.0,True,HRV,HRV_0176,2022-11-30 18:04:56
45,"[{'imgObject': {}, 'id': 'chickenfingers', 'src': '/static/foodstim60/chickenfingers.jpg', 'key': 'NaN', 'origWidth': 410, 'origHeight': 410, 'width': 329.6, 'height': 329.6, 'widthPercent': 0.8, 'rescaleHeight': True, 'trialN': 45, 'loaded': True, 'loadedTime': 7315.900000095367, 'positionName': 'CENTER', 'positionCoords': [41.5, 290]}]",Rate how much you want to eat this food from 0 (least) to 10 (most).,163291.90000009537,1669831409869,chickenfingers,133.29999995231628,True,9.8,163425.20000004768,133.29999995231628,True,HRV,HRV_0176,2022-11-30 18:04:56
46,"[{'imgObject': {}, 'id': 'banana', 'src': '/static/foodstim60/banana.jpg', 'key': 'NaN', 'origWidth': 410, 'origHeight': 410, 'width': 329.6, 'height': 329.6, 'widthPercent': 0.8, 'rescaleHeight': True, 'trialN': 46, 'loaded': True, 'loadedTime': 7323.400000095367, 'positionName': 'CENTER', 'positionCoords': [41.5, 290]}]",Rate how much you want to eat this food from 0 (least) to 10 (most).,163434.70000004768,1669831410011,banana,4600.5,True,6.5,168035.20000004768,4600.5,True,HRV,HRV_0176,2022-11-30 18:04:56
47,"[{'imgObject': {}, 'id': 'avocado', 'src': '/static/foodstim60/avocado.jpg', 'key': 'NaN', 'origWidth': 409, 'origHeight': 409, 'width': 329.6, 'height': 329.6, 'widthPercent': 0.8, 'rescaleHeight': True, 'trialN': 47, 'loaded': True, 'loadedTime': 7326.600000023842, 'positionName': 'CENTER', 'positionCoords': [41.5, 290]}]",Rate how much you want to eat this food from 0 (least) to 10 (most).,168040.5,1669831414617,avocado,21562.700000047684,True,2.33,189603.20000004768,21562.700000047684,True,HRV,HRV_0176,2022-11-30 18:04:56
48,"[{'imgObject': {}, 'id': 'cocktailshrimp', 'src': '/static/foodstim60/cocktailshrimp.jpg', 'key': 'NaN', 'origWidth': 410, 'origHeight': 410, 'width': 329.6, 'height': 329.6, 'widthPercent': 0.8, 'rescaleHeight': True, 'trialN': 48, 'loaded': True, 'loadedTime': 7420.700000047684, 'positionName': 'CENTER', 'positionCoords': [41.5, 290]}]",Rate how much you want to eat this food from 0 (least) to 10 (most).,189611.30000007153,1669831436188,cocktailshrimp,2735.899999976158,True,7.33,192347.20000004768,2735.899999976158,True,HRV,HRV_0176,2022-11-30 18:04:56
49,"[{'imgObject': {}, 'id': 'roastedpotatoes', 'src': '/static/foodstim60/roastedpotatoes.jpg', 'key': 'NaN', 'origWidth': 409, 'origHeight': 410, 'width': 329.6, 'height': 330.4058679706602, 'widthPercent': 0.8, 'rescaleHeight': True, 'trialN': 49, 'loaded': True, 'loadedTime': 7382.800000071526, 'positionName': 'CENTER', 'positionCoords': [41.5, 289.5]}]",Rate how much you want to eat this food from 0 (least) to 10 (most).,192355.10000002384,1669831438932,roastedpotatoes,2567.100000023842,True,10.0,194922.20000004768,2567.100000023842,True,HRV,HRV_0176,2022-11-30 18:04:56
50,"[{'imgObject': {}, 'id': 'sushi w_condiments', 'src': '/static/foodstim60/sushi w_condiments.jpg', 'key': 'NaN', 'origWidth': 410, 'origHeight': 410, 'width': 329.6, 'height': 329.6, 'widthPercent': 0.8, 'rescaleHeight': True, 'trialN': 50, 'loaded': True, 'loadedTime': 7414.900000095367, 'positionName': 'CENTER', 'positionCoords': [41.5, 290]}]",Rate how much you want to eat this food from 0 (least) to 10 (most).,194932.70000004768,1669831441509,sushi w_condiments,2025.5,True,2.81,196958.20000004768,2025.5,True,HRV,HRV_0176,2022-11-30 18:04:56
51,"[{'imgObject': {}, 'id': 'salad w chicken', 'src': '/static/foodstim60/salad w chicken.jpg', 'key': 'NaN', 'origWidth': 411, 'origHeight': 411, 'width': 329.6, 'height': 329.6, 'widthPercent': 0.8, 'rescaleHeight': True, 'trialN': 51, 'loaded': True, 'loadedTime': 7430.100000023842, 'positionName': 'CENTER', 'positionCoords': [41.5, 290]}]",Rate how much you want to eat this food from 0 (least) to 10 (most).,196962.80000007153,1669831443540,salad w chicken,2832.399999976158,True,7.86,199795.20000004768,2832.399999976158,True,HRV,HRV_0176,2022-11-30 18:04:56
52,"[{'imgObject': {}, 'id': 'pear', 'src': '/static/foodstim60/pear.jpg', 'key': 'NaN', 'origWidth': 411, 'origHeight': 410, 'width': 329.6, 'height': 328.7980535279805, 'widthPercent': 0.8, 'rescaleHeight': True, 'trialN': 52, 'loaded': True, 'loadedTime': 7425.5, 'positionName': 'CENTER', 'positionCoords': [41.5, 290.5]}]",Rate how much you want to eat this food from 0 (least) to 10 (most).,199804.60000002384,1669831446381,pear,4411.600000023842,True,1.5,204216.20000004768,4411.600000023842,True,HRV,HRV_0176,2022-11-30 18:04:56
53,"[{'imgObject': {}, 'id': 'veggieswithdip', 'src': '/static/foodstim60/veggieswithdip.jpg', 'key': 'NaN', 'origWidth': 409, 'origHeight': 409, 'width': 329.6, 'height': 329.6, 'widthPercent': 0.8, 'rescaleHeight': True, 'trialN': 53, 'loaded': True, 'loadedTime': 7482.5, 'positionName': 'CENTER', 'positionCoords': [41.5, 290]}]",Rate how much you want to eat this food from 0 (least) to 10 (most).,204222.90000009537,1669831450800,veggieswithdip,2096.2999999523163,True,5.0,206319.20000004768,2096.2999999523163,True,HRV,HRV_0176,2022-11-30 18:04:56
54,"[{'imgObject': {}, 'id': 'fried eggs', 'src': '/static/foodstim60/fried eggs.jpg', 'key': 'NaN', 'origWidth': 410, 'origHeight': 410, 'width': 329.6, 'height': 329.6, 'widthPercent': 0.8, 'rescaleHeight': True, 'trialN': 54, 'loaded': True, 'loadedTime': 7488, 'positionName': 'CENTER', 'positionCoords': [41.5, 290]}]",Rate how much you want to eat this food from 0 (least) to 10 (most).,206327.5,1669831452904,fried eggs,3624.7000000476837,True,7.5200000000000005,209952.20000004768,3624.7000000476837,True,HRV,HRV_0176,2022-11-30 18:04:56
55,"[{'imgObject': {}, 'id': 'blueberries', 'src': '/static/foodstim60/blueberries.jpg', 'key': 'NaN', 'origWidth': 411, 'origHeight': 411, 'width': 329.6, 'height': 329.6, 'widthPercent': 0.8, 'rescaleHeight': True, 'trialN': 55, 'loaded': True, 'loadedTime': 7575, 'positionName': 'CENTER', 'positionCoords': [41.5, 290]}]",Rate how much you want to eat this food from 0 (least) to 10 (most).,209959.10000002384,1669831456536,blueberries,1928.1000000238419,True,1.4000000000000001,211887.20000004768,1928.1000000238419,True,HRV,HRV_0176,2022-11-30 18:04:56
56,"[{'imgObject': {}, 'id': 'eggs', 'src': '/static/foodstim60/eggs.jpg', 'key': 'NaN', 'origWidth': 409, 'origHeight': 409, 'width': 329.6, 'height': 329.6, 'widthPercent': 0.8, 'rescaleHeight': True, 'trialN': 56, 'loaded': True, 'loadedTime': 7566.900000095367, 'positionName': 'CENTER', 'positionCoords': [41.5, 290]}]",Rate how much you want to eat this food from 0 (least) to 10 (most).,211893.60000002384,1669831458470,eggs,1592.6000000238419,True,8.0,213486.20000004768,1592.6000000238419,True,HRV,HRV_0176,2022-11-30 18:04:56
57,"[{'imgObject': {}, 'id': 'cherries', 'src': '/static/foodstim60/cherries.jpg', 'key': 'NaN', 'origWidth': 410, 'origHeight': 411, 'width': 329.6, 'height': 330.4039024390244, 'widthPercent': 0.8, 'rescaleHeight': True, 'trialN': 57, 'loaded': True, 'loadedTime': 7543.5, 'positionName': 'CENTER', 'positionCoords': [41.5, 289.5]}]",Rate how much you want to eat this food from 0 (least) to 10 (most).,213494.5,1669831460071,cherries,26547.700000047684,True,0.09,240042.20000004768,26547.700000047684,True,HRV,HRV_0176,2022-11-30 18:04:56
58,"[{'imgObject': {}, 'id': 'shreddedwheatwithmilk', 'src': '/static/foodstim60/shreddedwheatwithmilk.jpg', 'key': 'NaN', 'origWidth': 410, 'origHeight': 410, 'width': 329.6, 'height': 329.6, 'widthPercent': 0.8, 'rescaleHeight': True, 'trialN': 58, 'loaded': True, 'loadedTime': 7556.300000071526, 'positionName': 'CENTER', 'positionCoords': [41.5, 290]}]",Rate how much you want to eat this food from 0 (least) to 10 (most).,240052.5,1669831486629,shreddedwheatwithmilk,2929.7000000476837,True,1.35,242982.20000004768,2929.7000000476837,True,HRV,HRV_0176,2022-11-30 18:04:56
59,"[{'imgObject': {}, 'id': 'bagel plain', 'src': '/static/foodstim60/bagel plain.jpg', 'key': 'NaN', 'origWidth': 410, 'origHeight': 410, 'width': 329.6, 'height': 329.6, 'widthPercent': 0.8, 'rescaleHeight': True, 'trialN': 59, 'loaded': True, 'loadedTime': 7611.800000071526, 'positionName': 'CENTER', 'positionCoords': [41.5, 290]}]",Rate how much you want to eat this food from 0 (least) to 10 (most).,242987.40000009537,1669831489564,bagel plain,4641.799999952316,True,4.8500000000000005,247629.20000004768,4641.799999952316,True,HRV,HRV_0176,2022-11-30 18:04:56
