success,trial_type,trial_index,time_elapsed,internal_node_id,Block,TrialNumber,TrialTime,trialTimeDiff,FPS_avg,FPS_med,FPS_mode,TrialDur,winResizeTime,rt,block,button_pressed,MotCoh,MotDir,ColCoh,Color,ChoiceKey,Choice,Accuracy,RT,nFrames,FPS,PPD,missTrial,missTrialMsg,onsetDelay,fullScreenExitTime,canvCenter,TrialType,Score,BlockTrial,stimulus,button_labels,exp,subjectId,date
True,fullscreen,0,3384,0.0-0.0,0.0,1.0,,,,,,,,,,,,,,,,,,,,,,,,,,,,,,,,HRV,HRV_0176,2022-11-30 18:42:25
,wl-check-fps,1,8400,0.0-1.0,0.0,2.0,"[4159.3, 4174.7, 4191.6, 4207.9, 4225.2, 4241.5, 4258.5, 4274.8, 4291.6, 4309.4, 4325.5, 4341.5, 4358, 4375.1, 4391.9, 4408.3, 4425.4, 4441.6, 4458.3, 4475.1, 4492.3, 4508, 4524.7, 4541, 4558, 4574.9, 4591.4, 4607.6, 4624.3, 4641.1, 4658, 4674.3, 4690.9, 4707.4, 4724.4, 4741.7, 4757.8, 4774.2, 4791, 4807.9, 4824.2, 4840.5, 4857.1, 4873.6, 4891.9, 4907.9, 4925.1, 4940.7, 4957.2, 4973.6, 4990.9, 5007.5, 5024.6, 5040.3, 5058.2, 5073.6, 5092.4, 5107.9, 5123.5, 5140.5, 5157.8, 5174.3, 5190.2, 5207.1, 5224.2, 5239.9, 5258.4, 5274, 5291.4, 5309.5, 5323.4, 5341.6, 5357.9, 5373.7, 5391.1, 5409.2, 5425, 5440.6, 5459, 5473.6, 5489.7, 5508.9, 5523.8, 5540.3, 5556.9, 5573.6, 5589.3, 5607.7, 5624.9, 5641.5, 5657.7, 5674.8, 5691.6, 5708.7, 5724.6, 5742, 5758.6, 5774.3, 5791.6, 5808.3, 5824.5, 5841.3, 5858.4, 5874.7, 5891.3, 5909, 5925, 5940.8, 5957.7, 5975.3, 5991.3, 6009, 6024.5, 6040.8, 6056.5, 6074.3, 6091.1, 6107.6, 6123.9, 6141.1, 6157.8, 6174.1, 6191.4, 6207.4, 6224.1, 6241.9, 6257.4, 6273.4, 6290.5, 6307.4, 6324.1, 6340.2, 6357.7, 6372.2, 6388.7, 6405.2, 6421.8, 6438.9, 6456.2, 6472.5, 6488.9, 6504.8, 6521.8, 6538, 6555.2, 6573.4, 6590.2, 6605.3, 6622.3, 6639.9, 6656.8, 6673.8, 6690.3, 6706.6, 6723.2, 6740.2, 6756.2, 6773.3, 6790.5, 6806.5, 6823.9, 6840.3, 6856.1, 6872.7, 6889.5, 6906.6, 6922.5, 6939.7, 6955.5, 6972.9, 6988.8, 7006, 7022.5, 7039.2, 7054.4, 7072.3, 7088.3, 7105.3, 7121.8, 7139.1, 7154.7, 7171.7, 7187.7, 7206.1, 7222.8, 7237.8, 7254.5, 7272, 7288.9, 7306.4, 7322.4, 7338.3, 7355.4, 7372.7, 7389.9, 7405.3, 7422.4, 7438.8, 7454.8, 7471.6, 7489.1, 7504.8, 7522.1, 7539.3, 7555.2, 7572.1, 7588.9, 7605.8, 7622, 7638.7, 7656.1, 7671.7, 7688.4, 7702.8, 7721.2, 7737.5, 7754.4, 7770, 7788, 7804.4, 7823.2, 7838.1, 7854.4, 7872.4, 7887.8, 7904.8, 7921.6, 7937.8, 7954.4, 7970.5, 7986.6, 8004.6, 8022, 8038.8, 8054.6, 8072.1, 8087, 8104.4, 8120.7, 8138.3, 8154.8, 8170.4, 8188.5, 8204.4, 8220.7, 8237.4, 8254.6, 8271.5, 8287.2, 8304.9, 8321.2, 8337.8, 8354.1, 8368.7, 8387.7, 8403.2, 8421.2, 8437.2, 8453.3, 8468.9, 8487, 8504.4, 8520, 8537.4, 8553.8, 8570.5, 8591.1, 8601.8, 8619.2, 8635.9, 8651.7, 8667.9, 8685.1, 8701.8, 8719.4, 8735.4, 8751.2, 8769.3, 8786, 8802.3, 8817.4, 8834.2, 8852.4, 8868.3, 8884.7, 8902.9, 8919.6, 8936.4, 8952.9, 8968.7, 8984.1, 9001.4, 9017.1, 9037.1, 9050.9, 9070.5, 9085.3, 9100.9, 9119.8, 9135.4]","[13.8, 15.4, 16.9, 16.3, 17.3, 16.3, 17, 16.3, 16.8, 17.8, 16.1, 16, 16.5, 17.1, 16.8, 16.4, 17.1, 16.2, 16.7, 16.8, 17.2, 15.7, 16.7, 16.3, 17, 16.9, 16.5, 16.2, 16.7, 16.8, 16.9, 16.3, 16.6, 16.5, 17, 17.3, 16.1, 16.4, 16.8, 16.9, 16.3, 16.3, 16.6, 16.5, 18.3, 16, 17.2, 15.6, 16.5, 16.4, 17.3, 16.6, 17.1, 15.7, 17.9, 15.4, 18.8, 15.5, 15.6, 17, 17.3, 16.5, 15.9, 16.9, 17.1, 15.7, 18.5, 15.6, 17.4, 18.1, 13.9, 18.2, 16.3, 15.8, 17.4, 18.1, 15.8, 15.6, 18.4, 14.6, 16.1, 19.2, 14.9, 16.5, 16.6, 16.7, 15.7, 18.4, 17.2, 16.6, 16.2, 17.1, 16.8, 17.1, 15.9, 17.4, 16.6, 15.7, 17.3, 16.7, 16.2, 16.8, 17.1, 16.3, 16.6, 17.7, 16, 15.8, 16.9, 17.6, 16, 17.7, 15.5, 16.3, 15.7, 17.8, 16.8, 16.5, 16.3, 17.2, 16.7, 16.3, 17.3, 16, 16.7, 17.8, 15.5, 16, 17.1, 16.9, 16.7, 16.1, 17.5, 14.5, 16.5, 16.5, 16.6, 17.1, 17.3, 16.3, 16.4, 15.9, 17, 16.2, 17.2, 18.2, 16.8, 15.1, 17, 17.6, 16.9, 17, 16.5, 16.3, 16.6, 17, 16, 17.1, 17.2, 16, 17.4, 16.4, 15.8, 16.6, 16.8, 17.1, 15.9, 17.2, 15.8, 17.4, 15.9, 17.2, 16.5, 16.7, 15.2, 17.9, 16, 17, 16.5, 17.3, 15.6, 17, 16, 18.4, 16.7, 15, 16.7, 17.5, 16.9, 17.5, 16, 15.9, 17.1, 17.3, 17.2, 15.4, 17.1, 16.4, 16, 16.8, 17.5, 15.7, 17.3, 17.2, 15.9, 16.9, 16.8, 16.9, 16.2, 16.7, 17.4, 15.6, 16.7, 14.4, 18.4, 16.3, 16.9, 15.6, 18, 16.4, 18.8, 14.9, 16.3, 18, 15.4, 17, 16.8, 16.2, 16.6, 16.1, 16.1, 18, 17.4, 16.8, 15.8, 17.5, 14.9, 17.4, 16.3, 17.6, 16.5, 15.6, 18.1, 15.9, 16.3, 16.7, 17.2, 16.9, 15.7, 17.7, 16.3, 16.6, 16.3, 14.6, 19, 15.5, 18, 16, 16.1, 15.6, 18.1, 17.4, 15.6, 17.4, 16.4, 16.7, 20.6, 10.7, 17.4, 16.7, 15.8, 16.2, 17.2, 16.7, 17.6, 16, 15.8, 18.1, 16.7, 16.3, 15.1, 16.8, 18.2, 15.9, 16.4, 18.2, 16.7, 16.8, 16.5, 15.8, 15.4, 17.3, 15.7, 20, 13.8, 19.6, 14.8, 15.6, 18.9, 15.6]",60.0,58.0,61.0,5009.0,[],,,,,,,,,,,,,,,,,,,,,,,,,HRV,HRV_0176,2022-11-30 18:42:25
,wl-html-keyboard-response,2,16243,0.0-2.0-0.0,0.0,3.0,,,,,,,,5824.699999928474,0.0,0,,,,,,,,,,,,,,,,,,,,,,HRV,HRV_0176,2022-11-30 18:42:25
,wl-rdm,3,24868,0.0-3.0-0.0,0.0,4.0,,,,,,,[],,,,0.0,0.0,87.9,0.0,u,0.0,True,3017.2000000476837,182.0,61.0,40.0,False,,3000.0,[],"[206, 454.5]",ColorTask_Demo,,,,,HRV,HRV_0176,2022-11-30 18:42:25
,wl-rdm,4,29926,0.0-3.0-1.0,0.0,5.0,,,,,,,[],,,,0.0,0.0,87.9,1.0,i,1.0,True,966.4000000953674,58.0,61.0,40.0,False,,2000.0,[],"[206, 454.5]",ColorTask_Demo,,,,,HRV,HRV_0176,2022-11-30 18:42:25
,wl-html-keyboard-response,5,34380,0.0-3.0-2.0,0.0,6.0,,,,,,,,2442.3000000715256,0.0,1,,,,,,,,,,,,,,,,,,,,,,HRV,HRV_0176,2022-11-30 18:42:25
,wl-html-keyboard-response,6,51012,0.0-4.0-0.0,0.0,7.0,,,,,,,,14618.399999976158,0.0,0,,,,,,,,,,,,,,,,,,,,,,HRV,HRV_0176,2022-11-30 18:42:25
,wl-html-keyboard-response,7,59241,0.0-5.0-0.0,0.0,8.0,,,,,,,,6218.100000023842,0.0,0,,,,,,,,,,,,,,,,,,,,,,HRV,HRV_0176,2022-11-30 18:42:25
,wl-rdm,8,61588,0.0-6.0-0.0,0.0,9.0,,,,,,,[],,,,,,62.5,1.0,i,1.0,True,867.7999999523163,53.0,61.0,40.0,False,,382.89005101508485,[],"[206, 454.5]",ColorTask,1.0,1.0,,,HRV,HRV_0176,2022-11-30 18:42:25
,wl-rdm,9,63702,0.0-6.1-0.1,0.0,10.0,,,,,,,[],,,,,,56.4,0.0,u,0.0,True,822.8999999761581,50.0,61.0,40.0,False,,208.14641205861415,[],"[206, 454.5]",ColorTask,2.0,2.0,,,HRV,HRV_0176,2022-11-30 18:42:25
,wl-rdm,10,65998,0.0-6.2-0.2,0.0,11.0,,,,,,,[],,,,,,53.2,0.0,u,0.0,True,937.8999998569489,57.0,61.0,40.0,False,,271.82988502464656,[],"[206, 454.5]",ColorTask,3.0,3.0,,,HRV,HRV_0176,2022-11-30 18:42:25
,wl-rdm,11,68310,0.0-6.3-0.3,0.0,12.0,,,,,,,[],,,,,,56.4,0.0,i,1.0,False,1006.1999999284744,61.0,61.0,40.0,False,,221.22991231029192,[],"[206, 454.5]",ColorTask,2.0,4.0,,,HRV,HRV_0176,2022-11-30 18:42:25
,wl-rdm,12,70657,0.0-6.4-0.4,0.0,13.0,,,,,,,[],,,,,,50.0,1.0,i,1.0,True,943.7999999523163,57.0,61.0,40.0,False,,317.5612724567841,[],"[206, 454.5]",ColorTask,3.0,5.0,,,HRV,HRV_0176,2022-11-30 18:42:25
,wl-rdm,13,72871,0.0-6.5-0.5,0.0,14.0,,,,,,,[],,,,,,56.4,0.0,u,0.0,True,854.0000001192093,52.0,61.0,40.0,False,,266.6668535002244,[],"[206, 454.5]",ColorTask,4.0,6.0,,,HRV,HRV_0176,2022-11-30 18:42:25
,wl-rdm,14,75033,0.0-6.6-0.6,0.0,15.0,,,,,,,[],,,,,,73.6,0.0,i,1.0,False,835.6000000238419,51.0,61.0,40.0,False,,241.85971508849246,[],"[206, 454.5]",ColorTask,3.0,7.0,,,HRV,HRV_0176,2022-11-30 18:42:25
,wl-rdm,15,77146,0.0-6.7-0.7,0.0,16.0,,,,,,,[],,,,,,87.9,1.0,i,1.0,True,736.2000000476837,45.0,61.0,40.0,False,,293.7479980382389,[],"[206, 454.5]",ColorTask,4.0,8.0,,,HRV,HRV_0176,2022-11-30 18:42:25
,wl-rdm,16,79243,0.0-6.8-0.8,0.0,17.0,,,,,,,[],,,,,,87.9,0.0,u,0.0,True,777.9000000953674,47.0,61.0,40.0,False,,238.62772935616127,[],"[206, 454.5]",ColorTask,5.0,9.0,,,HRV,HRV_0176,2022-11-30 18:42:25
,wl-rdm,17,81572,0.0-6.9-0.9,0.0,18.0,,,,,,,[],,,,,,62.5,1.0,i,1.0,True,907.2000000476837,55.0,61.0,40.0,False,,339.0148948832607,[],"[206, 454.5]",ColorTask,6.0,10.0,,,HRV,HRV_0176,2022-11-30 18:42:25
,wl-rdm,18,83837,0.0-6.10-0.10,0.0,19.0,,,,,,,[],,,,,,56.4,1.0,i,1.0,True,878.6000000238419,53.0,61.0,40.0,False,,329.3405613910311,[],"[206, 454.5]",ColorTask,7.0,11.0,,,HRV,HRV_0176,2022-11-30 18:42:25
,wl-rdm,19,86331,0.0-6.11-0.11,0.0,20.0,,,,,,,[],,,,,,53.2,1.0,i,1.0,True,1174.5,71.0,61.0,40.0,False,,237.64133204793833,[],"[206, 454.5]",ColorTask,8.0,12.0,,,HRV,HRV_0176,2022-11-30 18:42:25
,wl-rdm,20,89177,0.0-6.12-0.12,0.0,21.0,,,,,,,[],,,,,,73.6,1.0,i,1.0,True,1457.3000000715256,88.0,61.0,40.0,False,,312.10404312012184,[],"[206, 454.5]",ColorTask,9.0,13.0,,,HRV,HRV_0176,2022-11-30 18:42:25
,wl-rdm,21,91206,0.0-6.13-0.13,0.0,22.0,,,,,,,[],,,,,,87.9,0.0,u,0.0,True,680.9999998807907,41.0,61.0,40.0,False,,278.7707121999862,[],"[206, 454.5]",ColorTask,10.0,14.0,,,HRV,HRV_0176,2022-11-30 18:42:25
,wl-rdm,22,93270,0.0-6.14-0.14,0.0,23.0,,,,,,,[],,,,,,87.9,1.0,i,1.0,True,644.2000000476837,39.0,61.0,40.0,False,,335.49369432991864,[],"[206, 454.5]",ColorTask,11.0,15.0,,,HRV,HRV_0176,2022-11-30 18:42:25
,wl-rdm,23,95832,0.0-6.15-0.15,0.0,24.0,,,,,,,[],,,,,,73.6,0.0,i,1.0,False,1111.7999999523163,67.0,61.0,40.0,False,,378.15776463430745,[],"[206, 454.5]",ColorTask,10.0,16.0,,,HRV,HRV_0176,2022-11-30 18:42:25
,wl-rdm,24,98442,0.0-6.16-0.16,0.0,25.0,,,,,,,[],,,,,,53.2,1.0,u,0.0,False,1235.9000000953674,75.0,61.0,40.0,False,,290.0596892324148,[],"[206, 454.5]",ColorTask,9.0,17.0,,,HRV,HRV_0176,2022-11-30 18:42:25
,wl-rdm,25,101088,0.0-6.17-0.17,0.0,26.0,,,,,,,[],,,,,,50.0,1.0,i,1.0,True,1352.9999998807907,82.0,61.0,40.0,False,,213.5195388429005,[],"[206, 454.5]",ColorTask,10.0,18.0,,,HRV,HRV_0176,2022-11-30 18:42:25
,wl-rdm,26,103485,0.0-6.18-0.18,0.0,27.0,,,,,,,[],,,,,,50.0,1.0,u,0.0,False,986.7000000476837,60.0,61.0,40.0,False,,321.672435525133,[],"[206, 454.5]",ColorTask,9.0,19.0,,,HRV,HRV_0176,2022-11-30 18:42:25
,wl-rdm,27,106147,0.0-6.19-0.19,0.0,28.0,,,,,,,[],,,,,,53.2,1.0,i,1.0,True,1189.1000000238419,72.0,61.0,40.0,False,,398.54996941804376,[],"[206, 454.5]",ColorTask,10.0,20.0,,,HRV,HRV_0176,2022-11-30 18:42:25
,wl-rdm,28,108476,0.0-6.20-0.20,0.0,29.0,,,,,,,[],,,,,,73.6,0.0,u,0.0,True,1021.1999999284744,62.0,61.0,40.0,False,,219.8451217832361,[],"[206, 454.5]",ColorTask,11.0,21.0,,,HRV,HRV_0176,2022-11-30 18:42:25
,wl-rdm,29,112018,0.0-6.21-0.21,0.0,30.0,,,,,,,[],,,,,,62.5,0.0,u,0.0,True,2185.6999999284744,132.0,61.0,40.0,False,,270.09498927599697,[],"[206, 454.5]",ColorTask,12.0,22.0,,,HRV,HRV_0176,2022-11-30 18:42:25
,wl-rdm,30,114830,0.0-6.22-0.22,0.0,31.0,,,,,,,[],,,,,,62.5,0.0,u,0.0,True,1371.2000000476837,83.0,61.0,40.0,False,,361.8063863263832,[],"[206, 454.5]",ColorTask,13.0,23.0,,,HRV,HRV_0176,2022-11-30 18:42:25
,wl-rdm,31,117025,0.0-6.23-0.23,0.0,32.0,,,,,,,[],,,,,,62.5,1.0,i,1.0,True,853.8999999761581,52.0,61.0,40.0,False,,265.18243374713876,[],"[206, 454.5]",ColorTask,14.0,24.0,,,HRV,HRV_0176,2022-11-30 18:42:25
,wl-rdm,32,119355,0.0-6.24-0.24,0.0,33.0,,,,,,,[],,,,,,50.0,0.0,i,1.0,False,964.5,58.0,61.0,40.0,False,,283.09639989574634,[],"[206, 454.5]",ColorTask,13.0,25.0,,,HRV,HRV_0176,2022-11-30 18:42:25
,wl-rdm,33,122150,0.0-6.25-0.25,0.0,34.0,,,,,,,[],,,,,,73.6,1.0,i,1.0,True,1361.7999999523163,82.0,61.0,40.0,False,,358.19489108554535,[],"[206, 454.5]",ColorTask,14.0,26.0,,,HRV,HRV_0176,2022-11-30 18:42:25
,wl-rdm,34,124779,0.0-6.26-0.26,0.0,35.0,,,,,,,[],,,,,,53.2,1.0,i,1.0,True,1328.2999999523163,80.0,61.0,40.0,False,,229.68482285169802,[],"[206, 454.5]",ColorTask,15.0,27.0,,,HRV,HRV_0176,2022-11-30 18:42:25
,wl-rdm,35,127140,0.0-6.27-0.27,0.0,36.0,,,,,,,[],,,,,,73.6,0.0,u,0.0,True,1044.6000000238419,63.0,61.0,40.0,False,,235.9408327211753,[],"[206, 454.5]",ColorTask,16.0,28.0,,,HRV,HRV_0176,2022-11-30 18:42:25
,wl-rdm,36,129335,0.0-6.28-0.28,0.0,37.0,,,,,,,[],,,,,,50.0,0.0,i,1.0,False,887.7000000476837,54.0,61.0,40.0,False,,242.4784849682739,[],"[206, 454.5]",ColorTask,15.0,29.0,,,HRV,HRV_0176,2022-11-30 18:42:25
,wl-rdm,37,132180,0.0-6.29-0.29,0.0,38.0,,,,,,,[],,,,,,50.0,0.0,u,0.0,True,1461.8999999761581,88.0,61.0,40.0,False,,307.4258712581658,[],"[206, 454.5]",ColorTask,16.0,30.0,,,HRV,HRV_0176,2022-11-30 18:42:25
,wl-rdm,38,134642,0.0-6.30-0.30,0.0,39.0,,,,,,,[],,,,,,50.0,0.0,i,1.0,False,1004.2999999523163,61.0,61.0,40.0,False,,379.57433767357304,[],"[206, 454.5]",ColorTask,15.0,31.0,,,HRV,HRV_0176,2022-11-30 18:42:25
,wl-rdm,39,137336,0.0-6.31-0.31,0.0,40.0,,,,,,,[],,,,,,56.4,1.0,u,0.0,False,1309.6000000238419,79.0,61.0,40.0,False,,299.9015574324476,[],"[206, 454.5]",ColorTask,14.0,32.0,,,HRV,HRV_0176,2022-11-30 18:42:25
,wl-rdm,40,139947,0.0-6.32-0.32,0.0,41.0,,,,,,,[],,,,,,50.0,0.0,u,0.0,True,1301.7999999523163,79.0,61.0,40.0,False,,223.06389874293438,[],"[206, 454.5]",ColorTask,15.0,33.0,,,HRV,HRV_0176,2022-11-30 18:42:25
,wl-rdm,41,142609,0.0-6.33-0.33,0.0,42.0,,,,,,,[],,,,,,53.2,0.0,u,0.0,True,1254.1000001430511,76.0,61.0,40.0,False,,331.86706985758497,[],"[206, 454.5]",ColorTask,16.0,34.0,,,HRV,HRV_0176,2022-11-30 18:42:25
,wl-rdm,42,145139,0.0-6.34-0.34,0.0,43.0,,,,,,,[],,,,,,62.5,0.0,i,1.0,False,1139.8000000715256,69.0,61.0,40.0,False,,306.7843734316508,[],"[206, 454.5]",ColorTask,15.0,35.0,,,HRV,HRV_0176,2022-11-30 18:42:25
,wl-rdm,43,147733,0.0-6.35-0.35,0.0,44.0,,,,,,,[],,,,,,73.6,0.0,u,0.0,True,1225.1000000238419,74.0,61.0,40.0,False,,283.7010827796862,[],"[206, 454.5]",ColorTask,16.0,36.0,,,HRV,HRV_0176,2022-11-30 18:42:25
,wl-rdm,44,150462,0.0-6.36-0.36,0.0,45.0,,,,,,,[],,,,,,62.5,0.0,u,0.0,True,1394.1000000238419,84.0,61.0,40.0,False,,252.4843095148691,[],"[206, 454.5]",ColorTask,17.0,37.0,,,HRV,HRV_0176,2022-11-30 18:42:25
,wl-rdm,45,152675,0.0-6.37-0.37,0.0,46.0,,,,,,,[],,,,,,73.6,1.0,i,1.0,True,854.8000000715256,52.0,61.0,40.0,False,,277.1326522880862,[],"[206, 454.5]",ColorTask,18.0,38.0,,,HRV,HRV_0176,2022-11-30 18:42:25
,wl-rdm,46,155253,0.0-6.38-0.38,0.0,47.0,,,,,,,[],,,,,,73.6,1.0,i,1.0,True,1171.8000000715256,71.0,61.0,40.0,False,,319.655964546796,[],"[206, 454.5]",ColorTask,19.0,39.0,,,HRV,HRV_0176,2022-11-30 18:42:25
,wl-rdm,47,157649,0.0-6.39-0.39,0.0,48.0,,,,,,,[],,,,,,53.2,0.0,u,0.0,True,1047.6999999284744,63.0,61.0,40.0,False,,282.37276161538625,[],"[206, 454.5]",ColorTask,20.0,40.0,,,HRV,HRV_0176,2022-11-30 18:42:25
,wl-rdm,48,160261,0.0-6.40-0.40,0.0,49.0,,,,,,,[],,,,,,62.5,1.0,i,1.0,True,1201.8999999761581,73.0,61.0,40.0,False,,319.3639506351651,[],"[206, 454.5]",ColorTask,21.0,41.0,,,HRV,HRV_0176,2022-11-30 18:42:25
,wl-rdm,49,162441,0.0-6.41-0.41,0.0,50.0,,,,,,,[],,,,,,73.6,0.0,u,0.0,True,823.2000000476837,50.0,61.0,40.0,False,,271.29731931902626,[],"[206, 454.5]",ColorTask,22.0,42.0,,,HRV,HRV_0176,2022-11-30 18:42:25
,wl-rdm,50,165070,0.0-6.42-0.42,0.0,51.0,,,,,,,[],,,,,,53.2,1.0,i,1.0,True,1339.9999998807907,81.0,61.0,40.0,False,,206.17999555011883,[],"[206, 454.5]",ColorTask,23.0,43.0,,,HRV,HRV_0176,2022-11-30 18:42:25
,wl-rdm,51,167550,0.0-6.43-0.43,0.0,52.0,,,,,,,[],,,,,,87.9,1.0,i,1.0,True,1039.3999999761581,63.0,61.0,40.0,False,,363.86621594528793,[],"[206, 454.5]",ColorTask,24.0,44.0,,,HRV,HRV_0176,2022-11-30 18:42:25
,wl-rdm,52,169629,0.0-6.44-0.44,0.0,53.0,,,,,,,[],,,,,,73.6,0.0,u,0.0,True,628.7000000476837,38.0,61.0,40.0,False,,382.0749270626754,[],"[206, 454.5]",ColorTask,25.0,45.0,,,HRV,HRV_0176,2022-11-30 18:42:25
,wl-rdm,53,172376,0.0-6.45-0.45,0.0,54.0,,,,,,,[],,,,,,50.0,1.0,i,1.0,True,1463.3000000715256,88.0,61.0,40.0,False,,200.6868156910352,[],"[206, 454.5]",ColorTask,26.0,46.0,,,HRV,HRV_0176,2022-11-30 18:42:25
,wl-rdm,54,175271,0.0-6.46-0.46,0.0,55.0,,,,,,,[],,,,,,62.5,0.0,u,0.0,True,1543.3999999761581,93.0,61.0,40.0,False,,282.28508858767674,[],"[206, 454.5]",ColorTask,27.0,47.0,,,HRV,HRV_0176,2022-11-30 18:42:25
,wl-rdm,55,177501,0.0-6.47-0.47,0.0,56.0,,,,,,,[],,,,,,73.6,0.0,u,0.0,True,850.8999999761581,51.0,61.0,40.0,False,,313.01874891691295,[],"[206, 454.5]",ColorTask,28.0,48.0,,,HRV,HRV_0176,2022-11-30 18:42:25
,wl-rdm,56,180546,0.0-6.48-0.48,0.0,57.0,,,,,,,[],,,,,,50.0,1.0,i,1.0,True,1615.2999999523163,98.0,61.0,40.0,False,,337.55317220642195,[],"[206, 454.5]",ColorTask,29.0,49.0,,,HRV,HRV_0176,2022-11-30 18:42:25
,wl-rdm,57,183109,0.0-6.49-0.49,0.0,58.0,,,,,,,[],,,,,,62.5,0.0,u,0.0,True,1202.6000000238419,73.0,61.0,40.0,False,,274.44038880473204,[],"[206, 454.5]",ColorTask,30.0,50.0,,,HRV,HRV_0176,2022-11-30 18:42:25
,wl-rdm,58,185322,0.0-6.50-0.50,0.0,59.0,,,,,,,[],,,,,,87.9,0.0,u,0.0,True,888.1000000238419,54.0,61.0,40.0,False,,247.26483875343288,[],"[206, 454.5]",ColorTask,31.0,51.0,,,HRV,HRV_0176,2022-11-30 18:42:25
,wl-rdm,59,189014,0.0-6.51-0.51,0.0,60.0,,,,,,,[],,,,,,50.0,1.0,u,0.0,False,2393.4000000953674,144.0,61.0,40.0,False,,222.037867327953,[],"[206, 454.5]",ColorTask,30.0,52.0,,,HRV,HRV_0176,2022-11-30 18:42:25
,wl-rdm,60,192009,0.0-6.52-0.52,0.0,61.0,,,,,,,[],,,,,,50.0,1.0,i,1.0,True,1684.0000001192093,102.0,61.0,40.0,False,,225.79318253807537,[],"[206, 454.5]",ColorTask,31.0,53.0,,,HRV,HRV_0176,2022-11-30 18:42:25
,wl-rdm,61,194888,0.0-6.53-0.53,0.0,62.0,,,,,,,[],,,,,,73.6,1.0,i,1.0,True,1571.2000000476837,95.0,61.0,40.0,False,,222.06833498634865,[],"[206, 454.5]",ColorTask,32.0,54.0,,,HRV,HRV_0176,2022-11-30 18:42:25
,wl-rdm,62,197516,0.0-6.54-0.54,0.0,63.0,,,,,,,[],,,,,,73.6,1.0,i,1.0,True,1266.8000000715256,76.0,61.0,40.0,False,,287.2393525557486,[],"[206, 454.5]",ColorTask,33.0,55.0,,,HRV,HRV_0176,2022-11-30 18:42:25
,wl-rdm,63,201210,0.0-6.55-0.55,0.0,64.0,,,,,,,[],,,,,,50.0,0.0,i,1.0,False,2285.4999998807907,138.0,61.0,40.0,False,,324.36317161016393,[],"[206, 454.5]",ColorTask,32.0,56.0,,,HRV,HRV_0176,2022-11-30 18:42:25
,wl-rdm,64,205568,0.0-6.56-0.56,0.0,64.0,,,,,,,[],,,,,,62.5,1.0,i,,,3135.7999999523163,182.0,61.0,40.0,True,RT_timeout ,254.92548672532027,[],"[206, 454.5]",ColorTask,31.0,57.0,,,HRV,HRV_0176,2022-11-30 18:42:25
,wl-rdm,65,208346,0.0-6.57-0.57,0.0,65.0,,,,,,,[],,,,,,53.2,0.0,u,0.0,True,1360.1000000238419,82.0,61.0,40.0,False,,336.573454898041,[],"[206, 454.5]",ColorTask,32.0,58.0,,,HRV,HRV_0176,2022-11-30 18:42:25
,wl-rdm,66,211109,0.0-6.58-0.58,0.0,66.0,,,,,,,[],,,,,,53.2,1.0,i,1.0,True,1271.2999999523163,77.0,61.0,40.0,False,,399.67286749040977,[],"[206, 454.5]",ColorTask,33.0,59.0,,,HRV,HRV_0176,2022-11-30 18:42:25
,wl-rdm,67,213256,0.0-6.59-0.59,0.0,67.0,,,,,,,[],,,,,,87.9,0.0,u,0.0,True,852.7000000476837,52.0,61.0,40.0,False,,230.17032564630244,[],"[206, 454.5]",ColorTask,34.0,60.0,,,HRV,HRV_0176,2022-11-30 18:42:25
,wl-rdm,68,215583,0.0-6.60-0.60,0.0,68.0,,,,,,,[],,,,,,62.5,1.0,i,1.0,True,923.3999999761581,56.0,61.0,40.0,False,,327.7915326864322,[],"[206, 454.5]",ColorTask,35.0,61.0,,,HRV,HRV_0176,2022-11-30 18:42:25
,wl-rdm,69,218146,0.0-6.61-0.61,0.0,69.0,,,,,,,[],,,,,,62.5,1.0,i,1.0,True,1091.7000000476837,66.0,61.0,40.0,False,,383.53279273253827,[],"[206, 454.5]",ColorTask,36.0,62.0,,,HRV,HRV_0176,2022-11-30 18:42:25
,wl-rdm,70,220858,0.0-6.62-0.62,0.0,70.0,,,,,,,[],,,,,,53.2,1.0,u,0.0,False,1291.4000000953674,78.0,61.0,40.0,False,,334.79845041357976,[],"[206, 454.5]",ColorTask,35.0,63.0,,,HRV,HRV_0176,2022-11-30 18:42:25
,wl-rdm,71,223735,0.0-6.63-0.63,0.0,71.0,,,,,,,[],,,,,,62.5,0.0,u,0.0,True,1510.0,91.0,61.0,40.0,False,,282.9104883625826,[],"[206, 454.5]",ColorTask,36.0,64.0,,,HRV,HRV_0176,2022-11-30 18:42:25
,wl-rdm,72,226264,0.0-6.64-0.64,0.0,72.0,,,,,,,[],,,,,,56.4,1.0,i,1.0,True,1242.4999998807907,75.0,61.0,40.0,False,,222.44200916145843,[],"[206, 454.5]",ColorTask,37.0,65.0,,,HRV,HRV_0176,2022-11-30 18:42:25
,wl-rdm,73,228976,0.0-6.65-0.65,0.0,73.0,,,,,,,[],,,,,,50.0,0.0,u,0.0,True,1370.3999998569489,83.0,61.0,40.0,False,,255.9822749693315,[],"[206, 454.5]",ColorTask,38.0,66.0,,,HRV,HRV_0176,2022-11-30 18:42:25
,wl-rdm,74,231654,0.0-6.66-0.66,0.0,74.0,,,,,,,[],,,,,,56.4,1.0,i,1.0,True,1378.4999998807907,83.0,61.0,40.0,False,,229.52517512606923,[],"[206, 454.5]",ColorTask,39.0,67.0,,,HRV,HRV_0176,2022-11-30 18:42:25
,wl-rdm,75,234716,0.0-6.67-0.67,0.0,75.0,,,,,,,[],,,,,,53.2,1.0,i,1.0,True,1595.1999999284744,96.0,61.0,40.0,False,,395.02444369552995,[],"[206, 454.5]",ColorTask,40.0,68.0,,,HRV,HRV_0176,2022-11-30 18:42:25
,wl-rdm,76,238077,0.0-6.68-0.68,0.0,76.0,,,,,,,[],,,,,,56.4,0.0,u,0.0,True,1943.3999999761581,117.0,61.0,40.0,False,,344.01183516131584,[],"[206, 454.5]",ColorTask,41.0,69.0,,,HRV,HRV_0176,2022-11-30 18:42:25
,wl-rdm,77,240656,0.0-6.69-0.69,0.0,77.0,,,,,,,[],,,,,,50.0,1.0,u,0.0,False,1284.4000000953674,78.0,61.0,40.0,False,,216.10726326490612,[],"[206, 454.5]",ColorTask,40.0,70.0,,,HRV,HRV_0176,2022-11-30 18:42:25
,wl-rdm,78,243251,0.0-6.70-0.70,0.0,78.0,,,,,,,[],,,,,,53.2,0.0,i,1.0,False,1313.1000000238419,79.0,61.0,40.0,False,,205.16737798573791,[],"[206, 454.5]",ColorTask,39.0,71.0,,,HRV,HRV_0176,2022-11-30 18:42:25
,wl-rdm,79,245580,0.0-6.71-0.71,0.0,79.0,,,,,,,[],,,,,,73.6,1.0,i,1.0,True,1031.3999999761581,62.0,61.0,40.0,False,,221.27174798269596,[],"[206, 454.5]",ColorTask,40.0,72.0,,,HRV,HRV_0176,2022-11-30 18:42:25
,wl-rdm,80,248443,0.0-6.72-0.72,0.0,80.0,,,,,,,[],,,,,,56.4,0.0,u,0.0,True,1523.5000001192093,92.0,61.0,40.0,False,,265.091845656817,[],"[206, 454.5]",ColorTask,41.0,73.0,,,HRV,HRV_0176,2022-11-30 18:42:25
,wl-rdm,81,251986,0.0-6.73-0.73,0.0,81.0,,,,,,,[],,,,,,87.9,0.0,u,0.0,True,2154.899999976158,130.0,61.0,40.0,False,,309.87893656950973,[],"[206, 454.5]",ColorTask,42.0,74.0,,,HRV,HRV_0176,2022-11-30 18:42:25
,wl-rdm,82,254150,0.0-6.74-0.74,0.0,82.0,,,,,,,[],,,,,,87.9,1.0,i,1.0,True,824.8000000715256,50.0,61.0,40.0,False,,262.9448001090063,[],"[206, 454.5]",ColorTask,43.0,75.0,,,HRV,HRV_0176,2022-11-30 18:42:25
,wl-rdm,83,256728,0.0-6.75-0.75,0.0,83.0,,,,,,,[],,,,,,73.6,1.0,i,1.0,True,1297.6000000238419,78.0,61.0,40.0,False,,206.1197609979558,[],"[206, 454.5]",ColorTask,44.0,76.0,,,HRV,HRV_0176,2022-11-30 18:42:25
,wl-rdm,84,259057,0.0-6.76-0.76,0.0,84.0,,,,,,,[],,,,,,87.9,1.0,i,1.0,True,904.1000000238419,55.0,61.0,40.0,False,,346.1362268395001,[],"[206, 454.5]",ColorTask,45.0,77.0,,,HRV,HRV_0176,2022-11-30 18:42:25
,wl-rdm,85,261720,0.0-6.77-0.77,0.0,85.0,,,,,,,[],,,,,,62.5,1.0,i,1.0,True,1256.6999999284744,76.0,61.0,40.0,False,,324.1845010400939,[],"[206, 454.5]",ColorTask,46.0,78.0,,,HRV,HRV_0176,2022-11-30 18:42:25
,wl-rdm,86,264098,0.0-6.78-0.78,0.0,86.0,,,,,,,[],,,,,,50.0,1.0,i,1.0,True,1065.7000000476837,64.0,61.0,40.0,False,,241.10997913962547,[],"[206, 454.5]",ColorTask,47.0,79.0,,,HRV,HRV_0176,2022-11-30 18:42:25
,wl-rdm,87,266743,0.0-6.79-0.79,0.0,87.0,,,,,,,[],,,,,,56.4,0.0,u,0.0,True,1302.1999999284744,79.0,61.0,40.0,False,,250.56675531700125,[],"[206, 454.5]",ColorTask,48.0,80.0,,,HRV,HRV_0176,2022-11-30 18:42:25
,wl-rdm,88,269505,0.0-6.80-0.80,0.0,88.0,,,,,,,[],,,,,,53.2,0.0,u,0.0,True,1387.6000000238419,84.0,61.0,40.0,False,,289.9457027571552,[],"[206, 454.5]",ColorTask,49.0,81.0,,,HRV,HRV_0176,2022-11-30 18:42:25
,wl-rdm,89,271784,0.0-6.81-0.81,0.0,89.0,,,,,,,[],,,,,,87.9,0.0,u,0.0,True,852.0999999046326,52.0,61.0,40.0,False,,341.260813205481,[],"[206, 454.5]",ColorTask,50.0,82.0,,,HRV,HRV_0176,2022-11-30 18:42:25
,wl-rdm,90,275811,0.0-6.82-0.82,0.0,90.0,,,,,,,[],,,,,,62.5,1.0,i,1.0,True,2732.899999976158,165.0,61.0,40.0,False,,207.7920785011844,[],"[206, 454.5]",ColorTask,51.0,83.0,,,HRV,HRV_0176,2022-11-30 18:42:25
,wl-rdm,91,278589,0.0-6.83-0.83,0.0,91.0,,,,,,,[],,,,,,73.6,1.0,i,1.0,True,1490.3999999761581,90.0,61.0,40.0,False,,210.42521549979045,[],"[206, 454.5]",ColorTask,52.0,84.0,,,HRV,HRV_0176,2022-11-30 18:42:25
,wl-rdm,92,282715,0.0-6.84-0.84,0.0,92.0,,,,,,,[],,,,,,53.2,1.0,i,1.0,True,2721.4999998807907,164.0,61.0,40.0,False,,325.2395896910326,[],"[206, 454.5]",ColorTask,53.0,85.0,,,HRV,HRV_0176,2022-11-30 18:42:25
,wl-rdm,93,287026,0.0-6.85-0.85,0.0,92.0,,,,,,,[],,,,,,56.4,1.0,,,,,182.0,61.0,40.0,True,RT_timeout ,210.8832513162671,[],"[206, 454.5]",ColorTask,52.0,86.0,,,HRV,HRV_0176,2022-11-30 18:42:25
,wl-rdm,94,290150,0.0-6.86-0.86,0.0,93.0,,,,,,,[],,,,,,56.4,0.0,u,0.0,True,1730.0,104.0,61.0,40.0,False,,329.66717247061854,[],"[206, 454.5]",ColorTask,53.0,87.0,,,HRV,HRV_0176,2022-11-30 18:42:25
,wl-rdm,95,292763,0.0-6.87-0.87,0.0,94.0,,,,,,,[],,,,,,87.9,1.0,i,1.0,True,1280.2000000476837,77.0,61.0,40.0,False,,253.28036005809332,[],"[206, 454.5]",ColorTask,54.0,88.0,,,HRV,HRV_0176,2022-11-30 18:42:25
,wl-rdm,96,295259,0.0-6.88-0.88,0.0,95.0,,,,,,,[],,,,,,62.5,0.0,u,0.0,True,1047.1000000238419,63.0,61.0,40.0,False,,368.5836690817585,[],"[206, 454.5]",ColorTask,55.0,89.0,,,HRV,HRV_0176,2022-11-30 18:42:25
,wl-rdm,97,298220,0.0-6.89-0.89,0.0,96.0,,,,,,,[],,,,,,87.9,1.0,i,1.0,True,1611.8000000715256,97.0,61.0,40.0,False,,274.63194837039543,[],"[206, 454.5]",ColorTask,56.0,90.0,,,HRV,HRV_0176,2022-11-30 18:42:25
,wl-rdm,98,300981,0.0-6.90-0.90,0.0,97.0,,,,,,,[],,,,,,50.0,0.0,u,0.0,True,1442.7999999523163,87.0,61.0,40.0,False,,238.38290794433942,[],"[206, 454.5]",ColorTask,57.0,91.0,,,HRV,HRV_0176,2022-11-30 18:42:25
,wl-rdm,99,303360,0.0-6.91-0.91,0.0,98.0,,,,,,,[],,,,,,87.9,0.0,i,1.0,False,1072.0,65.0,61.0,40.0,False,,230.08365806800043,[],"[206, 454.5]",ColorTask,56.0,92.0,,,HRV,HRV_0176,2022-11-30 18:42:25
,wl-rdm,100,306007,0.0-6.92-0.92,0.0,99.0,,,,,,,[],,,,,,87.9,1.0,i,1.0,True,1334.5999999046326,81.0,61.0,40.0,False,,218.1424149098599,[],"[206, 454.5]",ColorTask,57.0,93.0,,,HRV,HRV_0176,2022-11-30 18:42:25
,wl-rdm,101,308900,0.0-6.93-0.93,0.0,100.0,,,,,,,[],,,,,,56.4,1.0,i,1.0,True,1493.6000000238419,90.0,61.0,40.0,False,,331.64937025582265,[],"[206, 454.5]",ColorTask,58.0,94.0,,,HRV,HRV_0176,2022-11-30 18:42:25
,wl-rdm,102,311095,0.0-6.94-0.94,0.0,101.0,,,,,,,[],,,,,,87.9,0.0,u,0.0,True,872.4000000953674,53.0,61.0,40.0,False,,246.9964715804204,[],"[206, 454.5]",ColorTask,59.0,95.0,,,HRV,HRV_0176,2022-11-30 18:42:25
,wl-rdm,103,314623,0.0-6.95-0.95,0.0,102.0,,,,,,,[],,,,,,50.0,0.0,i,1.0,False,2200.3000000715256,133.0,61.0,40.0,False,,232.11088996467538,[],"[206, 454.5]",ColorTask,58.0,96.0,,,HRV,HRV_0176,2022-11-30 18:42:25
,wl-rdm,104,317334,0.0-6.96-0.96,0.0,103.0,,,,,,,[],,,,,,56.4,0.0,i,1.0,False,1302.5,79.0,61.0,40.0,False,,330.27145032022554,[],"[206, 454.5]",ColorTask,57.0,97.0,,,HRV,HRV_0176,2022-11-30 18:42:25
,wl-rdm,105,319480,0.0-6.97-0.97,0.0,104.0,,,,,,,[],,,,,,73.6,0.0,u,0.0,True,773.0999999046326,47.0,61.0,40.0,False,,293.57668145858565,[],"[206, 454.5]",ColorTask,58.0,98.0,,,HRV,HRV_0176,2022-11-30 18:42:25
,wl-rdm,106,321476,0.0-6.98-0.98,0.0,105.0,,,,,,,[],,,,,,62.5,1.0,i,1.0,True,709.8000000715256,43.0,61.0,40.0,False,,215.1924833918316,[],"[206, 454.5]",ColorTask,59.0,99.0,,,HRV,HRV_0176,2022-11-30 18:42:25
,wl-rdm,107,323689,0.0-6.99-0.99,0.0,106.0,,,,,,,[],,,,,,56.4,1.0,u,0.0,False,735.0,45.0,61.0,40.0,False,,384.87219014841423,[],"[206, 454.5]",ColorTask,58.0,100.0,,,HRV,HRV_0176,2022-11-30 18:42:25
,wl-rdm,108,325869,0.0-6.100-0.100,0.0,107.0,,,,,,,[],,,,,,56.4,1.0,i,1.0,True,783.0999999046326,47.0,61.0,40.0,False,,325.44926929470756,[],"[206, 454.5]",ColorTask,59.0,101.0,,,HRV,HRV_0176,2022-11-30 18:42:25
,wl-rdm,109,327966,0.0-6.101-0.101,0.0,108.0,,,,,,,[],,,,,,87.9,0.0,u,0.0,True,719.9000000953674,44.0,61.0,40.0,False,,294.76767314427576,[],"[206, 454.5]",ColorTask,60.0,102.0,,,HRV,HRV_0176,2022-11-30 18:42:25
,wl-rdm,110,330079,0.0-6.102-0.102,0.0,109.0,,,,,,,[],,,,,,56.4,1.0,i,1.0,True,691.8000000715256,42.0,61.0,40.0,False,,339.91768825912436,[],"[206, 454.5]",ColorTask,61.0,103.0,,,HRV,HRV_0176,2022-11-30 18:42:25
,wl-rdm,111,332309,0.0-6.103-0.103,0.0,110.0,,,,,,,[],,,,,,56.4,1.0,i,1.0,True,877.9000000953674,53.0,61.0,40.0,False,,271.1044808099622,[],"[206, 454.5]",ColorTask,62.0,104.0,,,HRV,HRV_0176,2022-11-30 18:42:25
,wl-rdm,112,335535,0.0-6.104-0.104,0.0,111.0,,,,,,,[],,,,,,53.2,0.0,u,0.0,True,1811.6000000238419,109.0,61.0,40.0,False,,347.7069633577214,[],"[206, 454.5]",ColorTask,63.0,105.0,,,HRV,HRV_0176,2022-11-30 18:42:25
,wl-rdm,113,338031,0.0-6.105-0.105,0.0,112.0,,,,,,,[],,,,,,53.2,0.0,i,1.0,False,1197.5,72.0,61.0,40.0,False,,223.92337312497284,[],"[206, 454.5]",ColorTask,62.0,106.0,,,HRV,HRV_0176,2022-11-30 18:42:25
,wl-rdm,114,340459,0.0-6.106-0.106,0.0,113.0,,,,,,,[],,,,,,53.2,0.0,i,1.0,False,1104.0999999046326,67.0,61.0,40.0,False,,243.06780623531702,[],"[206, 454.5]",ColorTask,61.0,107.0,,,HRV,HRV_0176,2022-11-30 18:42:25
,wl-rdm,115,342805,0.0-6.107-0.107,0.0,114.0,,,,,,,[],,,,,,56.4,0.0,u,0.0,True,892.1000000238419,54.0,61.0,40.0,False,,379.53606499660077,[],"[206, 454.5]",ColorTask,62.0,108.0,,,HRV,HRV_0176,2022-11-30 18:42:25
,wl-rdm,116,345233,0.0-6.108-0.108,0.0,115.0,,,,,,,[],,,,,,62.5,0.0,u,0.0,True,1033.6000000238419,63.0,61.0,40.0,False,,304.0186602527895,[],"[206, 454.5]",ColorTask,63.0,109.0,,,HRV,HRV_0176,2022-11-30 18:42:25
,wl-rdm,117,347463,0.0-6.109-0.109,0.0,116.0,,,,,,,[],,,,,,87.9,1.0,i,1.0,True,945.5000001192093,56.0,61.0,40.0,False,,218.3926278953583,[],"[206, 454.5]",ColorTask,64.0,110.0,,,HRV,HRV_0176,2022-11-30 18:42:25
,wl-html-keyboard-response,118,355404,0.0-7.0-0.0,1.0,117.0,,,,,,,,5922.0,1.0,0,,,,,,,,,,,,,,,,,,,,,,HRV,HRV_0176,2022-11-30 18:42:25
,wl-rdm,119,357643,0.0-8.0-0.0,1.0,118.0,,,,,,,[],,,,,,73.6,0.0,i,1.0,False,894.7000000476837,54.0,61.0,40.0,False,,258.4191278254435,[],"[206, 454.5]",ColorTask,63.0,1.0,,,HRV,HRV_0176,2022-11-30 18:42:25
,wl-rdm,120,359557,0.0-8.1-0.1,1.0,119.0,,,,,,,[],,,,,,87.9,0.0,u,0.0,True,625.3000000715256,38.0,61.0,40.0,False,,207.2806273213142,[],"[206, 454.5]",ColorTask,64.0,2.0,,,HRV,HRV_0176,2022-11-30 18:42:25
,wl-rdm,121,361653,0.0-8.2-0.2,1.0,120.0,,,,,,,[],,,,,,50.0,0.0,i,1.0,False,773.2999999523163,47.0,61.0,40.0,False,,246.18239313682494,[],"[206, 454.5]",ColorTask,63.0,3.0,,,HRV,HRV_0176,2022-11-30 18:42:25
,wl-rdm,122,363947,0.0-8.3-0.3,1.0,121.0,,,,,,,[],,,,,,56.4,1.0,i,1.0,True,1006.9000000953674,61.0,61.0,40.0,False,,213.84491288226965,[],"[206, 454.5]",ColorTask,64.0,4.0,,,HRV,HRV_0176,2022-11-30 18:42:25
,wl-rdm,123,366244,0.0-8.4-0.4,1.0,122.0,,,,,,,[],,,,,,50.0,0.0,i,1.0,False,964.3999999761581,58.0,61.0,40.0,False,,256.5771053879728,[],"[206, 454.5]",ColorTask,63.0,5.0,,,HRV,HRV_0176,2022-11-30 18:42:25
,wl-rdm,124,367326,0.0-8.5-0.5,1.0,122.0,,,,,,,[],,,,,,62.5,1.0,i,,,453.89999997615814,0.0,61.0,40.0,True,too_early ,229.64093207856172,[],"[206, 454.5]",ColorTask,62.0,6.0,,,HRV,HRV_0176,2022-11-30 18:42:25
,wl-rdm,125,369553,0.0-8.6-0.6,1.0,123.0,,,,,,,[],,,,,,87.9,0.0,u,0.0,True,831.3000000715256,50.0,61.0,40.0,False,,324.5766748963939,[],"[206, 454.5]",ColorTask,63.0,7.0,,,HRV,HRV_0176,2022-11-30 18:42:25
,wl-rdm,126,371682,0.0-8.7-0.7,1.0,124.0,,,,,,,[],,,,,,62.5,1.0,i,1.0,True,761.0000001192093,46.0,61.0,40.0,False,,292.3010374054858,[],"[206, 454.5]",ColorTask,64.0,8.0,,,HRV,HRV_0176,2022-11-30 18:42:25
,wl-rdm,127,374060,0.0-8.8-0.8,1.0,125.0,,,,,,,[],,,,,,73.6,1.0,u,0.0,False,924.1000000238419,56.0,61.0,40.0,False,,369.1921996317984,[],"[206, 454.5]",ColorTask,63.0,9.0,,,HRV,HRV_0176,2022-11-30 18:42:25
,wl-rdm,128,376305,0.0-8.9-0.9,1.0,126.0,,,,,,,[],,,,,,73.6,0.0,u,0.0,True,831.1000000238419,50.0,61.0,40.0,False,,340.3649737509742,[],"[206, 454.5]",ColorTask,64.0,10.0,,,HRV,HRV_0176,2022-11-30 18:42:25
,wl-rdm,129,378949,0.0-8.10-0.10,1.0,127.0,,,,,,,[],,,,,,50.0,1.0,i,1.0,True,1201.8000000715256,73.0,61.0,40.0,False,,357.5755129839911,[],"[206, 454.5]",ColorTask,65.0,11.0,,,HRV,HRV_0176,2022-11-30 18:42:25
,wl-rdm,130,381594,0.0-8.11-0.11,1.0,128.0,,,,,,,[],,,,,,53.2,0.0,u,0.0,True,1345.0,81.0,61.0,40.0,False,,227.70363204853322,[],"[206, 454.5]",ColorTask,66.0,12.0,,,HRV,HRV_0176,2022-11-30 18:42:25
,wl-rdm,131,384088,0.0-8.12-0.12,1.0,129.0,,,,,,,[],,,,,,62.5,1.0,i,1.0,True,1089.2000000476837,66.0,61.0,40.0,False,,325.45040407521634,[],"[206, 454.5]",ColorTask,67.0,13.0,,,HRV,HRV_0176,2022-11-30 18:42:25
,wl-rdm,132,386501,0.0-8.13-0.13,1.0,130.0,,,,,,,[],,,,,,87.9,1.0,i,1.0,True,1057.1000000238419,64.0,61.0,40.0,False,,287.9807606129775,[],"[206, 454.5]",ColorTask,68.0,14.0,,,HRV,HRV_0176,2022-11-30 18:42:25
,wl-rdm,133,389163,0.0-8.14-0.14,1.0,131.0,,,,,,,[],,,,,,62.5,0.0,u,0.0,True,1353.8000000715256,82.0,61.0,40.0,False,,232.90841498825438,[],"[206, 454.5]",ColorTask,69.0,15.0,,,HRV,HRV_0176,2022-11-30 18:42:25
,wl-rdm,134,392025,0.0-8.15-0.15,1.0,132.0,,,,,,,[],,,,,,62.5,0.0,u,0.0,True,1575.0,95.0,61.0,40.0,False,,208.81031413945212,[],"[206, 454.5]",ColorTask,70.0,16.0,,,HRV,HRV_0176,2022-11-30 18:42:25
,wl-rdm,135,395636,0.0-8.16-0.16,1.0,133.0,,,,,,,[],,,,,,56.4,1.0,i,1.0,True,2191.3000000715256,132.0,61.0,40.0,False,,343.01393982895195,[],"[206, 454.5]",ColorTask,71.0,17.0,,,HRV,HRV_0176,2022-11-30 18:42:25
,wl-rdm,136,399281,0.0-8.17-0.17,1.0,134.0,,,,,,,[],,,,,,53.2,0.0,u,0.0,True,2273.8000000715256,137.0,61.0,40.0,False,,286.7836535437092,[],"[206, 454.5]",ColorTask,72.0,18.0,,,HRV,HRV_0176,2022-11-30 18:42:25
,wl-rdm,137,402541,0.0-8.18-0.18,1.0,135.0,,,,,,,[],,,,,,50.0,1.0,u,0.0,False,1923.8000000715256,116.0,61.0,40.0,False,,260.94409119500943,[],"[206, 454.5]",ColorTask,71.0,19.0,,,HRV,HRV_0176,2022-11-30 18:42:25
,wl-rdm,138,405203,0.0-8.19-0.19,1.0,136.0,,,,,,,[],,,,,,56.4,0.0,u,0.0,True,1363.2000000476837,82.0,61.0,40.0,False,,221.9865489298287,[],"[206, 454.5]",ColorTask,72.0,20.0,,,HRV,HRV_0176,2022-11-30 18:42:25
,wl-rdm,139,408897,0.0-8.20-0.20,1.0,137.0,,,,,,,[],,,,,,50.0,0.0,u,0.0,True,2280.6999999284744,137.0,61.0,40.0,False,,340.27026662500475,[],"[206, 454.5]",ColorTask,73.0,21.0,,,HRV,HRV_0176,2022-11-30 18:42:25
,wl-rdm,140,411011,0.0-8.21-0.21,1.0,138.0,,,,,,,[],,,,,,87.9,1.0,i,1.0,True,685.6000000238419,41.0,61.0,40.0,False,,362.08603621896646,[],"[206, 454.5]",ColorTask,74.0,22.0,,,HRV,HRV_0176,2022-11-30 18:42:25
,wl-rdm,141,413023,0.0-8.22-0.22,1.0,139.0,,,,,,,[],,,,,,87.9,1.0,i,1.0,True,721.6000000238419,44.0,61.0,40.0,False,,203.75482543158734,[],"[206, 454.5]",ColorTask,75.0,23.0,,,HRV,HRV_0176,2022-11-30 18:42:25
,wl-rdm,142,415236,0.0-8.23-0.23,1.0,140.0,,,,,,,[],,,,,,73.6,0.0,u,0.0,True,825.2000000476837,50.0,61.0,40.0,False,,306.61132298100756,[],"[206, 454.5]",ColorTask,76.0,24.0,,,HRV,HRV_0176,2022-11-30 18:42:25
,wl-rdm,143,418679,0.0-8.24-0.24,1.0,141.0,,,,,,,[],,,,,,53.2,1.0,u,0.0,False,2054.8000000715256,124.0,61.0,40.0,False,,305.43315930998307,[],"[206, 454.5]",ColorTask,75.0,25.0,,,HRV,HRV_0176,2022-11-30 18:42:25
,wl-rdm,144,421259,0.0-8.25-0.25,1.0,142.0,,,,,,,[],,,,,,53.2,1.0,u,0.0,False,1270.4999998807907,77.0,61.0,40.0,False,,228.9760222568305,[],"[206, 454.5]",ColorTask,74.0,26.0,,,HRV,HRV_0176,2022-11-30 18:42:25
,wl-rdm,145,424189,0.0-8.26-0.26,1.0,143.0,,,,,,,[],,,,,,53.2,0.0,u,0.0,True,1545.2000000476837,93.0,61.0,40.0,False,,310.8212962953301,[],"[206, 454.5]",ColorTask,75.0,27.0,,,HRV,HRV_0176,2022-11-30 18:42:25
,wl-rdm,146,426849,0.0-8.27-0.27,1.0,144.0,,,,,,,[],,,,,,53.2,1.0,i,1.0,True,1211.3999998569489,73.0,61.0,40.0,False,,387.96292749067084,[],"[206, 454.5]",ColorTask,76.0,28.0,,,HRV,HRV_0176,2022-11-30 18:42:25
,wl-rdm,147,430094,0.0-8.28-0.28,1.0,145.0,,,,,,,[],,,,,,62.5,0.0,u,0.0,True,1825.299999833107,110.0,61.0,40.0,False,,333.21699324320014,[],"[206, 454.5]",ColorTask,77.0,29.0,,,HRV,HRV_0176,2022-11-30 18:42:25
,wl-rdm,148,433204,0.0-8.29-0.29,1.0,146.0,,,,,,,[],,,,,,53.2,1.0,u,0.0,False,1808.5,109.0,61.0,40.0,False,,246.5237806962161,[],"[206, 454.5]",ColorTask,76.0,30.0,,,HRV,HRV_0176,2022-11-30 18:42:25
,wl-rdm,149,436299,0.0-8.30-0.30,1.0,147.0,,,,,,,[],,,,,,56.4,0.0,u,0.0,True,1640.6000000238419,99.0,61.0,40.0,False,,394.88352698593724,[],"[206, 454.5]",ColorTask,77.0,31.0,,,HRV,HRV_0176,2022-11-30 18:42:25
,wl-rdm,150,438429,0.0-8.31-0.31,1.0,148.0,,,,,,,[],,,,,,73.6,1.0,i,1.0,True,831.9999998807907,50.0,61.0,40.0,False,,232.73263354155142,[],"[206, 454.5]",ColorTask,78.0,32.0,,,HRV,HRV_0176,2022-11-30 18:42:25
,wl-rdm,151,441188,0.0-8.32-0.32,1.0,149.0,,,,,,,[],,,,,,53.2,0.0,i,1.0,False,1369.4000000953674,83.0,61.0,40.0,False,,326.61468866396785,[],"[206, 454.5]",ColorTask,77.0,33.0,,,HRV,HRV_0176,2022-11-30 18:42:25
,wl-rdm,152,443634,0.0-8.33-0.33,1.0,150.0,,,,,,,[],,,,,,62.5,0.0,u,0.0,True,1131.1000001430511,68.0,61.0,40.0,False,,239.70201603476187,[],"[206, 454.5]",ColorTask,78.0,34.0,,,HRV,HRV_0176,2022-11-30 18:42:25
,wl-rdm,153,446927,0.0-8.34-0.34,1.0,151.0,,,,,,,[],,,,,,53.2,1.0,u,0.0,False,1921.2999999523163,116.0,61.0,40.0,False,,296.35842260266725,[],"[206, 454.5]",ColorTask,77.0,35.0,,,HRV,HRV_0176,2022-11-30 18:42:25
,wl-rdm,154,449955,0.0-8.35-0.35,1.0,152.0,,,,,,,[],,,,,,56.4,0.0,u,0.0,True,1623.2000000476837,98.0,61.0,40.0,False,,321.959255775804,[],"[206, 454.5]",ColorTask,78.0,36.0,,,HRV,HRV_0176,2022-11-30 18:42:25
,wl-rdm,155,452333,0.0-8.36-0.36,1.0,153.0,,,,,,,[],,,,,,56.4,0.0,i,1.0,False,954.6000000238419,58.0,61.0,40.0,False,,339.0865403800557,[],"[206, 454.5]",ColorTask,77.0,37.0,,,HRV,HRV_0176,2022-11-30 18:42:25
,wl-rdm,156,455111,0.0-8.37-0.37,1.0,154.0,,,,,,,[],,,,,,62.5,0.0,u,0.0,True,1413.8000000715256,85.0,61.0,40.0,False,,287.49303359213854,[],"[206, 454.5]",ColorTask,78.0,38.0,,,HRV,HRV_0176,2022-11-30 18:42:25
,wl-rdm,157,457692,0.0-8.38-0.38,1.0,155.0,,,,,,,[],,,,,,53.2,0.0,u,0.0,True,1244.5000001192093,75.0,61.0,40.0,False,,255.39897651708475,[],"[206, 454.5]",ColorTask,79.0,39.0,,,HRV,HRV_0176,2022-11-30 18:42:25
,wl-rdm,158,460552,0.0-8.39-0.39,1.0,156.0,,,,,,,[],,,,,,50.0,1.0,u,0.0,False,1535.9000000953674,93.0,61.0,40.0,False,,252.82898958884218,[],"[206, 454.5]",ColorTask,78.0,40.0,,,HRV,HRV_0176,2022-11-30 18:42:25
,wl-rdm,159,462865,0.0-8.40-0.40,1.0,157.0,,,,,,,[],,,,,,87.9,0.0,u,0.0,True,837.5000001192093,51.0,61.0,40.0,False,,389.0348503709764,[],"[206, 454.5]",ColorTask,79.0,41.0,,,HRV,HRV_0176,2022-11-30 18:42:25
,wl-rdm,160,464912,0.0-8.41-0.41,1.0,158.0,,,,,,,[],,,,,,87.9,0.0,u,0.0,True,701.5999999046326,43.0,61.0,40.0,False,,265.712861211126,[],"[206, 454.5]",ColorTask,80.0,42.0,,,HRV,HRV_0176,2022-11-30 18:42:25
,wl-rdm,161,467094,0.0-8.42-0.42,1.0,159.0,,,,,,,[],,,,,,87.9,1.0,i,1.0,True,765.3999999761581,46.0,61.0,40.0,False,,333.4087115536648,[],"[206, 454.5]",ColorTask,81.0,43.0,,,HRV,HRV_0176,2022-11-30 18:42:25
,wl-rdm,162,469221,0.0-8.43-0.43,1.0,160.0,,,,,,,[],,,,,,73.6,0.0,u,0.0,True,804.6999999284744,49.0,61.0,40.0,False,,242.72947864523124,[],"[206, 454.5]",ColorTask,82.0,44.0,,,HRV,HRV_0176,2022-11-30 18:42:25
,wl-rdm,163,471584,0.0-8.44-0.44,1.0,161.0,,,,,,,[],,,,,,50.0,1.0,i,1.0,True,946.799999833107,57.0,61.0,40.0,False,,338.0013985919345,[],"[206, 454.5]",ColorTask,83.0,45.0,,,HRV,HRV_0176,2022-11-30 18:42:25
,wl-rdm,164,475012,0.0-8.45-0.45,1.0,162.0,,,,,,,[],,,,,,53.2,1.0,u,0.0,False,1990.6000000238419,120.0,61.0,40.0,False,,364.861386643698,[],"[206, 454.5]",ColorTask,82.0,46.0,,,HRV,HRV_0176,2022-11-30 18:42:25
,wl-rdm,165,477093,0.0-8.46-0.46,1.0,163.0,,,,,,,[],,,,,,73.6,0.0,u,0.0,True,791.4999998807907,48.0,61.0,40.0,False,,227.89451149139933,[],"[206, 454.5]",ColorTask,83.0,47.0,,,HRV,HRV_0176,2022-11-30 18:42:25
,wl-rdm,166,479505,0.0-8.47-0.47,1.0,164.0,,,,,,,[],,,,,,73.6,1.0,i,1.0,True,944.1000000238419,57.0,61.0,40.0,False,,386.3459029718366,[],"[206, 454.5]",ColorTask,84.0,48.0,,,HRV,HRV_0176,2022-11-30 18:42:25
,wl-rdm,167,482035,0.0-8.48-0.48,1.0,165.0,,,,,,,[],,,,,,50.0,0.0,i,1.0,False,1153.2999999523163,70.0,61.0,40.0,False,,293.19637879092375,[],"[206, 454.5]",ColorTask,83.0,49.0,,,HRV,HRV_0176,2022-11-30 18:42:25
,wl-rdm,168,484146,0.0-8.49-0.49,1.0,166.0,,,,,,,[],,,,,,87.9,1.0,u,0.0,False,793.9999998807907,48.0,61.0,40.0,False,,264.5164732528837,[],"[206, 454.5]",ColorTask,82.0,50.0,,,HRV,HRV_0176,2022-11-30 18:42:25
,wl-rdm,169,486210,0.0-8.50-0.50,1.0,167.0,,,,,,,[],,,,,,87.9,0.0,u,0.0,True,751.9000000953674,46.0,61.0,40.0,False,,245.63068940993088,[],"[206, 454.5]",ColorTask,83.0,51.0,,,HRV,HRV_0176,2022-11-30 18:42:25
,wl-rdm,170,488772,0.0-8.51-0.51,1.0,168.0,,,,,,,[],,,,,,62.5,1.0,u,0.0,False,1192.5,72.0,61.0,40.0,False,,306.3693714897046,[],"[206, 454.5]",ColorTask,82.0,52.0,,,HRV,HRV_0176,2022-11-30 18:42:25
,wl-rdm,171,491520,0.0-8.52-0.52,1.0,169.0,,,,,,,[],,,,,,56.4,0.0,u,0.0,True,1353.0000001192093,82.0,61.0,40.0,False,,310.5988620876359,[],"[206, 454.5]",ColorTask,83.0,53.0,,,HRV,HRV_0176,2022-11-30 18:42:25
,wl-rdm,172,494147,0.0-8.53-0.53,1.0,170.0,,,,,,,[],,,,,,50.0,0.0,i,1.0,False,1347.1000000238419,81.0,61.0,40.0,False,,215.86739242338317,[],"[206, 454.5]",ColorTask,82.0,54.0,,,HRV,HRV_0176,2022-11-30 18:42:25
,wl-rdm,173,496626,0.0-8.54-0.54,1.0,171.0,,,,,,,[],,,,,,56.4,0.0,u,0.0,True,1063.2000000476837,64.0,61.0,40.0,False,,333.6334733607855,[],"[206, 454.5]",ColorTask,83.0,55.0,,,HRV,HRV_0176,2022-11-30 18:42:25
,wl-rdm,174,498689,0.0-8.55-0.55,1.0,172.0,,,,,,,[],,,,,,73.6,0.0,u,0.0,True,725.5,44.0,61.0,40.0,False,,264.07084188633155,[],"[206, 454.5]",ColorTask,84.0,56.0,,,HRV,HRV_0176,2022-11-30 18:42:25
,wl-rdm,175,501020,0.0-8.56-0.56,1.0,173.0,,,,,,,[],,,,,,56.4,0.0,u,0.0,True,1039.0999999046326,63.0,61.0,40.0,False,,201.14606301847908,[],"[206, 454.5]",ColorTask,85.0,57.0,,,HRV,HRV_0176,2022-11-30 18:42:25
,wl-rdm,176,503498,0.0-8.57-0.57,1.0,174.0,,,,,,,[],,,,,,56.4,0.0,u,0.0,True,1063.9000000953674,64.0,61.0,40.0,False,,333.4397800864507,[],"[206, 454.5]",ColorTask,86.0,58.0,,,HRV,HRV_0176,2022-11-30 18:42:25
,wl-rdm,177,506144,0.0-8.58-0.58,1.0,175.0,,,,,,,[],,,,,,53.2,1.0,i,1.0,True,1170.2000000476837,71.0,61.0,40.0,False,,391.4971435731251,[],"[206, 454.5]",ColorTask,87.0,59.0,,,HRV,HRV_0176,2022-11-30 18:42:25
,wl-rdm,178,508623,0.0-8.59-0.59,1.0,176.0,,,,,,,[],,,,,,62.5,0.0,u,0.0,True,1058.5000001192093,64.0,61.0,40.0,False,,344.3634034659319,[],"[206, 454.5]",ColorTask,88.0,60.0,,,HRV,HRV_0176,2022-11-30 18:42:25
,wl-rdm,179,511568,0.0-8.60-0.60,1.0,177.0,,,,,,,[],,,,,,50.0,0.0,u,0.0,True,1573.8000000715256,95.0,61.0,40.0,False,,311.05442070561486,[],"[206, 454.5]",ColorTask,89.0,61.0,,,HRV,HRV_0176,2022-11-30 18:42:25
,wl-rdm,180,514098,0.0-8.61-0.61,1.0,178.0,,,,,,,[],,,,,,56.4,0.0,u,0.0,True,1178.0000001192093,71.0,61.0,40.0,False,,270.55173300898014,[],"[206, 454.5]",ColorTask,90.0,62.0,,,HRV,HRV_0176,2022-11-30 18:42:25
,wl-rdm,181,516378,0.0-8.62-0.62,1.0,179.0,,,,,,,[],,,,,,53.2,0.0,i,1.0,False,988.8000000715256,60.0,61.0,40.0,False,,214.68311377413974,[],"[206, 454.5]",ColorTask,89.0,63.0,,,HRV,HRV_0176,2022-11-30 18:42:25
,wl-rdm,182,519022,0.0-8.63-0.63,1.0,180.0,,,,,,,[],,,,,,56.4,1.0,i,1.0,True,1350.0,81.0,61.0,40.0,False,,220.83764660536886,[],"[206, 454.5]",ColorTask,90.0,64.0,,,HRV,HRV_0176,2022-11-30 18:42:25
,wl-rdm,183,521103,0.0-8.64-0.64,1.0,181.0,,,,,,,[],,,,,,87.9,0.0,u,0.0,True,754.8999999761581,46.0,61.0,40.0,False,,242.76049651870022,[],"[206, 454.5]",ColorTask,91.0,65.0,,,HRV,HRV_0176,2022-11-30 18:42:25
,wl-rdm,184,523517,0.0-8.65-0.65,1.0,182.0,,,,,,,[],,,,,,87.9,0.0,u,0.0,True,1096.6999999284744,66.0,61.0,40.0,False,,240.88715487174565,[],"[206, 454.5]",ColorTask,92.0,66.0,,,HRV,HRV_0176,2022-11-30 18:42:25
,wl-rdm,185,525562,0.0-8.66-0.66,1.0,183.0,,,,,,,[],,,,,,87.9,1.0,i,1.0,True,739.3999999761581,45.0,61.0,40.0,False,,243.84437203908303,[],"[206, 454.5]",ColorTask,93.0,67.0,,,HRV,HRV_0176,2022-11-30 18:42:25
,wl-rdm,186,527709,0.0-8.67-0.67,1.0,184.0,,,,,,,[],,,,,,73.6,0.0,u,0.0,True,790.3999998569489,48.0,61.0,40.0,False,,266.0361327996021,[],"[206, 454.5]",ColorTask,94.0,68.0,,,HRV,HRV_0176,2022-11-30 18:42:25
,wl-rdm,187,530038,0.0-8.68-0.68,1.0,185.0,,,,,,,[],,,,,,73.6,1.0,i,1.0,True,880.3000000715256,53.0,61.0,40.0,False,,369.03137916059615,[],"[206, 454.5]",ColorTask,95.0,69.0,,,HRV,HRV_0176,2022-11-30 18:42:25
,wl-rdm,188,532899,0.0-8.69-0.69,1.0,186.0,,,,,,,[],,,,,,62.5,1.0,i,1.0,True,1453.2999999523163,88.0,61.0,40.0,False,,321.78456370662184,[],"[206, 454.5]",ColorTask,96.0,70.0,,,HRV,HRV_0176,2022-11-30 18:42:25
,wl-rdm,189,535064,0.0-8.70-0.70,1.0,187.0,,,,,,,[],,,,,,50.0,1.0,i,1.0,True,871.2999999523163,53.0,61.0,40.0,False,,215.92596274997206,[],"[206, 454.5]",ColorTask,97.0,71.0,,,HRV,HRV_0176,2022-11-30 18:42:25
,wl-rdm,190,537391,0.0-8.71-0.71,1.0,188.0,,,,,,,[],,,,,,53.2,0.0,i,1.0,False,989.0,60.0,61.0,40.0,False,,252.25854297768933,[],"[206, 454.5]",ColorTask,96.0,72.0,,,HRV,HRV_0176,2022-11-30 18:42:25
,wl-rdm,191,540072,0.0-8.72-0.72,1.0,189.0,,,,,,,[],,,,,,73.6,1.0,i,1.0,True,1328.5999999046326,80.0,61.0,40.0,False,,271.96164395645513,[],"[206, 454.5]",ColorTask,97.0,73.0,,,HRV,HRV_0176,2022-11-30 18:42:25
,wl-rdm,192,542533,0.0-8.73-0.73,1.0,190.0,,,,,,,[],,,,,,73.6,1.0,i,1.0,True,1138.1000001430511,69.0,61.0,40.0,False,,240.60493302831125,[],"[206, 454.5]",ColorTask,98.0,74.0,,,HRV,HRV_0176,2022-11-30 18:42:25
,wl-rdm,193,545578,0.0-8.74-0.74,1.0,191.0,,,,,,,[],,,,,,62.5,1.0,i,1.0,True,1775.6999999284744,107.0,61.0,40.0,False,,211.19888217710147,[],"[206, 454.5]",ColorTask,99.0,75.0,,,HRV,HRV_0176,2022-11-30 18:42:25
,wl-rdm,194,548076,0.0-8.75-0.75,1.0,192.0,,,,,,,[],,,,,,50.0,0.0,u,0.0,True,1158.1000000238419,70.0,61.0,40.0,False,,259.037138914646,[],"[206, 454.5]",ColorTask,100.0,76.0,,,HRV,HRV_0176,2022-11-30 18:42:25
,wl-rdm,195,550687,0.0-8.76-0.76,1.0,193.0,,,,,,,[],,,,,,56.4,1.0,u,0.0,False,1322.0000001192093,80.0,61.0,40.0,False,,210.97779117445594,[],"[206, 454.5]",ColorTask,99.0,77.0,,,HRV,HRV_0176,2022-11-30 18:42:25
,wl-rdm,196,553482,0.0-8.77-0.77,1.0,194.0,,,,,,,[],,,,,,56.4,1.0,u,0.0,False,1461.9000000953674,88.0,61.0,40.0,False,,261.7672512017914,[],"[206, 454.5]",ColorTask,98.0,78.0,,,HRV,HRV_0176,2022-11-30 18:42:25
,wl-rdm,197,555895,0.0-8.78-0.78,1.0,195.0,,,,,,,[],,,,,,50.0,1.0,i,1.0,True,1102.6999999284744,67.0,61.0,40.0,False,,240.26282435654764,[],"[206, 454.5]",ColorTask,99.0,79.0,,,HRV,HRV_0176,2022-11-30 18:42:25
,wl-rdm,198,557959,0.0-8.79-0.79,1.0,196.0,,,,,,,[],,,,,,87.9,1.0,i,1.0,True,731.1000000238419,44.0,61.0,40.0,False,,262.28230137367825,[],"[206, 454.5]",ColorTask,100.0,80.0,,,HRV,HRV_0176,2022-11-30 18:42:25
,wl-rdm,199,560039,0.0-8.80-0.80,1.0,197.0,,,,,,,[],,,,,,62.5,0.0,u,0.0,True,796.2000000476837,48.0,61.0,40.0,False,,209.90694422732716,[],"[206, 454.5]",ColorTask,101.0,81.0,,,HRV,HRV_0176,2022-11-30 18:42:25
,wl-rdm,200,562187,0.0-8.81-0.81,1.0,198.0,,,,,,,[],,,,,,87.9,0.0,u,0.0,True,823.6999999284744,49.0,61.0,40.0,False,,250.43745195787596,[],"[206, 454.5]",ColorTask,102.0,82.0,,,HRV,HRV_0176,2022-11-30 18:42:25
,wl-rdm,201,564781,0.0-8.82-0.82,1.0,199.0,,,,,,,[],,,,,,53.2,1.0,i,1.0,True,1143.5000001192093,69.0,61.0,40.0,False,,366.90429648126127,[],"[206, 454.5]",ColorTask,103.0,83.0,,,HRV,HRV_0176,2022-11-30 18:42:25
,wl-rdm,202,566779,0.0-8.83-0.83,1.0,200.0,,,,,,,[],,,,,,87.9,0.0,u,0.0,True,679.1000000238419,41.0,61.0,40.0,False,,236.85943879303247,[],"[206, 454.5]",ColorTask,104.0,84.0,,,HRV,HRV_0176,2022-11-30 18:42:25
,wl-rdm,203,568893,0.0-8.84-0.84,1.0,201.0,,,,,,,[],,,,,,73.6,0.0,u,0.0,True,821.5,50.0,61.0,40.0,False,,209.66804760435338,[],"[206, 454.5]",ColorTask,105.0,85.0,,,HRV,HRV_0176,2022-11-30 18:42:25
,wl-rdm,204,571505,0.0-8.85-0.85,1.0,202.0,,,,,,,[],,,,,,56.4,1.0,i,1.0,True,1301.5000001192093,79.0,61.0,40.0,False,,219.86020937300214,[],"[206, 454.5]",ColorTask,106.0,86.0,,,HRV,HRV_0176,2022-11-30 18:42:25
,wl-rdm,205,573936,0.0-8.86-0.86,1.0,203.0,,,,,,,[],,,,,,53.2,1.0,i,1.0,True,1047.6999999284744,63.0,61.0,40.0,False,,315.1491986138376,[],"[206, 454.5]",ColorTask,107.0,87.0,,,HRV,HRV_0176,2022-11-30 18:42:25
,wl-rdm,206,576631,0.0-8.87-0.87,1.0,204.0,,,,,,,[],,,,,,50.0,1.0,u,0.0,False,1321.3999998569489,80.0,61.0,40.0,False,,286.34111219354463,[],"[206, 454.5]",ColorTask,106.0,88.0,,,HRV,HRV_0176,2022-11-30 18:42:25
,wl-rdm,207,579179,0.0-8.88-0.88,1.0,205.0,,,,,,,[],,,,,,56.4,1.0,u,0.0,False,1192.6000001430511,72.0,61.0,40.0,False,,267.4667641930504,[],"[206, 454.5]",ColorTask,105.0,89.0,,,HRV,HRV_0176,2022-11-30 18:42:25
,wl-rdm,208,581692,0.0-8.89-0.89,1.0,206.0,,,,,,,[],,,,,,73.6,0.0,u,0.0,True,1156.5999999046326,70.0,61.0,40.0,False,,272.1595709695184,[],"[206, 454.5]",ColorTask,106.0,90.0,,,HRV,HRV_0176,2022-11-30 18:42:25
,wl-rdm,209,583938,0.0-8.90-0.90,1.0,207.0,,,,,,,[],,,,,,62.5,1.0,i,1.0,True,955.0,58.0,61.0,40.0,False,,215.2223967945303,[],"[206, 454.5]",ColorTask,107.0,91.0,,,HRV,HRV_0176,2022-11-30 18:42:25
,wl-rdm,210,586168,0.0-8.91-0.91,1.0,208.0,,,,,,,[],,,,,,50.0,0.0,i,1.0,False,757.7000000476837,46.0,61.0,40.0,False,,383.20235470344164,[],"[206, 454.5]",ColorTask,106.0,92.0,,,HRV,HRV_0176,2022-11-30 18:42:25
,wl-rdm,211,588499,0.0-8.92-0.92,1.0,209.0,,,,,,,[],,,,,,62.5,0.0,u,0.0,True,945.0999999046326,57.0,61.0,40.0,False,,323.0996734238316,[],"[206, 454.5]",ColorTask,107.0,93.0,,,HRV,HRV_0176,2022-11-30 18:42:25
,wl-rdm,212,591559,0.0-8.93-0.93,1.0,210.0,,,,,,,[],,,,,,53.2,0.0,i,1.0,False,1778.0,107.0,61.0,40.0,False,,210.2418120914632,[],"[206, 454.5]",ColorTask,106.0,94.0,,,HRV,HRV_0176,2022-11-30 18:42:25
,wl-rdm,213,594188,0.0-8.94-0.94,1.0,211.0,,,,,,,[],,,,,,50.0,1.0,u,0.0,False,1343.0,81.0,61.0,40.0,False,,205.43698978558282,[],"[206, 454.5]",ColorTask,105.0,95.0,,,HRV,HRV_0176,2022-11-30 18:42:25
,wl-rdm,214,597017,0.0-8.95-0.95,1.0,212.0,,,,,,,[],,,,,,62.5,1.0,i,1.0,True,1386.8999999761581,84.0,61.0,40.0,False,,351.4573582518315,[],"[206, 454.5]",ColorTask,106.0,96.0,,,HRV,HRV_0176,2022-11-30 18:42:25
,wl-rdm,215,599149,0.0-8.96-0.96,1.0,213.0,,,,,,,[],,,,,,73.6,1.0,i,1.0,True,751.0,46.0,61.0,40.0,False,,295.51338921414504,[],"[206, 454.5]",ColorTask,107.0,97.0,,,HRV,HRV_0176,2022-11-30 18:42:25
,wl-rdm,216,601529,0.0-8.97-0.97,1.0,214.0,,,,,,,[],,,,,,62.5,1.0,i,1.0,True,949.1000001430511,57.0,61.0,40.0,False,,360.08267839689586,[],"[206, 454.5]",ColorTask,108.0,98.0,,,HRV,HRV_0176,2022-11-30 18:42:25
,wl-rdm,217,603657,0.0-8.98-0.98,1.0,215.0,,,,,,,[],,,,,,62.5,0.0,u,0.0,True,759.7000000476837,46.0,61.0,40.0,False,,312.6574736629521,[],"[206, 454.5]",ColorTask,109.0,99.0,,,HRV,HRV_0176,2022-11-30 18:42:25
,wl-rdm,218,605770,0.0-8.99-0.99,1.0,216.0,,,,,,,[],,,,,,87.9,1.0,i,1.0,True,821.2000000476837,50.0,61.0,40.0,False,,210.38206679455504,[],"[206, 454.5]",ColorTask,110.0,100.0,,,HRV,HRV_0176,2022-11-30 18:42:25
,wl-rdm,219,607918,0.0-8.100-0.100,1.0,217.0,,,,,,,[],,,,,,73.6,1.0,i,1.0,True,822.9999998807907,50.0,61.0,40.0,False,,242.5186375048527,[],"[206, 454.5]",ColorTask,111.0,101.0,,,HRV,HRV_0176,2022-11-30 18:42:25
,wl-rdm,220,610214,0.0-8.101-0.101,1.0,218.0,,,,,,,[],,,,,,53.2,0.0,i,1.0,False,934.0,56.0,61.0,40.0,False,,288.2255081528105,[],"[206, 454.5]",ColorTask,110.0,102.0,,,HRV,HRV_0176,2022-11-30 18:42:25
,wl-rdm,221,612477,0.0-8.102-0.102,1.0,219.0,,,,,,,[],,,,,,73.6,1.0,i,1.0,True,882.0999999046326,53.0,61.0,40.0,False,,307.26129554155534,[],"[206, 454.5]",ColorTask,111.0,103.0,,,HRV,HRV_0176,2022-11-30 18:42:25
,wl-rdm,222,615291,0.0-8.103-0.103,1.0,220.0,,,,,,,[],,,,,,50.0,1.0,u,0.0,False,1361.7999999523163,82.0,61.0,40.0,False,,379.9836111564217,[],"[206, 454.5]",ColorTask,110.0,104.0,,,HRV,HRV_0176,2022-11-30 18:42:25
,wl-rdm,223,617853,0.0-8.104-0.104,1.0,221.0,,,,,,,[],,,,,,50.0,0.0,u,0.0,True,1138.5,69.0,61.0,40.0,False,,341.75895877577557,[],"[206, 454.5]",ColorTask,111.0,105.0,,,HRV,HRV_0176,2022-11-30 18:42:25
,wl-rdm,224,620248,0.0-8.105-0.105,1.0,222.0,,,,,,,[],,,,,,62.5,1.0,i,1.0,True,932.8000000715256,56.0,61.0,40.0,False,,383.7006485445178,[],"[206, 454.5]",ColorTask,112.0,106.0,,,HRV,HRV_0176,2022-11-30 18:42:25
,wl-rdm,225,622694,0.0-8.106-0.106,1.0,223.0,,,,,,,[],,,,,,56.4,1.0,i,1.0,True,1164.8999999761581,70.0,61.0,40.0,False,,203.64620210880148,[],"[206, 454.5]",ColorTask,113.0,107.0,,,HRV,HRV_0176,2022-11-30 18:42:25
,wl-rdm,226,624689,0.0-8.107-0.107,1.0,224.0,,,,,,,[],,,,,,87.9,1.0,i,1.0,True,693.5000001192093,42.0,61.0,40.0,False,,248.15011545744503,[],"[206, 454.5]",ColorTask,114.0,108.0,,,HRV,HRV_0176,2022-11-30 18:42:25
,wl-rdm,227,627118,0.0-8.108-0.108,1.0,225.0,,,,,,,[],,,,,,56.4,1.0,i,1.0,True,960.0,58.0,61.0,40.0,False,,396.71000588521,[],"[206, 454.5]",ColorTask,115.0,109.0,,,HRV,HRV_0176,2022-11-30 18:42:25
,wl-html-button-response,228,628850,0.0-9.0-0.0,,,,,,,,,,1725.0,,0,,,,,,,,,,,,,,,,,,,,<h3>End of this session. Thank you!</h3><br>,['Close window'],HRV,HRV_0176,2022-11-30 18:42:25
