trialN,stimuli,trialStartTime,trialStartTime_UNIX,stimulus1,stimulus2,stimulus1Bid,stimulus2Bid,delta,selected,rt,rt_UNIX,rt_perfnow,receivedResponse,rsp,trialEndTime,trialDuration,trialEndTime_UNIX,trialDuration_UNIX,exp,subjectId,date
0,"[{'imgObject': {}, 'id': 'olives', 'src': '/static/foodstim60/olives.jpg', 'key': 'u', 'origWidth': 410, 'origHeight': 410, 'width': 410, 'height': 410, 'widthPercent': 0.45, 'rescaleHeight': False, 'trialN': 0, 'loaded': True, 'loadedTime': 2768.5, 'positionName': 'LEFT', 'positionCoords': [511.6, 335], 'bid': 1.87}, {'imgObject': {}, 'id': 'seaweed', 'src': '/static/foodstim60/seaweed.jpg', 'key': 'i', 'origWidth': 410, 'origHeight': 410, 'width': 410, 'height': 410, 'widthPercent': 0.45, 'rescaleHeight': False, 'trialN': 0, 'loaded': True, 'loadedTime': 2785.399999856949, 'positionName': 'RIGHT', 'positionCoords': [998.4, 335], 'bid': 6.5600000000000005}]",2887.5999999046326,1669839268275,olives,seaweed,1.87,6.5600000000000005,4.69,seaweed,1069.0,1070,1069.7999999523163,True,i,4469.5,1581.9000000953674,1669839269857,1582,HRV,HRV_0275,2022-11-30 20:19:35
1,"[{'imgObject': {}, 'id': 'steak', 'src': '/static/foodstim60/steak.jpg', 'key': 'u', 'origWidth': 410, 'origHeight': 410, 'width': 410, 'height': 410, 'widthPercent': 0.45, 'rescaleHeight': False, 'trialN': 1, 'loaded': True, 'loadedTime': 2796.699999809265, 'positionName': 'LEFT', 'positionCoords': [511.6, 335], 'bid': 4.67}, {'imgObject': {}, 'id': 'raspberries', 'src': '/static/foodstim60/raspberries.jpg', 'key': 'i', 'origWidth': 411, 'origHeight': 411, 'width': 411, 'height': 411, 'widthPercent': 0.45, 'rescaleHeight': False, 'trialN': 1, 'loaded': True, 'loadedTime': 2807.199999809265, 'positionName': 'RIGHT', 'positionCoords': [998.4, 334.5], 'bid': 7.16}]",4470.199999809265,1669839269858,steak,raspberries,4.67,7.16,2.49,raspberries,690.6000001430511,691,690.9000000953674,True,i,5671.299999952316,1201.1000001430511,1669839271059,1201,HRV,HRV_0275,2022-11-30 20:19:35
2,"[{'imgObject': {}, 'id': 'mashed potato', 'src': '/static/foodstim60/mashed potato.jpg', 'key': 'u', 'origWidth': 409, 'origHeight': 409, 'width': 409, 'height': 409, 'widthPercent': 0.45, 'rescaleHeight': False, 'trialN': 2, 'loaded': True, 'loadedTime': 2810.399999856949, 'positionName': 'LEFT', 'positionCoords': [512.6, 335.5], 'bid': 4.63}, {'imgObject': {}, 'id': 'eggsalad', 'src': '/static/foodstim60/eggsalad.jpg', 'key': 'i', 'origWidth': 410, 'origHeight': 409, 'width': 410, 'height': 409, 'widthPercent': 0.45, 'rescaleHeight': False, 'trialN': 2, 'loaded': True, 'loadedTime': 2811, 'positionName': 'RIGHT', 'positionCoords': [998.4, 335.5], 'bid': 5.43}]",5671.599999904633,1669839271059,mashed potato,eggsalad,4.63,5.43,0.7999999999999998,eggsalad,1054.5999999046326,1056,1055.2000000476837,True,i,7233.199999809265,1561.5999999046326,1669839272621,1562,HRV,HRV_0275,2022-11-30 20:19:35
3,"[{'imgObject': {}, 'id': 'froot loops w milk', 'src': '/static/foodstim60/froot loops w milk.jpg', 'key': 'u', 'origWidth': 410, 'origHeight': 410, 'width': 410, 'height': 410, 'widthPercent': 0.45, 'rescaleHeight': False, 'trialN': 3, 'loaded': True, 'loadedTime': 2811.5, 'positionName': 'LEFT', 'positionCoords': [511.6, 335], 'bid': 6.61}, {'imgObject': {}, 'id': 'rigatoni and sauce', 'src': '/static/foodstim60/rigatoni and sauce.jpg', 'key': 'i', 'origWidth': 410, 'origHeight': 411, 'width': 410, 'height': 411, 'widthPercent': 0.45, 'rescaleHeight': False, 'trialN': 3, 'loaded': True, 'loadedTime': 2814.2999999523163, 'positionName': 'RIGHT', 'positionCoords': [998.4, 334.5], 'bid': 6.53}]",7233.399999856949,1669839272621,froot loops w milk,rigatoni and sauce,6.61,6.53,-0.08000000000000007,froot loops w milk,1094.2000000476837,1095,1094.9000000953674,True,u,8835.899999856949,1602.5,1669839274224,1603,HRV,HRV_0275,2022-11-30 20:19:35
4,"[{'imgObject': {}, 'id': 'burger', 'src': '/static/foodstim60/burger.jpg', 'key': 'u', 'origWidth': 409, 'origHeight': 409, 'width': 409, 'height': 409, 'widthPercent': 0.45, 'rescaleHeight': False, 'trialN': 4, 'loaded': True, 'loadedTime': 2815.399999856949, 'positionName': 'LEFT', 'positionCoords': [512.6, 335.5], 'bid': 4.53}, {'imgObject': {}, 'id': 'popsicles', 'src': '/static/foodstim60/popsicles.jpg', 'key': 'i', 'origWidth': 410, 'origHeight': 410, 'width': 410, 'height': 410, 'widthPercent': 0.45, 'rescaleHeight': False, 'trialN': 4, 'loaded': True, 'loadedTime': 2882.899999856949, 'positionName': 'RIGHT', 'positionCoords': [998.4, 335], 'bid': 4.6000000000000005}]",8836.399999856949,1669839274224,burger,popsicles,4.53,4.6000000000000005,0.07000000000000028,popsicles,802.1000001430511,802,802.4000000953674,True,i,10145.699999809265,1309.2999999523163,1669839275533,1309,HRV,HRV_0275,2022-11-30 20:19:35
5,"[{'imgObject': {}, 'id': 'mango', 'src': '/static/foodstim60/mango.jpg', 'key': 'u', 'origWidth': 411, 'origHeight': 411, 'width': 411, 'height': 411, 'widthPercent': 0.45, 'rescaleHeight': False, 'trialN': 5, 'loaded': True, 'loadedTime': 2786.5999999046326, 'positionName': 'LEFT', 'positionCoords': [510.6, 334.5], 'bid': 8.09}, {'imgObject': {}, 'id': 'mac & cheese', 'src': '/static/foodstim60/mac & cheese.jpg', 'key': 'i', 'origWidth': 410, 'origHeight': 410, 'width': 410, 'height': 410, 'widthPercent': 0.45, 'rescaleHeight': False, 'trialN': 5, 'loaded': True, 'loadedTime': 2787.5, 'positionName': 'RIGHT', 'positionCoords': [998.4, 335], 'bid': 8.120000000000001}]",10146.199999809265,1669839275534,mango,mac & cheese,8.09,8.120000000000001,0.030000000000001137,mac & cheese,705.5,706,706.3000001907349,True,i,11368.299999952316,1222.1000001430511,1669839276756,1222,HRV,HRV_0275,2022-11-30 20:19:35
6,"[{'imgObject': {}, 'id': 'lox', 'src': '/static/foodstim60/lox.jpg', 'key': 'u', 'origWidth': 410, 'origHeight': 411, 'width': 410, 'height': 411, 'widthPercent': 0.45, 'rescaleHeight': False, 'trialN': 6, 'loaded': True, 'loadedTime': 2792.899999856949, 'positionName': 'LEFT', 'positionCoords': [511.6, 334.5], 'bid': 4.72}, {'imgObject': {}, 'id': 'olives', 'src': '/static/foodstim60/olives.jpg', 'key': 'i', 'origWidth': 410, 'origHeight': 410, 'width': 410, 'height': 410, 'widthPercent': 0.45, 'rescaleHeight': False, 'trialN': 6, 'loaded': True, 'loadedTime': 2767.5999999046326, 'positionName': 'RIGHT', 'positionCoords': [998.4, 335], 'bid': 1.87}]",11369.0,1669839276757,lox,olives,4.72,1.87,-2.8499999999999996,olives,795.0,795,795.5,True,i,12676.299999952316,1307.2999999523163,1669839278064,1307,HRV,HRV_0275,2022-11-30 20:19:35
7,"[{'imgObject': {}, 'id': 'ice cream sundae 002', 'src': '/static/foodstim60/ice cream sundae 002.jpg', 'key': 'u', 'origWidth': 409, 'origHeight': 409, 'width': 409, 'height': 409, 'widthPercent': 0.45, 'rescaleHeight': False, 'trialN': 7, 'loaded': True, 'loadedTime': 2806.0999999046326, 'positionName': 'LEFT', 'positionCoords': [512.6, 335.5], 'bid': 8.43}, {'imgObject': {}, 'id': 'Tribe humus pita', 'src': '/static/foodstim60/Tribe humus pita.jpg', 'key': 'i', 'origWidth': 411, 'origHeight': 411, 'width': 411, 'height': 411, 'widthPercent': 0.45, 'rescaleHeight': False, 'trialN': 7, 'loaded': True, 'loadedTime': 2808.5999999046326, 'positionName': 'RIGHT', 'positionCoords': [998.4, 334.5], 'bid': 9.57}]",12676.799999952316,1669839278064,ice cream sundae 002,Tribe humus pita,8.43,9.57,1.1400000000000006,ice cream sundae 002,836.7999999523163,838,837.5,True,u,14028.299999952316,1351.5,1669839279416,1352,HRV,HRV_0275,2022-11-30 20:19:35
8,"[{'imgObject': {}, 'id': 'eggs', 'src': '/static/foodstim60/eggs.jpg', 'key': 'u', 'origWidth': 409, 'origHeight': 409, 'width': 409, 'height': 409, 'widthPercent': 0.45, 'rescaleHeight': False, 'trialN': 8, 'loaded': True, 'loadedTime': 2809.199999809265, 'positionName': 'LEFT', 'positionCoords': [512.6, 335.5], 'bid': 5.7700000000000005}, {'imgObject': {}, 'id': 'yogurt no spoon', 'src': '/static/foodstim60/yogurt no spoon.jpg', 'key': 'i', 'origWidth': 411, 'origHeight': 410, 'width': 411, 'height': 410, 'widthPercent': 0.45, 'rescaleHeight': False, 'trialN': 8, 'loaded': True, 'loadedTime': 2809.699999809265, 'positionName': 'RIGHT', 'positionCoords': [998.4, 335], 'bid': 7.04}]",14028.699999809265,1669839279416,eggs,yogurt no spoon,5.7700000000000005,7.04,1.2699999999999996,yogurt no spoon,1084.2000000476837,1085,1084.6000001430511,True,i,15631.399999856949,1602.7000000476837,1669839281019,1603,HRV,HRV_0275,2022-11-30 20:19:35
9,"[{'imgObject': {}, 'id': 'sushi w_condiments', 'src': '/static/foodstim60/sushi w_condiments.jpg', 'key': 'u', 'origWidth': 410, 'origHeight': 410, 'width': 410, 'height': 410, 'widthPercent': 0.45, 'rescaleHeight': False, 'trialN': 9, 'loaded': True, 'loadedTime': 2812, 'positionName': 'LEFT', 'positionCoords': [511.6, 335], 'bid': 4.95}, {'imgObject': {}, 'id': 'fried eggs', 'src': '/static/foodstim60/fried eggs.jpg', 'key': 'i', 'origWidth': 410, 'origHeight': 410, 'width': 410, 'height': 410, 'widthPercent': 0.45, 'rescaleHeight': False, 'trialN': 9, 'loaded': True, 'loadedTime': 2812.5999999046326, 'positionName': 'RIGHT', 'positionCoords': [998.4, 335], 'bid': 5.33}]",15631.799999952316,1669839281019,sushi w_condiments,fried eggs,4.95,5.33,0.3799999999999999,fried eggs,764.7999999523163,765,764.8999998569489,True,i,16908.89999985695,1277.0999999046326,1669839282297,1278,HRV,HRV_0275,2022-11-30 20:19:35
10,"[{'imgObject': {}, 'id': 'eggs', 'src': '/static/foodstim60/eggs.jpg', 'key': 'u', 'origWidth': 409, 'origHeight': 409, 'width': 409, 'height': 409, 'widthPercent': 0.45, 'rescaleHeight': False, 'trialN': 10, 'loaded': True, 'loadedTime': 2809.2999999523163, 'positionName': 'LEFT', 'positionCoords': [512.6, 335.5], 'bid': 5.7700000000000005}, {'imgObject': {}, 'id': 'cheerios', 'src': '/static/foodstim60/cheerios.jpg', 'key': 'i', 'origWidth': 409, 'origHeight': 410, 'width': 409, 'height': 410, 'widthPercent': 0.45, 'rescaleHeight': False, 'trialN': 10, 'loaded': True, 'loadedTime': 2813.0999999046326, 'positionName': 'RIGHT', 'positionCoords': [998.4, 335], 'bid': 6.32}]",16909.099999904633,1669839282297,eggs,cheerios,5.7700000000000005,6.32,0.5499999999999998,eggs,1179.4000000953674,1180,1179.9000000953674,True,u,18599.5,1690.4000000953674,1669839283987,1690,HRV,HRV_0275,2022-11-30 20:19:35
11,"[{'imgObject': {}, 'id': 'blueberries', 'src': '/static/foodstim60/blueberries.jpg', 'key': 'u', 'origWidth': 411, 'origHeight': 411, 'width': 411, 'height': 411, 'widthPercent': 0.45, 'rescaleHeight': False, 'trialN': 11, 'loaded': True, 'loadedTime': 2813.699999809265, 'positionName': 'LEFT', 'positionCoords': [510.6, 334.5], 'bid': 7.56}, {'imgObject': {}, 'id': 'baked potato', 'src': '/static/foodstim60/baked potato.jpg', 'key': 'i', 'origWidth': 409, 'origHeight': 410, 'width': 409, 'height': 410, 'widthPercent': 0.45, 'rescaleHeight': False, 'trialN': 11, 'loaded': True, 'loadedTime': 2814.7999999523163, 'positionName': 'RIGHT', 'positionCoords': [998.4, 335], 'bid': 7.48}]",18599.89999985695,1669839283988,blueberries,baked potato,7.56,7.48,-0.07999999999999918,blueberries,808.4000000953674,808,808.6000001430511,True,u,19916.39999985695,1316.5,1669839285304,1316,HRV,HRV_0275,2022-11-30 20:19:35
12,"[{'imgObject': {}, 'id': 'sushi w_condiments', 'src': '/static/foodstim60/sushi w_condiments.jpg', 'key': 'u', 'origWidth': 410, 'origHeight': 410, 'width': 410, 'height': 410, 'widthPercent': 0.45, 'rescaleHeight': False, 'trialN': 12, 'loaded': True, 'loadedTime': 2812.0999999046326, 'positionName': 'LEFT', 'positionCoords': [511.6, 335], 'bid': 4.95}, {'imgObject': {}, 'id': 'burger', 'src': '/static/foodstim60/burger.jpg', 'key': 'i', 'origWidth': 409, 'origHeight': 409, 'width': 409, 'height': 409, 'widthPercent': 0.45, 'rescaleHeight': False, 'trialN': 12, 'loaded': True, 'loadedTime': 2815.899999856949, 'positionName': 'RIGHT', 'positionCoords': [998.4, 335.5], 'bid': 4.53}]",19916.5,1669839285304,sushi w_condiments,burger,4.95,4.53,-0.41999999999999993,burger,711.0,712,711.3999998569489,True,i,21130.699999809265,1214.1999998092651,1669839286518,1214,HRV,HRV_0275,2022-11-30 20:19:35
13,"[{'imgObject': {}, 'id': 'corn cob', 'src': '/static/foodstim60/corn cob.jpg', 'key': 'u', 'origWidth': 411, 'origHeight': 411, 'width': 411, 'height': 411, 'widthPercent': 0.45, 'rescaleHeight': False, 'trialN': 13, 'loaded': True, 'loadedTime': 2815.2999999523163, 'positionName': 'LEFT', 'positionCoords': [510.6, 334.5], 'bid': 5.41}, {'imgObject': {}, 'id': 'cocktailshrimp', 'src': '/static/foodstim60/cocktailshrimp.jpg', 'key': 'i', 'origWidth': 410, 'origHeight': 410, 'width': 410, 'height': 410, 'widthPercent': 0.45, 'rescaleHeight': False, 'trialN': 13, 'loaded': True, 'loadedTime': 2816.5, 'positionName': 'RIGHT', 'positionCoords': [998.4, 335], 'bid': 4.61}]",21131.0,1669839286519,corn cob,cocktailshrimp,5.41,4.61,-0.7999999999999998,corn cob,864.6999998092651,865,865.3999998569489,True,u,22517.0,1386.0,1669839287905,1386,HRV,HRV_0275,2022-11-30 20:19:35
14,"[{'imgObject': {}, 'id': 'sweetpotato', 'src': '/static/foodstim60/sweetpotato.jpg', 'key': 'u', 'origWidth': 410, 'origHeight': 410, 'width': 410, 'height': 410, 'widthPercent': 0.45, 'rescaleHeight': False, 'trialN': 14, 'loaded': True, 'loadedTime': 2816.899999856949, 'positionName': 'LEFT', 'positionCoords': [511.6, 335], 'bid': 8.47}, {'imgObject': {}, 'id': 'cherries', 'src': '/static/foodstim60/cherries.jpg', 'key': 'i', 'origWidth': 410, 'origHeight': 411, 'width': 410, 'height': 411, 'widthPercent': 0.45, 'rescaleHeight': False, 'trialN': 14, 'loaded': True, 'loadedTime': 2817, 'positionName': 'RIGHT', 'positionCoords': [998.4, 334.5], 'bid': 8.07}]",22517.39999985695,1669839287905,sweetpotato,cherries,8.47,8.07,-0.40000000000000036,cherries,846.0,847,846.5,True,i,23872.199999809265,1354.7999999523163,1669839289260,1355,HRV,HRV_0275,2022-11-30 20:19:35
15,"[{'imgObject': {}, 'id': 'mashed potato', 'src': '/static/foodstim60/mashed potato.jpg', 'key': 'u', 'origWidth': 409, 'origHeight': 409, 'width': 409, 'height': 409, 'widthPercent': 0.45, 'rescaleHeight': False, 'trialN': 15, 'loaded': True, 'loadedTime': 2810.2999999523163, 'positionName': 'LEFT', 'positionCoords': [512.6, 335.5], 'bid': 4.63}, {'imgObject': {}, 'id': 'cherry tomato', 'src': '/static/foodstim60/cherry tomato.jpg', 'key': 'i', 'origWidth': 410, 'origHeight': 410, 'width': 410, 'height': 410, 'widthPercent': 0.45, 'rescaleHeight': False, 'trialN': 15, 'loaded': True, 'loadedTime': 2818.199999809265, 'positionName': 'RIGHT', 'positionCoords': [998.4, 335], 'bid': 3.17}]",23872.39999985695,1669839289260,mashed potato,cherry tomato,4.63,3.17,-1.46,mashed potato,1031.2000000476837,1032,1031.9000000953674,True,u,25421.699999809265,1549.2999999523163,1669839290809,1549,HRV,HRV_0275,2022-11-30 20:19:35
16,"[{'imgObject': {}, 'id': 'grilled chicken strips', 'src': '/static/foodstim60/grilled chicken strips.jpg', 'key': 'u', 'origWidth': 410, 'origHeight': 411, 'width': 410, 'height': 411, 'widthPercent': 0.45, 'rescaleHeight': False, 'trialN': 16, 'loaded': True, 'loadedTime': 2818.5999999046326, 'positionName': 'LEFT', 'positionCoords': [511.6, 334.5], 'bid': 4.94}, {'imgObject': {}, 'id': 'turkey sandwich', 'src': '/static/foodstim60/turkey sandwich.jpg', 'key': 'i', 'origWidth': 409, 'origHeight': 409, 'width': 409, 'height': 409, 'widthPercent': 0.45, 'rescaleHeight': False, 'trialN': 16, 'loaded': True, 'loadedTime': 2824.5999999046326, 'positionName': 'RIGHT', 'positionCoords': [998.4, 335.5], 'bid': 4.84}]",25422.099999904633,1669839290810,grilled chicken strips,turkey sandwich,4.94,4.84,-0.10000000000000053,turkey sandwich,833.5999999046326,834,834.2999999523163,True,i,26760.799999952316,1338.7000000476837,1669839292148,1338,HRV,HRV_0275,2022-11-30 20:19:35
17,"[{'imgObject': {}, 'id': 'cheerios', 'src': '/static/foodstim60/cheerios.jpg', 'key': 'u', 'origWidth': 409, 'origHeight': 410, 'width': 409, 'height': 410, 'widthPercent': 0.45, 'rescaleHeight': False, 'trialN': 17, 'loaded': True, 'loadedTime': 2812.699999809265, 'positionName': 'LEFT', 'positionCoords': [512.6, 335], 'bid': 6.32}, {'imgObject': {}, 'id': 'strawberries', 'src': '/static/foodstim60/strawberries.jpg', 'key': 'i', 'origWidth': 410, 'origHeight': 410, 'width': 410, 'height': 410, 'widthPercent': 0.45, 'rescaleHeight': False, 'trialN': 17, 'loaded': True, 'loadedTime': 2833.199999809265, 'positionName': 'RIGHT', 'positionCoords': [998.4, 335], 'bid': 7.140000000000001}]",26760.89999985695,1669839292149,cheerios,strawberries,6.32,7.140000000000001,0.8200000000000003,cheerios,844.2000000476837,844,844.5,True,u,28114.599999904633,1353.7000000476837,1669839293502,1353,HRV,HRV_0275,2022-11-30 20:19:35
18,"[{'imgObject': {}, 'id': 'strawberries', 'src': '/static/foodstim60/strawberries.jpg', 'key': 'u', 'origWidth': 410, 'origHeight': 410, 'width': 410, 'height': 410, 'widthPercent': 0.45, 'rescaleHeight': False, 'trialN': 18, 'loaded': True, 'loadedTime': 2830, 'positionName': 'LEFT', 'positionCoords': [511.6, 335], 'bid': 7.140000000000001}, {'imgObject': {}, 'id': 'burrito', 'src': '/static/foodstim60/burrito.jpg', 'key': 'i', 'origWidth': 410, 'origHeight': 410, 'width': 410, 'height': 410, 'widthPercent': 0.45, 'rescaleHeight': False, 'trialN': 18, 'loaded': True, 'loadedTime': 2834, 'positionName': 'RIGHT', 'positionCoords': [998.4, 335], 'bid': 8.120000000000001}]",28115.0,1669839293503,strawberries,burrito,7.140000000000001,8.120000000000001,0.9800000000000004,burrito,785.2999999523163,786,786.1999998092651,True,i,29408.89999985695,1293.8999998569489,1669839294797,1294,HRV,HRV_0275,2022-11-30 20:19:35
19,"[{'imgObject': {}, 'id': 'turkeysandwich', 'src': '/static/foodstim60/turkeysandwich.jpg', 'key': 'u', 'origWidth': 409, 'origHeight': 409, 'width': 409, 'height': 409, 'widthPercent': 0.45, 'rescaleHeight': False, 'trialN': 19, 'loaded': True, 'loadedTime': 2834.399999856949, 'positionName': 'LEFT', 'positionCoords': [512.6, 335.5], 'bid': 5.04}, {'imgObject': {}, 'id': 'cocktailshrimp', 'src': '/static/foodstim60/cocktailshrimp.jpg', 'key': 'i', 'origWidth': 410, 'origHeight': 410, 'width': 410, 'height': 410, 'widthPercent': 0.45, 'rescaleHeight': False, 'trialN': 19, 'loaded': True, 'loadedTime': 2816, 'positionName': 'RIGHT', 'positionCoords': [998.4, 335], 'bid': 4.61}]",29408.89999985695,1669839294797,turkeysandwich,cocktailshrimp,5.04,4.61,-0.4299999999999997,turkeysandwich,773.2000000476837,774,774.0,True,u,30703.699999809265,1294.7999999523163,1669839296091,1294,HRV,HRV_0275,2022-11-30 20:19:35
20,"[{'imgObject': {}, 'id': 'corn cob', 'src': '/static/foodstim60/corn cob.jpg', 'key': 'u', 'origWidth': 411, 'origHeight': 411, 'width': 411, 'height': 411, 'widthPercent': 0.45, 'rescaleHeight': False, 'trialN': 20, 'loaded': True, 'loadedTime': 2815.399999856949, 'positionName': 'LEFT', 'positionCoords': [510.6, 334.5], 'bid': 5.41}, {'imgObject': {}, 'id': 'salad w chicken', 'src': '/static/foodstim60/salad w chicken.jpg', 'key': 'i', 'origWidth': 411, 'origHeight': 411, 'width': 411, 'height': 411, 'widthPercent': 0.45, 'rescaleHeight': False, 'trialN': 20, 'loaded': True, 'loadedTime': 2837.199999809265, 'positionName': 'RIGHT', 'positionCoords': [998.4, 334.5], 'bid': 5.03}]",30703.799999952316,1669839296091,corn cob,salad w chicken,5.41,5.03,-0.3799999999999999,corn cob,875.5,877,876.0999999046326,True,u,32088.699999809265,1384.8999998569489,1669839297476,1385,HRV,HRV_0275,2022-11-30 20:19:35
21,"[{'imgObject': {}, 'id': 'cherries', 'src': '/static/foodstim60/cherries.jpg', 'key': 'u', 'origWidth': 410, 'origHeight': 411, 'width': 410, 'height': 411, 'widthPercent': 0.45, 'rescaleHeight': False, 'trialN': 21, 'loaded': True, 'loadedTime': 2817.399999856949, 'positionName': 'LEFT', 'positionCoords': [511.6, 334.5], 'bid': 8.07}, {'imgObject': {}, 'id': 'Grapes', 'src': '/static/foodstim60/Grapes.jpg', 'key': 'i', 'origWidth': 411, 'origHeight': 411, 'width': 411, 'height': 411, 'widthPercent': 0.45, 'rescaleHeight': False, 'trialN': 21, 'loaded': True, 'loadedTime': 2838.2999999523163, 'positionName': 'RIGHT', 'positionCoords': [998.4, 334.5], 'bid': 8.1}]",32088.799999952316,1669839297476,cherries,Grapes,8.07,8.1,0.02999999999999936,cherries,678.0999999046326,679,678.7999999523163,True,u,33276.39999985695,1187.5999999046326,1669839298664,1188,HRV,HRV_0275,2022-11-30 20:19:35
22,"[{'imgObject': {}, 'id': 'cherries', 'src': '/static/foodstim60/cherries.jpg', 'key': 'u', 'origWidth': 410, 'origHeight': 411, 'width': 410, 'height': 411, 'widthPercent': 0.45, 'rescaleHeight': False, 'trialN': 22, 'loaded': True, 'loadedTime': 2817.5, 'positionName': 'LEFT', 'positionCoords': [511.6, 334.5], 'bid': 8.07}, {'imgObject': {}, 'id': 'roastedpotatoes', 'src': '/static/foodstim60/roastedpotatoes.jpg', 'key': 'i', 'origWidth': 409, 'origHeight': 410, 'width': 409, 'height': 410, 'widthPercent': 0.45, 'rescaleHeight': False, 'trialN': 22, 'loaded': True, 'loadedTime': 2838.2999999523163, 'positionName': 'RIGHT', 'positionCoords': [998.4, 335], 'bid': 9.06}]",33276.799999952316,1669839298664,cherries,roastedpotatoes,8.07,9.06,0.9900000000000002,roastedpotatoes,694.5999999046326,696,695.2000000476837,True,i,34476.299999952316,1199.5,1669839299864,1200,HRV,HRV_0275,2022-11-30 20:19:35
23,"[{'imgObject': {}, 'id': 'strawberries', 'src': '/static/foodstim60/strawberries.jpg', 'key': 'u', 'origWidth': 410, 'origHeight': 410, 'width': 410, 'height': 410, 'widthPercent': 0.45, 'rescaleHeight': False, 'trialN': 23, 'loaded': True, 'loadedTime': 2829.7999999523163, 'positionName': 'LEFT', 'positionCoords': [511.6, 335], 'bid': 7.140000000000001}, {'imgObject': {}, 'id': 'mashed potato', 'src': '/static/foodstim60/mashed potato.jpg', 'key': 'i', 'origWidth': 409, 'origHeight': 409, 'width': 409, 'height': 409, 'widthPercent': 0.45, 'rescaleHeight': False, 'trialN': 23, 'loaded': True, 'loadedTime': 2810.2999999523163, 'positionName': 'RIGHT', 'positionCoords': [998.4, 335.5], 'bid': 4.63}]",34476.699999809265,1669839299864,strawberries,mashed potato,7.140000000000001,4.63,-2.5100000000000007,mashed potato,879.4000000953674,880,880.1000001430511,True,i,35879.199999809265,1402.5,1669839301267,1403,HRV,HRV_0275,2022-11-30 20:19:35
24,"[{'imgObject': {}, 'id': 'roastedpotatoes', 'src': '/static/foodstim60/roastedpotatoes.jpg', 'key': 'u', 'origWidth': 409, 'origHeight': 410, 'width': 409, 'height': 410, 'widthPercent': 0.45, 'rescaleHeight': False, 'trialN': 24, 'loaded': True, 'loadedTime': 2838.899999856949, 'positionName': 'LEFT', 'positionCoords': [512.6, 335], 'bid': 9.06}, {'imgObject': {}, 'id': 'fruitsalad', 'src': '/static/foodstim60/fruitsalad.jpg', 'key': 'i', 'origWidth': 410, 'origHeight': 410, 'width': 410, 'height': 410, 'widthPercent': 0.45, 'rescaleHeight': False, 'trialN': 24, 'loaded': True, 'loadedTime': 2839.7999999523163, 'positionName': 'RIGHT', 'positionCoords': [998.4, 335], 'bid': 8.9}]",35879.5,1669839301267,roastedpotatoes,fruitsalad,9.06,8.9,-0.16000000000000014,roastedpotatoes,659.0999999046326,660,659.5999999046326,True,u,37054.799999952316,1175.2999999523163,1669839302442,1175,HRV,HRV_0275,2022-11-30 20:19:35
25,"[{'imgObject': {}, 'id': 'pear', 'src': '/static/foodstim60/pear.jpg', 'key': 'u', 'origWidth': 411, 'origHeight': 410, 'width': 411, 'height': 410, 'widthPercent': 0.45, 'rescaleHeight': False, 'trialN': 25, 'loaded': True, 'loadedTime': 2840.0999999046326, 'positionName': 'LEFT', 'positionCoords': [510.6, 335], 'bid': 7.43}, {'imgObject': {}, 'id': 'raisin bran w milk', 'src': '/static/foodstim60/raisin bran w milk.jpg', 'key': 'i', 'origWidth': 411, 'origHeight': 411, 'width': 411, 'height': 411, 'widthPercent': 0.45, 'rescaleHeight': False, 'trialN': 25, 'loaded': True, 'loadedTime': 2841.899999856949, 'positionName': 'RIGHT', 'positionCoords': [998.4, 334.5], 'bid': 7.25}]",37054.89999985695,1669839302443,pear,raisin bran w milk,7.43,7.25,-0.17999999999999972,pear,845.5,846,845.9000000953674,True,u,38413.299999952316,1358.4000000953674,1669839303801,1358,HRV,HRV_0275,2022-11-30 20:19:35
26,"[{'imgObject': {}, 'id': 'roastedpotatoes', 'src': '/static/foodstim60/roastedpotatoes.jpg', 'key': 'u', 'origWidth': 409, 'origHeight': 410, 'width': 409, 'height': 410, 'widthPercent': 0.45, 'rescaleHeight': False, 'trialN': 26, 'loaded': True, 'loadedTime': 2838.7999999523163, 'positionName': 'LEFT', 'positionCoords': [512.6, 335], 'bid': 9.06}, {'imgObject': {}, 'id': 'pear', 'src': '/static/foodstim60/pear.jpg', 'key': 'i', 'origWidth': 411, 'origHeight': 410, 'width': 411, 'height': 410, 'widthPercent': 0.45, 'rescaleHeight': False, 'trialN': 26, 'loaded': True, 'loadedTime': 2841.399999856949, 'positionName': 'RIGHT', 'positionCoords': [998.4, 335], 'bid': 7.43}]",38413.39999985695,1669839303801,roastedpotatoes,pear,9.06,7.43,-1.6300000000000008,roastedpotatoes,914.9000000953674,916,915.2999999523163,True,u,39835.5,1422.1000001430511,1669839305224,1423,HRV,HRV_0275,2022-11-30 20:19:35
27,"[{'imgObject': {}, 'id': 'cantaloupe', 'src': '/static/foodstim60/cantaloupe.jpg', 'key': 'u', 'origWidth': 409, 'origHeight': 409, 'width': 409, 'height': 409, 'widthPercent': 0.45, 'rescaleHeight': False, 'trialN': 27, 'loaded': True, 'loadedTime': 2846.399999856949, 'positionName': 'LEFT', 'positionCoords': [512.6, 335.5], 'bid': 6.640000000000001}, {'imgObject': {}, 'id': 'eggsalad', 'src': '/static/foodstim60/eggsalad.jpg', 'key': 'i', 'origWidth': 410, 'origHeight': 409, 'width': 410, 'height': 409, 'widthPercent': 0.45, 'rescaleHeight': False, 'trialN': 27, 'loaded': True, 'loadedTime': 2811, 'positionName': 'RIGHT', 'positionCoords': [998.4, 335.5], 'bid': 5.43}]",39835.89999985695,1669839305224,cantaloupe,eggsalad,6.640000000000001,5.43,-1.2100000000000009,cantaloupe,787.5,788,787.6000001430511,True,u,41129.59999990463,1293.7000000476837,1669839306518,1294,HRV,HRV_0275,2022-11-30 20:19:35
28,"[{'imgObject': {}, 'id': 'blueberries', 'src': '/static/foodstim60/blueberries.jpg', 'key': 'u', 'origWidth': 411, 'origHeight': 411, 'width': 411, 'height': 411, 'widthPercent': 0.45, 'rescaleHeight': False, 'trialN': 28, 'loaded': True, 'loadedTime': 2813.5999999046326, 'positionName': 'LEFT', 'positionCoords': [510.6, 334.5], 'bid': 7.56}, {'imgObject': {}, 'id': 'tacos', 'src': '/static/foodstim60/tacos.jpg', 'key': 'i', 'origWidth': 411, 'origHeight': 411, 'width': 411, 'height': 411, 'widthPercent': 0.45, 'rescaleHeight': False, 'trialN': 28, 'loaded': True, 'loadedTime': 2848.899999856949, 'positionName': 'RIGHT', 'positionCoords': [998.4, 334.5], 'bid': 7.16}]",41130.0,1669839306518,blueberries,tacos,7.56,7.16,-0.39999999999999947,tacos,709.7999999523163,711,710.3999998569489,True,i,42344.699999809265,1214.6999998092651,1669839307733,1215,HRV,HRV_0275,2022-11-30 20:19:35
29,"[{'imgObject': {}, 'id': 'sushi w_condiments', 'src': '/static/foodstim60/sushi w_condiments.jpg', 'key': 'u', 'origWidth': 410, 'origHeight': 410, 'width': 410, 'height': 410, 'widthPercent': 0.45, 'rescaleHeight': False, 'trialN': 29, 'loaded': True, 'loadedTime': 2812.199999809265, 'positionName': 'LEFT', 'positionCoords': [511.6, 335], 'bid': 4.95}, {'imgObject': {}, 'id': 'baked potato', 'src': '/static/foodstim60/baked potato.jpg', 'key': 'i', 'origWidth': 409, 'origHeight': 410, 'width': 409, 'height': 410, 'widthPercent': 0.45, 'rescaleHeight': False, 'trialN': 29, 'loaded': True, 'loadedTime': 2814.7999999523163, 'positionName': 'RIGHT', 'positionCoords': [998.4, 335], 'bid': 7.48}]",42344.89999985695,1669839307733,sushi w_condiments,baked potato,4.95,7.48,2.5300000000000002,baked potato,762.2000000476837,763,762.9000000953674,True,i,43620.199999809265,1275.2999999523163,1669839309009,1276,HRV,HRV_0275,2022-11-30 20:19:35
30,"[{'imgObject': {}, 'id': 'cantaloupe', 'src': '/static/foodstim60/cantaloupe.jpg', 'key': 'u', 'origWidth': 409, 'origHeight': 409, 'width': 409, 'height': 409, 'widthPercent': 0.45, 'rescaleHeight': False, 'trialN': 30, 'loaded': True, 'loadedTime': 2847.699999809265, 'positionName': 'LEFT', 'positionCoords': [512.6, 335.5], 'bid': 6.640000000000001}, {'imgObject': {}, 'id': 'blackbeanswithrice', 'src': '/static/foodstim60/blackbeanswithrice.jpg', 'key': 'i', 'origWidth': 410, 'origHeight': 410, 'width': 410, 'height': 410, 'widthPercent': 0.45, 'rescaleHeight': False, 'trialN': 30, 'loaded': True, 'loadedTime': 2849.899999856949, 'positionName': 'RIGHT', 'positionCoords': [998.4, 335], 'bid': 7.82}]",43620.5,1669839309009,cantaloupe,blackbeanswithrice,6.640000000000001,7.82,1.1799999999999997,cantaloupe,869.0999999046326,869,869.2999999523163,True,u,44995.59999990463,1375.0999999046326,1669839310384,1375,HRV,HRV_0275,2022-11-30 20:19:35
31,"[{'imgObject': {}, 'id': 'eggs', 'src': '/static/foodstim60/eggs.jpg', 'key': 'u', 'origWidth': 409, 'origHeight': 409, 'width': 409, 'height': 409, 'widthPercent': 0.45, 'rescaleHeight': False, 'trialN': 31, 'loaded': True, 'loadedTime': 2809.0999999046326, 'positionName': 'LEFT', 'positionCoords': [512.6, 335.5], 'bid': 5.7700000000000005}, {'imgObject': {}, 'id': 'bagel plain', 'src': '/static/foodstim60/bagel plain.jpg', 'key': 'i', 'origWidth': 410, 'origHeight': 410, 'width': 410, 'height': 410, 'widthPercent': 0.45, 'rescaleHeight': False, 'trialN': 31, 'loaded': True, 'loadedTime': 2850, 'positionName': 'RIGHT', 'positionCoords': [998.4, 335], 'bid': 8.63}]",44996.0,1669839310384,eggs,bagel plain,5.7700000000000005,8.63,2.8600000000000003,bagel plain,694.0,695,694.5,True,i,46193.5,1197.5,1669839311582,1198,HRV,HRV_0275,2022-11-30 20:19:35
32,"[{'imgObject': {}, 'id': 'banana', 'src': '/static/foodstim60/banana.jpg', 'key': 'u', 'origWidth': 410, 'origHeight': 410, 'width': 410, 'height': 410, 'widthPercent': 0.45, 'rescaleHeight': False, 'trialN': 32, 'loaded': True, 'loadedTime': 2850.899999856949, 'positionName': 'LEFT', 'positionCoords': [511.6, 335], 'bid': 6.87}, {'imgObject': {}, 'id': 'edamame', 'src': '/static/foodstim60/edamame.jpg', 'key': 'i', 'origWidth': 409, 'origHeight': 410, 'width': 409, 'height': 410, 'widthPercent': 0.45, 'rescaleHeight': False, 'trialN': 32, 'loaded': True, 'loadedTime': 2853.199999809265, 'positionName': 'RIGHT', 'positionCoords': [998.4, 335], 'bid': 5.61}]",46193.59999990463,1669839311582,banana,edamame,6.87,5.61,-1.2599999999999998,banana,896.7999999523163,897,897.2000000476837,True,u,47597.39999985695,1403.7999999523163,1669839312986,1404,HRV,HRV_0275,2022-11-30 20:19:35
33,"[{'imgObject': {}, 'id': 'cheerios', 'src': '/static/foodstim60/cheerios.jpg', 'key': 'u', 'origWidth': 409, 'origHeight': 410, 'width': 409, 'height': 410, 'widthPercent': 0.45, 'rescaleHeight': False, 'trialN': 33, 'loaded': True, 'loadedTime': 2813.199999809265, 'positionName': 'LEFT', 'positionCoords': [512.6, 335], 'bid': 6.32}, {'imgObject': {}, 'id': 'omelette', 'src': '/static/foodstim60/omelette.jpg', 'key': 'i', 'origWidth': 410, 'origHeight': 409, 'width': 410, 'height': 409, 'widthPercent': 0.45, 'rescaleHeight': False, 'trialN': 33, 'loaded': True, 'loadedTime': 2856.899999856949, 'positionName': 'RIGHT', 'positionCoords': [998.4, 335.5], 'bid': 6.28}]",47597.799999952316,1669839312986,cheerios,omelette,6.32,6.28,-0.040000000000000036,omelette,901.5,902,902.0,True,i,49008.699999809265,1410.8999998569489,1669839314397,1411,HRV,HRV_0275,2022-11-30 20:19:35
34,"[{'imgObject': {}, 'id': 'baked potato', 'src': '/static/foodstim60/baked potato.jpg', 'key': 'u', 'origWidth': 409, 'origHeight': 410, 'width': 409, 'height': 410, 'widthPercent': 0.45, 'rescaleHeight': False, 'trialN': 34, 'loaded': True, 'loadedTime': 2814.2999999523163, 'positionName': 'LEFT', 'positionCoords': [512.6, 335], 'bid': 7.48}, {'imgObject': {}, 'id': 'shreddedwheatwithmilk', 'src': '/static/foodstim60/shreddedwheatwithmilk.jpg', 'key': 'i', 'origWidth': 410, 'origHeight': 410, 'width': 410, 'height': 410, 'widthPercent': 0.45, 'rescaleHeight': False, 'trialN': 34, 'loaded': True, 'loadedTime': 2857.199999809265, 'positionName': 'RIGHT', 'positionCoords': [998.4, 335], 'bid': 7.15}]",49009.09999990463,1669839314398,baked potato,shreddedwheatwithmilk,7.48,7.15,-0.33000000000000007,shreddedwheatwithmilk,1075.2999999523163,1076,1076.0,True,i,50597.59999990463,1588.5,1669839315986,1588,HRV,HRV_0275,2022-11-30 20:19:35
35,"[{'imgObject': {}, 'id': 'hotdog w must', 'src': '/static/foodstim60/hotdog w must.jpg', 'key': 'u', 'origWidth': 409, 'origHeight': 409, 'width': 409, 'height': 409, 'widthPercent': 0.45, 'rescaleHeight': False, 'trialN': 35, 'loaded': True, 'loadedTime': 2865.5, 'positionName': 'LEFT', 'positionCoords': [512.6, 335.5], 'bid': 4.44}, {'imgObject': {}, 'id': 'steak', 'src': '/static/foodstim60/steak.jpg', 'key': 'i', 'origWidth': 410, 'origHeight': 410, 'width': 410, 'height': 410, 'widthPercent': 0.45, 'rescaleHeight': False, 'trialN': 35, 'loaded': True, 'loadedTime': 2792.899999856949, 'positionName': 'RIGHT', 'positionCoords': [998.4, 335], 'bid': 4.67}]",50598.0,1669839315986,hotdog w must,steak,4.44,4.67,0.22999999999999954,steak,934.3999998569489,935,934.5,True,i,52051.5,1453.5,1669839317440,1454,HRV,HRV_0275,2022-11-30 20:19:35
36,"[{'imgObject': {}, 'id': 'veggieswithdip', 'src': '/static/foodstim60/veggieswithdip.jpg', 'key': 'u', 'origWidth': 409, 'origHeight': 409, 'width': 409, 'height': 409, 'widthPercent': 0.45, 'rescaleHeight': False, 'trialN': 36, 'loaded': True, 'loadedTime': 2865.5999999046326, 'positionName': 'LEFT', 'positionCoords': [512.6, 335.5], 'bid': 5.0600000000000005}, {'imgObject': {}, 'id': 'hotdog w must', 'src': '/static/foodstim60/hotdog w must.jpg', 'key': 'i', 'origWidth': 409, 'origHeight': 409, 'width': 409, 'height': 409, 'widthPercent': 0.45, 'rescaleHeight': False, 'trialN': 36, 'loaded': True, 'loadedTime': 2864.699999809265, 'positionName': 'RIGHT', 'positionCoords': [998.4, 335.5], 'bid': 4.44}]",52051.799999952316,1669839317440,veggieswithdip,hotdog w must,5.0600000000000005,4.44,-0.6200000000000001,veggieswithdip,1118.5999999046326,1120,1119.5,True,u,53673.0,1621.2000000476837,1669839319061,1621,HRV,HRV_0275,2022-11-30 20:19:35
37,"[{'imgObject': {}, 'id': 'grilled chicken strips', 'src': '/static/foodstim60/grilled chicken strips.jpg', 'key': 'u', 'origWidth': 410, 'origHeight': 411, 'width': 410, 'height': 411, 'widthPercent': 0.45, 'rescaleHeight': False, 'trialN': 37, 'loaded': True, 'loadedTime': 2818.199999809265, 'positionName': 'LEFT', 'positionCoords': [511.6, 334.5], 'bid': 4.94}, {'imgObject': {}, 'id': 'hotdog w must', 'src': '/static/foodstim60/hotdog w must.jpg', 'key': 'i', 'origWidth': 409, 'origHeight': 409, 'width': 409, 'height': 409, 'widthPercent': 0.45, 'rescaleHeight': False, 'trialN': 37, 'loaded': True, 'loadedTime': 2865.399999856949, 'positionName': 'RIGHT', 'positionCoords': [998.4, 335.5], 'bid': 4.44}]",53673.299999952316,1669839319062,grilled chicken strips,hotdog w must,4.94,4.44,-0.5,grilled chicken strips,911.8999998569489,912,912.3999998569489,True,u,55088.89999985695,1415.5999999046326,1669839320477,1415,HRV,HRV_0275,2022-11-30 20:19:35
38,"[{'imgObject': {}, 'id': 'orange slices', 'src': '/static/foodstim60/orange slices.jpg', 'key': 'u', 'origWidth': 409, 'origHeight': 410, 'width': 409, 'height': 410, 'widthPercent': 0.45, 'rescaleHeight': False, 'trialN': 38, 'loaded': True, 'loadedTime': 2870.899999856949, 'positionName': 'LEFT', 'positionCoords': [512.6, 335], 'bid': 6.45}, {'imgObject': {}, 'id': 'rigatoni and sauce', 'src': '/static/foodstim60/rigatoni and sauce.jpg', 'key': 'i', 'origWidth': 410, 'origHeight': 411, 'width': 410, 'height': 411, 'widthPercent': 0.45, 'rescaleHeight': False, 'trialN': 38, 'loaded': True, 'loadedTime': 2814.2999999523163, 'positionName': 'RIGHT', 'positionCoords': [998.4, 334.5], 'bid': 6.53}]",55089.199999809265,1669839320478,orange slices,rigatoni and sauce,6.45,6.53,0.08000000000000007,orange slices,1205.8000001907349,1206,1206.2000000476837,True,u,56804.89999985695,1715.7000000476837,1669839322193,1715,HRV,HRV_0275,2022-11-30 20:19:35
39,"[{'imgObject': {}, 'id': 'cherry tomato', 'src': '/static/foodstim60/cherry tomato.jpg', 'key': 'u', 'origWidth': 410, 'origHeight': 410, 'width': 410, 'height': 410, 'widthPercent': 0.45, 'rescaleHeight': False, 'trialN': 39, 'loaded': True, 'loadedTime': 2818, 'positionName': 'LEFT', 'positionCoords': [511.6, 335], 'bid': 3.17}, {'imgObject': {}, 'id': 'olives', 'src': '/static/foodstim60/olives.jpg', 'key': 'i', 'origWidth': 410, 'origHeight': 410, 'width': 410, 'height': 410, 'widthPercent': 0.45, 'rescaleHeight': False, 'trialN': 39, 'loaded': True, 'loadedTime': 2773.399999856949, 'positionName': 'RIGHT', 'positionCoords': [998.4, 335], 'bid': 1.87}]",56805.299999952316,1669839322194,cherry tomato,olives,3.17,1.87,-1.2999999999999998,cherry tomato,1018.7000000476837,1019,1019.0999999046326,True,u,58333.5,1528.2000000476837,1669839323722,1528,HRV,HRV_0275,2022-11-30 20:19:35
40,"[{'imgObject': {}, 'id': 'fruitsalad', 'src': '/static/foodstim60/fruitsalad.jpg', 'key': 'u', 'origWidth': 410, 'origHeight': 410, 'width': 410, 'height': 410, 'widthPercent': 0.45, 'rescaleHeight': False, 'trialN': 40, 'loaded': True, 'loadedTime': 2839.5999999046326, 'positionName': 'LEFT', 'positionCoords': [511.6, 335], 'bid': 8.9}, {'imgObject': {}, 'id': 'blueberries', 'src': '/static/foodstim60/blueberries.jpg', 'key': 'i', 'origWidth': 411, 'origHeight': 411, 'width': 411, 'height': 411, 'widthPercent': 0.45, 'rescaleHeight': False, 'trialN': 40, 'loaded': True, 'loadedTime': 2813.699999809265, 'positionName': 'RIGHT', 'positionCoords': [998.4, 334.5], 'bid': 7.56}]",58333.89999985695,1669839323722,fruitsalad,blueberries,8.9,7.56,-1.3400000000000007,fruitsalad,924.6000001430511,925,925.0,True,u,59764.0,1430.1000001430511,1669839325152,1430,HRV,HRV_0275,2022-11-30 20:19:35
41,"[{'imgObject': {}, 'id': 'cocktailshrimp', 'src': '/static/foodstim60/cocktailshrimp.jpg', 'key': 'u', 'origWidth': 410, 'origHeight': 410, 'width': 410, 'height': 410, 'widthPercent': 0.45, 'rescaleHeight': False, 'trialN': 41, 'loaded': True, 'loadedTime': 2816.399999856949, 'positionName': 'LEFT', 'positionCoords': [511.6, 335], 'bid': 4.61}, {'imgObject': {}, 'id': 'olives', 'src': '/static/foodstim60/olives.jpg', 'key': 'i', 'origWidth': 410, 'origHeight': 410, 'width': 410, 'height': 410, 'widthPercent': 0.45, 'rescaleHeight': False, 'trialN': 41, 'loaded': True, 'loadedTime': 2774.2999999523163, 'positionName': 'RIGHT', 'positionCoords': [998.4, 335], 'bid': 1.87}]",59764.299999952316,1669839325153,cocktailshrimp,olives,4.61,1.87,-2.74,olives,664.0999999046326,664,664.2000000476837,True,i,60949.89999985695,1185.5999999046326,1669839326338,1185,HRV,HRV_0275,2022-11-30 20:19:35
42,"[{'imgObject': {}, 'id': 'burrito', 'src': '/static/foodstim60/burrito.jpg', 'key': 'u', 'origWidth': 410, 'origHeight': 410, 'width': 410, 'height': 410, 'widthPercent': 0.45, 'rescaleHeight': False, 'trialN': 42, 'loaded': True, 'loadedTime': 2833.2999999523163, 'positionName': 'LEFT', 'positionCoords': [511.6, 335], 'bid': 8.120000000000001}, {'imgObject': {}, 'id': 'ice cream sundae 002', 'src': '/static/foodstim60/ice cream sundae 002.jpg', 'key': 'i', 'origWidth': 409, 'origHeight': 409, 'width': 409, 'height': 409, 'widthPercent': 0.45, 'rescaleHeight': False, 'trialN': 42, 'loaded': True, 'loadedTime': 2805.7999999523163, 'positionName': 'RIGHT', 'positionCoords': [998.4, 335.5], 'bid': 8.43}]",60950.199999809265,1669839326339,burrito,ice cream sundae 002,8.120000000000001,8.43,0.3099999999999987,burrito,748.7000000476837,749,749.6000001430511,True,u,62210.199999809265,1260.0,1669839327599,1260,HRV,HRV_0275,2022-11-30 20:19:35
43,"[{'imgObject': {}, 'id': 'burrito', 'src': '/static/foodstim60/burrito.jpg', 'key': 'u', 'origWidth': 410, 'origHeight': 410, 'width': 410, 'height': 410, 'widthPercent': 0.45, 'rescaleHeight': False, 'trialN': 43, 'loaded': True, 'loadedTime': 2834.199999809265, 'positionName': 'LEFT', 'positionCoords': [511.6, 335], 'bid': 8.120000000000001}, {'imgObject': {}, 'id': 'roastedpotatoes', 'src': '/static/foodstim60/roastedpotatoes.jpg', 'key': 'i', 'origWidth': 409, 'origHeight': 410, 'width': 409, 'height': 410, 'widthPercent': 0.45, 'rescaleHeight': False, 'trialN': 43, 'loaded': True, 'loadedTime': 2839, 'positionName': 'RIGHT', 'positionCoords': [998.4, 335], 'bid': 9.06}]",62210.5,1669839327599,burrito,roastedpotatoes,8.120000000000001,9.06,0.9399999999999995,roastedpotatoes,950.1999998092651,951,950.6999998092651,True,i,63680.0,1469.5,1669839329068,1469,HRV,HRV_0275,2022-11-30 20:19:35
44,"[{'imgObject': {}, 'id': 'banana', 'src': '/static/foodstim60/banana.jpg', 'key': 'u', 'origWidth': 410, 'origHeight': 410, 'width': 410, 'height': 410, 'widthPercent': 0.45, 'rescaleHeight': False, 'trialN': 44, 'loaded': True, 'loadedTime': 2850.5999999046326, 'positionName': 'LEFT', 'positionCoords': [511.6, 335], 'bid': 6.87}, {'imgObject': {}, 'id': 'yogurt no spoon', 'src': '/static/foodstim60/yogurt no spoon.jpg', 'key': 'i', 'origWidth': 411, 'origHeight': 410, 'width': 411, 'height': 410, 'widthPercent': 0.45, 'rescaleHeight': False, 'trialN': 44, 'loaded': True, 'loadedTime': 2809.899999856949, 'positionName': 'RIGHT', 'positionCoords': [998.4, 335], 'bid': 7.04}]",63680.199999809265,1669839329069,banana,yogurt no spoon,6.87,7.04,0.16999999999999993,yogurt no spoon,717.9000000953674,718,718.6000001430511,True,i,64913.199999809265,1233.0,1669839330302,1233,HRV,HRV_0275,2022-11-30 20:19:35
45,"[{'imgObject': {}, 'id': 'granola w milk', 'src': '/static/foodstim60/granola w milk.jpg', 'key': 'u', 'origWidth': 410, 'origHeight': 410, 'width': 410, 'height': 410, 'widthPercent': 0.45, 'rescaleHeight': False, 'trialN': 45, 'loaded': True, 'loadedTime': 2871.5, 'positionName': 'LEFT', 'positionCoords': [511.6, 335], 'bid': 7.54}, {'imgObject': {}, 'id': 'raspberries', 'src': '/static/foodstim60/raspberries.jpg', 'key': 'i', 'origWidth': 411, 'origHeight': 411, 'width': 411, 'height': 411, 'widthPercent': 0.45, 'rescaleHeight': False, 'trialN': 45, 'loaded': True, 'loadedTime': 2807.399999856949, 'positionName': 'RIGHT', 'positionCoords': [998.4, 334.5], 'bid': 7.16}]",64913.5,1669839330302,granola w milk,raspberries,7.54,7.16,-0.3799999999999999,granola w milk,905.7999999523163,907,906.6999998092651,True,u,66330.69999980927,1417.1999998092651,1669839331719,1417,HRV,HRV_0275,2022-11-30 20:19:35
46,"[{'imgObject': {}, 'id': 'yogurt no spoon', 'src': '/static/foodstim60/yogurt no spoon.jpg', 'key': 'u', 'origWidth': 411, 'origHeight': 410, 'width': 411, 'height': 410, 'widthPercent': 0.45, 'rescaleHeight': False, 'trialN': 46, 'loaded': True, 'loadedTime': 2809.7999999523163, 'positionName': 'LEFT', 'positionCoords': [510.6, 335], 'bid': 7.04}, {'imgObject': {}, 'id': 'rigatoni and sauce', 'src': '/static/foodstim60/rigatoni and sauce.jpg', 'key': 'i', 'origWidth': 410, 'origHeight': 411, 'width': 410, 'height': 411, 'widthPercent': 0.45, 'rescaleHeight': False, 'trialN': 46, 'loaded': True, 'loadedTime': 2814.2999999523163, 'positionName': 'RIGHT', 'positionCoords': [998.4, 334.5], 'bid': 6.53}]",66331.0,1669839331719,yogurt no spoon,rigatoni and sauce,7.04,6.53,-0.5099999999999998,yogurt no spoon,1056.0999999046326,1057,1056.6999998092651,True,u,67902.89999985695,1571.8999998569489,1669839333291,1572,HRV,HRV_0275,2022-11-30 20:19:35
47,"[{'imgObject': {}, 'id': 'sushi w_condiments', 'src': '/static/foodstim60/sushi w_condiments.jpg', 'key': 'u', 'origWidth': 410, 'origHeight': 410, 'width': 410, 'height': 410, 'widthPercent': 0.45, 'rescaleHeight': False, 'trialN': 47, 'loaded': True, 'loadedTime': 2812, 'positionName': 'LEFT', 'positionCoords': [511.6, 335], 'bid': 4.95}, {'imgObject': {}, 'id': 'turkey sandwich', 'src': '/static/foodstim60/turkey sandwich.jpg', 'key': 'i', 'origWidth': 409, 'origHeight': 409, 'width': 409, 'height': 409, 'widthPercent': 0.45, 'rescaleHeight': False, 'trialN': 47, 'loaded': True, 'loadedTime': 2824.5, 'positionName': 'RIGHT', 'positionCoords': [998.4, 335.5], 'bid': 4.84}]",67903.29999995232,1669839333292,sushi w_condiments,turkey sandwich,4.95,4.84,-0.11000000000000032,turkey sandwich,699.0,699,699.7000000476837,True,i,69119.89999985695,1216.5999999046326,1669839334508,1216,HRV,HRV_0275,2022-11-30 20:19:35
48,"[{'imgObject': {}, 'id': 'raisin bran w milk', 'src': '/static/foodstim60/raisin bran w milk.jpg', 'key': 'u', 'origWidth': 411, 'origHeight': 411, 'width': 411, 'height': 411, 'widthPercent': 0.45, 'rescaleHeight': False, 'trialN': 48, 'loaded': True, 'loadedTime': 2841.899999856949, 'positionName': 'LEFT', 'positionCoords': [510.6, 334.5], 'bid': 7.25}, {'imgObject': {}, 'id': 'turkey sandwich', 'src': '/static/foodstim60/turkey sandwich.jpg', 'key': 'i', 'origWidth': 409, 'origHeight': 409, 'width': 409, 'height': 409, 'widthPercent': 0.45, 'rescaleHeight': False, 'trialN': 48, 'loaded': True, 'loadedTime': 2820.399999856949, 'positionName': 'RIGHT', 'positionCoords': [998.4, 335.5], 'bid': 4.84}]",69120.29999995232,1669839334509,raisin bran w milk,turkey sandwich,7.25,4.84,-2.41,turkey sandwich,1079.2999999523163,1079,1079.2999999523163,True,i,70710.0,1589.7000000476837,1669839336098,1589,HRV,HRV_0275,2022-11-30 20:19:35
49,"[{'imgObject': {}, 'id': 'froot loops w milk', 'src': '/static/foodstim60/froot loops w milk.jpg', 'key': 'u', 'origWidth': 410, 'origHeight': 410, 'width': 410, 'height': 410, 'widthPercent': 0.45, 'rescaleHeight': False, 'trialN': 49, 'loaded': True, 'loadedTime': 2811.5, 'positionName': 'LEFT', 'positionCoords': [511.6, 335], 'bid': 6.61}, {'imgObject': {}, 'id': 'seaweed', 'src': '/static/foodstim60/seaweed.jpg', 'key': 'i', 'origWidth': 410, 'origHeight': 410, 'width': 410, 'height': 410, 'widthPercent': 0.45, 'rescaleHeight': False, 'trialN': 49, 'loaded': True, 'loadedTime': 2785.5, 'positionName': 'RIGHT', 'positionCoords': [998.4, 335], 'bid': 6.5600000000000005}]",70710.29999995232,1669839336099,froot loops w milk,seaweed,6.61,6.5600000000000005,-0.04999999999999982,seaweed,892.2999999523163,893,893.0999999046326,True,i,72116.19999980927,1405.8999998569489,1669839337505,1406,HRV,HRV_0275,2022-11-30 20:19:35
50,"[{'imgObject': {}, 'id': 'granola w milk', 'src': '/static/foodstim60/granola w milk.jpg', 'key': 'u', 'origWidth': 410, 'origHeight': 410, 'width': 410, 'height': 410, 'widthPercent': 0.45, 'rescaleHeight': False, 'trialN': 50, 'loaded': True, 'loadedTime': 2871.5, 'positionName': 'LEFT', 'positionCoords': [511.6, 335], 'bid': 7.54}, {'imgObject': {}, 'id': 'seaweed', 'src': '/static/foodstim60/seaweed.jpg', 'key': 'i', 'origWidth': 410, 'origHeight': 410, 'width': 410, 'height': 410, 'widthPercent': 0.45, 'rescaleHeight': False, 'trialN': 50, 'loaded': True, 'loadedTime': 2785.0999999046326, 'positionName': 'RIGHT', 'positionCoords': [998.4, 335], 'bid': 6.5600000000000005}]",72116.39999985695,1669839337505,granola w milk,seaweed,7.54,6.5600000000000005,-0.9799999999999995,seaweed,1075.2000000476837,1076,1075.7999999523163,True,i,73708.09999990463,1591.7000000476837,1669839339097,1592,HRV,HRV_0275,2022-11-30 20:19:35
51,"[{'imgObject': {}, 'id': 'burger', 'src': '/static/foodstim60/burger.jpg', 'key': 'u', 'origWidth': 409, 'origHeight': 409, 'width': 409, 'height': 409, 'widthPercent': 0.45, 'rescaleHeight': False, 'trialN': 51, 'loaded': True, 'loadedTime': 2815.899999856949, 'positionName': 'LEFT', 'positionCoords': [512.6, 335.5], 'bid': 4.53}, {'imgObject': {}, 'id': 'lox', 'src': '/static/foodstim60/lox.jpg', 'key': 'i', 'origWidth': 410, 'origHeight': 411, 'width': 410, 'height': 411, 'widthPercent': 0.45, 'rescaleHeight': False, 'trialN': 51, 'loaded': True, 'loadedTime': 2792.899999856949, 'positionName': 'RIGHT', 'positionCoords': [998.4, 334.5], 'bid': 4.72}]",73708.19999980927,1669839339097,burger,lox,4.53,4.72,0.1899999999999995,burger,874.9000000953674,875,875.2000000476837,True,u,75091.39999985695,1383.2000000476837,1669839340480,1383,HRV,HRV_0275,2022-11-30 20:19:35
52,"[{'imgObject': {}, 'id': 'mac & cheese', 'src': '/static/foodstim60/mac & cheese.jpg', 'key': 'u', 'origWidth': 410, 'origHeight': 410, 'width': 410, 'height': 410, 'widthPercent': 0.45, 'rescaleHeight': False, 'trialN': 52, 'loaded': True, 'loadedTime': 2787.5, 'positionName': 'LEFT', 'positionCoords': [511.6, 335], 'bid': 8.120000000000001}, {'imgObject': {}, 'id': 'corn cob', 'src': '/static/foodstim60/corn cob.jpg', 'key': 'i', 'origWidth': 411, 'origHeight': 411, 'width': 411, 'height': 411, 'widthPercent': 0.45, 'rescaleHeight': False, 'trialN': 52, 'loaded': True, 'loadedTime': 2815.399999856949, 'positionName': 'RIGHT', 'positionCoords': [998.4, 334.5], 'bid': 5.41}]",75091.69999980927,1669839340480,mac & cheese,corn cob,8.120000000000001,5.41,-2.710000000000001,mac & cheese,809.4000000953674,810,809.8000001907349,True,u,76419.0,1327.3000001907349,1669839341807,1327,HRV,HRV_0275,2022-11-30 20:19:35
53,"[{'imgObject': {}, 'id': 'chicken nuggets2', 'src': '/static/foodstim60/chicken nuggets2.jpg', 'key': 'u', 'origWidth': 410, 'origHeight': 409, 'width': 410, 'height': 409, 'widthPercent': 0.45, 'rescaleHeight': False, 'trialN': 53, 'loaded': True, 'loadedTime': 2875.199999809265, 'positionName': 'LEFT', 'positionCoords': [511.6, 335.5], 'bid': 5.18}, {'imgObject': {}, 'id': 'grilled chicken strips', 'src': '/static/foodstim60/grilled chicken strips.jpg', 'key': 'i', 'origWidth': 410, 'origHeight': 411, 'width': 410, 'height': 411, 'widthPercent': 0.45, 'rescaleHeight': False, 'trialN': 53, 'loaded': True, 'loadedTime': 2818.699999809265, 'positionName': 'RIGHT', 'positionCoords': [998.4, 334.5], 'bid': 4.94}]",76419.39999985695,1669839341808,chicken nuggets2,grilled chicken strips,5.18,4.94,-0.23999999999999932,chicken nuggets2,1553.1000001430511,1554,1554.1000001430511,True,u,78494.89999985695,2075.5,1669839343883,2075,HRV,HRV_0275,2022-11-30 20:19:35
54,"[{'imgObject': {}, 'id': 'froot loops w milk', 'src': '/static/foodstim60/froot loops w milk.jpg', 'key': 'u', 'origWidth': 410, 'origHeight': 410, 'width': 410, 'height': 410, 'widthPercent': 0.45, 'rescaleHeight': False, 'trialN': 54, 'loaded': True, 'loadedTime': 2811.5, 'positionName': 'LEFT', 'positionCoords': [511.6, 335], 'bid': 6.61}, {'imgObject': {}, 'id': 'eggs', 'src': '/static/foodstim60/eggs.jpg', 'key': 'i', 'origWidth': 409, 'origHeight': 409, 'width': 409, 'height': 409, 'widthPercent': 0.45, 'rescaleHeight': False, 'trialN': 54, 'loaded': True, 'loadedTime': 2809.199999809265, 'positionName': 'RIGHT', 'positionCoords': [998.4, 335.5], 'bid': 5.7700000000000005}]",78495.19999980927,1669839343884,froot loops w milk,eggs,6.61,5.7700000000000005,-0.8399999999999999,froot loops w milk,777.4000000953674,778,778.1000001430511,True,u,79777.0,1281.8000001907349,1669839345165,1281,HRV,HRV_0275,2022-11-30 20:19:35
55,"[{'imgObject': {}, 'id': 'luckycharms', 'src': '/static/foodstim60/luckycharms.jpg', 'key': 'u', 'origWidth': 410, 'origHeight': 409, 'width': 410, 'height': 409, 'widthPercent': 0.45, 'rescaleHeight': False, 'trialN': 55, 'loaded': True, 'loadedTime': 2875.7999999523163, 'positionName': 'LEFT', 'positionCoords': [511.6, 335.5], 'bid': 7.07}, {'imgObject': {}, 'id': 'strawberries', 'src': '/static/foodstim60/strawberries.jpg', 'key': 'i', 'origWidth': 410, 'origHeight': 410, 'width': 410, 'height': 410, 'widthPercent': 0.45, 'rescaleHeight': False, 'trialN': 55, 'loaded': True, 'loadedTime': 2830, 'positionName': 'RIGHT', 'positionCoords': [998.4, 335], 'bid': 7.140000000000001}]",79777.29999995232,1669839345166,luckycharms,strawberries,7.07,7.140000000000001,0.07000000000000028,luckycharms,1207.0,1208,1207.7000000476837,True,u,81490.09999990463,1712.7999999523163,1669839346879,1713,HRV,HRV_0275,2022-11-30 20:19:35
56,"[{'imgObject': {}, 'id': 'yogurt no spoon', 'src': '/static/foodstim60/yogurt no spoon.jpg', 'key': 'u', 'origWidth': 411, 'origHeight': 410, 'width': 411, 'height': 410, 'widthPercent': 0.45, 'rescaleHeight': False, 'trialN': 56, 'loaded': True, 'loadedTime': 2809.899999856949, 'positionName': 'LEFT', 'positionCoords': [510.6, 335], 'bid': 7.04}, {'imgObject': {}, 'id': 'rigatoni', 'src': '/static/foodstim60/rigatoni.jpg', 'key': 'i', 'origWidth': 411, 'origHeight': 411, 'width': 411, 'height': 411, 'widthPercent': 0.45, 'rescaleHeight': False, 'trialN': 56, 'loaded': True, 'loadedTime': 2876.399999856949, 'positionName': 'RIGHT', 'positionCoords': [998.4, 334.5], 'bid': 6.93}]",81490.19999980927,1669839346879,yogurt no spoon,rigatoni,7.04,6.93,-0.11000000000000032,yogurt no spoon,1066.2000000476837,1067,1067.0,True,u,83074.09999990463,1583.9000000953674,1669839348463,1584,HRV,HRV_0275,2022-11-30 20:19:35
57,"[{'imgObject': {}, 'id': 'mashed potato', 'src': '/static/foodstim60/mashed potato.jpg', 'key': 'u', 'origWidth': 409, 'origHeight': 409, 'width': 409, 'height': 409, 'widthPercent': 0.45, 'rescaleHeight': False, 'trialN': 57, 'loaded': True, 'loadedTime': 2809.899999856949, 'positionName': 'LEFT', 'positionCoords': [512.6, 335.5], 'bid': 4.63}, {'imgObject': {}, 'id': 'chickenfingers', 'src': '/static/foodstim60/chickenfingers.jpg', 'key': 'i', 'origWidth': 410, 'origHeight': 410, 'width': 410, 'height': 410, 'widthPercent': 0.45, 'rescaleHeight': False, 'trialN': 57, 'loaded': True, 'loadedTime': 2877, 'positionName': 'RIGHT', 'positionCoords': [998.4, 335], 'bid': 5.04}]",83074.39999985695,1669839348463,mashed potato,chickenfingers,4.63,5.04,0.41000000000000014,chickenfingers,900.2999999523163,901,900.9000000953674,True,i,84493.5,1419.1000001430511,1669839349882,1419,HRV,HRV_0275,2022-11-30 20:19:35
58,"[{'imgObject': {}, 'id': 'mashed potato', 'src': '/static/foodstim60/mashed potato.jpg', 'key': 'u', 'origWidth': 409, 'origHeight': 409, 'width': 409, 'height': 409, 'widthPercent': 0.45, 'rescaleHeight': False, 'trialN': 58, 'loaded': True, 'loadedTime': 2810.2999999523163, 'positionName': 'LEFT', 'positionCoords': [512.6, 335.5], 'bid': 4.63}, {'imgObject': {}, 'id': 'cocktailshrimp', 'src': '/static/foodstim60/cocktailshrimp.jpg', 'key': 'i', 'origWidth': 410, 'origHeight': 410, 'width': 410, 'height': 410, 'widthPercent': 0.45, 'rescaleHeight': False, 'trialN': 58, 'loaded': True, 'loadedTime': 2816.5, 'positionName': 'RIGHT', 'positionCoords': [998.4, 335], 'bid': 4.61}]",84493.59999990463,1669839349882,mashed potato,cocktailshrimp,4.63,4.61,-0.019999999999999574,mashed potato,647.0999999046326,648,648.2000000476837,True,u,85649.89999985695,1156.2999999523163,1669839351038,1156,HRV,HRV_0275,2022-11-30 20:19:35
59,"[{'imgObject': {}, 'id': 'raisin bran w milk', 'src': '/static/foodstim60/raisin bran w milk.jpg', 'key': 'u', 'origWidth': 411, 'origHeight': 411, 'width': 411, 'height': 411, 'widthPercent': 0.45, 'rescaleHeight': False, 'trialN': 59, 'loaded': True, 'loadedTime': 2841.399999856949, 'positionName': 'LEFT', 'positionCoords': [510.6, 334.5], 'bid': 7.25}, {'imgObject': {}, 'id': 'tacos', 'src': '/static/foodstim60/tacos.jpg', 'key': 'i', 'origWidth': 411, 'origHeight': 411, 'width': 411, 'height': 411, 'widthPercent': 0.45, 'rescaleHeight': False, 'trialN': 59, 'loaded': True, 'loadedTime': 2848.199999809265, 'positionName': 'RIGHT', 'positionCoords': [998.4, 334.5], 'bid': 7.16}]",85650.19999980927,1669839351039,raisin bran w milk,tacos,7.25,7.16,-0.08999999999999986,tacos,706.8000001907349,707,707.4000000953674,True,i,86879.89999985695,1229.7000000476837,1669839352268,1229,HRV,HRV_0275,2022-11-30 20:19:35
60,"[{'imgObject': {}, 'id': 'corn cob', 'src': '/static/foodstim60/corn cob.jpg', 'key': 'u', 'origWidth': 411, 'origHeight': 411, 'width': 411, 'height': 411, 'widthPercent': 0.45, 'rescaleHeight': False, 'trialN': 60, 'loaded': True, 'loadedTime': 2815.399999856949, 'positionName': 'LEFT', 'positionCoords': [510.6, 334.5], 'bid': 5.41}, {'imgObject': {}, 'id': 'froot loops w milk', 'src': '/static/foodstim60/froot loops w milk.jpg', 'key': 'i', 'origWidth': 410, 'origHeight': 410, 'width': 410, 'height': 410, 'widthPercent': 0.45, 'rescaleHeight': False, 'trialN': 60, 'loaded': True, 'loadedTime': 2811.0999999046326, 'positionName': 'RIGHT', 'positionCoords': [998.4, 335], 'bid': 6.61}]",86880.19999980927,1669839352269,corn cob,froot loops w milk,5.41,6.61,1.2000000000000002,froot loops w milk,898.5,899,899.1000001430511,True,i,88281.09999990463,1400.9000000953674,1669839353670,1401,HRV,HRV_0275,2022-11-30 20:19:35
61,"[{'imgObject': {}, 'id': 'bagel and cc', 'src': '/static/foodstim60/bagel and cc.jpg', 'key': 'u', 'origWidth': 410, 'origHeight': 410, 'width': 410, 'height': 410, 'widthPercent': 0.45, 'rescaleHeight': False, 'trialN': 61, 'loaded': True, 'loadedTime': 2877.399999856949, 'positionName': 'LEFT', 'positionCoords': [511.6, 335], 'bid': 9.05}, {'imgObject': {}, 'id': 'cheerios', 'src': '/static/foodstim60/cheerios.jpg', 'key': 'i', 'origWidth': 409, 'origHeight': 410, 'width': 409, 'height': 410, 'widthPercent': 0.45, 'rescaleHeight': False, 'trialN': 61, 'loaded': True, 'loadedTime': 2813.0999999046326, 'positionName': 'RIGHT', 'positionCoords': [998.4, 335], 'bid': 6.32}]",88281.5,1669839353670,bagel and cc,cheerios,9.05,6.32,-2.7300000000000004,bagel and cc,727.6999998092651,728,728.3999998569489,True,u,89525.69999980927,1244.1999998092651,1669839354914,1244,HRV,HRV_0275,2022-11-30 20:19:35
62,"[{'imgObject': {}, 'id': 'fruitsalad', 'src': '/static/foodstim60/fruitsalad.jpg', 'key': 'u', 'origWidth': 410, 'origHeight': 410, 'width': 410, 'height': 410, 'widthPercent': 0.45, 'rescaleHeight': False, 'trialN': 62, 'loaded': True, 'loadedTime': 2839.5, 'positionName': 'LEFT', 'positionCoords': [511.6, 335], 'bid': 8.9}, {'imgObject': {}, 'id': 'apple slices', 'src': '/static/foodstim60/apple slices.jpg', 'key': 'i', 'origWidth': 409, 'origHeight': 410, 'width': 409, 'height': 410, 'widthPercent': 0.45, 'rescaleHeight': False, 'trialN': 62, 'loaded': True, 'loadedTime': 2880.7999999523163, 'positionName': 'RIGHT', 'positionCoords': [998.4, 335], 'bid': 7.25}]",89525.79999995232,1669839354914,fruitsalad,apple slices,8.9,7.25,-1.6500000000000004,fruitsalad,739.7999999523163,741,740.2999999523163,True,u,90783.89999985695,1258.0999999046326,1669839356172,1258,HRV,HRV_0275,2022-11-30 20:19:35
63,"[{'imgObject': {}, 'id': 'orange slices', 'src': '/static/foodstim60/orange slices.jpg', 'key': 'u', 'origWidth': 409, 'origHeight': 410, 'width': 409, 'height': 410, 'widthPercent': 0.45, 'rescaleHeight': False, 'trialN': 63, 'loaded': True, 'loadedTime': 2870.899999856949, 'positionName': 'LEFT', 'positionCoords': [512.6, 335], 'bid': 6.45}, {'imgObject': {}, 'id': 'seaweed', 'src': '/static/foodstim60/seaweed.jpg', 'key': 'i', 'origWidth': 410, 'origHeight': 410, 'width': 410, 'height': 410, 'widthPercent': 0.45, 'rescaleHeight': False, 'trialN': 63, 'loaded': True, 'loadedTime': 2785.199999809265, 'positionName': 'RIGHT', 'positionCoords': [998.4, 335], 'bid': 6.5600000000000005}]",90784.19999980927,1669839356173,orange slices,seaweed,6.45,6.5600000000000005,0.11000000000000032,orange slices,934.6000001430511,935,935.3000001907349,True,u,92238.89999985695,1454.7000000476837,1669839357627,1454,HRV,HRV_0275,2022-11-30 20:19:35
64,"[{'imgObject': {}, 'id': 'shreddedwheatwithmilk', 'src': '/static/foodstim60/shreddedwheatwithmilk.jpg', 'key': 'u', 'origWidth': 410, 'origHeight': 410, 'width': 410, 'height': 410, 'widthPercent': 0.45, 'rescaleHeight': False, 'trialN': 64, 'loaded': True, 'loadedTime': 2857.699999809265, 'positionName': 'LEFT', 'positionCoords': [511.6, 335], 'bid': 7.15}, {'imgObject': {}, 'id': 'avocado', 'src': '/static/foodstim60/avocado.jpg', 'key': 'i', 'origWidth': 409, 'origHeight': 409, 'width': 409, 'height': 409, 'widthPercent': 0.45, 'rescaleHeight': False, 'trialN': 64, 'loaded': True, 'loadedTime': 2881.2999999523163, 'positionName': 'RIGHT', 'positionCoords': [998.4, 335.5], 'bid': 4.67}]",92239.39999985695,1669839357628,shreddedwheatwithmilk,avocado,7.15,4.67,-2.4800000000000004,shreddedwheatwithmilk,832.9000000953674,834,833.7000000476837,True,u,93580.69999980927,1341.2999999523163,1669839358969,1341,HRV,HRV_0275,2022-11-30 20:19:35
65,"[{'imgObject': {}, 'id': 'apple slices', 'src': '/static/foodstim60/apple slices.jpg', 'key': 'u', 'origWidth': 409, 'origHeight': 410, 'width': 409, 'height': 410, 'widthPercent': 0.45, 'rescaleHeight': False, 'trialN': 65, 'loaded': True, 'loadedTime': 2880.7999999523163, 'positionName': 'LEFT', 'positionCoords': [512.6, 335], 'bid': 7.25}, {'imgObject': {}, 'id': 'tacos', 'src': '/static/foodstim60/tacos.jpg', 'key': 'i', 'origWidth': 411, 'origHeight': 411, 'width': 411, 'height': 411, 'widthPercent': 0.45, 'rescaleHeight': False, 'trialN': 65, 'loaded': True, 'loadedTime': 2849, 'positionName': 'RIGHT', 'positionCoords': [998.4, 334.5], 'bid': 7.16}]",93581.0,1669839358969,apple slices,tacos,7.25,7.16,-0.08999999999999986,tacos,725.2999999523163,727,726.0,True,i,94812.0,1231.0,1669839360200,1231,HRV,HRV_0275,2022-11-30 20:19:35
66,"[{'imgObject': {}, 'id': 'chicken nuggets2', 'src': '/static/foodstim60/chicken nuggets2.jpg', 'key': 'u', 'origWidth': 410, 'origHeight': 409, 'width': 410, 'height': 409, 'widthPercent': 0.45, 'rescaleHeight': False, 'trialN': 66, 'loaded': True, 'loadedTime': 2872, 'positionName': 'LEFT', 'positionCoords': [511.6, 335.5], 'bid': 5.18}, {'imgObject': {}, 'id': 'chickenfingers', 'src': '/static/foodstim60/chickenfingers.jpg', 'key': 'i', 'origWidth': 410, 'origHeight': 410, 'width': 410, 'height': 410, 'widthPercent': 0.45, 'rescaleHeight': False, 'trialN': 66, 'loaded': True, 'loadedTime': 2876.899999856949, 'positionName': 'RIGHT', 'positionCoords': [998.4, 335], 'bid': 5.04}]",94812.29999995232,1669839360201,chicken nuggets2,chickenfingers,5.18,5.04,-0.13999999999999968,chickenfingers,1176.5999999046326,1177,1177.2999999523163,True,i,96501.09999990463,1688.7999999523163,1669839361890,1689,HRV,HRV_0275,2022-11-30 20:19:35
67,"[{'imgObject': {}, 'id': 'cherry tomato', 'src': '/static/foodstim60/cherry tomato.jpg', 'key': 'u', 'origWidth': 410, 'origHeight': 410, 'width': 410, 'height': 410, 'widthPercent': 0.45, 'rescaleHeight': False, 'trialN': 67, 'loaded': True, 'loadedTime': 2818.0999999046326, 'positionName': 'LEFT', 'positionCoords': [511.6, 335], 'bid': 3.17}, {'imgObject': {}, 'id': 'hotdog w must', 'src': '/static/foodstim60/hotdog w must.jpg', 'key': 'i', 'origWidth': 409, 'origHeight': 409, 'width': 409, 'height': 409, 'widthPercent': 0.45, 'rescaleHeight': False, 'trialN': 67, 'loaded': True, 'loadedTime': 2865.5, 'positionName': 'RIGHT', 'positionCoords': [998.4, 335.5], 'bid': 4.44}]",96501.5,1669839361890,cherry tomato,hotdog w must,3.17,4.44,1.2700000000000005,hotdog w must,1429.8999998569489,1430,1430.0999999046326,True,i,98442.89999985695,1941.3999998569489,1669839363831,1941,HRV,HRV_0275,2022-11-30 20:19:35
68,"[{'imgObject': {}, 'id': 'turkey sandwich', 'src': '/static/foodstim60/turkey sandwich.jpg', 'key': 'u', 'origWidth': 409, 'origHeight': 409, 'width': 409, 'height': 409, 'widthPercent': 0.45, 'rescaleHeight': False, 'trialN': 68, 'loaded': True, 'loadedTime': 2824.7999999523163, 'positionName': 'LEFT', 'positionCoords': [512.6, 335.5], 'bid': 4.84}, {'imgObject': {}, 'id': 'cheerios', 'src': '/static/foodstim60/cheerios.jpg', 'key': 'i', 'origWidth': 409, 'origHeight': 410, 'width': 409, 'height': 410, 'widthPercent': 0.45, 'rescaleHeight': False, 'trialN': 68, 'loaded': True, 'loadedTime': 2813.0999999046326, 'positionName': 'RIGHT', 'positionCoords': [998.4, 335], 'bid': 6.32}]",98443.29999995232,1669839363832,turkey sandwich,cheerios,4.84,6.32,1.4800000000000004,turkey sandwich,829.2000000476837,830,829.8999998569489,True,u,99781.29999995232,1338.0,1669839365170,1338,HRV,HRV_0275,2022-11-30 20:19:35
69,"[{'imgObject': {}, 'id': 'burrito', 'src': '/static/foodstim60/burrito.jpg', 'key': 'u', 'origWidth': 410, 'origHeight': 410, 'width': 410, 'height': 410, 'widthPercent': 0.45, 'rescaleHeight': False, 'trialN': 69, 'loaded': True, 'loadedTime': 2833.7999999523163, 'positionName': 'LEFT', 'positionCoords': [511.6, 335], 'bid': 8.120000000000001}, {'imgObject': {}, 'id': 'raisin bran w milk', 'src': '/static/foodstim60/raisin bran w milk.jpg', 'key': 'i', 'origWidth': 411, 'origHeight': 411, 'width': 411, 'height': 411, 'widthPercent': 0.45, 'rescaleHeight': False, 'trialN': 69, 'loaded': True, 'loadedTime': 2846.2999999523163, 'positionName': 'RIGHT', 'positionCoords': [998.4, 334.5], 'bid': 7.25}]",99781.5,1669839365170,burrito,raisin bran w milk,8.120000000000001,7.25,-0.870000000000001,burrito,839.7999999523163,840,840.3999998569489,True,u,101123.29999995232,1341.7999999523163,1669839366512,1342,HRV,HRV_0275,2022-11-30 20:19:35
70,"[{'imgObject': {}, 'id': 'rigatoni', 'src': '/static/foodstim60/rigatoni.jpg', 'key': 'u', 'origWidth': 411, 'origHeight': 411, 'width': 411, 'height': 411, 'widthPercent': 0.45, 'rescaleHeight': False, 'trialN': 70, 'loaded': True, 'loadedTime': 2876.399999856949, 'positionName': 'LEFT', 'positionCoords': [510.6, 334.5], 'bid': 6.93}, {'imgObject': {}, 'id': 'burger', 'src': '/static/foodstim60/burger.jpg', 'key': 'i', 'origWidth': 409, 'origHeight': 409, 'width': 409, 'height': 409, 'widthPercent': 0.45, 'rescaleHeight': False, 'trialN': 70, 'loaded': True, 'loadedTime': 2815.899999856949, 'positionName': 'RIGHT', 'positionCoords': [998.4, 335.5], 'bid': 4.53}]",101123.69999980927,1669839366512,rigatoni,burger,6.93,4.53,-2.3999999999999995,burger,849.8000001907349,851,850.5,True,i,102489.19999980927,1365.5,1669839367878,1366,HRV,HRV_0275,2022-11-30 20:19:35
71,"[{'imgObject': {}, 'id': 'yogurt no spoon', 'src': '/static/foodstim60/yogurt no spoon.jpg', 'key': 'u', 'origWidth': 411, 'origHeight': 410, 'width': 411, 'height': 410, 'widthPercent': 0.45, 'rescaleHeight': False, 'trialN': 71, 'loaded': True, 'loadedTime': 2809.699999809265, 'positionName': 'LEFT', 'positionCoords': [510.6, 335], 'bid': 7.04}, {'imgObject': {}, 'id': 'popsicles', 'src': '/static/foodstim60/popsicles.jpg', 'key': 'i', 'origWidth': 410, 'origHeight': 410, 'width': 410, 'height': 410, 'widthPercent': 0.45, 'rescaleHeight': False, 'trialN': 71, 'loaded': True, 'loadedTime': 2883.199999809265, 'positionName': 'RIGHT', 'positionCoords': [998.4, 335], 'bid': 4.6000000000000005}]",102489.59999990463,1669839367878,yogurt no spoon,popsicles,7.04,4.6000000000000005,-2.4399999999999995,yogurt no spoon,806.9000000953674,808,807.4000000953674,True,u,103814.5,1324.9000000953674,1669839369203,1325,HRV,HRV_0275,2022-11-30 20:19:35
72,"[{'imgObject': {}, 'id': 'rigatoni and sauce', 'src': '/static/foodstim60/rigatoni and sauce.jpg', 'key': 'u', 'origWidth': 410, 'origHeight': 411, 'width': 410, 'height': 411, 'widthPercent': 0.45, 'rescaleHeight': False, 'trialN': 72, 'loaded': True, 'loadedTime': 2814.2999999523163, 'positionName': 'LEFT', 'positionCoords': [511.6, 334.5], 'bid': 6.53}, {'imgObject': {}, 'id': 'Tribe humus pita', 'src': '/static/foodstim60/Tribe humus pita.jpg', 'key': 'i', 'origWidth': 411, 'origHeight': 411, 'width': 411, 'height': 411, 'widthPercent': 0.45, 'rescaleHeight': False, 'trialN': 72, 'loaded': True, 'loadedTime': 2808.5, 'positionName': 'RIGHT', 'positionCoords': [998.4, 334.5], 'bid': 9.57}]",103814.89999985695,1669839369203,rigatoni and sauce,Tribe humus pita,6.53,9.57,3.04,Tribe humus pita,851.7999999523163,853,852.4000000953674,True,i,105183.5,1368.6000001430511,1669839370572,1369,HRV,HRV_0275,2022-11-30 20:19:35
73,"[{'imgObject': {}, 'id': 'veggieswithdip', 'src': '/static/foodstim60/veggieswithdip.jpg', 'key': 'u', 'origWidth': 409, 'origHeight': 409, 'width': 409, 'height': 409, 'widthPercent': 0.45, 'rescaleHeight': False, 'trialN': 73, 'loaded': True, 'loadedTime': 2869.7999999523163, 'positionName': 'LEFT', 'positionCoords': [512.6, 335.5], 'bid': 5.0600000000000005}, {'imgObject': {}, 'id': 'cherries', 'src': '/static/foodstim60/cherries.jpg', 'key': 'i', 'origWidth': 410, 'origHeight': 411, 'width': 410, 'height': 411, 'widthPercent': 0.45, 'rescaleHeight': False, 'trialN': 73, 'loaded': True, 'loadedTime': 2817.5, 'positionName': 'RIGHT', 'positionCoords': [998.4, 334.5], 'bid': 8.07}]",105183.79999995232,1669839370572,veggieswithdip,cherries,5.0600000000000005,8.07,3.01,cherries,1141.2000000476837,1142,1141.8999998569489,True,i,106837.5,1653.7000000476837,1669839372226,1654,HRV,HRV_0275,2022-11-30 20:19:35
74,"[{'imgObject': {}, 'id': 'bagel plain', 'src': '/static/foodstim60/bagel plain.jpg', 'key': 'u', 'origWidth': 410, 'origHeight': 410, 'width': 410, 'height': 410, 'widthPercent': 0.45, 'rescaleHeight': False, 'trialN': 74, 'loaded': True, 'loadedTime': 2850.399999856949, 'positionName': 'LEFT', 'positionCoords': [511.6, 335], 'bid': 8.63}, {'imgObject': {}, 'id': 'granola w milk', 'src': '/static/foodstim60/granola w milk.jpg', 'key': 'i', 'origWidth': 410, 'origHeight': 410, 'width': 410, 'height': 410, 'widthPercent': 0.45, 'rescaleHeight': False, 'trialN': 74, 'loaded': True, 'loadedTime': 2871.5, 'positionName': 'RIGHT', 'positionCoords': [998.4, 335], 'bid': 7.54}]",106838.0,1669839372226,bagel plain,granola w milk,8.63,7.54,-1.0900000000000007,bagel plain,825.5999999046326,827,826.0999999046326,True,u,108169.19999980927,1331.1999998092651,1669839373558,1332,HRV,HRV_0275,2022-11-30 20:19:35
75,"[{'imgObject': {}, 'id': 'raspberries', 'src': '/static/foodstim60/raspberries.jpg', 'key': 'u', 'origWidth': 411, 'origHeight': 411, 'width': 411, 'height': 411, 'widthPercent': 0.45, 'rescaleHeight': False, 'trialN': 75, 'loaded': True, 'loadedTime': 2807.5999999046326, 'positionName': 'LEFT', 'positionCoords': [510.6, 334.5], 'bid': 7.16}, {'imgObject': {}, 'id': 'rigatoni and sauce', 'src': '/static/foodstim60/rigatoni and sauce.jpg', 'key': 'i', 'origWidth': 410, 'origHeight': 411, 'width': 410, 'height': 411, 'widthPercent': 0.45, 'rescaleHeight': False, 'trialN': 75, 'loaded': True, 'loadedTime': 2813.7999999523163, 'positionName': 'RIGHT', 'positionCoords': [998.4, 334.5], 'bid': 6.53}]",108169.5,1669839373558,raspberries,rigatoni and sauce,7.16,6.53,-0.6299999999999999,rigatoni and sauce,1047.6999998092651,1048,1048.5,True,i,109726.59999990463,1557.0999999046326,1669839375115,1557,HRV,HRV_0275,2022-11-30 20:19:35
76,"[{'imgObject': {}, 'id': 'blackbeanswithrice', 'src': '/static/foodstim60/blackbeanswithrice.jpg', 'key': 'u', 'origWidth': 410, 'origHeight': 410, 'width': 410, 'height': 410, 'widthPercent': 0.45, 'rescaleHeight': False, 'trialN': 76, 'loaded': True, 'loadedTime': 2849.0999999046326, 'positionName': 'LEFT', 'positionCoords': [511.6, 335], 'bid': 7.82}, {'imgObject': {}, 'id': 'bagel and cc', 'src': '/static/foodstim60/bagel and cc.jpg', 'key': 'i', 'origWidth': 410, 'origHeight': 410, 'width': 410, 'height': 410, 'widthPercent': 0.45, 'rescaleHeight': False, 'trialN': 76, 'loaded': True, 'loadedTime': 2877.399999856949, 'positionName': 'RIGHT', 'positionCoords': [998.4, 335], 'bid': 9.05}]",109726.89999985695,1669839375115,blackbeanswithrice,bagel and cc,7.82,9.05,1.2300000000000004,bagel and cc,822.5,823,822.7000000476837,True,i,111064.5,1337.6000001430511,1669839376453,1338,HRV,HRV_0275,2022-11-30 20:19:35
77,"[{'imgObject': {}, 'id': 'apple slices', 'src': '/static/foodstim60/apple slices.jpg', 'key': 'u', 'origWidth': 409, 'origHeight': 410, 'width': 409, 'height': 410, 'widthPercent': 0.45, 'rescaleHeight': False, 'trialN': 77, 'loaded': True, 'loadedTime': 2877.399999856949, 'positionName': 'LEFT', 'positionCoords': [512.6, 335], 'bid': 7.25}, {'imgObject': {}, 'id': 'salmon', 'src': '/static/foodstim60/salmon.jpg', 'key': 'i', 'origWidth': 410, 'origHeight': 409, 'width': 410, 'height': 409, 'widthPercent': 0.45, 'rescaleHeight': False, 'trialN': 77, 'loaded': True, 'loadedTime': 2881.7999999523163, 'positionName': 'RIGHT', 'positionCoords': [998.4, 335.5], 'bid': 4.73}]",111064.89999985695,1669839376453,apple slices,salmon,7.25,4.73,-2.5199999999999996,apple slices,846.9000000953674,848,847.6000001430511,True,u,112427.19999980927,1362.2999999523163,1669839377816,1363,HRV,HRV_0275,2022-11-30 20:19:35
78,"[{'imgObject': {}, 'id': 'olives', 'src': '/static/foodstim60/olives.jpg', 'key': 'u', 'origWidth': 410, 'origHeight': 410, 'width': 410, 'height': 410, 'widthPercent': 0.45, 'rescaleHeight': False, 'trialN': 78, 'loaded': True, 'loadedTime': 2777.2999999523163, 'positionName': 'LEFT', 'positionCoords': [511.6, 335], 'bid': 1.87}, {'imgObject': {}, 'id': 'salad w chicken', 'src': '/static/foodstim60/salad w chicken.jpg', 'key': 'i', 'origWidth': 411, 'origHeight': 411, 'width': 411, 'height': 411, 'widthPercent': 0.45, 'rescaleHeight': False, 'trialN': 78, 'loaded': True, 'loadedTime': 2836.5, 'positionName': 'RIGHT', 'positionCoords': [998.4, 334.5], 'bid': 5.03}]",112427.59999990463,1669839377816,olives,salad w chicken,1.87,5.03,3.16,olives,1355.7000000476837,1357,1356.5,True,u,114298.69999980927,1871.0999999046326,1669839379687,1871,HRV,HRV_0275,2022-11-30 20:19:35
79,"[{'imgObject': {}, 'id': 'omelette', 'src': '/static/foodstim60/omelette.jpg', 'key': 'u', 'origWidth': 410, 'origHeight': 409, 'width': 410, 'height': 409, 'widthPercent': 0.45, 'rescaleHeight': False, 'trialN': 79, 'loaded': True, 'loadedTime': 2857.0999999046326, 'positionName': 'LEFT', 'positionCoords': [511.6, 335.5], 'bid': 6.28}, {'imgObject': {}, 'id': 'kiwi', 'src': '/static/foodstim60/kiwi.jpg', 'key': 'i', 'origWidth': 410, 'origHeight': 410, 'width': 410, 'height': 410, 'widthPercent': 0.45, 'rescaleHeight': False, 'trialN': 79, 'loaded': True, 'loadedTime': 2882.2999999523163, 'positionName': 'RIGHT', 'positionCoords': [998.4, 335], 'bid': 5.71}]",114299.0,1669839379688,omelette,kiwi,6.28,5.71,-0.5700000000000003,omelette,884.0999999046326,884,884.3999998569489,True,u,115701.89999985695,1402.8999998569489,1669839381090,1402,HRV,HRV_0275,2022-11-30 20:19:35
80,"[{'imgObject': {}, 'id': 'edamame', 'src': '/static/foodstim60/edamame.jpg', 'key': 'u', 'origWidth': 409, 'origHeight': 410, 'width': 409, 'height': 410, 'widthPercent': 0.45, 'rescaleHeight': False, 'trialN': 80, 'loaded': True, 'loadedTime': 2853.199999809265, 'positionName': 'LEFT', 'positionCoords': [512.6, 335], 'bid': 5.61}, {'imgObject': {}, 'id': 'ice cream sundae 002', 'src': '/static/foodstim60/ice cream sundae 002.jpg', 'key': 'i', 'origWidth': 409, 'origHeight': 409, 'width': 409, 'height': 409, 'widthPercent': 0.45, 'rescaleHeight': False, 'trialN': 80, 'loaded': True, 'loadedTime': 2800.7999999523163, 'positionName': 'RIGHT', 'positionCoords': [998.4, 335.5], 'bid': 8.43}]",115702.19999980927,1669839381091,edamame,ice cream sundae 002,5.61,8.43,2.8199999999999994,ice cream sundae 002,937.5,938,938.4000000953674,True,i,117155.79999995232,1453.6000001430511,1669839382544,1453,HRV,HRV_0275,2022-11-30 20:19:35
81,"[{'imgObject': {}, 'id': 'cherry tomato', 'src': '/static/foodstim60/cherry tomato.jpg', 'key': 'u', 'origWidth': 410, 'origHeight': 410, 'width': 410, 'height': 410, 'widthPercent': 0.45, 'rescaleHeight': False, 'trialN': 81, 'loaded': True, 'loadedTime': 2818.0999999046326, 'positionName': 'LEFT', 'positionCoords': [511.6, 335], 'bid': 3.17}, {'imgObject': {}, 'id': 'turkeysandwich', 'src': '/static/foodstim60/turkeysandwich.jpg', 'key': 'i', 'origWidth': 409, 'origHeight': 409, 'width': 409, 'height': 409, 'widthPercent': 0.45, 'rescaleHeight': False, 'trialN': 81, 'loaded': True, 'loadedTime': 2836.5, 'positionName': 'RIGHT', 'positionCoords': [998.4, 335.5], 'bid': 5.04}]",117156.19999980927,1669839382545,cherry tomato,turkeysandwich,3.17,5.04,1.87,turkeysandwich,734.2000000476837,734,734.3000001907349,True,i,118402.69999980927,1246.5,1669839383791,1246,HRV,HRV_0275,2022-11-30 20:19:35
82,"[{'imgObject': {}, 'id': 'avocado', 'src': '/static/foodstim60/avocado.jpg', 'key': 'u', 'origWidth': 409, 'origHeight': 409, 'width': 409, 'height': 409, 'widthPercent': 0.45, 'rescaleHeight': False, 'trialN': 82, 'loaded': True, 'loadedTime': 2881.2999999523163, 'positionName': 'LEFT', 'positionCoords': [512.6, 335.5], 'bid': 4.67}, {'imgObject': {}, 'id': 'edamame', 'src': '/static/foodstim60/edamame.jpg', 'key': 'i', 'origWidth': 409, 'origHeight': 410, 'width': 409, 'height': 410, 'widthPercent': 0.45, 'rescaleHeight': False, 'trialN': 82, 'loaded': True, 'loadedTime': 2853.2999999523163, 'positionName': 'RIGHT', 'positionCoords': [998.4, 335], 'bid': 5.61}]",118403.09999990463,1669839383792,avocado,edamame,4.67,5.61,0.9400000000000004,edamame,1149.5,1149,1149.7000000476837,True,i,120069.69999980927,1666.5999999046326,1669839385458,1666,HRV,HRV_0275,2022-11-30 20:19:35
83,"[{'imgObject': {}, 'id': 'cherries', 'src': '/static/foodstim60/cherries.jpg', 'key': 'u', 'origWidth': 410, 'origHeight': 411, 'width': 410, 'height': 411, 'widthPercent': 0.45, 'rescaleHeight': False, 'trialN': 83, 'loaded': True, 'loadedTime': 2817.5, 'positionName': 'LEFT', 'positionCoords': [511.6, 334.5], 'bid': 8.07}, {'imgObject': {}, 'id': 'banana', 'src': '/static/foodstim60/banana.jpg', 'key': 'i', 'origWidth': 410, 'origHeight': 410, 'width': 410, 'height': 410, 'widthPercent': 0.45, 'rescaleHeight': False, 'trialN': 83, 'loaded': True, 'loadedTime': 2850.899999856949, 'positionName': 'RIGHT', 'positionCoords': [998.4, 335], 'bid': 6.87}]",120070.0,1669839385459,cherries,banana,8.07,6.87,-1.2000000000000002,banana,1334.2999999523163,1335,1335.0999999046326,True,i,121919.5,1849.5,1669839387308,1849,HRV,HRV_0275,2022-11-30 20:19:35
84,"[{'imgObject': {}, 'id': 'omelette', 'src': '/static/foodstim60/omelette.jpg', 'key': 'u', 'origWidth': 410, 'origHeight': 409, 'width': 410, 'height': 409, 'widthPercent': 0.45, 'rescaleHeight': False, 'trialN': 84, 'loaded': True, 'loadedTime': 2853.2999999523163, 'positionName': 'LEFT', 'positionCoords': [511.6, 335.5], 'bid': 6.28}, {'imgObject': {}, 'id': 'cantaloupe', 'src': '/static/foodstim60/cantaloupe.jpg', 'key': 'i', 'origWidth': 409, 'origHeight': 409, 'width': 409, 'height': 409, 'widthPercent': 0.45, 'rescaleHeight': False, 'trialN': 84, 'loaded': True, 'loadedTime': 2848, 'positionName': 'RIGHT', 'positionCoords': [998.4, 335.5], 'bid': 6.640000000000001}]",121919.79999995232,1669839387308,omelette,cantaloupe,6.28,6.640000000000001,0.3600000000000003,omelette,1072.0999999046326,1073,1072.7999999523163,True,u,123511.19999980927,1591.3999998569489,1669839388900,1592,HRV,HRV_0275,2022-11-30 20:19:35
85,"[{'imgObject': {}, 'id': 'Tribe humus pita', 'src': '/static/foodstim60/Tribe humus pita.jpg', 'key': 'u', 'origWidth': 411, 'origHeight': 411, 'width': 411, 'height': 411, 'widthPercent': 0.45, 'rescaleHeight': False, 'trialN': 85, 'loaded': True, 'loadedTime': 2807.899999856949, 'positionName': 'LEFT', 'positionCoords': [510.6, 334.5], 'bid': 9.57}, {'imgObject': {}, 'id': 'roastedpotatoes', 'src': '/static/foodstim60/roastedpotatoes.jpg', 'key': 'i', 'origWidth': 409, 'origHeight': 410, 'width': 409, 'height': 410, 'widthPercent': 0.45, 'rescaleHeight': False, 'trialN': 85, 'loaded': True, 'loadedTime': 2839, 'positionName': 'RIGHT', 'positionCoords': [998.4, 335], 'bid': 9.06}]",123511.59999990463,1669839388900,Tribe humus pita,roastedpotatoes,9.57,9.06,-0.5099999999999998,Tribe humus pita,745.2999999523163,746,745.9000000953674,True,u,124760.69999980927,1249.0999999046326,1669839390149,1249,HRV,HRV_0275,2022-11-30 20:19:35
86,"[{'imgObject': {}, 'id': 'mango', 'src': '/static/foodstim60/mango.jpg', 'key': 'u', 'origWidth': 411, 'origHeight': 411, 'width': 411, 'height': 411, 'widthPercent': 0.45, 'rescaleHeight': False, 'trialN': 86, 'loaded': True, 'loadedTime': 2786.5999999046326, 'positionName': 'LEFT', 'positionCoords': [510.6, 334.5], 'bid': 8.09}, {'imgObject': {}, 'id': 'chicken nuggets2', 'src': '/static/foodstim60/chicken nuggets2.jpg', 'key': 'i', 'origWidth': 410, 'origHeight': 409, 'width': 410, 'height': 409, 'widthPercent': 0.45, 'rescaleHeight': False, 'trialN': 86, 'loaded': True, 'loadedTime': 2875.199999809265, 'positionName': 'RIGHT', 'positionCoords': [998.4, 335.5], 'bid': 5.18}]",124761.19999980927,1669839390150,mango,chicken nuggets2,8.09,5.18,-2.91,mango,1487.1000001430511,1488,1488.0,True,u,126758.89999985695,1997.7000000476837,1669839392147,1997,HRV,HRV_0275,2022-11-30 20:19:35
87,"[{'imgObject': {}, 'id': 'shreddedwheatwithmilk', 'src': '/static/foodstim60/shreddedwheatwithmilk.jpg', 'key': 'u', 'origWidth': 410, 'origHeight': 410, 'width': 410, 'height': 410, 'widthPercent': 0.45, 'rescaleHeight': False, 'trialN': 87, 'loaded': True, 'loadedTime': 2861.899999856949, 'positionName': 'LEFT', 'positionCoords': [511.6, 335], 'bid': 7.15}, {'imgObject': {}, 'id': 'orange slices', 'src': '/static/foodstim60/orange slices.jpg', 'key': 'i', 'origWidth': 409, 'origHeight': 410, 'width': 409, 'height': 410, 'widthPercent': 0.45, 'rescaleHeight': False, 'trialN': 87, 'loaded': True, 'loadedTime': 2870.199999809265, 'positionName': 'RIGHT', 'positionCoords': [998.4, 335], 'bid': 6.45}]",126759.19999980927,1669839392148,shreddedwheatwithmilk,orange slices,7.15,6.45,-0.7000000000000002,shreddedwheatwithmilk,1015.3000001907349,1016,1015.9000000953674,True,u,128291.0,1531.8000001907349,1669839393680,1532,HRV,HRV_0275,2022-11-30 20:19:35
88,"[{'imgObject': {}, 'id': 'salad w chicken', 'src': '/static/foodstim60/salad w chicken.jpg', 'key': 'u', 'origWidth': 411, 'origHeight': 411, 'width': 411, 'height': 411, 'widthPercent': 0.45, 'rescaleHeight': False, 'trialN': 88, 'loaded': True, 'loadedTime': 2837.199999809265, 'positionName': 'LEFT', 'positionCoords': [510.6, 334.5], 'bid': 5.03}, {'imgObject': {}, 'id': 'sushi w_condiments', 'src': '/static/foodstim60/sushi w_condiments.jpg', 'key': 'i', 'origWidth': 410, 'origHeight': 410, 'width': 410, 'height': 410, 'widthPercent': 0.45, 'rescaleHeight': False, 'trialN': 88, 'loaded': True, 'loadedTime': 2811.5999999046326, 'positionName': 'RIGHT', 'positionCoords': [998.4, 335], 'bid': 4.95}]",128291.5,1669839393680,salad w chicken,sushi w_condiments,5.03,4.95,-0.08000000000000007,salad w chicken,1117.8999998569489,1118,1118.3999998569489,True,u,129916.39999985695,1624.8999998569489,1669839395305,1625,HRV,HRV_0275,2022-11-30 20:19:35
89,"[{'imgObject': {}, 'id': 'burrito', 'src': '/static/foodstim60/burrito.jpg', 'key': 'u', 'origWidth': 410, 'origHeight': 410, 'width': 410, 'height': 410, 'widthPercent': 0.45, 'rescaleHeight': False, 'trialN': 89, 'loaded': True, 'loadedTime': 2834, 'positionName': 'LEFT', 'positionCoords': [511.6, 335], 'bid': 8.120000000000001}, {'imgObject': {}, 'id': 'sweetpotato', 'src': '/static/foodstim60/sweetpotato.jpg', 'key': 'i', 'origWidth': 410, 'origHeight': 410, 'width': 410, 'height': 410, 'widthPercent': 0.45, 'rescaleHeight': False, 'trialN': 89, 'loaded': True, 'loadedTime': 2816.5, 'positionName': 'RIGHT', 'positionCoords': [998.4, 335], 'bid': 8.47}]",129916.79999995232,1669839395305,burrito,sweetpotato,8.120000000000001,8.47,0.34999999999999964,burrito,990.5,992,991.2000000476837,True,u,131409.79999995232,1493.0,1669839396798,1493,HRV,HRV_0275,2022-11-30 20:19:35
90,"[{'imgObject': {}, 'id': 'chickenfingers', 'src': '/static/foodstim60/chickenfingers.jpg', 'key': 'u', 'origWidth': 410, 'origHeight': 410, 'width': 410, 'height': 410, 'widthPercent': 0.45, 'rescaleHeight': False, 'trialN': 90, 'loaded': True, 'loadedTime': 2876.899999856949, 'positionName': 'LEFT', 'positionCoords': [511.6, 335], 'bid': 5.04}, {'imgObject': {}, 'id': 'turkeysandwich', 'src': '/static/foodstim60/turkeysandwich.jpg', 'key': 'i', 'origWidth': 409, 'origHeight': 409, 'width': 409, 'height': 409, 'widthPercent': 0.45, 'rescaleHeight': False, 'trialN': 90, 'loaded': True, 'loadedTime': 2836.199999809265, 'positionName': 'RIGHT', 'positionCoords': [998.4, 335.5], 'bid': 5.04}]",134927.5,1669839400316,chickenfingers,turkeysandwich,5.04,5.04,0.0,turkeysandwich,1961.8999998569489,1963,1962.5999999046326,True,i,137406.19999980927,2478.699999809265,1669839402795,2479,HRV,HRV_0275,2022-11-30 20:19:35
91,"[{'imgObject': {}, 'id': 'kiwi', 'src': '/static/foodstim60/kiwi.jpg', 'key': 'u', 'origWidth': 410, 'origHeight': 410, 'width': 410, 'height': 410, 'widthPercent': 0.45, 'rescaleHeight': False, 'trialN': 91, 'loaded': True, 'loadedTime': 2882.2999999523163, 'positionName': 'LEFT', 'positionCoords': [511.6, 335], 'bid': 5.71}, {'imgObject': {}, 'id': 'steak', 'src': '/static/foodstim60/steak.jpg', 'key': 'i', 'origWidth': 410, 'origHeight': 410, 'width': 410, 'height': 410, 'widthPercent': 0.45, 'rescaleHeight': False, 'trialN': 91, 'loaded': True, 'loadedTime': 2800.5, 'positionName': 'RIGHT', 'positionCoords': [998.4, 335], 'bid': 4.67}]",137406.5,1669839402795,kiwi,steak,5.71,4.67,-1.04,kiwi,969.3999998569489,970,970.0999999046326,True,u,138888.0,1481.5,1669839404277,1482,HRV,HRV_0275,2022-11-30 20:19:35
92,"[{'imgObject': {}, 'id': 'banana', 'src': '/static/foodstim60/banana.jpg', 'key': 'u', 'origWidth': 410, 'origHeight': 410, 'width': 410, 'height': 410, 'widthPercent': 0.45, 'rescaleHeight': False, 'trialN': 92, 'loaded': True, 'loadedTime': 2851.0999999046326, 'positionName': 'LEFT', 'positionCoords': [511.6, 335], 'bid': 6.87}, {'imgObject': {}, 'id': 'cantaloupe', 'src': '/static/foodstim60/cantaloupe.jpg', 'key': 'i', 'origWidth': 409, 'origHeight': 409, 'width': 409, 'height': 409, 'widthPercent': 0.45, 'rescaleHeight': False, 'trialN': 92, 'loaded': True, 'loadedTime': 2847.0999999046326, 'positionName': 'RIGHT', 'positionCoords': [998.4, 335.5], 'bid': 6.640000000000001}]",138888.39999985695,1669839404277,banana,cantaloupe,6.87,6.640000000000001,-0.22999999999999954,banana,1117.0,1118,1117.7000000476837,True,u,140524.39999985695,1636.0,1669839405913,1636,HRV,HRV_0275,2022-11-30 20:19:35
93,"[{'imgObject': {}, 'id': 'grilled chicken strips', 'src': '/static/foodstim60/grilled chicken strips.jpg', 'key': 'u', 'origWidth': 410, 'origHeight': 411, 'width': 410, 'height': 411, 'widthPercent': 0.45, 'rescaleHeight': False, 'trialN': 93, 'loaded': True, 'loadedTime': 2820.199999809265, 'positionName': 'LEFT', 'positionCoords': [511.6, 334.5], 'bid': 4.94}, {'imgObject': {}, 'id': 'pear', 'src': '/static/foodstim60/pear.jpg', 'key': 'i', 'origWidth': 411, 'origHeight': 410, 'width': 411, 'height': 410, 'widthPercent': 0.45, 'rescaleHeight': False, 'trialN': 93, 'loaded': True, 'loadedTime': 2840.0999999046326, 'positionName': 'RIGHT', 'positionCoords': [998.4, 335], 'bid': 7.43}]",140524.79999995232,1669839405913,grilled chicken strips,pear,4.94,7.43,2.4899999999999993,pear,889.7999999523163,891,890.5,True,i,141933.09999990463,1408.2999999523163,1669839407322,1409,HRV,HRV_0275,2022-11-30 20:19:35
94,"[{'imgObject': {}, 'id': 'salmon', 'src': '/static/foodstim60/salmon.jpg', 'key': 'u', 'origWidth': 410, 'origHeight': 409, 'width': 410, 'height': 409, 'widthPercent': 0.45, 'rescaleHeight': False, 'trialN': 94, 'loaded': True, 'loadedTime': 2881.699999809265, 'positionName': 'LEFT', 'positionCoords': [511.6, 335.5], 'bid': 4.73}, {'imgObject': {}, 'id': 'popsicles', 'src': '/static/foodstim60/popsicles.jpg', 'key': 'i', 'origWidth': 410, 'origHeight': 410, 'width': 410, 'height': 410, 'widthPercent': 0.45, 'rescaleHeight': False, 'trialN': 94, 'loaded': True, 'loadedTime': 2883.199999809265, 'positionName': 'RIGHT', 'positionCoords': [998.4, 335], 'bid': 4.6000000000000005}]",141933.29999995232,1669839407322,salmon,popsicles,4.73,4.6000000000000005,-0.1299999999999999,popsicles,1029.3999998569489,1030,1030.0,True,i,143470.09999990463,1536.7999999523163,1669839408859,1537,HRV,HRV_0275,2022-11-30 20:19:35
95,"[{'imgObject': {}, 'id': 'chicken nuggets2', 'src': '/static/foodstim60/chicken nuggets2.jpg', 'key': 'u', 'origWidth': 410, 'origHeight': 409, 'width': 410, 'height': 409, 'widthPercent': 0.45, 'rescaleHeight': False, 'trialN': 95, 'loaded': True, 'loadedTime': 2875.0999999046326, 'positionName': 'LEFT', 'positionCoords': [511.6, 335.5], 'bid': 5.18}, {'imgObject': {}, 'id': 'veggieswithdip', 'src': '/static/foodstim60/veggieswithdip.jpg', 'key': 'i', 'origWidth': 409, 'origHeight': 409, 'width': 409, 'height': 409, 'widthPercent': 0.45, 'rescaleHeight': False, 'trialN': 95, 'loaded': True, 'loadedTime': 2870, 'positionName': 'RIGHT', 'positionCoords': [998.4, 335.5], 'bid': 5.0600000000000005}]",143470.39999985695,1669839408859,chicken nuggets2,veggieswithdip,5.18,5.0600000000000005,-0.11999999999999922,chicken nuggets2,1085.9000000953674,1087,1086.6000001430511,True,u,145074.79999995232,1604.4000000953674,1669839410463,1604,HRV,HRV_0275,2022-11-30 20:19:35
96,"[{'imgObject': {}, 'id': 'lox', 'src': '/static/foodstim60/lox.jpg', 'key': 'u', 'origWidth': 410, 'origHeight': 411, 'width': 410, 'height': 411, 'widthPercent': 0.45, 'rescaleHeight': False, 'trialN': 96, 'loaded': True, 'loadedTime': 2789.0999999046326, 'positionName': 'LEFT', 'positionCoords': [511.6, 334.5], 'bid': 4.72}, {'imgObject': {}, 'id': 'avocado', 'src': '/static/foodstim60/avocado.jpg', 'key': 'i', 'origWidth': 409, 'origHeight': 409, 'width': 409, 'height': 409, 'widthPercent': 0.45, 'rescaleHeight': False, 'trialN': 96, 'loaded': True, 'loadedTime': 2880.7999999523163, 'positionName': 'RIGHT', 'positionCoords': [998.4, 335.5], 'bid': 4.67}]",145075.0,1669839410463,lox,avocado,4.72,4.67,-0.04999999999999982,avocado,847.7999999523163,849,848.6999998092651,True,i,146430.19999980927,1355.1999998092651,1669839411819,1356,HRV,HRV_0275,2022-11-30 20:19:35
97,"[{'imgObject': {}, 'id': 'fried eggs', 'src': '/static/foodstim60/fried eggs.jpg', 'key': 'u', 'origWidth': 410, 'origHeight': 410, 'width': 410, 'height': 410, 'widthPercent': 0.45, 'rescaleHeight': False, 'trialN': 97, 'loaded': True, 'loadedTime': 2812.199999809265, 'positionName': 'LEFT', 'positionCoords': [511.6, 335], 'bid': 5.33}, {'imgObject': {}, 'id': 'corn cob', 'src': '/static/foodstim60/corn cob.jpg', 'key': 'i', 'origWidth': 411, 'origHeight': 411, 'width': 411, 'height': 411, 'widthPercent': 0.45, 'rescaleHeight': False, 'trialN': 97, 'loaded': True, 'loadedTime': 2814.899999856949, 'positionName': 'RIGHT', 'positionCoords': [998.4, 334.5], 'bid': 5.41}]",146430.59999990463,1669839411819,fried eggs,corn cob,5.33,5.41,0.08000000000000007,fried eggs,1009.5999999046326,1010,1010.2999999523163,True,u,147958.19999980927,1527.5999999046326,1669839413347,1528,HRV,HRV_0275,2022-11-30 20:19:35
98,"[{'imgObject': {}, 'id': 'ice cream sundae 002', 'src': '/static/foodstim60/ice cream sundae 002.jpg', 'key': 'u', 'origWidth': 409, 'origHeight': 409, 'width': 409, 'height': 409, 'widthPercent': 0.45, 'rescaleHeight': False, 'trialN': 98, 'loaded': True, 'loadedTime': 2805.5999999046326, 'positionName': 'LEFT', 'positionCoords': [512.6, 335.5], 'bid': 8.43}, {'imgObject': {}, 'id': 'pear', 'src': '/static/foodstim60/pear.jpg', 'key': 'i', 'origWidth': 411, 'origHeight': 410, 'width': 411, 'height': 410, 'widthPercent': 0.45, 'rescaleHeight': False, 'trialN': 98, 'loaded': True, 'loadedTime': 2839.7999999523163, 'positionName': 'RIGHT', 'positionCoords': [998.4, 335], 'bid': 7.43}]",147958.5,1669839413347,ice cream sundae 002,pear,8.43,7.43,-1.0,ice cream sundae 002,972.0,972,972.0999999046326,True,u,149434.69999980927,1476.1999998092651,1669839414823,1476,HRV,HRV_0275,2022-11-30 20:19:35
99,"[{'imgObject': {}, 'id': 'shreddedwheatwithmilk', 'src': '/static/foodstim60/shreddedwheatwithmilk.jpg', 'key': 'u', 'origWidth': 410, 'origHeight': 410, 'width': 410, 'height': 410, 'widthPercent': 0.45, 'rescaleHeight': False, 'trialN': 99, 'loaded': True, 'loadedTime': 2857.699999809265, 'positionName': 'LEFT', 'positionCoords': [511.6, 335], 'bid': 7.15}, {'imgObject': {}, 'id': 'ice cream sundae 002', 'src': '/static/foodstim60/ice cream sundae 002.jpg', 'key': 'i', 'origWidth': 409, 'origHeight': 409, 'width': 409, 'height': 409, 'widthPercent': 0.45, 'rescaleHeight': False, 'trialN': 99, 'loaded': True, 'loadedTime': 2806.399999856949, 'positionName': 'RIGHT', 'positionCoords': [998.4, 335.5], 'bid': 8.43}]",149435.0,1669839414824,shreddedwheatwithmilk,ice cream sundae 002,7.15,8.43,1.2799999999999994,ice cream sundae 002,1152.5,1152,1152.5999999046326,True,i,151094.89999985695,1659.8999998569489,1669839416483,1659,HRV,HRV_0275,2022-11-30 20:19:35
100,"[{'imgObject': {}, 'id': 'salmon', 'src': '/static/foodstim60/salmon.jpg', 'key': 'u', 'origWidth': 410, 'origHeight': 409, 'width': 410, 'height': 409, 'widthPercent': 0.45, 'rescaleHeight': False, 'trialN': 100, 'loaded': True, 'loadedTime': 2881.7999999523163, 'positionName': 'LEFT', 'positionCoords': [511.6, 335.5], 'bid': 4.73}, {'imgObject': {}, 'id': 'lox', 'src': '/static/foodstim60/lox.jpg', 'key': 'i', 'origWidth': 410, 'origHeight': 411, 'width': 410, 'height': 411, 'widthPercent': 0.45, 'rescaleHeight': False, 'trialN': 100, 'loaded': True, 'loadedTime': 2788.5999999046326, 'positionName': 'RIGHT', 'positionCoords': [998.4, 334.5], 'bid': 4.72}]",151095.09999990463,1669839416484,salmon,lox,4.73,4.72,-0.010000000000000675,salmon,1134.2000000476837,1135,1134.9000000953674,True,u,152740.69999980927,1645.5999999046326,1669839418129,1645,HRV,HRV_0275,2022-11-30 20:19:35
101,"[{'imgObject': {}, 'id': 'tacos', 'src': '/static/foodstim60/tacos.jpg', 'key': 'u', 'origWidth': 411, 'origHeight': 411, 'width': 411, 'height': 411, 'widthPercent': 0.45, 'rescaleHeight': False, 'trialN': 101, 'loaded': True, 'loadedTime': 2849.0999999046326, 'positionName': 'LEFT', 'positionCoords': [510.6, 334.5], 'bid': 7.16}, {'imgObject': {}, 'id': 'lox', 'src': '/static/foodstim60/lox.jpg', 'key': 'i', 'origWidth': 410, 'origHeight': 411, 'width': 410, 'height': 411, 'widthPercent': 0.45, 'rescaleHeight': False, 'trialN': 101, 'loaded': True, 'loadedTime': 2789.0999999046326, 'positionName': 'RIGHT', 'positionCoords': [998.4, 334.5], 'bid': 4.72}]",152741.09999990463,1669839418130,tacos,lox,7.16,4.72,-2.4400000000000004,tacos,834.4000000953674,834,834.5999999046326,True,u,154084.59999990463,1343.5,1669839419473,1343,HRV,HRV_0275,2022-11-30 20:19:35
102,"[{'imgObject': {}, 'id': 'bagel and cc', 'src': '/static/foodstim60/bagel and cc.jpg', 'key': 'u', 'origWidth': 410, 'origHeight': 410, 'width': 410, 'height': 410, 'widthPercent': 0.45, 'rescaleHeight': False, 'trialN': 102, 'loaded': True, 'loadedTime': 2877.2999999523163, 'positionName': 'LEFT', 'positionCoords': [511.6, 335], 'bid': 9.05}, {'imgObject': {}, 'id': 'Tribe humus pita', 'src': '/static/foodstim60/Tribe humus pita.jpg', 'key': 'i', 'origWidth': 411, 'origHeight': 411, 'width': 411, 'height': 411, 'widthPercent': 0.45, 'rescaleHeight': False, 'trialN': 102, 'loaded': True, 'loadedTime': 2808.399999856949, 'positionName': 'RIGHT', 'positionCoords': [998.4, 334.5], 'bid': 9.57}]",154084.89999985695,1669839419473,bagel and cc,Tribe humus pita,9.05,9.57,0.5199999999999996,Tribe humus pita,1072.9000000953674,1074,1073.5,True,i,155664.69999980927,1579.7999999523163,1669839421053,1580,HRV,HRV_0275,2022-11-30 20:19:35
103,"[{'imgObject': {}, 'id': 'eggsalad', 'src': '/static/foodstim60/eggsalad.jpg', 'key': 'u', 'origWidth': 410, 'origHeight': 409, 'width': 410, 'height': 409, 'widthPercent': 0.45, 'rescaleHeight': False, 'trialN': 103, 'loaded': True, 'loadedTime': 2810.899999856949, 'positionName': 'LEFT', 'positionCoords': [511.6, 335.5], 'bid': 5.43}, {'imgObject': {}, 'id': 'edamame', 'src': '/static/foodstim60/edamame.jpg', 'key': 'i', 'origWidth': 409, 'origHeight': 410, 'width': 409, 'height': 410, 'widthPercent': 0.45, 'rescaleHeight': False, 'trialN': 103, 'loaded': True, 'loadedTime': 2853.0999999046326, 'positionName': 'RIGHT', 'positionCoords': [998.4, 335], 'bid': 5.61}]",155664.89999985695,1669839421053,eggsalad,edamame,5.43,5.61,0.1800000000000006,edamame,1382.2000000476837,1383,1382.6000001430511,True,i,157560.29999995232,1895.4000000953674,1669839422949,1896,HRV,HRV_0275,2022-11-30 20:19:35
104,"[{'imgObject': {}, 'id': 'burrito', 'src': '/static/foodstim60/burrito.jpg', 'key': 'u', 'origWidth': 410, 'origHeight': 410, 'width': 410, 'height': 410, 'widthPercent': 0.45, 'rescaleHeight': False, 'trialN': 104, 'loaded': True, 'loadedTime': 2834, 'positionName': 'LEFT', 'positionCoords': [511.6, 335], 'bid': 8.120000000000001}, {'imgObject': {}, 'id': 'eggsalad', 'src': '/static/foodstim60/eggsalad.jpg', 'key': 'i', 'origWidth': 410, 'origHeight': 409, 'width': 410, 'height': 409, 'widthPercent': 0.45, 'rescaleHeight': False, 'trialN': 104, 'loaded': True, 'loadedTime': 2810.5, 'positionName': 'RIGHT', 'positionCoords': [998.4, 335.5], 'bid': 5.43}]",157560.59999990463,1669839422949,burrito,eggsalad,8.120000000000001,5.43,-2.6900000000000013,burrito,772.4000000953674,773,773.0999999046326,True,u,158842.89999985695,1282.2999999523163,1669839424232,1283,HRV,HRV_0275,2022-11-30 20:19:35
105,"[{'imgObject': {}, 'id': 'bagel plain', 'src': '/static/foodstim60/bagel plain.jpg', 'key': 'u', 'origWidth': 410, 'origHeight': 410, 'width': 410, 'height': 410, 'widthPercent': 0.45, 'rescaleHeight': False, 'trialN': 105, 'loaded': True, 'loadedTime': 2850.5, 'positionName': 'LEFT', 'positionCoords': [511.6, 335], 'bid': 8.63}, {'imgObject': {}, 'id': 'sweetpotato', 'src': '/static/foodstim60/sweetpotato.jpg', 'key': 'i', 'origWidth': 410, 'origHeight': 410, 'width': 410, 'height': 410, 'widthPercent': 0.45, 'rescaleHeight': False, 'trialN': 105, 'loaded': True, 'loadedTime': 2817, 'positionName': 'RIGHT', 'positionCoords': [998.4, 335], 'bid': 8.47}]",158843.39999985695,1669839424232,bagel plain,sweetpotato,8.63,8.47,-0.16000000000000014,bagel plain,950.9000000953674,951,951.7000000476837,True,u,160307.59999990463,1464.2000000476837,1669839425696,1464,HRV,HRV_0275,2022-11-30 20:19:35
106,"[{'imgObject': {}, 'id': 'bagel plain', 'src': '/static/foodstim60/bagel plain.jpg', 'key': 'u', 'origWidth': 410, 'origHeight': 410, 'width': 410, 'height': 410, 'widthPercent': 0.45, 'rescaleHeight': False, 'trialN': 106, 'loaded': True, 'loadedTime': 2850.5, 'positionName': 'LEFT', 'positionCoords': [511.6, 335], 'bid': 8.63}, {'imgObject': {}, 'id': 'mango', 'src': '/static/foodstim60/mango.jpg', 'key': 'i', 'origWidth': 411, 'origHeight': 411, 'width': 411, 'height': 411, 'widthPercent': 0.45, 'rescaleHeight': False, 'trialN': 106, 'loaded': True, 'loadedTime': 2786.199999809265, 'positionName': 'RIGHT', 'positionCoords': [998.4, 334.5], 'bid': 8.09}]",160308.0,1669839425696,bagel plain,mango,8.63,8.09,-0.5400000000000009,bagel plain,794.0999999046326,795,794.5,True,u,161615.69999980927,1307.6999998092651,1669839427004,1308,HRV,HRV_0275,2022-11-30 20:19:35
107,"[{'imgObject': {}, 'id': 'chickenfingers', 'src': '/static/foodstim60/chickenfingers.jpg', 'key': 'u', 'origWidth': 410, 'origHeight': 410, 'width': 410, 'height': 410, 'widthPercent': 0.45, 'rescaleHeight': False, 'trialN': 107, 'loaded': True, 'loadedTime': 2876.899999856949, 'positionName': 'LEFT', 'positionCoords': [511.6, 335], 'bid': 5.04}, {'imgObject': {}, 'id': 'edamame', 'src': '/static/foodstim60/edamame.jpg', 'key': 'i', 'origWidth': 409, 'origHeight': 410, 'width': 409, 'height': 410, 'widthPercent': 0.45, 'rescaleHeight': False, 'trialN': 107, 'loaded': True, 'loadedTime': 2853.199999809265, 'positionName': 'RIGHT', 'positionCoords': [998.4, 335], 'bid': 5.61}]",161615.79999995232,1669839427004,chickenfingers,edamame,5.04,5.61,0.5700000000000003,chickenfingers,786.5,787,787.0,True,u,162911.0,1295.2000000476837,1669839428299,1295,HRV,HRV_0275,2022-11-30 20:19:35
