success,trial_type,trial_index,time_elapsed,internal_node_id,Block,TrialNumber,TrialTime,trialTimeDiff,FPS_avg,FPS_med,FPS_mode,TrialDur,winResizeTime,rt,block,button_pressed,MotCoh,MotDir,ColCoh,Color,ChoiceKey,Choice,Accuracy,RT,nFrames,FPS,PPD,missTrial,missTrialMsg,onsetDelay,fullScreenExitTime,canvCenter,TrialType,Score,BlockTrial,stimulus,button_labels,exp,subjectId,date
True,fullscreen,0,2980,0.0-0.0,0.0,1.0,,,,,,,,,,,,,,,,,,,,,,,,,,,,,,,,HRV,HRV_0275,2022-11-30 20:30:03
,wl-check-fps,1,7977,0.0-1.0,0.0,2.0,"[3489.1, 3493.6, 3510.4, 3527.4, 3543.7, 3560.5, 3577.8, 3593.6, 3610.3, 3627, 3643.7, 3660.4, 3677.4, 3693.9, 3710.7, 3727.6, 3743.8, 3760.7, 3777.2, 3794.2, 3810.8, 3827, 3843.6, 3860.6, 3876.9, 3893.6, 3910.3, 3926.9, 3943.6, 3960.2, 3977.2, 3993.7, 4010.5, 4027.3, 4044.2, 4060.6, 4077.4, 4094.3, 4110.9, 4127.7, 4144.2, 4160.9, 4177.5, 4194.1, 4210.6, 4227, 4243.8, 4260.4, 4277, 4293.6, 4310.2, 4326.8, 4343.5, 4360.2, 4377.2, 4394, 4410.4, 4427.2, 4444.2, 4460.5, 4477.3, 4494.3, 4510.4, 4527.1, 4543.6, 4560.2, 4576.9, 4593.7, 4610.3, 4627.1, 4644, 4661, 4677.4, 4694.1, 4710.9, 4727.6, 4744.1, 4761, 4777.5, 4794.2, 4810.9, 4827, 4843.8, 4860.5, 4877.3, 4894.1, 4910.8, 4927.1, 4943.9, 4960.5, 4977.1, 4994, 5010.4, 5027.2, 5043.9, 5060.5, 5077.3, 5093.8, 5110.8, 5127.4, 5144.2, 5160.8, 5177.2, 5194.3, 5211, 5227.6, 5244.2, 5260.7, 5277.6, 5294.1, 5310.9, 5327.6, 5344.2, 5360.9, 5377.5, 5394.2, 5410.9, 5427.6, 5444.2, 5460.9, 5477.6, 5493.8, 5510.9, 5527.6, 5544.2, 5561, 5577.6, 5594.2, 5610.8, 5627.4, 5644.1, 5660.7, 5677.4, 5694.2, 5710.8, 5727.5, 5744.2, 5760.9, 5777.5, 5794.4, 5811, 5827, 5844, 5860.4, 5877, 5894.1, 5910.7, 5927.5, 5944.1, 5960.7, 5977.5, 5994.5, 6011.2, 6027.5, 6044, 6060.5, 6077.3, 6094, 6110.7, 6127.5, 6144.4, 6161.2, 6177.3, 6194.2, 6210.7, 6227.4, 6244.3, 6261.1, 6277.6, 6294.3, 6310.9, 6327.7, 6344.2, 6360.4, 6377, 6393.7, 6410.3, 6427, 6443.6, 6460.4, 6477, 6493.7, 6510.4, 6527.1, 6543.7, 6560.4, 6577, 6593.7, 6610.4, 6627, 6643.7, 6660.3, 6677.1, 6694.3, 6710.5, 6727.1, 6743.8, 6760.6, 6777.4, 6794.3, 6811, 6827, 6843.9, 6860.8, 6877.1, 6893.8, 6910.6, 6927.3, 6944.1, 6960.9, 6977.7, 6994, 7010.4, 7027.2, 7044.3, 7060.9, 7077.7, 7094.3, 7110.9, 7127.3, 7144.1, 7160.9, 7178, 7193.9, 7210.6, 7227.4, 7244.3, 7261, 7277.6, 7294.4, 7310.9, 7327.6, 7344.4, 7361.1, 7377.6, 7394.1, 7410.6, 7427.3, 7444.1, 7461, 7477.2, 7494, 7511, 7527.3, 7544.4, 7561, 7577.8, 7594.3, 7611.1, 7627.5, 7644.4, 7660.7, 7677.6, 7694.3, 7710.9, 7727.2, 7744, 7760.8, 7777.2, 7794.2, 7811, 7827.7, 7843.8, 7860.5, 7877.4, 7893.8, 7910.5, 7927.3, 7944.1, 7961, 7977.7, 7994.3, 8011, 8027.5, 8044, 8061, 8077.5, 8094.2, 8110.9, 8127.7, 8144.1, 8160.9, 8177.8, 8194.5, 8211, 8227.8, 8243.9, 8260.9, 8277.8, 8294.4, 8310.6, 8327.4, 8344.3, 8361.2, 8377.8, 8394.5, 8411.1, 8427.8, 8444.5, 8461.2]","[2.4, 4.5, 16.8, 17, 16.3, 16.8, 17.3, 15.8, 16.7, 16.7, 16.7, 16.7, 17, 16.5, 16.8, 16.9, 16.2, 16.9, 16.5, 17, 16.6, 16.2, 16.6, 17, 16.3, 16.7, 16.7, 16.6, 16.7, 16.6, 17, 16.5, 16.8, 16.8, 16.9, 16.4, 16.8, 16.9, 16.6, 16.8, 16.5, 16.7, 16.6, 16.6, 16.5, 16.4, 16.8, 16.6, 16.6, 16.6, 16.6, 16.6, 16.7, 16.7, 17, 16.8, 16.4, 16.8, 17, 16.3, 16.8, 17, 16.1, 16.7, 16.5, 16.6, 16.7, 16.8, 16.6, 16.8, 16.9, 17, 16.4, 16.7, 16.8, 16.7, 16.5, 16.9, 16.5, 16.7, 16.7, 16.1, 16.8, 16.7, 16.8, 16.8, 16.7, 16.3, 16.8, 16.6, 16.6, 16.9, 16.4, 16.8, 16.7, 16.6, 16.8, 16.5, 17, 16.6, 16.8, 16.6, 16.4, 17.1, 16.7, 16.6, 16.6, 16.5, 16.9, 16.5, 16.8, 16.7, 16.6, 16.7, 16.6, 16.7, 16.7, 16.7, 16.6, 16.7, 16.7, 16.2, 17.1, 16.7, 16.6, 16.8, 16.6, 16.6, 16.6, 16.6, 16.7, 16.6, 16.7, 16.8, 16.6, 16.7, 16.7, 16.7, 16.6, 16.9, 16.6, 16, 17, 16.4, 16.6, 17.1, 16.6, 16.8, 16.6, 16.6, 16.8, 17, 16.7, 16.3, 16.5, 16.5, 16.8, 16.7, 16.7, 16.8, 16.9, 16.8, 16.1, 16.9, 16.5, 16.7, 16.9, 16.8, 16.5, 16.7, 16.6, 16.8, 16.5, 16.2, 16.6, 16.7, 16.6, 16.7, 16.6, 16.8, 16.6, 16.7, 16.7, 16.7, 16.6, 16.7, 16.6, 16.7, 16.7, 16.6, 16.7, 16.6, 16.8, 17.2, 16.2, 16.6, 16.7, 16.8, 16.8, 16.9, 16.7, 16, 16.9, 16.9, 16.3, 16.7, 16.8, 16.7, 16.8, 16.8, 16.8, 16.3, 16.4, 16.8, 17.1, 16.6, 16.8, 16.6, 16.6, 16.4, 16.8, 16.8, 17.1, 15.9, 16.7, 16.8, 16.9, 16.7, 16.6, 16.8, 16.5, 16.7, 16.8, 16.7, 16.5, 16.5, 16.5, 16.7, 16.8, 16.9, 16.2, 16.8, 17, 16.3, 17.1, 16.6, 16.8, 16.5, 16.8, 16.4, 16.9, 16.3, 16.9, 16.7, 16.6, 16.3, 16.8, 16.8, 16.4, 17, 16.8, 16.7, 16.1, 16.7, 16.9, 16.4, 16.7, 16.8, 16.8, 16.9, 16.7, 16.6, 16.7, 16.5, 16.5, 17, 16.5, 16.7, 16.7, 16.8, 16.4, 16.8, 16.9, 16.7, 16.5, 16.8, 16.1, 17, 16.9, 16.6, 16.2, 16.8, 16.9, 16.9, 16.6, 16.7, 16.6, 16.7, 16.7, 16.7]",60.0,60.0,60.0,4991.1,[],,,,,,,,,,,,,,,,,,,,,,,,,HRV,HRV_0275,2022-11-30 20:30:03
,wl-html-keyboard-response,2,35925,0.0-2.0-0.0,0.0,3.0,,,,,,,,25925.299999952316,0.0,0,,,,,,,,,,,,,,,,,,,,,,HRV,HRV_0275,2022-11-30 20:30:03
,wl-rdm,3,42457,0.0-3.0-0.0,0.0,4.0,,,,,,,[],,,,0.0,0.0,87.9,0.0,u,0.0,True,963.0000002384186,58.0,60.0,40.0,False,,3000.0,[],"[960, 540]",ColorTask_Demo,,,,,HRV,HRV_0275,2022-11-30 20:30:03
,wl-rdm,4,47242,0.0-3.0-1.0,0.0,5.0,,,,,,,[],,,,0.0,0.0,87.9,1.0,i,1.0,True,700.2999999523163,42.0,60.0,40.0,False,,2000.0,[],"[960, 540]",ColorTask_Demo,,,,,HRV,HRV_0275,2022-11-30 20:30:03
,wl-html-keyboard-response,5,51820,0.0-3.0-2.0,0.0,6.0,,,,,,,,2558.2999999523163,0.0,1,,,,,,,,,,,,,,,,,,,,,,HRV,HRV_0275,2022-11-30 20:30:03
,wl-html-keyboard-response,6,62182,0.0-4.0-0.0,0.0,7.0,,,,,,,,8352.699999809265,0.0,0,,,,,,,,,,,,,,,,,,,,,,HRV,HRV_0275,2022-11-30 20:30:03
,wl-html-keyboard-response,7,88327,0.0-5.0-0.0,0.0,8.0,,,,,,,,24132.39999985695,0.0,0,,,,,,,,,,,,,,,,,,,,,,HRV,HRV_0275,2022-11-30 20:30:03
,wl-rdm,8,91009,0.0-6.0-0.0,0.0,9.0,,,,,,,[],,,,,,73.6,0.0,u,0.0,True,1368.9000000953674,83.0,60.0,40.0,False,,242.87343480864575,[],"[960, 540]",ColorTask,1.0,1.0,,,HRV,HRV_0275,2022-11-30 20:30:03
,wl-rdm,9,93526,0.0-6.1-0.1,0.0,10.0,,,,,,,[],,,,,,73.6,0.0,u,0.0,True,1241.1999998092651,75.0,60.0,40.0,False,,202.3345369987948,[],"[960, 540]",ColorTask,2.0,2.0,,,HRV,HRV_0275,2022-11-30 20:30:03
,wl-rdm,10,95659,0.0-6.2-0.2,0.0,11.0,,,,,,,[],,,,,,50.0,1.0,i,1.0,True,827.7000000476837,49.0,60.0,40.0,False,,232.1979101385015,[],"[960, 540]",ColorTask,3.0,3.0,,,HRV,HRV_0275,2022-11-30 20:30:03
,wl-rdm,11,97993,0.0-6.3-0.3,0.0,12.0,,,,,,,[],,,,,,53.2,1.0,i,1.0,True,869.7000000476837,53.0,60.0,40.0,False,,375.1607596886072,[],"[960, 540]",ColorTask,4.0,4.0,,,HRV,HRV_0275,2022-11-30 20:30:03
,wl-rdm,12,100110,0.0-6.4-0.4,0.0,13.0,,,,,,,[],,,,,,56.4,0.0,i,1.0,False,792.2000000476837,48.0,60.0,40.0,False,,256.9190086856179,[],"[960, 540]",ColorTask,3.0,5.0,,,HRV,HRV_0275,2022-11-30 20:30:03
,wl-rdm,13,102527,0.0-6.5-0.5,0.0,14.0,,,,,,,[],,,,,,53.2,1.0,i,1.0,True,1094.7000000476837,66.0,60.0,40.0,False,,263.84927199451056,[],"[960, 540]",ColorTask,4.0,6.0,,,HRV,HRV_0275,2022-11-30 20:30:03
,wl-rdm,14,104609,0.0-6.6-0.6,0.0,15.0,,,,,,,[],,,,,,87.9,1.0,i,1.0,True,747.6000001430511,45.0,60.0,40.0,False,,252.91013922107024,[],"[960, 540]",ColorTask,5.0,7.0,,,HRV,HRV_0275,2022-11-30 20:30:03
,wl-rdm,15,106943,0.0-6.7-0.7,0.0,16.0,,,,,,,[],,,,,,50.0,0.0,i,1.0,False,855.8000001907349,52.0,60.0,40.0,False,,388.66778961981447,[],"[960, 540]",ColorTask,4.0,8.0,,,HRV,HRV_0275,2022-11-30 20:30:03
,wl-rdm,16,109427,0.0-6.8-0.8,0.0,17.0,,,,,,,[],,,,,,50.0,1.0,i,1.0,True,1112.9000000953674,67.0,60.0,40.0,False,,285.3349677608873,[],"[960, 540]",ColorTask,5.0,9.0,,,HRV,HRV_0275,2022-11-30 20:30:03
,wl-rdm,17,111910,0.0-6.9-0.9,0.0,18.0,,,,,,,[],,,,,,56.4,1.0,i,1.0,True,1147.4000000953674,69.0,60.0,40.0,False,,250.50633551045044,[],"[960, 540]",ColorTask,6.0,10.0,,,HRV,HRV_0275,2022-11-30 20:30:03
,wl-rdm,18,114227,0.0-6.10-0.10,0.0,19.0,,,,,,,[],,,,,,62.5,0.0,u,0.0,True,1039.2000000476837,63.0,60.0,40.0,False,,210.21555284451276,[],"[960, 540]",ColorTask,7.0,11.0,,,HRV,HRV_0275,2022-11-30 20:30:03
,wl-rdm,19,116444,0.0-6.11-0.11,0.0,20.0,,,,,,,[],,,,,,56.4,1.0,i,1.0,True,883.3999998569489,54.0,60.0,40.0,False,,252.90086976978657,[],"[960, 540]",ColorTask,8.0,12.0,,,HRV,HRV_0275,2022-11-30 20:30:03
,wl-rdm,20,118461,0.0-6.12-0.12,0.0,21.0,,,,,,,[],,,,,,87.9,1.0,i,1.0,True,721.3000001907349,44.0,60.0,40.0,False,,208.3029935165806,[],"[960, 540]",ColorTask,9.0,13.0,,,HRV,HRV_0275,2022-11-30 20:30:03
,wl-rdm,21,120677,0.0-6.13-0.13,0.0,22.0,,,,,,,[],,,,,,50.0,1.0,i,1.0,True,786.4999997615814,48.0,60.0,40.0,False,,337.29773711865926,[],"[960, 540]",ColorTask,10.0,14.0,,,HRV,HRV_0275,2022-11-30 20:30:03
,wl-rdm,22,123111,0.0-6.14-0.14,0.0,23.0,,,,,,,[],,,,,,56.4,0.0,i,1.0,False,1058.6000001430511,64.0,60.0,40.0,False,,316.09198094542546,[],"[960, 540]",ColorTask,9.0,15.0,,,HRV,HRV_0275,2022-11-30 20:30:03
,wl-rdm,23,125294,0.0-6.15-0.15,0.0,24.0,,,,,,,[],,,,,,73.6,0.0,u,0.0,True,827.7000002861023,50.0,60.0,40.0,False,,271.180490577698,[],"[960, 540]",ColorTask,10.0,16.0,,,HRV,HRV_0275,2022-11-30 20:30:03
,wl-rdm,24,127577,0.0-6.16-0.16,0.0,25.0,,,,,,,[],,,,,,62.5,1.0,i,1.0,True,1000.4000000953674,61.0,60.0,40.0,False,,208.5280028723361,[],"[960, 540]",ColorTask,11.0,17.0,,,HRV,HRV_0275,2022-11-30 20:30:03
,wl-rdm,25,130127,0.0-6.17-0.17,0.0,26.0,,,,,,,[],,,,,,50.0,1.0,i,1.0,True,1113.0,67.0,60.0,40.0,False,,381.316679696061,[],"[960, 540]",ColorTask,12.0,18.0,,,HRV,HRV_0275,2022-11-30 20:30:03
,wl-rdm,26,132945,0.0-6.18-0.18,0.0,27.0,,,,,,,[],,,,,,56.4,0.0,i,1.0,False,1358.7999999523163,82.0,60.0,40.0,False,,372.0443549741053,[],"[960, 540]",ColorTask,11.0,19.0,,,HRV,HRV_0275,2022-11-30 20:30:03
,wl-rdm,27,135644,0.0-6.19-0.19,0.0,28.0,,,,,,,[],,,,,,56.4,1.0,i,1.0,True,1319.1000001430511,80.0,60.0,40.0,False,,300.87650398020605,[],"[960, 540]",ColorTask,12.0,20.0,,,HRV,HRV_0275,2022-11-30 20:30:03
,wl-rdm,28,138044,0.0-6.20-0.20,0.0,29.0,,,,,,,[],,,,,,50.0,0.0,i,1.0,False,1069.9000000953674,65.0,60.0,40.0,False,,243.29379652133437,[],"[960, 540]",ColorTask,11.0,21.0,,,HRV,HRV_0275,2022-11-30 20:30:03
,wl-rdm,29,140511,0.0-6.21-0.21,0.0,30.0,,,,,,,[],,,,,,53.2,1.0,i,1.0,True,1058.8000001907349,64.0,60.0,40.0,False,,345.2742613856735,[],"[960, 540]",ColorTask,12.0,22.0,,,HRV,HRV_0275,2022-11-30 20:30:03
,wl-rdm,30,143228,0.0-6.22-0.22,0.0,31.0,,,,,,,[],,,,,,56.4,1.0,i,1.0,True,1438.7999999523163,87.0,60.0,40.0,False,,201.96897983608142,[],"[960, 540]",ColorTask,13.0,23.0,,,HRV,HRV_0275,2022-11-30 20:30:03
,wl-rdm,31,146012,0.0-6.23-0.23,0.0,32.0,,,,,,,[],,,,,,56.4,0.0,i,1.0,False,1475.0,89.0,60.0,40.0,False,,227.72610859777708,[],"[960, 540]",ColorTask,12.0,24.0,,,HRV,HRV_0275,2022-11-30 20:30:03
,wl-rdm,32,149261,0.0-6.24-0.24,0.0,33.0,,,,,,,[],,,,,,50.0,0.0,i,1.0,False,1906.2999999523163,115.0,60.0,40.0,False,,256.0575069696735,[],"[960, 540]",ColorTask,11.0,25.0,,,HRV,HRV_0275,2022-11-30 20:30:03
,wl-rdm,33,151578,0.0-6.25-0.25,0.0,34.0,,,,,,,[],,,,,,73.6,1.0,i,1.0,True,954.2000000476837,58.0,60.0,40.0,False,,278.4503917317211,[],"[960, 540]",ColorTask,12.0,26.0,,,HRV,HRV_0275,2022-11-30 20:30:03
,wl-rdm,34,154478,0.0-6.26-0.26,0.0,35.0,,,,,,,[],,,,,,62.5,1.0,i,1.0,True,1556.2000000476837,94.0,60.0,40.0,False,,267.0377983986552,[],"[960, 540]",ColorTask,13.0,27.0,,,HRV,HRV_0275,2022-11-30 20:30:03
,wl-rdm,35,156978,0.0-6.27-0.27,0.0,36.0,,,,,,,[],,,,,,62.5,0.0,u,0.0,True,1026.3999998569489,62.0,60.0,40.0,False,,387.068401846557,[],"[960, 540]",ColorTask,14.0,28.0,,,HRV,HRV_0275,2022-11-30 20:30:03
,wl-rdm,36,159462,0.0-6.28-0.28,0.0,37.0,,,,,,,[],,,,,,62.5,0.0,u,0.0,True,1144.5999999046326,69.0,60.0,40.0,False,,263.18258104099755,[],"[960, 540]",ColorTask,15.0,29.0,,,HRV,HRV_0275,2022-11-30 20:30:03
,wl-rdm,37,162012,0.0-6.29-0.29,0.0,38.0,,,,,,,[],,,,,,50.0,0.0,i,1.0,False,1176.3000001907349,70.0,60.0,40.0,False,,298.20990469857765,[],"[960, 540]",ColorTask,14.0,30.0,,,HRV,HRV_0275,2022-11-30 20:30:03
,wl-rdm,38,164245,0.0-6.30-0.30,0.0,39.0,,,,,,,[],,,,,,62.5,1.0,i,1.0,True,886.2000000476837,54.0,60.0,40.0,False,,261.7578049283611,[],"[960, 540]",ColorTask,15.0,31.0,,,HRV,HRV_0275,2022-11-30 20:30:03
,wl-rdm,39,166445,0.0-6.31-0.31,0.0,40.0,,,,,,,[],,,,,,53.2,0.0,u,0.0,True,878.9000000953674,53.0,60.0,40.0,False,,250.2982364463798,[],"[960, 540]",ColorTask,16.0,32.0,,,HRV,HRV_0275,2022-11-30 20:30:03
,wl-rdm,40,168612,0.0-6.32-0.32,0.0,41.0,,,,,,,[],,,,,,87.9,1.0,i,1.0,True,787.9000000953674,48.0,60.0,40.0,False,,290.69443157375895,[],"[960, 540]",ColorTask,17.0,33.0,,,HRV,HRV_0275,2022-11-30 20:30:03
,wl-rdm,41,170962,0.0-6.33-0.33,0.0,42.0,,,,,,,[],,,,,,56.4,1.0,i,1.0,True,937.7000000476837,57.0,60.0,40.0,False,,337.41181292450506,[],"[960, 540]",ColorTask,18.0,34.0,,,HRV,HRV_0275,2022-11-30 20:30:03
,wl-rdm,42,173012,0.0-6.34-0.34,0.0,43.0,,,,,,,[],,,,,,87.9,1.0,i,1.0,True,779.3999998569489,47.0,60.0,40.0,False,,204.99779205440436,[],"[960, 540]",ColorTask,19.0,35.0,,,HRV,HRV_0275,2022-11-30 20:30:03
,wl-rdm,43,175279,0.0-6.35-0.35,0.0,44.0,,,,,,,[],,,,,,73.6,1.0,i,1.0,True,880.4000000953674,53.0,60.0,40.0,False,,324.31620464236215,[],"[960, 540]",ColorTask,20.0,36.0,,,HRV,HRV_0275,2022-11-30 20:30:03
,wl-rdm,44,177896,0.0-6.36-0.36,0.0,45.0,,,,,,,[],,,,,,53.2,1.0,u,0.0,False,1271.7000000476837,77.0,60.0,40.0,False,,266.5401142345967,[],"[960, 540]",ColorTask,19.0,37.0,,,HRV,HRV_0275,2022-11-30 20:30:03
,wl-rdm,45,180046,0.0-6.37-0.37,0.0,46.0,,,,,,,[],,,,,,73.6,1.0,i,1.0,True,824.0,50.0,60.0,40.0,False,,260.9554338474239,[],"[960, 540]",ColorTask,20.0,38.0,,,HRV,HRV_0275,2022-11-30 20:30:03
,wl-rdm,46,182363,0.0-6.38-0.38,0.0,47.0,,,,,,,[],,,,,,53.2,0.0,u,0.0,True,1014.5999999046326,61.0,60.0,40.0,False,,239.35302909783576,[],"[960, 540]",ColorTask,21.0,39.0,,,HRV,HRV_0275,2022-11-30 20:30:03
,wl-rdm,47,184613,0.0-6.39-0.39,0.0,48.0,,,,,,,[],,,,,,62.5,1.0,i,1.0,True,927.0999999046326,56.0,60.0,40.0,False,,240.88412213462453,[],"[960, 540]",ColorTask,22.0,40.0,,,HRV,HRV_0275,2022-11-30 20:30:03
,wl-rdm,48,187330,0.0-6.40-0.40,0.0,49.0,,,,,,,[],,,,,,50.0,0.0,i,1.0,False,1273.7000002861023,77.0,60.0,40.0,False,,358.2278815329761,[],"[960, 540]",ColorTask,21.0,41.0,,,HRV,HRV_0275,2022-11-30 20:30:03
,wl-rdm,49,189830,0.0-6.41-0.41,0.0,50.0,,,,,,,[],,,,,,62.5,0.0,u,0.0,True,1185.7000000476837,72.0,60.0,40.0,False,,223.23847020032926,[],"[960, 540]",ColorTask,22.0,42.0,,,HRV,HRV_0275,2022-11-30 20:30:03
,wl-rdm,50,192063,0.0-6.42-0.42,0.0,51.0,,,,,,,[],,,,,,73.6,1.0,i,1.0,True,906.1999998092651,55.0,60.0,40.0,False,,239.08836346560238,[],"[960, 540]",ColorTask,23.0,43.0,,,HRV,HRV_0275,2022-11-30 20:30:03
,wl-rdm,51,194612,0.0-6.43-0.43,0.0,52.0,,,,,,,[],,,,,,87.9,0.0,u,0.0,True,1223.7000000476837,74.0,60.0,40.0,False,,240.10614764410934,[],"[960, 540]",ColorTask,24.0,44.0,,,HRV,HRV_0275,2022-11-30 20:30:03
,wl-rdm,52,196997,0.0-6.44-0.44,0.0,53.0,,,,,,,[],,,,,,56.4,0.0,u,0.0,True,1037.5,63.0,60.0,40.0,False,,270.47241033501075,[],"[960, 540]",ColorTask,25.0,45.0,,,HRV,HRV_0275,2022-11-30 20:30:03
,wl-rdm,53,199130,0.0-6.45-0.45,0.0,54.0,,,,,,,[],,,,,,87.9,0.0,u,0.0,True,812.7000000476837,49.0,60.0,40.0,False,,242.7287399417764,[],"[960, 540]",ColorTask,26.0,46.0,,,HRV,HRV_0275,2022-11-30 20:30:03
,wl-rdm,54,201797,0.0-6.46-0.46,0.0,55.0,,,,,,,[],,,,,,56.4,0.0,i,1.0,False,1300.0,78.0,60.0,40.0,False,,288.58492527273427,[],"[960, 540]",ColorTask,25.0,47.0,,,HRV,HRV_0275,2022-11-30 20:30:03
,wl-rdm,55,203946,0.0-6.47-0.47,0.0,56.0,,,,,,,[],,,,,,73.6,1.0,i,1.0,True,794.0,48.0,60.0,40.0,False,,275.4657856011063,[],"[960, 540]",ColorTask,26.0,48.0,,,HRV,HRV_0275,2022-11-30 20:30:03
,wl-rdm,56,206147,0.0-6.48-0.48,0.0,57.0,,,,,,,[],,,,,,73.6,0.0,u,0.0,True,766.0,46.0,60.0,40.0,False,,359.8472101142564,[],"[960, 540]",ColorTask,27.0,49.0,,,HRV,HRV_0275,2022-11-30 20:30:03
,wl-rdm,57,208263,0.0-6.49-0.49,0.0,58.0,,,,,,,[],,,,,,62.5,0.0,u,0.0,True,823.0999999046326,50.0,60.0,40.0,False,,207.09504846628778,[],"[960, 540]",ColorTask,28.0,50.0,,,HRV,HRV_0275,2022-11-30 20:30:03
,wl-rdm,58,210330,0.0-6.50-0.50,0.0,59.0,,,,,,,[],,,,,,73.6,1.0,i,1.0,True,705.0999999046326,43.0,60.0,40.0,False,,268.9545771032135,[],"[960, 540]",ColorTask,29.0,51.0,,,HRV,HRV_0275,2022-11-30 20:30:03
,wl-rdm,59,213330,0.0-6.51-0.51,0.0,60.0,,,,,,,[],,,,,,53.2,0.0,u,0.0,True,1660.3000001907349,100.0,60.0,40.0,False,,272.5257710232614,[],"[960, 540]",ColorTask,30.0,52.0,,,HRV,HRV_0275,2022-11-30 20:30:03
,wl-rdm,60,216964,0.0-6.52-0.52,0.0,61.0,,,,,,,[],,,,,,56.4,0.0,i,1.0,False,2275.5999999046326,137.0,60.0,40.0,False,,274.78111281649603,[],"[960, 540]",ColorTask,29.0,53.0,,,HRV,HRV_0275,2022-11-30 20:30:03
,wl-rdm,61,219314,0.0-6.53-0.53,0.0,62.0,,,,,,,[],,,,,,56.4,1.0,i,1.0,True,962.7000000476837,58.0,60.0,40.0,False,,307.3132581014355,[],"[960, 540]",ColorTask,30.0,54.0,,,HRV,HRV_0275,2022-11-30 20:30:03
,wl-rdm,62,221680,0.0-6.54-0.54,0.0,63.0,,,,,,,[],,,,,,56.4,1.0,i,1.0,True,1005.0,61.0,60.0,40.0,False,,277.1990914005439,[],"[960, 540]",ColorTask,31.0,55.0,,,HRV,HRV_0275,2022-11-30 20:30:03
,wl-rdm,63,223964,0.0-6.55-0.55,0.0,64.0,,,,,,,[],,,,,,73.6,0.0,u,0.0,True,919.2999999523163,56.0,60.0,40.0,False,,277.99739935187534,[],"[960, 540]",ColorTask,32.0,56.0,,,HRV,HRV_0275,2022-11-30 20:30:03
,wl-rdm,64,226497,0.0-6.56-0.56,0.0,65.0,,,,,,,[],,,,,,53.2,0.0,i,1.0,False,1189.5999999046326,72.0,60.0,40.0,False,,282.87125614678973,[],"[960, 540]",ColorTask,31.0,57.0,,,HRV,HRV_0275,2022-11-30 20:30:03
,wl-rdm,65,228947,0.0-6.57-0.57,0.0,66.0,,,,,,,[],,,,,,62.5,1.0,i,1.0,True,1145.2000000476837,69.0,60.0,40.0,False,,229.4825003486879,[],"[960, 540]",ColorTask,32.0,58.0,,,HRV,HRV_0275,2022-11-30 20:30:03
,wl-rdm,66,231231,0.0-6.58-0.58,0.0,67.0,,,,,,,[],,,,,,87.9,1.0,i,1.0,True,879.8000001907349,53.0,60.0,40.0,False,,339.3952995387115,[],"[960, 540]",ColorTask,33.0,59.0,,,HRV,HRV_0275,2022-11-30 20:30:03
,wl-rdm,67,233331,0.0-6.59-0.59,0.0,68.0,,,,,,,[],,,,,,73.6,0.0,u,0.0,True,713.0999999046326,43.0,60.0,40.0,False,,329.00080845341694,[],"[960, 540]",ColorTask,34.0,60.0,,,HRV,HRV_0275,2022-11-30 20:30:03
,wl-rdm,68,235831,0.0-6.60-0.60,0.0,69.0,,,,,,,[],,,,,,56.4,0.0,u,0.0,True,1140.0,69.0,60.0,40.0,False,,287.7744018436395,[],"[960, 540]",ColorTask,35.0,61.0,,,HRV,HRV_0275,2022-11-30 20:30:03
,wl-rdm,69,238048,0.0-6.61-0.61,0.0,70.0,,,,,,,[],,,,,,62.5,1.0,i,1.0,True,778.0999999046326,47.0,60.0,40.0,False,,374.6706707023632,[],"[960, 540]",ColorTask,36.0,62.0,,,HRV,HRV_0275,2022-11-30 20:30:03
,wl-rdm,70,240448,0.0-6.62-0.62,0.0,71.0,,,,,,,[],,,,,,50.0,0.0,u,0.0,True,1126.5000002384186,68.0,60.0,40.0,False,,200.47384184828655,[],"[960, 540]",ColorTask,37.0,63.0,,,HRV,HRV_0275,2022-11-30 20:30:03
,wl-rdm,71,242865,0.0-6.63-0.63,0.0,72.0,,,,,,,[],,,,,,53.2,0.0,u,0.0,True,1097.0,66.0,60.0,40.0,False,,245.96923117904743,[],"[960, 540]",ColorTask,38.0,64.0,,,HRV,HRV_0275,2022-11-30 20:30:03
,wl-rdm,72,245115,0.0-6.64-0.64,0.0,73.0,,,,,,,[],,,,,,50.0,0.0,i,1.0,False,948.0999999046326,57.0,60.0,40.0,False,,241.5586737260897,[],"[960, 540]",ColorTask,37.0,65.0,,,HRV,HRV_0275,2022-11-30 20:30:03
,wl-rdm,73,247331,0.0-6.65-0.65,0.0,74.0,,,,,,,[],,,,,,73.6,0.0,u,0.0,True,895.7000000476837,54.0,60.0,40.0,False,,262.1893408596578,[],"[960, 540]",ColorTask,38.0,66.0,,,HRV,HRV_0275,2022-11-30 20:30:03
,wl-rdm,74,249831,0.0-6.66-0.66,0.0,75.0,,,,,,,[],,,,,,50.0,1.0,i,1.0,True,1210.8000001907349,73.0,60.0,40.0,False,,227.81539525915278,[],"[960, 540]",ColorTask,39.0,67.0,,,HRV,HRV_0275,2022-11-30 20:30:03
,wl-rdm,75,252832,0.0-6.67-0.67,0.0,76.0,,,,,,,[],,,,,,56.4,1.0,u,0.0,False,1653.9000000953674,100.0,60.0,40.0,False,,257.937139089024,[],"[960, 540]",ColorTask,38.0,68.0,,,HRV,HRV_0275,2022-11-30 20:30:03
,wl-rdm,76,255015,0.0-6.68-0.68,0.0,77.0,,,,,,,[],,,,,,87.9,1.0,i,1.0,True,739.3999998569489,45.0,60.0,40.0,False,,355.27690931172447,[],"[960, 540]",ColorTask,39.0,69.0,,,HRV,HRV_0275,2022-11-30 20:30:03
,wl-rdm,77,257715,0.0-6.69-0.69,0.0,78.0,,,,,,,[],,,,,,50.0,1.0,u,0.0,False,1252.6000001430511,76.0,60.0,40.0,False,,336.2388461564775,[],"[960, 540]",ColorTask,38.0,70.0,,,HRV,HRV_0275,2022-11-30 20:30:03
,wl-rdm,78,259799,0.0-6.70-0.70,0.0,79.0,,,,,,,[],,,,,,87.9,0.0,u,0.0,True,721.3000001907349,44.0,60.0,40.0,False,,287.98429959546115,[],"[960, 540]",ColorTask,39.0,71.0,,,HRV,HRV_0275,2022-11-30 20:30:03
,wl-rdm,79,262698,0.0-6.71-0.71,0.0,80.0,,,,,,,[],,,,,,62.5,1.0,i,1.0,True,1523.0999999046326,92.0,60.0,40.0,False,,284.223792665438,[],"[960, 540]",ColorTask,40.0,72.0,,,HRV,HRV_0275,2022-11-30 20:30:03
,wl-rdm,80,265632,0.0-6.72-0.72,0.0,81.0,,,,,,,[],,,,,,62.5,1.0,i,1.0,True,1589.7999999523163,95.0,60.0,40.0,False,,269.5778938474183,[],"[960, 540]",ColorTask,41.0,73.0,,,HRV,HRV_0275,2022-11-30 20:30:03
,wl-rdm,81,267848,0.0-6.73-0.73,0.0,82.0,,,,,,,[],,,,,,73.6,0.0,u,0.0,True,782.7000000476837,47.0,60.0,40.0,False,,357.7326251086606,[],"[960, 540]",ColorTask,42.0,74.0,,,HRV,HRV_0275,2022-11-30 20:30:03
,wl-rdm,82,270699,0.0-6.74-0.74,0.0,83.0,,,,,,,[],,,,,,53.2,1.0,u,0.0,False,1543.0,93.0,60.0,40.0,False,,238.9347091681429,[],"[960, 540]",ColorTask,41.0,75.0,,,HRV,HRV_0275,2022-11-30 20:30:03
,wl-rdm,83,273216,0.0-6.75-0.75,0.0,84.0,,,,,,,[],,,,,,73.6,1.0,i,1.0,True,1164.5,70.0,60.0,40.0,False,,299.0716053678561,[],"[960, 540]",ColorTask,42.0,76.0,,,HRV,HRV_0275,2022-11-30 20:30:03
,wl-rdm,84,275382,0.0-6.76-0.76,0.0,85.0,,,,,,,[],,,,,,62.5,0.0,u,0.0,True,788.9999997615814,48.0,60.0,40.0,False,,288.4777517731654,[],"[960, 540]",ColorTask,43.0,77.0,,,HRV,HRV_0275,2022-11-30 20:30:03
,wl-rdm,85,277483,0.0-6.77-0.77,0.0,86.0,,,,,,,[],,,,,,87.9,0.0,u,0.0,True,694.7000000476837,42.0,60.0,40.0,False,,320.27723305301055,[],"[960, 540]",ColorTask,44.0,78.0,,,HRV,HRV_0275,2022-11-30 20:30:03
,wl-rdm,86,279998,0.0-6.78-0.78,0.0,87.0,,,,,,,[],,,,,,62.5,0.0,u,0.0,True,1088.8000001907349,66.0,60.0,40.0,False,,347.8327530913229,[],"[960, 540]",ColorTask,45.0,79.0,,,HRV,HRV_0275,2022-11-30 20:30:03
,wl-rdm,87,282399,0.0-6.79-0.79,0.0,88.0,,,,,,,[],,,,,,53.2,0.0,i,1.0,False,1111.0,67.0,60.0,40.0,False,,204.48462005933877,[],"[960, 540]",ColorTask,44.0,80.0,,,HRV,HRV_0275,2022-11-30 20:30:03
,wl-rdm,88,285616,0.0-6.80-0.80,0.0,89.0,,,,,,,[],,,,,,53.2,1.0,i,1.0,True,1912.5999999046326,115.0,60.0,40.0,False,,248.29135678238097,[],"[960, 540]",ColorTask,45.0,81.0,,,HRV,HRV_0275,2022-11-30 20:30:03
,wl-rdm,89,288450,0.0-6.81-0.81,0.0,90.0,,,,,,,[],,,,,,50.0,1.0,u,0.0,False,1558.8999998569489,94.0,60.0,40.0,False,,201.33267205560747,[],"[960, 540]",ColorTask,44.0,82.0,,,HRV,HRV_0275,2022-11-30 20:30:03
,wl-rdm,90,290550,0.0-6.82-0.82,0.0,91.0,,,,,,,[],,,,,,73.6,0.0,u,0.0,True,824.0999999046326,50.0,60.0,40.0,False,,215.67787970528008,[],"[960, 540]",ColorTask,45.0,83.0,,,HRV,HRV_0275,2022-11-30 20:30:03
,wl-rdm,91,292600,0.0-6.83-0.83,0.0,92.0,,,,,,,[],,,,,,53.2,1.0,i,1.0,True,710.2000000476837,42.0,60.0,40.0,False,,283.90949557535305,[],"[960, 540]",ColorTask,46.0,84.0,,,HRV,HRV_0275,2022-11-30 20:30:03
,wl-rdm,92,295650,0.0-6.84-0.84,0.0,93.0,,,,,,,[],,,,,,50.0,1.0,i,1.0,True,1721.3000001907349,104.0,60.0,40.0,False,,247.93951585444333,[],"[960, 540]",ColorTask,47.0,85.0,,,HRV,HRV_0275,2022-11-30 20:30:03
,wl-rdm,93,297734,0.0-6.85-0.85,0.0,94.0,,,,,,,[],,,,,,87.9,0.0,u,0.0,True,652.6000001430511,40.0,60.0,40.0,False,,362.6535576142785,[],"[960, 540]",ColorTask,48.0,86.0,,,HRV,HRV_0275,2022-11-30 20:30:03
,wl-rdm,94,300050,0.0-6.86-0.86,0.0,95.0,,,,,,,[],,,,,,62.5,0.0,u,0.0,True,853.7000000476837,52.0,60.0,40.0,False,,379.9121345205699,[],"[960, 540]",ColorTask,49.0,87.0,,,HRV,HRV_0275,2022-11-30 20:30:03
,wl-rdm,95,302266,0.0-6.87-0.87,0.0,96.0,,,,,,,[],,,,,,53.2,0.0,i,1.0,False,796.2000000476837,48.0,60.0,40.0,False,,338.14447113619383,[],"[960, 540]",ColorTask,48.0,88.0,,,HRV,HRV_0275,2022-11-30 20:30:03
,wl-rdm,96,304500,0.0-6.88-0.88,0.0,97.0,,,,,,,[],,,,,,56.4,1.0,i,1.0,True,922.5,56.0,60.0,40.0,False,,229.05077542574972,[],"[960, 540]",ColorTask,49.0,89.0,,,HRV,HRV_0275,2022-11-30 20:30:03
,wl-rdm,97,307083,0.0-6.89-0.89,0.0,98.0,,,,,,,[],,,,,,53.2,0.0,u,0.0,True,1154.7000000476837,70.0,60.0,40.0,False,,349.01448949919256,[],"[960, 540]",ColorTask,50.0,90.0,,,HRV,HRV_0275,2022-11-30 20:30:03
,wl-rdm,98,309666,0.0-6.90-0.90,0.0,99.0,,,,,,,[],,,,,,50.0,1.0,i,1.0,True,1186.4000000953674,72.0,60.0,40.0,False,,321.0510759539077,[],"[960, 540]",ColorTask,51.0,91.0,,,HRV,HRV_0275,2022-11-30 20:30:03
,wl-rdm,99,312399,0.0-6.91-0.91,0.0,100.0,,,,,,,[],,,,,,50.0,0.0,u,0.0,True,1333.1999998092651,80.0,60.0,40.0,False,,325.351215540364,[],"[960, 540]",ColorTask,52.0,92.0,,,HRV,HRV_0275,2022-11-30 20:30:03
,wl-rdm,100,314634,0.0-6.92-0.92,0.0,101.0,,,,,,,[],,,,,,73.6,1.0,i,1.0,True,781.6000001430511,47.0,60.0,40.0,False,,378.78646719380595,[],"[960, 540]",ColorTask,53.0,93.0,,,HRV,HRV_0275,2022-11-30 20:30:03
,wl-rdm,101,316733,0.0-6.93-0.93,0.0,102.0,,,,,,,[],,,,,,87.9,0.0,u,0.0,True,698.5,42.0,60.0,40.0,False,,318.4277673759316,[],"[960, 540]",ColorTask,54.0,94.0,,,HRV,HRV_0275,2022-11-30 20:30:03
,wl-rdm,102,319217,0.0-6.94-0.94,0.0,103.0,,,,,,,[],,,,,,50.0,0.0,i,1.0,False,1038.8000001907349,63.0,60.0,40.0,False,,364.50315228228897,[],"[960, 540]",ColorTask,53.0,95.0,,,HRV,HRV_0275,2022-11-30 20:30:03
,wl-rdm,103,321550,0.0-6.95-0.95,0.0,104.0,,,,,,,[],,,,,,73.6,1.0,i,1.0,True,889.5,54.0,60.0,40.0,False,,372.8792625165926,[],"[960, 540]",ColorTask,54.0,96.0,,,HRV,HRV_0275,2022-11-30 20:30:03
,wl-rdm,104,323867,0.0-6.96-0.96,0.0,105.0,,,,,,,[],,,,,,62.5,0.0,u,0.0,True,1017.7999999523163,62.0,60.0,40.0,False,,217.0807868017272,[],"[960, 540]",ColorTask,55.0,97.0,,,HRV,HRV_0275,2022-11-30 20:30:03
,wl-rdm,105,326033,0.0-6.97-0.97,0.0,106.0,,,,,,,[],,,,,,87.9,1.0,i,1.0,True,755.2999999523163,46.0,60.0,40.0,False,,327.5088770208616,[],"[960, 540]",ColorTask,56.0,98.0,,,HRV,HRV_0275,2022-11-30 20:30:03
,wl-rdm,106,328184,0.0-6.98-0.98,0.0,107.0,,,,,,,[],,,,,,87.9,0.0,u,0.0,True,804.7000000476837,49.0,60.0,40.0,False,,268.51122432656734,[],"[960, 540]",ColorTask,57.0,99.0,,,HRV,HRV_0275,2022-11-30 20:30:03
,wl-rdm,107,331100,0.0-6.99-0.99,0.0,108.0,,,,,,,[],,,,,,56.4,0.0,u,0.0,True,1539.5,93.0,60.0,40.0,False,,314.80472597432,[],"[960, 540]",ColorTask,58.0,100.0,,,HRV,HRV_0275,2022-11-30 20:30:03
,wl-rdm,108,333401,0.0-6.100-0.100,0.0,109.0,,,,,,,[],,,,,,87.9,0.0,u,0.0,True,1020.1000001430511,62.0,60.0,40.0,False,,203.88394791661918,[],"[960, 540]",ColorTask,59.0,101.0,,,HRV,HRV_0275,2022-11-30 20:30:03
,wl-rdm,109,335567,0.0-6.101-0.101,0.0,110.0,,,,,,,[],,,,,,53.2,1.0,i,1.0,True,709.5,43.0,60.0,40.0,False,,387.66354983285134,[],"[960, 540]",ColorTask,60.0,102.0,,,HRV,HRV_0275,2022-11-30 20:30:03
,wl-rdm,110,337701,0.0-6.102-0.102,0.0,111.0,,,,,,,[],,,,,,62.5,1.0,i,1.0,True,704.7999999523163,43.0,60.0,40.0,False,,358.0933344787205,[],"[960, 540]",ColorTask,61.0,103.0,,,HRV,HRV_0275,2022-11-30 20:30:03
,wl-rdm,111,339835,0.0-6.103-0.103,0.0,112.0,,,,,,,[],,,,,,87.9,0.0,u,0.0,True,731.3000001907349,44.0,60.0,40.0,False,,339.2467172836525,[],"[960, 540]",ColorTask,62.0,104.0,,,HRV,HRV_0275,2022-11-30 20:30:03
,wl-rdm,112,342185,0.0-6.104-0.104,0.0,113.0,,,,,,,[],,,,,,53.2,1.0,i,1.0,True,1005.0,61.0,60.0,40.0,False,,266.5589381015235,[],"[960, 540]",ColorTask,63.0,105.0,,,HRV,HRV_0275,2022-11-30 20:30:03
,wl-rdm,113,344251,0.0-6.105-0.105,0.0,114.0,,,,,,,[],,,,,,87.9,1.0,i,1.0,True,745.3999998569489,45.0,60.0,40.0,False,,258.76352647414683,[],"[960, 540]",ColorTask,64.0,106.0,,,HRV,HRV_0275,2022-11-30 20:30:03
,wl-rdm,114,346384,0.0-6.106-0.106,0.0,115.0,,,,,,,[],,,,,,87.9,1.0,i,1.0,True,701.1000001430511,43.0,60.0,40.0,False,,350.5785305986116,[],"[960, 540]",ColorTask,65.0,107.0,,,HRV,HRV_0275,2022-11-30 20:30:03
,wl-rdm,115,349418,0.0-6.107-0.107,0.0,116.0,,,,,,,[],,,,,,53.2,0.0,i,1.0,False,1614.0000002384186,97.0,60.0,40.0,False,,337.04141873270805,[],"[960, 540]",ColorTask,64.0,108.0,,,HRV,HRV_0275,2022-11-30 20:30:03
,wl-html-keyboard-response,116,358342,0.0-7.0-0.0,1.0,117.0,,,,,,,,6917.400000095367,1.0,0,,,,,,,,,,,,,,,,,,,,,,HRV,HRV_0275,2022-11-30 20:30:03
,wl-rdm,117,360468,0.0-8.0-0.0,1.0,118.0,,,,,,,[],,,,,,73.6,1.0,i,1.0,True,687.7000000476837,42.0,60.0,40.0,False,,362.2267836112907,[],"[960, 540]",ColorTask,65.0,1.0,,,HRV,HRV_0275,2022-11-30 20:30:03
,wl-rdm,118,362702,0.0-8.1-0.1,1.0,119.0,,,,,,,[],,,,,,50.0,1.0,u,0.0,False,876.2000002861023,53.0,60.0,40.0,False,,286.7964764873858,[],"[960, 540]",ColorTask,64.0,2.0,,,HRV,HRV_0275,2022-11-30 20:30:03
,wl-rdm,119,365052,0.0-8.2-0.2,1.0,120.0,,,,,,,[],,,,,,56.4,1.0,i,1.0,True,1002.2000000476837,61.0,60.0,40.0,False,,263.4233944778276,[],"[960, 540]",ColorTask,65.0,3.0,,,HRV,HRV_0275,2022-11-30 20:30:03
,wl-rdm,120,367253,0.0-8.3-0.3,1.0,121.0,,,,,,,[],,,,,,87.9,0.0,u,0.0,True,776.1000001430511,47.0,60.0,40.0,False,,356.68879441405613,[],"[960, 540]",ColorTask,66.0,4.0,,,HRV,HRV_0275,2022-11-30 20:30:03
,wl-rdm,121,370119,0.0-8.4-0.4,1.0,122.0,,,,,,,[],,,,,,56.4,0.0,i,1.0,False,1573.0999999046326,95.0,60.0,40.0,False,,231.70701648411006,[],"[960, 540]",ColorTask,65.0,5.0,,,HRV,HRV_0275,2022-11-30 20:30:03
,wl-rdm,122,372602,0.0-8.5-0.5,1.0,123.0,,,,,,,[],,,,,,62.5,0.0,u,0.0,True,1060.8999998569489,64.0,60.0,40.0,False,,364.84360250129106,[],"[960, 540]",ColorTask,66.0,6.0,,,HRV,HRV_0275,2022-11-30 20:30:03
,wl-rdm,123,375386,0.0-8.6-0.6,1.0,124.0,,,,,,,[],,,,,,50.0,1.0,i,1.0,True,1460.4999997615814,88.0,60.0,40.0,False,,257.41210954277,[],"[960, 540]",ColorTask,67.0,7.0,,,HRV,HRV_0275,2022-11-30 20:30:03
,wl-rdm,124,378120,0.0-8.7-0.7,1.0,125.0,,,,,,,[],,,,,,56.4,0.0,u,0.0,True,1303.4000000953674,79.0,60.0,40.0,False,,360.50799884769276,[],"[960, 540]",ColorTask,68.0,8.0,,,HRV,HRV_0275,2022-11-30 20:30:03
,wl-rdm,125,380686,0.0-8.8-0.8,1.0,126.0,,,,,,,[],,,,,,50.0,1.0,i,1.0,True,1241.4000000953674,75.0,60.0,40.0,False,,248.74131949662728,[],"[960, 540]",ColorTask,69.0,9.0,,,HRV,HRV_0275,2022-11-30 20:30:03
,wl-rdm,126,383653,0.0-8.9-0.9,1.0,127.0,,,,,,,[],,,,,,53.2,0.0,u,0.0,True,1554.0999999046326,94.0,60.0,40.0,False,,348.56090847735345,[],"[960, 540]",ColorTask,70.0,10.0,,,HRV,HRV_0275,2022-11-30 20:30:03
,wl-rdm,127,385936,0.0-8.10-0.10,1.0,128.0,,,,,,,[],,,,,,62.5,1.0,i,1.0,True,817.0,49.0,60.0,40.0,False,,398.7449085132716,[],"[960, 540]",ColorTask,71.0,11.0,,,HRV,HRV_0275,2022-11-30 20:30:03
,wl-rdm,128,388154,0.0-8.11-0.11,1.0,129.0,,,,,,,[],,,,,,87.9,0.0,u,0.0,True,804.6999998092651,49.0,60.0,40.0,False,,341.97547207662734,[],"[960, 540]",ColorTask,72.0,12.0,,,HRV,HRV_0275,2022-11-30 20:30:03
,wl-rdm,129,391053,0.0-8.12-0.12,1.0,130.0,,,,,,,[],,,,,,53.2,0.0,i,1.0,False,1615.4000000953674,97.0,60.0,40.0,False,,228.4001694434835,[],"[960, 540]",ColorTask,71.0,13.0,,,HRV,HRV_0275,2022-11-30 20:30:03
,wl-rdm,130,393469,0.0-8.13-0.13,1.0,131.0,,,,,,,[],,,,,,73.6,0.0,u,0.0,True,1062.0,65.0,60.0,40.0,False,,257.9461742177633,[],"[960, 540]",ColorTask,72.0,14.0,,,HRV,HRV_0275,2022-11-30 20:30:03
,wl-rdm,131,395787,0.0-8.14-0.14,1.0,132.0,,,,,,,[],,,,,,73.6,0.0,i,1.0,False,903.2000000476837,55.0,60.0,40.0,False,,349.7781369532596,[],"[960, 540]",ColorTask,71.0,15.0,,,HRV,HRV_0275,2022-11-30 20:30:03
,wl-rdm,132,397970,0.0-8.15-0.15,1.0,133.0,,,,,,,[],,,,,,87.9,1.0,i,1.0,True,736.2999999523163,45.0,60.0,40.0,False,,355.79187908115716,[],"[960, 540]",ColorTask,72.0,16.0,,,HRV,HRV_0275,2022-11-30 20:30:03
,wl-rdm,133,400254,0.0-8.16-0.16,1.0,134.0,,,,,,,[],,,,,,73.6,1.0,i,1.0,True,947.5,57.0,60.0,40.0,False,,267.54564995112503,[],"[960, 540]",ColorTask,73.0,17.0,,,HRV,HRV_0275,2022-11-30 20:30:03
,wl-rdm,134,403770,0.0-8.17-0.17,1.0,135.0,,,,,,,[],,,,,,50.0,1.0,u,0.0,False,2043.5,123.0,60.0,40.0,False,,389.0067233554016,[],"[960, 540]",ColorTask,72.0,18.0,,,HRV,HRV_0275,2022-11-30 20:30:03
,wl-rdm,135,406237,0.0-8.18-0.18,1.0,136.0,,,,,,,[],,,,,,56.4,1.0,i,1.0,True,1035.7000000476837,63.0,60.0,40.0,False,,361.2240704479158,[],"[960, 540]",ColorTask,73.0,19.0,,,HRV,HRV_0275,2022-11-30 20:30:03
,wl-rdm,136,408737,0.0-8.19-0.19,1.0,137.0,,,,,,,[],,,,,,50.0,0.0,i,1.0,False,1105.0,67.0,60.0,40.0,False,,316.5375479288722,[],"[960, 540]",ColorTask,72.0,20.0,,,HRV,HRV_0275,2022-11-30 20:30:03
,wl-rdm,137,411836,0.0-8.20-0.20,1.0,138.0,,,,,,,[],,,,,,50.0,0.0,i,1.0,False,1789.5999999046326,108.0,60.0,40.0,False,,223.01544915830104,[],"[960, 540]",ColorTask,71.0,21.0,,,HRV,HRV_0275,2022-11-30 20:30:03
,wl-rdm,138,414270,0.0-8.21-0.21,1.0,139.0,,,,,,,[],,,,,,73.6,0.0,u,0.0,True,974.3000001907349,59.0,60.0,40.0,False,,375.74519362605264,[],"[960, 540]",ColorTask,72.0,22.0,,,HRV,HRV_0275,2022-11-30 20:30:03
,wl-rdm,139,417121,0.0-8.22-0.22,1.0,140.0,,,,,,,[],,,,,,62.5,0.0,u,0.0,True,1527.2999999523163,92.0,60.0,40.0,False,,250.77345581861033,[],"[960, 540]",ColorTask,73.0,23.0,,,HRV,HRV_0275,2022-11-30 20:30:03
,wl-rdm,140,419804,0.0-8.23-0.23,1.0,141.0,,,,,,,[],,,,,,56.4,0.0,i,1.0,False,1340.3000001907349,81.0,60.0,40.0,False,,274.9772505807728,[],"[960, 540]",ColorTask,72.0,24.0,,,HRV,HRV_0275,2022-11-30 20:30:03
,wl-rdm,141,422738,0.0-8.24-0.24,1.0,142.0,,,,,,,[],,,,,,62.5,0.0,u,0.0,True,1621.5999999046326,98.0,60.0,40.0,False,,233.13907126619947,[],"[960, 540]",ColorTask,73.0,25.0,,,HRV,HRV_0275,2022-11-30 20:30:03
,wl-rdm,142,425304,0.0-8.25-0.25,1.0,143.0,,,,,,,[],,,,,,62.5,0.0,u,0.0,True,1276.1999998092651,77.0,60.0,40.0,False,,204.16035932959073,[],"[960, 540]",ColorTask,74.0,26.0,,,HRV,HRV_0275,2022-11-30 20:30:03
,wl-rdm,143,427555,0.0-8.26-0.26,1.0,144.0,,,,,,,[],,,,,,73.6,0.0,u,0.0,True,949.2999999523163,57.0,60.0,40.0,False,,244.53854783146684,[],"[960, 540]",ColorTask,75.0,27.0,,,HRV,HRV_0275,2022-11-30 20:30:03
,wl-rdm,144,429687,0.0-8.27-0.27,1.0,145.0,,,,,,,[],,,,,,87.9,0.0,u,0.0,True,742.6000001430511,45.0,60.0,40.0,False,,300.6259833748917,[],"[960, 540]",ColorTask,76.0,28.0,,,HRV,HRV_0275,2022-11-30 20:30:03
,wl-rdm,145,431704,0.0-8.28-0.28,1.0,146.0,,,,,,,[],,,,,,87.9,1.0,i,1.0,True,737.7000000476837,45.0,60.0,40.0,False,,204.95642389881777,[],"[960, 540]",ColorTask,77.0,29.0,,,HRV,HRV_0275,2022-11-30 20:30:03
,wl-rdm,146,434172,0.0-8.29-0.29,1.0,147.0,,,,,,,[],,,,,,50.0,1.0,i,1.0,True,1120.9000000953674,68.0,60.0,40.0,False,,281.0065018119486,[],"[960, 540]",ColorTask,78.0,30.0,,,HRV,HRV_0275,2022-11-30 20:30:03
,wl-rdm,147,437105,0.0-8.30-0.30,1.0,148.0,,,,,,,[],,,,,,53.2,1.0,i,1.0,True,1652.2000000476837,100.0,60.0,40.0,False,,209.09094799251298,[],"[960, 540]",ColorTask,79.0,31.0,,,HRV,HRV_0275,2022-11-30 20:30:03
,wl-rdm,148,439205,0.0-8.31-0.31,1.0,149.0,,,,,,,[],,,,,,87.9,0.0,u,0.0,True,746.7000000476837,45.0,60.0,40.0,False,,295.74397521783504,[],"[960, 540]",ColorTask,80.0,32.0,,,HRV,HRV_0275,2022-11-30 20:30:03
,wl-rdm,149,441272,0.0-8.32-0.32,1.0,150.0,,,,,,,[],,,,,,87.9,1.0,i,1.0,True,727.7000000476837,44.0,60.0,40.0,False,,271.3105760042415,[],"[960, 540]",ColorTask,81.0,33.0,,,HRV,HRV_0275,2022-11-30 20:30:03
,wl-rdm,150,443588,0.0-8.33-0.33,1.0,151.0,,,,,,,[],,,,,,62.5,1.0,i,1.0,True,929.9999997615814,56.0,60.0,40.0,False,,307.4764122511602,[],"[960, 540]",ColorTask,82.0,34.0,,,HRV,HRV_0275,2022-11-30 20:30:03
,wl-rdm,151,445705,0.0-8.34-0.34,1.0,152.0,,,,,,,[],,,,,,62.5,0.0,u,0.0,True,769.6000001430511,47.0,60.0,40.0,False,,255.83550383608753,[],"[960, 540]",ColorTask,83.0,35.0,,,HRV,HRV_0275,2022-11-30 20:30:03
,wl-rdm,152,447739,0.0-8.35-0.35,1.0,153.0,,,,,,,[],,,,,,87.9,1.0,i,1.0,True,704.5,43.0,60.0,40.0,False,,241.47693555261134,[],"[960, 540]",ColorTask,84.0,36.0,,,HRV,HRV_0275,2022-11-30 20:30:03
,wl-rdm,153,450022,0.0-8.36-0.36,1.0,154.0,,,,,,,[],,,,,,73.6,0.0,u,0.0,True,914.3999998569489,55.0,60.0,40.0,False,,289.9945129277165,[],"[960, 540]",ColorTask,85.0,37.0,,,HRV,HRV_0275,2022-11-30 20:30:03
,wl-rdm,154,452256,0.0-8.37-0.37,1.0,155.0,,,,,,,[],,,,,,73.6,0.0,u,0.0,True,862.6999998092651,52.0,60.0,40.0,False,,288.78118551307494,[],"[960, 540]",ColorTask,86.0,38.0,,,HRV,HRV_0275,2022-11-30 20:30:03
,wl-rdm,155,455056,0.0-8.38-0.38,1.0,156.0,,,,,,,[],,,,,,62.5,0.0,u,0.0,True,1422.7999999523163,86.0,60.0,40.0,False,,308.02387098549457,[],"[960, 540]",ColorTask,87.0,39.0,,,HRV,HRV_0275,2022-11-30 20:30:03
,wl-rdm,156,457122,0.0-8.39-0.39,1.0,157.0,,,,,,,[],,,,,,73.6,0.0,u,0.0,True,704.7000000476837,43.0,60.0,40.0,False,,278.35742403761066,[],"[960, 540]",ColorTask,88.0,40.0,,,HRV,HRV_0275,2022-11-30 20:30:03
,wl-rdm,157,459273,0.0-8.40-0.40,1.0,158.0,,,,,,,[],,,,,,56.4,1.0,i,1.0,True,866.3999998569489,52.0,60.0,40.0,False,,201.15800978815656,[],"[960, 540]",ColorTask,89.0,41.0,,,HRV,HRV_0275,2022-11-30 20:30:03
,wl-rdm,158,461689,0.0-8.41-0.41,1.0,159.0,,,,,,,[],,,,,,56.4,0.0,i,1.0,False,1123.7999999523163,68.0,60.0,40.0,False,,205.97801931518268,[],"[960, 540]",ColorTask,88.0,42.0,,,HRV,HRV_0275,2022-11-30 20:30:03
,wl-rdm,159,464206,0.0-8.42-0.42,1.0,160.0,,,,,,,[],,,,,,56.4,1.0,i,1.0,True,1180.9000000953674,71.0,60.0,40.0,False,,278.3997267907017,[],"[960, 540]",ColorTask,89.0,43.0,,,HRV,HRV_0275,2022-11-30 20:30:03
,wl-rdm,160,466672,0.0-8.43-0.43,1.0,161.0,,,,,,,[],,,,,,53.2,1.0,i,1.0,True,1096.0,66.0,60.0,40.0,False,,297.6385118449181,[],"[960, 540]",ColorTask,90.0,44.0,,,HRV,HRV_0275,2022-11-30 20:30:03
,wl-rdm,161,469357,0.0-8.44-0.44,1.0,162.0,,,,,,,[],,,,,,50.0,1.0,i,1.0,True,1409.7999999523163,85.0,60.0,40.0,False,,210.8049262256885,[],"[960, 540]",ColorTask,91.0,45.0,,,HRV,HRV_0275,2022-11-30 20:30:03
,wl-rdm,162,471690,0.0-8.45-0.45,1.0,163.0,,,,,,,[],,,,,,56.4,0.0,u,0.0,True,1039.4000000953674,63.0,60.0,40.0,False,,214.18213279595813,[],"[960, 540]",ColorTask,92.0,46.0,,,HRV,HRV_0275,2022-11-30 20:30:03
,wl-rdm,163,474389,0.0-8.46-0.46,1.0,164.0,,,,,,,[],,,,,,50.0,0.0,i,1.0,False,1309.5,79.0,60.0,40.0,False,,317.8271470219763,[],"[960, 540]",ColorTask,91.0,47.0,,,HRV,HRV_0275,2022-11-30 20:30:03
,wl-rdm,164,476423,0.0-8.47-0.47,1.0,165.0,,,,,,,[],,,,,,87.9,1.0,i,1.0,True,698.3000001907349,42.0,60.0,40.0,False,,259.53065441618963,[],"[960, 540]",ColorTask,92.0,48.0,,,HRV,HRV_0275,2022-11-30 20:30:03
,wl-rdm,165,478590,0.0-8.48-0.48,1.0,166.0,,,,,,,[],,,,,,62.5,1.0,i,1.0,True,860.3999998569489,52.0,60.0,40.0,False,,233.68960415854323,[],"[960, 540]",ColorTask,93.0,49.0,,,HRV,HRV_0275,2022-11-30 20:30:03
,wl-rdm,166,480722,0.0-8.49-0.49,1.0,167.0,,,,,,,[],,,,,,53.2,0.0,u,0.0,True,778.9000000953674,47.0,60.0,40.0,False,,282.50611478058545,[],"[960, 540]",ColorTask,94.0,50.0,,,HRV,HRV_0275,2022-11-30 20:30:03
,wl-rdm,167,483056,0.0-8.50-0.50,1.0,168.0,,,,,,,[],,,,,,53.2,1.0,i,1.0,True,1011.2000000476837,61.0,60.0,40.0,False,,255.878163434823,[],"[960, 540]",ColorTask,95.0,51.0,,,HRV,HRV_0275,2022-11-30 20:30:03
,wl-rdm,168,485606,0.0-8.51-0.51,1.0,169.0,,,,,,,[],,,,,,56.4,0.0,u,0.0,True,1224.3999998569489,74.0,60.0,40.0,False,,238.803217229933,[],"[960, 540]",ColorTask,96.0,52.0,,,HRV,HRV_0275,2022-11-30 20:30:03
,wl-rdm,169,487923,0.0-8.52-0.52,1.0,170.0,,,,,,,[],,,,,,62.5,0.0,u,0.0,True,1036.3999998569489,63.0,60.0,40.0,False,,201.57140756318663,[],"[960, 540]",ColorTask,97.0,53.0,,,HRV,HRV_0275,2022-11-30 20:30:03
,wl-rdm,170,489990,0.0-8.53-0.53,1.0,171.0,,,,,,,[],,,,,,87.9,0.0,u,0.0,True,707.1999998092651,43.0,60.0,40.0,False,,285.1835242326657,[],"[960, 540]",ColorTask,98.0,54.0,,,HRV,HRV_0275,2022-11-30 20:30:03
,wl-rdm,171,492024,0.0-8.54-0.54,1.0,172.0,,,,,,,[],,,,,,87.9,0.0,u,0.0,True,682.1000001430511,41.0,60.0,40.0,False,,292.80072801949655,[],"[960, 540]",ColorTask,99.0,55.0,,,HRV,HRV_0275,2022-11-30 20:30:03
,wl-rdm,172,494057,0.0-8.55-0.55,1.0,173.0,,,,,,,[],,,,,,73.6,1.0,i,1.0,True,615.4999997615814,37.0,60.0,40.0,False,,350.72084316967386,[],"[960, 540]",ColorTask,100.0,56.0,,,HRV,HRV_0275,2022-11-30 20:30:03
,wl-rdm,173,496040,0.0-8.56-0.56,1.0,174.0,,,,,,,[],,,,,,73.6,1.0,i,1.0,True,669.2000002861023,41.0,60.0,40.0,False,,243.65573520604735,[],"[960, 540]",ColorTask,101.0,57.0,,,HRV,HRV_0275,2022-11-30 20:30:03
,wl-rdm,174,498340,0.0-8.57-0.57,1.0,175.0,,,,,,,[],,,,,,50.0,0.0,i,1.0,False,987.2999999523163,60.0,60.0,40.0,False,,240.42177369382495,[],"[960, 540]",ColorTask,100.0,58.0,,,HRV,HRV_0275,2022-11-30 20:30:03
,wl-rdm,175,500574,0.0-8.58-0.58,1.0,176.0,,,,,,,[],,,,,,56.4,1.0,i,1.0,True,964.7000000476837,58.0,60.0,40.0,False,,214.78734729383007,[],"[960, 540]",ColorTask,101.0,59.0,,,HRV,HRV_0275,2022-11-30 20:30:03
,wl-rdm,176,503030,0.0-8.59-0.59,1.0,177.0,,,,,,,[],,,,,,56.4,0.0,u,0.0,True,1136.6999998092651,69.0,60.0,40.0,False,,219.55974532635145,[],"[960, 540]",ColorTask,102.0,60.0,,,HRV,HRV_0275,2022-11-30 20:30:03
,wl-rdm,177,505107,0.0-8.60-0.60,1.0,178.0,,,,,,,[],,,,,,56.4,1.0,i,1.0,True,795.2999999523163,48.0,60.0,40.0,False,,231.6724605811949,[],"[960, 540]",ColorTask,103.0,61.0,,,HRV,HRV_0275,2022-11-30 20:30:03
,wl-rdm,178,507591,0.0-8.61-0.61,1.0,179.0,,,,,,,[],,,,,,50.0,1.0,u,0.0,False,1064.4000000953674,64.0,60.0,40.0,False,,360.7002708425242,[],"[960, 540]",ColorTask,102.0,62.0,,,HRV,HRV_0275,2022-11-30 20:30:03
,wl-rdm,179,510441,0.0-8.62-0.62,1.0,180.0,,,,,,,[],,,,,,53.2,0.0,i,1.0,False,1503.5,91.0,60.0,40.0,False,,275.143058272085,[],"[960, 540]",ColorTask,101.0,63.0,,,HRV,HRV_0275,2022-11-30 20:30:03
,wl-rdm,180,512607,0.0-8.63-0.63,1.0,181.0,,,,,,,[],,,,,,62.5,1.0,i,1.0,True,708.2000000476837,43.0,60.0,40.0,False,,367.0059837869687,[],"[960, 540]",ColorTask,102.0,64.0,,,HRV,HRV_0275,2022-11-30 20:30:03
,wl-rdm,181,514941,0.0-8.64-0.64,1.0,182.0,,,,,,,[],,,,,,50.0,0.0,i,1.0,False,997.5,60.0,60.0,40.0,False,,281.4714851279002,[],"[960, 540]",ColorTask,101.0,65.0,,,HRV,HRV_0275,2022-11-30 20:30:03
,wl-rdm,182,517724,0.0-8.65-0.65,1.0,183.0,,,,,,,[],,,,,,50.0,1.0,i,1.0,True,1396.0,84.0,60.0,40.0,False,,308.7396838757391,[],"[960, 540]",ColorTask,102.0,66.0,,,HRV,HRV_0275,2022-11-30 20:30:03
,wl-rdm,183,519891,0.0-8.66-0.66,1.0,184.0,,,,,,,[],,,,,,73.6,1.0,i,1.0,True,838.8999998569489,51.0,60.0,40.0,False,,238.23817508410505,[],"[960, 540]",ColorTask,103.0,67.0,,,HRV,HRV_0275,2022-11-30 20:30:03
,wl-rdm,184,522791,0.0-8.67-0.67,1.0,185.0,,,,,,,[],,,,,,50.0,0.0,u,0.0,True,1523.7999999523163,92.0,60.0,40.0,False,,308.2935560537256,[],"[960, 540]",ColorTask,104.0,68.0,,,HRV,HRV_0275,2022-11-30 20:30:03
,wl-rdm,185,525090,0.0-8.68-0.68,1.0,186.0,,,,,,,[],,,,,,87.9,1.0,i,1.0,True,821.8999998569489,50.0,60.0,40.0,False,,387.25169842150086,[],"[960, 540]",ColorTask,105.0,69.0,,,HRV,HRV_0275,2022-11-30 20:30:03
,wl-rdm,186,527575,0.0-8.69-0.69,1.0,187.0,,,,,,,[],,,,,,53.2,1.0,i,1.0,True,1158.8999998569489,70.0,60.0,40.0,False,,235.9352360184484,[],"[960, 540]",ColorTask,106.0,70.0,,,HRV,HRV_0275,2022-11-30 20:30:03
,wl-rdm,187,530457,0.0-8.70-0.70,1.0,188.0,,,,,,,[],,,,,,50.0,1.0,i,1.0,True,1564.8999998569489,94.0,60.0,40.0,False,,255.88091340842186,[],"[960, 540]",ColorTask,107.0,71.0,,,HRV,HRV_0275,2022-11-30 20:30:03
,wl-rdm,188,532641,0.0-8.71-0.71,1.0,189.0,,,,,,,[],,,,,,73.6,1.0,i,1.0,True,898.9000000953674,54.0,60.0,40.0,False,,203.84539099821012,[],"[960, 540]",ColorTask,108.0,72.0,,,HRV,HRV_0275,2022-11-30 20:30:03
,wl-rdm,189,534725,0.0-8.72-0.72,1.0,190.0,,,,,,,[],,,,,,87.9,0.0,u,0.0,True,788.2000000476837,48.0,60.0,40.0,False,,231.22686215007047,[],"[960, 540]",ColorTask,109.0,73.0,,,HRV,HRV_0275,2022-11-30 20:30:03
,wl-rdm,190,537274,0.0-8.73-0.73,1.0,191.0,,,,,,,[],,,,,,53.2,0.0,i,1.0,False,1138.1999998092651,69.0,60.0,40.0,False,,321.89105591051646,[],"[960, 540]",ColorTask,108.0,74.0,,,HRV,HRV_0275,2022-11-30 20:30:03
,wl-rdm,191,539375,0.0-8.74-0.74,1.0,192.0,,,,,,,[],,,,,,87.9,1.0,i,1.0,True,722.7999999523163,44.0,60.0,40.0,False,,309.04453542728317,[],"[960, 540]",ColorTask,109.0,75.0,,,HRV,HRV_0275,2022-11-30 20:30:03
,wl-rdm,192,541759,0.0-8.75-0.75,1.0,193.0,,,,,,,[],,,,,,73.6,1.0,i,1.0,True,1064.4000000953674,64.0,60.0,40.0,False,,263.679496186282,[],"[960, 540]",ColorTask,110.0,76.0,,,HRV,HRV_0275,2022-11-30 20:30:03
,wl-rdm,193,543759,0.0-8.76-0.76,1.0,194.0,,,,,,,[],,,,,,87.9,0.0,u,0.0,True,697.1999998092651,42.0,60.0,40.0,False,,244.15489439605793,[],"[960, 540]",ColorTask,111.0,77.0,,,HRV,HRV_0275,2022-11-30 20:30:03
,wl-rdm,194,546542,0.0-8.77-0.77,1.0,195.0,,,,,,,[],,,,,,56.4,0.0,u,0.0,True,1340.8000001907349,81.0,60.0,40.0,False,,372.5688447029846,[],"[960, 540]",ColorTask,112.0,78.0,,,HRV,HRV_0275,2022-11-30 20:30:03
,wl-rdm,195,549292,0.0-8.78-0.78,1.0,196.0,,,,,,,[],,,,,,50.0,0.0,i,1.0,False,1370.5,83.0,60.0,40.0,False,,312.86490633976797,[],"[960, 540]",ColorTask,111.0,79.0,,,HRV,HRV_0275,2022-11-30 20:30:03
,wl-rdm,196,551309,0.0-8.79-0.79,1.0,197.0,,,,,,,[],,,,,,87.9,0.0,u,0.0,True,762.6000001430511,46.0,60.0,40.0,False,,200.38216705909028,[],"[960, 540]",ColorTask,112.0,80.0,,,HRV,HRV_0275,2022-11-30 20:30:03
,wl-rdm,197,553476,0.0-8.80-0.80,1.0,198.0,,,,,,,[],,,,,,56.4,1.0,i,1.0,True,744.0999999046326,45.0,60.0,40.0,False,,350.53227020795475,[],"[960, 540]",ColorTask,113.0,81.0,,,HRV,HRV_0275,2022-11-30 20:30:03
,wl-rdm,198,555759,0.0-8.81-0.81,1.0,199.0,,,,,,,[],,,,,,53.2,1.0,i,1.0,True,969.3000001907349,59.0,60.0,40.0,False,,232.50615319855595,[],"[960, 540]",ColorTask,114.0,82.0,,,HRV,HRV_0275,2022-11-30 20:30:03
,wl-rdm,199,558159,0.0-8.82-0.82,1.0,200.0,,,,,,,[],,,,,,62.5,1.0,i,1.0,True,942.5999999046326,57.0,60.0,40.0,False,,390.64911919875817,[],"[960, 540]",ColorTask,115.0,83.0,,,HRV,HRV_0275,2022-11-30 20:30:03
,wl-rdm,200,560192,0.0-8.83-0.83,1.0,201.0,,,,,,,[],,,,,,87.9,1.0,i,1.0,True,732.6000001430511,44.0,60.0,40.0,False,,234.65837138378268,[],"[960, 540]",ColorTask,116.0,84.0,,,HRV,HRV_0275,2022-11-30 20:30:03
,wl-rdm,201,562793,0.0-8.84-0.84,1.0,202.0,,,,,,,[],,,,,,53.2,1.0,u,0.0,False,1259.2999999523163,75.0,60.0,40.0,False,,282.54418543488305,[],"[960, 540]",ColorTask,115.0,85.0,,,HRV,HRV_0275,2022-11-30 20:30:03
,wl-rdm,202,565476,0.0-8.85-0.85,1.0,203.0,,,,,,,[],,,,,,53.2,1.0,i,1.0,True,1335.7999999523163,81.0,60.0,40.0,False,,278.5239614740194,[],"[960, 540]",ColorTask,116.0,86.0,,,HRV,HRV_0275,2022-11-30 20:30:03
,wl-rdm,203,568210,0.0-8.86-0.86,1.0,204.0,,,,,,,[],,,,,,53.2,0.0,u,0.0,True,1347.6999998092651,81.0,60.0,40.0,False,,328.3597562490077,[],"[960, 540]",ColorTask,117.0,87.0,,,HRV,HRV_0275,2022-11-30 20:30:03
,wl-rdm,204,570760,0.0-8.87-0.87,1.0,205.0,,,,,,,[],,,,,,62.5,0.0,u,0.0,True,1122.6000001430511,68.0,60.0,40.0,False,,365.9830074901272,[],"[960, 540]",ColorTask,118.0,88.0,,,HRV,HRV_0275,2022-11-30 20:30:03
,wl-rdm,205,573543,0.0-8.88-0.88,1.0,206.0,,,,,,,[],,,,,,56.4,1.0,i,1.0,True,1379.2000000476837,83.0,60.0,40.0,False,,335.11109544213923,[],"[960, 540]",ColorTask,119.0,89.0,,,HRV,HRV_0275,2022-11-30 20:30:03
,wl-rdm,206,576060,0.0-8.89-0.89,1.0,207.0,,,,,,,[],,,,,,53.2,1.0,i,1.0,True,1144.9000000953674,69.0,60.0,40.0,False,,309.2652945874085,[],"[960, 540]",ColorTask,120.0,90.0,,,HRV,HRV_0275,2022-11-30 20:30:03
,wl-rdm,207,578559,0.0-8.90-0.90,1.0,208.0,,,,,,,[],,,,,,73.6,0.0,u,0.0,True,1124.1999998092651,68.0,60.0,40.0,False,,302.0385259882661,[],"[960, 540]",ColorTask,121.0,91.0,,,HRV,HRV_0275,2022-11-30 20:30:03
,wl-rdm,208,580959,0.0-8.91-0.91,1.0,209.0,,,,,,,[],,,,,,73.6,0.0,u,0.0,True,1104.0,67.0,60.0,40.0,False,,207.58331535749693,[],"[960, 540]",ColorTask,122.0,92.0,,,HRV,HRV_0275,2022-11-30 20:30:03
,wl-rdm,209,583043,0.0-8.92-0.92,1.0,210.0,,,,,,,[],,,,,,87.9,1.0,i,1.0,True,771.8999998569489,47.0,60.0,40.0,False,,217.18755055270384,[],"[960, 540]",ColorTask,123.0,93.0,,,HRV,HRV_0275,2022-11-30 20:30:03
,wl-rdm,210,586009,0.0-8.93-0.93,1.0,211.0,,,,,,,[],,,,,,62.5,1.0,i,1.0,True,1497.0999999046326,90.0,60.0,40.0,False,,399.1702991712435,[],"[960, 540]",ColorTask,124.0,94.0,,,HRV,HRV_0275,2022-11-30 20:30:03
,wl-rdm,211,588494,0.0-8.94-0.94,1.0,212.0,,,,,,,[],,,,,,50.0,0.0,u,0.0,True,1101.4000000953674,67.0,60.0,40.0,False,,309.4013050614428,[],"[960, 540]",ColorTask,125.0,95.0,,,HRV,HRV_0275,2022-11-30 20:30:03
,wl-rdm,212,590927,0.0-8.95-0.95,1.0,213.0,,,,,,,[],,,,,,56.4,1.0,i,1.0,True,987.7999999523163,60.0,60.0,40.0,False,,371.2351563854441,[],"[960, 540]",ColorTask,126.0,96.0,,,HRV,HRV_0275,2022-11-30 20:30:03
,wl-rdm,213,594060,0.0-8.96-0.96,1.0,214.0,,,,,,,[],,,,,,53.2,1.0,i,1.0,True,1759.8999998569489,106.0,60.0,40.0,False,,312.6755291378131,[],"[960, 540]",ColorTask,127.0,97.0,,,HRV,HRV_0275,2022-11-30 20:30:03
,wl-rdm,214,596510,0.0-8.97-0.97,1.0,215.0,,,,,,,[],,,,,,50.0,0.0,u,0.0,True,1036.4000000953674,63.0,60.0,40.0,False,,341.92848195428314,[],"[960, 540]",ColorTask,128.0,98.0,,,HRV,HRV_0275,2022-11-30 20:30:03
,wl-rdm,215,599076,0.0-8.98-0.98,1.0,216.0,,,,,,,[],,,,,,62.5,1.0,i,1.0,True,1090.2999999523163,66.0,60.0,40.0,False,,391.6262960098221,[],"[960, 540]",ColorTask,129.0,99.0,,,HRV,HRV_0275,2022-11-30 20:30:03
,wl-rdm,216,601343,0.0-8.99-0.99,1.0,217.0,,,,,,,[],,,,,,73.6,1.0,i,1.0,True,942.9000000953674,57.0,60.0,40.0,False,,247.49275402201206,[],"[960, 540]",ColorTask,130.0,100.0,,,HRV,HRV_0275,2022-11-30 20:30:03
,wl-rdm,217,603710,0.0-8.100-0.100,1.0,218.0,,,,,,,[],,,,,,56.4,0.0,u,0.0,True,902.7999999523163,55.0,60.0,40.0,False,,367.1304097028904,[],"[960, 540]",ColorTask,131.0,101.0,,,HRV,HRV_0275,2022-11-30 20:30:03
,wl-rdm,218,605995,0.0-8.101-0.101,1.0,219.0,,,,,,,[],,,,,,62.5,0.0,u,0.0,True,930.2000000476837,56.0,60.0,40.0,False,,282.08851948485676,[],"[960, 540]",ColorTask,132.0,102.0,,,HRV,HRV_0275,2022-11-30 20:30:03
,wl-rdm,219,608145,0.0-8.102-0.102,1.0,220.0,,,,,,,[],,,,,,73.6,1.0,i,1.0,True,803.0,49.0,60.0,40.0,False,,262.88456265084176,[],"[960, 540]",ColorTask,133.0,103.0,,,HRV,HRV_0275,2022-11-30 20:30:03
,wl-rdm,220,610462,0.0-8.103-0.103,1.0,221.0,,,,,,,[],,,,,,53.2,0.0,u,0.0,True,980.2000000476837,59.0,60.0,40.0,False,,268.99431736237955,[],"[960, 540]",ColorTask,134.0,104.0,,,HRV,HRV_0275,2022-11-30 20:30:03
,wl-rdm,221,613545,0.0-8.104-0.104,1.0,222.0,,,,,,,[],,,,,,53.2,0.0,i,1.0,False,1656.2000000476837,100.0,60.0,40.0,False,,347.7641009153741,[],"[960, 540]",ColorTask,133.0,105.0,,,HRV,HRV_0275,2022-11-30 20:30:03
,wl-rdm,222,615813,0.0-8.105-0.105,1.0,223.0,,,,,,,[],,,,,,62.5,1.0,i,1.0,True,911.2000000476837,55.0,60.0,40.0,False,,275.03743485269246,[],"[960, 540]",ColorTask,134.0,106.0,,,HRV,HRV_0275,2022-11-30 20:30:03
,wl-rdm,223,618346,0.0-8.106-0.106,1.0,224.0,,,,,,,[],,,,,,62.5,1.0,i,1.0,True,1206.0,73.0,60.0,40.0,False,,252.35237617713165,[],"[960, 540]",ColorTask,135.0,107.0,,,HRV,HRV_0275,2022-11-30 20:30:03
,wl-rdm,224,620545,0.0-8.107-0.107,1.0,225.0,,,,,,,[],,,,,,53.2,0.0,u,0.0,True,885.6999998092651,54.0,60.0,40.0,False,,235.10596591223862,[],"[960, 540]",ColorTask,136.0,108.0,,,HRV,HRV_0275,2022-11-30 20:30:03
,wl-html-button-response,225,623722,0.0-9.0-0.0,,,,,,,,,,3169.5999999046326,,0,,,,,,,,,,,,,,,,,,,,<h3>End of this session. Thank you!</h3><br>,['Close window'],HRV,HRV_0275,2022-11-30 20:30:03
