trialN,stimuli,trialStartTime,trialStartTime_UNIX,stimulus1,stimulus2,stimulus1Bid,stimulus2Bid,delta,selected,rt,rt_UNIX,rt_perfnow,receivedResponse,rsp,trialEndTime,trialDuration,trialEndTime_UNIX,trialDuration_UNIX,exp,subjectId,date
0,"[{'imgObject': {}, 'id': 'mango', 'src': '/static/foodstim60/mango.jpg', 'key': 'u', 'origWidth': 411, 'origHeight': 411, 'width': 411, 'height': 411, 'widthPercent': 0.45, 'rescaleHeight': False, 'trialN': 0, 'loaded': True, 'loadedTime': 5354.5, 'positionName': 'LEFT', 'positionCoords': [244.68, 178.5], 'bid': 5.2700000000000005}, {'imgObject': {}, 'id': 'omelette', 'src': '/static/foodstim60/omelette.jpg', 'key': 'i', 'origWidth': 410, 'origHeight': 409, 'width': 410, 'height': 409, 'widthPercent': 0.45, 'rescaleHeight': False, 'trialN': 0, 'loaded': True, 'loadedTime': 5553.600000023842, 'positionName': 'RIGHT', 'positionCoords': [710.32, 179.5], 'bid': 4.12}]",6648.600000023842,1669839996157,mango,omelette,5.2700000000000005,4.12,-1.1500000000000004,mango,926.1999999880791,927,927.3999999761581,True,u,8086.800000011921,1438.199999988079,1669839997595,1438,HRV,HRV_0284,2022-11-30 20:32:37
1,"[{'imgObject': {}, 'id': 'sushi w_condiments', 'src': '/static/foodstim60/sushi w_condiments.jpg', 'key': 'u', 'origWidth': 410, 'origHeight': 410, 'width': 410, 'height': 410, 'widthPercent': 0.45, 'rescaleHeight': False, 'trialN': 1, 'loaded': True, 'loadedTime': 5601.800000011921, 'positionName': 'LEFT', 'positionCoords': [245.68, 179], 'bid': 0.35}, {'imgObject': {}, 'id': 'salmon', 'src': '/static/foodstim60/salmon.jpg', 'key': 'i', 'origWidth': 410, 'origHeight': 409, 'width': 410, 'height': 409, 'widthPercent': 0.45, 'rescaleHeight': False, 'trialN': 1, 'loaded': True, 'loadedTime': 5602.400000035763, 'positionName': 'RIGHT', 'positionCoords': [710.32, 179.5], 'bid': 3.11}]",8087.300000011921,1669839997595,sushi w_condiments,salmon,0.35,3.11,2.76,salmon,1338.5,1340,1339.1000000238419,True,i,9927.699999988079,1840.3999999761581,1669839999436,1841,HRV,HRV_0284,2022-11-30 20:32:37
2,"[{'imgObject': {}, 'id': 'pear', 'src': '/static/foodstim60/pear.jpg', 'key': 'u', 'origWidth': 411, 'origHeight': 410, 'width': 411, 'height': 410, 'widthPercent': 0.45, 'rescaleHeight': False, 'trialN': 2, 'loaded': True, 'loadedTime': 5641.600000023842, 'positionName': 'LEFT', 'positionCoords': [244.68, 179], 'bid': 6.5}, {'imgObject': {}, 'id': 'cherry tomato', 'src': '/static/foodstim60/cherry tomato.jpg', 'key': 'i', 'origWidth': 410, 'origHeight': 410, 'width': 410, 'height': 410, 'widthPercent': 0.45, 'rescaleHeight': False, 'trialN': 2, 'loaded': True, 'loadedTime': 5687.600000023842, 'positionName': 'RIGHT', 'positionCoords': [710.32, 179], 'bid': 6.65}]",9928.199999988079,1669839999436,pear,cherry tomato,6.5,6.65,0.15000000000000036,pear,1061.5,1063,1062.2000000476837,True,u,11503.5,1575.300000011921,1669840001012,1576,HRV,HRV_0284,2022-11-30 20:32:37
3,"[{'imgObject': {}, 'id': 'granola w milk', 'src': '/static/foodstim60/granola w milk.jpg', 'key': 'u', 'origWidth': 410, 'origHeight': 410, 'width': 410, 'height': 410, 'widthPercent': 0.45, 'rescaleHeight': False, 'trialN': 3, 'loaded': True, 'loadedTime': 5722.900000035763, 'positionName': 'LEFT', 'positionCoords': [245.68, 179], 'bid': 3.37}, {'imgObject': {}, 'id': 'raisin bran w milk', 'src': '/static/foodstim60/raisin bran w milk.jpg', 'key': 'i', 'origWidth': 411, 'origHeight': 411, 'width': 411, 'height': 411, 'widthPercent': 0.45, 'rescaleHeight': False, 'trialN': 3, 'loaded': True, 'loadedTime': 5765.699999988079, 'positionName': 'RIGHT', 'positionCoords': [710.32, 178.5], 'bid': 3.27}]",11503.800000011921,1669840001012,granola w milk,raisin bran w milk,3.37,3.27,-0.10000000000000009,raisin bran w milk,1447.5,1448,1448.300000011921,True,i,13469.199999988079,1965.3999999761581,1669840002977,1965,HRV,HRV_0284,2022-11-30 20:32:37
4,"[{'imgObject': {}, 'id': 'luckycharms', 'src': '/static/foodstim60/luckycharms.jpg', 'key': 'u', 'origWidth': 410, 'origHeight': 409, 'width': 410, 'height': 409, 'widthPercent': 0.45, 'rescaleHeight': False, 'trialN': 4, 'loaded': True, 'loadedTime': 5807.600000023842, 'positionName': 'LEFT', 'positionCoords': [245.68, 179.5], 'bid': 3.82}, {'imgObject': {}, 'id': 'raisin bran w milk', 'src': '/static/foodstim60/raisin bran w milk.jpg', 'key': 'i', 'origWidth': 411, 'origHeight': 411, 'width': 411, 'height': 411, 'widthPercent': 0.45, 'rescaleHeight': False, 'trialN': 4, 'loaded': True, 'loadedTime': 5766.699999988079, 'positionName': 'RIGHT', 'positionCoords': [710.32, 178.5], 'bid': 3.27}]",13469.699999988079,1669840002978,luckycharms,raisin bran w milk,3.82,3.27,-0.5499999999999998,luckycharms,1043.800000011921,1044,1044.4000000357628,True,u,15022.0,1552.300000011921,1669840004530,1552,HRV,HRV_0284,2022-11-30 20:32:37
5,"[{'imgObject': {}, 'id': 'kiwi', 'src': '/static/foodstim60/kiwi.jpg', 'key': 'u', 'origWidth': 410, 'origHeight': 410, 'width': 410, 'height': 410, 'widthPercent': 0.45, 'rescaleHeight': False, 'trialN': 5, 'loaded': True, 'loadedTime': 5810.699999988079, 'positionName': 'LEFT', 'positionCoords': [245.68, 179], 'bid': 6.05}, {'imgObject': {}, 'id': 'eggs', 'src': '/static/foodstim60/eggs.jpg', 'key': 'i', 'origWidth': 409, 'origHeight': 409, 'width': 409, 'height': 409, 'widthPercent': 0.45, 'rescaleHeight': False, 'trialN': 5, 'loaded': True, 'loadedTime': 5884.699999988079, 'positionName': 'RIGHT', 'positionCoords': [710.32, 179.5], 'bid': 6.0200000000000005}]",15022.600000023842,1669840004531,kiwi,eggs,6.05,6.0200000000000005,-0.02999999999999936,kiwi,1162.8999999761581,1163,1163.5999999642372,True,u,16697.900000035763,1675.300000011921,1669840006206,1675,HRV,HRV_0284,2022-11-30 20:32:37
6,"[{'imgObject': {}, 'id': 'salad w chicken', 'src': '/static/foodstim60/salad w chicken.jpg', 'key': 'u', 'origWidth': 411, 'origHeight': 411, 'width': 411, 'height': 411, 'widthPercent': 0.45, 'rescaleHeight': False, 'trialN': 6, 'loaded': True, 'loadedTime': 5927.199999988079, 'positionName': 'LEFT', 'positionCoords': [244.68, 178.5], 'bid': 4.38}, {'imgObject': {}, 'id': 'avocado', 'src': '/static/foodstim60/avocado.jpg', 'key': 'i', 'origWidth': 409, 'origHeight': 409, 'width': 409, 'height': 409, 'widthPercent': 0.45, 'rescaleHeight': False, 'trialN': 6, 'loaded': True, 'loadedTime': 5930.600000023842, 'positionName': 'RIGHT', 'positionCoords': [710.32, 179.5], 'bid': 5.45}]",16698.5,1669840006207,salad w chicken,avocado,4.38,5.45,1.0700000000000003,salad w chicken,2255.199999988079,2255,2255.800000011921,True,u,19461.0,2762.5,1669840008969,2762,HRV,HRV_0284,2022-11-30 20:32:37
7,"[{'imgObject': {}, 'id': 'kiwi', 'src': '/static/foodstim60/kiwi.jpg', 'key': 'u', 'origWidth': 410, 'origHeight': 410, 'width': 410, 'height': 410, 'widthPercent': 0.45, 'rescaleHeight': False, 'trialN': 7, 'loaded': True, 'loadedTime': 5843.400000035763, 'positionName': 'LEFT', 'positionCoords': [245.68, 179], 'bid': 6.05}, {'imgObject': {}, 'id': 'veggieswithdip', 'src': '/static/foodstim60/veggieswithdip.jpg', 'key': 'i', 'origWidth': 409, 'origHeight': 409, 'width': 409, 'height': 409, 'widthPercent': 0.45, 'rescaleHeight': False, 'trialN': 7, 'loaded': True, 'loadedTime': 5934.900000035763, 'positionName': 'RIGHT', 'positionCoords': [710.32, 179.5], 'bid': 3.75}]",19461.30000001192,1669840008969,kiwi,veggieswithdip,6.05,3.75,-2.3,kiwi,976.5,978,977.1000000238419,True,u,20945.600000023842,1484.300000011921,1669840010454,1485,HRV,HRV_0284,2022-11-30 20:32:37
8,"[{'imgObject': {}, 'id': 'mashed potato', 'src': '/static/foodstim60/mashed potato.jpg', 'key': 'u', 'origWidth': 409, 'origHeight': 409, 'width': 409, 'height': 409, 'widthPercent': 0.45, 'rescaleHeight': False, 'trialN': 8, 'loaded': True, 'loadedTime': 5970, 'positionName': 'LEFT', 'positionCoords': [246.68, 179.5], 'bid': 5.07}, {'imgObject': {}, 'id': 'grilled chicken strips', 'src': '/static/foodstim60/grilled chicken strips.jpg', 'key': 'i', 'origWidth': 410, 'origHeight': 411, 'width': 410, 'height': 411, 'widthPercent': 0.45, 'rescaleHeight': False, 'trialN': 8, 'loaded': True, 'loadedTime': 5975.800000011921, 'positionName': 'RIGHT', 'positionCoords': [710.32, 178.5], 'bid': 4.32}]",20946.19999998808,1669840010454,mashed potato,grilled chicken strips,5.07,4.32,-0.75,grilled chicken strips,1043.300000011921,1044,1043.9000000357628,True,i,22503.19999998808,1557.0,1669840012011,1557,HRV,HRV_0284,2022-11-30 20:32:37
9,"[{'imgObject': {}, 'id': 'popsicles', 'src': '/static/foodstim60/popsicles.jpg', 'key': 'u', 'origWidth': 410, 'origHeight': 410, 'width': 410, 'height': 410, 'widthPercent': 0.45, 'rescaleHeight': False, 'trialN': 9, 'loaded': True, 'loadedTime': 6647.100000023842, 'positionName': 'LEFT', 'positionCoords': [245.68, 179], 'bid': 5.4}, {'imgObject': {}, 'id': 'hashbrowns', 'src': '/static/foodstim60/hashbrowns.jpg', 'key': 'i', 'origWidth': 411, 'origHeight': 410, 'width': 411, 'height': 410, 'widthPercent': 0.45, 'rescaleHeight': False, 'trialN': 9, 'loaded': True, 'loadedTime': 6014.699999988079, 'positionName': 'RIGHT', 'positionCoords': [710.32, 179], 'bid': 0.66}]",22503.69999998808,1669840012012,popsicles,hashbrowns,5.4,0.66,-4.74,hashbrowns,1312.300000011921,1313,1313.4000000357628,True,i,24320.80000001192,1817.1000000238419,1669840013829,1817,HRV,HRV_0284,2022-11-30 20:32:37
10,"[{'imgObject': {}, 'id': 'cherry tomato', 'src': '/static/foodstim60/cherry tomato.jpg', 'key': 'u', 'origWidth': 410, 'origHeight': 410, 'width': 410, 'height': 410, 'widthPercent': 0.45, 'rescaleHeight': False, 'trialN': 10, 'loaded': True, 'loadedTime': 5679.800000011921, 'positionName': 'LEFT', 'positionCoords': [245.68, 179], 'bid': 6.65}, {'imgObject': {}, 'id': 'lox', 'src': '/static/foodstim60/lox.jpg', 'key': 'i', 'origWidth': 410, 'origHeight': 411, 'width': 410, 'height': 411, 'widthPercent': 0.45, 'rescaleHeight': False, 'trialN': 10, 'loaded': True, 'loadedTime': 6017.699999988079, 'positionName': 'RIGHT', 'positionCoords': [710.32, 178.5], 'bid': 5.51}]",24321.100000023842,1669840013829,cherry tomato,lox,6.65,5.51,-1.1400000000000006,cherry tomato,1588.800000011921,1590,1589.5,True,u,26426.600000023842,2105.5,1669840015935,2106,HRV,HRV_0284,2022-11-30 20:32:37
11,"[{'imgObject': {}, 'id': 'fruitsalad', 'src': '/static/foodstim60/fruitsalad.jpg', 'key': 'u', 'origWidth': 410, 'origHeight': 410, 'width': 410, 'height': 410, 'widthPercent': 0.45, 'rescaleHeight': False, 'trialN': 11, 'loaded': True, 'loadedTime': 6060, 'positionName': 'LEFT', 'positionCoords': [245.68, 179], 'bid': 7.18}, {'imgObject': {}, 'id': 'burrito', 'src': '/static/foodstim60/burrito.jpg', 'key': 'i', 'origWidth': 410, 'origHeight': 410, 'width': 410, 'height': 410, 'widthPercent': 0.45, 'rescaleHeight': False, 'trialN': 11, 'loaded': True, 'loadedTime': 6094.300000011921, 'positionName': 'RIGHT', 'positionCoords': [710.32, 179], 'bid': 5.71}]",26427.0,1669840015935,fruitsalad,burrito,7.18,5.71,-1.4699999999999998,fruitsalad,1449.6000000238419,1450,1450.300000011921,True,u,28386.30000001192,1959.300000011921,1669840017894,1959,HRV,HRV_0284,2022-11-30 20:32:37
12,"[{'imgObject': {}, 'id': 'blueberries', 'src': '/static/foodstim60/blueberries.jpg', 'key': 'u', 'origWidth': 411, 'origHeight': 411, 'width': 411, 'height': 411, 'widthPercent': 0.45, 'rescaleHeight': False, 'trialN': 12, 'loaded': True, 'loadedTime': 6128.800000011921, 'positionName': 'LEFT', 'positionCoords': [244.68, 178.5], 'bid': 6.72}, {'imgObject': {}, 'id': 'turkey sandwich', 'src': '/static/foodstim60/turkey sandwich.jpg', 'key': 'i', 'origWidth': 409, 'origHeight': 409, 'width': 409, 'height': 409, 'widthPercent': 0.45, 'rescaleHeight': False, 'trialN': 12, 'loaded': True, 'loadedTime': 6129.5, 'positionName': 'RIGHT', 'positionCoords': [710.32, 179.5], 'bid': 5.67}]",28386.69999998808,1669840017895,blueberries,turkey sandwich,6.72,5.67,-1.0499999999999998,turkey sandwich,1026,1027,1026.9000000357628,True,i,29921.69999998808,1535.0,1669840019430,1535,HRV,HRV_0284,2022-11-30 20:32:37
13,"[{'imgObject': {}, 'id': 'eggs', 'src': '/static/foodstim60/eggs.jpg', 'key': 'u', 'origWidth': 409, 'origHeight': 409, 'width': 409, 'height': 409, 'widthPercent': 0.45, 'rescaleHeight': False, 'trialN': 13, 'loaded': True, 'loadedTime': 5884.100000023842, 'positionName': 'LEFT', 'positionCoords': [246.68, 179.5], 'bid': 6.0200000000000005}, {'imgObject': {}, 'id': 'cherries', 'src': '/static/foodstim60/cherries.jpg', 'key': 'i', 'origWidth': 410, 'origHeight': 411, 'width': 410, 'height': 411, 'widthPercent': 0.45, 'rescaleHeight': False, 'trialN': 13, 'loaded': True, 'loadedTime': 6164.800000011921, 'positionName': 'RIGHT', 'positionCoords': [710.32, 178.5], 'bid': 6.75}]",29922.19999998808,1669840019430,eggs,cherries,6.0200000000000005,6.75,0.7299999999999995,cherries,1024.300000011921,1025,1024.9000000357628,True,i,31455.5,1533.300000011921,1669840020964,1534,HRV,HRV_0284,2022-11-30 20:32:37
14,"[{'imgObject': {}, 'id': 'mashed potato', 'src': '/static/foodstim60/mashed potato.jpg', 'key': 'u', 'origWidth': 409, 'origHeight': 409, 'width': 409, 'height': 409, 'widthPercent': 0.45, 'rescaleHeight': False, 'trialN': 14, 'loaded': True, 'loadedTime': 5971.400000035763, 'positionName': 'LEFT', 'positionCoords': [246.68, 179.5], 'bid': 5.07}, {'imgObject': {}, 'id': 'hotdog w must', 'src': '/static/foodstim60/hotdog w must.jpg', 'key': 'i', 'origWidth': 409, 'origHeight': 409, 'width': 409, 'height': 409, 'widthPercent': 0.45, 'rescaleHeight': False, 'trialN': 14, 'loaded': True, 'loadedTime': 6172.400000035763, 'positionName': 'RIGHT', 'positionCoords': [710.32, 179.5], 'bid': 4.94}]",31456.100000023842,1669840020964,mashed potato,hotdog w must,5.07,4.94,-0.1299999999999999,mashed potato,893.6999999880791,898,894.3999999761581,True,u,32867.90000003576,1411.800000011921,1669840022380,1416,HRV,HRV_0284,2022-11-30 20:32:37
15,"[{'imgObject': {}, 'id': 'chicken nuggets2', 'src': '/static/foodstim60/chicken nuggets2.jpg', 'key': 'u', 'origWidth': 410, 'origHeight': 409, 'width': 410, 'height': 409, 'widthPercent': 0.45, 'rescaleHeight': False, 'trialN': 15, 'loaded': True, 'loadedTime': 6172.600000023842, 'positionName': 'LEFT', 'positionCoords': [245.68, 179.5], 'bid': 4.28}, {'imgObject': {}, 'id': 'blueberries', 'src': '/static/foodstim60/blueberries.jpg', 'key': 'i', 'origWidth': 411, 'origHeight': 411, 'width': 411, 'height': 411, 'widthPercent': 0.45, 'rescaleHeight': False, 'trialN': 15, 'loaded': True, 'loadedTime': 6094.400000035763, 'positionName': 'RIGHT', 'positionCoords': [710.32, 178.5], 'bid': 6.72}]",32868.30000001192,1669840022380,chicken nuggets2,blueberries,4.28,6.72,2.4399999999999995,blueberries,1156.800000011921,1158,1157.6000000238419,True,i,34535.69999998808,1667.3999999761581,1669840024047,1667,HRV,HRV_0284,2022-11-30 20:32:37
16,"[{'imgObject': {}, 'id': 'Tribe humus pita', 'src': '/static/foodstim60/Tribe humus pita.jpg', 'key': 'u', 'origWidth': 411, 'origHeight': 411, 'width': 411, 'height': 411, 'widthPercent': 0.45, 'rescaleHeight': False, 'trialN': 16, 'loaded': True, 'loadedTime': 6209.699999988079, 'positionName': 'LEFT', 'positionCoords': [244.68, 178.5], 'bid': 4.97}, {'imgObject': {}, 'id': 'banana', 'src': '/static/foodstim60/banana.jpg', 'key': 'i', 'origWidth': 410, 'origHeight': 410, 'width': 410, 'height': 410, 'widthPercent': 0.45, 'rescaleHeight': False, 'trialN': 16, 'loaded': True, 'loadedTime': 6245.199999988079, 'positionName': 'RIGHT', 'positionCoords': [710.32, 179], 'bid': 5.68}]",34536.19999998808,1669840024048,Tribe humus pita,banana,4.97,5.68,0.71,banana,986.9000000357628,988,987.6000000238419,True,i,36036.19999998808,1500.0,1669840025548,1500,HRV,HRV_0284,2022-11-30 20:32:37
17,"[{'imgObject': {}, 'id': 'blackbeanswithrice', 'src': '/static/foodstim60/blackbeanswithrice.jpg', 'key': 'u', 'origWidth': 410, 'origHeight': 410, 'width': 410, 'height': 410, 'widthPercent': 0.45, 'rescaleHeight': False, 'trialN': 17, 'loaded': True, 'loadedTime': 6248, 'positionName': 'LEFT', 'positionCoords': [245.68, 179], 'bid': 4.48}, {'imgObject': {}, 'id': 'lox', 'src': '/static/foodstim60/lox.jpg', 'key': 'i', 'origWidth': 410, 'origHeight': 411, 'width': 410, 'height': 411, 'widthPercent': 0.45, 'rescaleHeight': False, 'trialN': 17, 'loaded': True, 'loadedTime': 6050.600000023842, 'positionName': 'RIGHT', 'positionCoords': [710.32, 178.5], 'bid': 5.51}]",36036.5,1669840025548,blackbeanswithrice,lox,4.48,5.51,1.0299999999999994,blackbeanswithrice,1324.699999988079,1326,1325.5,True,u,37876.5,1840.0,1669840027388,1840,HRV,HRV_0284,2022-11-30 20:32:37
18,"[{'imgObject': {}, 'id': 'Tribe humus pita', 'src': '/static/foodstim60/Tribe humus pita.jpg', 'key': 'u', 'origWidth': 411, 'origHeight': 411, 'width': 411, 'height': 411, 'widthPercent': 0.45, 'rescaleHeight': False, 'trialN': 18, 'loaded': True, 'loadedTime': 6210.600000023842, 'positionName': 'LEFT', 'positionCoords': [244.68, 178.5], 'bid': 4.97}, {'imgObject': {}, 'id': 'avocado', 'src': '/static/foodstim60/avocado.jpg', 'key': 'i', 'origWidth': 409, 'origHeight': 409, 'width': 409, 'height': 409, 'widthPercent': 0.45, 'rescaleHeight': False, 'trialN': 18, 'loaded': True, 'loadedTime': 5929.300000011921, 'positionName': 'RIGHT', 'positionCoords': [710.32, 179.5], 'bid': 5.45}]",37877.0,1669840027389,Tribe humus pita,avocado,4.97,5.45,0.4800000000000004,avocado,1282.6000000238419,1283,1283.300000011921,True,i,39672.40000003576,1795.4000000357628,1669840029184,1795,HRV,HRV_0284,2022-11-30 20:32:37
19,"[{'imgObject': {}, 'id': 'steak', 'src': '/static/foodstim60/steak.jpg', 'key': 'u', 'origWidth': 410, 'origHeight': 410, 'width': 410, 'height': 410, 'widthPercent': 0.45, 'rescaleHeight': False, 'trialN': 19, 'loaded': True, 'loadedTime': 6282.5, 'positionName': 'LEFT', 'positionCoords': [245.68, 179], 'bid': 9.84}, {'imgObject': {}, 'id': 'turkeysandwich', 'src': '/static/foodstim60/turkeysandwich.jpg', 'key': 'i', 'origWidth': 409, 'origHeight': 409, 'width': 409, 'height': 409, 'widthPercent': 0.45, 'rescaleHeight': False, 'trialN': 19, 'loaded': True, 'loadedTime': 6288, 'positionName': 'RIGHT', 'positionCoords': [710.32, 179.5], 'bid': 6.2}]",39672.69999998808,1669840029184,steak,turkeysandwich,9.84,6.2,-3.6399999999999997,steak,851.2000000476837,853,852.0,True,u,41034.80000001192,1362.1000000238419,1669840030547,1363,HRV,HRV_0284,2022-11-30 20:32:37
20,"[{'imgObject': {}, 'id': 'baked potato', 'src': '/static/foodstim60/baked potato.jpg', 'key': 'u', 'origWidth': 409, 'origHeight': 410, 'width': 409, 'height': 410, 'widthPercent': 0.45, 'rescaleHeight': False, 'trialN': 20, 'loaded': True, 'loadedTime': 6329.100000023842, 'positionName': 'LEFT', 'positionCoords': [246.68, 179], 'bid': 4.57}, {'imgObject': {}, 'id': 'popsicles', 'src': '/static/foodstim60/popsicles.jpg', 'key': 'i', 'origWidth': 410, 'origHeight': 410, 'width': 410, 'height': 410, 'widthPercent': 0.45, 'rescaleHeight': False, 'trialN': 20, 'loaded': True, 'loadedTime': 6646.600000023842, 'positionName': 'RIGHT', 'positionCoords': [710.32, 179], 'bid': 5.4}]",41035.30000001192,1669840030547,baked potato,popsicles,4.57,5.4,0.8300000000000001,popsicles,900.5,901,901.1000000238419,True,i,42451.10000002384,1415.800000011921,1669840031963,1416,HRV,HRV_0284,2022-11-30 20:32:37
21,"[{'imgObject': {}, 'id': 'roastedpotatoes', 'src': '/static/foodstim60/roastedpotatoes.jpg', 'key': 'u', 'origWidth': 409, 'origHeight': 410, 'width': 409, 'height': 410, 'widthPercent': 0.45, 'rescaleHeight': False, 'trialN': 21, 'loaded': True, 'loadedTime': 6364.600000023842, 'positionName': 'LEFT', 'positionCoords': [246.68, 179], 'bid': 4.13}, {'imgObject': {}, 'id': 'sweetpotato', 'src': '/static/foodstim60/sweetpotato.jpg', 'key': 'i', 'origWidth': 410, 'origHeight': 410, 'width': 410, 'height': 410, 'widthPercent': 0.45, 'rescaleHeight': False, 'trialN': 21, 'loaded': True, 'loadedTime': 6368.900000035763, 'positionName': 'RIGHT', 'positionCoords': [710.32, 179], 'bid': 3.77}]",42451.60000002384,1669840031963,roastedpotatoes,sweetpotato,4.13,3.77,-0.3599999999999999,roastedpotatoes,1039.3999999761581,1040,1040.0999999642372,True,u,44002.69999998808,1551.0999999642372,1669840033514,1551,HRV,HRV_0284,2022-11-30 20:32:37
22,"[{'imgObject': {}, 'id': 'grilled chicken strips', 'src': '/static/foodstim60/grilled chicken strips.jpg', 'key': 'u', 'origWidth': 410, 'origHeight': 411, 'width': 410, 'height': 411, 'widthPercent': 0.45, 'rescaleHeight': False, 'trialN': 22, 'loaded': True, 'loadedTime': 5976, 'positionName': 'LEFT', 'positionCoords': [245.68, 178.5], 'bid': 4.32}, {'imgObject': {}, 'id': 'blackbeanswithrice', 'src': '/static/foodstim60/blackbeanswithrice.jpg', 'key': 'i', 'origWidth': 410, 'origHeight': 410, 'width': 410, 'height': 410, 'widthPercent': 0.45, 'rescaleHeight': False, 'trialN': 22, 'loaded': True, 'loadedTime': 6246, 'positionName': 'RIGHT', 'positionCoords': [710.32, 179], 'bid': 4.48}]",44003.30000001192,1669840033515,grilled chicken strips,blackbeanswithrice,4.32,4.48,0.16000000000000014,grilled chicken strips,1082,1083,1082.6000000238419,True,u,45594.69999998808,1591.3999999761581,1669840035106,1591,HRV,HRV_0284,2022-11-30 20:32:37
23,"[{'imgObject': {}, 'id': 'seaweed', 'src': '/static/foodstim60/seaweed.jpg', 'key': 'u', 'origWidth': 410, 'origHeight': 410, 'width': 410, 'height': 410, 'widthPercent': 0.45, 'rescaleHeight': False, 'trialN': 23, 'loaded': True, 'loadedTime': 6403.800000011921, 'positionName': 'LEFT', 'positionCoords': [245.68, 179], 'bid': 0.08}, {'imgObject': {}, 'id': 'rigatoni and sauce', 'src': '/static/foodstim60/rigatoni and sauce.jpg', 'key': 'i', 'origWidth': 410, 'origHeight': 411, 'width': 410, 'height': 411, 'widthPercent': 0.45, 'rescaleHeight': False, 'trialN': 23, 'loaded': True, 'loadedTime': 6409.5, 'positionName': 'RIGHT', 'positionCoords': [710.32, 178.5], 'bid': 2.73}]",45595.10000002384,1669840035107,seaweed,rigatoni and sauce,0.08,2.73,2.65,rigatoni and sauce,939.8999999761581,940,940.5999999642372,True,i,47053.30000001192,1458.199999988079,1669840036565,1458,HRV,HRV_0284,2022-11-30 20:32:37
24,"[{'imgObject': {}, 'id': 'Grapes', 'src': '/static/foodstim60/Grapes.jpg', 'key': 'u', 'origWidth': 411, 'origHeight': 411, 'width': 411, 'height': 411, 'widthPercent': 0.45, 'rescaleHeight': False, 'trialN': 24, 'loaded': True, 'loadedTime': 6446.400000035763, 'positionName': 'LEFT', 'positionCoords': [244.68, 178.5], 'bid': 5.83}, {'imgObject': {}, 'id': 'olives', 'src': '/static/foodstim60/olives.jpg', 'key': 'i', 'origWidth': 410, 'origHeight': 410, 'width': 410, 'height': 410, 'widthPercent': 0.45, 'rescaleHeight': False, 'trialN': 24, 'loaded': True, 'loadedTime': 6480.300000011921, 'positionName': 'RIGHT', 'positionCoords': [710.32, 179], 'bid': 6.71}]",47053.69999998808,1669840036566,Grapes,olives,5.83,6.71,0.8799999999999999,olives,1055.800000011921,1056,1056.4000000357628,True,i,48618.60000002384,1564.9000000357628,1669840038130,1564,HRV,HRV_0284,2022-11-30 20:32:37
25,"[{'imgObject': {}, 'id': 'omelette', 'src': '/static/foodstim60/omelette.jpg', 'key': 'u', 'origWidth': 410, 'origHeight': 409, 'width': 410, 'height': 409, 'widthPercent': 0.45, 'rescaleHeight': False, 'trialN': 25, 'loaded': True, 'loadedTime': 5549.600000023842, 'positionName': 'LEFT', 'positionCoords': [245.68, 179.5], 'bid': 4.12}, {'imgObject': {}, 'id': 'cherry tomato', 'src': '/static/foodstim60/cherry tomato.jpg', 'key': 'i', 'origWidth': 410, 'origHeight': 410, 'width': 410, 'height': 410, 'widthPercent': 0.45, 'rescaleHeight': False, 'trialN': 25, 'loaded': True, 'loadedTime': 5677.300000011921, 'positionName': 'RIGHT', 'positionCoords': [710.32, 179], 'bid': 6.65}]",48619.10000002384,1669840038131,omelette,cherry tomato,4.12,6.65,2.5300000000000002,cherry tomato,871.8000000119209,873,872.6999999880791,True,i,50001.5,1382.3999999761581,1669840039513,1382,HRV,HRV_0284,2022-11-30 20:32:37
26,"[{'imgObject': {}, 'id': 'rigatoni and sauce', 'src': '/static/foodstim60/rigatoni and sauce.jpg', 'key': 'u', 'origWidth': 410, 'origHeight': 411, 'width': 410, 'height': 411, 'widthPercent': 0.45, 'rescaleHeight': False, 'trialN': 26, 'loaded': True, 'loadedTime': 6409.900000035763, 'positionName': 'LEFT', 'positionCoords': [245.68, 178.5], 'bid': 2.73}, {'imgObject': {}, 'id': 'salad w chicken', 'src': '/static/foodstim60/salad w chicken.jpg', 'key': 'i', 'origWidth': 411, 'origHeight': 411, 'width': 411, 'height': 411, 'widthPercent': 0.45, 'rescaleHeight': False, 'trialN': 26, 'loaded': True, 'loadedTime': 5887.800000011921, 'positionName': 'RIGHT', 'positionCoords': [710.32, 178.5], 'bid': 4.38}]",50002.0,1669840039514,rigatoni and sauce,salad w chicken,2.73,4.38,1.65,salad w chicken,1583.5,1584,1584.300000011921,True,i,52101.80000001192,2099.800000011921,1669840041614,2100,HRV,HRV_0284,2022-11-30 20:32:37
27,"[{'imgObject': {}, 'id': 'tacos', 'src': '/static/foodstim60/tacos.jpg', 'key': 'u', 'origWidth': 411, 'origHeight': 411, 'width': 411, 'height': 411, 'widthPercent': 0.45, 'rescaleHeight': False, 'trialN': 27, 'loaded': True, 'loadedTime': 6483.800000011921, 'positionName': 'LEFT', 'positionCoords': [244.68, 178.5], 'bid': 6.33}, {'imgObject': {}, 'id': 'cantaloupe', 'src': '/static/foodstim60/cantaloupe.jpg', 'key': 'i', 'origWidth': 409, 'origHeight': 409, 'width': 409, 'height': 409, 'widthPercent': 0.45, 'rescaleHeight': False, 'trialN': 27, 'loaded': True, 'loadedTime': 5415.100000023842, 'positionName': 'RIGHT', 'positionCoords': [710.32, 179.5], 'bid': 5.42}]",52102.0,1669840041614,tacos,cantaloupe,6.33,5.42,-0.9100000000000001,cantaloupe,933.3000000119209,934,934.0,True,i,53547.69999998808,1445.699999988079,1669840043059,1445,HRV,HRV_0284,2022-11-30 20:32:37
28,"[{'imgObject': {}, 'id': 'pear', 'src': '/static/foodstim60/pear.jpg', 'key': 'u', 'origWidth': 411, 'origHeight': 410, 'width': 411, 'height': 410, 'widthPercent': 0.45, 'rescaleHeight': False, 'trialN': 28, 'loaded': True, 'loadedTime': 5676.699999988079, 'positionName': 'LEFT', 'positionCoords': [244.68, 179], 'bid': 6.5}, {'imgObject': {}, 'id': 'chickenfingers', 'src': '/static/foodstim60/chickenfingers.jpg', 'key': 'i', 'origWidth': 410, 'origHeight': 410, 'width': 410, 'height': 410, 'widthPercent': 0.45, 'rescaleHeight': False, 'trialN': 28, 'loaded': True, 'loadedTime': 5455.400000035763, 'positionName': 'RIGHT', 'positionCoords': [710.32, 179], 'bid': 4.1}]",53548.10000002384,1669840043060,pear,chickenfingers,6.5,4.1,-2.4000000000000004,pear,1520.699999988079,1521,1521.3999999761581,True,u,55580.30000001192,2032.199999988079,1669840045092,2032,HRV,HRV_0284,2022-11-30 20:32:37
29,"[{'imgObject': {}, 'id': 'cocktailshrimp', 'src': '/static/foodstim60/cocktailshrimp.jpg', 'key': 'u', 'origWidth': 410, 'origHeight': 410, 'width': 410, 'height': 410, 'widthPercent': 0.45, 'rescaleHeight': False, 'trialN': 29, 'loaded': True, 'loadedTime': 5502.800000011921, 'positionName': 'LEFT', 'positionCoords': [245.68, 179], 'bid': 10}, {'imgObject': {}, 'id': 'steak', 'src': '/static/foodstim60/steak.jpg', 'key': 'i', 'origWidth': 410, 'origHeight': 410, 'width': 410, 'height': 410, 'widthPercent': 0.45, 'rescaleHeight': False, 'trialN': 29, 'loaded': True, 'loadedTime': 6283.400000035763, 'positionName': 'RIGHT', 'positionCoords': [710.32, 179], 'bid': 9.84}]",55580.5,1669840045092,cocktailshrimp,steak,10.0,9.84,-0.16000000000000014,steak,932.1999999880791,933,933.1000000238419,True,i,57022.0,1441.5,1669840046534,1442,HRV,HRV_0284,2022-11-30 20:32:37
30,"[{'imgObject': {}, 'id': 'blackbeanswithrice', 'src': '/static/foodstim60/blackbeanswithrice.jpg', 'key': 'u', 'origWidth': 410, 'origHeight': 410, 'width': 410, 'height': 410, 'widthPercent': 0.45, 'rescaleHeight': False, 'trialN': 30, 'loaded': True, 'loadedTime': 6249.199999988079, 'positionName': 'LEFT', 'positionCoords': [245.68, 179], 'bid': 4.48}, {'imgObject': {}, 'id': 'yogurt no spoon', 'src': '/static/foodstim60/yogurt no spoon.jpg', 'key': 'i', 'origWidth': 411, 'origHeight': 410, 'width': 411, 'height': 410, 'widthPercent': 0.45, 'rescaleHeight': False, 'trialN': 30, 'loaded': True, 'loadedTime': 6324.100000023842, 'positionName': 'RIGHT', 'positionCoords': [710.32, 179], 'bid': 5.38}]",57022.40000003576,1669840046534,blackbeanswithrice,yogurt no spoon,4.48,5.38,0.8999999999999995,yogurt no spoon,1523.5,1524,1524.199999988079,True,i,59056.60000002384,2034.199999988079,1669840048568,2034,HRV,HRV_0284,2022-11-30 20:32:37
31,"[{'imgObject': {}, 'id': 'turkeysandwich', 'src': '/static/foodstim60/turkeysandwich.jpg', 'key': 'u', 'origWidth': 409, 'origHeight': 409, 'width': 409, 'height': 409, 'widthPercent': 0.45, 'rescaleHeight': False, 'trialN': 31, 'loaded': True, 'loadedTime': 6286.100000023842, 'positionName': 'LEFT', 'positionCoords': [246.68, 179.5], 'bid': 6.2}, {'imgObject': {}, 'id': 'burger', 'src': '/static/foodstim60/burger.jpg', 'key': 'i', 'origWidth': 409, 'origHeight': 409, 'width': 409, 'height': 409, 'widthPercent': 0.45, 'rescaleHeight': False, 'trialN': 31, 'loaded': True, 'loadedTime': 6415.600000023842, 'positionName': 'RIGHT', 'positionCoords': [710.32, 179.5], 'bid': 5.8100000000000005}]",59057.10000002384,1669840048569,turkeysandwich,burger,6.2,5.8100000000000005,-0.3899999999999997,turkeysandwich,1062.3999999761581,1063,1063.0,True,u,60626.30000001192,1569.199999988079,1669840050138,1569,HRV,HRV_0284,2022-11-30 20:32:37
32,"[{'imgObject': {}, 'id': 'tacos', 'src': '/static/foodstim60/tacos.jpg', 'key': 'u', 'origWidth': 411, 'origHeight': 411, 'width': 411, 'height': 411, 'widthPercent': 0.45, 'rescaleHeight': False, 'trialN': 32, 'loaded': True, 'loadedTime': 6485.5, 'positionName': 'LEFT', 'positionCoords': [244.68, 178.5], 'bid': 6.33}, {'imgObject': {}, 'id': 'fruitsalad', 'src': '/static/foodstim60/fruitsalad.jpg', 'key': 'i', 'origWidth': 410, 'origHeight': 410, 'width': 410, 'height': 410, 'widthPercent': 0.45, 'rescaleHeight': False, 'trialN': 32, 'loaded': True, 'loadedTime': 6056.699999988079, 'positionName': 'RIGHT', 'positionCoords': [710.32, 179], 'bid': 7.18}]",60626.80000001192,1669840050139,tacos,fruitsalad,6.33,7.18,0.8499999999999996,tacos,1040.699999988079,1041,1041.3999999761581,True,u,62183.0,1556.199999988079,1669840051695,1556,HRV,HRV_0284,2022-11-30 20:32:37
33,"[{'imgObject': {}, 'id': 'eggsalad', 'src': '/static/foodstim60/eggsalad.jpg', 'key': 'u', 'origWidth': 410, 'origHeight': 409, 'width': 410, 'height': 409, 'widthPercent': 0.45, 'rescaleHeight': False, 'trialN': 33, 'loaded': True, 'loadedTime': 6451, 'positionName': 'LEFT', 'positionCoords': [245.68, 179.5], 'bid': 2.3000000000000003}, {'imgObject': {}, 'id': 'hashbrowns', 'src': '/static/foodstim60/hashbrowns.jpg', 'key': 'i', 'origWidth': 411, 'origHeight': 410, 'width': 411, 'height': 410, 'widthPercent': 0.45, 'rescaleHeight': False, 'trialN': 33, 'loaded': True, 'loadedTime': 6012.199999988079, 'positionName': 'RIGHT', 'positionCoords': [710.32, 179], 'bid': 0.66}]",62183.40000003576,1669840051695,eggsalad,hashbrowns,2.3000000000000003,0.66,-1.6400000000000001,eggsalad,1314.8999999761581,1316,1315.8999999761581,True,u,64001.90000003576,1818.5,1669840053514,1819,HRV,HRV_0284,2022-11-30 20:32:37
34,"[{'imgObject': {}, 'id': 'yogurt no spoon', 'src': '/static/foodstim60/yogurt no spoon.jpg', 'key': 'u', 'origWidth': 411, 'origHeight': 410, 'width': 411, 'height': 410, 'widthPercent': 0.45, 'rescaleHeight': False, 'trialN': 34, 'loaded': True, 'loadedTime': 6323.300000011921, 'positionName': 'LEFT', 'positionCoords': [244.68, 179], 'bid': 5.38}, {'imgObject': {}, 'id': 'popsicles', 'src': '/static/foodstim60/popsicles.jpg', 'key': 'i', 'origWidth': 410, 'origHeight': 410, 'width': 410, 'height': 410, 'widthPercent': 0.45, 'rescaleHeight': False, 'trialN': 34, 'loaded': True, 'loadedTime': 6645.199999988079, 'positionName': 'RIGHT', 'positionCoords': [710.32, 179], 'bid': 5.4}]",64002.40000003576,1669840053514,yogurt no spoon,popsicles,5.38,5.4,0.020000000000000462,yogurt no spoon,1067.8999999761581,1069,1068.5999999642372,True,u,65578.5,1576.0999999642372,1669840055090,1576,HRV,HRV_0284,2022-11-30 20:32:37
35,"[{'imgObject': {}, 'id': 'hotdog w must', 'src': '/static/foodstim60/hotdog w must.jpg', 'key': 'u', 'origWidth': 409, 'origHeight': 409, 'width': 409, 'height': 409, 'widthPercent': 0.45, 'rescaleHeight': False, 'trialN': 35, 'loaded': True, 'loadedTime': 6168.5, 'positionName': 'LEFT', 'positionCoords': [246.68, 179.5], 'bid': 4.94}, {'imgObject': {}, 'id': 'ice cream sundae 002', 'src': '/static/foodstim60/ice cream sundae 002.jpg', 'key': 'i', 'origWidth': 409, 'origHeight': 409, 'width': 409, 'height': 409, 'widthPercent': 0.45, 'rescaleHeight': False, 'trialN': 35, 'loaded': True, 'loadedTime': 6483.699999988079, 'positionName': 'RIGHT', 'positionCoords': [710.32, 179.5], 'bid': 9.9}]",65579.0,1669840055091,hotdog w must,ice cream sundae 002,4.94,9.9,4.96,hotdog w must,846.1999999880791,847,846.9000000357628,True,u,66933.19999998808,1354.199999988079,1669840056445,1354,HRV,HRV_0284,2022-11-30 20:32:37
36,"[{'imgObject': {}, 'id': 'sushi w_condiments', 'src': '/static/foodstim60/sushi w_condiments.jpg', 'key': 'u', 'origWidth': 410, 'origHeight': 410, 'width': 410, 'height': 410, 'widthPercent': 0.45, 'rescaleHeight': False, 'trialN': 36, 'loaded': True, 'loadedTime': 5593.900000035763, 'positionName': 'LEFT', 'positionCoords': [245.68, 179], 'bid': 0.35}, {'imgObject': {}, 'id': 'hashbrowns', 'src': '/static/foodstim60/hashbrowns.jpg', 'key': 'i', 'origWidth': 411, 'origHeight': 410, 'width': 411, 'height': 410, 'widthPercent': 0.45, 'rescaleHeight': False, 'trialN': 36, 'loaded': True, 'loadedTime': 6014, 'positionName': 'RIGHT', 'positionCoords': [710.32, 179], 'bid': 0.66}]",66933.69999998808,1669840056445,sushi w_condiments,hashbrowns,0.35,0.66,0.31000000000000005,sushi w_condiments,1200.800000011921,1202,1201.5,True,u,68641.5,1707.800000011921,1669840058153,1708,HRV,HRV_0284,2022-11-30 20:32:37
37,"[{'imgObject': {}, 'id': 'lox', 'src': '/static/foodstim60/lox.jpg', 'key': 'u', 'origWidth': 410, 'origHeight': 411, 'width': 410, 'height': 411, 'widthPercent': 0.45, 'rescaleHeight': False, 'trialN': 37, 'loaded': True, 'loadedTime': 6049.800000011921, 'positionName': 'LEFT', 'positionCoords': [245.68, 178.5], 'bid': 5.51}, {'imgObject': {}, 'id': 'turkey sandwich', 'src': '/static/foodstim60/turkey sandwich.jpg', 'key': 'i', 'origWidth': 409, 'origHeight': 409, 'width': 409, 'height': 409, 'widthPercent': 0.45, 'rescaleHeight': False, 'trialN': 37, 'loaded': True, 'loadedTime': 6133.100000023842, 'positionName': 'RIGHT', 'positionCoords': [710.32, 179.5], 'bid': 5.67}]",68642.0,1669840058154,lox,turkey sandwich,5.51,5.67,0.16000000000000014,turkey sandwich,957.6999999880791,958,958.5,True,i,70116.40000003576,1474.4000000357628,1669840059628,1474,HRV,HRV_0284,2022-11-30 20:32:37
38,"[{'imgObject': {}, 'id': 'turkey sandwich', 'src': '/static/foodstim60/turkey sandwich.jpg', 'key': 'u', 'origWidth': 409, 'origHeight': 409, 'width': 409, 'height': 409, 'widthPercent': 0.45, 'rescaleHeight': False, 'trialN': 38, 'loaded': True, 'loadedTime': 6132.600000023842, 'positionName': 'LEFT', 'positionCoords': [246.68, 179.5], 'bid': 5.67}, {'imgObject': {}, 'id': 'hotdog w must', 'src': '/static/foodstim60/hotdog w must.jpg', 'key': 'i', 'origWidth': 409, 'origHeight': 409, 'width': 409, 'height': 409, 'widthPercent': 0.45, 'rescaleHeight': False, 'trialN': 38, 'loaded': True, 'loadedTime': 6171.5, 'positionName': 'RIGHT', 'positionCoords': [710.32, 179.5], 'bid': 4.94}]",70116.90000003576,1669840059629,turkey sandwich,hotdog w must,5.67,4.94,-0.7299999999999995,turkey sandwich,705.8999999761581,706,706.5,True,u,71327.60000002384,1210.699999988079,1669840060839,1210,HRV,HRV_0284,2022-11-30 20:32:37
39,"[{'imgObject': {}, 'id': 'chickenfingers', 'src': '/static/foodstim60/chickenfingers.jpg', 'key': 'u', 'origWidth': 410, 'origHeight': 410, 'width': 410, 'height': 410, 'widthPercent': 0.45, 'rescaleHeight': False, 'trialN': 39, 'loaded': True, 'loadedTime': 5454.600000023842, 'positionName': 'LEFT', 'positionCoords': [245.68, 179], 'bid': 4.1}, {'imgObject': {}, 'id': 'roastedpotatoes', 'src': '/static/foodstim60/roastedpotatoes.jpg', 'key': 'i', 'origWidth': 409, 'origHeight': 410, 'width': 409, 'height': 410, 'widthPercent': 0.45, 'rescaleHeight': False, 'trialN': 39, 'loaded': True, 'loadedTime': 6330.300000011921, 'positionName': 'RIGHT', 'positionCoords': [710.32, 179], 'bid': 4.13}]",71328.0,1669840060840,chickenfingers,roastedpotatoes,4.1,4.13,0.03000000000000025,chickenfingers,1177.199999988079,1178,1178.0,True,u,73016.30000001192,1688.300000011921,1669840062528,1688,HRV,HRV_0284,2022-11-30 20:32:37
40,"[{'imgObject': {}, 'id': 'cantaloupe', 'src': '/static/foodstim60/cantaloupe.jpg', 'key': 'u', 'origWidth': 409, 'origHeight': 409, 'width': 409, 'height': 409, 'widthPercent': 0.45, 'rescaleHeight': False, 'trialN': 40, 'loaded': True, 'loadedTime': 5418.300000011921, 'positionName': 'LEFT', 'positionCoords': [246.68, 179.5], 'bid': 5.42}, {'imgObject': {}, 'id': 'hotdog w must', 'src': '/static/foodstim60/hotdog w must.jpg', 'key': 'i', 'origWidth': 409, 'origHeight': 409, 'width': 409, 'height': 409, 'widthPercent': 0.45, 'rescaleHeight': False, 'trialN': 40, 'loaded': True, 'loadedTime': 6170.600000023842, 'positionName': 'RIGHT', 'positionCoords': [710.32, 179.5], 'bid': 4.94}]",73016.80000001192,1669840062529,cantaloupe,hotdog w must,5.42,4.94,-0.47999999999999954,cantaloupe,1201.800000011921,1202,1202.5,True,u,74727.30000001192,1710.5,1669840064239,1710,HRV,HRV_0284,2022-11-30 20:32:37
41,"[{'imgObject': {}, 'id': 'fruitsalad', 'src': '/static/foodstim60/fruitsalad.jpg', 'key': 'u', 'origWidth': 410, 'origHeight': 410, 'width': 410, 'height': 410, 'widthPercent': 0.45, 'rescaleHeight': False, 'trialN': 41, 'loaded': True, 'loadedTime': 6058.300000011921, 'positionName': 'LEFT', 'positionCoords': [245.68, 179], 'bid': 7.18}, {'imgObject': {}, 'id': 'salad w chicken', 'src': '/static/foodstim60/salad w chicken.jpg', 'key': 'i', 'origWidth': 411, 'origHeight': 411, 'width': 411, 'height': 411, 'widthPercent': 0.45, 'rescaleHeight': False, 'trialN': 41, 'loaded': True, 'loadedTime': 5885.100000023842, 'positionName': 'RIGHT', 'positionCoords': [710.32, 178.5], 'bid': 4.38}]",74727.80000001192,1669840064240,fruitsalad,salad w chicken,7.18,4.38,-2.8,fruitsalad,1035.6000000238419,1036,1036.199999988079,True,u,76284.10000002384,1556.300000011921,1669840065796,1556,HRV,HRV_0284,2022-11-30 20:32:37
42,"[{'imgObject': {}, 'id': 'blackbeanswithrice', 'src': '/static/foodstim60/blackbeanswithrice.jpg', 'key': 'u', 'origWidth': 410, 'origHeight': 410, 'width': 410, 'height': 410, 'widthPercent': 0.45, 'rescaleHeight': False, 'trialN': 42, 'loaded': True, 'loadedTime': 6249.900000035763, 'positionName': 'LEFT', 'positionCoords': [245.68, 179], 'bid': 4.48}, {'imgObject': {}, 'id': 'salmon', 'src': '/static/foodstim60/salmon.jpg', 'key': 'i', 'origWidth': 410, 'origHeight': 409, 'width': 410, 'height': 409, 'widthPercent': 0.45, 'rescaleHeight': False, 'trialN': 42, 'loaded': True, 'loadedTime': 5638.400000035763, 'positionName': 'RIGHT', 'positionCoords': [710.32, 179.5], 'bid': 3.11}]",76284.60000002384,1669840065796,blackbeanswithrice,salmon,4.48,3.11,-1.3700000000000006,salmon,1546,1547,1546.699999988079,True,i,78350.80000001192,2066.199999988079,1669840067863,2067,HRV,HRV_0284,2022-11-30 20:32:37
43,"[{'imgObject': {}, 'id': 'chickenfingers', 'src': '/static/foodstim60/chickenfingers.jpg', 'key': 'u', 'origWidth': 410, 'origHeight': 410, 'width': 410, 'height': 410, 'widthPercent': 0.45, 'rescaleHeight': False, 'trialN': 43, 'loaded': True, 'loadedTime': 5452.199999988079, 'positionName': 'LEFT', 'positionCoords': [245.68, 179], 'bid': 4.1}, {'imgObject': {}, 'id': 'omelette', 'src': '/static/foodstim60/omelette.jpg', 'key': 'i', 'origWidth': 410, 'origHeight': 409, 'width': 410, 'height': 409, 'widthPercent': 0.45, 'rescaleHeight': False, 'trialN': 43, 'loaded': True, 'loadedTime': 5554.5, 'positionName': 'RIGHT', 'positionCoords': [710.32, 179.5], 'bid': 4.12}]",78351.40000003576,1669840067863,chickenfingers,omelette,4.1,4.12,0.020000000000000462,chickenfingers,3039,3040,3040.199999988079,True,u,81907.69999998808,3556.2999999523163,1669840071419,3556,HRV,HRV_0284,2022-11-30 20:32:37
44,"[{'imgObject': {}, 'id': 'tacos', 'src': '/static/foodstim60/tacos.jpg', 'key': 'u', 'origWidth': 411, 'origHeight': 411, 'width': 411, 'height': 411, 'widthPercent': 0.45, 'rescaleHeight': False, 'trialN': 44, 'loaded': True, 'loadedTime': 6485.900000035763, 'positionName': 'LEFT', 'positionCoords': [244.68, 178.5], 'bid': 6.33}, {'imgObject': {}, 'id': 'cocktailshrimp', 'src': '/static/foodstim60/cocktailshrimp.jpg', 'key': 'i', 'origWidth': 410, 'origHeight': 410, 'width': 410, 'height': 410, 'widthPercent': 0.45, 'rescaleHeight': False, 'trialN': 44, 'loaded': True, 'loadedTime': 5503.900000035763, 'positionName': 'RIGHT', 'positionCoords': [710.32, 179], 'bid': 10}]",81908.19999998808,1669840071420,tacos,cocktailshrimp,6.33,10.0,3.67,tacos,950,951,950.6000000238419,True,u,83366.10000002384,1457.9000000357628,1669840072878,1458,HRV,HRV_0284,2022-11-30 20:32:37
45,"[{'imgObject': {}, 'id': 'eggs', 'src': '/static/foodstim60/eggs.jpg', 'key': 'u', 'origWidth': 409, 'origHeight': 409, 'width': 409, 'height': 409, 'widthPercent': 0.45, 'rescaleHeight': False, 'trialN': 45, 'loaded': True, 'loadedTime': 5844.600000023842, 'positionName': 'LEFT', 'positionCoords': [246.68, 179.5], 'bid': 6.0200000000000005}, {'imgObject': {}, 'id': 'cocktailshrimp', 'src': '/static/foodstim60/cocktailshrimp.jpg', 'key': 'i', 'origWidth': 410, 'origHeight': 410, 'width': 410, 'height': 410, 'widthPercent': 0.45, 'rescaleHeight': False, 'trialN': 45, 'loaded': True, 'loadedTime': 5504.800000011921, 'positionName': 'RIGHT', 'positionCoords': [710.32, 179], 'bid': 10}]",83366.60000002384,1669840072878,eggs,cocktailshrimp,6.0200000000000005,10.0,3.9799999999999995,cocktailshrimp,1340,1341,1340.5999999642372,True,i,85218.30000001192,1851.699999988079,1669840074730,1852,HRV,HRV_0284,2022-11-30 20:32:37
46,"[{'imgObject': {}, 'id': 'salmon', 'src': '/static/foodstim60/salmon.jpg', 'key': 'u', 'origWidth': 410, 'origHeight': 409, 'width': 410, 'height': 409, 'widthPercent': 0.45, 'rescaleHeight': False, 'trialN': 46, 'loaded': True, 'loadedTime': 5606.5, 'positionName': 'LEFT', 'positionCoords': [245.68, 179.5], 'bid': 3.11}, {'imgObject': {}, 'id': 'rigatoni and sauce', 'src': '/static/foodstim60/rigatoni and sauce.jpg', 'key': 'i', 'origWidth': 410, 'origHeight': 411, 'width': 410, 'height': 411, 'widthPercent': 0.45, 'rescaleHeight': False, 'trialN': 46, 'loaded': True, 'loadedTime': 6408.800000011921, 'positionName': 'RIGHT', 'positionCoords': [710.32, 178.5], 'bid': 2.73}]",85218.80000001192,1669840074731,salmon,rigatoni and sauce,3.11,2.73,-0.3799999999999999,salmon,985.6000000238419,986,986.3999999761581,True,u,86716.80000001192,1498.0,1669840076229,1498,HRV,HRV_0284,2022-11-30 20:32:37
47,"[{'imgObject': {}, 'id': 'bagel and cc', 'src': '/static/foodstim60/bagel and cc.jpg', 'key': 'u', 'origWidth': 410, 'origHeight': 410, 'width': 410, 'height': 410, 'widthPercent': 0.45, 'rescaleHeight': False, 'trialN': 47, 'loaded': True, 'loadedTime': 6524.5, 'positionName': 'LEFT', 'positionCoords': [245.68, 179], 'bid': 0.98}, {'imgObject': {}, 'id': 'salmon', 'src': '/static/foodstim60/salmon.jpg', 'key': 'i', 'origWidth': 410, 'origHeight': 409, 'width': 410, 'height': 409, 'widthPercent': 0.45, 'rescaleHeight': False, 'trialN': 47, 'loaded': True, 'loadedTime': 5630.100000023842, 'positionName': 'RIGHT', 'positionCoords': [710.32, 179.5], 'bid': 3.11}]",86717.10000002384,1669840076229,bagel and cc,salmon,0.98,3.11,2.13,salmon,1281.300000011921,1282,1281.8999999761581,True,i,88516.40000003576,1799.300000011921,1669840078028,1799,HRV,HRV_0284,2022-11-30 20:32:37
48,"[{'imgObject': {}, 'id': 'apple slices', 'src': '/static/foodstim60/apple slices.jpg', 'key': 'u', 'origWidth': 409, 'origHeight': 410, 'width': 409, 'height': 410, 'widthPercent': 0.45, 'rescaleHeight': False, 'trialN': 48, 'loaded': True, 'loadedTime': 6530.100000023842, 'positionName': 'LEFT', 'positionCoords': [246.68, 179], 'bid': 6.2700000000000005}, {'imgObject': {}, 'id': 'luckycharms', 'src': '/static/foodstim60/luckycharms.jpg', 'key': 'i', 'origWidth': 410, 'origHeight': 409, 'width': 410, 'height': 409, 'widthPercent': 0.45, 'rescaleHeight': False, 'trialN': 48, 'loaded': True, 'loadedTime': 5807.300000011921, 'positionName': 'RIGHT', 'positionCoords': [710.32, 179.5], 'bid': 3.82}]",88516.90000003576,1669840078029,apple slices,luckycharms,6.2700000000000005,3.82,-2.4500000000000006,apple slices,1175.7999999523163,1176,1176.5,True,u,90202.30000001192,1685.3999999761581,1669840079714,1685,HRV,HRV_0284,2022-11-30 20:32:37
49,"[{'imgObject': {}, 'id': 'eggsalad', 'src': '/static/foodstim60/eggsalad.jpg', 'key': 'u', 'origWidth': 410, 'origHeight': 409, 'width': 410, 'height': 409, 'widthPercent': 0.45, 'rescaleHeight': False, 'trialN': 49, 'loaded': True, 'loadedTime': 6451.600000023842, 'positionName': 'LEFT', 'positionCoords': [245.68, 179.5], 'bid': 2.3000000000000003}, {'imgObject': {}, 'id': 'banana', 'src': '/static/foodstim60/banana.jpg', 'key': 'i', 'origWidth': 410, 'origHeight': 410, 'width': 410, 'height': 410, 'widthPercent': 0.45, 'rescaleHeight': False, 'trialN': 49, 'loaded': True, 'loadedTime': 6244.800000011921, 'positionName': 'RIGHT', 'positionCoords': [710.32, 179], 'bid': 5.68}]",90202.69999998808,1669840079715,eggsalad,banana,2.3000000000000003,5.68,3.3799999999999994,banana,783,783,783.6000000238419,True,i,91491.69999998808,1289.0,1669840081003,1288,HRV,HRV_0284,2022-11-30 20:32:37
50,"[{'imgObject': {}, 'id': 'banana', 'src': '/static/foodstim60/banana.jpg', 'key': 'u', 'origWidth': 410, 'origHeight': 410, 'width': 410, 'height': 410, 'widthPercent': 0.45, 'rescaleHeight': False, 'trialN': 50, 'loaded': True, 'loadedTime': 6244.600000023842, 'positionName': 'LEFT', 'positionCoords': [245.68, 179], 'bid': 5.68}, {'imgObject': {}, 'id': 'cherries', 'src': '/static/foodstim60/cherries.jpg', 'key': 'i', 'origWidth': 410, 'origHeight': 411, 'width': 410, 'height': 411, 'widthPercent': 0.45, 'rescaleHeight': False, 'trialN': 50, 'loaded': True, 'loadedTime': 6166.900000035763, 'positionName': 'RIGHT', 'positionCoords': [710.32, 178.5], 'bid': 6.75}]",91492.0,1669840081004,banana,cherries,5.68,6.75,1.0700000000000003,cherries,944.9000000357628,947,945.5,True,i,92950.5,1458.5,1669840082464,1460,HRV,HRV_0284,2022-11-30 20:32:37
51,"[{'imgObject': {}, 'id': 'lox', 'src': '/static/foodstim60/lox.jpg', 'key': 'u', 'origWidth': 410, 'origHeight': 411, 'width': 410, 'height': 411, 'widthPercent': 0.45, 'rescaleHeight': False, 'trialN': 51, 'loaded': True, 'loadedTime': 6015.600000023842, 'positionName': 'LEFT', 'positionCoords': [245.68, 178.5], 'bid': 5.51}, {'imgObject': {}, 'id': 'orange slices', 'src': '/static/foodstim60/orange slices.jpg', 'key': 'i', 'origWidth': 409, 'origHeight': 410, 'width': 409, 'height': 410, 'widthPercent': 0.45, 'rescaleHeight': False, 'trialN': 51, 'loaded': True, 'loadedTime': 6537, 'positionName': 'RIGHT', 'positionCoords': [710.32, 179], 'bid': 5.54}]",92951.0,1669840082464,lox,orange slices,5.51,5.54,0.03000000000000025,orange slices,1435.1000000238419,1436,1435.9000000357628,True,i,94896.80000001192,1945.800000011921,1669840084410,1946,HRV,HRV_0284,2022-11-30 20:32:37
52,"[{'imgObject': {}, 'id': 'hashbrowns', 'src': '/static/foodstim60/hashbrowns.jpg', 'key': 'u', 'origWidth': 411, 'origHeight': 410, 'width': 411, 'height': 410, 'widthPercent': 0.45, 'rescaleHeight': False, 'trialN': 52, 'loaded': True, 'loadedTime': 6013, 'positionName': 'LEFT', 'positionCoords': [244.68, 179], 'bid': 0.66}, {'imgObject': {}, 'id': 'rigatoni', 'src': '/static/foodstim60/rigatoni.jpg', 'key': 'i', 'origWidth': 411, 'origHeight': 411, 'width': 411, 'height': 411, 'widthPercent': 0.45, 'rescaleHeight': False, 'trialN': 52, 'loaded': True, 'loadedTime': 6547.800000011921, 'positionName': 'RIGHT', 'positionCoords': [710.32, 178.5], 'bid': 0.5700000000000001}]",94897.30000001192,1669840084411,hashbrowns,rigatoni,0.66,0.5700000000000001,-0.08999999999999997,rigatoni,1061.8999999761581,1062,1062.6000000238419,True,i,96468.0,1570.699999988079,1669840085982,1571,HRV,HRV_0284,2022-11-30 20:32:37
53,"[{'imgObject': {}, 'id': 'cheerios', 'src': '/static/foodstim60/cheerios.jpg', 'key': 'u', 'origWidth': 409, 'origHeight': 410, 'width': 409, 'height': 410, 'widthPercent': 0.45, 'rescaleHeight': False, 'trialN': 53, 'loaded': True, 'loadedTime': 6578.900000035763, 'positionName': 'LEFT', 'positionCoords': [246.68, 179], 'bid': 2.11}, {'imgObject': {}, 'id': 'orange slices', 'src': '/static/foodstim60/orange slices.jpg', 'key': 'i', 'origWidth': 409, 'origHeight': 410, 'width': 409, 'height': 410, 'widthPercent': 0.45, 'rescaleHeight': False, 'trialN': 53, 'loaded': True, 'loadedTime': 6537.400000035763, 'positionName': 'RIGHT', 'positionCoords': [710.32, 179], 'bid': 5.54}]",96468.5,1669840085982,cheerios,orange slices,2.11,5.54,3.43,orange slices,764.6999999880791,765,765.4000000357628,True,i,97736.0,1267.5,1669840087249,1267,HRV,HRV_0284,2022-11-30 20:32:37
54,"[{'imgObject': {}, 'id': 'fried eggs', 'src': '/static/foodstim60/fried eggs.jpg', 'key': 'u', 'origWidth': 410, 'origHeight': 410, 'width': 410, 'height': 410, 'widthPercent': 0.45, 'rescaleHeight': False, 'trialN': 54, 'loaded': True, 'loadedTime': 6583.5, 'positionName': 'LEFT', 'positionCoords': [245.68, 179], 'bid': 6.12}, {'imgObject': {}, 'id': 'sweetpotato', 'src': '/static/foodstim60/sweetpotato.jpg', 'key': 'i', 'origWidth': 410, 'origHeight': 410, 'width': 410, 'height': 410, 'widthPercent': 0.45, 'rescaleHeight': False, 'trialN': 54, 'loaded': True, 'loadedTime': 6368.400000035763, 'positionName': 'RIGHT', 'positionCoords': [710.32, 179], 'bid': 3.77}]",97736.30000001192,1669840087250,fried eggs,sweetpotato,6.12,3.77,-2.35,fried eggs,890.6999999880791,891,891.3999999761581,True,u,99137.0,1400.699999988079,1669840088651,1401,HRV,HRV_0284,2022-11-30 20:32:37
55,"[{'imgObject': {}, 'id': 'edamame', 'src': '/static/foodstim60/edamame.jpg', 'key': 'u', 'origWidth': 409, 'origHeight': 410, 'width': 409, 'height': 410, 'widthPercent': 0.45, 'rescaleHeight': False, 'trialN': 55, 'loaded': True, 'loadedTime': 6593.800000011921, 'positionName': 'LEFT', 'positionCoords': [246.68, 179], 'bid': 3.82}, {'imgObject': {}, 'id': 'mac & cheese', 'src': '/static/foodstim60/mac & cheese.jpg', 'key': 'i', 'origWidth': 410, 'origHeight': 410, 'width': 410, 'height': 410, 'widthPercent': 0.45, 'rescaleHeight': False, 'trialN': 55, 'loaded': True, 'loadedTime': 6594.300000011921, 'positionName': 'RIGHT', 'positionCoords': [710.32, 179], 'bid': 4.0600000000000005}]",99137.30000001192,1669840088651,edamame,mac & cheese,3.82,4.0600000000000005,0.24000000000000066,edamame,1319.199999988079,1320,1319.8999999761581,True,u,100967.10000002384,1829.800000011921,1669840090481,1830,HRV,HRV_0284,2022-11-30 20:32:37
56,"[{'imgObject': {}, 'id': 'salad w chicken', 'src': '/static/foodstim60/salad w chicken.jpg', 'key': 'u', 'origWidth': 411, 'origHeight': 411, 'width': 411, 'height': 411, 'widthPercent': 0.45, 'rescaleHeight': False, 'trialN': 56, 'loaded': True, 'loadedTime': 5888.300000011921, 'positionName': 'LEFT', 'positionCoords': [244.68, 178.5], 'bid': 4.38}, {'imgObject': {}, 'id': 'baked potato', 'src': '/static/foodstim60/baked potato.jpg', 'key': 'i', 'origWidth': 409, 'origHeight': 410, 'width': 409, 'height': 410, 'widthPercent': 0.45, 'rescaleHeight': False, 'trialN': 56, 'loaded': True, 'loadedTime': 6324.900000035763, 'positionName': 'RIGHT', 'positionCoords': [710.32, 179], 'bid': 4.57}]",100967.69999998808,1669840090481,salad w chicken,baked potato,4.38,4.57,0.1900000000000004,salad w chicken,902.3000000119209,903,902.9000000357628,True,u,102385.30000001192,1417.6000000238419,1669840091899,1418,HRV,HRV_0284,2022-11-30 20:32:37
57,"[{'imgObject': {}, 'id': 'rigatoni', 'src': '/static/foodstim60/rigatoni.jpg', 'key': 'u', 'origWidth': 411, 'origHeight': 411, 'width': 411, 'height': 411, 'widthPercent': 0.45, 'rescaleHeight': False, 'trialN': 57, 'loaded': True, 'loadedTime': 6548, 'positionName': 'LEFT', 'positionCoords': [244.68, 178.5], 'bid': 0.5700000000000001}, {'imgObject': {}, 'id': 'edamame', 'src': '/static/foodstim60/edamame.jpg', 'key': 'i', 'origWidth': 409, 'origHeight': 410, 'width': 409, 'height': 410, 'widthPercent': 0.45, 'rescaleHeight': False, 'trialN': 57, 'loaded': True, 'loadedTime': 6587.600000023842, 'positionName': 'RIGHT', 'positionCoords': [710.32, 179], 'bid': 3.82}]",102385.80000001192,1669840091899,rigatoni,edamame,0.5700000000000001,3.82,3.25,edamame,1013.8999999761581,1015,1014.5,True,i,103915.0,1529.199999988079,1669840093429,1530,HRV,HRV_0284,2022-11-30 20:32:37
58,"[{'imgObject': {}, 'id': 'raspberries', 'src': '/static/foodstim60/raspberries.jpg', 'key': 'u', 'origWidth': 411, 'origHeight': 411, 'width': 411, 'height': 411, 'widthPercent': 0.45, 'rescaleHeight': False, 'trialN': 58, 'loaded': True, 'loadedTime': 6600.100000023842, 'positionName': 'LEFT', 'positionCoords': [244.68, 178.5], 'bid': 7.18}, {'imgObject': {}, 'id': 'steak', 'src': '/static/foodstim60/steak.jpg', 'key': 'i', 'origWidth': 410, 'origHeight': 410, 'width': 410, 'height': 410, 'widthPercent': 0.45, 'rescaleHeight': False, 'trialN': 58, 'loaded': True, 'loadedTime': 6250.199999988079, 'positionName': 'RIGHT', 'positionCoords': [710.32, 179], 'bid': 9.84}]",103915.5,1669840093429,raspberries,steak,7.18,9.84,2.66,steak,2513.699999988079,2514,2514.300000011921,True,i,106938.10000002384,3022.600000023842,1669840096452,3023,HRV,HRV_0284,2022-11-30 20:32:37
59,"[{'imgObject': {}, 'id': 'baked potato', 'src': '/static/foodstim60/baked potato.jpg', 'key': 'u', 'origWidth': 409, 'origHeight': 410, 'width': 409, 'height': 410, 'widthPercent': 0.45, 'rescaleHeight': False, 'trialN': 59, 'loaded': True, 'loadedTime': 6327.699999988079, 'positionName': 'LEFT', 'positionCoords': [246.68, 179], 'bid': 4.57}, {'imgObject': {}, 'id': 'steak', 'src': '/static/foodstim60/steak.jpg', 'key': 'i', 'origWidth': 410, 'origHeight': 410, 'width': 410, 'height': 410, 'widthPercent': 0.45, 'rescaleHeight': False, 'trialN': 59, 'loaded': True, 'loadedTime': 6253.699999988079, 'positionName': 'RIGHT', 'positionCoords': [710.32, 179], 'bid': 9.84}]",106938.60000002384,1669840096452,baked potato,steak,4.57,9.84,5.27,steak,1000.1999999880791,1001,1000.8000000119209,True,i,108440.60000002384,1502.0,1669840097954,1502,HRV,HRV_0284,2022-11-30 20:32:37
60,"[{'imgObject': {}, 'id': 'veggieswithdip', 'src': '/static/foodstim60/veggieswithdip.jpg', 'key': 'u', 'origWidth': 409, 'origHeight': 409, 'width': 409, 'height': 409, 'widthPercent': 0.45, 'rescaleHeight': False, 'trialN': 60, 'loaded': True, 'loadedTime': 5934.199999988079, 'positionName': 'LEFT', 'positionCoords': [246.68, 179.5], 'bid': 3.75}, {'imgObject': {}, 'id': 'omelette', 'src': '/static/foodstim60/omelette.jpg', 'key': 'i', 'origWidth': 410, 'origHeight': 409, 'width': 410, 'height': 409, 'widthPercent': 0.45, 'rescaleHeight': False, 'trialN': 60, 'loaded': True, 'loadedTime': 5551, 'positionName': 'RIGHT', 'positionCoords': [710.32, 179.5], 'bid': 4.12}]",108441.0,1669840097954,veggieswithdip,omelette,3.75,4.12,0.3700000000000001,omelette,1188.4000000357628,1190,1189.199999988079,True,i,110140.40000003576,1699.4000000357628,1669840099654,1700,HRV,HRV_0284,2022-11-30 20:32:37
61,"[{'imgObject': {}, 'id': 'fruitsalad', 'src': '/static/foodstim60/fruitsalad.jpg', 'key': 'u', 'origWidth': 410, 'origHeight': 410, 'width': 410, 'height': 410, 'widthPercent': 0.45, 'rescaleHeight': False, 'trialN': 61, 'loaded': True, 'loadedTime': 6058.5, 'positionName': 'LEFT', 'positionCoords': [245.68, 179], 'bid': 7.18}, {'imgObject': {}, 'id': 'cherries', 'src': '/static/foodstim60/cherries.jpg', 'key': 'i', 'origWidth': 410, 'origHeight': 411, 'width': 410, 'height': 411, 'widthPercent': 0.45, 'rescaleHeight': False, 'trialN': 61, 'loaded': True, 'loadedTime': 6166.400000035763, 'positionName': 'RIGHT', 'positionCoords': [710.32, 178.5], 'bid': 6.75}]",110140.90000003576,1669840099654,fruitsalad,cherries,7.18,6.75,-0.4299999999999997,cherries,1085.5999999642372,1087,1086.199999988079,True,i,111733.19999998808,1592.2999999523163,1669840101247,1593,HRV,HRV_0284,2022-11-30 20:32:37
62,"[{'imgObject': {}, 'id': 'roastedpotatoes', 'src': '/static/foodstim60/roastedpotatoes.jpg', 'key': 'u', 'origWidth': 409, 'origHeight': 410, 'width': 409, 'height': 410, 'widthPercent': 0.45, 'rescaleHeight': False, 'trialN': 62, 'loaded': True, 'loadedTime': 6363.300000011921, 'positionName': 'LEFT', 'positionCoords': [246.68, 179], 'bid': 4.13}, {'imgObject': {}, 'id': 'cheerios', 'src': '/static/foodstim60/cheerios.jpg', 'key': 'i', 'origWidth': 409, 'origHeight': 410, 'width': 409, 'height': 410, 'widthPercent': 0.45, 'rescaleHeight': False, 'trialN': 62, 'loaded': True, 'loadedTime': 6580, 'positionName': 'RIGHT', 'positionCoords': [710.32, 179], 'bid': 2.11}]",111733.60000002384,1669840101247,roastedpotatoes,cheerios,4.13,2.11,-2.02,roastedpotatoes,1260.199999988079,1261,1260.800000011921,True,u,113505.10000002384,1771.5,1669840103019,1772,HRV,HRV_0284,2022-11-30 20:32:37
63,"[{'imgObject': {}, 'id': 'orange slices', 'src': '/static/foodstim60/orange slices.jpg', 'key': 'u', 'origWidth': 409, 'origHeight': 410, 'width': 409, 'height': 410, 'widthPercent': 0.45, 'rescaleHeight': False, 'trialN': 63, 'loaded': True, 'loadedTime': 6537.600000023842, 'positionName': 'LEFT', 'positionCoords': [246.68, 179], 'bid': 5.54}, {'imgObject': {}, 'id': 'baked potato', 'src': '/static/foodstim60/baked potato.jpg', 'key': 'i', 'origWidth': 409, 'origHeight': 410, 'width': 409, 'height': 410, 'widthPercent': 0.45, 'rescaleHeight': False, 'trialN': 63, 'loaded': True, 'loadedTime': 6327, 'positionName': 'RIGHT', 'positionCoords': [710.32, 179], 'bid': 4.57}]",113505.40000003576,1669840103019,orange slices,baked potato,5.54,4.57,-0.9699999999999998,orange slices,836.6999999880791,837,837.2999999523163,True,u,114850.69999998808,1345.2999999523163,1669840104364,1345,HRV,HRV_0284,2022-11-30 20:32:37
64,"[{'imgObject': {}, 'id': 'lox', 'src': '/static/foodstim60/lox.jpg', 'key': 'u', 'origWidth': 410, 'origHeight': 411, 'width': 410, 'height': 411, 'widthPercent': 0.45, 'rescaleHeight': False, 'trialN': 64, 'loaded': True, 'loadedTime': 6018.100000023842, 'positionName': 'LEFT', 'positionCoords': [245.68, 178.5], 'bid': 5.51}, {'imgObject': {}, 'id': 'bagel plain', 'src': '/static/foodstim60/bagel plain.jpg', 'key': 'i', 'origWidth': 410, 'origHeight': 410, 'width': 410, 'height': 410, 'widthPercent': 0.45, 'rescaleHeight': False, 'trialN': 64, 'loaded': True, 'loadedTime': 6601.600000023842, 'positionName': 'RIGHT', 'positionCoords': [710.32, 179], 'bid': 0.98}]",114851.19999998808,1669840104365,lox,bagel plain,5.51,0.98,-4.529999999999999,lox,910.9000000357628,911,911.6000000238419,True,u,116266.60000002384,1415.4000000357628,1669840105780,1415,HRV,HRV_0284,2022-11-30 20:32:37
65,"[{'imgObject': {}, 'id': 'olives', 'src': '/static/foodstim60/olives.jpg', 'key': 'u', 'origWidth': 410, 'origHeight': 410, 'width': 410, 'height': 410, 'widthPercent': 0.45, 'rescaleHeight': False, 'trialN': 65, 'loaded': True, 'loadedTime': 6455.699999988079, 'positionName': 'LEFT', 'positionCoords': [245.68, 179], 'bid': 6.71}, {'imgObject': {}, 'id': 'ice cream sundae 002', 'src': '/static/foodstim60/ice cream sundae 002.jpg', 'key': 'i', 'origWidth': 409, 'origHeight': 409, 'width': 409, 'height': 409, 'widthPercent': 0.45, 'rescaleHeight': False, 'trialN': 65, 'loaded': True, 'loadedTime': 6482.800000011921, 'positionName': 'RIGHT', 'positionCoords': [710.32, 179.5], 'bid': 9.9}]",116266.90000003576,1669840105780,olives,ice cream sundae 002,6.71,9.9,3.1900000000000004,olives,851.2999999523163,852,851.8999999761581,True,u,117639.10000002384,1372.199999988079,1669840107153,1373,HRV,HRV_0284,2022-11-30 20:32:37
66,"[{'imgObject': {}, 'id': 'cherry tomato', 'src': '/static/foodstim60/cherry tomato.jpg', 'key': 'u', 'origWidth': 410, 'origHeight': 410, 'width': 410, 'height': 410, 'widthPercent': 0.45, 'rescaleHeight': False, 'trialN': 66, 'loaded': True, 'loadedTime': 5689.300000011921, 'positionName': 'LEFT', 'positionCoords': [245.68, 179], 'bid': 6.65}, {'imgObject': {}, 'id': 'tacos', 'src': '/static/foodstim60/tacos.jpg', 'key': 'i', 'origWidth': 411, 'origHeight': 411, 'width': 411, 'height': 411, 'widthPercent': 0.45, 'rescaleHeight': False, 'trialN': 66, 'loaded': True, 'loadedTime': 6486, 'positionName': 'RIGHT', 'positionCoords': [710.32, 178.5], 'bid': 6.33}]",117639.60000002384,1669840107153,cherry tomato,tacos,6.65,6.33,-0.3200000000000003,cherry tomato,912.5999999642372,913,913.1999999880791,True,u,119059.10000002384,1419.5,1669840108573,1420,HRV,HRV_0284,2022-11-30 20:32:37
67,"[{'imgObject': {}, 'id': 'orange slices', 'src': '/static/foodstim60/orange slices.jpg', 'key': 'u', 'origWidth': 409, 'origHeight': 410, 'width': 409, 'height': 410, 'widthPercent': 0.45, 'rescaleHeight': False, 'trialN': 67, 'loaded': True, 'loadedTime': 6535, 'positionName': 'LEFT', 'positionCoords': [246.68, 179], 'bid': 5.54}, {'imgObject': {}, 'id': 'banana', 'src': '/static/foodstim60/banana.jpg', 'key': 'i', 'origWidth': 410, 'origHeight': 410, 'width': 410, 'height': 410, 'widthPercent': 0.45, 'rescaleHeight': False, 'trialN': 67, 'loaded': True, 'loadedTime': 6211.199999988079, 'positionName': 'RIGHT', 'positionCoords': [710.32, 179], 'bid': 5.68}]",119059.60000002384,1669840108573,orange slices,banana,5.54,5.68,0.13999999999999968,orange slices,1387.0999999642372,1388,1387.699999988079,True,u,120965.5,1905.8999999761581,1669840110479,1906,HRV,HRV_0284,2022-11-30 20:32:37
68,"[{'imgObject': {}, 'id': 'strawberries', 'src': '/static/foodstim60/strawberries.jpg', 'key': 'u', 'origWidth': 410, 'origHeight': 410, 'width': 410, 'height': 410, 'widthPercent': 0.45, 'rescaleHeight': False, 'trialN': 68, 'loaded': True, 'loadedTime': 6633.800000011921, 'positionName': 'LEFT', 'positionCoords': [245.68, 179], 'bid': 5.9}, {'imgObject': {}, 'id': 'blueberries', 'src': '/static/foodstim60/blueberries.jpg', 'key': 'i', 'origWidth': 411, 'origHeight': 411, 'width': 411, 'height': 411, 'widthPercent': 0.45, 'rescaleHeight': False, 'trialN': 68, 'loaded': True, 'loadedTime': 6126.699999988079, 'positionName': 'RIGHT', 'positionCoords': [710.32, 178.5], 'bid': 6.72}]",120965.90000003576,1669840110479,strawberries,blueberries,5.9,6.72,0.8199999999999994,blueberries,778.0999999642372,779,778.5999999642372,True,i,122251.69999998808,1285.7999999523163,1669840111765,1286,HRV,HRV_0284,2022-11-30 20:32:37
69,"[{'imgObject': {}, 'id': 'bagel plain', 'src': '/static/foodstim60/bagel plain.jpg', 'key': 'u', 'origWidth': 410, 'origHeight': 410, 'width': 410, 'height': 410, 'widthPercent': 0.45, 'rescaleHeight': False, 'trialN': 69, 'loaded': True, 'loadedTime': 6631.699999988079, 'positionName': 'LEFT', 'positionCoords': [245.68, 179], 'bid': 0.98}, {'imgObject': {}, 'id': 'seaweed', 'src': '/static/foodstim60/seaweed.jpg', 'key': 'i', 'origWidth': 410, 'origHeight': 410, 'width': 410, 'height': 410, 'widthPercent': 0.45, 'rescaleHeight': False, 'trialN': 69, 'loaded': True, 'loadedTime': 6370.699999988079, 'positionName': 'RIGHT', 'positionCoords': [710.32, 179], 'bid': 0.08}]",122252.19999998808,1669840111766,bagel plain,seaweed,0.98,0.08,-0.9,bagel plain,919.4000000357628,920,920.0,True,u,123686.90000003576,1434.7000000476837,1669840113200,1434,HRV,HRV_0284,2022-11-30 20:32:37
70,"[{'imgObject': {}, 'id': 'bagel and cc', 'src': '/static/foodstim60/bagel and cc.jpg', 'key': 'u', 'origWidth': 410, 'origHeight': 410, 'width': 410, 'height': 410, 'widthPercent': 0.45, 'rescaleHeight': False, 'trialN': 70, 'loaded': True, 'loadedTime': 6487, 'positionName': 'LEFT', 'positionCoords': [245.68, 179], 'bid': 0.98}, {'imgObject': {}, 'id': 'cheerios', 'src': '/static/foodstim60/cheerios.jpg', 'key': 'i', 'origWidth': 409, 'origHeight': 410, 'width': 409, 'height': 410, 'widthPercent': 0.45, 'rescaleHeight': False, 'trialN': 70, 'loaded': True, 'loadedTime': 6579.199999988079, 'positionName': 'RIGHT', 'positionCoords': [710.32, 179], 'bid': 2.11}]",123687.60000002384,1669840113201,bagel and cc,cheerios,0.98,2.11,1.13,bagel and cc,1760.199999988079,1761,1761.0,True,u,125952.19999998808,2264.599999964237,1669840115466,2265,HRV,HRV_0284,2022-11-30 20:32:37
71,"[{'imgObject': {}, 'id': 'cherries', 'src': '/static/foodstim60/cherries.jpg', 'key': 'u', 'origWidth': 410, 'origHeight': 411, 'width': 410, 'height': 411, 'widthPercent': 0.45, 'rescaleHeight': False, 'trialN': 71, 'loaded': True, 'loadedTime': 6167.400000035763, 'positionName': 'LEFT', 'positionCoords': [245.68, 178.5], 'bid': 6.75}, {'imgObject': {}, 'id': 'olives', 'src': '/static/foodstim60/olives.jpg', 'key': 'i', 'origWidth': 410, 'origHeight': 410, 'width': 410, 'height': 410, 'widthPercent': 0.45, 'rescaleHeight': False, 'trialN': 71, 'loaded': True, 'loadedTime': 6455.100000023842, 'positionName': 'RIGHT', 'positionCoords': [710.32, 179], 'bid': 6.71}]",125952.60000002384,1669840115466,cherries,olives,6.75,6.71,-0.040000000000000036,cherries,703,704,703.5999999642372,True,u,127166.19999998808,1213.5999999642372,1669840116680,1214,HRV,HRV_0284,2022-11-30 20:32:37
72,"[{'imgObject': {}, 'id': 'fried eggs', 'src': '/static/foodstim60/fried eggs.jpg', 'key': 'u', 'origWidth': 410, 'origHeight': 410, 'width': 410, 'height': 410, 'widthPercent': 0.45, 'rescaleHeight': False, 'trialN': 72, 'loaded': True, 'loadedTime': 6583.199999988079, 'positionName': 'LEFT', 'positionCoords': [245.68, 179], 'bid': 6.12}, {'imgObject': {}, 'id': 'turkeysandwich', 'src': '/static/foodstim60/turkeysandwich.jpg', 'key': 'i', 'origWidth': 409, 'origHeight': 409, 'width': 409, 'height': 409, 'widthPercent': 0.45, 'rescaleHeight': False, 'trialN': 72, 'loaded': True, 'loadedTime': 6287.699999988079, 'positionName': 'RIGHT', 'positionCoords': [710.32, 179.5], 'bid': 6.2}]",127166.69999998808,1669840116680,fried eggs,turkeysandwich,6.12,6.2,0.08000000000000007,turkeysandwich,884.6000000238419,885,885.2000000476837,True,i,128566.10000002384,1399.4000000357628,1669840118080,1400,HRV,HRV_0284,2022-11-30 20:32:37
73,"[{'imgObject': {}, 'id': 'eggsalad', 'src': '/static/foodstim60/eggsalad.jpg', 'key': 'u', 'origWidth': 410, 'origHeight': 409, 'width': 410, 'height': 409, 'widthPercent': 0.45, 'rescaleHeight': False, 'trialN': 73, 'loaded': True, 'loadedTime': 6451.900000035763, 'positionName': 'LEFT', 'positionCoords': [245.68, 179.5], 'bid': 2.3000000000000003}, {'imgObject': {}, 'id': 'grilled chicken strips', 'src': '/static/foodstim60/grilled chicken strips.jpg', 'key': 'i', 'origWidth': 410, 'origHeight': 411, 'width': 410, 'height': 411, 'widthPercent': 0.45, 'rescaleHeight': False, 'trialN': 73, 'loaded': True, 'loadedTime': 6009.300000011921, 'positionName': 'RIGHT', 'positionCoords': [710.32, 178.5], 'bid': 4.32}]",128566.40000003576,1669840118080,eggsalad,grilled chicken strips,2.3000000000000003,4.32,2.02,grilled chicken strips,1111.3999999761581,1112,1112.0,True,i,130199.10000002384,1632.699999988079,1669840119713,1633,HRV,HRV_0284,2022-11-30 20:32:37
74,"[{'imgObject': {}, 'id': 'granola w milk', 'src': '/static/foodstim60/granola w milk.jpg', 'key': 'u', 'origWidth': 410, 'origHeight': 410, 'width': 410, 'height': 410, 'widthPercent': 0.45, 'rescaleHeight': False, 'trialN': 74, 'loaded': True, 'loadedTime': 5724.900000035763, 'positionName': 'LEFT', 'positionCoords': [245.68, 179], 'bid': 3.37}, {'imgObject': {}, 'id': 'hotdog w must', 'src': '/static/foodstim60/hotdog w must.jpg', 'key': 'i', 'origWidth': 409, 'origHeight': 409, 'width': 409, 'height': 409, 'widthPercent': 0.45, 'rescaleHeight': False, 'trialN': 74, 'loaded': True, 'loadedTime': 6172.199999988079, 'positionName': 'RIGHT', 'positionCoords': [710.32, 179.5], 'bid': 4.94}]",130199.60000002384,1669840119713,granola w milk,hotdog w must,3.37,4.94,1.5700000000000003,hotdog w must,1299.699999988079,1301,1300.699999988079,True,i,132009.19999998808,1809.5999999642372,1669840121523,1810,HRV,HRV_0284,2022-11-30 20:32:37
75,"[{'imgObject': {}, 'id': 'eggs', 'src': '/static/foodstim60/eggs.jpg', 'key': 'u', 'origWidth': 409, 'origHeight': 409, 'width': 409, 'height': 409, 'widthPercent': 0.45, 'rescaleHeight': False, 'trialN': 75, 'loaded': True, 'loadedTime': 5846.100000023842, 'positionName': 'LEFT', 'positionCoords': [246.68, 179.5], 'bid': 6.0200000000000005}, {'imgObject': {}, 'id': 'turkey sandwich', 'src': '/static/foodstim60/turkey sandwich.jpg', 'key': 'i', 'origWidth': 409, 'origHeight': 409, 'width': 409, 'height': 409, 'widthPercent': 0.45, 'rescaleHeight': False, 'trialN': 75, 'loaded': True, 'loadedTime': 6132.800000011921, 'positionName': 'RIGHT', 'positionCoords': [710.32, 179.5], 'bid': 5.67}]",132009.60000002384,1669840121523,eggs,turkey sandwich,6.0200000000000005,5.67,-0.35000000000000053,turkey sandwich,735.8000000119209,737,736.5,True,i,133249.10000002384,1239.5,1669840122763,1240,HRV,HRV_0284,2022-11-30 20:32:37
76,"[{'imgObject': {}, 'id': 'granola w milk', 'src': '/static/foodstim60/granola w milk.jpg', 'key': 'u', 'origWidth': 410, 'origHeight': 410, 'width': 410, 'height': 410, 'widthPercent': 0.45, 'rescaleHeight': False, 'trialN': 76, 'loaded': True, 'loadedTime': 5723.600000023842, 'positionName': 'LEFT', 'positionCoords': [245.68, 179], 'bid': 3.37}, {'imgObject': {}, 'id': 'veggieswithdip', 'src': '/static/foodstim60/veggieswithdip.jpg', 'key': 'i', 'origWidth': 409, 'origHeight': 409, 'width': 409, 'height': 409, 'widthPercent': 0.45, 'rescaleHeight': False, 'trialN': 76, 'loaded': True, 'loadedTime': 5934, 'positionName': 'RIGHT', 'positionCoords': [710.32, 179.5], 'bid': 3.75}]",133249.5,1669840122763,granola w milk,veggieswithdip,3.37,3.75,0.3799999999999999,granola w milk,985.5,986,986.3000000119209,True,u,134748.10000002384,1498.6000000238419,1669840124262,1499,HRV,HRV_0284,2022-11-30 20:32:37
77,"[{'imgObject': {}, 'id': 'seaweed', 'src': '/static/foodstim60/seaweed.jpg', 'key': 'u', 'origWidth': 410, 'origHeight': 410, 'width': 410, 'height': 410, 'widthPercent': 0.45, 'rescaleHeight': False, 'trialN': 77, 'loaded': True, 'loadedTime': 6404.699999988079, 'positionName': 'LEFT', 'positionCoords': [245.68, 179], 'bid': 0.08}, {'imgObject': {}, 'id': 'rigatoni', 'src': '/static/foodstim60/rigatoni.jpg', 'key': 'i', 'origWidth': 411, 'origHeight': 411, 'width': 411, 'height': 411, 'widthPercent': 0.45, 'rescaleHeight': False, 'trialN': 77, 'loaded': True, 'loadedTime': 6548.5, 'positionName': 'RIGHT', 'positionCoords': [710.32, 178.5], 'bid': 0.5700000000000001}]",134748.60000002384,1669840124262,seaweed,rigatoni,0.08,0.5700000000000001,0.49000000000000005,rigatoni,885.5999999642372,886,886.3000000119209,True,i,136148.30000001192,1399.699999988079,1669840125662,1400,HRV,HRV_0284,2022-11-30 20:32:37
78,"[{'imgObject': {}, 'id': 'cherries', 'src': '/static/foodstim60/cherries.jpg', 'key': 'u', 'origWidth': 410, 'origHeight': 411, 'width': 410, 'height': 411, 'widthPercent': 0.45, 'rescaleHeight': False, 'trialN': 78, 'loaded': True, 'loadedTime': 6168.199999988079, 'positionName': 'LEFT', 'positionCoords': [245.68, 178.5], 'bid': 6.75}, {'imgObject': {}, 'id': 'apple slices', 'src': '/static/foodstim60/apple slices.jpg', 'key': 'i', 'origWidth': 409, 'origHeight': 410, 'width': 409, 'height': 410, 'widthPercent': 0.45, 'rescaleHeight': False, 'trialN': 78, 'loaded': True, 'loadedTime': 6530.300000011921, 'positionName': 'RIGHT', 'positionCoords': [710.32, 179], 'bid': 6.2700000000000005}]",136148.80000001192,1669840125662,cherries,apple slices,6.75,6.2700000000000005,-0.47999999999999954,cherries,785.1999999880791,786,785.8000000119209,True,u,137448.0,1299.199999988079,1669840126962,1300,HRV,HRV_0284,2022-11-30 20:32:37
79,"[{'imgObject': {}, 'id': 'burrito', 'src': '/static/foodstim60/burrito.jpg', 'key': 'u', 'origWidth': 410, 'origHeight': 410, 'width': 410, 'height': 410, 'widthPercent': 0.45, 'rescaleHeight': False, 'trialN': 79, 'loaded': True, 'loadedTime': 6091, 'positionName': 'LEFT', 'positionCoords': [245.68, 179], 'bid': 5.71}, {'imgObject': {}, 'id': 'burger', 'src': '/static/foodstim60/burger.jpg', 'key': 'i', 'origWidth': 409, 'origHeight': 409, 'width': 409, 'height': 409, 'widthPercent': 0.45, 'rescaleHeight': False, 'trialN': 79, 'loaded': True, 'loadedTime': 6416, 'positionName': 'RIGHT', 'positionCoords': [710.32, 179.5], 'bid': 5.8100000000000005}]",137448.30000001192,1669840126962,burrito,burger,5.71,5.8100000000000005,0.10000000000000053,burrito,1173.6000000238419,1174,1174.1000000238419,True,u,139131.40000003576,1683.1000000238419,1669840128645,1683,HRV,HRV_0284,2022-11-30 20:32:37
80,"[{'imgObject': {}, 'id': 'orange slices', 'src': '/static/foodstim60/orange slices.jpg', 'key': 'u', 'origWidth': 409, 'origHeight': 410, 'width': 409, 'height': 410, 'widthPercent': 0.45, 'rescaleHeight': False, 'trialN': 80, 'loaded': True, 'loadedTime': 6536.5, 'positionName': 'LEFT', 'positionCoords': [246.68, 179], 'bid': 5.54}, {'imgObject': {}, 'id': 'strawberries', 'src': '/static/foodstim60/strawberries.jpg', 'key': 'i', 'origWidth': 410, 'origHeight': 410, 'width': 410, 'height': 410, 'widthPercent': 0.45, 'rescaleHeight': False, 'trialN': 80, 'loaded': True, 'loadedTime': 6634.400000035763, 'positionName': 'RIGHT', 'positionCoords': [710.32, 179], 'bid': 5.9}]",139131.80000001192,1669840128645,orange slices,strawberries,5.54,5.9,0.3600000000000003,strawberries,1523.300000011921,1524,1523.8999999761581,True,i,141164.30000001192,2032.5,1669840130678,2033,HRV,HRV_0284,2022-11-30 20:32:37
81,"[{'imgObject': {}, 'id': 'salmon', 'src': '/static/foodstim60/salmon.jpg', 'key': 'u', 'origWidth': 410, 'origHeight': 409, 'width': 410, 'height': 409, 'widthPercent': 0.45, 'rescaleHeight': False, 'trialN': 81, 'loaded': True, 'loadedTime': 5638.800000011921, 'positionName': 'LEFT', 'positionCoords': [245.68, 179.5], 'bid': 3.11}, {'imgObject': {}, 'id': 'burger', 'src': '/static/foodstim60/burger.jpg', 'key': 'i', 'origWidth': 409, 'origHeight': 409, 'width': 409, 'height': 409, 'widthPercent': 0.45, 'rescaleHeight': False, 'trialN': 81, 'loaded': True, 'loadedTime': 6416.100000023842, 'positionName': 'RIGHT', 'positionCoords': [710.32, 179.5], 'bid': 5.8100000000000005}]",141164.5,1669840130678,salmon,burger,3.11,5.8100000000000005,2.7000000000000006,salmon,1611.4000000357628,1612,1612.1000000238419,True,u,143284.80000001192,2120.300000011921,1669840132798,2120,HRV,HRV_0284,2022-11-30 20:32:37
82,"[{'imgObject': {}, 'id': 'cheerios', 'src': '/static/foodstim60/cheerios.jpg', 'key': 'u', 'origWidth': 409, 'origHeight': 410, 'width': 409, 'height': 410, 'widthPercent': 0.45, 'rescaleHeight': False, 'trialN': 82, 'loaded': True, 'loadedTime': 6579.300000011921, 'positionName': 'LEFT', 'positionCoords': [246.68, 179], 'bid': 2.11}, {'imgObject': {}, 'id': 'sushi w_condiments', 'src': '/static/foodstim60/sushi w_condiments.jpg', 'key': 'i', 'origWidth': 410, 'origHeight': 410, 'width': 410, 'height': 410, 'widthPercent': 0.45, 'rescaleHeight': False, 'trialN': 82, 'loaded': True, 'loadedTime': 5555.100000023842, 'positionName': 'RIGHT', 'positionCoords': [710.32, 179], 'bid': 0.35}]",143285.19999998808,1669840132799,cheerios,sushi w_condiments,2.11,0.35,-1.7599999999999998,cheerios,1456.4000000357628,1457,1457.0,True,u,145249.40000003576,1964.2000000476837,1669840134763,1964,HRV,HRV_0284,2022-11-30 20:32:37
83,"[{'imgObject': {}, 'id': 'cantaloupe', 'src': '/static/foodstim60/cantaloupe.jpg', 'key': 'u', 'origWidth': 409, 'origHeight': 409, 'width': 409, 'height': 409, 'widthPercent': 0.45, 'rescaleHeight': False, 'trialN': 83, 'loaded': True, 'loadedTime': 5417.300000011921, 'positionName': 'LEFT', 'positionCoords': [246.68, 179.5], 'bid': 5.42}, {'imgObject': {}, 'id': 'yogurt no spoon', 'src': '/static/foodstim60/yogurt no spoon.jpg', 'key': 'i', 'origWidth': 411, 'origHeight': 410, 'width': 411, 'height': 410, 'widthPercent': 0.45, 'rescaleHeight': False, 'trialN': 83, 'loaded': True, 'loadedTime': 6324.400000035763, 'positionName': 'RIGHT', 'positionCoords': [710.32, 179], 'bid': 5.38}]",145249.80000001192,1669840134763,cantaloupe,yogurt no spoon,5.42,5.38,-0.040000000000000036,cantaloupe,778.3000000119209,779,778.8999999761581,True,u,146547.0,1297.199999988079,1669840136060,1297,HRV,HRV_0284,2022-11-30 20:32:37
84,"[{'imgObject': {}, 'id': 'mac & cheese', 'src': '/static/foodstim60/mac & cheese.jpg', 'key': 'u', 'origWidth': 410, 'origHeight': 410, 'width': 410, 'height': 410, 'widthPercent': 0.45, 'rescaleHeight': False, 'trialN': 84, 'loaded': True, 'loadedTime': 6595.699999988079, 'positionName': 'LEFT', 'positionCoords': [245.68, 179], 'bid': 4.0600000000000005}, {'imgObject': {}, 'id': 'granola w milk', 'src': '/static/foodstim60/granola w milk.jpg', 'key': 'i', 'origWidth': 410, 'origHeight': 410, 'width': 410, 'height': 410, 'widthPercent': 0.45, 'rescaleHeight': False, 'trialN': 84, 'loaded': True, 'loadedTime': 5724.400000035763, 'positionName': 'RIGHT', 'positionCoords': [710.32, 179], 'bid': 3.37}]",146547.40000003576,1669840136061,mac & cheese,granola w milk,4.0600000000000005,3.37,-0.6900000000000004,granola w milk,1691.8999999761581,1692,1692.5,True,i,148747.10000002384,2199.699999988079,1669840138261,2200,HRV,HRV_0284,2022-11-30 20:32:37
85,"[{'imgObject': {}, 'id': 'turkey sandwich', 'src': '/static/foodstim60/turkey sandwich.jpg', 'key': 'u', 'origWidth': 409, 'origHeight': 409, 'width': 409, 'height': 409, 'widthPercent': 0.45, 'rescaleHeight': False, 'trialN': 85, 'loaded': True, 'loadedTime': 6133.300000011921, 'positionName': 'LEFT', 'positionCoords': [246.68, 179.5], 'bid': 5.67}, {'imgObject': {}, 'id': 'banana', 'src': '/static/foodstim60/banana.jpg', 'key': 'i', 'origWidth': 410, 'origHeight': 410, 'width': 410, 'height': 410, 'widthPercent': 0.45, 'rescaleHeight': False, 'trialN': 85, 'loaded': True, 'loadedTime': 6244.199999988079, 'positionName': 'RIGHT', 'positionCoords': [710.32, 179], 'bid': 5.68}]",148747.5,1669840138261,turkey sandwich,banana,5.67,5.68,0.009999999999999787,turkey sandwich,827.8000000119209,829,828.9000000357628,True,u,150084.60000002384,1337.1000000238419,1669840139598,1337,HRV,HRV_0284,2022-11-30 20:32:37
86,"[{'imgObject': {}, 'id': 'yogurt no spoon', 'src': '/static/foodstim60/yogurt no spoon.jpg', 'key': 'u', 'origWidth': 411, 'origHeight': 410, 'width': 411, 'height': 410, 'widthPercent': 0.45, 'rescaleHeight': False, 'trialN': 86, 'loaded': True, 'loadedTime': 6324.600000023842, 'positionName': 'LEFT', 'positionCoords': [244.68, 179], 'bid': 5.38}, {'imgObject': {}, 'id': 'rigatoni', 'src': '/static/foodstim60/rigatoni.jpg', 'key': 'i', 'origWidth': 411, 'origHeight': 411, 'width': 411, 'height': 411, 'widthPercent': 0.45, 'rescaleHeight': False, 'trialN': 86, 'loaded': True, 'loadedTime': 6546.400000035763, 'positionName': 'RIGHT', 'positionCoords': [710.32, 178.5], 'bid': 0.5700000000000001}]",150085.0,1669840139599,yogurt no spoon,rigatoni,5.38,0.5700000000000001,-4.81,yogurt no spoon,1175.9000000357628,1176,1176.5,True,u,151779.10000002384,1694.1000000238419,1669840141293,1694,HRV,HRV_0284,2022-11-30 20:32:37
87,"[{'imgObject': {}, 'id': 'mashed potato', 'src': '/static/foodstim60/mashed potato.jpg', 'key': 'u', 'origWidth': 409, 'origHeight': 409, 'width': 409, 'height': 409, 'widthPercent': 0.45, 'rescaleHeight': False, 'trialN': 87, 'loaded': True, 'loadedTime': 5971.699999988079, 'positionName': 'LEFT', 'positionCoords': [246.68, 179.5], 'bid': 5.07}, {'imgObject': {}, 'id': 'mango', 'src': '/static/foodstim60/mango.jpg', 'key': 'i', 'origWidth': 411, 'origHeight': 411, 'width': 411, 'height': 411, 'widthPercent': 0.45, 'rescaleHeight': False, 'trialN': 87, 'loaded': True, 'loadedTime': 5352.699999988079, 'positionName': 'RIGHT', 'positionCoords': [710.32, 178.5], 'bid': 5.2700000000000005}]",151779.69999998808,1669840141293,mashed potato,mango,5.07,5.2700000000000005,0.20000000000000018,mango,1193.7000000476837,1194,1194.4000000357628,True,i,153487.0,1707.300000011921,1669840142999,1706,HRV,HRV_0284,2022-11-30 20:32:37
88,"[{'imgObject': {}, 'id': 'apple slices', 'src': '/static/foodstim60/apple slices.jpg', 'key': 'u', 'origWidth': 409, 'origHeight': 410, 'width': 409, 'height': 410, 'widthPercent': 0.45, 'rescaleHeight': False, 'trialN': 88, 'loaded': True, 'loadedTime': 6525.900000035763, 'positionName': 'LEFT', 'positionCoords': [246.68, 179], 'bid': 6.2700000000000005}, {'imgObject': {}, 'id': 'tacos', 'src': '/static/foodstim60/tacos.jpg', 'key': 'i', 'origWidth': 411, 'origHeight': 411, 'width': 411, 'height': 411, 'widthPercent': 0.45, 'rescaleHeight': False, 'trialN': 88, 'loaded': True, 'loadedTime': 6485.699999988079, 'positionName': 'RIGHT', 'positionCoords': [710.32, 178.5], 'bid': 6.33}]",153487.40000003576,1669840143000,apple slices,tacos,6.2700000000000005,6.33,0.05999999999999961,apple slices,1075.5999999642372,1076,1076.2999999523163,True,u,155082.90000003576,1595.5,1669840144595,1595,HRV,HRV_0284,2022-11-30 20:32:37
89,"[{'imgObject': {}, 'id': 'sweetpotato', 'src': '/static/foodstim60/sweetpotato.jpg', 'key': 'u', 'origWidth': 410, 'origHeight': 410, 'width': 410, 'height': 410, 'widthPercent': 0.45, 'rescaleHeight': False, 'trialN': 89, 'loaded': True, 'loadedTime': 6369.800000011921, 'positionName': 'LEFT', 'positionCoords': [245.68, 179], 'bid': 3.77}, {'imgObject': {}, 'id': 'bagel plain', 'src': '/static/foodstim60/bagel plain.jpg', 'key': 'i', 'origWidth': 410, 'origHeight': 410, 'width': 410, 'height': 410, 'widthPercent': 0.45, 'rescaleHeight': False, 'trialN': 89, 'loaded': True, 'loadedTime': 6632, 'positionName': 'RIGHT', 'positionCoords': [710.32, 179], 'bid': 0.98}]",155083.40000003576,1669840144596,sweetpotato,bagel plain,3.77,0.98,-2.79,sweetpotato,1564,1564,1564.5999999642372,True,u,157163.19999998808,2079.7999999523163,1669840146676,2080,HRV,HRV_0284,2022-11-30 20:32:37
90,"[{'imgObject': {}, 'id': 'mashed potato', 'src': '/static/foodstim60/mashed potato.jpg', 'key': 'u', 'origWidth': 409, 'origHeight': 409, 'width': 409, 'height': 409, 'widthPercent': 0.45, 'rescaleHeight': False, 'trialN': 90, 'loaded': True, 'loadedTime': 5971.800000011921, 'positionName': 'LEFT', 'positionCoords': [246.68, 179.5], 'bid': 5.07}, {'imgObject': {}, 'id': 'kiwi', 'src': '/static/foodstim60/kiwi.jpg', 'key': 'i', 'origWidth': 410, 'origHeight': 410, 'width': 410, 'height': 410, 'widthPercent': 0.45, 'rescaleHeight': False, 'trialN': 90, 'loaded': True, 'loadedTime': 5808.300000011921, 'positionName': 'RIGHT', 'positionCoords': [710.32, 179], 'bid': 6.05}]",193558.5,1669840183071,mashed potato,kiwi,5.07,6.05,0.9799999999999995,kiwi,847.5,848,848.3000000119209,True,i,194924.5,1366.0,1669840184437,1366,HRV,HRV_0284,2022-11-30 20:32:37
91,"[{'imgObject': {}, 'id': 'rigatoni and sauce', 'src': '/static/foodstim60/rigatoni and sauce.jpg', 'key': 'u', 'origWidth': 410, 'origHeight': 411, 'width': 410, 'height': 411, 'widthPercent': 0.45, 'rescaleHeight': False, 'trialN': 91, 'loaded': True, 'loadedTime': 6406.100000023842, 'positionName': 'LEFT', 'positionCoords': [245.68, 178.5], 'bid': 2.73}, {'imgObject': {}, 'id': 'froot loops w milk', 'src': '/static/foodstim60/froot loops w milk.jpg', 'key': 'i', 'origWidth': 410, 'origHeight': 410, 'width': 410, 'height': 410, 'widthPercent': 0.45, 'rescaleHeight': False, 'trialN': 91, 'loaded': True, 'loadedTime': 6634.900000035763, 'positionName': 'RIGHT', 'positionCoords': [710.32, 179], 'bid': 2.21}]",194924.90000003576,1669840184437,rigatoni and sauce,froot loops w milk,2.73,2.21,-0.52,rigatoni and sauce,1062.199999988079,1063,1062.8999999761581,True,u,196502.80000001192,1577.8999999761581,1669840186015,1578,HRV,HRV_0284,2022-11-30 20:32:37
92,"[{'imgObject': {}, 'id': 'edamame', 'src': '/static/foodstim60/edamame.jpg', 'key': 'u', 'origWidth': 409, 'origHeight': 410, 'width': 409, 'height': 410, 'widthPercent': 0.45, 'rescaleHeight': False, 'trialN': 92, 'loaded': True, 'loadedTime': 6587.900000035763, 'positionName': 'LEFT', 'positionCoords': [246.68, 179], 'bid': 3.82}, {'imgObject': {}, 'id': 'sweetpotato', 'src': '/static/foodstim60/sweetpotato.jpg', 'key': 'i', 'origWidth': 410, 'origHeight': 410, 'width': 410, 'height': 410, 'widthPercent': 0.45, 'rescaleHeight': False, 'trialN': 92, 'loaded': True, 'loadedTime': 6365.100000023842, 'positionName': 'RIGHT', 'positionCoords': [710.32, 179], 'bid': 3.77}]",196503.30000001192,1669840186016,edamame,sweetpotato,3.82,3.77,-0.04999999999999982,edamame,848.5,849,849.3000000119209,True,u,197864.10000002384,1360.800000011921,1669840187377,1361,HRV,HRV_0284,2022-11-30 20:32:37
93,"[{'imgObject': {}, 'id': 'fruitsalad', 'src': '/static/foodstim60/fruitsalad.jpg', 'key': 'u', 'origWidth': 410, 'origHeight': 410, 'width': 410, 'height': 410, 'widthPercent': 0.45, 'rescaleHeight': False, 'trialN': 93, 'loaded': True, 'loadedTime': 6090.400000035763, 'positionName': 'LEFT', 'positionCoords': [245.68, 179], 'bid': 7.18}, {'imgObject': {}, 'id': 'blueberries', 'src': '/static/foodstim60/blueberries.jpg', 'key': 'i', 'origWidth': 411, 'origHeight': 411, 'width': 411, 'height': 411, 'widthPercent': 0.45, 'rescaleHeight': False, 'trialN': 93, 'loaded': True, 'loadedTime': 6127.800000011921, 'positionName': 'RIGHT', 'positionCoords': [710.32, 178.5], 'bid': 6.72}]",197864.60000002384,1669840187377,fruitsalad,blueberries,7.18,6.72,-0.45999999999999996,blueberries,1036.3999999761581,1037,1037.0,True,i,199412.69999998808,1548.0999999642372,1669840188925,1548,HRV,HRV_0284,2022-11-30 20:32:37
94,"[{'imgObject': {}, 'id': 'fried eggs', 'src': '/static/foodstim60/fried eggs.jpg', 'key': 'u', 'origWidth': 410, 'origHeight': 410, 'width': 410, 'height': 410, 'widthPercent': 0.45, 'rescaleHeight': False, 'trialN': 94, 'loaded': True, 'loadedTime': 6584.300000011921, 'positionName': 'LEFT', 'positionCoords': [245.68, 179], 'bid': 6.12}, {'imgObject': {}, 'id': 'raspberries', 'src': '/static/foodstim60/raspberries.jpg', 'key': 'i', 'origWidth': 411, 'origHeight': 411, 'width': 411, 'height': 411, 'widthPercent': 0.45, 'rescaleHeight': False, 'trialN': 94, 'loaded': True, 'loadedTime': 6600.800000011921, 'positionName': 'RIGHT', 'positionCoords': [710.32, 178.5], 'bid': 7.18}]",199413.19999998808,1669840188926,fried eggs,raspberries,6.12,7.18,1.0599999999999996,fried eggs,885.5,886,886.2000000476837,True,u,200802.80000001192,1389.6000000238419,1669840190315,1389,HRV,HRV_0284,2022-11-30 20:32:37
95,"[{'imgObject': {}, 'id': 'yogurt no spoon', 'src': '/static/foodstim60/yogurt no spoon.jpg', 'key': 'u', 'origWidth': 411, 'origHeight': 410, 'width': 411, 'height': 410, 'widthPercent': 0.45, 'rescaleHeight': False, 'trialN': 95, 'loaded': True, 'loadedTime': 6321.300000011921, 'positionName': 'LEFT', 'positionCoords': [244.68, 179], 'bid': 5.38}, {'imgObject': {}, 'id': 'roastedpotatoes', 'src': '/static/foodstim60/roastedpotatoes.jpg', 'key': 'i', 'origWidth': 409, 'origHeight': 410, 'width': 409, 'height': 410, 'widthPercent': 0.45, 'rescaleHeight': False, 'trialN': 95, 'loaded': True, 'loadedTime': 6363.800000011921, 'positionName': 'RIGHT', 'positionCoords': [710.32, 179], 'bid': 4.13}]",200803.19999998808,1669840190316,yogurt no spoon,roastedpotatoes,5.38,4.13,-1.25,yogurt no spoon,806.8000000119209,807,807.5,True,u,202117.19999998808,1314.0,1669840191630,1314,HRV,HRV_0284,2022-11-30 20:32:37
96,"[{'imgObject': {}, 'id': 'chickenfingers', 'src': '/static/foodstim60/chickenfingers.jpg', 'key': 'u', 'origWidth': 410, 'origHeight': 410, 'width': 410, 'height': 410, 'widthPercent': 0.45, 'rescaleHeight': False, 'trialN': 96, 'loaded': True, 'loadedTime': 5453.900000035763, 'positionName': 'LEFT', 'positionCoords': [245.68, 179], 'bid': 4.1}, {'imgObject': {}, 'id': 'mashed potato', 'src': '/static/foodstim60/mashed potato.jpg', 'key': 'i', 'origWidth': 409, 'origHeight': 409, 'width': 409, 'height': 409, 'widthPercent': 0.45, 'rescaleHeight': False, 'trialN': 96, 'loaded': True, 'loadedTime': 5972, 'positionName': 'RIGHT', 'positionCoords': [710.32, 179.5], 'bid': 5.07}]",202117.69999998808,1669840191630,chickenfingers,mashed potato,4.1,5.07,0.9700000000000006,mashed potato,1175.1000000238419,1176,1175.800000011921,True,i,203808.60000002384,1690.9000000357628,1669840193321,1691,HRV,HRV_0284,2022-11-30 20:32:37
97,"[{'imgObject': {}, 'id': 'shreddedwheatwithmilk', 'src': '/static/foodstim60/shreddedwheatwithmilk.jpg', 'key': 'u', 'origWidth': 410, 'origHeight': 410, 'width': 410, 'height': 410, 'widthPercent': 0.45, 'rescaleHeight': False, 'trialN': 97, 'loaded': True, 'loadedTime': 6637.900000035763, 'positionName': 'LEFT', 'positionCoords': [245.68, 179], 'bid': 0.92}, {'imgObject': {}, 'id': 'bagel and cc', 'src': '/static/foodstim60/bagel and cc.jpg', 'key': 'i', 'origWidth': 410, 'origHeight': 410, 'width': 410, 'height': 410, 'widthPercent': 0.45, 'rescaleHeight': False, 'trialN': 97, 'loaded': True, 'loadedTime': 6525.100000023842, 'positionName': 'RIGHT', 'positionCoords': [710.32, 179], 'bid': 0.98}]",203809.10000002384,1669840193322,shreddedwheatwithmilk,bagel and cc,0.92,0.98,0.05999999999999994,shreddedwheatwithmilk,757.8000000119209,758,758.5,True,u,205086.5,1277.3999999761581,1669840194599,1277,HRV,HRV_0284,2022-11-30 20:32:37
98,"[{'imgObject': {}, 'id': 'apple slices', 'src': '/static/foodstim60/apple slices.jpg', 'key': 'u', 'origWidth': 409, 'origHeight': 410, 'width': 409, 'height': 410, 'widthPercent': 0.45, 'rescaleHeight': False, 'trialN': 98, 'loaded': True, 'loadedTime': 6529.600000023842, 'positionName': 'LEFT', 'positionCoords': [246.68, 179], 'bid': 6.2700000000000005}, {'imgObject': {}, 'id': 'pear', 'src': '/static/foodstim60/pear.jpg', 'key': 'i', 'origWidth': 411, 'origHeight': 410, 'width': 411, 'height': 410, 'widthPercent': 0.45, 'rescaleHeight': False, 'trialN': 98, 'loaded': True, 'loadedTime': 5642.100000023842, 'positionName': 'RIGHT', 'positionCoords': [710.32, 179], 'bid': 6.5}]",205086.90000003576,1669840194599,apple slices,pear,6.2700000000000005,6.5,0.22999999999999954,apple slices,942.5,944,943.0999999642372,True,u,206535.80000001192,1448.8999999761581,1669840196048,1449,HRV,HRV_0284,2022-11-30 20:32:37
99,"[{'imgObject': {}, 'id': 'bagel and cc', 'src': '/static/foodstim60/bagel and cc.jpg', 'key': 'u', 'origWidth': 410, 'origHeight': 410, 'width': 410, 'height': 410, 'widthPercent': 0.45, 'rescaleHeight': False, 'trialN': 99, 'loaded': True, 'loadedTime': 6525.400000035763, 'positionName': 'LEFT', 'positionCoords': [245.68, 179], 'bid': 0.98}, {'imgObject': {}, 'id': 'veggieswithdip', 'src': '/static/foodstim60/veggieswithdip.jpg', 'key': 'i', 'origWidth': 409, 'origHeight': 409, 'width': 409, 'height': 409, 'widthPercent': 0.45, 'rescaleHeight': False, 'trialN': 99, 'loaded': True, 'loadedTime': 5969.400000035763, 'positionName': 'RIGHT', 'positionCoords': [710.32, 179.5], 'bid': 3.75}]",206536.30000001192,1669840196049,bagel and cc,veggieswithdip,0.98,3.75,2.77,veggieswithdip,1312.300000011921,1313,1312.8999999761581,True,i,208365.60000002384,1829.300000011921,1669840197878,1829,HRV,HRV_0284,2022-11-30 20:32:37
100,"[{'imgObject': {}, 'id': 'turkeysandwich', 'src': '/static/foodstim60/turkeysandwich.jpg', 'key': 'u', 'origWidth': 409, 'origHeight': 409, 'width': 409, 'height': 409, 'widthPercent': 0.45, 'rescaleHeight': False, 'trialN': 100, 'loaded': True, 'loadedTime': 6286.5, 'positionName': 'LEFT', 'positionCoords': [246.68, 179.5], 'bid': 6.2}, {'imgObject': {}, 'id': 'kiwi', 'src': '/static/foodstim60/kiwi.jpg', 'key': 'i', 'origWidth': 410, 'origHeight': 410, 'width': 410, 'height': 410, 'widthPercent': 0.45, 'rescaleHeight': False, 'trialN': 100, 'loaded': True, 'loadedTime': 5842.699999988079, 'positionName': 'RIGHT', 'positionCoords': [710.32, 179], 'bid': 6.05}]",208366.0,1669840197879,turkeysandwich,kiwi,6.2,6.05,-0.15000000000000036,turkeysandwich,766.1999999880791,766,766.9000000357628,True,u,209640.0,1274.0,1669840199152,1273,HRV,HRV_0284,2022-11-30 20:32:37
101,"[{'imgObject': {}, 'id': 'sushi w_condiments', 'src': '/static/foodstim60/sushi w_condiments.jpg', 'key': 'u', 'origWidth': 410, 'origHeight': 410, 'width': 410, 'height': 410, 'widthPercent': 0.45, 'rescaleHeight': False, 'trialN': 101, 'loaded': True, 'loadedTime': 5587.800000011921, 'positionName': 'LEFT', 'positionCoords': [245.68, 179], 'bid': 0.35}, {'imgObject': {}, 'id': 'sweetpotato', 'src': '/static/foodstim60/sweetpotato.jpg', 'key': 'i', 'origWidth': 410, 'origHeight': 410, 'width': 410, 'height': 410, 'widthPercent': 0.45, 'rescaleHeight': False, 'trialN': 101, 'loaded': True, 'loadedTime': 6370.199999988079, 'positionName': 'RIGHT', 'positionCoords': [710.32, 179], 'bid': 3.77}]",209640.5,1669840199153,sushi w_condiments,sweetpotato,0.35,3.77,3.42,sweetpotato,1279.1000000238419,1280,1279.699999988079,True,i,211435.60000002384,1795.1000000238419,1669840200948,1795,HRV,HRV_0284,2022-11-30 20:32:37
102,"[{'imgObject': {}, 'id': 'cocktailshrimp', 'src': '/static/foodstim60/cocktailshrimp.jpg', 'key': 'u', 'origWidth': 410, 'origHeight': 410, 'width': 410, 'height': 410, 'widthPercent': 0.45, 'rescaleHeight': False, 'trialN': 102, 'loaded': True, 'loadedTime': 5503.5, 'positionName': 'LEFT', 'positionCoords': [245.68, 179], 'bid': 10}, {'imgObject': {}, 'id': 'blueberries', 'src': '/static/foodstim60/blueberries.jpg', 'key': 'i', 'origWidth': 411, 'origHeight': 411, 'width': 411, 'height': 411, 'widthPercent': 0.45, 'rescaleHeight': False, 'trialN': 102, 'loaded': True, 'loadedTime': 6129.100000023842, 'positionName': 'RIGHT', 'positionCoords': [710.32, 178.5], 'bid': 6.72}]",211436.10000002384,1669840200949,cocktailshrimp,blueberries,10.0,6.72,-3.2800000000000002,cocktailshrimp,792.8000000119209,793,793.5999999642372,True,u,212757.10000002384,1321.0,1669840202269,1320,HRV,HRV_0284,2022-11-30 20:32:37
103,"[{'imgObject': {}, 'id': 'raisin bran w milk', 'src': '/static/foodstim60/raisin bran w milk.jpg', 'key': 'u', 'origWidth': 411, 'origHeight': 411, 'width': 411, 'height': 411, 'widthPercent': 0.45, 'rescaleHeight': False, 'trialN': 103, 'loaded': True, 'loadedTime': 5766.300000011921, 'positionName': 'LEFT', 'positionCoords': [244.68, 178.5], 'bid': 3.27}, {'imgObject': {}, 'id': 'baked potato', 'src': '/static/foodstim60/baked potato.jpg', 'key': 'i', 'origWidth': 409, 'origHeight': 410, 'width': 409, 'height': 410, 'widthPercent': 0.45, 'rescaleHeight': False, 'trialN': 103, 'loaded': True, 'loadedTime': 6328.600000023842, 'positionName': 'RIGHT', 'positionCoords': [710.32, 179], 'bid': 4.57}]",212757.19999998808,1669840202270,raisin bran w milk,baked potato,3.27,4.57,1.3000000000000003,raisin bran w milk,1666.6000000238419,1671,1667.2000000476837,True,u,214929.5,2172.300000011921,1669840204446,2176,HRV,HRV_0284,2022-11-30 20:32:37
104,"[{'imgObject': {}, 'id': 'raisin bran w milk', 'src': '/static/foodstim60/raisin bran w milk.jpg', 'key': 'u', 'origWidth': 411, 'origHeight': 411, 'width': 411, 'height': 411, 'widthPercent': 0.45, 'rescaleHeight': False, 'trialN': 104, 'loaded': True, 'loadedTime': 5763.900000035763, 'positionName': 'LEFT', 'positionCoords': [244.68, 178.5], 'bid': 3.27}, {'imgObject': {}, 'id': 'Grapes', 'src': '/static/foodstim60/Grapes.jpg', 'key': 'i', 'origWidth': 411, 'origHeight': 411, 'width': 411, 'height': 411, 'widthPercent': 0.45, 'rescaleHeight': False, 'trialN': 104, 'loaded': True, 'loadedTime': 6445.699999988079, 'positionName': 'RIGHT', 'positionCoords': [710.32, 178.5], 'bid': 5.83}]",214930.0,1669840204447,raisin bran w milk,Grapes,3.27,5.83,2.56,Grapes,1126.1000000238419,1127,1126.699999988079,True,i,216569.90000003576,1639.9000000357628,1669840206087,1640,HRV,HRV_0284,2022-11-30 20:32:37
105,"[{'imgObject': {}, 'id': 'popsicles', 'src': '/static/foodstim60/popsicles.jpg', 'key': 'u', 'origWidth': 410, 'origHeight': 410, 'width': 410, 'height': 410, 'widthPercent': 0.45, 'rescaleHeight': False, 'trialN': 105, 'loaded': True, 'loadedTime': 6647.400000035763, 'positionName': 'LEFT', 'positionCoords': [245.68, 179], 'bid': 5.4}, {'imgObject': {}, 'id': 'chicken nuggets2', 'src': '/static/foodstim60/chicken nuggets2.jpg', 'key': 'i', 'origWidth': 410, 'origHeight': 409, 'width': 410, 'height': 409, 'widthPercent': 0.45, 'rescaleHeight': False, 'trialN': 105, 'loaded': True, 'loadedTime': 6206.800000011921, 'positionName': 'RIGHT', 'positionCoords': [710.32, 179.5], 'bid': 4.28}]",216570.30000001192,1669840206087,popsicles,chicken nuggets2,5.4,4.28,-1.12,popsicles,1058,1059,1058.5,True,u,218138.69999998808,1568.3999999761581,1669840207656,1569,HRV,HRV_0284,2022-11-30 20:32:37
106,"[{'imgObject': {}, 'id': 'olives', 'src': '/static/foodstim60/olives.jpg', 'key': 'u', 'origWidth': 410, 'origHeight': 410, 'width': 410, 'height': 410, 'widthPercent': 0.45, 'rescaleHeight': False, 'trialN': 106, 'loaded': True, 'loadedTime': 6455.199999988079, 'positionName': 'LEFT', 'positionCoords': [245.68, 179], 'bid': 6.71}, {'imgObject': {}, 'id': 'roastedpotatoes', 'src': '/static/foodstim60/roastedpotatoes.jpg', 'key': 'i', 'origWidth': 409, 'origHeight': 410, 'width': 409, 'height': 410, 'widthPercent': 0.45, 'rescaleHeight': False, 'trialN': 106, 'loaded': True, 'loadedTime': 6331.699999988079, 'positionName': 'RIGHT', 'positionCoords': [710.32, 179], 'bid': 4.13}]",218139.30000001192,1669840207656,olives,roastedpotatoes,6.71,4.13,-2.58,olives,685.1000000238419,686,685.8000000119209,True,u,219329.5,1190.199999988079,1669840208846,1190,HRV,HRV_0284,2022-11-30 20:32:37
107,"[{'imgObject': {}, 'id': 'avocado', 'src': '/static/foodstim60/avocado.jpg', 'key': 'u', 'origWidth': 409, 'origHeight': 409, 'width': 409, 'height': 409, 'widthPercent': 0.45, 'rescaleHeight': False, 'trialN': 107, 'loaded': True, 'loadedTime': 5929.600000023842, 'positionName': 'LEFT', 'positionCoords': [246.68, 179.5], 'bid': 5.45}, {'imgObject': {}, 'id': 'bagel and cc', 'src': '/static/foodstim60/bagel and cc.jpg', 'key': 'i', 'origWidth': 410, 'origHeight': 410, 'width': 410, 'height': 410, 'widthPercent': 0.45, 'rescaleHeight': False, 'trialN': 107, 'loaded': True, 'loadedTime': 6525.699999988079, 'positionName': 'RIGHT', 'positionCoords': [710.32, 179], 'bid': 0.98}]",219329.69999998808,1669840208847,avocado,bagel and cc,5.45,0.98,-4.470000000000001,avocado,1139.6000000238419,1140,1140.300000011921,True,u,220978.69999998808,1649.0,1669840210496,1649,HRV,HRV_0284,2022-11-30 20:32:37
108,"[{'imgObject': {}, 'id': 'luckycharms', 'src': '/static/foodstim60/luckycharms.jpg', 'key': 'u', 'origWidth': 410, 'origHeight': 409, 'width': 410, 'height': 409, 'widthPercent': 0.45, 'rescaleHeight': False, 'trialN': 108, 'loaded': True, 'loadedTime': 5806.600000023842, 'positionName': 'LEFT', 'positionCoords': [245.68, 179.5], 'bid': 3.82}, {'imgObject': {}, 'id': 'froot loops w milk', 'src': '/static/foodstim60/froot loops w milk.jpg', 'key': 'i', 'origWidth': 410, 'origHeight': 410, 'width': 410, 'height': 410, 'widthPercent': 0.45, 'rescaleHeight': False, 'trialN': 108, 'loaded': True, 'loadedTime': 6637.100000023842, 'positionName': 'RIGHT', 'positionCoords': [710.32, 179], 'bid': 2.21}]",220979.19999998808,1669840210496,luckycharms,froot loops w milk,3.82,2.21,-1.6099999999999999,luckycharms,1217.7000000476837,1220,1219.4000000357628,True,u,222712.69999998808,1733.5,1669840212230,1734,HRV,HRV_0284,2022-11-30 20:32:37
