success,trial_type,trial_index,time_elapsed,internal_node_id,Block,TrialNumber,TrialTime,trialTimeDiff,FPS_avg,FPS_med,FPS_mode,TrialDur,winResizeTime,rt,block,button_pressed,MotCoh,MotDir,ColCoh,Color,ChoiceKey,Choice,Accuracy,RT,nFrames,FPS,PPD,missTrial,missTrialMsg,onsetDelay,fullScreenExitTime,canvCenter,TrialType,Score,BlockTrial,stimulus,button_labels,exp,subjectId,date
True,fullscreen,0,21022,0.0-0.0,0.0,1.0,,,,,,,,,,,,,,,,,,,,,,,,,,,,,,,,HRV,HRV_0284,2022-11-30 20:57:37
,wl-check-fps,1,26027,0.0-1.0,0.0,2.0,"[22319.3, 22333.1, 22349.7, 22367.1, 22382.3, 22398.8, 22415.2, 22432, 22448.5, 22466.2, 22481.7, 22500.7, 22514.4, 22530.3, 22546.8, 22563.8, 22580.4, 22596.9, 22613.7, 22630.4, 22646.9, 22663.8, 22680.5, 22697.1, 22713.8, 22730.5, 22747, 22763.6, 22780.5, 22796.8, 22813.7, 22830.4, 22846.9, 22863.8, 22880.5, 22896.8, 22913.7, 22930.4, 22947, 22963.7, 22980.5, 22997.1, 23013.9, 23031, 23047.2, 23063.6, 23080.4, 23097, 23113.8, 23130.3, 23146.9, 23163.7, 23180.4, 23197.1, 23213.7, 23230.4, 23247, 23263.7, 23280.2, 23296.8, 23313.7, 23330.4, 23347.1, 23364.1, 23380.4, 23397, 23413.6, 23430.4, 23446.9, 23463.7, 23480.5, 23496.9, 23513.6, 23530.5, 23546.9, 23563.7, 23580.5, 23597, 23613.7, 23630.4, 23647, 23663.8, 23680.4, 23697.1, 23713.7, 23730.3, 23746.9, 23763.7, 23780.4, 23797.1, 23813.7, 23830.4, 23847, 23864, 23880.4, 23897, 23913.6, 23930.5, 23947, 23963.8, 23980.4, 23996.9, 24013.8, 24030.4, 24046.9, 24063.6, 24080.3, 24097, 24113.7, 24130.2, 24146.9, 24163.6, 24180.4, 24197.1, 24213.8, 24230.4, 24246.9, 24263.7, 24280.4, 24297.1, 24313.7, 24330.4, 24347, 24363.8, 24380.4, 24397, 24413.5, 24430.2, 24446.9, 24463.6, 24480.4, 24497, 24513.6, 24530.5, 24547, 24563.7, 24580.3, 24597, 24613.7, 24630.5, 24646.9, 24663.6, 24680.4, 24697.3, 24713.6, 24730.4, 24746.9, 24763.7, 24780.5, 24796.9, 24813.5, 24830.4, 24846.8, 24863.9, 24880.3, 24896.9, 24913.7, 24930.2, 24946.8, 24963.6, 24980.3, 24996.8, 25013.7, 25030.7, 25046.8, 25063.7, 25080.3, 25096.9, 25113.6, 25130.2, 25146.8, 25163.8, 25180.4, 25197.1, 25213.7, 25230.4, 25247, 25263.7, 25280.4, 25296.9, 25313.6, 25330.3, 25346.8, 25363.9, 25380.2, 25397, 25413.6, 25430.3, 25447, 25463.5, 25480.4, 25497, 25513.6, 25530.4, 25546.9, 25563.7, 25580.3, 25596.9, 25613.6, 25630.3, 25647, 25663.8, 25680.3, 25697, 25713.6, 25730.3, 25746.9, 25763.6, 25780.3, 25796.9, 25813.7, 25830.3, 25846.9, 25863.8, 25880.4, 25896.8, 25913.6, 25930.3, 25947, 25963.9, 25980.5, 25998, 26014.8, 26031.3, 26048, 26064.7, 26081.3, 26097.9, 26116.1, 26131.2, 26147.9, 26164.5, 26181.1, 26198.1, 26214.6, 26230.8, 26248.1, 26264.8, 26281.6, 26298, 26314.6, 26331.5, 26348.1, 26366.5, 26381.4, 26397.8, 26414.5, 26431.6, 26447.8, 26464, 26481.5, 26497.9, 26516.3, 26531.5, 26547.9, 26564.6, 26581.1, 26598.2, 26615.9, 26630.8, 26648.7, 26664.1, 26680.3, 26696.7, 26713.7, 26730.4, 26746.9, 26763.6, 26780.2, 26796.9, 26813.6, 26830.1, 26846.7, 26863.6, 26880.1, 26896.8, 26913.6, 26930.2, 26946.7, 26963.6, 26980.3, 26996.9, 27013.4, 27030.3, 27046.8, 27063.6, 27080.3, 27097, 27113.5, 27130.3, 27146.8, 27163.6, 27180.3, 27196.9, 27213.6, 27230.3, 27246.8, 27263.6, 27280.3, 27296.8]","[2.7, 13.8, 16.6, 17.4, 15.2, 16.5, 16.4, 16.8, 16.5, 17.7, 15.5, 19, 13.7, 15.9, 16.5, 17, 16.6, 16.5, 16.8, 16.7, 16.5, 16.9, 16.7, 16.6, 16.7, 16.7, 16.5, 16.6, 16.9, 16.3, 16.9, 16.7, 16.5, 16.9, 16.7, 16.3, 16.9, 16.7, 16.6, 16.7, 16.8, 16.6, 16.8, 17.1, 16.2, 16.4, 16.8, 16.6, 16.8, 16.5, 16.6, 16.8, 16.7, 16.7, 16.6, 16.7, 16.6, 16.7, 16.5, 16.6, 16.9, 16.7, 16.7, 17, 16.3, 16.6, 16.6, 16.8, 16.5, 16.8, 16.8, 16.4, 16.7, 16.9, 16.4, 16.8, 16.8, 16.5, 16.7, 16.7, 16.6, 16.8, 16.6, 16.7, 16.6, 16.6, 16.6, 16.8, 16.7, 16.7, 16.6, 16.7, 16.6, 17, 16.4, 16.6, 16.6, 16.9, 16.5, 16.8, 16.6, 16.5, 16.9, 16.6, 16.5, 16.7, 16.7, 16.7, 16.7, 16.5, 16.7, 16.7, 16.8, 16.7, 16.7, 16.6, 16.5, 16.8, 16.7, 16.7, 16.6, 16.7, 16.6, 16.8, 16.6, 16.6, 16.5, 16.7, 16.7, 16.7, 16.8, 16.6, 16.6, 16.9, 16.5, 16.7, 16.6, 16.7, 16.7, 16.8, 16.4, 16.7, 16.8, 16.9, 16.3, 16.8, 16.5, 16.8, 16.8, 16.4, 16.6, 16.9, 16.4, 17.1, 16.4, 16.6, 16.8, 16.5, 16.6, 16.8, 16.7, 16.5, 16.9, 17, 16.1, 16.9, 16.6, 16.6, 16.7, 16.6, 16.6, 17, 16.6, 16.7, 16.6, 16.7, 16.6, 16.7, 16.7, 16.5, 16.7, 16.7, 16.5, 17.1, 16.3, 16.8, 16.6, 16.7, 16.7, 16.5, 16.9, 16.6, 16.6, 16.8, 16.5, 16.8, 16.6, 16.6, 16.7, 16.7, 16.7, 16.8, 16.5, 16.7, 16.6, 16.7, 16.6, 16.7, 16.7, 16.6, 16.8, 16.6, 16.6, 16.9, 16.6, 16.4, 16.8, 16.7, 16.7, 16.9, 16.6, 17.5, 16.8, 16.5, 16.7, 16.7, 16.6, 16.6, 18.2, 15.1, 16.7, 16.6, 16.6, 17, 16.5, 16.2, 17.3, 16.7, 16.8, 16.4, 16.6, 16.9, 16.6, 18.4, 14.9, 16.4, 16.7, 17.1, 16.2, 16.2, 17.5, 16.4, 18.4, 15.2, 16.4, 16.7, 16.5, 17.1, 17.7, 14.9, 17.9, 15.4, 16.2, 16.4, 17, 16.7, 16.5, 16.7, 16.6, 16.7, 16.7, 16.5, 16.6, 16.9, 16.5, 16.7, 16.8, 16.6, 16.5, 16.9, 16.7, 16.6, 16.5, 16.9, 16.5, 16.8, 16.7, 16.7, 16.5, 16.8, 16.5, 16.8, 16.7, 16.6, 16.7, 16.7, 16.5, 16.8, 16.7, 16.5]",60.0,61.0,60.0,4997.0,[],,,,,,,,,,,,,,,,,,,,,,,,,HRV,HRV_0284,2022-11-30 20:57:37
,wl-html-keyboard-response,2,72822,0.0-2.0-0.0,0.0,3.0,,,,,,,,44789.30000001192,0.0,0,,,,,,,,,,,,,,,,,,,,,,HRV,HRV_0284,2022-11-30 20:57:37
,wl-rdm,3,79508,0.0-3.0-0.0,0.0,4.0,,,,,,,[],,,,0.0,0.0,87.9,0.0,u,0.0,True,1094.0,66.0,60.0,40.0,False,,3000.0,[],"[683, 384]",ColorTask_Demo,,,,,HRV,HRV_0284,2022-11-30 20:57:37
,wl-rdm,4,84290,0.0-3.0-1.0,0.0,5.0,,,,,,,[],,,,0.0,0.0,87.9,1.0,i,1.0,True,722.1000000238419,44.0,60.0,40.0,False,,2000.0,[],"[683, 384]",ColorTask_Demo,,,,,HRV,HRV_0284,2022-11-30 20:57:37
,wl-html-keyboard-response,5,89622,0.0-3.0-2.0,0.0,6.0,,,,,,,,3322.300000011921,0.0,1,,,,,,,,,,,,,,,,,,,,,,HRV,HRV_0284,2022-11-30 20:57:37
,wl-html-keyboard-response,6,101830,0.0-4.0-0.0,0.0,7.0,,,,,,,,10202.900000035763,0.0,0,,,,,,,,,,,,,,,,,,,,,,HRV,HRV_0284,2022-11-30 20:57:37
,wl-html-keyboard-response,7,114654,0.0-5.0-0.0,0.0,8.0,,,,,,,,10814.699999988079,0.0,0,,,,,,,,,,,,,,,,,,,,,,HRV,HRV_0284,2022-11-30 20:57:37
,wl-rdm,8,116806,0.0-6.0-0.0,0.0,9.0,,,,,,,[],,,,,,50.0,1.0,u,0.0,False,794.9000000357628,48.0,60.0,40.0,False,,281.5250061778825,[],"[683, 384]",ColorTask,-1.0,1.0,,,HRV,HRV_0284,2022-11-30 20:57:37
,wl-rdm,9,118990,0.0-6.1-0.1,0.0,10.0,,,,,,,[],,,,,,53.2,1.0,i,1.0,True,843.5,51.0,60.0,40.0,False,,251.35595544198446,[],"[683, 384]",ColorTask,0.0,2.0,,,HRV,HRV_0284,2022-11-30 20:57:37
,wl-rdm,10,120923,0.0-6.2-0.2,0.0,11.0,,,,,,,[],,,,,,53.2,0.0,u,0.0,True,643.8000000119209,39.0,60.0,40.0,False,,228.76551663256586,[],"[683, 384]",ColorTask,1.0,3.0,,,HRV,HRV_0284,2022-11-30 20:57:37
,wl-rdm,11,123105,0.0-6.3-0.3,0.0,12.0,,,,,,,[],,,,,,50.0,1.0,u,0.0,False,846.3000000119209,51.0,60.0,40.0,False,,282.39675764857026,[],"[683, 384]",ColorTask,0.0,4.0,,,HRV,HRV_0284,2022-11-30 20:57:37
,wl-rdm,12,125106,0.0-6.4-0.4,0.0,13.0,,,,,,,[],,,,,,53.2,0.0,u,0.0,True,708.1999999880791,43.0,60.0,40.0,False,,201.05788536184494,[],"[683, 384]",ColorTask,1.0,5.0,,,HRV,HRV_0284,2022-11-30 20:57:37
,wl-rdm,13,127256,0.0-6.5-0.5,0.0,14.0,,,,,,,[],,,,,,87.9,1.0,i,1.0,True,853.8000000715256,52.0,60.0,40.0,False,,223.55597079260542,[],"[683, 384]",ColorTask,2.0,6.0,,,HRV,HRV_0284,2022-11-30 20:57:37
,wl-rdm,14,129289,0.0-6.6-0.6,0.0,15.0,,,,,,,[],,,,,,87.9,0.0,u,0.0,True,738.0000000596046,45.0,60.0,40.0,False,,206.83745936378318,[],"[683, 384]",ColorTask,3.0,7.0,,,HRV,HRV_0284,2022-11-30 20:57:37
,wl-rdm,15,131139,0.0-6.7-0.7,0.0,16.0,,,,,,,[],,,,,,73.6,1.0,i,1.0,True,512.3999999761581,31.0,60.0,40.0,False,,253.76029407012064,[],"[683, 384]",ColorTask,4.0,8.0,,,HRV,HRV_0284,2022-11-30 20:57:37
,wl-rdm,16,133188,0.0-6.8-0.8,0.0,17.0,,,,,,,[],,,,,,87.9,0.0,u,0.0,True,603.9000000357628,37.0,60.0,40.0,False,,360.00346365273805,[],"[683, 384]",ColorTask,5.0,9.0,,,HRV,HRV_0284,2022-11-30 20:57:37
,wl-rdm,17,134922,0.0-6.9-0.9,0.0,18.0,,,,,,,[],,,,,,50.0,0.0,i,1.0,False,426.10000002384186,26.0,60.0,40.0,False,,225.30767277453057,[],"[683, 384]",ColorTask,4.0,10.0,,,HRV,HRV_0284,2022-11-30 20:57:37
,wl-rdm,18,136838,0.0-6.10-0.10,0.0,19.0,,,,,,,[],,,,,,53.2,1.0,u,0.0,False,516.3000000119209,31.0,60.0,40.0,False,,331.5355347351094,[],"[683, 384]",ColorTask,3.0,11.0,,,HRV,HRV_0284,2022-11-30 20:57:37
,wl-rdm,19,138740,0.0-6.11-0.11,0.0,20.0,,,,,,,[],,,,,,56.4,1.0,u,0.0,False,632.7999999523163,38.0,60.0,40.0,False,,207.76345813087227,[],"[683, 384]",ColorTask,2.0,12.0,,,HRV,HRV_0284,2022-11-30 20:57:37
,wl-rdm,20,140772,0.0-6.12-0.12,0.0,21.0,,,,,,,[],,,,,,73.6,0.0,u,0.0,True,690.8000000119209,42.0,60.0,40.0,False,,275.1397414137357,[],"[683, 384]",ColorTask,3.0,13.0,,,HRV,HRV_0284,2022-11-30 20:57:37
,wl-rdm,21,142756,0.0-6.13-0.13,0.0,22.0,,,,,,,[],,,,,,87.9,1.0,i,1.0,True,671.5,41.0,60.0,40.0,False,,230.55380571571197,[],"[683, 384]",ColorTask,4.0,14.0,,,HRV,HRV_0284,2022-11-30 20:57:37
,wl-rdm,22,145023,0.0-6.14-0.14,0.0,23.0,,,,,,,[],,,,,,56.4,1.0,i,1.0,True,831.5999999642372,50.0,60.0,40.0,False,,363.3504697559518,[],"[683, 384]",ColorTask,5.0,15.0,,,HRV,HRV_0284,2022-11-30 20:57:37
,wl-rdm,23,147005,0.0-6.15-0.15,0.0,24.0,,,,,,,[],,,,,,56.4,1.0,u,0.0,False,592.8000000119209,36.0,60.0,40.0,False,,321.0833440586713,[],"[683, 384]",ColorTask,4.0,16.0,,,HRV,HRV_0284,2022-11-30 20:57:37
,wl-rdm,24,149122,0.0-6.16-0.16,0.0,25.0,,,,,,,[],,,,,,50.0,0.0,u,0.0,True,803.6999999880791,49.0,60.0,40.0,False,,242.99737837719275,[],"[683, 384]",ColorTask,5.0,17.0,,,HRV,HRV_0284,2022-11-30 20:57:37
,wl-rdm,25,151072,0.0-6.17-0.17,0.0,26.0,,,,,,,[],,,,,,73.6,0.0,u,0.0,True,653.3000000119209,40.0,60.0,40.0,False,,228.01482536489544,[],"[683, 384]",ColorTask,6.0,18.0,,,HRV,HRV_0284,2022-11-30 20:57:37
,wl-rdm,26,153139,0.0-6.18-0.18,0.0,27.0,,,,,,,[],,,,,,62.5,0.0,u,0.0,True,662.0999999642372,40.0,60.0,40.0,False,,340.8801893129266,[],"[683, 384]",ColorTask,7.0,19.0,,,HRV,HRV_0284,2022-11-30 20:57:37
,wl-rdm,27,155055,0.0-6.19-0.19,0.0,28.0,,,,,,,[],,,,,,62.5,0.0,i,1.0,False,579.0999999642372,35.0,60.0,40.0,False,,280.7456622869971,[],"[683, 384]",ColorTask,6.0,20.0,,,HRV,HRV_0284,2022-11-30 20:57:37
,wl-rdm,28,157188,0.0-6.20-0.20,0.0,29.0,,,,,,,[],,,,,,53.2,1.0,u,0.0,False,765.1999999880791,46.0,60.0,40.0,False,,298.52269288903625,[],"[683, 384]",ColorTask,5.0,21.0,,,HRV,HRV_0284,2022-11-30 20:57:37
,wl-rdm,29,158971,0.0-6.21-0.21,0.0,30.0,,,,,,,[],,,,,,56.4,0.0,i,1.0,False,498.19999998807907,30.0,60.0,40.0,False,,212.92035880623624,[],"[683, 384]",ColorTask,4.0,22.0,,,HRV,HRV_0284,2022-11-30 20:57:37
,wl-rdm,30,160671,0.0-6.22-0.22,0.0,31.0,,,,,,,[],,,,,,73.6,0.0,i,1.0,False,313.0,19.0,60.0,40.0,False,,304.10395813621534,[],"[683, 384]",ColorTask,3.0,23.0,,,HRV,HRV_0284,2022-11-30 20:57:37
,wl-rdm,31,162705,0.0-6.23-0.23,0.0,32.0,,,,,,,[],,,,,,87.9,0.0,i,1.0,False,622.5,38.0,60.0,40.0,False,,331.42530515750195,[],"[683, 384]",ColorTask,2.0,24.0,,,HRV,HRV_0284,2022-11-30 20:57:37
,wl-rdm,32,164688,0.0-6.24-0.24,0.0,33.0,,,,,,,[],,,,,,73.6,1.0,i,1.0,True,689.6999999880791,42.0,60.0,40.0,False,,208.2200091062386,[],"[683, 384]",ColorTask,3.0,25.0,,,HRV,HRV_0284,2022-11-30 20:57:37
,wl-rdm,33,166955,0.0-6.25-0.25,0.0,34.0,,,,,,,[],,,,,,53.2,1.0,i,1.0,True,924.5,56.0,60.0,40.0,False,,253.11087974584134,[],"[683, 384]",ColorTask,4.0,26.0,,,HRV,HRV_0284,2022-11-30 20:57:37
,wl-rdm,34,169254,0.0-6.26-0.26,0.0,35.0,,,,,,,[],,,,,,56.4,0.0,u,0.0,True,909.6999999880791,55.0,60.0,40.0,False,,327.0692014757601,[],"[683, 384]",ColorTask,5.0,27.0,,,HRV,HRV_0284,2022-11-30 20:57:37
,wl-rdm,35,171388,0.0-6.27-0.27,0.0,36.0,,,,,,,[],,,,,,87.9,0.0,u,0.0,True,776.5,47.0,60.0,40.0,False,,297.59138447442405,[],"[683, 384]",ColorTask,6.0,28.0,,,HRV,HRV_0284,2022-11-30 20:57:37
,wl-rdm,36,173521,0.0-6.28-0.28,0.0,37.0,,,,,,,[],,,,,,53.2,1.0,i,1.0,True,775.8000000119209,47.0,60.0,40.0,False,,270.53268282035594,[],"[683, 384]",ColorTask,7.0,29.0,,,HRV,HRV_0284,2022-11-30 20:57:37
,wl-rdm,37,175955,0.0-6.29-0.29,0.0,38.0,,,,,,,[],,,,,,62.5,0.0,i,1.0,False,996.8000000119209,60.0,60.0,40.0,False,,372.2607363136148,[],"[683, 384]",ColorTask,6.0,30.0,,,HRV,HRV_0284,2022-11-30 20:57:37
,wl-rdm,38,178104,0.0-6.30-0.30,0.0,39.0,,,,,,,[],,,,,,73.6,0.0,u,0.0,True,677.7999999523163,41.0,60.0,40.0,False,,372.0263035442773,[],"[683, 384]",ColorTask,7.0,31.0,,,HRV,HRV_0284,2022-11-30 20:57:37
,wl-rdm,39,180471,0.0-6.31-0.31,0.0,40.0,,,,,,,[],,,,,,73.6,1.0,i,1.0,True,953.1000000238419,58.0,60.0,40.0,False,,323.278604197538,[],"[683, 384]",ColorTask,8.0,32.0,,,HRV,HRV_0284,2022-11-30 20:57:37
,wl-rdm,40,182737,0.0-6.32-0.32,0.0,41.0,,,,,,,[],,,,,,73.6,1.0,i,1.0,True,912.3000000119209,55.0,60.0,40.0,False,,288.17636161512996,[],"[683, 384]",ColorTask,9.0,33.0,,,HRV,HRV_0284,2022-11-30 20:57:37
,wl-rdm,41,184754,0.0-6.33-0.33,0.0,42.0,,,,,,,[],,,,,,50.0,1.0,i,1.0,True,704.3000000119209,43.0,60.0,40.0,False,,217.98245052114794,[],"[683, 384]",ColorTask,10.0,34.0,,,HRV,HRV_0284,2022-11-30 20:57:37
,wl-rdm,42,186654,0.0-6.34-0.34,0.0,43.0,,,,,,,[],,,,,,56.4,0.0,u,0.0,True,524.8000000119209,32.0,60.0,40.0,False,,304.55477634966536,[],"[683, 384]",ColorTask,11.0,35.0,,,HRV,HRV_0284,2022-11-30 20:57:37
,wl-rdm,43,188704,0.0-6.35-0.35,0.0,44.0,,,,,,,[],,,,,,62.5,1.0,u,0.0,False,579.5,35.0,60.0,40.0,False,,387.79171870023276,[],"[683, 384]",ColorTask,10.0,36.0,,,HRV,HRV_0284,2022-11-30 20:57:37
,wl-rdm,44,190703,0.0-6.36-0.36,0.0,45.0,,,,,,,[],,,,,,87.9,0.0,i,1.0,False,554.2999999523163,34.0,60.0,40.0,False,,380.78349204085265,[],"[683, 384]",ColorTask,9.0,37.0,,,HRV,HRV_0284,2022-11-30 20:57:37
,wl-rdm,45,192703,0.0-6.37-0.37,0.0,46.0,,,,,,,[],,,,,,62.5,1.0,i,1.0,True,634.1000000238419,38.0,60.0,40.0,False,,284.3261552010838,[],"[683, 384]",ColorTask,10.0,38.0,,,HRV,HRV_0284,2022-11-30 20:57:37
,wl-rdm,46,194403,0.0-6.38-0.38,0.0,47.0,,,,,,,[],,,,,,56.4,0.0,u,0.0,True,391.9000000357628,24.0,60.0,40.0,False,,223.400082024864,[],"[683, 384]",ColorTask,11.0,39.0,,,HRV,HRV_0284,2022-11-30 20:57:37
,wl-rdm,47,196254,0.0-6.39-0.39,0.0,48.0,,,,,,,[],,,,,,53.2,0.0,u,0.0,True,549.0999999642372,33.0,60.0,40.0,False,,242.86600293504412,[],"[683, 384]",ColorTask,12.0,40.0,,,HRV,HRV_0284,2022-11-30 20:57:37
,wl-rdm,48,198187,0.0-6.40-0.40,0.0,49.0,,,,,,,[],,,,,,56.4,1.0,u,0.0,False,611.1000000238419,37.0,60.0,40.0,False,,254.36647622964563,[],"[683, 384]",ColorTask,11.0,41.0,,,HRV,HRV_0284,2022-11-30 20:57:37
,wl-rdm,49,200170,0.0-6.41-0.41,0.0,50.0,,,,,,,[],,,,,,73.6,0.0,u,0.0,True,683.0999999642372,41.0,60.0,40.0,False,,225.75142162112087,[],"[683, 384]",ColorTask,12.0,42.0,,,HRV,HRV_0284,2022-11-30 20:57:37
,wl-rdm,50,202570,0.0-6.42-0.42,0.0,51.0,,,,,,,[],,,,,,62.5,1.0,i,1.0,True,1017.3999999761581,60.0,60.0,40.0,False,,302.8185934682298,[],"[683, 384]",ColorTask,13.0,43.0,,,HRV,HRV_0284,2022-11-30 20:57:37
,wl-rdm,51,204653,0.0-6.43-0.43,0.0,52.0,,,,,,,[],,,,,,50.0,1.0,u,0.0,False,737.0999999642372,45.0,60.0,40.0,False,,258.0392619926958,[],"[683, 384]",ColorTask,12.0,44.0,,,HRV,HRV_0284,2022-11-30 20:57:37
,wl-rdm,52,206670,0.0-6.44-0.44,0.0,53.0,,,,,,,[],,,,,,73.6,0.0,u,0.0,True,705.0999999642372,43.0,60.0,40.0,False,,234.60180086219742,[],"[683, 384]",ColorTask,13.0,45.0,,,HRV,HRV_0284,2022-11-30 20:57:37
,wl-rdm,53,209053,0.0-6.45-0.45,0.0,54.0,,,,,,,[],,,,,,50.0,0.0,i,1.0,False,1024.699999988079,62.0,60.0,40.0,False,,268.4044157609202,[],"[683, 384]",ColorTask,12.0,46.0,,,HRV,HRV_0284,2022-11-30 20:57:37
,wl-rdm,54,211154,0.0-6.46-0.46,0.0,55.0,,,,,,,[],,,,,,56.4,0.0,u,0.0,True,823.7999999523163,50.0,60.0,40.0,False,,200.00539461278956,[],"[683, 384]",ColorTask,13.0,47.0,,,HRV,HRV_0284,2022-11-30 20:57:37
,wl-rdm,55,213420,0.0-6.47-0.47,0.0,56.0,,,,,,,[],,,,,,73.6,0.0,u,0.0,True,910.2000000476837,55.0,60.0,40.0,False,,283.44424795922816,[],"[683, 384]",ColorTask,14.0,48.0,,,HRV,HRV_0284,2022-11-30 20:57:37
,wl-rdm,56,215620,0.0-6.48-0.48,0.0,57.0,,,,,,,[],,,,,,62.5,0.0,i,1.0,False,897.6000000238419,54.0,60.0,40.0,False,,246.45673468330858,[],"[683, 384]",ColorTask,13.0,49.0,,,HRV,HRV_0284,2022-11-30 20:57:37
,wl-rdm,57,218086,0.0-6.49-0.49,0.0,58.0,,,,,,,[],,,,,,56.4,0.0,u,0.0,True,1002.7999999523163,61.0,60.0,40.0,False,,376.1277942356388,[],"[683, 384]",ColorTask,14.0,50.0,,,HRV,HRV_0284,2022-11-30 20:57:37
,wl-rdm,58,220186,0.0-6.50-0.50,0.0,59.0,,,,,,,[],,,,,,62.5,0.0,u,0.0,True,824.3000000119209,50.0,60.0,40.0,False,,200.81147823779582,[],"[683, 384]",ColorTask,15.0,51.0,,,HRV,HRV_0284,2022-11-30 20:57:37
,wl-rdm,59,222636,0.0-6.51-0.51,0.0,60.0,,,,,,,[],,,,,,50.0,1.0,i,1.0,True,1090.5999999642372,66.0,60.0,40.0,False,,290.44001518603136,[],"[683, 384]",ColorTask,16.0,52.0,,,HRV,HRV_0284,2022-11-30 20:57:37
,wl-rdm,60,224936,0.0-6.52-0.52,0.0,61.0,,,,,,,[],,,,,,53.2,1.0,i,1.0,True,1020.3000000119209,62.0,60.0,40.0,False,,206.24552076038586,[],"[683, 384]",ColorTask,17.0,53.0,,,HRV,HRV_0284,2022-11-30 20:57:37
,wl-rdm,61,227119,0.0-6.53-0.53,0.0,62.0,,,,,,,[],,,,,,53.2,1.0,i,1.0,True,870.3000000119209,53.0,60.0,40.0,False,,221.7224419564527,[],"[683, 384]",ColorTask,18.0,54.0,,,HRV,HRV_0284,2022-11-30 20:57:37
,wl-rdm,62,229303,0.0-6.54-0.54,0.0,63.0,,,,,,,[],,,,,,53.2,0.0,u,0.0,True,856.6999999880791,52.0,60.0,40.0,False,,246.9466961676689,[],"[683, 384]",ColorTask,19.0,55.0,,,HRV,HRV_0284,2022-11-30 20:57:37
,wl-rdm,63,231619,0.0-6.55-0.55,0.0,64.0,,,,,,,[],,,,,,62.5,1.0,i,1.0,True,999.7000000476837,60.0,60.0,40.0,False,,248.07758284928957,[],"[683, 384]",ColorTask,20.0,56.0,,,HRV,HRV_0284,2022-11-30 20:57:37
,wl-rdm,64,234053,0.0-6.56-0.56,0.0,65.0,,,,,,,[],,,,,,50.0,1.0,i,1.0,True,1098.9000000357628,66.0,60.0,40.0,False,,276.9893826473439,[],"[683, 384]",ColorTask,21.0,57.0,,,HRV,HRV_0284,2022-11-30 20:57:37
,wl-rdm,65,236319,0.0-6.57-0.57,0.0,66.0,,,,,,,[],,,,,,50.0,0.0,i,1.0,False,927.7999999523163,56.0,60.0,40.0,False,,264.9256195501836,[],"[683, 384]",ColorTask,20.0,58.0,,,HRV,HRV_0284,2022-11-30 20:57:37
,wl-rdm,66,238386,0.0-6.58-0.58,0.0,67.0,,,,,,,[],,,,,,87.9,1.0,i,1.0,True,769.9000000357628,47.0,60.0,40.0,False,,202.70659414650123,[],"[683, 384]",ColorTask,21.0,59.0,,,HRV,HRV_0284,2022-11-30 20:57:37
,wl-rdm,67,240718,0.0-6.59-0.59,0.0,68.0,,,,,,,[],,,,,,50.0,0.0,i,1.0,False,989.2000000476837,60.0,60.0,40.0,False,,250.8701793451951,[],"[683, 384]",ColorTask,20.0,60.0,,,HRV,HRV_0284,2022-11-30 20:57:37
,wl-rdm,68,242869,0.0-6.60-0.60,0.0,69.0,,,,,,,[],,,,,,56.4,0.0,u,0.0,True,715.8000000119209,43.0,60.0,40.0,False,,367.35306803837216,[],"[683, 384]",ColorTask,21.0,61.0,,,HRV,HRV_0284,2022-11-30 20:57:37
,wl-rdm,69,245035,0.0-6.61-0.61,0.0,70.0,,,,,,,[],,,,,,73.6,1.0,i,1.0,True,850.1000000238419,51.0,60.0,40.0,False,,245.72178009999473,[],"[683, 384]",ColorTask,22.0,62.0,,,HRV,HRV_0284,2022-11-30 20:57:37
,wl-rdm,70,246935,0.0-6.62-0.62,0.0,71.0,,,,,,,[],,,,,,73.6,0.0,u,0.0,True,558.8000000119209,34.0,60.0,40.0,False,,260.11974248229666,[],"[683, 384]",ColorTask,23.0,63.0,,,HRV,HRV_0284,2022-11-30 20:57:37
,wl-rdm,71,248935,0.0-6.63-0.63,0.0,72.0,,,,,,,[],,,,,,62.5,0.0,u,0.0,True,622.5999999642372,38.0,60.0,40.0,False,,288.971154962797,[],"[683, 384]",ColorTask,24.0,64.0,,,HRV,HRV_0284,2022-11-30 20:57:37
,wl-rdm,72,250852,0.0-6.64-0.64,0.0,73.0,,,,,,,[],,,,,,73.6,1.0,i,1.0,True,476.69999998807907,29.0,60.0,40.0,False,,357.0990703921585,[],"[683, 384]",ColorTask,25.0,65.0,,,HRV,HRV_0284,2022-11-30 20:57:37
,wl-rdm,73,252852,0.0-6.65-0.65,0.0,74.0,,,,,,,[],,,,,,73.6,0.0,u,0.0,True,578.6999999284744,35.0,60.0,40.0,False,,339.98662175473044,[],"[683, 384]",ColorTask,26.0,66.0,,,HRV,HRV_0284,2022-11-30 20:57:37
,wl-rdm,74,254585,0.0-6.66-0.66,0.0,75.0,,,,,,,[],,,,,,87.9,1.0,i,1.0,True,372.2999999523163,23.0,60.0,40.0,False,,282.7006974931743,[],"[683, 384]",ColorTask,27.0,67.0,,,HRV,HRV_0284,2022-11-30 20:57:37
,wl-rdm,75,256218,0.0-6.67-0.67,0.0,76.0,,,,,,,[],,,,,,62.5,1.0,u,0.0,False,336.5999999642372,21.0,60.0,40.0,False,,218.5713076355608,[],"[683, 384]",ColorTask,26.0,68.0,,,HRV,HRV_0284,2022-11-30 20:57:37
,wl-rdm,76,257968,0.0-6.68-0.68,0.0,77.0,,,,,,,[],,,,,,50.0,0.0,u,0.0,True,321.4000000357628,20.0,60.0,40.0,False,,342.89784747395083,[],"[683, 384]",ColorTask,27.0,69.0,,,HRV,HRV_0284,2022-11-30 20:57:37
,wl-rdm,77,259785,0.0-6.69-0.69,0.0,78.0,,,,,,,[],,,,,,62.5,0.0,i,1.0,False,407.69999998807907,25.0,60.0,40.0,False,,331.3301514643902,[],"[683, 384]",ColorTask,26.0,70.0,,,HRV,HRV_0284,2022-11-30 20:57:37
,wl-rdm,78,261852,0.0-6.70-0.70,0.0,79.0,,,,,,,[],,,,,,73.6,1.0,i,1.0,True,764.6999999880791,46.0,60.0,40.0,False,,247.72183067068755,[],"[683, 384]",ColorTask,27.0,71.0,,,HRV,HRV_0284,2022-11-30 20:57:37
,wl-rdm,79,263852,0.0-6.71-0.71,0.0,80.0,,,,,,,[],,,,,,53.2,0.0,u,0.0,True,608.8000000119209,37.0,60.0,40.0,False,,303.7417909399192,[],"[683, 384]",ColorTask,28.0,72.0,,,HRV,HRV_0284,2022-11-30 20:57:37
,wl-rdm,80,266168,0.0-6.72-0.72,0.0,81.0,,,,,,,[],,,,,,56.4,0.0,i,1.0,False,919.4000000357628,56.0,60.0,40.0,False,,328.4969591857008,[],"[683, 384]",ColorTask,27.0,73.0,,,HRV,HRV_0284,2022-11-30 20:57:37
,wl-rdm,81,268052,0.0-6.73-0.73,0.0,82.0,,,,,,,[],,,,,,87.9,1.0,i,1.0,True,483.50000005960464,29.0,60.0,40.0,False,,329.26508293579633,[],"[683, 384]",ColorTask,28.0,74.0,,,HRV,HRV_0284,2022-11-30 20:57:37
,wl-rdm,82,270035,0.0-6.74-0.74,0.0,83.0,,,,,,,[],,,,,,62.5,1.0,u,0.0,False,622.3000000119209,38.0,60.0,40.0,False,,288.76429608010847,[],"[683, 384]",ColorTask,27.0,75.0,,,HRV,HRV_0284,2022-11-30 20:57:37
,wl-rdm,83,272268,0.0-6.75-0.75,0.0,84.0,,,,,,,[],,,,,,56.4,1.0,u,0.0,False,924.3000000119209,56.0,60.0,40.0,False,,218.58856518500664,[],"[683, 384]",ColorTask,26.0,76.0,,,HRV,HRV_0284,2022-11-30 20:57:37
,wl-rdm,84,274284,0.0-6.76-0.76,0.0,85.0,,,,,,,[],,,,,,62.5,0.0,u,0.0,True,733.2000000476837,44.0,60.0,40.0,False,,221.62660551171194,[],"[683, 384]",ColorTask,27.0,77.0,,,HRV,HRV_0284,2022-11-30 20:57:37
,wl-rdm,85,276502,0.0-6.77-0.77,0.0,86.0,,,,,,,[],,,,,,87.9,1.0,i,1.0,True,804.8999999761581,49.0,60.0,40.0,False,,322.84595125678686,[],"[683, 384]",ColorTask,28.0,78.0,,,HRV,HRV_0284,2022-11-30 20:57:37
,wl-rdm,86,278502,0.0-6.78-0.78,0.0,87.0,,,,,,,[],,,,,,73.6,1.0,i,1.0,True,697.0,42.0,60.0,40.0,False,,228.45491444512336,[],"[683, 384]",ColorTask,29.0,79.0,,,HRV,HRV_0284,2022-11-30 20:57:37
,wl-rdm,87,280535,0.0-6.79-0.79,0.0,88.0,,,,,,,[],,,,,,87.9,1.0,i,1.0,True,638.3999999761581,39.0,60.0,40.0,False,,325.32171049822983,[],"[683, 384]",ColorTask,30.0,80.0,,,HRV,HRV_0284,2022-11-30 20:57:37
,wl-rdm,88,282701,0.0-6.80-0.80,0.0,89.0,,,,,,,[],,,,,,56.4,1.0,i,1.0,True,725.1999999880791,44.0,60.0,40.0,False,,355.7791290943172,[],"[683, 384]",ColorTask,31.0,81.0,,,HRV,HRV_0284,2022-11-30 20:57:37
,wl-rdm,89,284534,0.0-6.81-0.81,0.0,90.0,,,,,,,[],,,,,,87.9,0.0,u,0.0,True,472.69999998807907,29.0,60.0,40.0,False,,269.95652188797055,[],"[683, 384]",ColorTask,32.0,82.0,,,HRV,HRV_0284,2022-11-30 20:57:37
,wl-rdm,90,286401,0.0-6.82-0.82,0.0,91.0,,,,,,,[],,,,,,50.0,0.0,u,0.0,True,521.7000000476837,32.0,60.0,40.0,False,,252.25334053797758,[],"[683, 384]",ColorTask,33.0,83.0,,,HRV,HRV_0284,2022-11-30 20:57:37
,wl-rdm,91,288468,0.0-6.83-0.83,0.0,92.0,,,,,,,[],,,,,,62.5,0.0,u,0.0,True,612.8000000119209,37.0,60.0,40.0,False,,375.37643234240113,[],"[683, 384]",ColorTask,34.0,84.0,,,HRV,HRV_0284,2022-11-30 20:57:37
,wl-rdm,92,290618,0.0-6.84-0.84,0.0,93.0,,,,,,,[],,,,,,56.4,1.0,i,1.0,True,769.7000000476837,47.0,60.0,40.0,False,,294.7224425601927,[],"[683, 384]",ColorTask,35.0,85.0,,,HRV,HRV_0284,2022-11-30 20:57:37
,wl-rdm,93,292718,0.0-6.85-0.85,0.0,94.0,,,,,,,[],,,,,,62.5,1.0,i,1.0,True,690.4000000357628,42.0,60.0,40.0,False,,338.24542333672946,[],"[683, 384]",ColorTask,36.0,86.0,,,HRV,HRV_0284,2022-11-30 20:57:37
,wl-rdm,94,295018,0.0-6.86-0.86,0.0,95.0,,,,,,,[],,,,,,53.2,0.0,i,1.0,False,936.2999999523163,57.0,60.0,40.0,False,,288.40277989449703,[],"[683, 384]",ColorTask,35.0,87.0,,,HRV,HRV_0284,2022-11-30 20:57:37
,wl-rdm,95,297184,0.0-6.87-0.87,0.0,96.0,,,,,,,[],,,,,,53.2,0.0,u,0.0,True,794.8000000119209,48.0,60.0,40.0,False,,306.07374954454576,[],"[683, 384]",ColorTask,36.0,88.0,,,HRV,HRV_0284,2022-11-30 20:57:37
,wl-rdm,96,299067,0.0-6.88-0.88,0.0,97.0,,,,,,,[],,,,,,56.4,0.0,u,0.0,True,544.4000000357628,33.0,60.0,40.0,False,,278.7744794866768,[],"[683, 384]",ColorTask,37.0,89.0,,,HRV,HRV_0284,2022-11-30 20:57:37
,wl-rdm,97,300834,0.0-6.89-0.89,0.0,98.0,,,,,,,[],,,,,,56.4,1.0,u,0.0,False,429.30000001192093,26.0,60.0,40.0,False,,281.78689883705226,[],"[683, 384]",ColorTask,36.0,90.0,,,HRV,HRV_0284,2022-11-30 20:57:37
,wl-rdm,98,302867,0.0-6.90-0.90,0.0,99.0,,,,,,,[],,,,,,50.0,0.0,i,1.0,False,667.9000000357628,40.0,60.0,40.0,False,,298.8101534006198,[],"[683, 384]",ColorTask,35.0,91.0,,,HRV,HRV_0284,2022-11-30 20:57:37
,wl-rdm,99,305034,0.0-6.91-0.91,0.0,100.0,,,,,,,[],,,,,,50.0,1.0,u,0.0,False,889.3000000119209,54.0,60.0,40.0,False,,207.82298508070414,[],"[683, 384]",ColorTask,34.0,92.0,,,HRV,HRV_0284,2022-11-30 20:57:37
,wl-rdm,100,307083,0.0-6.92-0.92,0.0,101.0,,,,,,,[],,,,,,62.5,1.0,u,0.0,False,752.6000000238419,46.0,60.0,40.0,False,,213.97952782984527,[],"[683, 384]",ColorTask,33.0,93.0,,,HRV,HRV_0284,2022-11-30 20:57:37
,wl-rdm,101,309217,0.0-6.93-0.93,0.0,102.0,,,,,,,[],,,,,,53.2,0.0,u,0.0,True,776.6000000238419,47.0,60.0,40.0,False,,292.6255180664655,[],"[683, 384]",ColorTask,34.0,94.0,,,HRV,HRV_0284,2022-11-30 20:57:37
,wl-rdm,102,311100,0.0-6.94-0.94,0.0,103.0,,,,,,,[],,,,,,87.9,1.0,i,1.0,True,556.6000000238419,34.0,60.0,40.0,False,,239.27989668754563,[],"[683, 384]",ColorTask,35.0,95.0,,,HRV,HRV_0284,2022-11-30 20:57:37
,wl-rdm,103,313000,0.0-6.95-0.95,0.0,104.0,,,,,,,[],,,,,,87.9,0.0,u,0.0,True,569.1000000238419,35.0,60.0,40.0,False,,241.55121192959888,[],"[683, 384]",ColorTask,36.0,96.0,,,HRV,HRV_0284,2022-11-30 20:57:37
,wl-rdm,104,315017,0.0-6.96-0.96,0.0,105.0,,,,,,,[],,,,,,87.9,0.0,u,0.0,True,714.7000000476837,43.0,60.0,40.0,False,,248.1072727386787,[],"[683, 384]",ColorTask,37.0,97.0,,,HRV,HRV_0284,2022-11-30 20:57:37
,wl-rdm,105,317266,0.0-6.97-0.97,0.0,106.0,,,,,,,[],,,,,,53.2,0.0,u,0.0,True,786.3000000119209,48.0,60.0,40.0,False,,375.19605123259277,[],"[683, 384]",ColorTask,38.0,98.0,,,HRV,HRV_0284,2022-11-30 20:57:37
,wl-rdm,106,319299,0.0-6.98-0.98,0.0,107.0,,,,,,,[],,,,,,73.6,1.0,i,1.0,True,611.6999999284744,37.0,60.0,40.0,False,,343.72033385489385,[],"[683, 384]",ColorTask,39.0,99.0,,,HRV,HRV_0284,2022-11-30 20:57:37
,wl-rdm,107,321334,0.0-6.99-0.99,0.0,108.0,,,,,,,[],,,,,,50.0,1.0,u,0.0,False,589.4000000357628,36.0,60.0,40.0,False,,366.70835853820506,[],"[683, 384]",ColorTask,38.0,100.0,,,HRV,HRV_0284,2022-11-30 20:57:37
,wl-rdm,108,323316,0.0-6.100-0.100,0.0,109.0,,,,,,,[],,,,,,50.0,1.0,i,1.0,True,634.6999999880791,38.0,60.0,40.0,False,,282.17079955784595,[],"[683, 384]",ColorTask,39.0,101.0,,,HRV,HRV_0284,2022-11-30 20:57:37
,wl-rdm,109,325432,0.0-6.101-0.101,0.0,110.0,,,,,,,[],,,,,,53.2,1.0,i,1.0,True,650.9000000357628,39.0,60.0,40.0,False,,395.527008251674,[],"[683, 384]",ColorTask,40.0,102.0,,,HRV,HRV_0284,2022-11-30 20:57:37
,wl-rdm,110,327399,0.0-6.102-0.102,0.0,111.0,,,,,,,[],,,,,,56.4,1.0,u,0.0,False,492.9000000357628,30.0,60.0,40.0,False,,381.15183143525445,[],"[683, 384]",ColorTask,39.0,103.0,,,HRV,HRV_0284,2022-11-30 20:57:37
,wl-rdm,111,329282,0.0-6.103-0.103,0.0,112.0,,,,,,,[],,,,,,87.9,0.0,u,0.0,True,480.89999997615814,29.0,60.0,40.0,False,,319.1434238166825,[],"[683, 384]",ColorTask,40.0,104.0,,,HRV,HRV_0284,2022-11-30 20:57:37
,wl-rdm,112,331349,0.0-6.104-0.104,0.0,113.0,,,,,,,[],,,,,,50.0,0.0,i,1.0,False,659.0,40.0,60.0,40.0,False,,330.4722162460508,[],"[683, 384]",ColorTask,39.0,105.0,,,HRV,HRV_0284,2022-11-30 20:57:37
,wl-rdm,113,333399,0.0-6.105-0.105,0.0,114.0,,,,,,,[],,,,,,62.5,1.0,u,0.0,False,755.7999999523163,46.0,60.0,40.0,False,,201.9402067487531,[],"[683, 384]",ColorTask,38.0,106.0,,,HRV,HRV_0284,2022-11-30 20:57:37
,wl-rdm,114,335465,0.0-6.106-0.106,0.0,115.0,,,,,,,[],,,,,,53.2,1.0,i,1.0,True,782.0,47.0,60.0,40.0,False,,207.0134184741765,[],"[683, 384]",ColorTask,39.0,107.0,,,HRV,HRV_0284,2022-11-30 20:57:37
,wl-rdm,115,337549,0.0-6.107-0.107,0.0,116.0,,,,,,,[],,,,,,87.9,1.0,i,1.0,True,608.8000000715256,37.0,60.0,40.0,False,,393.4101825924073,[],"[683, 384]",ColorTask,40.0,108.0,,,HRV,HRV_0284,2022-11-30 20:57:37
,wl-html-keyboard-response,116,346127,0.0-7.0-0.0,1.0,117.0,,,,,,,,6568.699999988079,1.0,0,,,,,,,,,,,,,,,,,,,,,,HRV,HRV_0284,2022-11-30 20:57:37
,wl-rdm,117,348631,0.0-8.0-0.0,1.0,118.0,,,,,,,[],,,,,,53.2,0.0,i,1.0,False,1140.5999999642372,69.0,60.0,40.0,False,,294.5843233107157,[],"[683, 384]",ColorTask,39.0,1.0,,,HRV,HRV_0284,2022-11-30 20:57:37
,wl-rdm,118,350831,0.0-8.1-0.1,1.0,119.0,,,,,,,[],,,,,,53.2,1.0,i,1.0,True,897.6999999284744,54.0,60.0,40.0,False,,227.12284141823315,[],"[683, 384]",ColorTask,40.0,2.0,,,HRV,HRV_0284,2022-11-30 20:57:37
,wl-rdm,119,352964,0.0-8.2-0.2,1.0,120.0,,,,,,,[],,,,,,53.2,0.0,u,0.0,True,721.3000000715256,44.0,60.0,40.0,False,,322.9023913009214,[],"[683, 384]",ColorTask,41.0,3.0,,,HRV,HRV_0284,2022-11-30 20:57:37
,wl-rdm,120,355464,0.0-8.3-0.3,1.0,121.0,,,,,,,[],,,,,,62.5,1.0,u,0.0,False,1185.4000000357628,72.0,60.0,40.0,False,,222.78218296393374,[],"[683, 384]",ColorTask,40.0,4.0,,,HRV,HRV_0284,2022-11-30 20:57:37
,wl-rdm,121,357664,0.0-8.4-0.4,1.0,122.0,,,,,,,[],,,,,,87.9,1.0,i,1.0,True,770.1000000238419,47.0,60.0,40.0,False,,343.3836650309844,[],"[683, 384]",ColorTask,41.0,5.0,,,HRV,HRV_0284,2022-11-30 20:57:37
,wl-rdm,122,359898,0.0-8.5-0.5,1.0,123.0,,,,,,,[],,,,,,50.0,1.0,u,0.0,False,897.1999999880791,54.0,60.0,40.0,False,,269.1985027455272,[],"[683, 384]",ColorTask,40.0,6.0,,,HRV,HRV_0284,2022-11-30 20:57:37
,wl-rdm,123,362031,0.0-8.6-0.6,1.0,124.0,,,,,,,[],,,,,,62.5,0.0,u,0.0,True,737.3000000119209,45.0,60.0,40.0,False,,315.53421401731055,[],"[683, 384]",ColorTask,41.0,7.0,,,HRV,HRV_0284,2022-11-30 20:57:37
,wl-rdm,124,364147,0.0-8.7-0.7,1.0,125.0,,,,,,,[],,,,,,56.4,0.0,u,0.0,True,826.3999999761581,50.0,60.0,40.0,False,,215.70953417355548,[],"[683, 384]",ColorTask,42.0,8.0,,,HRV,HRV_0284,2022-11-30 20:57:37
,wl-rdm,125,366580,0.0-8.8-0.8,1.0,126.0,,,,,,,[],,,,,,50.0,0.0,i,1.0,False,969.0,58.0,60.0,40.0,False,,386.30503872034967,[],"[683, 384]",ColorTask,41.0,9.0,,,HRV,HRV_0284,2022-11-30 20:57:37
,wl-rdm,126,368630,0.0-8.9-0.9,1.0,127.0,,,,,,,[],,,,,,73.6,1.0,i,1.0,True,725.1000000238419,44.0,60.0,40.0,False,,225.12391491018124,[],"[683, 384]",ColorTask,42.0,10.0,,,HRV,HRV_0284,2022-11-30 20:57:37
,wl-rdm,127,370580,0.0-8.10-0.10,1.0,128.0,,,,,,,[],,,,,,50.0,0.0,u,0.0,True,639.6999999880791,39.0,60.0,40.0,False,,249.10981258117795,[],"[683, 384]",ColorTask,43.0,11.0,,,HRV,HRV_0284,2022-11-30 20:57:37
,wl-rdm,128,372497,0.0-8.11-0.11,1.0,129.0,,,,,,,[],,,,,,87.9,0.0,u,0.0,True,514.9999999403954,31.0,60.0,40.0,False,,338.2246554496259,[],"[683, 384]",ColorTask,44.0,12.0,,,HRV,HRV_0284,2022-11-30 20:57:37
,wl-rdm,129,374347,0.0-8.12-0.12,1.0,130.0,,,,,,,[],,,,,,50.0,1.0,u,0.0,False,509.7000000476837,31.0,60.0,40.0,False,,252.7344980144162,[],"[683, 384]",ColorTask,43.0,13.0,,,HRV,HRV_0284,2022-11-30 20:57:37
,wl-rdm,130,376197,0.0-8.13-0.13,1.0,131.0,,,,,,,[],,,,,,62.5,0.0,u,0.0,True,498.0,30.0,60.0,40.0,False,,283.0841703352833,[],"[683, 384]",ColorTask,44.0,14.0,,,HRV,HRV_0284,2022-11-30 20:57:37
,wl-rdm,131,378213,0.0-8.14-0.14,1.0,132.0,,,,,,,[],,,,,,50.0,1.0,u,0.0,False,689.7000000476837,42.0,60.0,40.0,False,,247.9776054188955,[],"[683, 384]",ColorTask,43.0,15.0,,,HRV,HRV_0284,2022-11-30 20:57:37
,wl-rdm,132,380230,0.0-8.15-0.15,1.0,133.0,,,,,,,[],,,,,,87.9,1.0,i,1.0,True,725.0,44.0,60.0,40.0,False,,222.72512434845365,[],"[683, 384]",ColorTask,44.0,16.0,,,HRV,HRV_0284,2022-11-30 20:57:37
,wl-rdm,133,382263,0.0-8.16-0.16,1.0,134.0,,,,,,,[],,,,,,87.9,1.0,i,1.0,True,686.6000000238419,42.0,60.0,40.0,False,,254.74856370666362,[],"[683, 384]",ColorTask,45.0,17.0,,,HRV,HRV_0284,2022-11-30 20:57:37
,wl-rdm,134,384462,0.0-8.17-0.17,1.0,135.0,,,,,,,[],,,,,,53.2,0.0,u,0.0,True,760.9999999403954,46.0,60.0,40.0,False,,356.79022668097355,[],"[683, 384]",ColorTask,46.0,18.0,,,HRV,HRV_0284,2022-11-30 20:57:37
,wl-rdm,135,386696,0.0-8.18-0.18,1.0,136.0,,,,,,,[],,,,,,56.4,1.0,i,1.0,True,774.5,47.0,60.0,40.0,False,,371.8695946483484,[],"[683, 384]",ColorTask,47.0,19.0,,,HRV,HRV_0284,2022-11-30 20:57:37
,wl-rdm,136,388813,0.0-8.19-0.19,1.0,137.0,,,,,,,[],,,,,,73.6,1.0,i,1.0,True,770.8000000119209,47.0,60.0,40.0,False,,260.1733801458132,[],"[683, 384]",ColorTask,48.0,20.0,,,HRV,HRV_0284,2022-11-30 20:57:37
,wl-rdm,137,390979,0.0-8.20-0.20,1.0,138.0,,,,,,,[],,,,,,62.5,1.0,i,1.0,True,748.4000000357628,45.0,60.0,40.0,False,,337.5638276244964,[],"[683, 384]",ColorTask,49.0,21.0,,,HRV,HRV_0284,2022-11-30 20:57:37
,wl-rdm,138,393712,0.0-8.21-0.21,1.0,139.0,,,,,,,[],,,,,,73.6,1.0,i,1.0,True,1391.300000011921,84.0,60.0,40.0,False,,255.49138569659198,[],"[683, 384]",ColorTask,50.0,22.0,,,HRV,HRV_0284,2022-11-30 20:57:37
,wl-rdm,139,395812,0.0-8.22-0.22,1.0,140.0,,,,,,,[],,,,,,50.0,1.0,u,0.0,False,740.3000000119209,45.0,60.0,40.0,False,,267.2843046410946,[],"[683, 384]",ColorTask,49.0,23.0,,,HRV,HRV_0284,2022-11-30 20:57:37
,wl-rdm,140,397962,0.0-8.23-0.23,1.0,141.0,,,,,,,[],,,,,,56.4,0.0,u,0.0,True,673.9000000357628,41.0,60.0,40.0,False,,385.9210657896622,[],"[683, 384]",ColorTask,50.0,24.0,,,HRV,HRV_0284,2022-11-30 20:57:37
,wl-rdm,141,400112,0.0-8.24-0.24,1.0,142.0,,,,,,,[],,,,,,73.6,0.0,u,0.0,True,698.6999999880791,42.0,60.0,40.0,False,,390.3978978199606,[],"[683, 384]",ColorTask,51.0,25.0,,,HRV,HRV_0284,2022-11-30 20:57:37
,wl-rdm,142,402095,0.0-8.25-0.25,1.0,143.0,,,,,,,[],,,,,,56.4,1.0,u,0.0,False,537.1999999880791,33.0,60.0,40.0,False,,355.0886398306201,[],"[683, 384]",ColorTask,50.0,26.0,,,HRV,HRV_0284,2022-11-30 20:57:37
,wl-rdm,143,404312,0.0-8.26-0.26,1.0,144.0,,,,,,,[],,,,,,62.5,1.0,i,1.0,True,895.6000000238419,54.0,60.0,40.0,False,,238.82938495691707,[],"[683, 384]",ColorTask,51.0,27.0,,,HRV,HRV_0284,2022-11-30 20:57:37
,wl-rdm,144,406462,0.0-8.27-0.27,1.0,145.0,,,,,,,[],,,,,,53.2,1.0,u,0.0,False,771.0999999642372,47.0,60.0,40.0,False,,284.1809116028204,[],"[683, 384]",ColorTask,50.0,28.0,,,HRV,HRV_0284,2022-11-30 20:57:37
,wl-rdm,145,408845,0.0-8.28-0.28,1.0,146.0,,,,,,,[],,,,,,56.4,0.0,i,1.0,False,956.3999999761581,58.0,60.0,40.0,False,,336.1350183066693,[],"[683, 384]",ColorTask,49.0,29.0,,,HRV,HRV_0284,2022-11-30 20:57:37
,wl-rdm,146,411045,0.0-8.29-0.29,1.0,147.0,,,,,,,[],,,,,,73.6,0.0,u,0.0,True,840.0999999642372,51.0,60.0,40.0,False,,271.51326351166347,[],"[683, 384]",ColorTask,50.0,30.0,,,HRV,HRV_0284,2022-11-30 20:57:37
,wl-rdm,147,413012,0.0-8.30-0.30,1.0,148.0,,,,,,,[],,,,,,87.9,1.0,i,1.0,True,661.5,40.0,60.0,40.0,False,,227.54374360409994,[],"[683, 384]",ColorTask,51.0,31.0,,,HRV,HRV_0284,2022-11-30 20:57:37
,wl-rdm,148,414962,0.0-8.31-0.31,1.0,149.0,,,,,,,[],,,,,,62.5,1.0,i,1.0,True,592.6999999880791,36.0,60.0,40.0,False,,285.2382284480765,[],"[683, 384]",ColorTask,52.0,32.0,,,HRV,HRV_0284,2022-11-30 20:57:37
,wl-rdm,149,416778,0.0-8.32-0.32,1.0,150.0,,,,,,,[],,,,,,87.9,0.0,u,0.0,True,512.6000000238419,31.0,60.0,40.0,False,,223.42505019455265,[],"[683, 384]",ColorTask,53.0,33.0,,,HRV,HRV_0284,2022-11-30 20:57:37
,wl-rdm,150,418928,0.0-8.33-0.33,1.0,151.0,,,,,,,[],,,,,,50.0,0.0,u,0.0,True,852.3000000119209,52.0,60.0,40.0,False,,203.30258497854706,[],"[683, 384]",ColorTask,54.0,34.0,,,HRV,HRV_0284,2022-11-30 20:57:37
,wl-rdm,151,420878,0.0-8.34-0.34,1.0,152.0,,,,,,,[],,,,,,87.9,0.0,u,0.0,True,604.5999999642372,37.0,60.0,40.0,False,,281.93131216299986,[],"[683, 384]",ColorTask,55.0,35.0,,,HRV,HRV_0284,2022-11-30 20:57:37
,wl-rdm,152,423028,0.0-8.35-0.35,1.0,153.0,,,,,,,[],,,,,,73.6,1.0,i,1.0,True,690.1999999880791,42.0,60.0,40.0,False,,390.94769924431563,[],"[683, 384]",ColorTask,56.0,36.0,,,HRV,HRV_0284,2022-11-30 20:57:37
,wl-rdm,153,425345,0.0-8.36-0.36,1.0,154.0,,,,,,,[],,,,,,53.2,1.0,i,1.0,True,853.8000000119209,52.0,60.0,40.0,False,,374.6330539686984,[],"[683, 384]",ColorTask,57.0,37.0,,,HRV,HRV_0284,2022-11-30 20:57:37
,wl-rdm,154,427612,0.0-8.37-0.37,1.0,155.0,,,,,,,[],,,,,,50.0,1.0,u,0.0,False,962.0999999642372,58.0,60.0,40.0,False,,218.0176604599529,[],"[683, 384]",ColorTask,56.0,38.0,,,HRV,HRV_0284,2022-11-30 20:57:37
,wl-rdm,155,429728,0.0-8.38-0.38,1.0,156.0,,,,,,,[],,,,,,50.0,0.0,u,0.0,True,725.7999999523163,44.0,60.0,40.0,False,,306.4585056447909,[],"[683, 384]",ColorTask,57.0,39.0,,,HRV,HRV_0284,2022-11-30 20:57:37
,wl-rdm,156,431611,0.0-8.39-0.39,1.0,157.0,,,,,,,[],,,,,,73.6,0.0,u,0.0,True,469.80000001192093,29.0,60.0,40.0,False,,343.18600825133353,[],"[683, 384]",ColorTask,58.0,40.0,,,HRV,HRV_0284,2022-11-30 20:57:37
,wl-rdm,157,433411,0.0-8.40-0.40,1.0,158.0,,,,,,,[],,,,,,50.0,0.0,u,0.0,True,505.39999997615814,31.0,60.0,40.0,False,,215.10940107237636,[],"[683, 384]",ColorTask,59.0,41.0,,,HRV,HRV_0284,2022-11-30 20:57:37
,wl-rdm,158,435311,0.0-8.41-0.41,1.0,159.0,,,,,,,[],,,,,,56.4,0.0,u,0.0,True,551.0,33.0,60.0,40.0,False,,278.79843790351504,[],"[683, 384]",ColorTask,60.0,42.0,,,HRV,HRV_0284,2022-11-30 20:57:37
,wl-rdm,159,437328,0.0-8.42-0.42,1.0,160.0,,,,,,,[],,,,,,62.5,1.0,u,0.0,False,647.0,39.0,60.0,40.0,False,,297.64161384717204,[],"[683, 384]",ColorTask,59.0,43.0,,,HRV,HRV_0284,2022-11-30 20:57:37
,wl-rdm,160,439444,0.0-8.43-0.43,1.0,161.0,,,,,,,[],,,,,,62.5,0.0,u,0.0,True,719.9000000357628,44.0,60.0,40.0,False,,324.53340692604667,[],"[683, 384]",ColorTask,60.0,44.0,,,HRV,HRV_0284,2022-11-30 20:57:37
,wl-rdm,161,441361,0.0-8.44-0.44,1.0,162.0,,,,,,,[],,,,,,53.2,1.0,u,0.0,False,592.7000000476837,36.0,60.0,40.0,False,,245.22887698078455,[],"[683, 384]",ColorTask,59.0,45.0,,,HRV,HRV_0284,2022-11-30 20:57:37
,wl-rdm,162,443244,0.0-8.45-0.45,1.0,163.0,,,,,,,[],,,,,,50.0,0.0,u,0.0,True,580.4999999403954,35.0,60.0,40.0,False,,218.78384657641527,[],"[683, 384]",ColorTask,60.0,46.0,,,HRV,HRV_0284,2022-11-30 20:57:37
,wl-rdm,163,445262,0.0-8.46-0.46,1.0,164.0,,,,,,,[],,,,,,56.4,0.0,u,0.0,True,720.4000000357628,44.0,60.0,40.0,False,,207.31469607150632,[],"[683, 384]",ColorTask,61.0,47.0,,,HRV,HRV_0284,2022-11-30 20:57:37
,wl-rdm,164,447261,0.0-8.47-0.47,1.0,165.0,,,,,,,[],,,,,,62.5,0.0,u,0.0,True,609.5,37.0,60.0,40.0,False,,311.8087968347355,[],"[683, 384]",ColorTask,62.0,48.0,,,HRV,HRV_0284,2022-11-30 20:57:37
,wl-rdm,165,449294,0.0-8.48-0.48,1.0,166.0,,,,,,,[],,,,,,50.0,1.0,u,0.0,False,653.3999999761581,40.0,60.0,40.0,False,,294.7468686883257,[],"[683, 384]",ColorTask,61.0,49.0,,,HRV,HRV_0284,2022-11-30 20:57:37
,wl-rdm,166,451511,0.0-8.49-0.49,1.0,167.0,,,,,,,[],,,,,,56.4,0.0,u,0.0,True,759.2999999523163,46.0,60.0,40.0,False,,382.10163687941906,[],"[683, 384]",ColorTask,62.0,50.0,,,HRV,HRV_0284,2022-11-30 20:57:37
,wl-rdm,167,453394,0.0-8.50-0.50,1.0,168.0,,,,,,,[],,,,,,87.9,0.0,u,0.0,True,565.5,34.0,60.0,40.0,False,,234.59248661249794,[],"[683, 384]",ColorTask,63.0,51.0,,,HRV,HRV_0284,2022-11-30 20:57:37
,wl-rdm,168,455194,0.0-8.51-0.51,1.0,169.0,,,,,,,[],,,,,,87.9,1.0,i,1.0,True,508.0,31.0,60.0,40.0,False,,225.02573312303468,[],"[683, 384]",ColorTask,64.0,52.0,,,HRV,HRV_0284,2022-11-30 20:57:37
,wl-rdm,169,457027,0.0-8.52-0.52,1.0,170.0,,,,,,,[],,,,,,73.6,1.0,i,1.0,True,439.19999998807907,27.0,60.0,40.0,False,,329.80164123812375,[],"[683, 384]",ColorTask,65.0,53.0,,,HRV,HRV_0284,2022-11-30 20:57:37
,wl-rdm,170,459244,0.0-8.53-0.53,1.0,171.0,,,,,,,[],,,,,,53.2,1.0,i,1.0,True,780.9000000357628,47.0,60.0,40.0,False,,381.6162726230108,[],"[683, 384]",ColorTask,66.0,54.0,,,HRV,HRV_0284,2022-11-30 20:57:37
,wl-rdm,171,461310,0.0-8.54-0.54,1.0,172.0,,,,,,,[],,,,,,62.5,1.0,i,1.0,True,770.0000000596046,47.0,60.0,40.0,False,,207.0956372190953,[],"[683, 384]",ColorTask,67.0,55.0,,,HRV,HRV_0284,2022-11-30 20:57:37
,wl-rdm,172,463310,0.0-8.55-0.55,1.0,173.0,,,,,,,[],,,,,,62.5,1.0,i,1.0,True,681.2999999523163,41.0,60.0,40.0,False,,245.55193906663868,[],"[683, 384]",ColorTask,68.0,56.0,,,HRV,HRV_0284,2022-11-30 20:57:37
,wl-rdm,173,465560,0.0-8.56-0.56,1.0,174.0,,,,,,,[],,,,,,56.4,0.0,i,1.0,False,936.9000000357628,57.0,60.0,40.0,False,,225.23983873024585,[],"[683, 384]",ColorTask,67.0,57.0,,,HRV,HRV_0284,2022-11-30 20:57:37
,wl-rdm,174,467744,0.0-8.57-0.57,1.0,175.0,,,,,,,[],,,,,,56.4,1.0,i,1.0,True,721.9000000357628,44.0,60.0,40.0,False,,388.1950466608971,[],"[683, 384]",ColorTask,68.0,58.0,,,HRV,HRV_0284,2022-11-30 20:57:37
,wl-rdm,175,469927,0.0-8.58-0.58,1.0,176.0,,,,,,,[],,,,,,53.2,1.0,i,1.0,True,798.5999999642372,48.0,60.0,40.0,False,,322.97083138789696,[],"[683, 384]",ColorTask,69.0,59.0,,,HRV,HRV_0284,2022-11-30 20:57:37
,wl-rdm,176,471777,0.0-8.59-0.59,1.0,177.0,,,,,,,[],,,,,,62.5,0.0,u,0.0,True,471.69999998807907,29.0,60.0,40.0,False,,302.8744547330208,[],"[683, 384]",ColorTask,70.0,60.0,,,HRV,HRV_0284,2022-11-30 20:57:37
,wl-rdm,177,473760,0.0-8.60-0.60,1.0,178.0,,,,,,,[],,,,,,50.0,1.0,u,0.0,False,679.1999999880791,41.0,60.0,40.0,False,,219.89921030643302,[],"[683, 384]",ColorTask,69.0,61.0,,,HRV,HRV_0284,2022-11-30 20:57:37
,wl-rdm,178,475577,0.0-8.61-0.61,1.0,179.0,,,,,,,[],,,,,,56.4,1.0,i,1.0,True,481.7000000476837,29.0,60.0,40.0,False,,255.73705850823342,[],"[683, 384]",ColorTask,70.0,62.0,,,HRV,HRV_0284,2022-11-30 20:57:37
,wl-rdm,179,477710,0.0-8.62-0.62,1.0,180.0,,,,,,,[],,,,,,62.5,1.0,u,0.0,False,811.0000000596046,49.0,60.0,40.0,False,,242.56477512488362,[],"[683, 384]",ColorTask,69.0,63.0,,,HRV,HRV_0284,2022-11-30 20:57:37
,wl-rdm,180,479660,0.0-8.63-0.63,1.0,181.0,,,,,,,[],,,,,,62.5,1.0,i,1.0,True,536.5999999642372,33.0,60.0,40.0,False,,325.0390041758345,[],"[683, 384]",ColorTask,70.0,64.0,,,HRV,HRV_0284,2022-11-30 20:57:37
,wl-rdm,181,481693,0.0-8.64-0.64,1.0,182.0,,,,,,,[],,,,,,53.2,0.0,u,0.0,True,555.7999999523163,34.0,60.0,40.0,False,,390.26745409487637,[],"[683, 384]",ColorTask,71.0,65.0,,,HRV,HRV_0284,2022-11-30 20:57:37
,wl-rdm,182,483476,0.0-8.65-0.65,1.0,183.0,,,,,,,[],,,,,,73.6,0.0,u,0.0,True,491.9000000357628,30.0,60.0,40.0,False,,216.2986339643268,[],"[683, 384]",ColorTask,72.0,66.0,,,HRV,HRV_0284,2022-11-30 20:57:37
,wl-rdm,183,485409,0.0-8.66-0.66,1.0,184.0,,,,,,,[],,,,,,56.4,1.0,u,0.0,False,455.30000001192093,28.0,60.0,40.0,False,,397.28431430442487,[],"[683, 384]",ColorTask,71.0,67.0,,,HRV,HRV_0284,2022-11-30 20:57:37
,wl-rdm,184,487543,0.0-8.67-0.67,1.0,185.0,,,,,,,[],,,,,,53.2,0.0,i,1.0,False,792.3999999761581,48.0,60.0,40.0,False,,254.943523191296,[],"[683, 384]",ColorTask,70.0,68.0,,,HRV,HRV_0284,2022-11-30 20:57:37
,wl-rdm,185,489593,0.0-8.68-0.68,1.0,186.0,,,,,,,[],,,,,,87.9,1.0,i,1.0,True,610.5999999642372,37.0,60.0,40.0,False,,359.36267298753194,[],"[683, 384]",ColorTask,71.0,69.0,,,HRV,HRV_0284,2022-11-30 20:57:37
,wl-rdm,186,491559,0.0-8.69-0.69,1.0,187.0,,,,,,,[],,,,,,87.9,0.0,u,0.0,True,532.3000000119209,32.0,60.0,40.0,False,,355.4833760757881,[],"[683, 384]",ColorTask,72.0,70.0,,,HRV,HRV_0284,2022-11-30 20:57:37
,wl-rdm,187,493459,0.0-8.70-0.70,1.0,188.0,,,,,,,[],,,,,,50.0,0.0,u,0.0,True,590.7000000476837,36.0,60.0,40.0,False,,227.2645978599057,[],"[683, 384]",ColorTask,73.0,71.0,,,HRV,HRV_0284,2022-11-30 20:57:37
,wl-rdm,188,495476,0.0-8.71-0.71,1.0,189.0,,,,,,,[],,,,,,73.6,1.0,u,0.0,False,605.5,37.0,60.0,40.0,False,,341.9018143804685,[],"[683, 384]",ColorTask,72.0,72.0,,,HRV,HRV_0284,2022-11-30 20:57:37
,wl-rdm,189,497492,0.0-8.72-0.72,1.0,190.0,,,,,,,[],,,,,,87.9,0.0,u,0.0,True,716.8000000119209,43.0,60.0,40.0,False,,224.77728356333486,[],"[683, 384]",ColorTask,73.0,73.0,,,HRV,HRV_0284,2022-11-30 20:57:37
,wl-rdm,190,499626,0.0-8.73-0.73,1.0,191.0,,,,,,,[],,,,,,73.6,1.0,i,1.0,True,740.6000000238419,45.0,60.0,40.0,False,,302.5500891493109,[],"[683, 384]",ColorTask,74.0,74.0,,,HRV,HRV_0284,2022-11-30 20:57:37
,wl-rdm,191,501726,0.0-8.74-0.74,1.0,192.0,,,,,,,[],,,,,,53.2,1.0,i,1.0,True,680.6000000238419,41.0,60.0,40.0,False,,337.73099365319376,[],"[683, 384]",ColorTask,75.0,75.0,,,HRV,HRV_0284,2022-11-30 20:57:37
,wl-rdm,192,503875,0.0-8.75-0.75,1.0,193.0,,,,,,,[],,,,,,56.4,1.0,i,1.0,True,739.5,45.0,60.0,40.0,False,,332.72695681246046,[],"[683, 384]",ColorTask,76.0,76.0,,,HRV,HRV_0284,2022-11-30 20:57:37
,wl-rdm,193,505875,0.0-8.76-0.76,1.0,194.0,,,,,,,[],,,,,,50.0,1.0,i,1.0,True,654.6999999880791,40.0,60.0,40.0,False,,272.24464081221754,[],"[683, 384]",ColorTask,77.0,77.0,,,HRV,HRV_0284,2022-11-30 20:57:37
,wl-rdm,194,507909,0.0-8.77-0.77,1.0,195.0,,,,,,,[],,,,,,53.2,1.0,i,1.0,True,729.6999999880791,44.0,60.0,40.0,False,,223.95192022955868,[],"[683, 384]",ColorTask,78.0,78.0,,,HRV,HRV_0284,2022-11-30 20:57:37
,wl-rdm,195,510209,0.0-8.78-0.78,1.0,196.0,,,,,,,[],,,,,,56.4,0.0,u,0.0,True,853.6000000238419,52.0,60.0,40.0,False,,361.38811946317094,[],"[683, 384]",ColorTask,79.0,79.0,,,HRV,HRV_0284,2022-11-30 20:57:37
,wl-rdm,196,512275,0.0-8.79-0.79,1.0,197.0,,,,,,,[],,,,,,73.6,0.0,u,0.0,True,786.9999999403954,48.0,60.0,40.0,False,,213.4405503299246,[],"[683, 384]",ColorTask,80.0,80.0,,,HRV,HRV_0284,2022-11-30 20:57:37
,wl-rdm,197,514075,0.0-8.80-0.80,1.0,198.0,,,,,,,[],,,,,,56.4,1.0,u,0.0,False,522.6000000238419,32.0,60.0,40.0,False,,214.63508330522896,[],"[683, 384]",ColorTask,79.0,81.0,,,HRV,HRV_0284,2022-11-30 20:57:37
,wl-rdm,198,516092,0.0-8.81-0.81,1.0,199.0,,,,,,,[],,,,,,73.6,0.0,u,0.0,True,703.4000000357628,43.0,60.0,40.0,False,,228.10261192870692,[],"[683, 384]",ColorTask,80.0,82.0,,,HRV,HRV_0284,2022-11-30 20:57:37
,wl-rdm,199,518325,0.0-8.82-0.82,1.0,200.0,,,,,,,[],,,,,,50.0,1.0,i,1.0,True,903.5,55.0,60.0,40.0,False,,243.64926757489926,[],"[683, 384]",ColorTask,81.0,83.0,,,HRV,HRV_0284,2022-11-30 20:57:37
,wl-rdm,200,520591,0.0-8.83-0.83,1.0,201.0,,,,,,,[],,,,,,62.5,0.0,u,0.0,True,876.0999999642372,53.0,60.0,40.0,False,,313.9473597035817,[],"[683, 384]",ColorTask,82.0,84.0,,,HRV,HRV_0284,2022-11-30 20:57:37
,wl-rdm,201,522758,0.0-8.84-0.84,1.0,202.0,,,,,,,[],,,,,,53.2,0.0,i,1.0,False,825.0,50.0,60.0,40.0,False,,263.1158958425037,[],"[683, 384]",ColorTask,81.0,85.0,,,HRV,HRV_0284,2022-11-30 20:57:37
,wl-rdm,202,524691,0.0-8.85-0.85,1.0,203.0,,,,,,,[],,,,,,73.6,0.0,u,0.0,True,628.8000000119209,38.0,60.0,40.0,False,,241.71717278496197,[],"[683, 384]",ColorTask,82.0,86.0,,,HRV,HRV_0284,2022-11-30 20:57:37
,wl-rdm,203,526908,0.0-8.86-0.86,1.0,204.0,,,,,,,[],,,,,,56.4,0.0,i,1.0,False,856.1000000238419,52.0,60.0,40.0,False,,298.01913720362637,[],"[683, 384]",ColorTask,81.0,87.0,,,HRV,HRV_0284,2022-11-30 20:57:37
,wl-rdm,204,528891,0.0-8.87-0.87,1.0,205.0,,,,,,,[],,,,,,87.9,0.0,u,0.0,True,563.8999999165535,34.0,60.0,40.0,False,,341.33853856475037,[],"[683, 384]",ColorTask,82.0,88.0,,,HRV,HRV_0284,2022-11-30 20:57:37
,wl-rdm,205,530708,0.0-8.88-0.88,1.0,206.0,,,,,,,[],,,,,,53.2,0.0,u,0.0,True,502.4000000357628,31.0,60.0,40.0,False,,207.54410894519677,[],"[683, 384]",ColorTask,83.0,89.0,,,HRV,HRV_0284,2022-11-30 20:57:37
,wl-rdm,206,532925,0.0-8.89-0.89,1.0,207.0,,,,,,,[],,,,,,62.5,0.0,u,0.0,True,821.0999999642372,50.0,60.0,40.0,False,,312.5150162768566,[],"[683, 384]",ColorTask,84.0,90.0,,,HRV,HRV_0284,2022-11-30 20:57:37
,wl-rdm,207,534891,0.0-8.90-0.90,1.0,208.0,,,,,,,[],,,,,,87.9,1.0,i,1.0,True,627.0,38.0,60.0,40.0,False,,269.9444499564527,[],"[683, 384]",ColorTask,85.0,91.0,,,HRV,HRV_0284,2022-11-30 20:57:37
,wl-rdm,208,537008,0.0-8.91-0.91,1.0,209.0,,,,,,,[],,,,,,73.6,1.0,i,1.0,True,731.3000000119209,44.0,60.0,40.0,False,,313.8173410021484,[],"[683, 384]",ColorTask,86.0,92.0,,,HRV,HRV_0284,2022-11-30 20:57:37
,wl-rdm,209,538974,0.0-8.92-0.92,1.0,210.0,,,,,,,[],,,,,,87.9,0.0,u,0.0,True,507.5,31.0,60.0,40.0,False,,373.477251246079,[],"[683, 384]",ColorTask,87.0,93.0,,,HRV,HRV_0284,2022-11-30 20:57:37
,wl-rdm,210,541024,0.0-8.93-0.93,1.0,211.0,,,,,,,[],,,,,,53.2,1.0,u,0.0,False,713.5999999642372,43.0,60.0,40.0,False,,261.98694470797216,[],"[683, 384]",ColorTask,86.0,94.0,,,HRV,HRV_0284,2022-11-30 20:57:37
,wl-rdm,211,542907,0.0-8.94-0.94,1.0,212.0,,,,,,,[],,,,,,73.6,0.0,u,0.0,True,554.0,34.0,60.0,40.0,False,,246.36188812161714,[],"[683, 384]",ColorTask,87.0,95.0,,,HRV,HRV_0284,2022-11-30 20:57:37
,wl-rdm,212,544890,0.0-8.95-0.95,1.0,213.0,,,,,,,[],,,,,,87.9,1.0,i,1.0,True,646.1999999880791,39.0,60.0,40.0,False,,272.203895853986,[],"[683, 384]",ColorTask,88.0,96.0,,,HRV,HRV_0284,2022-11-30 20:57:37
,wl-rdm,213,546840,0.0-8.96-0.96,1.0,214.0,,,,,,,[],,,,,,87.9,0.0,u,0.0,True,663.4999999403954,40.0,60.0,40.0,False,,213.6418301134869,[],"[683, 384]",ColorTask,89.0,97.0,,,HRV,HRV_0284,2022-11-30 20:57:37
,wl-rdm,214,548774,0.0-8.97-0.97,1.0,215.0,,,,,,,[],,,,,,62.5,0.0,u,0.0,True,660.4000000357628,40.0,60.0,40.0,False,,212.77237509180677,[],"[683, 384]",ColorTask,90.0,98.0,,,HRV,HRV_0284,2022-11-30 20:57:37
,wl-rdm,215,551090,0.0-8.98-0.98,1.0,216.0,,,,,,,[],,,,,,56.4,1.0,u,0.0,False,867.9000000357628,52.0,60.0,40.0,False,,371.45710856386006,[],"[683, 384]",ColorTask,89.0,99.0,,,HRV,HRV_0284,2022-11-30 20:57:37
,wl-rdm,216,553473,0.0-8.99-0.99,1.0,217.0,,,,,,,[],,,,,,56.4,1.0,i,1.0,True,923.7000000476837,56.0,60.0,40.0,False,,380.4261164105367,[],"[683, 384]",ColorTask,90.0,100.0,,,HRV,HRV_0284,2022-11-30 20:57:37
,wl-rdm,217,555640,0.0-8.100-0.100,1.0,218.0,,,,,,,[],,,,,,87.9,1.0,i,1.0,True,776.5,47.0,60.0,40.0,False,,313.7969098015243,[],"[683, 384]",ColorTask,91.0,101.0,,,HRV,HRV_0284,2022-11-30 20:57:37
,wl-rdm,218,557774,0.0-8.101-0.101,1.0,219.0,,,,,,,[],,,,,,62.5,0.0,u,0.0,True,747.5999999642372,45.0,60.0,40.0,False,,309.11346481794874,[],"[683, 384]",ColorTask,92.0,102.0,,,HRV,HRV_0284,2022-11-30 20:57:37
,wl-rdm,219,559790,0.0-8.102-0.102,1.0,220.0,,,,,,,[],,,,,,53.2,0.0,u,0.0,True,703.6999999880791,43.0,60.0,40.0,False,,222.41626787516398,[],"[683, 384]",ColorTask,93.0,103.0,,,HRV,HRV_0284,2022-11-30 20:57:37
,wl-rdm,220,561707,0.0-8.103-0.103,1.0,221.0,,,,,,,[],,,,,,73.6,0.0,u,0.0,True,602.6999999880791,37.0,60.0,40.0,False,,219.2057491191435,[],"[683, 384]",ColorTask,94.0,104.0,,,HRV,HRV_0284,2022-11-30 20:57:37
,wl-rdm,221,563640,0.0-8.104-0.104,1.0,222.0,,,,,,,[],,,,,,50.0,0.0,i,1.0,False,608.8000000119209,37.0,60.0,40.0,False,,233.8312596223987,[],"[683, 384]",ColorTask,93.0,105.0,,,HRV,HRV_0284,2022-11-30 20:57:37
,wl-rdm,222,565806,0.0-8.105-0.105,1.0,223.0,,,,,,,[],,,,,,53.2,0.0,u,0.0,True,760.3000000119209,46.0,60.0,40.0,False,,325.33097816249517,[],"[683, 384]",ColorTask,94.0,106.0,,,HRV,HRV_0284,2022-11-30 20:57:37
,wl-rdm,223,567873,0.0-8.106-0.106,1.0,224.0,,,,,,,[],,,,,,50.0,0.0,i,1.0,False,700.3999999761581,42.0,60.0,40.0,False,,293.6504215561266,[],"[683, 384]",ColorTask,93.0,107.0,,,HRV,HRV_0284,2022-11-30 20:57:37
,wl-rdm,224,570040,0.0-8.107-0.107,1.0,225.0,,,,,,,[],,,,,,73.6,1.0,i,1.0,True,876.8000000119209,53.0,60.0,40.0,False,,200.75568313579802,[],"[683, 384]",ColorTask,94.0,108.0,,,HRV,HRV_0284,2022-11-30 20:57:37
,wl-html-button-response,225,574161,0.0-9.0-0.0,,,,,,,,,,4115.5,,0,,,,,,,,,,,,,,,,,,,,<h3>End of this session. Thank you!</h3><br>,['Close window'],HRV,HRV_0284,2022-11-30 20:57:37
