trialN,stimuli,trialStartTime,trialStartTime_UNIX,stimulus1,stimulus2,stimulus1Bid,stimulus2Bid,delta,selected,rt,rt_UNIX,rt_perfnow,receivedResponse,rsp,trialEndTime,trialDuration,trialEndTime_UNIX,trialDuration_UNIX,exp,subjectId,date
0,"[{'imgObject': {}, 'id': 'raspberries', 'src': '/static/foodstim60/raspberries.jpg', 'key': 'u', 'origWidth': 411, 'origHeight': 411, 'width': 411, 'height': 411, 'widthPercent': 0.45, 'rescaleHeight': False, 'trialN': 0, 'loaded': True, 'loadedTime': 2127.5999999046326, 'positionName': 'LEFT', 'positionCoords': [572.04, 370.5], 'bid': 4.68}, {'imgObject': {}, 'id': 'turkey sandwich', 'src': '/static/foodstim60/turkey sandwich.jpg', 'key': 'i', 'origWidth': 409, 'origHeight': 409, 'width': 409, 'height': 409, 'widthPercent': 0.45, 'rescaleHeight': False, 'trialN': 0, 'loaded': True, 'loadedTime': 2134.2000000476837, 'positionName': 'RIGHT', 'positionCoords': [1064.96, 371.5], 'bid': 5.93}]",2459.899999856949,1669832588831,raspberries,turkey sandwich,4.68,5.93,1.25,turkey sandwich,1018.5,1019,1018.7000000476837,True,i,3984.2000000476837,1524.3000001907349,1669832590355,1524,HRV,HRV_0165,2022-11-30 18:28:55
1,"[{'imgObject': {}, 'id': 'raspberries', 'src': '/static/foodstim60/raspberries.jpg', 'key': 'u', 'origWidth': 411, 'origHeight': 411, 'width': 411, 'height': 411, 'widthPercent': 0.45, 'rescaleHeight': False, 'trialN': 1, 'loaded': True, 'loadedTime': 2127.0999999046326, 'positionName': 'LEFT', 'positionCoords': [572.04, 370.5], 'bid': 4.68}, {'imgObject': {}, 'id': 'strawberries', 'src': '/static/foodstim60/strawberries.jpg', 'key': 'i', 'origWidth': 410, 'origHeight': 410, 'width': 410, 'height': 410, 'widthPercent': 0.45, 'rescaleHeight': False, 'trialN': 1, 'loaded': True, 'loadedTime': 2167.899999856949, 'positionName': 'RIGHT', 'positionCoords': [1064.96, 371], 'bid': 5.23}]",3984.2999999523163,1669832590356,raspberries,strawberries,4.68,5.23,0.5500000000000007,strawberries,1949.9000000953674,1950,1950.2000000476837,True,i,6440.200000047684,2455.9000000953674,1669832592811,2455,HRV,HRV_0165,2022-11-30 18:28:55
2,"[{'imgObject': {}, 'id': 'turkeysandwich', 'src': '/static/foodstim60/turkeysandwich.jpg', 'key': 'u', 'origWidth': 409, 'origHeight': 409, 'width': 409, 'height': 409, 'widthPercent': 0.45, 'rescaleHeight': False, 'trialN': 2, 'loaded': True, 'loadedTime': 2181, 'positionName': 'LEFT', 'positionCoords': [574.04, 371.5], 'bid': 5.32}, {'imgObject': {}, 'id': 'orange slices', 'src': '/static/foodstim60/orange slices.jpg', 'key': 'i', 'origWidth': 409, 'origHeight': 410, 'width': 409, 'height': 410, 'widthPercent': 0.45, 'rescaleHeight': False, 'trialN': 2, 'loaded': True, 'loadedTime': 2195.2000000476837, 'positionName': 'RIGHT', 'positionCoords': [1064.96, 371], 'bid': 1.36}]",6440.299999952316,1669832592812,turkeysandwich,orange slices,5.32,1.36,-3.96,turkeysandwich,854.0,854,854.2000000476837,True,u,7800.0,1359.7000000476837,1669832594171,1359,HRV,HRV_0165,2022-11-30 18:28:55
3,"[{'imgObject': {}, 'id': 'froot loops w milk', 'src': '/static/foodstim60/froot loops w milk.jpg', 'key': 'u', 'origWidth': 410, 'origHeight': 410, 'width': 410, 'height': 410, 'widthPercent': 0.45, 'rescaleHeight': False, 'trialN': 3, 'loaded': True, 'loadedTime': 2199.7999999523163, 'positionName': 'LEFT', 'positionCoords': [573.04, 371], 'bid': 2.69}, {'imgObject': {}, 'id': 'corn cob', 'src': '/static/foodstim60/corn cob.jpg', 'key': 'i', 'origWidth': 411, 'origHeight': 411, 'width': 411, 'height': 411, 'widthPercent': 0.45, 'rescaleHeight': False, 'trialN': 3, 'loaded': True, 'loadedTime': 2143.7000000476837, 'positionName': 'RIGHT', 'positionCoords': [1064.96, 370.5], 'bid': 2.64}]",7800.0,1669832594171,froot loops w milk,corn cob,2.69,2.64,-0.04999999999999982,corn cob,934.2000000476837,935,934.3999998569489,True,i,9240.299999952316,1440.2999999523163,1669832595612,1441,HRV,HRV_0165,2022-11-30 18:28:55
4,"[{'imgObject': {}, 'id': 'strawberries', 'src': '/static/foodstim60/strawberries.jpg', 'key': 'u', 'origWidth': 410, 'origHeight': 410, 'width': 410, 'height': 410, 'widthPercent': 0.45, 'rescaleHeight': False, 'trialN': 4, 'loaded': True, 'loadedTime': 2163.0999999046326, 'positionName': 'LEFT', 'positionCoords': [573.04, 371], 'bid': 5.23}, {'imgObject': {}, 'id': 'hotdog w must', 'src': '/static/foodstim60/hotdog w must.jpg', 'key': 'i', 'origWidth': 409, 'origHeight': 409, 'width': 409, 'height': 409, 'widthPercent': 0.45, 'rescaleHeight': False, 'trialN': 4, 'loaded': True, 'loadedTime': 2172.5, 'positionName': 'RIGHT', 'positionCoords': [1064.96, 371.5], 'bid': 6.22}]",9240.399999856949,1669832595612,strawberries,hotdog w must,5.23,6.22,0.9899999999999993,hotdog w must,1045.8000001907349,1046,1046.1000001430511,True,i,10791.399999856949,1551.0,1669832597163,1551,HRV,HRV_0165,2022-11-30 18:28:55
5,"[{'imgObject': {}, 'id': 'mango', 'src': '/static/foodstim60/mango.jpg', 'key': 'u', 'origWidth': 411, 'origHeight': 411, 'width': 411, 'height': 411, 'widthPercent': 0.45, 'rescaleHeight': False, 'trialN': 5, 'loaded': True, 'loadedTime': 2191.2999999523163, 'positionName': 'LEFT', 'positionCoords': [572.04, 370.5], 'bid': 5.3500000000000005}, {'imgObject': {}, 'id': 'rigatoni and sauce', 'src': '/static/foodstim60/rigatoni and sauce.jpg', 'key': 'i', 'origWidth': 410, 'origHeight': 411, 'width': 410, 'height': 411, 'widthPercent': 0.45, 'rescaleHeight': False, 'trialN': 5, 'loaded': True, 'loadedTime': 2208.5999999046326, 'positionName': 'RIGHT', 'positionCoords': [1064.96, 370.5], 'bid': 5.33}]",10791.5,1669832597163,mango,rigatoni and sauce,5.3500000000000005,5.33,-0.020000000000000462,rigatoni and sauce,2366.7999999523163,2367,2367.0,True,i,13663.899999856949,2872.399999856949,1669832600035,2872,HRV,HRV_0165,2022-11-30 18:28:55
6,"[{'imgObject': {}, 'id': 'strawberries', 'src': '/static/foodstim60/strawberries.jpg', 'key': 'u', 'origWidth': 410, 'origHeight': 410, 'width': 410, 'height': 410, 'widthPercent': 0.45, 'rescaleHeight': False, 'trialN': 6, 'loaded': True, 'loadedTime': 2157.899999856949, 'positionName': 'LEFT', 'positionCoords': [573.04, 371], 'bid': 5.23}, {'imgObject': {}, 'id': 'grilled chicken strips', 'src': '/static/foodstim60/grilled chicken strips.jpg', 'key': 'i', 'origWidth': 410, 'origHeight': 411, 'width': 410, 'height': 411, 'widthPercent': 0.45, 'rescaleHeight': False, 'trialN': 6, 'loaded': True, 'loadedTime': 2217.5999999046326, 'positionName': 'RIGHT', 'positionCoords': [1064.96, 370.5], 'bid': 4.23}]",13664.0,1669832600035,strawberries,grilled chicken strips,5.23,4.23,-1.0,strawberries,1390.3999998569489,1391,1390.5999999046326,True,u,15559.899999856949,1895.8999998569489,1669832601931,1896,HRV,HRV_0165,2022-11-30 18:28:55
7,"[{'imgObject': {}, 'id': 'avocado', 'src': '/static/foodstim60/avocado.jpg', 'key': 'u', 'origWidth': 409, 'origHeight': 409, 'width': 409, 'height': 409, 'widthPercent': 0.45, 'rescaleHeight': False, 'trialN': 7, 'loaded': True, 'loadedTime': 2223.5999999046326, 'positionName': 'LEFT', 'positionCoords': [574.04, 371.5], 'bid': 4.3}, {'imgObject': {}, 'id': 'olives', 'src': '/static/foodstim60/olives.jpg', 'key': 'i', 'origWidth': 410, 'origHeight': 410, 'width': 410, 'height': 410, 'widthPercent': 0.45, 'rescaleHeight': False, 'trialN': 7, 'loaded': True, 'loadedTime': 2229.2000000476837, 'positionName': 'RIGHT', 'positionCoords': [1064.96, 371], 'bid': 0.35}]",15560.0,1669832601931,avocado,olives,4.3,0.35,-3.9499999999999997,avocado,1254.2999999523163,1255,1254.5,True,u,17320.299999952316,1760.2999999523163,1669832603691,1760,HRV,HRV_0165,2022-11-30 18:28:55
8,"[{'imgObject': {}, 'id': 'kiwi', 'src': '/static/foodstim60/kiwi.jpg', 'key': 'u', 'origWidth': 410, 'origHeight': 410, 'width': 410, 'height': 410, 'widthPercent': 0.45, 'rescaleHeight': False, 'trialN': 8, 'loaded': True, 'loadedTime': 2243.7000000476837, 'positionName': 'LEFT', 'positionCoords': [573.04, 371], 'bid': 5.55}, {'imgObject': {}, 'id': 'turkeysandwich', 'src': '/static/foodstim60/turkeysandwich.jpg', 'key': 'i', 'origWidth': 409, 'origHeight': 409, 'width': 409, 'height': 409, 'widthPercent': 0.45, 'rescaleHeight': False, 'trialN': 8, 'loaded': True, 'loadedTime': 2177.5999999046326, 'positionName': 'RIGHT', 'positionCoords': [1064.96, 371.5], 'bid': 5.32}]",17320.39999985695,1669832603692,kiwi,turkeysandwich,5.55,5.32,-0.22999999999999954,turkeysandwich,1302.1000001430511,1302,1302.2000000476837,True,i,19128.099999904633,1807.7000000476837,1669832605499,1807,HRV,HRV_0165,2022-11-30 18:28:55
9,"[{'imgObject': {}, 'id': 'avocado', 'src': '/static/foodstim60/avocado.jpg', 'key': 'u', 'origWidth': 409, 'origHeight': 409, 'width': 409, 'height': 409, 'widthPercent': 0.45, 'rescaleHeight': False, 'trialN': 9, 'loaded': True, 'loadedTime': 2228.399999856949, 'positionName': 'LEFT', 'positionCoords': [574.04, 371.5], 'bid': 4.3}, {'imgObject': {}, 'id': 'steak', 'src': '/static/foodstim60/steak.jpg', 'key': 'i', 'origWidth': 410, 'origHeight': 410, 'width': 410, 'height': 410, 'widthPercent': 0.45, 'rescaleHeight': False, 'trialN': 9, 'loaded': True, 'loadedTime': 2250.899999856949, 'positionName': 'RIGHT', 'positionCoords': [1064.96, 371], 'bid': 5.63}]",19128.099999904633,1669832605499,avocado,steak,4.3,5.63,1.33,steak,1510.2000000476837,1511,1510.2999999523163,True,i,21143.299999952316,2015.2000000476837,1669832607515,2016,HRV,HRV_0165,2022-11-30 18:28:55
10,"[{'imgObject': {}, 'id': 'blueberries', 'src': '/static/foodstim60/blueberries.jpg', 'key': 'u', 'origWidth': 411, 'origHeight': 411, 'width': 411, 'height': 411, 'widthPercent': 0.45, 'rescaleHeight': False, 'trialN': 10, 'loaded': True, 'loadedTime': 2256.7999999523163, 'positionName': 'LEFT', 'positionCoords': [572.04, 370.5], 'bid': 5.62}, {'imgObject': {}, 'id': 'cheerios', 'src': '/static/foodstim60/cheerios.jpg', 'key': 'i', 'origWidth': 409, 'origHeight': 410, 'width': 409, 'height': 410, 'widthPercent': 0.45, 'rescaleHeight': False, 'trialN': 10, 'loaded': True, 'loadedTime': 2261.5, 'positionName': 'RIGHT', 'positionCoords': [1064.96, 371], 'bid': 4.29}]",21143.39999985695,1669832607515,blueberries,cheerios,5.62,4.29,-1.33,blueberries,1223.0,1223,1223.2000000476837,True,u,22872.099999904633,1728.7000000476837,1669832609243,1728,HRV,HRV_0165,2022-11-30 18:28:55
11,"[{'imgObject': {}, 'id': 'corn cob', 'src': '/static/foodstim60/corn cob.jpg', 'key': 'u', 'origWidth': 411, 'origHeight': 411, 'width': 411, 'height': 411, 'widthPercent': 0.45, 'rescaleHeight': False, 'trialN': 11, 'loaded': True, 'loadedTime': 2152.0999999046326, 'positionName': 'LEFT', 'positionCoords': [572.04, 370.5], 'bid': 2.64}, {'imgObject': {}, 'id': 'seaweed', 'src': '/static/foodstim60/seaweed.jpg', 'key': 'i', 'origWidth': 410, 'origHeight': 410, 'width': 410, 'height': 410, 'widthPercent': 0.45, 'rescaleHeight': False, 'trialN': 11, 'loaded': True, 'loadedTime': 2272, 'positionName': 'RIGHT', 'positionCoords': [1064.96, 371], 'bid': 0.39}]",22872.200000047684,1669832609243,corn cob,seaweed,2.64,0.39,-2.25,corn cob,774.1999998092651,775,774.3999998569489,True,u,24152.700000047684,1280.5,1669832610524,1281,HRV,HRV_0165,2022-11-30 18:28:55
12,"[{'imgObject': {}, 'id': 'hotdog w must', 'src': '/static/foodstim60/hotdog w must.jpg', 'key': 'u', 'origWidth': 409, 'origHeight': 409, 'width': 409, 'height': 409, 'widthPercent': 0.45, 'rescaleHeight': False, 'trialN': 12, 'loaded': True, 'loadedTime': 2172.2000000476837, 'positionName': 'LEFT', 'positionCoords': [574.04, 371.5], 'bid': 6.22}, {'imgObject': {}, 'id': 'salmon', 'src': '/static/foodstim60/salmon.jpg', 'key': 'i', 'origWidth': 410, 'origHeight': 409, 'width': 410, 'height': 409, 'widthPercent': 0.45, 'rescaleHeight': False, 'trialN': 12, 'loaded': True, 'loadedTime': 2280.2000000476837, 'positionName': 'RIGHT', 'positionCoords': [1064.96, 371.5], 'bid': 3.12}]",24152.700000047684,1669832610524,hotdog w must,salmon,6.22,3.12,-3.0999999999999996,hotdog w must,837.5999999046326,838,837.7999999523163,True,u,25496.099999904633,1343.3999998569489,1669832611868,1344,HRV,HRV_0165,2022-11-30 18:28:55
13,"[{'imgObject': {}, 'id': 'seaweed', 'src': '/static/foodstim60/seaweed.jpg', 'key': 'u', 'origWidth': 410, 'origHeight': 410, 'width': 410, 'height': 410, 'widthPercent': 0.45, 'rescaleHeight': False, 'trialN': 13, 'loaded': True, 'loadedTime': 2272.5, 'positionName': 'LEFT', 'positionCoords': [573.04, 371], 'bid': 0.39}, {'imgObject': {}, 'id': 'sweetpotato', 'src': '/static/foodstim60/sweetpotato.jpg', 'key': 'i', 'origWidth': 410, 'origHeight': 410, 'width': 410, 'height': 410, 'widthPercent': 0.45, 'rescaleHeight': False, 'trialN': 13, 'loaded': True, 'loadedTime': 2296.5, 'positionName': 'RIGHT', 'positionCoords': [1064.96, 371], 'bid': 1.59}]",25496.099999904633,1669832611868,seaweed,sweetpotato,0.39,1.59,1.2000000000000002,sweetpotato,734.2999999523163,734,734.4000000953674,True,i,26735.89999985695,1239.7999999523163,1669832613107,1239,HRV,HRV_0165,2022-11-30 18:28:55
14,"[{'imgObject': {}, 'id': 'hotdog w must', 'src': '/static/foodstim60/hotdog w must.jpg', 'key': 'u', 'origWidth': 409, 'origHeight': 409, 'width': 409, 'height': 409, 'widthPercent': 0.45, 'rescaleHeight': False, 'trialN': 14, 'loaded': True, 'loadedTime': 2172.399999856949, 'positionName': 'LEFT', 'positionCoords': [574.04, 371.5], 'bid': 6.22}, {'imgObject': {}, 'id': 'tacos', 'src': '/static/foodstim60/tacos.jpg', 'key': 'i', 'origWidth': 411, 'origHeight': 411, 'width': 411, 'height': 411, 'widthPercent': 0.45, 'rescaleHeight': False, 'trialN': 14, 'loaded': True, 'loadedTime': 2308.5999999046326, 'positionName': 'RIGHT', 'positionCoords': [1064.96, 370.5], 'bid': 6.22}]",26736.0,1669832613107,hotdog w must,tacos,6.22,6.22,0.0,hotdog w must,1102.2000000476837,1103,1102.3999998569489,True,u,28343.799999952316,1607.7999999523163,1669832614715,1608,HRV,HRV_0165,2022-11-30 18:28:55
15,"[{'imgObject': {}, 'id': 'rigatoni', 'src': '/static/foodstim60/rigatoni.jpg', 'key': 'u', 'origWidth': 411, 'origHeight': 411, 'width': 411, 'height': 411, 'widthPercent': 0.45, 'rescaleHeight': False, 'trialN': 15, 'loaded': True, 'loadedTime': 2308.899999856949, 'positionName': 'LEFT', 'positionCoords': [572.04, 370.5], 'bid': 2.72}, {'imgObject': {}, 'id': 'bagel and cc', 'src': '/static/foodstim60/bagel and cc.jpg', 'key': 'i', 'origWidth': 410, 'origHeight': 410, 'width': 410, 'height': 410, 'widthPercent': 0.45, 'rescaleHeight': False, 'trialN': 15, 'loaded': True, 'loadedTime': 2314.2999999523163, 'positionName': 'RIGHT', 'positionCoords': [1064.96, 371], 'bid': 5.61}]",28343.799999952316,1669832614715,rigatoni,bagel and cc,2.72,5.61,2.89,bagel and cc,1102.5,1103,1102.7000000476837,True,i,29951.799999952316,1608.0,1669832616323,1608,HRV,HRV_0165,2022-11-30 18:28:55
16,"[{'imgObject': {}, 'id': 'veggieswithdip', 'src': '/static/foodstim60/veggieswithdip.jpg', 'key': 'u', 'origWidth': 409, 'origHeight': 409, 'width': 409, 'height': 409, 'widthPercent': 0.45, 'rescaleHeight': False, 'trialN': 16, 'loaded': True, 'loadedTime': 2324.899999856949, 'positionName': 'LEFT', 'positionCoords': [574.04, 371.5], 'bid': 1.09}, {'imgObject': {}, 'id': 'blackbeanswithrice', 'src': '/static/foodstim60/blackbeanswithrice.jpg', 'key': 'i', 'origWidth': 410, 'origHeight': 410, 'width': 410, 'height': 410, 'widthPercent': 0.45, 'rescaleHeight': False, 'trialN': 16, 'loaded': True, 'loadedTime': 2330.5, 'positionName': 'RIGHT', 'positionCoords': [1064.96, 371], 'bid': 1.32}]",29952.0,1669832616323,veggieswithdip,blackbeanswithrice,1.09,1.32,0.22999999999999998,blackbeanswithrice,846.2999999523163,847,846.5,True,i,31303.599999904633,1351.5999999046326,1669832617675,1352,HRV,HRV_0165,2022-11-30 18:28:55
17,"[{'imgObject': {}, 'id': 'bagel plain', 'src': '/static/foodstim60/bagel plain.jpg', 'key': 'u', 'origWidth': 410, 'origHeight': 410, 'width': 410, 'height': 410, 'widthPercent': 0.45, 'rescaleHeight': False, 'trialN': 17, 'loaded': True, 'loadedTime': 2336.2999999523163, 'positionName': 'LEFT', 'positionCoords': [573.04, 371], 'bid': 2.9}, {'imgObject': {}, 'id': 'turkey sandwich', 'src': '/static/foodstim60/turkey sandwich.jpg', 'key': 'i', 'origWidth': 409, 'origHeight': 409, 'width': 409, 'height': 409, 'widthPercent': 0.45, 'rescaleHeight': False, 'trialN': 17, 'loaded': True, 'loadedTime': 2134.7999999523163, 'positionName': 'RIGHT', 'positionCoords': [1064.96, 371.5], 'bid': 5.93}]",31303.700000047684,1669832617675,bagel plain,turkey sandwich,2.9,5.93,3.03,turkey sandwich,830.5999999046326,831,830.7999999523163,True,i,32640.0,1336.2999999523163,1669832619011,1336,HRV,HRV_0165,2022-11-30 18:28:55
18,"[{'imgObject': {}, 'id': 'edamame', 'src': '/static/foodstim60/edamame.jpg', 'key': 'u', 'origWidth': 409, 'origHeight': 410, 'width': 409, 'height': 410, 'widthPercent': 0.45, 'rescaleHeight': False, 'trialN': 18, 'loaded': True, 'loadedTime': 2342.0999999046326, 'positionName': 'LEFT', 'positionCoords': [574.04, 371], 'bid': 5.2700000000000005}, {'imgObject': {}, 'id': 'cantaloupe', 'src': '/static/foodstim60/cantaloupe.jpg', 'key': 'i', 'origWidth': 409, 'origHeight': 409, 'width': 409, 'height': 409, 'widthPercent': 0.45, 'rescaleHeight': False, 'trialN': 18, 'loaded': True, 'loadedTime': 2342.7000000476837, 'positionName': 'RIGHT', 'positionCoords': [1064.96, 371.5], 'bid': 1.34}]",32640.099999904633,1669832619012,edamame,cantaloupe,5.2700000000000005,1.34,-3.9300000000000006,edamame,846.1000001430511,846,846.2000000476837,True,u,33991.39999985695,1351.2999999523163,1669832620363,1351,HRV,HRV_0165,2022-11-30 18:28:55
19,"[{'imgObject': {}, 'id': 'sweetpotato', 'src': '/static/foodstim60/sweetpotato.jpg', 'key': 'u', 'origWidth': 410, 'origHeight': 410, 'width': 410, 'height': 410, 'widthPercent': 0.45, 'rescaleHeight': False, 'trialN': 19, 'loaded': True, 'loadedTime': 2288.5999999046326, 'positionName': 'LEFT', 'positionCoords': [573.04, 371], 'bid': 1.59}, {'imgObject': {}, 'id': 'Grapes', 'src': '/static/foodstim60/Grapes.jpg', 'key': 'i', 'origWidth': 411, 'origHeight': 411, 'width': 411, 'height': 411, 'widthPercent': 0.45, 'rescaleHeight': False, 'trialN': 19, 'loaded': True, 'loadedTime': 2351.7000000476837, 'positionName': 'RIGHT', 'positionCoords': [1064.96, 370.5], 'bid': 3.35}]",33991.59999990463,1669832620363,sweetpotato,Grapes,1.59,3.35,1.76,Grapes,1494.7999999523163,1495,1495.0,True,i,35992.0,2000.4000000953674,1669832622363,2000,HRV,HRV_0165,2022-11-30 18:28:55
20,"[{'imgObject': {}, 'id': 'apple slices', 'src': '/static/foodstim60/apple slices.jpg', 'key': 'u', 'origWidth': 409, 'origHeight': 410, 'width': 409, 'height': 410, 'widthPercent': 0.45, 'rescaleHeight': False, 'trialN': 20, 'loaded': True, 'loadedTime': 2356.2999999523163, 'positionName': 'LEFT', 'positionCoords': [574.04, 371], 'bid': 1.74}, {'imgObject': {}, 'id': 'banana', 'src': '/static/foodstim60/banana.jpg', 'key': 'i', 'origWidth': 410, 'origHeight': 410, 'width': 410, 'height': 410, 'widthPercent': 0.45, 'rescaleHeight': False, 'trialN': 20, 'loaded': True, 'loadedTime': 2361, 'positionName': 'RIGHT', 'positionCoords': [1064.96, 371], 'bid': 2.94}]",35992.09999990463,1669832622364,apple slices,banana,1.74,2.94,1.2,apple slices,1462.2000000476837,1462,1462.4000000953674,True,u,37959.0,1966.9000000953674,1669832624331,1967,HRV,HRV_0165,2022-11-30 18:28:55
21,"[{'imgObject': {}, 'id': 'salmon', 'src': '/static/foodstim60/salmon.jpg', 'key': 'u', 'origWidth': 410, 'origHeight': 409, 'width': 410, 'height': 409, 'widthPercent': 0.45, 'rescaleHeight': False, 'trialN': 21, 'loaded': True, 'loadedTime': 2287.2000000476837, 'positionName': 'LEFT', 'positionCoords': [573.04, 371.5], 'bid': 3.12}, {'imgObject': {}, 'id': 'cheerios', 'src': '/static/foodstim60/cheerios.jpg', 'key': 'i', 'origWidth': 409, 'origHeight': 410, 'width': 409, 'height': 410, 'widthPercent': 0.45, 'rescaleHeight': False, 'trialN': 21, 'loaded': True, 'loadedTime': 2260.899999856949, 'positionName': 'RIGHT', 'positionCoords': [1064.96, 371], 'bid': 4.29}]",37959.09999990463,1669832624331,salmon,cheerios,3.12,4.29,1.17,cheerios,879.2000000476837,879,879.2999999523163,True,i,39343.799999952316,1384.7000000476837,1669832625715,1384,HRV,HRV_0165,2022-11-30 18:28:55
22,"[{'imgObject': {}, 'id': 'lox', 'src': '/static/foodstim60/lox.jpg', 'key': 'u', 'origWidth': 410, 'origHeight': 411, 'width': 410, 'height': 411, 'widthPercent': 0.45, 'rescaleHeight': False, 'trialN': 22, 'loaded': True, 'loadedTime': 2366.7000000476837, 'positionName': 'LEFT', 'positionCoords': [573.04, 370.5], 'bid': 0.31}, {'imgObject': {}, 'id': 'sushi w_condiments', 'src': '/static/foodstim60/sushi w_condiments.jpg', 'key': 'i', 'origWidth': 410, 'origHeight': 410, 'width': 410, 'height': 410, 'widthPercent': 0.45, 'rescaleHeight': False, 'trialN': 22, 'loaded': True, 'loadedTime': 2375.2000000476837, 'positionName': 'RIGHT', 'positionCoords': [1064.96, 371], 'bid': 2.75}]",39344.0,1669832625715,lox,sushi w_condiments,0.31,2.75,2.44,sushi w_condiments,942.2999999523163,943,942.5,True,i,40791.39999985695,1447.3999998569489,1669832627163,1448,HRV,HRV_0165,2022-11-30 18:28:55
23,"[{'imgObject': {}, 'id': 'rigatoni', 'src': '/static/foodstim60/rigatoni.jpg', 'key': 'u', 'origWidth': 411, 'origHeight': 411, 'width': 411, 'height': 411, 'widthPercent': 0.45, 'rescaleHeight': False, 'trialN': 23, 'loaded': True, 'loadedTime': 2314.2000000476837, 'positionName': 'LEFT', 'positionCoords': [572.04, 370.5], 'bid': 2.72}, {'imgObject': {}, 'id': 'salmon', 'src': '/static/foodstim60/salmon.jpg', 'key': 'i', 'origWidth': 410, 'origHeight': 409, 'width': 410, 'height': 409, 'widthPercent': 0.45, 'rescaleHeight': False, 'trialN': 23, 'loaded': True, 'loadedTime': 2281, 'positionName': 'RIGHT', 'positionCoords': [1064.96, 371.5], 'bid': 3.12}]",40791.5,1669832627163,rigatoni,salmon,2.72,3.12,0.3999999999999999,salmon,1134.8999998569489,1135,1135.0,True,i,42431.59999990463,1640.0999999046326,1669832628803,1640,HRV,HRV_0165,2022-11-30 18:28:55
24,"[{'imgObject': {}, 'id': 'fruitsalad', 'src': '/static/foodstim60/fruitsalad.jpg', 'key': 'u', 'origWidth': 410, 'origHeight': 410, 'width': 410, 'height': 410, 'widthPercent': 0.45, 'rescaleHeight': False, 'trialN': 24, 'loaded': True, 'loadedTime': 2376, 'positionName': 'LEFT', 'positionCoords': [573.04, 371], 'bid': 3.47}, {'imgObject': {}, 'id': 'pear', 'src': '/static/foodstim60/pear.jpg', 'key': 'i', 'origWidth': 411, 'origHeight': 410, 'width': 411, 'height': 410, 'widthPercent': 0.45, 'rescaleHeight': False, 'trialN': 24, 'loaded': True, 'loadedTime': 2380.399999856949, 'positionName': 'RIGHT', 'positionCoords': [1064.96, 371], 'bid': 2.5}]",42431.700000047684,1669832628803,fruitsalad,pear,3.47,2.5,-0.9700000000000002,fruitsalad,2374.5999999046326,2375,2374.699999809265,True,u,45311.59999990463,2879.899999856949,1669832631683,2880,HRV,HRV_0165,2022-11-30 18:28:55
25,"[{'imgObject': {}, 'id': 'yogurt no spoon', 'src': '/static/foodstim60/yogurt no spoon.jpg', 'key': 'u', 'origWidth': 411, 'origHeight': 410, 'width': 411, 'height': 410, 'widthPercent': 0.45, 'rescaleHeight': False, 'trialN': 25, 'loaded': True, 'loadedTime': 2389.7000000476837, 'positionName': 'LEFT', 'positionCoords': [572.04, 371], 'bid': 5.5}, {'imgObject': {}, 'id': 'kiwi', 'src': '/static/foodstim60/kiwi.jpg', 'key': 'i', 'origWidth': 410, 'origHeight': 410, 'width': 410, 'height': 410, 'widthPercent': 0.45, 'rescaleHeight': False, 'trialN': 25, 'loaded': True, 'loadedTime': 2238.0999999046326, 'positionName': 'RIGHT', 'positionCoords': [1064.96, 371], 'bid': 5.55}]",45311.700000047684,1669832631683,yogurt no spoon,kiwi,5.5,5.55,0.04999999999999982,yogurt no spoon,1534.5999999046326,1535,1534.7999999523163,True,u,47352.0,2040.2999999523163,1669832633723,2040,HRV,HRV_0165,2022-11-30 18:28:55
26,"[{'imgObject': {}, 'id': 'edamame', 'src': '/static/foodstim60/edamame.jpg', 'key': 'u', 'origWidth': 409, 'origHeight': 410, 'width': 409, 'height': 410, 'widthPercent': 0.45, 'rescaleHeight': False, 'trialN': 26, 'loaded': True, 'loadedTime': 2341.899999856949, 'positionName': 'LEFT', 'positionCoords': [574.04, 371], 'bid': 5.2700000000000005}, {'imgObject': {}, 'id': 'turkeysandwich', 'src': '/static/foodstim60/turkeysandwich.jpg', 'key': 'i', 'origWidth': 409, 'origHeight': 409, 'width': 409, 'height': 409, 'widthPercent': 0.45, 'rescaleHeight': False, 'trialN': 26, 'loaded': True, 'loadedTime': 2172.5, 'positionName': 'RIGHT', 'positionCoords': [1064.96, 371.5], 'bid': 5.32}]",47352.0,1669832633724,edamame,turkeysandwich,5.2700000000000005,5.32,0.04999999999999982,turkeysandwich,1542.3999998569489,1542,1542.5999999046326,True,i,49399.39999985695,2047.3999998569489,1669832635771,2047,HRV,HRV_0165,2022-11-30 18:28:55
27,"[{'imgObject': {}, 'id': 'eggs', 'src': '/static/foodstim60/eggs.jpg', 'key': 'u', 'origWidth': 409, 'origHeight': 409, 'width': 409, 'height': 409, 'widthPercent': 0.45, 'rescaleHeight': False, 'trialN': 27, 'loaded': True, 'loadedTime': 2390.399999856949, 'positionName': 'LEFT', 'positionCoords': [574.04, 371.5], 'bid': 3.4}, {'imgObject': {}, 'id': 'fruitsalad', 'src': '/static/foodstim60/fruitsalad.jpg', 'key': 'i', 'origWidth': 410, 'origHeight': 410, 'width': 410, 'height': 410, 'widthPercent': 0.45, 'rescaleHeight': False, 'trialN': 27, 'loaded': True, 'loadedTime': 2376.0999999046326, 'positionName': 'RIGHT', 'positionCoords': [1064.96, 371], 'bid': 3.47}]",49399.5,1669832635771,eggs,fruitsalad,3.4,3.47,0.07000000000000028,fruitsalad,1479.0,1479,1479.2000000476837,True,i,51383.39999985695,1983.8999998569489,1669832637755,1984,HRV,HRV_0165,2022-11-30 18:28:55
28,"[{'imgObject': {}, 'id': 'omelette', 'src': '/static/foodstim60/omelette.jpg', 'key': 'u', 'origWidth': 410, 'origHeight': 409, 'width': 410, 'height': 409, 'widthPercent': 0.45, 'rescaleHeight': False, 'trialN': 28, 'loaded': True, 'loadedTime': 2393.399999856949, 'positionName': 'LEFT', 'positionCoords': [573.04, 371.5], 'bid': 4.37}, {'imgObject': {}, 'id': 'fruitsalad', 'src': '/static/foodstim60/fruitsalad.jpg', 'key': 'i', 'origWidth': 410, 'origHeight': 410, 'width': 410, 'height': 410, 'widthPercent': 0.45, 'rescaleHeight': False, 'trialN': 28, 'loaded': True, 'loadedTime': 2379.5, 'positionName': 'RIGHT', 'positionCoords': [1064.96, 371], 'bid': 3.47}]",51383.5,1669832637755,omelette,fruitsalad,4.37,3.47,-0.8999999999999999,omelette,1478.7999999523163,1479,1478.8999998569489,True,u,53367.799999952316,1984.2999999523163,1669832639739,1984,HRV,HRV_0165,2022-11-30 18:28:55
29,"[{'imgObject': {}, 'id': 'ice cream sundae 002', 'src': '/static/foodstim60/ice cream sundae 002.jpg', 'key': 'u', 'origWidth': 409, 'origHeight': 409, 'width': 409, 'height': 409, 'widthPercent': 0.45, 'rescaleHeight': False, 'trialN': 29, 'loaded': True, 'loadedTime': 2397.899999856949, 'positionName': 'LEFT', 'positionCoords': [574.04, 371.5], 'bid': 5.5}, {'imgObject': {}, 'id': 'mashed potato', 'src': '/static/foodstim60/mashed potato.jpg', 'key': 'i', 'origWidth': 409, 'origHeight': 409, 'width': 409, 'height': 409, 'widthPercent': 0.45, 'rescaleHeight': False, 'trialN': 29, 'loaded': True, 'loadedTime': 2402.7999999523163, 'positionName': 'RIGHT', 'positionCoords': [1064.96, 371.5], 'bid': 5.64}]",53367.799999952316,1669832639739,ice cream sundae 002,mashed potato,5.5,5.64,0.13999999999999968,mashed potato,1366.5,1367,1366.7000000476837,True,i,55239.799999952316,1872.0,1669832641611,1872,HRV,HRV_0165,2022-11-30 18:28:55
30,"[{'imgObject': {}, 'id': 'cherry tomato', 'src': '/static/foodstim60/cherry tomato.jpg', 'key': 'u', 'origWidth': 410, 'origHeight': 410, 'width': 410, 'height': 410, 'widthPercent': 0.45, 'rescaleHeight': False, 'trialN': 30, 'loaded': True, 'loadedTime': 2408.0999999046326, 'positionName': 'LEFT', 'positionCoords': [573.04, 371], 'bid': 0.41}, {'imgObject': {}, 'id': 'raspberries', 'src': '/static/foodstim60/raspberries.jpg', 'key': 'i', 'origWidth': 411, 'origHeight': 411, 'width': 411, 'height': 411, 'widthPercent': 0.45, 'rescaleHeight': False, 'trialN': 30, 'loaded': True, 'loadedTime': 2125.399999856949, 'positionName': 'RIGHT', 'positionCoords': [1064.96, 370.5], 'bid': 4.68}]",55239.799999952316,1669832641611,cherry tomato,raspberries,0.41,4.68,4.27,raspberries,806.5,807,806.5999999046326,True,i,56552.299999952316,1312.5,1669832642924,1313,HRV,HRV_0165,2022-11-30 18:28:55
31,"[{'imgObject': {}, 'id': 'roastedpotatoes', 'src': '/static/foodstim60/roastedpotatoes.jpg', 'key': 'u', 'origWidth': 409, 'origHeight': 410, 'width': 409, 'height': 410, 'widthPercent': 0.45, 'rescaleHeight': False, 'trialN': 31, 'loaded': True, 'loadedTime': 2409.7000000476837, 'positionName': 'LEFT', 'positionCoords': [574.04, 371], 'bid': 7.65}, {'imgObject': {}, 'id': 'steak', 'src': '/static/foodstim60/steak.jpg', 'key': 'i', 'origWidth': 410, 'origHeight': 410, 'width': 410, 'height': 410, 'widthPercent': 0.45, 'rescaleHeight': False, 'trialN': 31, 'loaded': True, 'loadedTime': 2245, 'positionName': 'RIGHT', 'positionCoords': [1064.96, 371], 'bid': 5.63}]",56552.39999985695,1669832642924,roastedpotatoes,steak,7.65,5.63,-2.0200000000000005,roastedpotatoes,1462.0,1462,1462.2000000476837,True,u,58519.09999990463,1966.7000000476837,1669832644891,1967,HRV,HRV_0165,2022-11-30 18:28:55
32,"[{'imgObject': {}, 'id': 'mango', 'src': '/static/foodstim60/mango.jpg', 'key': 'u', 'origWidth': 411, 'origHeight': 411, 'width': 411, 'height': 411, 'widthPercent': 0.45, 'rescaleHeight': False, 'trialN': 32, 'loaded': True, 'loadedTime': 2191.5999999046326, 'positionName': 'LEFT', 'positionCoords': [572.04, 370.5], 'bid': 5.3500000000000005}, {'imgObject': {}, 'id': 'turkeysandwich', 'src': '/static/foodstim60/turkeysandwich.jpg', 'key': 'i', 'origWidth': 409, 'origHeight': 409, 'width': 409, 'height': 409, 'widthPercent': 0.45, 'rescaleHeight': False, 'trialN': 32, 'loaded': True, 'loadedTime': 2181.2999999523163, 'positionName': 'RIGHT', 'positionCoords': [1064.96, 371.5], 'bid': 5.32}]",58519.200000047684,1669832644891,mango,turkeysandwich,5.3500000000000005,5.32,-0.03000000000000025,turkeysandwich,1375.0,1375,1375.2999999523163,True,i,60399.39999985695,1880.1999998092651,1669832646771,1880,HRV,HRV_0165,2022-11-30 18:28:55
33,"[{'imgObject': {}, 'id': 'grilled chicken strips', 'src': '/static/foodstim60/grilled chicken strips.jpg', 'key': 'u', 'origWidth': 410, 'origHeight': 411, 'width': 410, 'height': 411, 'widthPercent': 0.45, 'rescaleHeight': False, 'trialN': 33, 'loaded': True, 'loadedTime': 2217.899999856949, 'positionName': 'LEFT', 'positionCoords': [573.04, 370.5], 'bid': 4.23}, {'imgObject': {}, 'id': 'avocado', 'src': '/static/foodstim60/avocado.jpg', 'key': 'i', 'origWidth': 409, 'origHeight': 409, 'width': 409, 'height': 409, 'widthPercent': 0.45, 'rescaleHeight': False, 'trialN': 33, 'loaded': True, 'loadedTime': 2223.7000000476837, 'positionName': 'RIGHT', 'positionCoords': [1064.96, 371.5], 'bid': 4.3}]",60399.39999985695,1669832646771,grilled chicken strips,avocado,4.23,4.3,0.0699999999999994,grilled chicken strips,2366.800000190735,2367,2367.0,True,u,63272.299999952316,2872.9000000953674,1669832649644,2873,HRV,HRV_0165,2022-11-30 18:28:55
34,"[{'imgObject': {}, 'id': 'luckycharms', 'src': '/static/foodstim60/luckycharms.jpg', 'key': 'u', 'origWidth': 410, 'origHeight': 409, 'width': 410, 'height': 409, 'widthPercent': 0.45, 'rescaleHeight': False, 'trialN': 34, 'loaded': True, 'loadedTime': 2409.7000000476837, 'positionName': 'LEFT', 'positionCoords': [573.04, 371.5], 'bid': 7.1000000000000005}, {'imgObject': {}, 'id': 'bagel and cc', 'src': '/static/foodstim60/bagel and cc.jpg', 'key': 'i', 'origWidth': 410, 'origHeight': 410, 'width': 410, 'height': 410, 'widthPercent': 0.45, 'rescaleHeight': False, 'trialN': 34, 'loaded': True, 'loadedTime': 2314.7999999523163, 'positionName': 'RIGHT', 'positionCoords': [1064.96, 371], 'bid': 5.61}]",63272.39999985695,1669832649644,luckycharms,bagel and cc,7.1000000000000005,5.61,-1.4900000000000002,bagel and cc,2062.2000000476837,2062,2062.4000000953674,True,i,65839.79999995232,2567.4000000953674,1669832652211,2567,HRV,HRV_0165,2022-11-30 18:28:55
35,"[{'imgObject': {}, 'id': 'banana', 'src': '/static/foodstim60/banana.jpg', 'key': 'u', 'origWidth': 410, 'origHeight': 410, 'width': 410, 'height': 410, 'widthPercent': 0.45, 'rescaleHeight': False, 'trialN': 35, 'loaded': True, 'loadedTime': 2360.7999999523163, 'positionName': 'LEFT', 'positionCoords': [573.04, 371], 'bid': 2.94}, {'imgObject': {}, 'id': 'fried eggs', 'src': '/static/foodstim60/fried eggs.jpg', 'key': 'i', 'origWidth': 410, 'origHeight': 410, 'width': 410, 'height': 410, 'widthPercent': 0.45, 'rescaleHeight': False, 'trialN': 35, 'loaded': True, 'loadedTime': 2415.399999856949, 'positionName': 'RIGHT', 'positionCoords': [1064.96, 371], 'bid': 5.97}]",65839.89999985695,1669832652211,banana,fried eggs,2.94,5.97,3.03,fried eggs,854.3000001907349,855,854.5,True,i,67199.89999985695,1360.0,1669832653571,1360,HRV,HRV_0165,2022-11-30 18:28:55
36,"[{'imgObject': {}, 'id': 'mac & cheese', 'src': '/static/foodstim60/mac & cheese.jpg', 'key': 'u', 'origWidth': 410, 'origHeight': 410, 'width': 410, 'height': 410, 'widthPercent': 0.45, 'rescaleHeight': False, 'trialN': 36, 'loaded': True, 'loadedTime': 2419.7000000476837, 'positionName': 'LEFT', 'positionCoords': [573.04, 371], 'bid': 7.66}, {'imgObject': {}, 'id': 'chickenfingers', 'src': '/static/foodstim60/chickenfingers.jpg', 'key': 'i', 'origWidth': 410, 'origHeight': 410, 'width': 410, 'height': 410, 'widthPercent': 0.45, 'rescaleHeight': False, 'trialN': 36, 'loaded': True, 'loadedTime': 2425, 'positionName': 'RIGHT', 'positionCoords': [1064.96, 371], 'bid': 8.9}]",67199.89999985695,1669832653571,mac & cheese,chickenfingers,7.66,8.9,1.2400000000000002,chickenfingers,1126.4000000953674,1127,1126.6000001430511,True,i,68831.70000004768,1631.8000001907349,1669832655203,1632,HRV,HRV_0165,2022-11-30 18:28:55
37,"[{'imgObject': {}, 'id': 'salad w chicken', 'src': '/static/foodstim60/salad w chicken.jpg', 'key': 'u', 'origWidth': 411, 'origHeight': 411, 'width': 411, 'height': 411, 'widthPercent': 0.45, 'rescaleHeight': False, 'trialN': 37, 'loaded': True, 'loadedTime': 2434.2000000476837, 'positionName': 'LEFT', 'positionCoords': [572.04, 370.5], 'bid': 7.6}, {'imgObject': {}, 'id': 'raisin bran w milk', 'src': '/static/foodstim60/raisin bran w milk.jpg', 'key': 'i', 'origWidth': 411, 'origHeight': 411, 'width': 411, 'height': 411, 'widthPercent': 0.45, 'rescaleHeight': False, 'trialN': 37, 'loaded': True, 'loadedTime': 2434.2999999523163, 'positionName': 'RIGHT', 'positionCoords': [1064.96, 370.5], 'bid': 3.45}]",68831.70000004768,1669832655203,salad w chicken,raisin bran w milk,7.6,3.45,-4.1499999999999995,salad w chicken,1006.5999999046326,1007,1006.7999999523163,True,u,70343.59999990463,1511.8999998569489,1669832656715,1512,HRV,HRV_0165,2022-11-30 18:28:55
38,"[{'imgObject': {}, 'id': 'salad w chicken', 'src': '/static/foodstim60/salad w chicken.jpg', 'key': 'u', 'origWidth': 411, 'origHeight': 411, 'width': 411, 'height': 411, 'widthPercent': 0.45, 'rescaleHeight': False, 'trialN': 38, 'loaded': True, 'loadedTime': 2426, 'positionName': 'LEFT', 'positionCoords': [572.04, 370.5], 'bid': 7.6}, {'imgObject': {}, 'id': 'blueberries', 'src': '/static/foodstim60/blueberries.jpg', 'key': 'i', 'origWidth': 411, 'origHeight': 411, 'width': 411, 'height': 411, 'widthPercent': 0.45, 'rescaleHeight': False, 'trialN': 38, 'loaded': True, 'loadedTime': 2256.5999999046326, 'positionName': 'RIGHT', 'positionCoords': [1064.96, 370.5], 'bid': 5.62}]",70343.79999995232,1669832656715,salad w chicken,blueberries,7.6,5.62,-1.9799999999999995,salad w chicken,1254.4000000953674,1255,1254.5999999046326,True,u,72104.0,1760.2000000476837,1669832658475,1760,HRV,HRV_0165,2022-11-30 18:28:55
39,"[{'imgObject': {}, 'id': 'tacos', 'src': '/static/foodstim60/tacos.jpg', 'key': 'u', 'origWidth': 411, 'origHeight': 411, 'width': 411, 'height': 411, 'widthPercent': 0.45, 'rescaleHeight': False, 'trialN': 39, 'loaded': True, 'loadedTime': 2303.0999999046326, 'positionName': 'LEFT', 'positionCoords': [572.04, 370.5], 'bid': 6.22}, {'imgObject': {}, 'id': 'fried eggs', 'src': '/static/foodstim60/fried eggs.jpg', 'key': 'i', 'origWidth': 410, 'origHeight': 410, 'width': 410, 'height': 410, 'widthPercent': 0.45, 'rescaleHeight': False, 'trialN': 39, 'loaded': True, 'loadedTime': 2414.7999999523163, 'positionName': 'RIGHT', 'positionCoords': [1064.96, 371], 'bid': 5.97}]",72104.09999990463,1669832658475,tacos,fried eggs,6.22,5.97,-0.25,tacos,2214.2999999523163,2215,2214.4000000953674,True,u,74823.79999995232,2719.7000000476837,1669832661195,2720,HRV,HRV_0165,2022-11-30 18:28:55
40,"[{'imgObject': {}, 'id': 'sushi w_condiments', 'src': '/static/foodstim60/sushi w_condiments.jpg', 'key': 'u', 'origWidth': 410, 'origHeight': 410, 'width': 410, 'height': 410, 'widthPercent': 0.45, 'rescaleHeight': False, 'trialN': 40, 'loaded': True, 'loadedTime': 2375.2999999523163, 'positionName': 'LEFT', 'positionCoords': [573.04, 371], 'bid': 2.75}, {'imgObject': {}, 'id': 'froot loops w milk', 'src': '/static/foodstim60/froot loops w milk.jpg', 'key': 'i', 'origWidth': 410, 'origHeight': 410, 'width': 410, 'height': 410, 'widthPercent': 0.45, 'rescaleHeight': False, 'trialN': 40, 'loaded': True, 'loadedTime': 2199.899999856949, 'positionName': 'RIGHT', 'positionCoords': [1064.96, 371], 'bid': 2.69}]",74823.89999985695,1669832661195,sushi w_condiments,froot loops w milk,2.75,2.69,-0.06000000000000005,sushi w_condiments,1118.3000001907349,1119,1118.5,True,u,76448.20000004768,1624.3000001907349,1669832662820,1625,HRV,HRV_0165,2022-11-30 18:28:55
41,"[{'imgObject': {}, 'id': 'froot loops w milk', 'src': '/static/foodstim60/froot loops w milk.jpg', 'key': 'u', 'origWidth': 410, 'origHeight': 410, 'width': 410, 'height': 410, 'widthPercent': 0.45, 'rescaleHeight': False, 'trialN': 41, 'loaded': True, 'loadedTime': 2202.899999856949, 'positionName': 'LEFT', 'positionCoords': [573.04, 371], 'bid': 2.69}, {'imgObject': {}, 'id': 'cherry tomato', 'src': '/static/foodstim60/cherry tomato.jpg', 'key': 'i', 'origWidth': 410, 'origHeight': 410, 'width': 410, 'height': 410, 'widthPercent': 0.45, 'rescaleHeight': False, 'trialN': 41, 'loaded': True, 'loadedTime': 2408.899999856949, 'positionName': 'RIGHT', 'positionCoords': [1064.96, 371], 'bid': 0.41}]",76448.39999985695,1669832662820,froot loops w milk,cherry tomato,2.69,0.41,-2.28,froot loops w milk,861.9000000953674,862,862.0,True,u,77816.20000004768,1367.8000001907349,1669832664188,1368,HRV,HRV_0165,2022-11-30 18:28:55
42,"[{'imgObject': {}, 'id': 'omelette', 'src': '/static/foodstim60/omelette.jpg', 'key': 'u', 'origWidth': 410, 'origHeight': 409, 'width': 410, 'height': 409, 'widthPercent': 0.45, 'rescaleHeight': False, 'trialN': 42, 'loaded': True, 'loadedTime': 2393.899999856949, 'positionName': 'LEFT', 'positionCoords': [573.04, 371.5], 'bid': 4.37}, {'imgObject': {}, 'id': 'raspberries', 'src': '/static/foodstim60/raspberries.jpg', 'key': 'i', 'origWidth': 411, 'origHeight': 411, 'width': 411, 'height': 411, 'widthPercent': 0.45, 'rescaleHeight': False, 'trialN': 42, 'loaded': True, 'loadedTime': 2126.2999999523163, 'positionName': 'RIGHT', 'positionCoords': [1064.96, 370.5], 'bid': 4.68}]",77816.29999995232,1669832664188,omelette,raspberries,4.37,4.68,0.3099999999999996,omelette,2062.0999999046326,2062,2062.2000000476837,True,u,80383.79999995232,2567.5,1669832666755,2567,HRV,HRV_0165,2022-11-30 18:28:55
43,"[{'imgObject': {}, 'id': 'salad w chicken', 'src': '/static/foodstim60/salad w chicken.jpg', 'key': 'u', 'origWidth': 411, 'origHeight': 411, 'width': 411, 'height': 411, 'widthPercent': 0.45, 'rescaleHeight': False, 'trialN': 43, 'loaded': True, 'loadedTime': 2434, 'positionName': 'LEFT', 'positionCoords': [572.04, 370.5], 'bid': 7.6}, {'imgObject': {}, 'id': 'burrito', 'src': '/static/foodstim60/burrito.jpg', 'key': 'i', 'origWidth': 410, 'origHeight': 410, 'width': 410, 'height': 410, 'widthPercent': 0.45, 'rescaleHeight': False, 'trialN': 43, 'loaded': True, 'loadedTime': 2438.899999856949, 'positionName': 'RIGHT', 'positionCoords': [1064.96, 371], 'bid': 7.08}]",80383.89999985695,1669832666755,salad w chicken,burrito,7.6,7.08,-0.5199999999999996,burrito,2374.4000000953674,2375,2374.600000143051,True,i,83263.89999985695,2880.0,1669832669635,2880,HRV,HRV_0165,2022-11-30 18:28:55
44,"[{'imgObject': {}, 'id': 'salmon', 'src': '/static/foodstim60/salmon.jpg', 'key': 'u', 'origWidth': 410, 'origHeight': 409, 'width': 410, 'height': 409, 'widthPercent': 0.45, 'rescaleHeight': False, 'trialN': 44, 'loaded': True, 'loadedTime': 2280.7999999523163, 'positionName': 'LEFT', 'positionCoords': [573.04, 371.5], 'bid': 3.12}, {'imgObject': {}, 'id': 'blackbeanswithrice', 'src': '/static/foodstim60/blackbeanswithrice.jpg', 'key': 'i', 'origWidth': 410, 'origHeight': 410, 'width': 410, 'height': 410, 'widthPercent': 0.45, 'rescaleHeight': False, 'trialN': 44, 'loaded': True, 'loadedTime': 2329.7000000476837, 'positionName': 'RIGHT', 'positionCoords': [1064.96, 371], 'bid': 1.32}]",83264.0,1669832669635,salmon,blackbeanswithrice,3.12,1.32,-1.8,salmon,1846.2999999523163,1847,1846.5,True,u,85615.79999995232,2351.7999999523163,1669832671987,2352,HRV,HRV_0165,2022-11-30 18:28:55
45,"[{'imgObject': {}, 'id': 'mac & cheese', 'src': '/static/foodstim60/mac & cheese.jpg', 'key': 'u', 'origWidth': 410, 'origHeight': 410, 'width': 410, 'height': 410, 'widthPercent': 0.45, 'rescaleHeight': False, 'trialN': 45, 'loaded': True, 'loadedTime': 2419.7999999523163, 'positionName': 'LEFT', 'positionCoords': [573.04, 371], 'bid': 7.66}, {'imgObject': {}, 'id': 'eggsalad', 'src': '/static/foodstim60/eggsalad.jpg', 'key': 'i', 'origWidth': 410, 'origHeight': 409, 'width': 410, 'height': 409, 'widthPercent': 0.45, 'rescaleHeight': False, 'trialN': 45, 'loaded': True, 'loadedTime': 2439.5, 'positionName': 'RIGHT', 'positionCoords': [1064.96, 371.5], 'bid': 3.47}]",85615.79999995232,1669832671987,mac & cheese,eggsalad,7.66,3.47,-4.1899999999999995,mac & cheese,1142.4000000953674,1143,1142.5,True,u,87264.20000004768,1648.4000000953674,1669832673636,1649,HRV,HRV_0165,2022-11-30 18:28:55
46,"[{'imgObject': {}, 'id': 'orange slices', 'src': '/static/foodstim60/orange slices.jpg', 'key': 'u', 'origWidth': 409, 'origHeight': 410, 'width': 409, 'height': 410, 'widthPercent': 0.45, 'rescaleHeight': False, 'trialN': 46, 'loaded': True, 'loadedTime': 2191.5999999046326, 'positionName': 'LEFT', 'positionCoords': [574.04, 371], 'bid': 1.36}, {'imgObject': {}, 'id': 'olives', 'src': '/static/foodstim60/olives.jpg', 'key': 'i', 'origWidth': 410, 'origHeight': 410, 'width': 410, 'height': 410, 'widthPercent': 0.45, 'rescaleHeight': False, 'trialN': 46, 'loaded': True, 'loadedTime': 2228.7999999523163, 'positionName': 'RIGHT', 'positionCoords': [1064.96, 371], 'bid': 0.35}]",87264.29999995232,1669832673636,orange slices,olives,1.36,0.35,-1.0100000000000002,orange slices,1485.7999999523163,1486,1486.0,True,u,89255.09999990463,1990.7999999523163,1669832675627,1991,HRV,HRV_0165,2022-11-30 18:28:55
47,"[{'imgObject': {}, 'id': 'corn cob', 'src': '/static/foodstim60/corn cob.jpg', 'key': 'u', 'origWidth': 411, 'origHeight': 411, 'width': 411, 'height': 411, 'widthPercent': 0.45, 'rescaleHeight': False, 'trialN': 47, 'loaded': True, 'loadedTime': 2152.5, 'positionName': 'LEFT', 'positionCoords': [572.04, 370.5], 'bid': 2.64}, {'imgObject': {}, 'id': 'yogurt no spoon', 'src': '/static/foodstim60/yogurt no spoon.jpg', 'key': 'i', 'origWidth': 411, 'origHeight': 410, 'width': 411, 'height': 410, 'widthPercent': 0.45, 'rescaleHeight': False, 'trialN': 47, 'loaded': True, 'loadedTime': 2384.7000000476837, 'positionName': 'RIGHT', 'positionCoords': [1064.96, 371], 'bid': 5.5}]",89255.20000004768,1669832675627,corn cob,yogurt no spoon,2.64,5.5,2.86,yogurt no spoon,959.0999999046326,959,959.2999999523163,True,i,90719.79999995232,1464.5999999046326,1669832677091,1464,HRV,HRV_0165,2022-11-30 18:28:55
48,"[{'imgObject': {}, 'id': 'edamame', 'src': '/static/foodstim60/edamame.jpg', 'key': 'u', 'origWidth': 409, 'origHeight': 410, 'width': 409, 'height': 410, 'widthPercent': 0.45, 'rescaleHeight': False, 'trialN': 48, 'loaded': True, 'loadedTime': 2342.0999999046326, 'positionName': 'LEFT', 'positionCoords': [574.04, 371], 'bid': 5.2700000000000005}, {'imgObject': {}, 'id': 'rigatoni and sauce', 'src': '/static/foodstim60/rigatoni and sauce.jpg', 'key': 'i', 'origWidth': 410, 'origHeight': 411, 'width': 410, 'height': 411, 'widthPercent': 0.45, 'rescaleHeight': False, 'trialN': 48, 'loaded': True, 'loadedTime': 2209, 'positionName': 'RIGHT', 'positionCoords': [1064.96, 370.5], 'bid': 5.33}]",90719.89999985695,1669832677091,edamame,rigatoni and sauce,5.2700000000000005,5.33,0.05999999999999961,rigatoni and sauce,1718.4000000953674,1719,1718.7000000476837,True,i,92943.29999995232,2223.4000000953674,1669832679315,2224,HRV,HRV_0165,2022-11-30 18:28:55
49,"[{'imgObject': {}, 'id': 'Grapes', 'src': '/static/foodstim60/Grapes.jpg', 'key': 'u', 'origWidth': 411, 'origHeight': 411, 'width': 411, 'height': 411, 'widthPercent': 0.45, 'rescaleHeight': False, 'trialN': 49, 'loaded': True, 'loadedTime': 2351.7000000476837, 'positionName': 'LEFT', 'positionCoords': [572.04, 370.5], 'bid': 3.35}, {'imgObject': {}, 'id': 'burrito', 'src': '/static/foodstim60/burrito.jpg', 'key': 'i', 'origWidth': 410, 'origHeight': 410, 'width': 410, 'height': 410, 'widthPercent': 0.45, 'rescaleHeight': False, 'trialN': 49, 'loaded': True, 'loadedTime': 2438.7000000476837, 'positionName': 'RIGHT', 'positionCoords': [1064.96, 371], 'bid': 7.08}]",92943.39999985695,1669832679315,Grapes,burrito,3.35,7.08,3.73,burrito,831.1000001430511,831,831.3000001907349,True,i,94280.0,1336.6000001430511,1669832680651,1336,HRV,HRV_0165,2022-11-30 18:28:55
50,"[{'imgObject': {}, 'id': 'steak', 'src': '/static/foodstim60/steak.jpg', 'key': 'u', 'origWidth': 410, 'origHeight': 410, 'width': 410, 'height': 410, 'widthPercent': 0.45, 'rescaleHeight': False, 'trialN': 50, 'loaded': True, 'loadedTime': 2245.7999999523163, 'positionName': 'LEFT', 'positionCoords': [573.04, 371], 'bid': 5.63}, {'imgObject': {}, 'id': 'baked potato', 'src': '/static/foodstim60/baked potato.jpg', 'key': 'i', 'origWidth': 409, 'origHeight': 410, 'width': 409, 'height': 410, 'widthPercent': 0.45, 'rescaleHeight': False, 'trialN': 50, 'loaded': True, 'loadedTime': 2439.5999999046326, 'positionName': 'RIGHT', 'positionCoords': [1064.96, 371], 'bid': 2.76}]",94280.09999990463,1669832680651,steak,baked potato,5.63,2.76,-2.87,steak,862.1000001430511,863,862.2999999523163,True,u,95647.39999985695,1367.2999999523163,1669832682019,1368,HRV,HRV_0165,2022-11-30 18:28:55
51,"[{'imgObject': {}, 'id': 'eggsalad', 'src': '/static/foodstim60/eggsalad.jpg', 'key': 'u', 'origWidth': 410, 'origHeight': 409, 'width': 410, 'height': 409, 'widthPercent': 0.45, 'rescaleHeight': False, 'trialN': 51, 'loaded': True, 'loadedTime': 2439.2999999523163, 'positionName': 'LEFT', 'positionCoords': [573.04, 371.5], 'bid': 3.47}, {'imgObject': {}, 'id': 'corn cob', 'src': '/static/foodstim60/corn cob.jpg', 'key': 'i', 'origWidth': 411, 'origHeight': 411, 'width': 411, 'height': 411, 'widthPercent': 0.45, 'rescaleHeight': False, 'trialN': 51, 'loaded': True, 'loadedTime': 2157.2999999523163, 'positionName': 'RIGHT', 'positionCoords': [1064.96, 370.5], 'bid': 2.64}]",95647.5,1669832682019,eggsalad,corn cob,3.47,2.64,-0.8300000000000001,eggsalad,1822.7999999523163,1823,1823.0,True,u,97975.70000004768,2328.2000000476837,1669832684347,2328,HRV,HRV_0165,2022-11-30 18:28:55
52,"[{'imgObject': {}, 'id': 'ice cream sundae 002', 'src': '/static/foodstim60/ice cream sundae 002.jpg', 'key': 'u', 'origWidth': 409, 'origHeight': 409, 'width': 409, 'height': 409, 'widthPercent': 0.45, 'rescaleHeight': False, 'trialN': 52, 'loaded': True, 'loadedTime': 2398.5999999046326, 'positionName': 'LEFT', 'positionCoords': [574.04, 371.5], 'bid': 5.5}, {'imgObject': {}, 'id': 'shreddedwheatwithmilk', 'src': '/static/foodstim60/shreddedwheatwithmilk.jpg', 'key': 'i', 'origWidth': 410, 'origHeight': 410, 'width': 410, 'height': 410, 'widthPercent': 0.45, 'rescaleHeight': False, 'trialN': 52, 'loaded': True, 'loadedTime': 2444.7000000476837, 'positionName': 'RIGHT', 'positionCoords': [1064.96, 371], 'bid': 5.44}]",97975.79999995232,1669832684347,ice cream sundae 002,shreddedwheatwithmilk,5.5,5.44,-0.05999999999999961,ice cream sundae 002,1686.5,1687,1686.5999999046326,True,u,100167.79999995232,2192.0,1669832686539,2192,HRV,HRV_0165,2022-11-30 18:28:55
53,"[{'imgObject': {}, 'id': 'burger', 'src': '/static/foodstim60/burger.jpg', 'key': 'u', 'origWidth': 409, 'origHeight': 409, 'width': 409, 'height': 409, 'widthPercent': 0.45, 'rescaleHeight': False, 'trialN': 53, 'loaded': True, 'loadedTime': 2449.5, 'positionName': 'LEFT', 'positionCoords': [574.04, 371.5], 'bid': 7.07}, {'imgObject': {}, 'id': 'chicken nuggets2', 'src': '/static/foodstim60/chicken nuggets2.jpg', 'key': 'i', 'origWidth': 410, 'origHeight': 409, 'width': 410, 'height': 409, 'widthPercent': 0.45, 'rescaleHeight': False, 'trialN': 53, 'loaded': True, 'loadedTime': 2450.399999856949, 'positionName': 'RIGHT', 'positionCoords': [1064.96, 371.5], 'bid': 8.82}]",100167.79999995232,1669832686539,burger,chicken nuggets2,7.07,8.82,1.75,chicken nuggets2,1238.5999999046326,1239,1238.7000000476837,True,i,101911.5,1743.7000000476837,1669832688283,1744,HRV,HRV_0165,2022-11-30 18:28:55
54,"[{'imgObject': {}, 'id': 'fruitsalad', 'src': '/static/foodstim60/fruitsalad.jpg', 'key': 'u', 'origWidth': 410, 'origHeight': 410, 'width': 410, 'height': 410, 'widthPercent': 0.45, 'rescaleHeight': False, 'trialN': 54, 'loaded': True, 'loadedTime': 2379.7000000476837, 'positionName': 'LEFT', 'positionCoords': [573.04, 371], 'bid': 3.47}, {'imgObject': {}, 'id': 'roastedpotatoes', 'src': '/static/foodstim60/roastedpotatoes.jpg', 'key': 'i', 'origWidth': 409, 'origHeight': 410, 'width': 409, 'height': 410, 'widthPercent': 0.45, 'rescaleHeight': False, 'trialN': 54, 'loaded': True, 'loadedTime': 2409, 'positionName': 'RIGHT', 'positionCoords': [1064.96, 371], 'bid': 7.65}]",101911.59999990463,1669832688283,fruitsalad,roastedpotatoes,3.47,7.65,4.18,roastedpotatoes,1798.7000000476837,1799,1798.7999999523163,True,i,104216.20000004768,2304.600000143051,1669832690588,2305,HRV,HRV_0165,2022-11-30 18:28:55
55,"[{'imgObject': {}, 'id': 'hashbrowns', 'src': '/static/foodstim60/hashbrowns.jpg', 'key': 'u', 'origWidth': 411, 'origHeight': 410, 'width': 411, 'height': 410, 'widthPercent': 0.45, 'rescaleHeight': False, 'trialN': 55, 'loaded': True, 'loadedTime': 2451.0999999046326, 'positionName': 'LEFT', 'positionCoords': [572.04, 371], 'bid': 3.24}, {'imgObject': {}, 'id': 'cantaloupe', 'src': '/static/foodstim60/cantaloupe.jpg', 'key': 'i', 'origWidth': 409, 'origHeight': 409, 'width': 409, 'height': 409, 'widthPercent': 0.45, 'rescaleHeight': False, 'trialN': 55, 'loaded': True, 'loadedTime': 2346.899999856949, 'positionName': 'RIGHT', 'positionCoords': [1064.96, 371.5], 'bid': 1.34}]",104216.20000004768,1669832690588,hashbrowns,cantaloupe,3.24,1.34,-1.9000000000000001,hashbrowns,1022.0999999046326,1022,1022.1999998092651,True,u,105743.29999995232,1527.0999999046326,1669832692115,1527,HRV,HRV_0165,2022-11-30 18:28:55
56,"[{'imgObject': {}, 'id': 'cocktailshrimp', 'src': '/static/foodstim60/cocktailshrimp.jpg', 'key': 'u', 'origWidth': 410, 'origHeight': 410, 'width': 410, 'height': 410, 'widthPercent': 0.45, 'rescaleHeight': False, 'trialN': 56, 'loaded': True, 'loadedTime': 2451.0999999046326, 'positionName': 'LEFT', 'positionCoords': [573.04, 371], 'bid': 2.11}, {'imgObject': {}, 'id': 'veggieswithdip', 'src': '/static/foodstim60/veggieswithdip.jpg', 'key': 'i', 'origWidth': 409, 'origHeight': 409, 'width': 409, 'height': 409, 'widthPercent': 0.45, 'rescaleHeight': False, 'trialN': 56, 'loaded': True, 'loadedTime': 2324.7999999523163, 'positionName': 'RIGHT', 'positionCoords': [1064.96, 371.5], 'bid': 1.09}]",105743.39999985695,1669832692115,cocktailshrimp,veggieswithdip,2.11,1.09,-1.0199999999999998,veggieswithdip,1894.8000001907349,1895,1895.0,True,i,108144.0,2400.600000143051,1669832694516,2401,HRV,HRV_0165,2022-11-30 18:28:55
57,"[{'imgObject': {}, 'id': 'eggsalad', 'src': '/static/foodstim60/eggsalad.jpg', 'key': 'u', 'origWidth': 410, 'origHeight': 409, 'width': 410, 'height': 409, 'widthPercent': 0.45, 'rescaleHeight': False, 'trialN': 57, 'loaded': True, 'loadedTime': 2439.399999856949, 'positionName': 'LEFT', 'positionCoords': [573.04, 371.5], 'bid': 3.47}, {'imgObject': {}, 'id': 'turkeysandwich', 'src': '/static/foodstim60/turkeysandwich.jpg', 'key': 'i', 'origWidth': 409, 'origHeight': 409, 'width': 409, 'height': 409, 'widthPercent': 0.45, 'rescaleHeight': False, 'trialN': 57, 'loaded': True, 'loadedTime': 2177.399999856949, 'positionName': 'RIGHT', 'positionCoords': [1064.96, 371.5], 'bid': 5.32}]",108144.09999990463,1669832694516,eggsalad,turkeysandwich,3.47,5.32,1.85,turkeysandwich,1166.0,1166,1166.2999999523163,True,i,109816.39999985695,1672.2999999523163,1669832696188,1672,HRV,HRV_0165,2022-11-30 18:28:55
58,"[{'imgObject': {}, 'id': 'cherry tomato', 'src': '/static/foodstim60/cherry tomato.jpg', 'key': 'u', 'origWidth': 410, 'origHeight': 410, 'width': 410, 'height': 410, 'widthPercent': 0.45, 'rescaleHeight': False, 'trialN': 58, 'loaded': True, 'loadedTime': 2408.899999856949, 'positionName': 'LEFT', 'positionCoords': [573.04, 371], 'bid': 0.41}, {'imgObject': {}, 'id': 'seaweed', 'src': '/static/foodstim60/seaweed.jpg', 'key': 'i', 'origWidth': 410, 'origHeight': 410, 'width': 410, 'height': 410, 'widthPercent': 0.45, 'rescaleHeight': False, 'trialN': 58, 'loaded': True, 'loadedTime': 2272.399999856949, 'positionName': 'RIGHT', 'positionCoords': [1064.96, 371], 'bid': 0.39}]",109816.5,1669832696188,cherry tomato,seaweed,0.41,0.39,-0.019999999999999962,cherry tomato,877.7999999523163,878,878.0,True,u,111200.0,1383.5,1669832697571,1383,HRV,HRV_0165,2022-11-30 18:28:55
59,"[{'imgObject': {}, 'id': 'edamame', 'src': '/static/foodstim60/edamame.jpg', 'key': 'u', 'origWidth': 409, 'origHeight': 410, 'width': 409, 'height': 410, 'widthPercent': 0.45, 'rescaleHeight': False, 'trialN': 59, 'loaded': True, 'loadedTime': 2336.899999856949, 'positionName': 'LEFT', 'positionCoords': [574.04, 371], 'bid': 5.2700000000000005}, {'imgObject': {}, 'id': 'yogurt no spoon', 'src': '/static/foodstim60/yogurt no spoon.jpg', 'key': 'i', 'origWidth': 411, 'origHeight': 410, 'width': 411, 'height': 410, 'widthPercent': 0.45, 'rescaleHeight': False, 'trialN': 59, 'loaded': True, 'loadedTime': 2389.399999856949, 'positionName': 'RIGHT', 'positionCoords': [1064.96, 371], 'bid': 5.5}]",111200.0,1669832697572,edamame,yogurt no spoon,5.2700000000000005,5.5,0.22999999999999954,yogurt no spoon,1142.3999998569489,1142,1142.5,True,i,112847.70000004768,1647.7000000476837,1669832699219,1647,HRV,HRV_0165,2022-11-30 18:28:55
60,"[{'imgObject': {}, 'id': 'sweetpotato', 'src': '/static/foodstim60/sweetpotato.jpg', 'key': 'u', 'origWidth': 410, 'origHeight': 410, 'width': 410, 'height': 410, 'widthPercent': 0.45, 'rescaleHeight': False, 'trialN': 60, 'loaded': True, 'loadedTime': 2296.5, 'positionName': 'LEFT', 'positionCoords': [573.04, 371], 'bid': 1.59}, {'imgObject': {}, 'id': 'cocktailshrimp', 'src': '/static/foodstim60/cocktailshrimp.jpg', 'key': 'i', 'origWidth': 410, 'origHeight': 410, 'width': 410, 'height': 410, 'widthPercent': 0.45, 'rescaleHeight': False, 'trialN': 60, 'loaded': True, 'loadedTime': 2451.7999999523163, 'positionName': 'RIGHT', 'positionCoords': [1064.96, 371], 'bid': 2.11}]",112847.89999985695,1669832699219,sweetpotato,cocktailshrimp,1.59,2.11,0.5199999999999998,sweetpotato,1182.3000001907349,1183,1182.5,True,u,114535.59999990463,1687.7000000476837,1669832700907,1688,HRV,HRV_0165,2022-11-30 18:28:55
61,"[{'imgObject': {}, 'id': 'Grapes', 'src': '/static/foodstim60/Grapes.jpg', 'key': 'u', 'origWidth': 411, 'origHeight': 411, 'width': 411, 'height': 411, 'widthPercent': 0.45, 'rescaleHeight': False, 'trialN': 61, 'loaded': True, 'loadedTime': 2351.7999999523163, 'positionName': 'LEFT', 'positionCoords': [572.04, 370.5], 'bid': 3.35}, {'imgObject': {}, 'id': 'Tribe humus pita', 'src': '/static/foodstim60/Tribe humus pita.jpg', 'key': 'i', 'origWidth': 411, 'origHeight': 411, 'width': 411, 'height': 411, 'widthPercent': 0.45, 'rescaleHeight': False, 'trialN': 61, 'loaded': True, 'loadedTime': 2452.5, 'positionName': 'RIGHT', 'positionCoords': [1064.96, 370.5], 'bid': 2.9}]",114535.79999995232,1669832700907,Grapes,Tribe humus pita,3.35,2.9,-0.4500000000000002,Tribe humus pita,2118.5,2119,2118.5999999046326,True,i,117160.59999990463,2624.7999999523163,1669832703532,2625,HRV,HRV_0165,2022-11-30 18:28:55
62,"[{'imgObject': {}, 'id': 'pear', 'src': '/static/foodstim60/pear.jpg', 'key': 'u', 'origWidth': 411, 'origHeight': 410, 'width': 411, 'height': 410, 'widthPercent': 0.45, 'rescaleHeight': False, 'trialN': 62, 'loaded': True, 'loadedTime': 2380.399999856949, 'positionName': 'LEFT', 'positionCoords': [572.04, 371], 'bid': 2.5}, {'imgObject': {}, 'id': 'ice cream sundae 002', 'src': '/static/foodstim60/ice cream sundae 002.jpg', 'key': 'i', 'origWidth': 409, 'origHeight': 409, 'width': 409, 'height': 409, 'widthPercent': 0.45, 'rescaleHeight': False, 'trialN': 62, 'loaded': True, 'loadedTime': 2398.399999856949, 'positionName': 'RIGHT', 'positionCoords': [1064.96, 371.5], 'bid': 5.5}]",117160.70000004768,1669832703532,pear,ice cream sundae 002,2.5,5.5,3.0,ice cream sundae 002,1133.5,1134,1133.7999999523163,True,i,118800.59999990463,1639.8999998569489,1669832705172,1640,HRV,HRV_0165,2022-11-30 18:28:55
63,"[{'imgObject': {}, 'id': 'strawberries', 'src': '/static/foodstim60/strawberries.jpg', 'key': 'u', 'origWidth': 410, 'origHeight': 410, 'width': 410, 'height': 410, 'widthPercent': 0.45, 'rescaleHeight': False, 'trialN': 63, 'loaded': True, 'loadedTime': 2167.5, 'positionName': 'LEFT', 'positionCoords': [573.04, 371], 'bid': 5.23}, {'imgObject': {}, 'id': 'raisin bran w milk', 'src': '/static/foodstim60/raisin bran w milk.jpg', 'key': 'i', 'origWidth': 411, 'origHeight': 411, 'width': 411, 'height': 411, 'widthPercent': 0.45, 'rescaleHeight': False, 'trialN': 63, 'loaded': True, 'loadedTime': 2438.0999999046326, 'positionName': 'RIGHT', 'positionCoords': [1064.96, 370.5], 'bid': 3.45}]",118800.59999990463,1669832705172,strawberries,raisin bran w milk,5.23,3.45,-1.7800000000000002,strawberries,2293.7000000476837,2294,2293.7999999523163,True,u,121599.79999995232,2799.2000000476837,1669832707971,2799,HRV,HRV_0165,2022-11-30 18:28:55
64,"[{'imgObject': {}, 'id': 'olives', 'src': '/static/foodstim60/olives.jpg', 'key': 'u', 'origWidth': 410, 'origHeight': 410, 'width': 410, 'height': 410, 'widthPercent': 0.45, 'rescaleHeight': False, 'trialN': 64, 'loaded': True, 'loadedTime': 2232.5, 'positionName': 'LEFT', 'positionCoords': [573.04, 371], 'bid': 0.35}, {'imgObject': {}, 'id': 'lox', 'src': '/static/foodstim60/lox.jpg', 'key': 'i', 'origWidth': 410, 'origHeight': 411, 'width': 410, 'height': 411, 'widthPercent': 0.45, 'rescaleHeight': False, 'trialN': 64, 'loaded': True, 'loadedTime': 2367.5999999046326, 'positionName': 'RIGHT', 'positionCoords': [1064.96, 370.5], 'bid': 0.31}]",121599.79999995232,1669832707971,olives,lox,0.35,0.31,-0.03999999999999998,lox,2038.5,2039,2038.7999999523163,True,i,124143.5,2543.7000000476837,1669832710515,2544,HRV,HRV_0165,2022-11-30 18:28:55
65,"[{'imgObject': {}, 'id': 'Grapes', 'src': '/static/foodstim60/Grapes.jpg', 'key': 'u', 'origWidth': 411, 'origHeight': 411, 'width': 411, 'height': 411, 'widthPercent': 0.45, 'rescaleHeight': False, 'trialN': 65, 'loaded': True, 'loadedTime': 2347.5, 'positionName': 'LEFT', 'positionCoords': [572.04, 370.5], 'bid': 3.35}, {'imgObject': {}, 'id': 'hashbrowns', 'src': '/static/foodstim60/hashbrowns.jpg', 'key': 'i', 'origWidth': 411, 'origHeight': 410, 'width': 411, 'height': 410, 'widthPercent': 0.45, 'rescaleHeight': False, 'trialN': 65, 'loaded': True, 'loadedTime': 2451.0999999046326, 'positionName': 'RIGHT', 'positionCoords': [1064.96, 371], 'bid': 3.24}]",124143.70000004768,1669832710515,Grapes,hashbrowns,3.35,3.24,-0.10999999999999988,hashbrowns,2422.5,2423,2422.699999809265,True,i,127072.0,2928.2999999523163,1669832713443,2928,HRV,HRV_0165,2022-11-30 18:28:55
66,"[{'imgObject': {}, 'id': 'turkey sandwich', 'src': '/static/foodstim60/turkey sandwich.jpg', 'key': 'u', 'origWidth': 409, 'origHeight': 409, 'width': 409, 'height': 409, 'widthPercent': 0.45, 'rescaleHeight': False, 'trialN': 66, 'loaded': True, 'loadedTime': 2135.0999999046326, 'positionName': 'LEFT', 'positionCoords': [574.04, 371.5], 'bid': 5.93}, {'imgObject': {}, 'id': 'fried eggs', 'src': '/static/foodstim60/fried eggs.jpg', 'key': 'i', 'origWidth': 410, 'origHeight': 410, 'width': 410, 'height': 410, 'widthPercent': 0.45, 'rescaleHeight': False, 'trialN': 66, 'loaded': True, 'loadedTime': 2418.899999856949, 'positionName': 'RIGHT', 'positionCoords': [1064.96, 371], 'bid': 5.97}]",127072.09999990463,1669832713444,turkey sandwich,fried eggs,5.93,5.97,0.040000000000000036,turkey sandwich,2038.2000000476837,2038,2038.4000000953674,True,u,129616.29999995232,2544.2000000476837,1669832715988,2544,HRV,HRV_0165,2022-11-30 18:28:55
67,"[{'imgObject': {}, 'id': 'kiwi', 'src': '/static/foodstim60/kiwi.jpg', 'key': 'u', 'origWidth': 410, 'origHeight': 410, 'width': 410, 'height': 410, 'widthPercent': 0.45, 'rescaleHeight': False, 'trialN': 67, 'loaded': True, 'loadedTime': 2237.899999856949, 'positionName': 'LEFT', 'positionCoords': [573.04, 371], 'bid': 5.55}, {'imgObject': {}, 'id': 'froot loops w milk', 'src': '/static/foodstim60/froot loops w milk.jpg', 'key': 'i', 'origWidth': 410, 'origHeight': 410, 'width': 410, 'height': 410, 'widthPercent': 0.45, 'rescaleHeight': False, 'trialN': 67, 'loaded': True, 'loadedTime': 2199, 'positionName': 'RIGHT', 'positionCoords': [1064.96, 371], 'bid': 2.69}]",129616.5,1669832715988,kiwi,froot loops w milk,5.55,2.69,-2.86,kiwi,813.7000000476837,814,814.0,True,u,130936.0,1319.5,1669832717307,1319,HRV,HRV_0165,2022-11-30 18:28:55
68,"[{'imgObject': {}, 'id': 'burrito', 'src': '/static/foodstim60/burrito.jpg', 'key': 'u', 'origWidth': 410, 'origHeight': 410, 'width': 410, 'height': 410, 'widthPercent': 0.45, 'rescaleHeight': False, 'trialN': 68, 'loaded': True, 'loadedTime': 2438.7999999523163, 'positionName': 'LEFT', 'positionCoords': [573.04, 371], 'bid': 7.08}, {'imgObject': {}, 'id': 'rigatoni and sauce', 'src': '/static/foodstim60/rigatoni and sauce.jpg', 'key': 'i', 'origWidth': 410, 'origHeight': 411, 'width': 410, 'height': 411, 'widthPercent': 0.45, 'rescaleHeight': False, 'trialN': 68, 'loaded': True, 'loadedTime': 2203.399999856949, 'positionName': 'RIGHT', 'positionCoords': [1064.96, 370.5], 'bid': 5.33}]",130936.09999990463,1669832717308,burrito,rigatoni and sauce,7.08,5.33,-1.75,burrito,1230.2000000476837,1230,1230.2999999523163,True,u,132671.09999990463,1735.0,1669832719043,1735,HRV,HRV_0165,2022-11-30 18:28:55
69,"[{'imgObject': {}, 'id': 'edamame', 'src': '/static/foodstim60/edamame.jpg', 'key': 'u', 'origWidth': 409, 'origHeight': 410, 'width': 409, 'height': 410, 'widthPercent': 0.45, 'rescaleHeight': False, 'trialN': 69, 'loaded': True, 'loadedTime': 2341.7000000476837, 'positionName': 'LEFT', 'positionCoords': [574.04, 371], 'bid': 5.2700000000000005}, {'imgObject': {}, 'id': 'tacos', 'src': '/static/foodstim60/tacos.jpg', 'key': 'i', 'origWidth': 411, 'origHeight': 411, 'width': 411, 'height': 411, 'widthPercent': 0.45, 'rescaleHeight': False, 'trialN': 69, 'loaded': True, 'loadedTime': 2308.7000000476837, 'positionName': 'RIGHT', 'positionCoords': [1064.96, 370.5], 'bid': 6.22}]",132671.09999990463,1669832719043,edamame,tacos,5.2700000000000005,6.22,0.9499999999999993,tacos,1751.2000000476837,1751,1751.4000000953674,True,i,134928.0,2256.9000000953674,1669832721299,2256,HRV,HRV_0165,2022-11-30 18:28:55
70,"[{'imgObject': {}, 'id': 'apple slices', 'src': '/static/foodstim60/apple slices.jpg', 'key': 'u', 'origWidth': 409, 'origHeight': 410, 'width': 409, 'height': 410, 'widthPercent': 0.45, 'rescaleHeight': False, 'trialN': 70, 'loaded': True, 'loadedTime': 2356.2000000476837, 'positionName': 'LEFT', 'positionCoords': [574.04, 371], 'bid': 1.74}, {'imgObject': {}, 'id': 'mango', 'src': '/static/foodstim60/mango.jpg', 'key': 'i', 'origWidth': 411, 'origHeight': 411, 'width': 411, 'height': 411, 'widthPercent': 0.45, 'rescaleHeight': False, 'trialN': 70, 'loaded': True, 'loadedTime': 2187, 'positionName': 'RIGHT', 'positionCoords': [1064.96, 370.5], 'bid': 5.3500000000000005}]",134928.0,1669832721300,apple slices,mango,1.74,5.3500000000000005,3.6100000000000003,mango,1422.2000000476837,1422,1422.3999998569489,True,i,136856.0,1928.0,1669832723227,1927,HRV,HRV_0165,2022-11-30 18:28:55
71,"[{'imgObject': {}, 'id': 'pear', 'src': '/static/foodstim60/pear.jpg', 'key': 'u', 'origWidth': 411, 'origHeight': 410, 'width': 411, 'height': 410, 'widthPercent': 0.45, 'rescaleHeight': False, 'trialN': 71, 'loaded': True, 'loadedTime': 2384.5, 'positionName': 'LEFT', 'positionCoords': [572.04, 371], 'bid': 2.5}, {'imgObject': {}, 'id': 'cocktailshrimp', 'src': '/static/foodstim60/cocktailshrimp.jpg', 'key': 'i', 'origWidth': 410, 'origHeight': 410, 'width': 410, 'height': 410, 'widthPercent': 0.45, 'rescaleHeight': False, 'trialN': 71, 'loaded': True, 'loadedTime': 2451.7000000476837, 'positionName': 'RIGHT', 'positionCoords': [1064.96, 371], 'bid': 2.11}]",136856.09999990463,1669832723228,pear,cocktailshrimp,2.5,2.11,-0.3900000000000001,pear,846.2999999523163,846,846.4000000953674,True,u,138207.5,1351.4000000953674,1669832724579,1351,HRV,HRV_0165,2022-11-30 18:28:55
72,"[{'imgObject': {}, 'id': 'Tribe humus pita', 'src': '/static/foodstim60/Tribe humus pita.jpg', 'key': 'u', 'origWidth': 411, 'origHeight': 411, 'width': 411, 'height': 411, 'widthPercent': 0.45, 'rescaleHeight': False, 'trialN': 72, 'loaded': True, 'loadedTime': 2452.399999856949, 'positionName': 'LEFT', 'positionCoords': [572.04, 370.5], 'bid': 2.9}, {'imgObject': {}, 'id': 'mashed potato', 'src': '/static/foodstim60/mashed potato.jpg', 'key': 'i', 'origWidth': 409, 'origHeight': 409, 'width': 409, 'height': 409, 'widthPercent': 0.45, 'rescaleHeight': False, 'trialN': 72, 'loaded': True, 'loadedTime': 2402.2000000476837, 'positionName': 'RIGHT', 'positionCoords': [1064.96, 371.5], 'bid': 5.64}]",138207.5,1669832724579,Tribe humus pita,mashed potato,2.9,5.64,2.7399999999999998,mashed potato,1462.5999999046326,1463,1462.7999999523163,True,i,140175.39999985695,1967.8999998569489,1669832726547,1968,HRV,HRV_0165,2022-11-30 18:28:55
73,"[{'imgObject': {}, 'id': 'seaweed', 'src': '/static/foodstim60/seaweed.jpg', 'key': 'u', 'origWidth': 410, 'origHeight': 410, 'width': 410, 'height': 410, 'widthPercent': 0.45, 'rescaleHeight': False, 'trialN': 73, 'loaded': True, 'loadedTime': 2272.2999999523163, 'positionName': 'LEFT', 'positionCoords': [573.04, 371], 'bid': 0.39}, {'imgObject': {}, 'id': 'lox', 'src': '/static/foodstim60/lox.jpg', 'key': 'i', 'origWidth': 410, 'origHeight': 411, 'width': 410, 'height': 411, 'widthPercent': 0.45, 'rescaleHeight': False, 'trialN': 73, 'loaded': True, 'loadedTime': 2367.5999999046326, 'positionName': 'RIGHT', 'positionCoords': [1064.96, 370.5], 'bid': 0.31}]",140175.5,1669832726547,seaweed,lox,0.39,0.31,-0.08000000000000002,lox,1430.7999999523163,1431,1430.8999998569489,True,i,142111.59999990463,1936.0999999046326,1669832728483,1936,HRV,HRV_0165,2022-11-30 18:28:55
74,"[{'imgObject': {}, 'id': 'shreddedwheatwithmilk', 'src': '/static/foodstim60/shreddedwheatwithmilk.jpg', 'key': 'u', 'origWidth': 410, 'origHeight': 410, 'width': 410, 'height': 410, 'widthPercent': 0.45, 'rescaleHeight': False, 'trialN': 74, 'loaded': True, 'loadedTime': 2444.7000000476837, 'positionName': 'LEFT', 'positionCoords': [573.04, 371], 'bid': 5.44}, {'imgObject': {}, 'id': 'salad w chicken', 'src': '/static/foodstim60/salad w chicken.jpg', 'key': 'i', 'origWidth': 411, 'origHeight': 411, 'width': 411, 'height': 411, 'widthPercent': 0.45, 'rescaleHeight': False, 'trialN': 74, 'loaded': True, 'loadedTime': 2426.7000000476837, 'positionName': 'RIGHT', 'positionCoords': [1064.96, 370.5], 'bid': 7.6}]",142111.70000004768,1669832728483,shreddedwheatwithmilk,salad w chicken,5.44,7.6,2.1599999999999993,salad w chicken,1238.5,1239,1238.6999998092651,True,i,143855.70000004768,1744.0,1669832730227,1744,HRV,HRV_0165,2022-11-30 18:28:55
75,"[{'imgObject': {}, 'id': 'apple slices', 'src': '/static/foodstim60/apple slices.jpg', 'key': 'u', 'origWidth': 409, 'origHeight': 410, 'width': 409, 'height': 410, 'widthPercent': 0.45, 'rescaleHeight': False, 'trialN': 75, 'loaded': True, 'loadedTime': 2355.399999856949, 'positionName': 'LEFT', 'positionCoords': [574.04, 371], 'bid': 1.74}, {'imgObject': {}, 'id': 'pear', 'src': '/static/foodstim60/pear.jpg', 'key': 'i', 'origWidth': 411, 'origHeight': 410, 'width': 411, 'height': 410, 'widthPercent': 0.45, 'rescaleHeight': False, 'trialN': 75, 'loaded': True, 'loadedTime': 2380.2999999523163, 'positionName': 'RIGHT', 'positionCoords': [1064.96, 371], 'bid': 2.5}]",143855.70000004768,1669832730227,apple slices,pear,1.74,2.5,0.76,pear,1174.5,1175,1174.5999999046326,True,i,145535.59999990463,1679.8999998569489,1669832731907,1680,HRV,HRV_0165,2022-11-30 18:28:55
76,"[{'imgObject': {}, 'id': 'rigatoni', 'src': '/static/foodstim60/rigatoni.jpg', 'key': 'u', 'origWidth': 411, 'origHeight': 411, 'width': 411, 'height': 411, 'widthPercent': 0.45, 'rescaleHeight': False, 'trialN': 76, 'loaded': True, 'loadedTime': 2314.2000000476837, 'positionName': 'LEFT', 'positionCoords': [572.04, 370.5], 'bid': 2.72}, {'imgObject': {}, 'id': 'sushi w_condiments', 'src': '/static/foodstim60/sushi w_condiments.jpg', 'key': 'i', 'origWidth': 410, 'origHeight': 410, 'width': 410, 'height': 410, 'widthPercent': 0.45, 'rescaleHeight': False, 'trialN': 76, 'loaded': True, 'loadedTime': 2375.399999856949, 'positionName': 'RIGHT', 'positionCoords': [1064.96, 371], 'bid': 2.75}]",145535.59999990463,1669832731907,rigatoni,sushi w_condiments,2.72,2.75,0.029999999999999805,sushi w_condiments,1238.7000000476837,1238,1238.9000000953674,True,i,147280.5,1744.9000000953674,1669832733651,1744,HRV,HRV_0165,2022-11-30 18:28:55
77,"[{'imgObject': {}, 'id': 'cheerios', 'src': '/static/foodstim60/cheerios.jpg', 'key': 'u', 'origWidth': 409, 'origHeight': 410, 'width': 409, 'height': 410, 'widthPercent': 0.45, 'rescaleHeight': False, 'trialN': 77, 'loaded': True, 'loadedTime': 2264.7999999523163, 'positionName': 'LEFT', 'positionCoords': [574.04, 371], 'bid': 4.29}, {'imgObject': {}, 'id': 'eggs', 'src': '/static/foodstim60/eggs.jpg', 'key': 'i', 'origWidth': 409, 'origHeight': 409, 'width': 409, 'height': 409, 'widthPercent': 0.45, 'rescaleHeight': False, 'trialN': 77, 'loaded': True, 'loadedTime': 2389.7999999523163, 'positionName': 'RIGHT', 'positionCoords': [1064.96, 371.5], 'bid': 3.4}]",147280.59999990463,1669832733651,cheerios,eggs,4.29,3.4,-0.8900000000000001,eggs,821.6000001430511,822,821.7999999523163,True,i,148608.0,1327.4000000953674,1669832734979,1328,HRV,HRV_0165,2022-11-30 18:28:55
78,"[{'imgObject': {}, 'id': 'shreddedwheatwithmilk', 'src': '/static/foodstim60/shreddedwheatwithmilk.jpg', 'key': 'u', 'origWidth': 410, 'origHeight': 410, 'width': 410, 'height': 410, 'widthPercent': 0.45, 'rescaleHeight': False, 'trialN': 78, 'loaded': True, 'loadedTime': 2444, 'positionName': 'LEFT', 'positionCoords': [573.04, 371], 'bid': 5.44}, {'imgObject': {}, 'id': 'yogurt no spoon', 'src': '/static/foodstim60/yogurt no spoon.jpg', 'key': 'i', 'origWidth': 411, 'origHeight': 410, 'width': 411, 'height': 410, 'widthPercent': 0.45, 'rescaleHeight': False, 'trialN': 78, 'loaded': True, 'loadedTime': 2389.5999999046326, 'positionName': 'RIGHT', 'positionCoords': [1064.96, 371], 'bid': 5.5}]",148608.09999990463,1669832734979,shreddedwheatwithmilk,yogurt no spoon,5.44,5.5,0.05999999999999961,yogurt no spoon,1078.1000001430511,1078,1078.4000000953674,True,i,150191.59999990463,1583.5,1669832736562,1583,HRV,HRV_0165,2022-11-30 18:28:55
79,"[{'imgObject': {}, 'id': 'veggieswithdip', 'src': '/static/foodstim60/veggieswithdip.jpg', 'key': 'u', 'origWidth': 409, 'origHeight': 409, 'width': 409, 'height': 409, 'widthPercent': 0.45, 'rescaleHeight': False, 'trialN': 79, 'loaded': True, 'loadedTime': 2319.899999856949, 'positionName': 'LEFT', 'positionCoords': [574.04, 371.5], 'bid': 1.09}, {'imgObject': {}, 'id': 'cherries', 'src': '/static/foodstim60/cherries.jpg', 'key': 'i', 'origWidth': 410, 'origHeight': 411, 'width': 410, 'height': 411, 'widthPercent': 0.45, 'rescaleHeight': False, 'trialN': 79, 'loaded': True, 'loadedTime': 2457.2000000476837, 'positionName': 'RIGHT', 'positionCoords': [1064.96, 370.5], 'bid': 5.21}]",150191.59999990463,1669832736562,veggieswithdip,cherries,1.09,5.21,4.12,cherries,878.6000001430511,879,878.7999999523163,True,i,151575.09999990463,1383.5,1669832737946,1384,HRV,HRV_0165,2022-11-30 18:28:55
80,"[{'imgObject': {}, 'id': 'luckycharms', 'src': '/static/foodstim60/luckycharms.jpg', 'key': 'u', 'origWidth': 410, 'origHeight': 409, 'width': 410, 'height': 409, 'widthPercent': 0.45, 'rescaleHeight': False, 'trialN': 80, 'loaded': True, 'loadedTime': 2414.2000000476837, 'positionName': 'LEFT', 'positionCoords': [573.04, 371.5], 'bid': 7.1000000000000005}, {'imgObject': {}, 'id': 'mango', 'src': '/static/foodstim60/mango.jpg', 'key': 'i', 'origWidth': 411, 'origHeight': 411, 'width': 411, 'height': 411, 'widthPercent': 0.45, 'rescaleHeight': False, 'trialN': 80, 'loaded': True, 'loadedTime': 2181.399999856949, 'positionName': 'RIGHT', 'positionCoords': [1064.96, 370.5], 'bid': 5.3500000000000005}]",151575.20000004768,1669832737946,luckycharms,mango,7.1000000000000005,5.3500000000000005,-1.75,luckycharms,1727.1999998092651,1727,1727.3999998569489,True,u,153808.70000004768,2233.5,1669832740180,2234,HRV,HRV_0165,2022-11-30 18:28:55
81,"[{'imgObject': {}, 'id': 'yogurt no spoon', 'src': '/static/foodstim60/yogurt no spoon.jpg', 'key': 'u', 'origWidth': 411, 'origHeight': 410, 'width': 411, 'height': 410, 'widthPercent': 0.45, 'rescaleHeight': False, 'trialN': 81, 'loaded': True, 'loadedTime': 2385.399999856949, 'positionName': 'LEFT', 'positionCoords': [572.04, 371], 'bid': 5.5}, {'imgObject': {}, 'id': 'mac & cheese', 'src': '/static/foodstim60/mac & cheese.jpg', 'key': 'i', 'origWidth': 410, 'origHeight': 410, 'width': 410, 'height': 410, 'widthPercent': 0.45, 'rescaleHeight': False, 'trialN': 81, 'loaded': True, 'loadedTime': 2419.7999999523163, 'positionName': 'RIGHT', 'positionCoords': [1064.96, 371], 'bid': 7.66}]",153808.79999995232,1669832740180,yogurt no spoon,mac & cheese,5.5,7.66,2.16,mac & cheese,1341.5,1341,1341.5999999046326,True,i,155655.09999990463,1846.2999999523163,1669832742026,1846,HRV,HRV_0165,2022-11-30 18:28:55
82,"[{'imgObject': {}, 'id': 'veggieswithdip', 'src': '/static/foodstim60/veggieswithdip.jpg', 'key': 'u', 'origWidth': 409, 'origHeight': 409, 'width': 409, 'height': 409, 'widthPercent': 0.45, 'rescaleHeight': False, 'trialN': 82, 'loaded': True, 'loadedTime': 2320.5, 'positionName': 'LEFT', 'positionCoords': [574.04, 371.5], 'bid': 1.09}, {'imgObject': {}, 'id': 'rigatoni', 'src': '/static/foodstim60/rigatoni.jpg', 'key': 'i', 'origWidth': 411, 'origHeight': 411, 'width': 411, 'height': 411, 'widthPercent': 0.45, 'rescaleHeight': False, 'trialN': 82, 'loaded': True, 'loadedTime': 2314, 'positionName': 'RIGHT', 'positionCoords': [1064.96, 370.5], 'bid': 2.72}]",155655.29999995232,1669832742026,veggieswithdip,rigatoni,1.09,2.72,1.6300000000000001,rigatoni,927.0,927,927.0,True,i,157087.89999985695,1432.5999999046326,1669832743459,1433,HRV,HRV_0165,2022-11-30 18:28:55
83,"[{'imgObject': {}, 'id': 'eggs', 'src': '/static/foodstim60/eggs.jpg', 'key': 'u', 'origWidth': 409, 'origHeight': 409, 'width': 409, 'height': 409, 'widthPercent': 0.45, 'rescaleHeight': False, 'trialN': 83, 'loaded': True, 'loadedTime': 2390.5, 'positionName': 'LEFT', 'positionCoords': [574.04, 371.5], 'bid': 3.4}, {'imgObject': {}, 'id': 'luckycharms', 'src': '/static/foodstim60/luckycharms.jpg', 'key': 'i', 'origWidth': 410, 'origHeight': 409, 'width': 410, 'height': 409, 'widthPercent': 0.45, 'rescaleHeight': False, 'trialN': 83, 'loaded': True, 'loadedTime': 2414.5999999046326, 'positionName': 'RIGHT', 'positionCoords': [1064.96, 371.5], 'bid': 7.1000000000000005}]",157088.0,1669832743459,eggs,luckycharms,3.4,7.1000000000000005,3.7000000000000006,luckycharms,1270.2999999523163,1270,1270.3999998569489,True,i,158863.20000004768,1775.2000000476837,1669832745234,1775,HRV,HRV_0165,2022-11-30 18:28:55
84,"[{'imgObject': {}, 'id': 'Tribe humus pita', 'src': '/static/foodstim60/Tribe humus pita.jpg', 'key': 'u', 'origWidth': 411, 'origHeight': 411, 'width': 411, 'height': 411, 'widthPercent': 0.45, 'rescaleHeight': False, 'trialN': 84, 'loaded': True, 'loadedTime': 2451.7999999523163, 'positionName': 'LEFT', 'positionCoords': [572.04, 370.5], 'bid': 2.9}, {'imgObject': {}, 'id': 'banana', 'src': '/static/foodstim60/banana.jpg', 'key': 'i', 'origWidth': 410, 'origHeight': 410, 'width': 410, 'height': 410, 'widthPercent': 0.45, 'rescaleHeight': False, 'trialN': 84, 'loaded': True, 'loadedTime': 2361.2000000476837, 'positionName': 'RIGHT', 'positionCoords': [1064.96, 371], 'bid': 2.94}]",158863.29999995232,1669832745234,Tribe humus pita,banana,2.9,2.94,0.040000000000000036,Tribe humus pita,1062.9000000953674,1063,1063.0999999046326,True,u,160432.29999995232,1569.0,1669832746803,1569,HRV,HRV_0165,2022-11-30 18:28:55
85,"[{'imgObject': {}, 'id': 'turkey sandwich', 'src': '/static/foodstim60/turkey sandwich.jpg', 'key': 'u', 'origWidth': 409, 'origHeight': 409, 'width': 409, 'height': 409, 'widthPercent': 0.45, 'rescaleHeight': False, 'trialN': 85, 'loaded': True, 'loadedTime': 2142.7000000476837, 'positionName': 'LEFT', 'positionCoords': [574.04, 371.5], 'bid': 5.93}, {'imgObject': {}, 'id': 'luckycharms', 'src': '/static/foodstim60/luckycharms.jpg', 'key': 'i', 'origWidth': 410, 'origHeight': 409, 'width': 410, 'height': 409, 'widthPercent': 0.45, 'rescaleHeight': False, 'trialN': 85, 'loaded': True, 'loadedTime': 2414.5, 'positionName': 'RIGHT', 'positionCoords': [1064.96, 371.5], 'bid': 7.1000000000000005}]",160432.5,1669832746803,turkey sandwich,luckycharms,5.93,7.1000000000000005,1.1700000000000008,luckycharms,1053.7000000476837,1054,1053.8999998569489,True,i,161991.79999995232,1559.2999999523163,1669832748363,1560,HRV,HRV_0165,2022-11-30 18:28:55
86,"[{'imgObject': {}, 'id': 'corn cob', 'src': '/static/foodstim60/corn cob.jpg', 'key': 'u', 'origWidth': 411, 'origHeight': 411, 'width': 411, 'height': 411, 'widthPercent': 0.45, 'rescaleHeight': False, 'trialN': 86, 'loaded': True, 'loadedTime': 2152.5, 'positionName': 'LEFT', 'positionCoords': [572.04, 370.5], 'bid': 2.64}, {'imgObject': {}, 'id': 'bagel plain', 'src': '/static/foodstim60/bagel plain.jpg', 'key': 'i', 'origWidth': 410, 'origHeight': 410, 'width': 410, 'height': 410, 'widthPercent': 0.45, 'rescaleHeight': False, 'trialN': 86, 'loaded': True, 'loadedTime': 2336.899999856949, 'positionName': 'RIGHT', 'positionCoords': [1064.96, 371], 'bid': 2.9}]",161991.89999985695,1669832748363,corn cob,bagel plain,2.64,2.9,0.2599999999999998,corn cob,2870.300000190735,2870,2870.5,True,u,165368.0,3376.100000143051,1669832751739,3376,HRV,HRV_0165,2022-11-30 18:28:55
87,"[{'imgObject': {}, 'id': 'mac & cheese', 'src': '/static/foodstim60/mac & cheese.jpg', 'key': 'u', 'origWidth': 410, 'origHeight': 410, 'width': 410, 'height': 410, 'widthPercent': 0.45, 'rescaleHeight': False, 'trialN': 87, 'loaded': True, 'loadedTime': 2419.7000000476837, 'positionName': 'LEFT', 'positionCoords': [573.04, 371], 'bid': 7.66}, {'imgObject': {}, 'id': 'tacos', 'src': '/static/foodstim60/tacos.jpg', 'key': 'i', 'origWidth': 411, 'origHeight': 411, 'width': 411, 'height': 411, 'widthPercent': 0.45, 'rescaleHeight': False, 'trialN': 87, 'loaded': True, 'loadedTime': 2303.7999999523163, 'positionName': 'RIGHT', 'positionCoords': [1064.96, 370.5], 'bid': 6.22}]",165368.20000004768,1669832751739,mac & cheese,tacos,7.66,6.22,-1.4400000000000004,mac & cheese,1157.8999998569489,1158,1158.1999998092651,True,u,167032.09999990463,1663.8999998569489,1669832753403,1664,HRV,HRV_0165,2022-11-30 18:28:55
88,"[{'imgObject': {}, 'id': 'kiwi', 'src': '/static/foodstim60/kiwi.jpg', 'key': 'u', 'origWidth': 410, 'origHeight': 410, 'width': 410, 'height': 410, 'widthPercent': 0.45, 'rescaleHeight': False, 'trialN': 88, 'loaded': True, 'loadedTime': 2238.2000000476837, 'positionName': 'LEFT', 'positionCoords': [573.04, 371], 'bid': 5.55}, {'imgObject': {}, 'id': 'chicken nuggets2', 'src': '/static/foodstim60/chicken nuggets2.jpg', 'key': 'i', 'origWidth': 410, 'origHeight': 409, 'width': 410, 'height': 409, 'widthPercent': 0.45, 'rescaleHeight': False, 'trialN': 88, 'loaded': True, 'loadedTime': 2450.5, 'positionName': 'RIGHT', 'positionCoords': [1064.96, 371.5], 'bid': 8.82}]",167032.09999990463,1669832753403,kiwi,chicken nuggets2,5.55,8.82,3.2700000000000005,chicken nuggets2,622.1000001430511,622,622.2999999523163,True,i,168160.09999990463,1128.0,1669832754531,1128,HRV,HRV_0165,2022-11-30 18:28:55
89,"[{'imgObject': {}, 'id': 'eggs', 'src': '/static/foodstim60/eggs.jpg', 'key': 'u', 'origWidth': 409, 'origHeight': 409, 'width': 409, 'height': 409, 'widthPercent': 0.45, 'rescaleHeight': False, 'trialN': 89, 'loaded': True, 'loadedTime': 2393.2000000476837, 'positionName': 'LEFT', 'positionCoords': [574.04, 371.5], 'bid': 3.4}, {'imgObject': {}, 'id': 'raisin bran w milk', 'src': '/static/foodstim60/raisin bran w milk.jpg', 'key': 'i', 'origWidth': 411, 'origHeight': 411, 'width': 411, 'height': 411, 'widthPercent': 0.45, 'rescaleHeight': False, 'trialN': 89, 'loaded': True, 'loadedTime': 2438.0999999046326, 'positionName': 'RIGHT', 'positionCoords': [1064.96, 370.5], 'bid': 3.45}]",168160.29999995232,1669832754531,eggs,raisin bran w milk,3.4,3.45,0.050000000000000266,eggs,1021.9000000953674,1022,1022.0999999046326,True,u,169688.0,1527.7000000476837,1669832756059,1528,HRV,HRV_0165,2022-11-30 18:28:55
90,"[{'imgObject': {}, 'id': 'mac & cheese', 'src': '/static/foodstim60/mac & cheese.jpg', 'key': 'u', 'origWidth': 410, 'origHeight': 410, 'width': 410, 'height': 410, 'widthPercent': 0.45, 'rescaleHeight': False, 'trialN': 90, 'loaded': True, 'loadedTime': 2419.5999999046326, 'positionName': 'LEFT', 'positionCoords': [573.04, 371], 'bid': 7.66}, {'imgObject': {}, 'id': 'mashed potato', 'src': '/static/foodstim60/mashed potato.jpg', 'key': 'i', 'origWidth': 409, 'origHeight': 409, 'width': 409, 'height': 409, 'widthPercent': 0.45, 'rescaleHeight': False, 'trialN': 90, 'loaded': True, 'loadedTime': 2402.899999856949, 'positionName': 'RIGHT', 'positionCoords': [1064.96, 371.5], 'bid': 5.64}]",194504.79999995232,1669832780876,mac & cheese,mashed potato,7.66,5.64,-2.0200000000000005,mac & cheese,941.4000000953674,941,941.5,True,u,195952.29999995232,1447.5,1669832782323,1447,HRV,HRV_0165,2022-11-30 18:28:55
91,"[{'imgObject': {}, 'id': 'roastedpotatoes', 'src': '/static/foodstim60/roastedpotatoes.jpg', 'key': 'u', 'origWidth': 409, 'origHeight': 410, 'width': 409, 'height': 410, 'widthPercent': 0.45, 'rescaleHeight': False, 'trialN': 91, 'loaded': True, 'loadedTime': 2409.399999856949, 'positionName': 'LEFT', 'positionCoords': [574.04, 371], 'bid': 7.65}, {'imgObject': {}, 'id': 'chicken nuggets2', 'src': '/static/foodstim60/chicken nuggets2.jpg', 'key': 'i', 'origWidth': 410, 'origHeight': 409, 'width': 410, 'height': 409, 'widthPercent': 0.45, 'rescaleHeight': False, 'trialN': 91, 'loaded': True, 'loadedTime': 2450.2000000476837, 'positionName': 'RIGHT', 'positionCoords': [1064.96, 371.5], 'bid': 8.82}]",195952.39999985695,1669832782323,roastedpotatoes,chicken nuggets2,7.65,8.82,1.17,chicken nuggets2,1237.6000001430511,1238,1237.9000000953674,True,i,197696.29999995232,1743.9000000953674,1669832784067,1744,HRV,HRV_0165,2022-11-30 18:28:55
92,"[{'imgObject': {}, 'id': 'shreddedwheatwithmilk', 'src': '/static/foodstim60/shreddedwheatwithmilk.jpg', 'key': 'u', 'origWidth': 410, 'origHeight': 410, 'width': 410, 'height': 410, 'widthPercent': 0.45, 'rescaleHeight': False, 'trialN': 92, 'loaded': True, 'loadedTime': 2444.7000000476837, 'positionName': 'LEFT', 'positionCoords': [573.04, 371], 'bid': 5.44}, {'imgObject': {}, 'id': 'steak', 'src': '/static/foodstim60/steak.jpg', 'key': 'i', 'origWidth': 410, 'origHeight': 410, 'width': 410, 'height': 410, 'widthPercent': 0.45, 'rescaleHeight': False, 'trialN': 92, 'loaded': True, 'loadedTime': 2251.0999999046326, 'positionName': 'RIGHT', 'positionCoords': [1064.96, 371], 'bid': 5.63}]",197696.39999985695,1669832784067,shreddedwheatwithmilk,steak,5.44,5.63,0.1899999999999995,steak,709.9000000953674,710,710.0,True,i,198912.39999985695,1216.0,1669832785283,1216,HRV,HRV_0165,2022-11-30 18:28:55
93,"[{'imgObject': {}, 'id': 'blackbeanswithrice', 'src': '/static/foodstim60/blackbeanswithrice.jpg', 'key': 'u', 'origWidth': 410, 'origHeight': 410, 'width': 410, 'height': 410, 'widthPercent': 0.45, 'rescaleHeight': False, 'trialN': 93, 'loaded': True, 'loadedTime': 2330.5, 'positionName': 'LEFT', 'positionCoords': [573.04, 371], 'bid': 1.32}, {'imgObject': {}, 'id': 'strawberries', 'src': '/static/foodstim60/strawberries.jpg', 'key': 'i', 'origWidth': 410, 'origHeight': 410, 'width': 410, 'height': 410, 'widthPercent': 0.45, 'rescaleHeight': False, 'trialN': 93, 'loaded': True, 'loadedTime': 2163.399999856949, 'positionName': 'RIGHT', 'positionCoords': [1064.96, 371], 'bid': 5.23}]",198912.39999985695,1669832785283,blackbeanswithrice,strawberries,1.32,5.23,3.91,strawberries,1621.8000001907349,1622,1621.9000000953674,True,i,201039.09999990463,2126.7000000476837,1669832787410,2127,HRV,HRV_0165,2022-11-30 18:28:55
94,"[{'imgObject': {}, 'id': 'chicken nuggets2', 'src': '/static/foodstim60/chicken nuggets2.jpg', 'key': 'u', 'origWidth': 410, 'origHeight': 409, 'width': 410, 'height': 409, 'widthPercent': 0.45, 'rescaleHeight': False, 'trialN': 94, 'loaded': True, 'loadedTime': 2449.5999999046326, 'positionName': 'LEFT', 'positionCoords': [573.04, 371.5], 'bid': 8.82}, {'imgObject': {}, 'id': 'chickenfingers', 'src': '/static/foodstim60/chickenfingers.jpg', 'key': 'i', 'origWidth': 410, 'origHeight': 410, 'width': 410, 'height': 410, 'widthPercent': 0.45, 'rescaleHeight': False, 'trialN': 94, 'loaded': True, 'loadedTime': 2425.899999856949, 'positionName': 'RIGHT', 'positionCoords': [1064.96, 371], 'bid': 8.9}]",201039.20000004768,1669832787410,chicken nuggets2,chickenfingers,8.82,8.9,0.08000000000000007,chickenfingers,799.0,799,799.0999999046326,True,i,202344.09999990463,1304.8999998569489,1669832788715,1305,HRV,HRV_0165,2022-11-30 18:28:55
95,"[{'imgObject': {}, 'id': 'blueberries', 'src': '/static/foodstim60/blueberries.jpg', 'key': 'u', 'origWidth': 411, 'origHeight': 411, 'width': 411, 'height': 411, 'widthPercent': 0.45, 'rescaleHeight': False, 'trialN': 95, 'loaded': True, 'loadedTime': 2260.5999999046326, 'positionName': 'LEFT', 'positionCoords': [572.04, 370.5], 'bid': 5.62}, {'imgObject': {}, 'id': 'bagel and cc', 'src': '/static/foodstim60/bagel and cc.jpg', 'key': 'i', 'origWidth': 410, 'origHeight': 410, 'width': 410, 'height': 410, 'widthPercent': 0.45, 'rescaleHeight': False, 'trialN': 95, 'loaded': True, 'loadedTime': 2319.5999999046326, 'positionName': 'RIGHT', 'positionCoords': [1064.96, 371], 'bid': 5.61}]",202344.20000004768,1669832788715,blueberries,bagel and cc,5.62,5.61,-0.009999999999999787,bagel and cc,973.8999998569489,974,974.0,True,i,203823.70000004768,1479.5,1669832790194,1479,HRV,HRV_0165,2022-11-30 18:28:55
96,"[{'imgObject': {}, 'id': 'Tribe humus pita', 'src': '/static/foodstim60/Tribe humus pita.jpg', 'key': 'u', 'origWidth': 411, 'origHeight': 411, 'width': 411, 'height': 411, 'widthPercent': 0.45, 'rescaleHeight': False, 'trialN': 96, 'loaded': True, 'loadedTime': 2452.2999999523163, 'positionName': 'LEFT', 'positionCoords': [572.04, 370.5], 'bid': 2.9}, {'imgObject': {}, 'id': 'orange slices', 'src': '/static/foodstim60/orange slices.jpg', 'key': 'i', 'origWidth': 409, 'origHeight': 410, 'width': 409, 'height': 410, 'widthPercent': 0.45, 'rescaleHeight': False, 'trialN': 96, 'loaded': True, 'loadedTime': 2192.2999999523163, 'positionName': 'RIGHT', 'positionCoords': [1064.96, 371], 'bid': 1.36}]",203823.79999995232,1669832790195,Tribe humus pita,orange slices,2.9,1.36,-1.5399999999999998,Tribe humus pita,1142.4000000953674,1142,1142.5999999046326,True,u,205470.89999985695,1647.0999999046326,1669832791842,1647,HRV,HRV_0165,2022-11-30 18:28:55
97,"[{'imgObject': {}, 'id': 'hotdog w must', 'src': '/static/foodstim60/hotdog w must.jpg', 'key': 'u', 'origWidth': 409, 'origHeight': 409, 'width': 409, 'height': 409, 'widthPercent': 0.45, 'rescaleHeight': False, 'trialN': 97, 'loaded': True, 'loadedTime': 2167.899999856949, 'positionName': 'LEFT', 'positionCoords': [574.04, 371.5], 'bid': 6.22}, {'imgObject': {}, 'id': 'shreddedwheatwithmilk', 'src': '/static/foodstim60/shreddedwheatwithmilk.jpg', 'key': 'i', 'origWidth': 410, 'origHeight': 410, 'width': 410, 'height': 410, 'widthPercent': 0.45, 'rescaleHeight': False, 'trialN': 97, 'loaded': True, 'loadedTime': 2444.5999999046326, 'positionName': 'RIGHT', 'positionCoords': [1064.96, 371], 'bid': 5.44}]",205471.09999990463,1669832791842,hotdog w must,shreddedwheatwithmilk,6.22,5.44,-0.7799999999999994,hotdog w must,966.9000000953674,967,967.1000001430511,True,u,206944.20000004768,1473.1000001430511,1669832793316,1474,HRV,HRV_0165,2022-11-30 18:28:55
98,"[{'imgObject': {}, 'id': 'hashbrowns', 'src': '/static/foodstim60/hashbrowns.jpg', 'key': 'u', 'origWidth': 411, 'origHeight': 410, 'width': 411, 'height': 410, 'widthPercent': 0.45, 'rescaleHeight': False, 'trialN': 98, 'loaded': True, 'loadedTime': 2450.5, 'positionName': 'LEFT', 'positionCoords': [572.04, 371], 'bid': 3.24}, {'imgObject': {}, 'id': 'tacos', 'src': '/static/foodstim60/tacos.jpg', 'key': 'i', 'origWidth': 411, 'origHeight': 411, 'width': 411, 'height': 411, 'widthPercent': 0.45, 'rescaleHeight': False, 'trialN': 98, 'loaded': True, 'loadedTime': 2308.399999856949, 'positionName': 'RIGHT', 'positionCoords': [1064.96, 370.5], 'bid': 6.22}]",206944.29999995232,1669832793316,hashbrowns,tacos,3.24,6.22,2.9799999999999995,tacos,2398.0999999046326,2398,2398.2999999523163,True,i,209847.89999985695,2903.5999999046326,1669832796219,2903,HRV,HRV_0165,2022-11-30 18:28:55
99,"[{'imgObject': {}, 'id': 'apple slices', 'src': '/static/foodstim60/apple slices.jpg', 'key': 'u', 'origWidth': 409, 'origHeight': 410, 'width': 409, 'height': 410, 'widthPercent': 0.45, 'rescaleHeight': False, 'trialN': 99, 'loaded': True, 'loadedTime': 2359.7000000476837, 'positionName': 'LEFT', 'positionCoords': [574.04, 371], 'bid': 1.74}, {'imgObject': {}, 'id': 'eggs', 'src': '/static/foodstim60/eggs.jpg', 'key': 'i', 'origWidth': 409, 'origHeight': 409, 'width': 409, 'height': 409, 'widthPercent': 0.45, 'rescaleHeight': False, 'trialN': 99, 'loaded': True, 'loadedTime': 2390.2000000476837, 'positionName': 'RIGHT', 'positionCoords': [1064.96, 371.5], 'bid': 3.4}]",209848.0,1669832796219,apple slices,eggs,1.74,3.4,1.66,eggs,1878.0999999046326,1879,1878.2999999523163,True,i,212232.39999985695,2384.399999856949,1669832798604,2385,HRV,HRV_0165,2022-11-30 18:28:55
100,"[{'imgObject': {}, 'id': 'bagel and cc', 'src': '/static/foodstim60/bagel and cc.jpg', 'key': 'u', 'origWidth': 410, 'origHeight': 410, 'width': 410, 'height': 410, 'widthPercent': 0.45, 'rescaleHeight': False, 'trialN': 100, 'loaded': True, 'loadedTime': 2319.7999999523163, 'positionName': 'LEFT', 'positionCoords': [573.04, 371], 'bid': 5.61}, {'imgObject': {}, 'id': 'chickenfingers', 'src': '/static/foodstim60/chickenfingers.jpg', 'key': 'i', 'origWidth': 410, 'origHeight': 410, 'width': 410, 'height': 410, 'widthPercent': 0.45, 'rescaleHeight': False, 'trialN': 100, 'loaded': True, 'loadedTime': 2425.7000000476837, 'positionName': 'RIGHT', 'positionCoords': [1064.96, 371], 'bid': 8.9}]",212232.39999985695,1669832798604,bagel and cc,chickenfingers,5.61,8.9,3.29,chickenfingers,1125.8000001907349,1126,1126.0,True,i,213864.29999995232,1631.9000000953674,1669832800236,1632,HRV,HRV_0165,2022-11-30 18:28:55
101,"[{'imgObject': {}, 'id': 'rigatoni', 'src': '/static/foodstim60/rigatoni.jpg', 'key': 'u', 'origWidth': 411, 'origHeight': 411, 'width': 411, 'height': 411, 'widthPercent': 0.45, 'rescaleHeight': False, 'trialN': 101, 'loaded': True, 'loadedTime': 2313.899999856949, 'positionName': 'LEFT', 'positionCoords': [572.04, 370.5], 'bid': 2.72}, {'imgObject': {}, 'id': 'grilled chicken strips', 'src': '/static/foodstim60/grilled chicken strips.jpg', 'key': 'i', 'origWidth': 410, 'origHeight': 411, 'width': 410, 'height': 411, 'widthPercent': 0.45, 'rescaleHeight': False, 'trialN': 101, 'loaded': True, 'loadedTime': 2214.399999856949, 'positionName': 'RIGHT', 'positionCoords': [1064.96, 370.5], 'bid': 4.23}]",213864.29999995232,1669832800236,rigatoni,grilled chicken strips,2.72,4.23,1.5100000000000002,grilled chicken strips,1750.0,1750,1750.0999999046326,True,i,216120.39999985695,2256.0999999046326,1669832802492,2256,HRV,HRV_0165,2022-11-30 18:28:55
102,"[{'imgObject': {}, 'id': 'salmon', 'src': '/static/foodstim60/salmon.jpg', 'key': 'u', 'origWidth': 410, 'origHeight': 409, 'width': 410, 'height': 409, 'widthPercent': 0.45, 'rescaleHeight': False, 'trialN': 102, 'loaded': True, 'loadedTime': 2287.5, 'positionName': 'LEFT', 'positionCoords': [573.04, 371.5], 'bid': 3.12}, {'imgObject': {}, 'id': 'hashbrowns', 'src': '/static/foodstim60/hashbrowns.jpg', 'key': 'i', 'origWidth': 411, 'origHeight': 410, 'width': 411, 'height': 410, 'widthPercent': 0.45, 'rescaleHeight': False, 'trialN': 102, 'loaded': True, 'loadedTime': 2451, 'positionName': 'RIGHT', 'positionCoords': [1064.96, 371], 'bid': 3.24}]",216120.39999985695,1669832802492,salmon,hashbrowns,3.12,3.24,0.1200000000000001,hashbrowns,1101.7000000476837,1102,1101.9000000953674,True,i,217728.09999990463,1607.7000000476837,1669832804100,1608,HRV,HRV_0165,2022-11-30 18:28:55
103,"[{'imgObject': {}, 'id': 'cherries', 'src': '/static/foodstim60/cherries.jpg', 'key': 'u', 'origWidth': 410, 'origHeight': 411, 'width': 410, 'height': 411, 'widthPercent': 0.45, 'rescaleHeight': False, 'trialN': 103, 'loaded': True, 'loadedTime': 2457.2999999523163, 'positionName': 'LEFT', 'positionCoords': [573.04, 370.5], 'bid': 5.21}, {'imgObject': {}, 'id': 'fried eggs', 'src': '/static/foodstim60/fried eggs.jpg', 'key': 'i', 'origWidth': 410, 'origHeight': 410, 'width': 410, 'height': 410, 'widthPercent': 0.45, 'rescaleHeight': False, 'trialN': 103, 'loaded': True, 'loadedTime': 2418.5999999046326, 'positionName': 'RIGHT', 'positionCoords': [1064.96, 371], 'bid': 5.97}]",217728.20000004768,1669832804100,cherries,fried eggs,5.21,5.97,0.7599999999999998,cherries,2101.899999856949,2102,2102.0,True,u,220335.0,2606.7999999523163,1669832806706,2606,HRV,HRV_0165,2022-11-30 18:28:55
104,"[{'imgObject': {}, 'id': 'Grapes', 'src': '/static/foodstim60/Grapes.jpg', 'key': 'u', 'origWidth': 411, 'origHeight': 411, 'width': 411, 'height': 411, 'widthPercent': 0.45, 'rescaleHeight': False, 'trialN': 104, 'loaded': True, 'loadedTime': 2347, 'positionName': 'LEFT', 'positionCoords': [572.04, 370.5], 'bid': 3.35}, {'imgObject': {}, 'id': 'raspberries', 'src': '/static/foodstim60/raspberries.jpg', 'key': 'i', 'origWidth': 411, 'origHeight': 411, 'width': 411, 'height': 411, 'widthPercent': 0.45, 'rescaleHeight': False, 'trialN': 104, 'loaded': True, 'loadedTime': 2126.5, 'positionName': 'RIGHT', 'positionCoords': [1064.96, 370.5], 'bid': 4.68}]",220335.09999990463,1669832806707,Grapes,raspberries,3.35,4.68,1.3299999999999996,raspberries,871.1000001430511,871,871.2000000476837,True,i,221711.5,1376.4000000953674,1669832808083,1376,HRV,HRV_0165,2022-11-30 18:28:55
105,"[{'imgObject': {}, 'id': 'cherry tomato', 'src': '/static/foodstim60/cherry tomato.jpg', 'key': 'u', 'origWidth': 410, 'origHeight': 410, 'width': 410, 'height': 410, 'widthPercent': 0.45, 'rescaleHeight': False, 'trialN': 105, 'loaded': True, 'loadedTime': 2408.7999999523163, 'positionName': 'LEFT', 'positionCoords': [573.04, 371], 'bid': 0.41}, {'imgObject': {}, 'id': 'apple slices', 'src': '/static/foodstim60/apple slices.jpg', 'key': 'i', 'origWidth': 409, 'origHeight': 410, 'width': 409, 'height': 410, 'widthPercent': 0.45, 'rescaleHeight': False, 'trialN': 105, 'loaded': True, 'loadedTime': 2356.2000000476837, 'positionName': 'RIGHT', 'positionCoords': [1064.96, 371], 'bid': 1.74}]",221711.59999990463,1669832808083,cherry tomato,apple slices,0.41,1.74,1.33,apple slices,750.7000000476837,751,750.9000000953674,True,i,222968.79999995232,1257.2000000476837,1669832809340,1257,HRV,HRV_0165,2022-11-30 18:28:55
106,"[{'imgObject': {}, 'id': 'grilled chicken strips', 'src': '/static/foodstim60/grilled chicken strips.jpg', 'key': 'u', 'origWidth': 410, 'origHeight': 411, 'width': 410, 'height': 411, 'widthPercent': 0.45, 'rescaleHeight': False, 'trialN': 106, 'loaded': True, 'loadedTime': 2213.7000000476837, 'positionName': 'LEFT', 'positionCoords': [573.04, 370.5], 'bid': 4.23}, {'imgObject': {}, 'id': 'chickenfingers', 'src': '/static/foodstim60/chickenfingers.jpg', 'key': 'i', 'origWidth': 410, 'origHeight': 410, 'width': 410, 'height': 410, 'widthPercent': 0.45, 'rescaleHeight': False, 'trialN': 106, 'loaded': True, 'loadedTime': 2425.7000000476837, 'positionName': 'RIGHT', 'positionCoords': [1064.96, 371], 'bid': 8.9}]",222968.89999985695,1669832809340,grilled chicken strips,chickenfingers,4.23,8.9,4.67,chickenfingers,685.3000001907349,686,685.4000000953674,True,i,224160.0,1191.1000001430511,1669832810532,1192,HRV,HRV_0165,2022-11-30 18:28:55
107,"[{'imgObject': {}, 'id': 'raisin bran w milk', 'src': '/static/foodstim60/raisin bran w milk.jpg', 'key': 'u', 'origWidth': 411, 'origHeight': 411, 'width': 411, 'height': 411, 'widthPercent': 0.45, 'rescaleHeight': False, 'trialN': 107, 'loaded': True, 'loadedTime': 2437.899999856949, 'positionName': 'LEFT', 'positionCoords': [572.04, 370.5], 'bid': 3.45}, {'imgObject': {}, 'id': 'eggsalad', 'src': '/static/foodstim60/eggsalad.jpg', 'key': 'i', 'origWidth': 410, 'origHeight': 409, 'width': 410, 'height': 409, 'widthPercent': 0.45, 'rescaleHeight': False, 'trialN': 107, 'loaded': True, 'loadedTime': 2439.5, 'positionName': 'RIGHT', 'positionCoords': [1064.96, 371.5], 'bid': 3.47}]",224160.20000004768,1669832810532,raisin bran w milk,eggsalad,3.45,3.47,0.020000000000000018,eggsalad,1006.0,1006,1006.0999999046326,True,i,225672.29999995232,1512.0999999046326,1669832812044,1512,HRV,HRV_0165,2022-11-30 18:28:55
108,"[{'imgObject': {}, 'id': 'hashbrowns', 'src': '/static/foodstim60/hashbrowns.jpg', 'key': 'u', 'origWidth': 411, 'origHeight': 410, 'width': 411, 'height': 410, 'widthPercent': 0.45, 'rescaleHeight': False, 'trialN': 108, 'loaded': True, 'loadedTime': 2451.0999999046326, 'positionName': 'LEFT', 'positionCoords': [572.04, 371], 'bid': 3.24}, {'imgObject': {}, 'id': 'sushi w_condiments', 'src': '/static/foodstim60/sushi w_condiments.jpg', 'key': 'i', 'origWidth': 410, 'origHeight': 410, 'width': 410, 'height': 410, 'widthPercent': 0.45, 'rescaleHeight': False, 'trialN': 108, 'loaded': True, 'loadedTime': 2367.7999999523163, 'positionName': 'RIGHT', 'positionCoords': [1064.96, 371], 'bid': 2.75}]",225672.5,1669832812044,hashbrowns,sushi w_condiments,3.24,2.75,-0.4900000000000002,sushi w_condiments,2109.7000000476837,2110,2110.0,True,i,228287.79999995232,2615.2999999523163,1669832814659,2615,HRV,HRV_0165,2022-11-30 18:28:55
