success,trial_type,trial_index,time_elapsed,internal_node_id,missTrial,missTrialMsg,Block,TrialNumber,TrialTime,trialTimeDiff,FPS_avg,FPS_med,FPS_mode,TrialDur,winResizeTime,rt,block,button_pressed,MotCoh,MotDir,ColCoh,Color,ChoiceKey,Choice,Accuracy,RT,nFrames,FPS,PPD,onsetDelay,fullScreenExitTime,canvCenter,TrialType,Score,BlockTrial,stimulus,button_labels,exp,subjectId,date
True,fullscreen,0,11071,0.0-0.0,True,undefinedblurEvent ,0.0,0.0,,,,,,,,,,,,,,,,,,,,,,,,,,,,,,HRV,HRV_0165,2022-11-30 18:40:59
,wl-check-fps,1,16092,0.0-1.0,,,0.0,1.0,"[11431.7, 11448.1, 11465.2, 11481.6, 11498.3, 11514.9, 11531.6, 11548.3, 11565, 11581.7, 11598.5, 11615.3, 11631.9, 11648.6, 11665.2, 11682, 11698.7, 11715.4, 11732.1, 11748.9, 11765.6, 11782.2, 11798.9, 11815.7, 11832.3, 11849.1, 11865.7, 11882.4, 11899.2, 11915.9, 11932.5, 11949.2, 11966, 11982.7, 11999.3, 12016, 12032.8, 12049.4, 12066.2, 12083, 12099.6, 12116.2, 12133, 12149.6, 12166.3, 12183.1, 12199.7, 12216.6, 12233.2, 12249.9, 12266.6, 12283.4, 12300, 12316.8, 12333.4, 12350.2, 12366.9, 12383.4, 12400.2, 12417, 12433.7, 12450.4, 12467, 12483.7, 12500.4, 12517.2, 12533.7, 12550.6, 12567.3, 12583.9, 12600.7, 12617.3, 12634.1, 12650.7, 12667.4, 12684.2, 12700.9, 12717.5, 12734.4, 12751, 12767.7, 12784.4, 12801.1, 12817.8, 12834.5, 12851.1, 12867.9, 12884.5, 12901.4, 12918.1, 12934.8, 12951.4, 12968.1, 12984.9, 13001.5, 13018.4, 13034.9, 13051.6, 13068.4, 13085, 13101.8, 13118.4, 13135.1, 13151.9, 13168.6, 13185.2, 13202, 13218.6, 13235.4, 13252.1, 13268.7, 13285.4, 13302.1, 13318.9, 13335.6, 13352.2, 13369, 13385.7, 13402.4, 13419.1, 13435.8, 13452.4, 13469.3, 13485.9, 13502.6, 13519.4, 13536, 13552.6, 13569.4, 13586.2, 13602.8, 13619.5, 13636.2, 13653, 13669.7, 13686.4, 13703.1, 13719.8, 13736.5, 13753.1, 13769.8, 13786.5, 13803.2, 13820, 13836.8, 13853.4, 13870.1, 13886.8, 13903.5, 13920.2, 13937, 13953.7, 13970.4, 13987, 14003.6, 14020.5, 14037.2, 14053.8, 14070.6, 14087.3, 14104, 14120.6, 14137.3, 14154, 14170.8, 14187.5, 14204.2, 14220.9, 14237.6, 14254.3, 14271, 14287.7, 14304.4, 14321.1, 14337.7, 14354.5, 14371.2, 14387.9, 14404.5, 14421.3, 14438, 14454.8, 14471.3, 14488.2, 14504.8, 14521.5, 14538.2, 14555.2, 14571.7, 14588.3, 14605, 14621.7, 14638.4, 14655.1, 14671.9, 14688.6, 14705.2, 14722, 14738.7, 14755.5, 14772.1, 14788.8, 14805.5, 14822.2, 14838.9, 14855.7, 14872.3, 14889, 14905.7, 14922.4, 14939.2, 14955.8, 14972.6, 14989.2, 15005.9, 15022.6, 15039.3, 15056.1, 15072.7, 15089.5, 15106.2, 15122.9, 15139.6, 15156.3, 15173, 15189.6, 15206.3, 15223.1, 15239.8, 15256.5, 15273.2, 15290, 15306.6, 15323.3, 15340, 15356.8, 15373.5, 15390.2, 15406.8, 15423.5, 15440.1, 15456.9, 15473.7, 15490.3, 15507.1, 15523.7, 15540.5, 15557.1, 15573.9, 15590.6, 15607.3, 15624, 15640.7, 15657.5, 15674.1, 15690.8, 15707.4, 15724.2, 15741, 15757.6, 15774.3, 15791, 15807.7, 15824.5, 15841.1, 15857.8, 15874.6, 15891.3, 15907.9, 15924.6, 15941.3, 15958, 15974.7, 15991.4, 16008.1, 16024.8, 16041.6, 16058.4, 16075, 16091.7, 16108.3, 16125.1, 16141.8, 16158.5, 16175.2, 16191.7, 16208.5, 16225.3, 16242.1, 16258.8, 16275.4, 16292.2, 16308.9, 16325.5, 16342.2, 16359.2, 16375.7, 16392.3, 16409, 16425.7]","[8.8, 16.4, 17.1, 16.4, 16.7, 16.6, 16.7, 16.7, 16.7, 16.7, 16.8, 16.8, 16.6, 16.7, 16.6, 16.8, 16.7, 16.7, 16.7, 16.8, 16.7, 16.6, 16.7, 16.8, 16.6, 16.8, 16.6, 16.7, 16.8, 16.7, 16.6, 16.7, 16.8, 16.7, 16.6, 16.7, 16.8, 16.6, 16.8, 16.8, 16.6, 16.6, 16.8, 16.6, 16.7, 16.8, 16.6, 16.9, 16.6, 16.7, 16.7, 16.8, 16.6, 16.8, 16.6, 16.8, 16.7, 16.5, 16.8, 16.8, 16.7, 16.7, 16.6, 16.7, 16.7, 16.8, 16.5, 16.9, 16.7, 16.6, 16.8, 16.6, 16.8, 16.6, 16.7, 16.8, 16.7, 16.6, 16.9, 16.6, 16.7, 16.7, 16.7, 16.7, 16.7, 16.6, 16.8, 16.6, 16.9, 16.7, 16.7, 16.6, 16.7, 16.8, 16.6, 16.9, 16.5, 16.7, 16.8, 16.6, 16.8, 16.6, 16.7, 16.8, 16.7, 16.6, 16.8, 16.6, 16.8, 16.7, 16.6, 16.7, 16.7, 16.8, 16.7, 16.6, 16.8, 16.7, 16.7, 16.7, 16.7, 16.6, 16.9, 16.6, 16.7, 16.8, 16.6, 16.6, 16.8, 16.8, 16.6, 16.7, 16.7, 16.8, 16.7, 16.7, 16.7, 16.7, 16.7, 16.6, 16.7, 16.7, 16.7, 16.8, 16.8, 16.6, 16.7, 16.7, 16.7, 16.7, 16.8, 16.7, 16.7, 16.6, 16.6, 16.9, 16.7, 16.6, 16.8, 16.7, 16.7, 16.6, 16.7, 16.7, 16.8, 16.7, 16.7, 16.7, 16.7, 16.7, 16.7, 16.7, 16.7, 16.7, 16.6, 16.8, 16.7, 16.7, 16.6, 16.8, 16.7, 16.8, 16.5, 16.9, 16.6, 16.7, 16.7, 17, 16.5, 16.6, 16.7, 16.7, 16.7, 16.7, 16.8, 16.7, 16.6, 16.8, 16.7, 16.8, 16.6, 16.7, 16.7, 16.7, 16.7, 16.8, 16.6, 16.7, 16.7, 16.7, 16.8, 16.6, 16.8, 16.6, 16.7, 16.7, 16.7, 16.8, 16.6, 16.8, 16.7, 16.7, 16.7, 16.7, 16.7, 16.6, 16.7, 16.8, 16.7, 16.7, 16.7, 16.8, 16.6, 16.7, 16.7, 16.8, 16.7, 16.7, 16.6, 16.7, 16.6, 16.8, 16.8, 16.6, 16.8, 16.6, 16.8, 16.6, 16.8, 16.7, 16.7, 16.7, 16.7, 16.8, 16.6, 16.7, 16.6, 16.8, 16.8, 16.6, 16.7, 16.7, 16.7, 16.8, 16.6, 16.7, 16.8, 16.7, 16.6, 16.7, 16.7, 16.7, 16.7, 16.7, 16.7, 16.7, 16.8, 16.8, 16.6, 16.7, 16.6, 16.8, 16.7, 16.7, 16.7, 16.5, 16.8, 16.8, 16.8, 16.7, 16.6, 16.8, 16.7, 16.6, 16.7, 17, 16.5, 16.6, 16.7, 16.7]",60.0,60.0,60.0,5019.6,[],,,,,,,,,,,,,,,,,,,,,,,HRV,HRV_0165,2022-11-30 18:40:59
,wl-html-keyboard-response,2,51287,0.0-2.0-0.0,True,undefinedblurEvent ,0.0,1.0,,,,,,,,33192.39999985695,0.0,0,,,,,,,,,,,,,,,,,,,,HRV,HRV_0165,2022-11-30 18:40:59
,wl-rdm,3,59086,0.0-3.0-0.0,False,,0.0,2.0,,,,,,,[],,,,0.0,0.0,87.9,0.0,u,0.0,True,2235.2999999523163,134.0,60.0,40.0,3000.0,[],"[1024, 576]",ColorTask_Demo,,,,,HRV,HRV_0165,2022-11-30 18:40:59
,wl-rdm,4,63980,0.0-3.0-1.0,False,,0.0,3.0,,,,,,,[],,,,0.0,0.0,87.9,1.0,i,1.0,True,820.8000001907349,50.0,60.0,40.0,2000.0,[],"[1024, 576]",ColorTask_Demo,,,,,HRV,HRV_0165,2022-11-30 18:40:59
,wl-html-keyboard-response,5,73303,0.0-3.0-2.0,,,0.0,4.0,,,,,,,,7320.899999856949,0.0,1,,,,,,,,,,,,,,,,,,,,HRV,HRV_0165,2022-11-30 18:40:59
,wl-html-keyboard-response,6,83207,0.0-4.0-0.0,,,0.0,5.0,,,,,,,,7901.400000095367,0.0,0,,,,,,,,,,,,,,,,,,,,HRV,HRV_0165,2022-11-30 18:40:59
,wl-html-keyboard-response,7,111950,0.0-5.0-0.0,,,0.0,6.0,,,,,,,,26741.700000047684,0.0,0,,,,,,,,,,,,,,,,,,,,HRV,HRV_0165,2022-11-30 18:40:59
,wl-rdm,8,113906,0.0-6.0-0.0,False,,0.0,7.0,,,,,,,[],,,,,,73.6,0.0,u,0.0,True,661.0999999046326,40.0,60.0,40.0,240.6180693334801,[],"[1024, 576]",ColorTask,1.0,1.0,,,HRV,HRV_0165,2022-11-30 18:40:59
,wl-rdm,9,116629,0.0-6.1-0.1,False,,0.0,8.0,,,,,,,[],,,,,,50.0,0.0,i,1.0,False,1401.3000001907349,84.0,60.0,40.0,262.61620996989933,[],"[1024, 576]",ColorTask,0.0,2.0,,,HRV,HRV_0165,2022-11-30 18:40:59
,wl-rdm,10,119585,0.0-6.2-0.2,False,,0.0,9.0,,,,,,,[],,,,,,50.0,0.0,u,0.0,True,1689.5,102.0,60.0,40.0,200.2746301267171,[],"[1024, 576]",ColorTask,1.0,3.0,,,HRV,HRV_0165,2022-11-30 18:40:59
,wl-rdm,11,122224,0.0-6.3-0.3,False,,0.0,10.0,,,,,,,[],,,,,,56.4,1.0,i,1.0,True,1289.4000000953674,78.0,60.0,40.0,272.51833068908877,[],"[1024, 576]",ColorTask,2.0,4.0,,,HRV,HRV_0165,2022-11-30 18:40:59
,wl-rdm,12,125097,0.0-6.4-0.4,False,,0.0,11.0,,,,,,,[],,,,,,56.4,0.0,i,1.0,False,1494.2000000476837,90.0,60.0,40.0,306.38737814548637,[],"[1024, 576]",ColorTask,1.0,5.0,,,HRV,HRV_0165,2022-11-30 18:40:59
,wl-rdm,13,127787,0.0-6.5-0.5,False,,0.0,12.0,,,,,,,[],,,,,,62.5,0.0,u,0.0,True,1395.5,84.0,60.0,40.0,223.21420715361788,[],"[1024, 576]",ColorTask,2.0,6.0,,,HRV,HRV_0165,2022-11-30 18:40:59
,wl-rdm,14,130426,0.0-6.6-0.6,False,,0.0,13.0,,,,,,,[],,,,,,53.2,1.0,i,1.0,True,1262.8000001907349,76.0,60.0,40.0,312.9462483533856,[],"[1024, 576]",ColorTask,3.0,7.0,,,HRV,HRV_0165,2022-11-30 18:40:59
,wl-rdm,15,132981,0.0-6.7-0.7,False,,0.0,14.0,,,,,,,[],,,,,,62.5,0.0,u,0.0,True,1283.7999999523163,77.0,60.0,40.0,203.80773620422,[],"[1024, 576]",ColorTask,4.0,8.0,,,HRV,HRV_0165,2022-11-30 18:40:59
,wl-rdm,16,135370,0.0-6.8-0.8,False,,0.0,15.0,,,,,,,[],,,,,,56.4,0.0,u,0.0,True,1078.7000000476837,65.0,60.0,40.0,249.8026851386347,[],"[1024, 576]",ColorTask,5.0,9.0,,,HRV,HRV_0165,2022-11-30 18:40:59
,wl-rdm,17,138677,0.0-6.9-0.9,False,,0.0,16.0,,,,,,,[],,,,,,53.2,0.0,u,0.0,True,1877.2000000476837,113.0,60.0,40.0,356.74226096671555,[],"[1024, 576]",ColorTask,6.0,10.0,,,HRV,HRV_0165,2022-11-30 18:40:59
,wl-rdm,18,140915,0.0-6.10-0.10,False,,0.0,17.0,,,,,,,[],,,,,,87.9,1.0,i,1.0,True,952.5999999046326,58.0,60.0,40.0,206.38805407595783,[],"[1024, 576]",ColorTask,7.0,11.0,,,HRV,HRV_0165,2022-11-30 18:40:59
,wl-rdm,19,143137,0.0-6.11-0.11,False,,0.0,18.0,,,,,,,[],,,,,,73.6,1.0,i,1.0,True,862.4000000953674,52.0,60.0,40.0,284.6091421487804,[],"[1024, 576]",ColorTask,8.0,12.0,,,HRV,HRV_0165,2022-11-30 18:40:59
,wl-rdm,20,145860,0.0-6.12-0.12,False,,0.0,19.0,,,,,,,[],,,,,,50.0,1.0,u,0.0,False,1452.3999998569489,87.0,60.0,40.0,214.2374308150373,[],"[1024, 576]",ColorTask,7.0,13.0,,,HRV,HRV_0165,2022-11-30 18:40:59
,wl-rdm,21,148148,0.0-6.13-0.13,False,,0.0,20.0,,,,,,,[],,,,,,53.2,0.0,i,1.0,False,1001.2000000476837,60.0,60.0,40.0,232.78647776495575,[],"[1024, 576]",ColorTask,6.0,14.0,,,HRV,HRV_0165,2022-11-30 18:40:59
,wl-rdm,22,150553,0.0-6.14-0.14,False,,0.0,21.0,,,,,,,[],,,,,,73.6,1.0,i,1.0,True,1121.2999999523163,68.0,60.0,40.0,206.2013908820918,[],"[1024, 576]",ColorTask,7.0,15.0,,,HRV,HRV_0165,2022-11-30 18:40:59
,wl-rdm,23,152574,0.0-6.15-0.15,False,,0.0,22.0,,,,,,,[],,,,,,87.9,1.0,i,1.0,True,739.8999998569489,45.0,60.0,40.0,212.49636003448265,[],"[1024, 576]",ColorTask,8.0,16.0,,,HRV,HRV_0165,2022-11-30 18:40:59
,wl-rdm,24,155531,0.0-6.16-0.16,False,,0.0,23.0,,,,,,,[],,,,,,50.0,0.0,i,1.0,False,1621.1000001430511,98.0,60.0,40.0,258.4027675044887,[],"[1024, 576]",ColorTask,7.0,17.0,,,HRV,HRV_0165,2022-11-30 18:40:59
,wl-rdm,25,158437,0.0-6.17-0.17,False,,0.0,24.0,,,,,,,[],,,,,,53.2,1.0,i,1.0,True,1543.2000000476837,93.0,60.0,40.0,296.60722142397674,[],"[1024, 576]",ColorTask,8.0,18.0,,,HRV,HRV_0165,2022-11-30 18:40:59
,wl-rdm,26,160642,0.0-6.18-0.18,False,,0.0,25.0,,,,,,,[],,,,,,87.9,0.0,u,0.0,True,886.7000000476837,54.0,60.0,40.0,240.3328891417845,[],"[1024, 576]",ColorTask,9.0,19.0,,,HRV,HRV_0165,2022-11-30 18:40:59
,wl-rdm,27,163498,0.0-6.19-0.19,False,,0.0,26.0,,,,,,,[],,,,,,62.5,0.0,u,0.0,True,1479.2000000476837,89.0,60.0,40.0,314.9552223746231,[],"[1024, 576]",ColorTask,10.0,20.0,,,HRV,HRV_0165,2022-11-30 18:40:59
,wl-rdm,28,165753,0.0-6.20-0.20,False,,0.0,27.0,,,,,,,[],,,,,,87.9,1.0,i,1.0,True,820.8000001907349,50.0,60.0,40.0,357.276363537856,[],"[1024, 576]",ColorTask,11.0,21.0,,,HRV,HRV_0165,2022-11-30 18:40:59
,wl-rdm,29,168877,0.0-6.21-0.21,False,,0.0,28.0,,,,,,,[],,,,,,62.5,1.0,i,1.0,True,1768.4000000953674,106.0,60.0,40.0,285.09387592478686,[],"[1024, 576]",ColorTask,12.0,22.0,,,HRV,HRV_0165,2022-11-30 18:40:59
,wl-rdm,30,171683,0.0-6.22-0.22,False,,0.0,29.0,,,,,,,[],,,,,,62.5,1.0,i,1.0,True,1437.0,87.0,60.0,40.0,293.8533442545463,[],"[1024, 576]",ColorTask,13.0,23.0,,,HRV,HRV_0165,2022-11-30 18:40:59
,wl-rdm,31,173821,0.0-6.23-0.23,False,,0.0,30.0,,,,,,,[],,,,,,87.9,1.0,i,1.0,True,758.1000001430511,46.0,60.0,40.0,304.4180843127295,[],"[1024, 576]",ColorTask,14.0,24.0,,,HRV,HRV_0165,2022-11-30 18:40:59
,wl-rdm,32,175976,0.0-6.24-0.24,False,,0.0,31.0,,,,,,,[],,,,,,87.9,0.0,u,0.0,True,772.0999999046326,47.0,60.0,40.0,307.3792632416132,[],"[1024, 576]",ColorTask,15.0,25.0,,,HRV,HRV_0165,2022-11-30 18:40:59
,wl-rdm,33,178231,0.0-6.25-0.25,False,,0.0,32.0,,,,,,,[],,,,,,87.9,0.0,u,0.0,True,931.5,56.0,60.0,40.0,263.4544434522461,[],"[1024, 576]",ColorTask,16.0,26.0,,,HRV,HRV_0165,2022-11-30 18:40:59
,wl-rdm,34,180135,0.0-6.26-0.26,False,,0.0,33.0,,,,,,,[],,,,,,87.9,0.0,u,0.0,True,597.0,36.0,60.0,40.0,234.65314282697182,[],"[1024, 576]",ColorTask,17.0,27.0,,,HRV,HRV_0165,2022-11-30 18:40:59
,wl-rdm,35,184611,0.0-6.27-0.27,True,RT_timeout ,0.0,33.0,,,,,,,[],,,,,,50.0,1.0,,,,,179.0,60.0,40.0,397.293357331598,[],"[1024, 576]",ColorTask,16.0,28.0,,,HRV,HRV_0165,2022-11-30 18:40:59
,wl-rdm,36,186966,0.0-6.28-0.28,False,,0.0,34.0,,,,,,,[],,,,,,56.4,0.0,u,0.0,True,1081.9000000953674,65.0,60.0,40.0,211.73513529725284,[],"[1024, 576]",ColorTask,17.0,29.0,,,HRV,HRV_0165,2022-11-30 18:40:59
,wl-rdm,37,189271,0.0-6.29-0.29,False,,0.0,35.0,,,,,,,[],,,,,,56.4,1.0,i,1.0,True,880.5,53.0,60.0,40.0,356.4965639382766,[],"[1024, 576]",ColorTask,18.0,30.0,,,HRV,HRV_0165,2022-11-30 18:40:59
,wl-rdm,38,191877,0.0-6.30-0.30,False,,0.0,36.0,,,,,,,[],,,,,,53.2,0.0,u,0.0,True,1309.0,79.0,60.0,40.0,225.2608590292177,[],"[1024, 576]",ColorTask,19.0,31.0,,,HRV,HRV_0165,2022-11-30 18:40:59
,wl-rdm,39,194800,0.0-6.31-0.31,False,,0.0,37.0,,,,,,,[],,,,,,56.4,1.0,i,1.0,True,1489.7000002861023,90.0,60.0,40.0,363.8908232106668,[],"[1024, 576]",ColorTask,20.0,32.0,,,HRV,HRV_0165,2022-11-30 18:40:59
,wl-rdm,40,197005,0.0-6.32-0.32,False,,0.0,38.0,,,,,,,[],,,,,,73.6,1.0,i,1.0,True,791.3999998569489,48.0,60.0,40.0,338.1244400440721,[],"[1024, 576]",ColorTask,21.0,33.0,,,HRV,HRV_0165,2022-11-30 18:40:59
,wl-rdm,41,199143,0.0-6.33-0.33,False,,0.0,39.0,,,,,,,[],,,,,,73.6,0.0,u,0.0,True,747.1000001430511,45.0,60.0,40.0,323.8295167655352,[],"[1024, 576]",ColorTask,22.0,34.0,,,HRV,HRV_0165,2022-11-30 18:40:59
,wl-rdm,42,201999,0.0-6.34-0.34,False,,0.0,40.0,,,,,,,[],,,,,,56.4,0.0,u,0.0,True,1548.8000001907349,93.0,60.0,40.0,238.24098146231162,[],"[1024, 576]",ColorTask,23.0,35.0,,,HRV,HRV_0165,2022-11-30 18:40:59
,wl-rdm,43,204705,0.0-6.35-0.35,False,,0.0,41.0,,,,,,,[],,,,,,53.2,0.0,u,0.0,True,1363.0,82.0,60.0,40.0,279.97133631211136,[],"[1024, 576]",ColorTask,24.0,36.0,,,HRV,HRV_0165,2022-11-30 18:40:59
,wl-rdm,44,207612,0.0-6.36-0.36,False,,0.0,42.0,,,,,,,[],,,,,,50.0,0.0,i,1.0,False,1611.2000000476837,97.0,60.0,40.0,220.41125442956084,[],"[1024, 576]",ColorTask,23.0,37.0,,,HRV,HRV_0165,2022-11-30 18:40:59
,wl-rdm,45,210268,0.0-6.37-0.37,False,,0.0,43.0,,,,,,,[],,,,,,56.4,1.0,i,1.0,True,1368.7000000476837,82.0,60.0,40.0,224.732847389844,[],"[1024, 576]",ColorTask,24.0,38.0,,,HRV,HRV_0165,2022-11-30 18:40:59
,wl-rdm,46,213491,0.0-6.38-0.38,False,,0.0,44.0,,,,,,,[],,,,,,53.2,1.0,i,1.0,True,1904.7000000476837,115.0,60.0,40.0,249.8142073777147,[],"[1024, 576]",ColorTask,25.0,39.0,,,HRV,HRV_0165,2022-11-30 18:40:59
,wl-rdm,47,215646,0.0-6.39-0.39,False,,0.0,45.0,,,,,,,[],,,,,,87.9,0.0,u,0.0,True,881.7999999523163,53.0,60.0,40.0,214.02174088763584,[],"[1024, 576]",ColorTask,26.0,40.0,,,HRV,HRV_0165,2022-11-30 18:40:59
,wl-rdm,48,218001,0.0-6.40-0.40,False,,0.0,46.0,,,,,,,[],,,,,,73.6,0.0,u,0.0,True,945.3999998569489,57.0,60.0,40.0,344.5869688086922,[],"[1024, 576]",ColorTask,27.0,41.0,,,HRV,HRV_0165,2022-11-30 18:40:59
,wl-rdm,49,220757,0.0-6.41-0.41,False,,0.0,47.0,,,,,,,[],,,,,,53.2,0.0,u,0.0,True,1467.2000000476837,88.0,60.0,40.0,225.46751444081752,[],"[1024, 576]",ColorTask,28.0,42.0,,,HRV,HRV_0165,2022-11-30 18:40:59
,wl-rdm,50,223965,0.0-6.42-0.42,False,,0.0,48.0,,,,,,,[],,,,,,50.0,1.0,i,1.0,True,1819.0,109.0,60.0,40.0,318.1543861140809,[],"[1024, 576]",ColorTask,29.0,43.0,,,HRV,HRV_0165,2022-11-30 18:40:59
,wl-rdm,51,227088,0.0-6.43-0.43,False,,0.0,49.0,,,,,,,[],,,,,,50.0,1.0,u,0.0,False,1757.2999999523163,106.0,60.0,40.0,294.67341274746775,[],"[1024, 576]",ColorTask,28.0,44.0,,,HRV,HRV_0165,2022-11-30 18:40:59
,wl-rdm,52,229577,0.0-6.44-0.44,False,,0.0,50.0,,,,,,,[],,,,,,62.5,1.0,i,1.0,True,1196.8000001907349,72.0,60.0,40.0,223.60650745367212,[],"[1024, 576]",ColorTask,29.0,45.0,,,HRV,HRV_0165,2022-11-30 18:40:59
,wl-rdm,53,232767,0.0-6.45-0.45,False,,0.0,51.0,,,,,,,[],,,,,,50.0,1.0,i,1.0,True,1799.6999998092651,108.0,60.0,40.0,326.60317871548284,[],"[1024, 576]",ColorTask,30.0,46.0,,,HRV,HRV_0165,2022-11-30 18:40:59
,wl-rdm,54,235456,0.0-6.46-0.46,False,,0.0,52.0,,,,,,,[],,,,,,62.5,1.0,i,1.0,True,1406.0999999046326,85.0,60.0,40.0,202.065674707065,[],"[1024, 576]",ColorTask,31.0,47.0,,,HRV,HRV_0165,2022-11-30 18:40:59
,wl-rdm,55,237561,0.0-6.47-0.47,False,,0.0,53.0,,,,,,,[],,,,,,73.6,0.0,u,0.0,True,770.5999999046326,47.0,60.0,40.0,253.5182991396714,[],"[1024, 576]",ColorTask,32.0,48.0,,,HRV,HRV_0165,2022-11-30 18:40:59
,wl-rdm,56,240852,0.0-6.48-0.48,False,,0.0,54.0,,,,,,,[],,,,,,50.0,0.0,i,1.0,False,1995.5000002384186,120.0,60.0,40.0,226.08464399658388,[],"[1024, 576]",ColorTask,31.0,49.0,,,HRV,HRV_0165,2022-11-30 18:40:59
,wl-rdm,57,243040,0.0-6.49-0.49,False,,0.0,55.0,,,,,,,[],,,,,,87.9,0.0,u,0.0,True,888.8999998569489,54.0,60.0,40.0,225.75703322954172,[],"[1024, 576]",ColorTask,32.0,50.0,,,HRV,HRV_0165,2022-11-30 18:40:59
,wl-rdm,58,246096,0.0-6.50-0.50,False,,0.0,56.0,,,,,,,[],,,,,,62.5,1.0,i,1.0,True,1781.5,107.0,60.0,40.0,210.5666298052045,[],"[1024, 576]",ColorTask,33.0,51.0,,,HRV,HRV_0165,2022-11-30 18:40:59
,wl-rdm,59,249671,0.0-6.51-0.51,False,,0.0,57.0,,,,,,,[],,,,,,53.2,1.0,i,1.0,True,2275.899999856949,137.0,60.0,40.0,233.73683820015833,[],"[1024, 576]",ColorTask,34.0,52.0,,,HRV,HRV_0165,2022-11-30 18:40:59
,wl-rdm,60,252711,0.0-6.52-0.52,False,,0.0,58.0,,,,,,,[],,,,,,50.0,1.0,i,1.0,True,1666.0999999046326,100.0,60.0,40.0,304.78348654868176,[],"[1024, 576]",ColorTask,35.0,53.0,,,HRV,HRV_0165,2022-11-30 18:40:59
,wl-rdm,61,256068,0.0-6.53-0.53,False,,0.0,59.0,,,,,,,[],,,,,,50.0,0.0,u,0.0,True,2086.399999856949,125.0,60.0,40.0,203.590469593823,[],"[1024, 576]",ColorTask,36.0,54.0,,,HRV,HRV_0165,2022-11-30 18:40:59
,wl-rdm,62,259660,0.0-6.54-0.54,False,,0.0,60.0,,,,,,,[],,,,,,62.5,1.0,i,1.0,True,2179.2999999523163,131.0,60.0,40.0,345.1135840220629,[],"[1024, 576]",ColorTask,37.0,55.0,,,HRV,HRV_0165,2022-11-30 18:40:59
,wl-rdm,63,262483,0.0-6.55-0.55,False,,0.0,61.0,,,,,,,[],,,,,,56.4,1.0,i,1.0,True,1537.3999998569489,93.0,60.0,40.0,208.07477061269802,[],"[1024, 576]",ColorTask,38.0,56.0,,,HRV,HRV_0165,2022-11-30 18:40:59
,wl-rdm,64,264738,0.0-6.56-0.56,False,,0.0,62.0,,,,,,,[],,,,,,73.6,0.0,u,0.0,True,945.3999998569489,57.0,60.0,40.0,244.66008359355138,[],"[1024, 576]",ColorTask,39.0,57.0,,,HRV,HRV_0165,2022-11-30 18:40:59
,wl-rdm,65,267176,0.0-6.57-0.57,False,,0.0,63.0,,,,,,,[],,,,,,62.5,0.0,u,0.0,True,980.0999999046326,59.0,60.0,40.0,395.24650095782,[],"[1024, 576]",ColorTask,40.0,58.0,,,HRV,HRV_0165,2022-11-30 18:40:59
,wl-rdm,66,269331,0.0-6.58-0.58,False,,0.0,64.0,,,,,,,[],,,,,,73.6,0.0,u,0.0,True,885.1000001430511,53.0,60.0,40.0,201.60852839649533,[],"[1024, 576]",ColorTask,41.0,59.0,,,HRV,HRV_0165,2022-11-30 18:40:59
,wl-rdm,67,272305,0.0-6.59-0.59,False,,0.0,65.0,,,,,,,[],,,,,,50.0,0.0,u,0.0,True,1623.5999999046326,98.0,60.0,40.0,272.4180865780819,[],"[1024, 576]",ColorTask,42.0,60.0,,,HRV,HRV_0165,2022-11-30 18:40:59
,wl-rdm,68,274743,0.0-6.60-0.60,False,,0.0,66.0,,,,,,,[],,,,,,56.4,0.0,u,0.0,True,1140.4000000953674,69.0,60.0,40.0,229.26668865865173,[],"[1024, 576]",ColorTask,43.0,61.0,,,HRV,HRV_0165,2022-11-30 18:40:59
,wl-rdm,69,276831,0.0-6.61-0.61,False,,0.0,67.0,,,,,,,[],,,,,,73.6,1.0,i,1.0,True,789.6999998092651,48.0,60.0,40.0,221.05236576438747,[],"[1024, 576]",ColorTask,44.0,62.0,,,HRV,HRV_0165,2022-11-30 18:40:59
,wl-rdm,70,279320,0.0-6.62-0.62,False,,0.0,68.0,,,,,,,[],,,,,,62.5,0.0,u,0.0,True,1147.5,69.0,60.0,40.0,272.32603927508956,[],"[1024, 576]",ColorTask,45.0,63.0,,,HRV,HRV_0165,2022-11-30 18:40:59
,wl-rdm,71,281876,0.0-6.63-0.63,False,,0.0,69.0,,,,,,,[],,,,,,62.5,1.0,i,1.0,True,1152.0999999046326,69.0,60.0,40.0,338.0712452315537,[],"[1024, 576]",ColorTask,46.0,64.0,,,HRV,HRV_0165,2022-11-30 18:40:59
,wl-rdm,72,284030,0.0-6.64-0.64,False,,0.0,70.0,,,,,,,[],,,,,,87.9,0.0,u,0.0,True,831.7999999523163,50.0,60.0,40.0,253.18319805229797,[],"[1024, 576]",ColorTask,47.0,65.0,,,HRV,HRV_0165,2022-11-30 18:40:59
,wl-rdm,73,286252,0.0-6.65-0.65,False,,0.0,71.0,,,,,,,[],,,,,,62.5,0.0,u,0.0,True,943.2999999523163,57.0,60.0,40.0,215.54930965082352,[],"[1024, 576]",ColorTask,48.0,66.0,,,HRV,HRV_0165,2022-11-30 18:40:59
,wl-rdm,74,288323,0.0-6.66-0.66,False,,0.0,72.0,,,,,,,[],,,,,,87.9,0.0,u,0.0,True,668.8999998569489,41.0,60.0,40.0,324.2065300299945,[],"[1024, 576]",ColorTask,49.0,67.0,,,HRV,HRV_0165,2022-11-30 18:40:59
,wl-rdm,75,290478,0.0-6.67-0.67,False,,0.0,73.0,,,,,,,[],,,,,,73.6,1.0,i,1.0,True,790.8999998569489,48.0,60.0,40.0,294.4574872417564,[],"[1024, 576]",ColorTask,50.0,68.0,,,HRV,HRV_0165,2022-11-30 18:40:59
,wl-rdm,76,293301,0.0-6.68-0.68,False,,0.0,74.0,,,,,,,[],,,,,,56.4,1.0,i,1.0,True,1510.5,91.0,60.0,40.0,238.54916975238885,[],"[1024, 576]",ColorTask,51.0,69.0,,,HRV,HRV_0165,2022-11-30 18:40:59
,wl-rdm,77,296842,0.0-6.69-0.69,False,,0.0,75.0,,,,,,,[],,,,,,53.2,0.0,u,0.0,True,2231.600000143051,134.0,60.0,40.0,245.5742304415448,[],"[1024, 576]",ColorTask,52.0,70.0,,,HRV,HRV_0165,2022-11-30 18:40:59
,wl-rdm,78,299598,0.0-6.70-0.70,False,,0.0,76.0,,,,,,,[],,,,,,50.0,1.0,i,1.0,True,1467.2000000476837,88.0,60.0,40.0,219.82266449509373,[],"[1024, 576]",ColorTask,53.0,71.0,,,HRV,HRV_0165,2022-11-30 18:40:59
,wl-rdm,79,301819,0.0-6.71-0.71,False,,0.0,77.0,,,,,,,[],,,,,,87.9,1.0,i,1.0,True,935.8999998569489,57.0,60.0,40.0,205.2246513051764,[],"[1024, 576]",ColorTask,54.0,72.0,,,HRV,HRV_0165,2022-11-30 18:40:59
,wl-rdm,80,304225,0.0-6.72-0.72,False,,0.0,78.0,,,,,,,[],,,,,,56.4,1.0,i,1.0,True,938.3999998569489,57.0,60.0,40.0,390.59675053481294,[],"[1024, 576]",ColorTask,55.0,73.0,,,HRV,HRV_0165,2022-11-30 18:40:59
,wl-rdm,81,307532,0.0-6.73-0.73,False,,0.0,79.0,,,,,,,[],,,,,,50.0,0.0,u,0.0,True,2029.2000000476837,122.0,60.0,40.0,207.00747601825273,[],"[1024, 576]",ColorTask,56.0,74.0,,,HRV,HRV_0165,2022-11-30 18:40:59
,wl-rdm,82,311106,0.0-6.74-0.74,False,,0.0,80.0,,,,,,,[],,,,,,50.0,1.0,u,0.0,False,2147.5000002384186,129.0,60.0,40.0,360.07478030653516,[],"[1024, 576]",ColorTask,55.0,75.0,,,HRV,HRV_0165,2022-11-30 18:40:59
,wl-rdm,83,314096,0.0-6.75-0.75,False,,0.0,81.0,,,,,,,[],,,,,,53.2,0.0,i,1.0,False,1640.2999999523163,99.0,60.0,40.0,267.9698326307572,[],"[1024, 576]",ColorTask,54.0,76.0,,,HRV,HRV_0165,2022-11-30 18:40:59
,wl-rdm,84,316301,0.0-6.76-0.76,False,,0.0,82.0,,,,,,,[],,,,,,73.6,0.0,u,0.0,True,933.2999999523163,56.0,60.0,40.0,211.21055185653697,[],"[1024, 576]",ColorTask,55.0,77.0,,,HRV,HRV_0165,2022-11-30 18:40:59
,wl-rdm,85,318339,0.0-6.77-0.77,False,,0.0,83.0,,,,,,,[],,,,,,73.6,1.0,i,1.0,True,684.7999999523163,41.0,60.0,40.0,290.83334307369716,[],"[1024, 576]",ColorTask,56.0,78.0,,,HRV,HRV_0165,2022-11-30 18:40:59
,wl-rdm,86,321329,0.0-6.78-0.78,False,,0.0,84.0,,,,,,,[],,,,,,53.2,1.0,i,1.0,True,1573.0,95.0,60.0,40.0,336.1761331884943,[],"[1024, 576]",ColorTask,57.0,79.0,,,HRV,HRV_0165,2022-11-30 18:40:59
,wl-rdm,87,324636,0.0-6.79-0.79,False,,0.0,85.0,,,,,,,[],,,,,,62.5,1.0,i,1.0,True,1995.2000000476837,120.0,60.0,40.0,237.98875716004977,[],"[1024, 576]",ColorTask,58.0,80.0,,,HRV,HRV_0165,2022-11-30 18:40:59
,wl-rdm,88,328144,0.0-6.80-0.80,False,,0.0,86.0,,,,,,,[],,,,,,56.4,0.0,u,0.0,True,2175.4000000953674,131.0,60.0,40.0,257.5881513562474,[],"[1024, 576]",ColorTask,59.0,81.0,,,HRV,HRV_0165,2022-11-30 18:40:59
,wl-rdm,89,331151,0.0-6.81-0.81,False,,0.0,87.0,,,,,,,[],,,,,,53.2,1.0,i,1.0,True,1733.7999997138977,104.0,60.0,40.0,215.51100818015288,[],"[1024, 576]",ColorTask,60.0,82.0,,,HRV,HRV_0165,2022-11-30 18:40:59
,wl-rdm,90,334157,0.0-6.82-0.82,False,,0.0,88.0,,,,,,,[],,,,,,50.0,1.0,u,0.0,False,1668.2000000476837,100.0,60.0,40.0,279.28147649056666,[],"[1024, 576]",ColorTask,59.0,83.0,,,HRV,HRV_0165,2022-11-30 18:40:59
,wl-rdm,91,337147,0.0-6.83-0.83,False,,0.0,89.0,,,,,,,[],,,,,,53.2,0.0,u,0.0,True,1528.6999998092651,92.0,60.0,40.0,399.54529273417063,[],"[1024, 576]",ColorTask,60.0,84.0,,,HRV,HRV_0165,2022-11-30 18:40:59
,wl-rdm,92,339285,0.0-6.84-0.84,False,,0.0,90.0,,,,,,,[],,,,,,73.6,0.0,u,0.0,True,799.6999998092651,48.0,60.0,40.0,282.480305187282,[],"[1024, 576]",ColorTask,61.0,85.0,,,HRV,HRV_0165,2022-11-30 18:40:59
,wl-rdm,93,343428,0.0-6.85-0.85,False,,0.0,91.0,,,,,,,[],,,,,,50.0,0.0,u,0.0,True,2730.7999999523163,164.0,60.0,40.0,334.6301932818668,[],"[1024, 576]",ColorTask,62.0,86.0,,,HRV,HRV_0165,2022-11-30 18:40:59
,wl-rdm,94,347420,0.0-6.86-0.86,False,,0.0,92.0,,,,,,,[],,,,,,56.4,1.0,i,1.0,True,2572.5,155.0,60.0,40.0,349.80452248734485,[],"[1024, 576]",ColorTask,63.0,87.0,,,HRV,HRV_0165,2022-11-30 18:40:59
,wl-rdm,95,349708,0.0-6.87-0.87,False,,0.0,93.0,,,,,,,[],,,,,,73.6,0.0,u,0.0,True,993.4000000953674,60.0,60.0,40.0,220.3377720411234,[],"[1024, 576]",ColorTask,64.0,88.0,,,HRV,HRV_0165,2022-11-30 18:40:59
,wl-rdm,96,351999,0.0-6.88-0.88,False,,0.0,94.0,,,,,,,[],,,,,,87.9,1.0,i,1.0,True,892.6999998092651,54.0,60.0,40.0,321.7301845307898,[],"[1024, 576]",ColorTask,65.0,89.0,,,HRV,HRV_0165,2022-11-30 18:40:59
,wl-rdm,97,355989,0.0-6.89-0.89,False,,0.0,95.0,,,,,,,[],,,,,,53.2,1.0,u,0.0,False,2696.5999999046326,162.0,60.0,40.0,221.1193834772497,[],"[1024, 576]",ColorTask,64.0,90.0,,,HRV,HRV_0165,2022-11-30 18:40:59
,wl-rdm,98,358093,0.0-6.90-0.90,False,,0.0,96.0,,,,,,,[],,,,,,87.9,1.0,i,1.0,True,833.0999999046326,50.0,60.0,40.0,212.4211645372799,[],"[1024, 576]",ColorTask,65.0,91.0,,,HRV,HRV_0165,2022-11-30 18:40:59
,wl-rdm,99,360315,0.0-6.91-0.91,False,,0.0,97.0,,,,,,,[],,,,,,73.6,1.0,i,1.0,True,794.0,48.0,60.0,40.0,351.5958886841429,[],"[1024, 576]",ColorTask,66.0,92.0,,,HRV,HRV_0165,2022-11-30 18:40:59
,wl-rdm,100,362754,0.0-6.92-0.92,False,,0.0,98.0,,,,,,,[],,,,,,56.4,0.0,u,0.0,True,979.1999998092651,59.0,60.0,40.0,397.1629273550346,[],"[1024, 576]",ColorTask,67.0,93.0,,,HRV,HRV_0165,2022-11-30 18:40:59
,wl-rdm,101,365293,0.0-6.93-0.93,False,,0.0,99.0,,,,,,,[],,,,,,53.2,1.0,i,1.0,True,1184.5999999046326,71.0,60.0,40.0,292.1254746719321,[],"[1024, 576]",ColorTask,68.0,94.0,,,HRV,HRV_0165,2022-11-30 18:40:59
,wl-rdm,102,368316,0.0-6.94-0.94,False,,0.0,100.0,,,,,,,[],,,,,,62.5,0.0,u,0.0,True,1704.0,103.0,60.0,40.0,235.1361301415713,[],"[1024, 576]",ColorTask,69.0,95.0,,,HRV,HRV_0165,2022-11-30 18:40:59
,wl-rdm,103,371657,0.0-6.95-0.95,False,,0.0,101.0,,,,,,,[],,,,,,53.2,0.0,u,0.0,True,1882.4000000953674,113.0,60.0,40.0,397.5336008367902,[],"[1024, 576]",ColorTask,70.0,96.0,,,HRV,HRV_0165,2022-11-30 18:40:59
,wl-rdm,104,374028,0.0-6.96-0.96,False,,0.0,102.0,,,,,,,[],,,,,,62.5,0.0,u,0.0,True,1034.5999999046326,62.0,60.0,40.0,280.80564352739077,[],"[1024, 576]",ColorTask,71.0,97.0,,,HRV,HRV_0165,2022-11-30 18:40:59
,wl-rdm,105,376968,0.0-6.97-0.97,False,,0.0,103.0,,,,,,,[],,,,,,53.2,1.0,i,1.0,True,1640.6999998092651,99.0,60.0,40.0,226.765336095077,[],"[1024, 576]",ColorTask,72.0,98.0,,,HRV,HRV_0165,2022-11-30 18:40:59
,wl-rdm,106,379724,0.0-6.98-0.98,False,,0.0,104.0,,,,,,,[],,,,,,50.0,1.0,i,1.0,True,1344.2000000476837,81.0,60.0,40.0,336.7153821743847,[],"[1024, 576]",ColorTask,73.0,99.0,,,HRV,HRV_0165,2022-11-30 18:40:59
,wl-rdm,107,382079,0.0-6.99-0.99,False,,0.0,105.0,,,,,,,[],,,,,,62.5,0.0,u,0.0,True,1081.6999998092651,65.0,60.0,40.0,217.06926023869258,[],"[1024, 576]",ColorTask,74.0,100.0,,,HRV,HRV_0165,2022-11-30 18:40:59
,wl-rdm,108,384635,0.0-6.100-0.100,False,,0.0,106.0,,,,,,,[],,,,,,56.4,0.0,u,0.0,True,1244.7999999523163,75.0,60.0,40.0,238.84565188363737,[],"[1024, 576]",ColorTask,75.0,101.0,,,HRV,HRV_0165,2022-11-30 18:40:59
,wl-rdm,109,387358,0.0-6.101-0.101,False,,0.0,107.0,,,,,,,[],,,,,,56.4,1.0,u,0.0,False,1317.2000000476837,79.0,60.0,40.0,344.5956920581325,[],"[1024, 576]",ColorTask,74.0,102.0,,,HRV,HRV_0165,2022-11-30 18:40:59
,wl-rdm,110,389462,0.0-6.102-0.102,False,,0.0,108.0,,,,,,,[],,,,,,87.9,0.0,u,0.0,True,807.2999999523163,49.0,60.0,40.0,219.00954898496687,[],"[1024, 576]",ColorTask,75.0,103.0,,,HRV,HRV_0165,2022-11-30 18:40:59
,wl-rdm,111,392535,0.0-6.103-0.103,False,,0.0,109.0,,,,,,,[],,,,,,56.4,0.0,u,0.0,True,1657.7999999523163,100.0,60.0,40.0,352.18126421928025,[],"[1024, 576]",ColorTask,76.0,104.0,,,HRV,HRV_0165,2022-11-30 18:40:59
,wl-rdm,112,394790,0.0-6.104-0.104,False,,0.0,110.0,,,,,,,[],,,,,,73.6,1.0,i,1.0,True,890.5999999046326,54.0,60.0,40.0,284.3030109167873,[],"[1024, 576]",ColorTask,77.0,105.0,,,HRV,HRV_0165,2022-11-30 18:40:59
,wl-rdm,113,396945,0.0-6.105-0.105,False,,0.0,111.0,,,,,,,[],,,,,,87.9,1.0,i,1.0,True,821.2000000476837,50.0,60.0,40.0,260.7096595159597,[],"[1024, 576]",ColorTask,78.0,106.0,,,HRV,HRV_0165,2022-11-30 18:40:59
,wl-rdm,114,398882,0.0-6.106-0.106,False,,0.0,112.0,,,,,,,[],,,,,,87.9,1.0,i,1.0,True,635.7999999523163,39.0,60.0,40.0,227.79071097364263,[],"[1024, 576]",ColorTask,79.0,107.0,,,HRV,HRV_0165,2022-11-30 18:40:59
,wl-rdm,115,400987,0.0-6.107-0.107,False,,0.0,113.0,,,,,,,[],,,,,,73.6,1.0,i,1.0,True,826.8999998569489,50.0,60.0,40.0,216.82557071729352,[],"[1024, 576]",ColorTask,80.0,108.0,,,HRV,HRV_0165,2022-11-30 18:40:59
,wl-rdm,116,403225,0.0-6.108-0.108,False,,0.0,114.0,,,,,,,[],,,,,,62.5,1.0,i,1.0,True,878.7999999523163,53.0,60.0,40.0,285.5816851655562,[],"[1024, 576]",ColorTask,81.0,109.0,,,HRV,HRV_0165,2022-11-30 18:40:59
,wl-html-keyboard-response,117,427831,0.0-7.0-0.0,True,undefinedblurEvent ,1.0,114.0,,,,,,,,22602.299999952316,1.0,0,,,,,,,,,,,,,,,,,,,,HRV,HRV_0165,2022-11-30 18:40:59
,wl-rdm,118,430018,0.0-8.0-0.0,False,,1.0,115.0,,,,,,,[],,,,,,53.2,0.0,i,1.0,False,845.0,51.0,60.0,40.0,272.97473760887,[],"[1024, 576]",ColorTask,80.0,1.0,,,HRV,HRV_0165,2022-11-30 18:40:59
,wl-rdm,119,432690,0.0-8.1-0.1,False,,1.0,116.0,,,,,,,[],,,,,,62.5,1.0,i,1.0,True,1287.7000000476837,78.0,60.0,40.0,306.64194541582697,[],"[1024, 576]",ColorTask,81.0,2.0,,,HRV,HRV_0165,2022-11-30 18:40:59
,wl-rdm,120,435162,0.0-8.2-0.2,False,,1.0,117.0,,,,,,,[],,,,,,53.2,1.0,i,1.0,True,1145.0,69.0,60.0,40.0,255.63603693656745,[],"[1024, 576]",ColorTask,82.0,3.0,,,HRV,HRV_0165,2022-11-30 18:40:59
,wl-rdm,121,438486,0.0-8.3-0.3,False,,1.0,118.0,,,,,,,[],,,,,,53.2,0.0,u,0.0,True,1993.0,120.0,60.0,40.0,257.46875544541973,[],"[1024, 576]",ColorTask,83.0,4.0,,,HRV,HRV_0165,2022-11-30 18:40:59
,wl-rdm,122,441877,0.0-8.4-0.4,False,,1.0,119.0,,,,,,,[],,,,,,53.2,1.0,i,1.0,True,2077.7000000476837,125.0,60.0,40.0,249.78781362536012,[],"[1024, 576]",ColorTask,84.0,5.0,,,HRV,HRV_0165,2022-11-30 18:40:59
,wl-rdm,123,444683,0.0-8.5-0.5,False,,1.0,120.0,,,,,,,[],,,,,,56.4,0.0,u,0.0,True,1478.0999999046326,89.0,60.0,40.0,255.94882975108385,[],"[1024, 576]",ColorTask,85.0,6.0,,,HRV,HRV_0165,2022-11-30 18:40:59
,wl-rdm,124,447539,0.0-8.6-0.6,False,,1.0,121.0,,,,,,,[],,,,,,56.4,0.0,u,0.0,True,1427.7999999523163,86.0,60.0,40.0,361.59369637001544,[],"[1024, 576]",ColorTask,86.0,7.0,,,HRV,HRV_0165,2022-11-30 18:40:59
,wl-rdm,125,450346,0.0-8.7-0.7,False,,1.0,122.0,,,,,,,[],,,,,,50.0,0.0,u,0.0,True,1496.2000000476837,90.0,60.0,40.0,247.24484162240068,[],"[1024, 576]",ColorTask,87.0,8.0,,,HRV,HRV_0165,2022-11-30 18:40:59
,wl-rdm,126,452651,0.0-8.8-0.8,False,,1.0,123.0,,,,,,,[],,,,,,53.2,1.0,i,1.0,True,894.0999999046326,54.0,60.0,40.0,344.7065965826557,[],"[1024, 576]",ColorTask,88.0,9.0,,,HRV,HRV_0165,2022-11-30 18:40:59
,wl-rdm,127,454823,0.0-8.9-0.9,False,,1.0,124.0,,,,,,,[],,,,,,87.9,1.0,i,1.0,True,848.5,51.0,60.0,40.0,260.18790358648573,[],"[1024, 576]",ColorTask,89.0,10.0,,,HRV,HRV_0165,2022-11-30 18:40:59
,wl-rdm,128,457178,0.0-8.10-0.10,False,,1.0,125.0,,,,,,,[],,,,,,50.0,0.0,i,1.0,False,954.0999999046326,58.0,60.0,40.0,321.956734279098,[],"[1024, 576]",ColorTask,88.0,11.0,,,HRV,HRV_0165,2022-11-30 18:40:59
,wl-rdm,129,459750,0.0-8.11-0.11,False,,1.0,126.0,,,,,,,[],,,,,,62.5,1.0,i,1.0,True,1199.7999999523163,72.0,60.0,40.0,302.2821586518662,[],"[1024, 576]",ColorTask,89.0,12.0,,,HRV,HRV_0165,2022-11-30 18:40:59
,wl-rdm,130,461821,0.0-8.12-0.12,False,,1.0,127.0,,,,,,,[],,,,,,73.6,1.0,i,1.0,True,691.5,42.0,60.0,40.0,312.39198504965674,[],"[1024, 576]",ColorTask,90.0,13.0,,,HRV,HRV_0165,2022-11-30 18:40:59
,wl-rdm,131,463876,0.0-8.13-0.13,False,,1.0,128.0,,,,,,,[],,,,,,73.6,1.0,i,1.0,True,726.2999999523163,44.0,60.0,40.0,259.9347242145993,[],"[1024, 576]",ColorTask,91.0,14.0,,,HRV,HRV_0165,2022-11-30 18:40:59
,wl-rdm,132,466214,0.0-8.14-0.14,False,,1.0,129.0,,,,,,,[],,,,,,56.4,1.0,i,1.0,True,1032.5,62.0,60.0,40.0,239.35852319111277,[],"[1024, 576]",ColorTask,92.0,15.0,,,HRV,HRV_0165,2022-11-30 18:40:59
,wl-rdm,133,468302,0.0-8.15-0.15,False,,1.0,130.0,,,,,,,[],,,,,,87.9,0.0,u,0.0,True,748.7999999523163,45.0,60.0,40.0,278.57853061280986,[],"[1024, 576]",ColorTask,93.0,16.0,,,HRV,HRV_0165,2022-11-30 18:40:59
,wl-rdm,134,471108,0.0-8.16-0.16,False,,1.0,131.0,,,,,,,[],,,,,,56.4,1.0,i,1.0,True,1418.7000000476837,85.0,60.0,40.0,319.76842556594215,[],"[1024, 576]",ColorTask,94.0,17.0,,,HRV,HRV_0165,2022-11-30 18:40:59
,wl-rdm,135,474198,0.0-8.17-0.17,False,,1.0,132.0,,,,,,,[],,,,,,50.0,1.0,i,1.0,True,1809.3999998569489,109.0,60.0,40.0,208.1233164183569,[],"[1024, 576]",ColorTask,95.0,18.0,,,HRV,HRV_0165,2022-11-30 18:40:59
,wl-rdm,136,477155,0.0-8.18-0.18,False,,1.0,133.0,,,,,,,[],,,,,,56.4,0.0,u,0.0,True,1595.5,96.0,60.0,40.0,298.54464814033605,[],"[1024, 576]",ColorTask,96.0,19.0,,,HRV,HRV_0165,2022-11-30 18:40:59
,wl-rdm,137,479159,0.0-8.19-0.19,False,,1.0,134.0,,,,,,,[],,,,,,73.6,1.0,i,1.0,True,722.5999999046326,44.0,60.0,40.0,201.63822426887873,[],"[1024, 576]",ColorTask,97.0,20.0,,,HRV,HRV_0165,2022-11-30 18:40:59
,wl-rdm,138,481381,0.0-8.20-0.20,False,,1.0,135.0,,,,,,,[],,,,,,73.6,0.0,u,0.0,True,892.2000000476837,54.0,60.0,40.0,258.031809768472,[],"[1024, 576]",ColorTask,98.0,21.0,,,HRV,HRV_0165,2022-11-30 18:40:59
,wl-rdm,139,483920,0.0-8.21-0.21,False,,1.0,136.0,,,,,,,[],,,,,,56.4,1.0,i,1.0,True,1114.2000000476837,67.0,60.0,40.0,358.0238053429601,[],"[1024, 576]",ColorTask,99.0,22.0,,,HRV,HRV_0165,2022-11-30 18:40:59
,wl-rdm,140,486125,0.0-8.22-0.22,False,,1.0,137.0,,,,,,,[],,,,,,87.9,1.0,i,1.0,True,816.8999998569489,49.0,60.0,40.0,329.6694039497007,[],"[1024, 576]",ColorTask,100.0,23.0,,,HRV,HRV_0165,2022-11-30 18:40:59
,wl-rdm,141,488079,0.0-8.23-0.23,False,,1.0,138.0,,,,,,,[],,,,,,87.9,0.0,u,0.0,True,673.1000001430511,41.0,60.0,40.0,213.01869195265337,[],"[1024, 576]",ColorTask,101.0,24.0,,,HRV,HRV_0165,2022-11-30 18:40:59
,wl-rdm,142,490301,0.0-8.24-0.24,False,,1.0,139.0,,,,,,,[],,,,,,87.9,1.0,i,1.0,True,942.7999999523163,57.0,60.0,40.0,215.4548436597709,[],"[1024, 576]",ColorTask,102.0,25.0,,,HRV,HRV_0165,2022-11-30 18:40:59
,wl-rdm,143,492439,0.0-8.25-0.25,False,,1.0,140.0,,,,,,,[],,,,,,73.6,0.0,u,0.0,True,798.3999998569489,48.0,60.0,40.0,279.31863043240617,[],"[1024, 576]",ColorTask,103.0,26.0,,,HRV,HRV_0165,2022-11-30 18:40:59
,wl-rdm,144,495378,0.0-8.26-0.26,False,,1.0,141.0,,,,,,,[],,,,,,62.5,1.0,u,0.0,False,1538.1999998092651,93.0,60.0,40.0,330.0768119879174,[],"[1024, 576]",ColorTask,102.0,27.0,,,HRV,HRV_0165,2022-11-30 18:40:59
,wl-rdm,145,497500,0.0-8.27-0.27,False,,1.0,142.0,,,,,,,[],,,,,,50.0,1.0,u,0.0,False,851.2000000476837,51.0,60.0,40.0,201.92672831167073,[],"[1024, 576]",ColorTask,101.0,28.0,,,HRV,HRV_0165,2022-11-30 18:40:59
,wl-rdm,146,499571,0.0-8.28-0.28,False,,1.0,143.0,,,,,,,[],,,,,,73.6,0.0,u,0.0,True,693.7999999523163,42.0,60.0,40.0,305.0096876791491,[],"[1024, 576]",ColorTask,102.0,29.0,,,HRV,HRV_0165,2022-11-30 18:40:59
,wl-rdm,147,502811,0.0-8.29-0.29,False,,1.0,144.0,,,,,,,[],,,,,,53.2,0.0,u,0.0,True,1954.7999999523163,118.0,60.0,40.0,217.1988607164309,[],"[1024, 576]",ColorTask,103.0,30.0,,,HRV,HRV_0165,2022-11-30 18:40:59
,wl-rdm,148,505818,0.0-8.30-0.30,False,,1.0,145.0,,,,,,,[],,,,,,53.2,0.0,u,0.0,True,1722.3999998569489,104.0,60.0,40.0,204.74113553740668,[],"[1024, 576]",ColorTask,104.0,31.0,,,HRV,HRV_0165,2022-11-30 18:40:59
,wl-rdm,149,508858,0.0-8.31-0.31,False,,1.0,146.0,,,,,,,[],,,,,,53.2,1.0,i,1.0,True,1638.7000000476837,99.0,60.0,40.0,325.2244366932981,[],"[1024, 576]",ColorTask,105.0,32.0,,,HRV,HRV_0165,2022-11-30 18:40:59
,wl-rdm,150,511380,0.0-8.32-0.32,False,,1.0,147.0,,,,,,,[],,,,,,53.2,0.0,u,0.0,True,1110.0,67.0,60.0,40.0,337.2188004495795,[],"[1024, 576]",ColorTask,106.0,33.0,,,HRV,HRV_0165,2022-11-30 18:40:59
,wl-rdm,151,514286,0.0-8.33-0.33,False,,1.0,148.0,,,,,,,[],,,,,,56.4,1.0,i,1.0,True,1633.5,98.0,60.0,40.0,215.7122064636034,[],"[1024, 576]",ColorTask,107.0,34.0,,,HRV,HRV_0165,2022-11-30 18:40:59
,wl-rdm,152,517009,0.0-8.34-0.34,False,,1.0,149.0,,,,,,,[],,,,,,56.4,1.0,u,0.0,False,1322.0999999046326,80.0,60.0,40.0,324.6056957605575,[],"[1024, 576]",ColorTask,106.0,35.0,,,HRV,HRV_0165,2022-11-30 18:40:59
,wl-rdm,153,519230,0.0-8.35-0.35,False,,1.0,150.0,,,,,,,[],,,,,,87.9,0.0,u,0.0,True,840.2999999523163,51.0,60.0,40.0,305.95958009856497,[],"[1024, 576]",ColorTask,107.0,36.0,,,HRV,HRV_0165,2022-11-30 18:40:59
,wl-rdm,154,521870,0.0-8.36-0.36,False,,1.0,151.0,,,,,,,[],,,,,,53.2,1.0,i,1.0,True,1283.2999999523163,77.0,60.0,40.0,296.48157153706677,[],"[1024, 576]",ColorTask,108.0,37.0,,,HRV,HRV_0165,2022-11-30 18:40:59
,wl-rdm,155,524960,0.0-8.37-0.37,False,,1.0,152.0,,,,,,,[],,,,,,50.0,0.0,i,1.0,False,1732.2000000476837,104.0,60.0,40.0,288.1323883143158,[],"[1024, 576]",ColorTask,107.0,38.0,,,HRV,HRV_0165,2022-11-30 18:40:59
,wl-rdm,156,527415,0.0-8.38-0.38,False,,1.0,153.0,,,,,,,[],,,,,,50.0,1.0,u,0.0,False,1148.2000002861023,69.0,60.0,40.0,238.43713843539186,[],"[1024, 576]",ColorTask,106.0,39.0,,,HRV,HRV_0165,2022-11-30 18:40:59
,wl-rdm,157,529737,0.0-8.39-0.39,False,,1.0,154.0,,,,,,,[],,,,,,62.5,1.0,i,1.0,True,1046.0,63.0,60.0,40.0,209.68197710837853,[],"[1024, 576]",ColorTask,107.0,40.0,,,HRV,HRV_0165,2022-11-30 18:40:59
,wl-rdm,158,532059,0.0-8.40-0.40,False,,1.0,155.0,,,,,,,[],,,,,,73.6,0.0,u,0.0,True,885.2999999523163,53.0,60.0,40.0,373.03381319457844,[],"[1024, 576]",ColorTask,108.0,41.0,,,HRV,HRV_0165,2022-11-30 18:40:59
,wl-rdm,159,534364,0.0-8.41-0.41,False,,1.0,156.0,,,,,,,[],,,,,,73.6,1.0,i,1.0,True,893.0,54.0,60.0,40.0,346.39115046113056,[],"[1024, 576]",ColorTask,109.0,42.0,,,HRV,HRV_0165,2022-11-30 18:40:59
,wl-rdm,160,537938,0.0-8.42-0.42,False,,1.0,157.0,,,,,,,[],,,,,,56.4,1.0,i,1.0,True,2213.9000000953674,133.0,60.0,40.0,297.2986138031221,[],"[1024, 576]",ColorTask,110.0,43.0,,,HRV,HRV_0165,2022-11-30 18:40:59
,wl-rdm,161,541696,0.0-8.43-0.43,False,,1.0,158.0,,,,,,,[],,,,,,53.2,0.0,i,1.0,False,2466.2999999523163,148.0,60.0,40.0,230.0440315451913,[],"[1024, 576]",ColorTask,109.0,44.0,,,HRV,HRV_0165,2022-11-30 18:40:59
,wl-rdm,162,544219,0.0-8.44-0.44,False,,1.0,159.0,,,,,,,[],,,,,,62.5,0.0,u,0.0,True,1228.1999998092651,74.0,60.0,40.0,219.558850088807,[],"[1024, 576]",ColorTask,110.0,45.0,,,HRV,HRV_0165,2022-11-30 18:40:59
,wl-rdm,163,546507,0.0-8.45-0.45,False,,1.0,160.0,,,,,,,[],,,,,,87.9,0.0,u,0.0,True,952.5,58.0,60.0,40.0,263.69365774774303,[],"[1024, 576]",ColorTask,111.0,46.0,,,HRV,HRV_0165,2022-11-30 18:40:59
,wl-rdm,164,548678,0.0-8.46-0.46,False,,1.0,161.0,,,,,,,[],,,,,,87.9,1.0,i,1.0,True,864.9000000953674,52.0,60.0,40.0,244.43693278009215,[],"[1024, 576]",ColorTask,112.0,47.0,,,HRV,HRV_0165,2022-11-30 18:40:59
,wl-rdm,165,551251,0.0-8.47-0.47,False,,1.0,162.0,,,,,,,[],,,,,,56.4,1.0,i,1.0,True,1286.7000000476837,78.0,60.0,40.0,215.92776793739654,[],"[1024, 576]",ColorTask,113.0,48.0,,,HRV,HRV_0165,2022-11-30 18:40:59
,wl-rdm,166,554792,0.0-8.48-0.48,False,,1.0,163.0,,,,,,,[],,,,,,50.0,1.0,i,1.0,True,2099.4000000953674,126.0,60.0,40.0,369.76706912843326,[],"[1024, 576]",ColorTask,114.0,49.0,,,HRV,HRV_0165,2022-11-30 18:40:59
,wl-rdm,167,558199,0.0-8.49-0.49,False,,1.0,164.0,,,,,,,[],,,,,,50.0,0.0,u,0.0,True,2058.5,124.0,60.0,40.0,267.4787880044234,[],"[1024, 576]",ColorTask,115.0,50.0,,,HRV,HRV_0165,2022-11-30 18:40:59
,wl-rdm,168,560388,0.0-8.50-0.50,False,,1.0,165.0,,,,,,,[],,,,,,87.9,1.0,i,1.0,True,809.5999999046326,49.0,60.0,40.0,301.23645261672107,[],"[1024, 576]",ColorTask,116.0,51.0,,,HRV,HRV_0165,2022-11-30 18:40:59
,wl-rdm,169,562509,0.0-8.51-0.51,False,,1.0,166.0,,,,,,,[],,,,,,87.9,1.0,i,1.0,True,791.6999998092651,48.0,60.0,40.0,258.0918993810002,[],"[1024, 576]",ColorTask,117.0,52.0,,,HRV,HRV_0165,2022-11-30 18:40:59
,wl-rdm,170,566234,0.0-8.52-0.52,False,,1.0,167.0,,,,,,,[],,,,,,53.2,1.0,i,1.0,True,2406.9000000953674,145.0,60.0,40.0,249.46367892470423,[],"[1024, 576]",ColorTask,118.0,53.0,,,HRV,HRV_0165,2022-11-30 18:40:59
,wl-rdm,171,568789,0.0-8.53-0.53,False,,1.0,168.0,,,,,,,[],,,,,,62.5,1.0,i,1.0,True,1249.9000000953674,75.0,60.0,40.0,242.8561144442555,[],"[1024, 576]",ColorTask,119.0,54.0,,,HRV,HRV_0165,2022-11-30 18:40:59
,wl-rdm,172,571178,0.0-8.54-0.54,False,,1.0,169.0,,,,,,,[],,,,,,73.6,1.0,i,1.0,True,1003.7000000476837,61.0,60.0,40.0,305.23087002621685,[],"[1024, 576]",ColorTask,120.0,55.0,,,HRV,HRV_0165,2022-11-30 18:40:59
,wl-rdm,173,574435,0.0-8.55-0.55,False,,1.0,170.0,,,,,,,[],,,,,,50.0,0.0,i,1.0,False,1854.5,112.0,60.0,40.0,323.54194987193887,[],"[1024, 576]",ColorTask,119.0,56.0,,,HRV,HRV_0165,2022-11-30 18:40:59
,wl-rdm,174,576523,0.0-8.56-0.56,False,,1.0,171.0,,,,,,,[],,,,,,87.9,0.0,u,0.0,True,635.0,39.0,60.0,40.0,373.1337984221927,[],"[1024, 576]",ColorTask,120.0,57.0,,,HRV,HRV_0165,2022-11-30 18:40:59
,wl-rdm,175,580198,0.0-8.57-0.57,False,,1.0,172.0,,,,,,,[],,,,,,50.0,1.0,u,0.0,False,2285.2000000476837,137.0,60.0,40.0,329.11035391839266,[],"[1024, 576]",ColorTask,119.0,58.0,,,HRV,HRV_0165,2022-11-30 18:40:59
,wl-rdm,176,582202,0.0-8.58-0.58,False,,1.0,173.0,,,,,,,[],,,,,,73.6,0.0,u,0.0,True,710.7000000476837,43.0,60.0,40.0,223.51590112906297,[],"[1024, 576]",ColorTask,120.0,59.0,,,HRV,HRV_0165,2022-11-30 18:40:59
,wl-rdm,177,585777,0.0-8.59-0.59,False,,1.0,174.0,,,,,,,[],,,,,,50.0,0.0,u,0.0,True,2115.5000002384186,127.0,60.0,40.0,386.3579723910906,[],"[1024, 576]",ColorTask,121.0,60.0,,,HRV,HRV_0165,2022-11-30 18:40:59
,wl-rdm,178,588750,0.0-8.60-0.60,False,,1.0,175.0,,,,,,,[],,,,,,62.5,0.0,u,0.0,True,1516.9000000953674,91.0,60.0,40.0,384.30983884158263,[],"[1024, 576]",ColorTask,122.0,61.0,,,HRV,HRV_0165,2022-11-30 18:40:59
,wl-rdm,179,590955,0.0-8.61-0.61,False,,1.0,176.0,,,,,,,[],,,,,,62.5,1.0,i,1.0,True,869.5000002384186,53.0,60.0,40.0,260.6027925846516,[],"[1024, 576]",ColorTask,123.0,62.0,,,HRV,HRV_0165,2022-11-30 18:40:59
,wl-rdm,180,594162,0.0-8.62-0.62,False,,1.0,177.0,,,,,,,[],,,,,,56.4,1.0,i,1.0,True,1897.1999998092651,114.0,60.0,40.0,237.102180436273,[],"[1024, 576]",ColorTask,124.0,63.0,,,HRV,HRV_0165,2022-11-30 18:40:59
,wl-rdm,181,596901,0.0-8.63-0.63,False,,1.0,178.0,,,,,,,[],,,,,,56.4,0.0,u,0.0,True,1417.2999999523163,85.0,60.0,40.0,263.028099555074,[],"[1024, 576]",ColorTask,125.0,64.0,,,HRV,HRV_0165,2022-11-30 18:40:59
,wl-rdm,182,598939,0.0-8.64-0.64,False,,1.0,179.0,,,,,,,[],,,,,,87.9,1.0,u,0.0,False,726.7000000476837,44.0,60.0,40.0,247.12842825604494,[],"[1024, 576]",ColorTask,124.0,65.0,,,HRV,HRV_0165,2022-11-30 18:40:59
,wl-rdm,183,601979,0.0-8.65-0.65,False,,1.0,180.0,,,,,,,[],,,,,,62.5,0.0,u,0.0,True,1578.5,95.0,60.0,40.0,395.00775482764834,[],"[1024, 576]",ColorTask,125.0,66.0,,,HRV,HRV_0165,2022-11-30 18:40:59
,wl-rdm,184,604301,0.0-8.66-0.66,False,,1.0,181.0,,,,,,,[],,,,,,56.4,0.0,u,0.0,True,1008.9000000953674,61.0,60.0,40.0,236.93286029551496,[],"[1024, 576]",ColorTask,126.0,67.0,,,HRV,HRV_0165,2022-11-30 18:40:59
,wl-rdm,185,606572,0.0-8.67-0.67,False,,1.0,182.0,,,,,,,[],,,,,,87.9,0.0,u,0.0,True,933.7000000476837,56.0,60.0,40.0,268.3323793977597,[],"[1024, 576]",ColorTask,127.0,68.0,,,HRV,HRV_0165,2022-11-30 18:40:59
,wl-rdm,186,609395,0.0-8.68-0.68,False,,1.0,183.0,,,,,,,[],,,,,,62.5,0.0,u,0.0,True,1436.8999998569489,87.0,60.0,40.0,304.1400203753149,[],"[1024, 576]",ColorTask,128.0,69.0,,,HRV,HRV_0165,2022-11-30 18:40:59
,wl-rdm,187,611984,0.0-8.69-0.69,False,,1.0,184.0,,,,,,,[],,,,,,56.4,0.0,u,0.0,True,1314.0000002384186,79.0,60.0,40.0,205.94107639293287,[],"[1024, 576]",ColorTask,129.0,70.0,,,HRV,HRV_0165,2022-11-30 18:40:59
,wl-rdm,188,614423,0.0-8.70-0.70,False,,1.0,185.0,,,,,,,[],,,,,,73.6,0.0,u,0.0,True,989.7000000476837,60.0,60.0,40.0,383.39504619512775,[],"[1024, 576]",ColorTask,130.0,71.0,,,HRV,HRV_0165,2022-11-30 18:40:59
,wl-rdm,189,617045,0.0-8.71-0.71,False,,1.0,186.0,,,,,,,[],,,,,,62.5,0.0,u,0.0,True,1192.0,72.0,60.0,40.0,367.3520185192062,[],"[1024, 576]",ColorTask,131.0,72.0,,,HRV,HRV_0165,2022-11-30 18:40:59
,wl-rdm,190,620770,0.0-8.72-0.72,False,,1.0,187.0,,,,,,,[],,,,,,50.0,0.0,i,1.0,False,2414.400000333786,145.0,60.0,40.0,249.6541639375414,[],"[1024, 576]",ColorTask,130.0,73.0,,,HRV,HRV_0165,2022-11-30 18:40:59
,wl-rdm,191,622875,0.0-8.73-0.73,False,,1.0,188.0,,,,,,,[],,,,,,87.9,1.0,i,1.0,True,751.4000000953674,45.0,60.0,40.0,298.73916171602053,[],"[1024, 576]",ColorTask,131.0,74.0,,,HRV,HRV_0165,2022-11-30 18:40:59
,wl-rdm,192,626884,0.0-8.74-0.74,False,,1.0,189.0,,,,,,,[],,,,,,50.0,1.0,i,1.0,True,2697.0000002384186,162.0,60.0,40.0,236.17194922354844,[],"[1024, 576]",ColorTask,132.0,75.0,,,HRV,HRV_0165,2022-11-30 18:40:59
,wl-rdm,193,628938,0.0-8.75-0.75,False,,1.0,190.0,,,,,,,[],,,,,,87.9,1.0,i,1.0,True,710.7999999523163,43.0,60.0,40.0,272.8700207679668,[],"[1024, 576]",ColorTask,133.0,76.0,,,HRV,HRV_0165,2022-11-30 18:40:59
,wl-rdm,194,631126,0.0-8.76-0.76,False,,1.0,191.0,,,,,,,[],,,,,,73.6,1.0,i,1.0,True,723.2000000476837,44.0,60.0,40.0,389.0934742998943,[],"[1024, 576]",ColorTask,134.0,77.0,,,HRV,HRV_0165,2022-11-30 18:40:59
,wl-rdm,195,633649,0.0-8.77-0.77,False,,1.0,192.0,,,,,,,[],,,,,,56.4,0.0,u,0.0,True,1055.0,64.0,60.0,40.0,389.4080255166291,[],"[1024, 576]",ColorTask,135.0,78.0,,,HRV,HRV_0165,2022-11-30 18:40:59
,wl-rdm,196,636221,0.0-8.78-0.78,False,,1.0,193.0,,,,,,,[],,,,,,62.5,1.0,i,1.0,True,1116.8000001907349,67.0,60.0,40.0,397.03646714974747,[],"[1024, 576]",ColorTask,136.0,79.0,,,HRV,HRV_0165,2022-11-30 18:40:59
,wl-rdm,197,640314,0.0-8.79-0.79,False,,1.0,194.0,,,,,,,[],,,,,,53.2,0.0,u,0.0,True,2665.800000190735,160.0,60.0,40.0,362.7436902872597,[],"[1024, 576]",ColorTask,137.0,80.0,,,HRV,HRV_0165,2022-11-30 18:40:59
,wl-rdm,198,642852,0.0-8.80-0.80,False,,1.0,195.0,,,,,,,[],,,,,,62.5,0.0,u,0.0,True,1151.1999998092651,69.0,60.0,40.0,321.7627837779402,[],"[1024, 576]",ColorTask,138.0,81.0,,,HRV,HRV_0165,2022-11-30 18:40:59
,wl-rdm,199,645057,0.0-8.81-0.81,False,,1.0,196.0,,,,,,,[],,,,,,73.6,1.0,i,1.0,True,895.7000000476837,54.0,60.0,40.0,248.7943053134618,[],"[1024, 576]",ColorTask,139.0,82.0,,,HRV,HRV_0165,2022-11-30 18:40:59
,wl-rdm,200,647212,0.0-8.82-0.82,False,,1.0,197.0,,,,,,,[],,,,,,87.9,0.0,u,0.0,True,742.5999999046326,45.0,60.0,40.0,342.2750059575343,[],"[1024, 576]",ColorTask,140.0,83.0,,,HRV,HRV_0165,2022-11-30 18:40:59
,wl-rdm,201,650118,0.0-8.83-0.83,False,,1.0,198.0,,,,,,,[],,,,,,62.5,1.0,i,1.0,True,1525.2000000476837,92.0,60.0,40.0,304.14326763145095,[],"[1024, 576]",ColorTask,141.0,84.0,,,HRV,HRV_0165,2022-11-30 18:40:59
,wl-rdm,202,652457,0.0-8.84-0.84,False,,1.0,199.0,,,,,,,[],,,,,,62.5,0.0,u,0.0,True,971.5,59.0,60.0,40.0,292.3582148839893,[],"[1024, 576]",ColorTask,142.0,85.0,,,HRV,HRV_0165,2022-11-30 18:40:59
,wl-rdm,203,655280,0.0-8.85-0.85,False,,1.0,200.0,,,,,,,[],,,,,,56.4,0.0,u,0.0,True,1531.8000001907349,92.0,60.0,40.0,221.28696978771885,[],"[1024, 576]",ColorTask,143.0,86.0,,,HRV,HRV_0165,2022-11-30 18:40:59
,wl-rdm,204,658437,0.0-8.86-0.86,False,,1.0,201.0,,,,,,,[],,,,,,62.5,0.0,u,0.0,True,1885.7999999523163,113.0,60.0,40.0,216.52830434551905,[],"[1024, 576]",ColorTask,144.0,87.0,,,HRV,HRV_0165,2022-11-30 18:40:59
,wl-rdm,205,661360,0.0-8.87-0.87,False,,1.0,202.0,,,,,,,[],,,,,,50.0,1.0,u,0.0,False,1607.2999999523163,97.0,60.0,40.0,236.71754297726508,[],"[1024, 576]",ColorTask,143.0,88.0,,,HRV,HRV_0165,2022-11-30 18:40:59
,wl-rdm,206,664450,0.0-8.88-0.88,False,,1.0,203.0,,,,,,,[],,,,,,50.0,1.0,u,0.0,False,1780.0999999046326,107.0,60.0,40.0,233.81867370543205,[],"[1024, 576]",ColorTask,142.0,89.0,,,HRV,HRV_0165,2022-11-30 18:40:59
,wl-rdm,207,667172,0.0-8.89-0.89,False,,1.0,204.0,,,,,,,[],,,,,,73.6,0.0,u,0.0,True,1443.5999999046326,87.0,60.0,40.0,208.34276017512997,[],"[1024, 576]",ColorTask,143.0,90.0,,,HRV,HRV_0165,2022-11-30 18:40:59
,wl-rdm,208,670547,0.0-8.90-0.90,False,,1.0,205.0,,,,,,,[],,,,,,50.0,1.0,i,1.0,True,2021.8999998569489,122.0,60.0,40.0,283.789962670873,[],"[1024, 576]",ColorTask,144.0,91.0,,,HRV,HRV_0165,2022-11-30 18:40:59
,wl-rdm,209,673286,0.0-8.91-0.91,False,,1.0,206.0,,,,,,,[],,,,,,73.6,1.0,i,1.0,True,1299.5999999046326,78.0,60.0,40.0,369.6271923661634,[],"[1024, 576]",ColorTask,145.0,92.0,,,HRV,HRV_0165,2022-11-30 18:40:59
,wl-rdm,210,675574,0.0-8.92-0.92,False,,1.0,207.0,,,,,,,[],,,,,,56.4,1.0,i,1.0,True,857.2000002861023,52.0,60.0,40.0,362.94952986333124,[],"[1024, 576]",ColorTask,146.0,93.0,,,HRV,HRV_0165,2022-11-30 18:40:59
,wl-rdm,211,679099,0.0-8.93-0.93,False,,1.0,208.0,,,,,,,[],,,,,,50.0,0.0,i,1.0,False,2196.7999999523163,132.0,60.0,40.0,260.26901440281284,[],"[1024, 576]",ColorTask,145.0,94.0,,,HRV,HRV_0165,2022-11-30 18:40:59
,wl-rdm,212,682657,0.0-8.94-0.94,False,,1.0,209.0,,,,,,,[],,,,,,53.2,1.0,u,0.0,False,2266.0,136.0,60.0,40.0,219.34937629058484,[],"[1024, 576]",ColorTask,144.0,95.0,,,HRV,HRV_0165,2022-11-30 18:40:59
,wl-rdm,213,684811,0.0-8.95-0.95,False,,1.0,210.0,,,,,,,[],,,,,,73.6,0.0,u,0.0,True,860.2000002861023,52.0,60.0,40.0,227.28515844848283,[],"[1024, 576]",ColorTask,145.0,96.0,,,HRV,HRV_0165,2022-11-30 18:40:59
,wl-rdm,214,687751,0.0-8.96-0.96,False,,1.0,211.0,,,,,,,[],,,,,,56.4,0.0,u,0.0,True,1591.5,96.0,60.0,40.0,283.2827527734731,[],"[1024, 576]",ColorTask,146.0,97.0,,,HRV,HRV_0165,2022-11-30 18:40:59
,wl-rdm,215,690424,0.0-8.97-0.97,False,,1.0,212.0,,,,,,,[],,,,,,53.2,1.0,i,1.0,True,1398.3000001907349,84.0,60.0,40.0,213.63758667529436,[],"[1024, 576]",ColorTask,147.0,98.0,,,HRV,HRV_0165,2022-11-30 18:40:59
,wl-rdm,216,692612,0.0-8.98-0.98,False,,1.0,213.0,,,,,,,[],,,,,,62.5,0.0,u,0.0,True,809.5,49.0,60.0,40.0,311.08709541655577,[],"[1024, 576]",ColorTask,148.0,99.0,,,HRV,HRV_0165,2022-11-30 18:40:59
,wl-rdm,217,695134,0.0-8.99-0.99,False,,1.0,214.0,,,,,,,[],,,,,,53.2,0.0,u,0.0,True,1199.5999999046326,72.0,60.0,40.0,258.66954897098026,[],"[1024, 576]",ColorTask,149.0,100.0,,,HRV,HRV_0165,2022-11-30 18:40:59
,wl-rdm,218,698475,0.0-8.100-0.100,False,,1.0,215.0,,,,,,,[],,,,,,53.2,1.0,i,1.0,True,2055.2000000476837,124.0,60.0,40.0,201.86110174886963,[],"[1024, 576]",ColorTask,150.0,101.0,,,HRV,HRV_0165,2022-11-30 18:40:59
,wl-rdm,219,700930,0.0-8.101-0.101,False,,1.0,216.0,,,,,,,[],,,,,,73.6,1.0,i,1.0,True,1087.4000000953674,66.0,60.0,40.0,283.9383706046174,[],"[1024, 576]",ColorTask,151.0,102.0,,,HRV,HRV_0165,2022-11-30 18:40:59
,wl-rdm,220,703837,0.0-8.102-0.102,False,,1.0,217.0,,,,,,,[],,,,,,53.2,0.0,u,0.0,True,1535.2000002861023,92.0,60.0,40.0,301.20781117161357,[],"[1024, 576]",ColorTask,152.0,103.0,,,HRV,HRV_0165,2022-11-30 18:40:59
,wl-rdm,221,705991,0.0-8.103-0.103,False,,1.0,218.0,,,,,,,[],,,,,,87.9,0.0,u,0.0,True,814.2999999523163,49.0,60.0,40.0,281.89795631456843,[],"[1024, 576]",ColorTask,153.0,104.0,,,HRV,HRV_0165,2022-11-30 18:40:59
,wl-rdm,222,708397,0.0-8.104-0.104,False,,1.0,219.0,,,,,,,[],,,,,,50.0,0.0,u,0.0,True,1092.8000001907349,66.0,60.0,40.0,242.71647416660957,[],"[1024, 576]",ColorTask,154.0,105.0,,,HRV,HRV_0165,2022-11-30 18:40:59
,wl-rdm,223,710618,0.0-8.105-0.105,False,,1.0,220.0,,,,,,,[],,,,,,73.6,0.0,u,0.0,True,886.7000000476837,54.0,60.0,40.0,261.0556117962629,[],"[1024, 576]",ColorTask,155.0,106.0,,,HRV,HRV_0165,2022-11-30 18:40:59
,wl-rdm,224,713124,0.0-8.106-0.106,False,,1.0,221.0,,,,,,,[],,,,,,62.5,1.0,i,1.0,True,1060.6000001430511,64.0,60.0,40.0,376.9383474594555,[],"[1024, 576]",ColorTask,156.0,107.0,,,HRV,HRV_0165,2022-11-30 18:40:59
,wl-rdm,225,715312,0.0-8.107-0.107,False,,1.0,222.0,,,,,,,[],,,,,,87.9,0.0,u,0.0,True,847.0999999046326,51.0,60.0,40.0,281.09432452511936,[],"[1024, 576]",ColorTask,157.0,108.0,,,HRV,HRV_0165,2022-11-30 18:40:59
,wl-html-button-response,226,718165,0.0-9.0-0.0,,,,,,,,,,,,2852.0,,0,,,,,,,,,,,,,,,,,,<h3>End of this session. Thank you!</h3><br>,['Close window'],HRV,HRV_0165,2022-11-30 18:40:59
