trialN,stimuli,question,trialStartTime,trialStartTime_UNIX,stimulus1,rt,receivedResponse,rating,trialEndTime,trialDuration,stimulus1Loaded,exp,subjectId,date
0,"[{'imgObject': {}, 'id': 'cocktailshrimp', 'src': '/static/foodstim60/cocktailshrimp.jpg', 'key': 'NaN', 'origWidth': 410, 'origHeight': 410, 'width': 410, 'height': 410, 'widthPercent': 0.8, 'rescaleHeight': True, 'trialN': 0, 'loaded': True, 'loadedTime': 1920.2000000476837, 'positionName': 'CENTER', 'positionCoords': [819, 371]}]",Rate how much you want to eat this food from 0 (least) to 10 (most).,2043.7000000476837,1669832404688,cocktailshrimp,3279.5999999046326,True,2.11,5323.299999952316,3279.5999999046326,True,HRV,HRV_0165,2022-11-30 18:21:47
1,"[{'imgObject': {}, 'id': 'blueberries', 'src': '/static/foodstim60/blueberries.jpg', 'key': 'NaN', 'origWidth': 411, 'origHeight': 411, 'width': 411, 'height': 411, 'widthPercent': 0.8, 'rescaleHeight': True, 'trialN': 1, 'loaded': True, 'loadedTime': 1922, 'positionName': 'CENTER', 'positionCoords': [818.5, 370.5]}]",Rate how much you want to eat this food from 0 (least) to 10 (most).,5325.0,1669832407970,blueberries,1347.3999998569489,True,5.62,6672.399999856949,1347.3999998569489,True,HRV,HRV_0165,2022-11-30 18:21:47
2,"[{'imgObject': {}, 'id': 'grilled chicken strips', 'src': '/static/foodstim60/grilled chicken strips.jpg', 'key': 'NaN', 'origWidth': 410, 'origHeight': 411, 'width': 410, 'height': 411, 'widthPercent': 0.8, 'rescaleHeight': True, 'trialN': 2, 'loaded': True, 'loadedTime': 1923.2999999523163, 'positionName': 'CENTER', 'positionCoords': [819, 370.5]}]",Rate how much you want to eat this food from 0 (least) to 10 (most).,6672.899999856949,1669832409318,grilled chicken strips,1435.4000000953674,True,4.23,8108.299999952316,1435.4000000953674,True,HRV,HRV_0165,2022-11-30 18:21:47
3,"[{'imgObject': {}, 'id': 'cherries', 'src': '/static/foodstim60/cherries.jpg', 'key': 'NaN', 'origWidth': 410, 'origHeight': 411, 'width': 410, 'height': 411, 'widthPercent': 0.8, 'rescaleHeight': True, 'trialN': 3, 'loaded': True, 'loadedTime': 1925.0999999046326, 'positionName': 'CENTER', 'positionCoords': [819, 370.5]}]",Rate how much you want to eat this food from 0 (least) to 10 (most).,8108.899999856949,1669832410754,cherries,1661.4000000953674,True,5.21,9770.299999952316,1661.4000000953674,True,HRV,HRV_0165,2022-11-30 18:21:47
4,"[{'imgObject': {}, 'id': 'Tribe humus pita', 'src': '/static/foodstim60/Tribe humus pita.jpg', 'key': 'NaN', 'origWidth': 411, 'origHeight': 411, 'width': 411, 'height': 411, 'widthPercent': 0.8, 'rescaleHeight': True, 'trialN': 4, 'loaded': True, 'loadedTime': 1930.8999998569489, 'positionName': 'CENTER', 'positionCoords': [818.5, 370.5]}]",Rate how much you want to eat this food from 0 (least) to 10 (most).,9771.0,1669832412416,Tribe humus pita,1446.2000000476837,True,2.9,11217.200000047684,1446.2000000476837,True,HRV,HRV_0165,2022-11-30 18:21:47
5,"[{'imgObject': {}, 'id': 'sweetpotato', 'src': '/static/foodstim60/sweetpotato.jpg', 'key': 'NaN', 'origWidth': 410, 'origHeight': 410, 'width': 410, 'height': 410, 'widthPercent': 0.8, 'rescaleHeight': True, 'trialN': 5, 'loaded': True, 'loadedTime': 1931.7999999523163, 'positionName': 'CENTER', 'positionCoords': [819, 371]}]",Rate how much you want to eat this food from 0 (least) to 10 (most).,11218.0,1669832413863,sweetpotato,1225.3999998569489,True,1.59,12443.399999856949,1225.3999998569489,True,HRV,HRV_0165,2022-11-30 18:21:47
6,"[{'imgObject': {}, 'id': 'kiwi', 'src': '/static/foodstim60/kiwi.jpg', 'key': 'NaN', 'origWidth': 410, 'origHeight': 410, 'width': 410, 'height': 410, 'widthPercent': 0.8, 'rescaleHeight': True, 'trialN': 6, 'loaded': True, 'loadedTime': 1946.8999998569489, 'positionName': 'CENTER', 'positionCoords': [819, 371]}]",Rate how much you want to eat this food from 0 (least) to 10 (most).,12444.0,1669832415089,kiwi,1237.2999999523163,True,5.55,13681.299999952316,1237.2999999523163,True,HRV,HRV_0165,2022-11-30 18:21:47
7,"[{'imgObject': {}, 'id': 'mashed potato', 'src': '/static/foodstim60/mashed potato.jpg', 'key': 'NaN', 'origWidth': 409, 'origHeight': 409, 'width': 409, 'height': 409, 'widthPercent': 0.8, 'rescaleHeight': True, 'trialN': 7, 'loaded': True, 'loadedTime': 1932.5999999046326, 'positionName': 'CENTER', 'positionCoords': [819.5, 371.5]}]",Rate how much you want to eat this food from 0 (least) to 10 (most).,13681.899999856949,1669832416327,mashed potato,1806.4000000953674,True,5.64,15488.299999952316,1806.4000000953674,True,HRV,HRV_0165,2022-11-30 18:21:47
8,"[{'imgObject': {}, 'id': 'corn cob', 'src': '/static/foodstim60/corn cob.jpg', 'key': 'NaN', 'origWidth': 411, 'origHeight': 411, 'width': 411, 'height': 411, 'widthPercent': 0.8, 'rescaleHeight': True, 'trialN': 8, 'loaded': True, 'loadedTime': 1941.2000000476837, 'positionName': 'CENTER', 'positionCoords': [818.5, 370.5]}]",Rate how much you want to eat this food from 0 (least) to 10 (most).,15489.0,1669832418134,corn cob,2179.2000000476837,True,2.64,17668.200000047684,2179.2000000476837,True,HRV,HRV_0165,2022-11-30 18:21:47
9,"[{'imgObject': {}, 'id': 'pear', 'src': '/static/foodstim60/pear.jpg', 'key': 'NaN', 'origWidth': 411, 'origHeight': 410, 'width': 411, 'height': 410, 'widthPercent': 0.8, 'rescaleHeight': True, 'trialN': 9, 'loaded': True, 'loadedTime': 1942.2000000476837, 'positionName': 'CENTER', 'positionCoords': [818.5, 371]}]",Rate how much you want to eat this food from 0 (least) to 10 (most).,17668.89999985695,1669832420314,pear,1987.3000001907349,True,2.5,19656.200000047684,1987.3000001907349,True,HRV,HRV_0165,2022-11-30 18:21:47
10,"[{'imgObject': {}, 'id': 'orange slices', 'src': '/static/foodstim60/orange slices.jpg', 'key': 'NaN', 'origWidth': 409, 'origHeight': 410, 'width': 409, 'height': 410, 'widthPercent': 0.8, 'rescaleHeight': True, 'trialN': 10, 'loaded': True, 'loadedTime': 1951.7999999523163, 'positionName': 'CENTER', 'positionCoords': [819.5, 371]}]",Rate how much you want to eat this food from 0 (least) to 10 (most).,19657.299999952316,1669832422302,orange slices,1269.0,True,1.36,20926.299999952316,1269.0,True,HRV,HRV_0165,2022-11-30 18:21:47
11,"[{'imgObject': {}, 'id': 'apple slices', 'src': '/static/foodstim60/apple slices.jpg', 'key': 'NaN', 'origWidth': 409, 'origHeight': 410, 'width': 409, 'height': 410, 'widthPercent': 0.8, 'rescaleHeight': True, 'trialN': 11, 'loaded': True, 'loadedTime': 1954.2000000476837, 'positionName': 'CENTER', 'positionCoords': [819.5, 371]}]",Rate how much you want to eat this food from 0 (least) to 10 (most).,20926.89999985695,1669832423572,apple slices,1557.4000000953674,True,1.74,22484.299999952316,1557.4000000953674,True,HRV,HRV_0165,2022-11-30 18:21:47
12,"[{'imgObject': {}, 'id': 'fruitsalad', 'src': '/static/foodstim60/fruitsalad.jpg', 'key': 'NaN', 'origWidth': 410, 'origHeight': 410, 'width': 410, 'height': 410, 'widthPercent': 0.8, 'rescaleHeight': True, 'trialN': 12, 'loaded': True, 'loadedTime': 1955, 'positionName': 'CENTER', 'positionCoords': [819, 371]}]",Rate how much you want to eat this food from 0 (least) to 10 (most).,22484.89999985695,1669832425130,fruitsalad,1584.5,True,3.47,24069.39999985695,1584.5,True,HRV,HRV_0165,2022-11-30 18:21:47
13,"[{'imgObject': {}, 'id': 'lox', 'src': '/static/foodstim60/lox.jpg', 'key': 'NaN', 'origWidth': 410, 'origHeight': 411, 'width': 410, 'height': 411, 'widthPercent': 0.8, 'rescaleHeight': True, 'trialN': 13, 'loaded': True, 'loadedTime': 1955.7000000476837, 'positionName': 'CENTER', 'positionCoords': [819, 370.5]}]",Rate how much you want to eat this food from 0 (least) to 10 (most).,24070.200000047684,1669832426715,lox,1648.0999999046326,True,0.31,25718.299999952316,1648.0999999046326,True,HRV,HRV_0165,2022-11-30 18:21:47
14,"[{'imgObject': {}, 'id': 'omelette', 'src': '/static/foodstim60/omelette.jpg', 'key': 'NaN', 'origWidth': 410, 'origHeight': 409, 'width': 410, 'height': 409, 'widthPercent': 0.8, 'rescaleHeight': True, 'trialN': 14, 'loaded': True, 'loadedTime': 1956.3999998569489, 'positionName': 'CENTER', 'positionCoords': [819, 371.5]}]",Rate how much you want to eat this food from 0 (least) to 10 (most).,25719.0,1669832428364,omelette,2361.399999856949,True,4.37,28080.39999985695,2361.399999856949,True,HRV,HRV_0165,2022-11-30 18:21:47
15,"[{'imgObject': {}, 'id': 'hotdog w must', 'src': '/static/foodstim60/hotdog w must.jpg', 'key': 'NaN', 'origWidth': 409, 'origHeight': 409, 'width': 409, 'height': 409, 'widthPercent': 0.8, 'rescaleHeight': True, 'trialN': 15, 'loaded': True, 'loadedTime': 1957, 'positionName': 'CENTER', 'positionCoords': [819.5, 371.5]}]",Rate how much you want to eat this food from 0 (least) to 10 (most).,28081.0,1669832430726,hotdog w must,1325.5,True,6.22,29406.5,1325.5,True,HRV,HRV_0165,2022-11-30 18:21:47
16,"[{'imgObject': {}, 'id': 'cantaloupe', 'src': '/static/foodstim60/cantaloupe.jpg', 'key': 'NaN', 'origWidth': 409, 'origHeight': 409, 'width': 409, 'height': 409, 'widthPercent': 0.8, 'rescaleHeight': True, 'trialN': 16, 'loaded': True, 'loadedTime': 1957.5999999046326, 'positionName': 'CENTER', 'positionCoords': [819.5, 371.5]}]",Rate how much you want to eat this food from 0 (least) to 10 (most).,29407.099999904633,1669832432052,cantaloupe,2485.100000143051,True,1.34,31892.200000047684,2485.100000143051,True,HRV,HRV_0165,2022-11-30 18:21:47
17,"[{'imgObject': {}, 'id': 'chickenfingers', 'src': '/static/foodstim60/chickenfingers.jpg', 'key': 'NaN', 'origWidth': 410, 'origHeight': 410, 'width': 410, 'height': 410, 'widthPercent': 0.8, 'rescaleHeight': True, 'trialN': 17, 'loaded': True, 'loadedTime': 1959.0999999046326, 'positionName': 'CENTER', 'positionCoords': [819, 371]}]",Rate how much you want to eat this food from 0 (least) to 10 (most).,31893.0,1669832434538,chickenfingers,1538.2000000476837,True,8.9,33431.200000047684,1538.2000000476837,True,HRV,HRV_0165,2022-11-30 18:21:47
18,"[{'imgObject': {}, 'id': 'luckycharms', 'src': '/static/foodstim60/luckycharms.jpg', 'key': 'NaN', 'origWidth': 410, 'origHeight': 409, 'width': 410, 'height': 409, 'widthPercent': 0.8, 'rescaleHeight': True, 'trialN': 18, 'loaded': True, 'loadedTime': 1959.7999999523163, 'positionName': 'CENTER', 'positionCoords': [819, 371.5]}]",Rate how much you want to eat this food from 0 (least) to 10 (most).,33432.0,1669832436077,luckycharms,1299.3999998569489,True,7.1000000000000005,34731.39999985695,1299.3999998569489,True,HRV,HRV_0165,2022-11-30 18:21:47
19,"[{'imgObject': {}, 'id': 'turkeysandwich', 'src': '/static/foodstim60/turkeysandwich.jpg', 'key': 'NaN', 'origWidth': 409, 'origHeight': 409, 'width': 409, 'height': 409, 'widthPercent': 0.8, 'rescaleHeight': True, 'trialN': 19, 'loaded': True, 'loadedTime': 1960.5, 'positionName': 'CENTER', 'positionCoords': [819.5, 371.5]}]",Rate how much you want to eat this food from 0 (least) to 10 (most).,34732.0,1669832437377,turkeysandwich,2272.2000000476837,True,5.32,37004.200000047684,2272.2000000476837,True,HRV,HRV_0165,2022-11-30 18:21:47
20,"[{'imgObject': {}, 'id': 'rigatoni', 'src': '/static/foodstim60/rigatoni.jpg', 'key': 'NaN', 'origWidth': 411, 'origHeight': 411, 'width': 411, 'height': 411, 'widthPercent': 0.8, 'rescaleHeight': True, 'trialN': 20, 'loaded': True, 'loadedTime': 1962.2999999523163, 'positionName': 'CENTER', 'positionCoords': [818.5, 370.5]}]",Rate how much you want to eat this food from 0 (least) to 10 (most).,37004.89999985695,1669832439650,rigatoni,3433.600000143051,True,2.72,40438.5,3433.600000143051,True,HRV,HRV_0165,2022-11-30 18:21:47
21,"[{'imgObject': {}, 'id': 'steak', 'src': '/static/foodstim60/steak.jpg', 'key': 'NaN', 'origWidth': 410, 'origHeight': 410, 'width': 410, 'height': 410, 'widthPercent': 0.8, 'rescaleHeight': True, 'trialN': 21, 'loaded': True, 'loadedTime': 1963.5, 'positionName': 'CENTER', 'positionCoords': [819, 371]}]",Rate how much you want to eat this food from 0 (least) to 10 (most).,40439.09999990463,1669832443084,steak,1238.1000001430511,True,5.63,41677.200000047684,1238.1000001430511,True,HRV,HRV_0165,2022-11-30 18:21:47
22,"[{'imgObject': {}, 'id': 'cherry tomato', 'src': '/static/foodstim60/cherry tomato.jpg', 'key': 'NaN', 'origWidth': 410, 'origHeight': 410, 'width': 410, 'height': 410, 'widthPercent': 0.8, 'rescaleHeight': True, 'trialN': 22, 'loaded': True, 'loadedTime': 1964.2000000476837, 'positionName': 'CENTER', 'positionCoords': [819, 371]}]",Rate how much you want to eat this food from 0 (least) to 10 (most).,41677.700000047684,1669832444323,cherry tomato,1317.5999999046326,True,0.41000000000000003,42995.299999952316,1317.5999999046326,True,HRV,HRV_0165,2022-11-30 18:21:47
23,"[{'imgObject': {}, 'id': 'bagel and cc', 'src': '/static/foodstim60/bagel and cc.jpg', 'key': 'NaN', 'origWidth': 410, 'origHeight': 410, 'width': 410, 'height': 410, 'widthPercent': 0.8, 'rescaleHeight': True, 'trialN': 23, 'loaded': True, 'loadedTime': 1969, 'positionName': 'CENTER', 'positionCoords': [819, 371]}]",Rate how much you want to eat this food from 0 (least) to 10 (most).,42995.89999985695,1669832445641,bagel and cc,1652.3000001907349,True,5.61,44648.200000047684,1652.3000001907349,True,HRV,HRV_0165,2022-11-30 18:21:47
24,"[{'imgObject': {}, 'id': 'raspberries', 'src': '/static/foodstim60/raspberries.jpg', 'key': 'NaN', 'origWidth': 411, 'origHeight': 411, 'width': 411, 'height': 411, 'widthPercent': 0.8, 'rescaleHeight': True, 'trialN': 24, 'loaded': True, 'loadedTime': 1969.5999999046326, 'positionName': 'CENTER', 'positionCoords': [818.5, 370.5]}]",Rate how much you want to eat this food from 0 (least) to 10 (most).,44648.89999985695,1669832447294,raspberries,1740.4000000953674,True,4.68,46389.299999952316,1740.4000000953674,True,HRV,HRV_0165,2022-11-30 18:21:47
25,"[{'imgObject': {}, 'id': 'bagel plain', 'src': '/static/foodstim60/bagel plain.jpg', 'key': 'NaN', 'origWidth': 410, 'origHeight': 410, 'width': 410, 'height': 410, 'widthPercent': 0.8, 'rescaleHeight': True, 'trialN': 25, 'loaded': True, 'loadedTime': 1970.0999999046326, 'positionName': 'CENTER', 'positionCoords': [819, 371]}]",Rate how much you want to eat this food from 0 (least) to 10 (most).,46390.0,1669832449035,bagel plain,2549.2999999523163,True,2.9,48939.299999952316,2549.2999999523163,True,HRV,HRV_0165,2022-11-30 18:21:47
26,"[{'imgObject': {}, 'id': 'edamame', 'src': '/static/foodstim60/edamame.jpg', 'key': 'NaN', 'origWidth': 409, 'origHeight': 410, 'width': 409, 'height': 410, 'widthPercent': 0.8, 'rescaleHeight': True, 'trialN': 26, 'loaded': True, 'loadedTime': 1975.7999999523163, 'positionName': 'CENTER', 'positionCoords': [819.5, 371]}]",Rate how much you want to eat this food from 0 (least) to 10 (most).,48939.89999985695,1669832451585,edamame,1617.3000001907349,True,5.2700000000000005,50557.200000047684,1617.3000001907349,True,HRV,HRV_0165,2022-11-30 18:21:47
27,"[{'imgObject': {}, 'id': 'rigatoni and sauce', 'src': '/static/foodstim60/rigatoni and sauce.jpg', 'key': 'NaN', 'origWidth': 410, 'origHeight': 411, 'width': 410, 'height': 411, 'widthPercent': 0.8, 'rescaleHeight': True, 'trialN': 27, 'loaded': True, 'loadedTime': 1976.5999999046326, 'positionName': 'CENTER', 'positionCoords': [819, 370.5]}]",Rate how much you want to eat this food from 0 (least) to 10 (most).,50557.89999985695,1669832453203,rigatoni and sauce,1870.5,True,5.33,52428.39999985695,1870.5,True,HRV,HRV_0165,2022-11-30 18:21:47
28,"[{'imgObject': {}, 'id': 'granola w milk', 'src': '/static/foodstim60/granola w milk.jpg', 'key': 'NaN', 'origWidth': 410, 'origHeight': 410, 'width': 410, 'height': 410, 'widthPercent': 0.8, 'rescaleHeight': True, 'trialN': 28, 'loaded': True, 'loadedTime': 1977.5999999046326, 'positionName': 'CENTER', 'positionCoords': [819, 371]}]",Rate how much you want to eat this food from 0 (least) to 10 (most).,52429.09999990463,1669832455074,granola w milk,1468.1000001430511,True,4.0200000000000005,53897.200000047684,1468.1000001430511,True,HRV,HRV_0165,2022-11-30 18:21:47
29,"[{'imgObject': {}, 'id': 'olives', 'src': '/static/foodstim60/olives.jpg', 'key': 'NaN', 'origWidth': 410, 'origHeight': 410, 'width': 410, 'height': 410, 'widthPercent': 0.8, 'rescaleHeight': True, 'trialN': 29, 'loaded': True, 'loadedTime': 1983.5, 'positionName': 'CENTER', 'positionCoords': [819, 371]}]",Rate how much you want to eat this food from 0 (least) to 10 (most).,53897.89999985695,1669832456543,olives,1350.4000000953674,True,0.35000000000000003,55248.299999952316,1350.4000000953674,True,HRV,HRV_0165,2022-11-30 18:21:47
30,"[{'imgObject': {}, 'id': 'veggieswithdip', 'src': '/static/foodstim60/veggieswithdip.jpg', 'key': 'NaN', 'origWidth': 409, 'origHeight': 409, 'width': 409, 'height': 409, 'widthPercent': 0.8, 'rescaleHeight': True, 'trialN': 30, 'loaded': True, 'loadedTime': 1984.0999999046326, 'positionName': 'CENTER', 'positionCoords': [819.5, 371.5]}]",Rate how much you want to eat this food from 0 (least) to 10 (most).,55249.0,1669832457894,veggieswithdip,1654.2000000476837,True,1.09,56903.200000047684,1654.2000000476837,True,HRV,HRV_0165,2022-11-30 18:21:47
31,"[{'imgObject': {}, 'id': 'strawberries', 'src': '/static/foodstim60/strawberries.jpg', 'key': 'NaN', 'origWidth': 410, 'origHeight': 410, 'width': 410, 'height': 410, 'widthPercent': 0.8, 'rescaleHeight': True, 'trialN': 31, 'loaded': True, 'loadedTime': 1984.7000000476837, 'positionName': 'CENTER', 'positionCoords': [819, 371]}]",Rate how much you want to eat this food from 0 (least) to 10 (most).,56903.799999952316,1669832459549,strawberries,1816.5,True,5.23,58720.299999952316,1816.5,True,HRV,HRV_0165,2022-11-30 18:21:47
32,"[{'imgObject': {}, 'id': 'raisin bran w milk', 'src': '/static/foodstim60/raisin bran w milk.jpg', 'key': 'NaN', 'origWidth': 411, 'origHeight': 411, 'width': 411, 'height': 411, 'widthPercent': 0.8, 'rescaleHeight': True, 'trialN': 32, 'loaded': True, 'loadedTime': 1989.7000000476837, 'positionName': 'CENTER', 'positionCoords': [818.5, 370.5]}]",Rate how much you want to eat this food from 0 (least) to 10 (most).,58720.89999985695,1669832461366,raisin bran w milk,1464.3000001907349,True,3.45,60185.200000047684,1464.3000001907349,True,HRV,HRV_0165,2022-11-30 18:21:47
33,"[{'imgObject': {}, 'id': 'avocado', 'src': '/static/foodstim60/avocado.jpg', 'key': 'NaN', 'origWidth': 409, 'origHeight': 409, 'width': 409, 'height': 409, 'widthPercent': 0.8, 'rescaleHeight': True, 'trialN': 33, 'loaded': True, 'loadedTime': 1990.3999998569489, 'positionName': 'CENTER', 'positionCoords': [819.5, 371.5]}]",Rate how much you want to eat this food from 0 (least) to 10 (most).,60185.89999985695,1669832462831,avocado,1579.7000000476837,True,4.3,61765.59999990463,1579.7000000476837,True,HRV,HRV_0165,2022-11-30 18:21:47
34,"[{'imgObject': {}, 'id': 'yogurt no spoon', 'src': '/static/foodstim60/yogurt no spoon.jpg', 'key': 'NaN', 'origWidth': 411, 'origHeight': 410, 'width': 411, 'height': 410, 'widthPercent': 0.8, 'rescaleHeight': True, 'trialN': 34, 'loaded': True, 'loadedTime': 1990.7999999523163, 'positionName': 'CENTER', 'positionCoords': [818.5, 371]}]",Rate how much you want to eat this food from 0 (least) to 10 (most).,61766.299999952316,1669832464411,yogurt no spoon,1343.9000000953674,True,5.5,63110.200000047684,1343.9000000953674,True,HRV,HRV_0165,2022-11-30 18:21:47
35,"[{'imgObject': {}, 'id': 'ice cream sundae 002', 'src': '/static/foodstim60/ice cream sundae 002.jpg', 'key': 'NaN', 'origWidth': 409, 'origHeight': 409, 'width': 409, 'height': 409, 'widthPercent': 0.8, 'rescaleHeight': True, 'trialN': 35, 'loaded': True, 'loadedTime': 1995.7999999523163, 'positionName': 'CENTER', 'positionCoords': [819.5, 371.5]}]",Rate how much you want to eat this food from 0 (least) to 10 (most).,63110.89999985695,1669832465756,ice cream sundae 002,1511.2000000476837,True,5.5,64622.09999990463,1511.2000000476837,True,HRV,HRV_0165,2022-11-30 18:21:47
36,"[{'imgObject': {}, 'id': 'fried eggs', 'src': '/static/foodstim60/fried eggs.jpg', 'key': 'NaN', 'origWidth': 410, 'origHeight': 410, 'width': 410, 'height': 410, 'widthPercent': 0.8, 'rescaleHeight': True, 'trialN': 36, 'loaded': True, 'loadedTime': 1996.5999999046326, 'positionName': 'CENTER', 'positionCoords': [819, 371]}]",Rate how much you want to eat this food from 0 (least) to 10 (most).,64622.89999985695,1669832467268,fried eggs,1106.3000001907349,True,5.97,65729.20000004768,1106.3000001907349,True,HRV,HRV_0165,2022-11-30 18:21:47
37,"[{'imgObject': {}, 'id': 'Grapes', 'src': '/static/foodstim60/Grapes.jpg', 'key': 'NaN', 'origWidth': 411, 'origHeight': 411, 'width': 411, 'height': 411, 'widthPercent': 0.8, 'rescaleHeight': True, 'trialN': 37, 'loaded': True, 'loadedTime': 1998.7999999523163, 'positionName': 'CENTER', 'positionCoords': [818.5, 370.5]}]",Rate how much you want to eat this food from 0 (least) to 10 (most).,65730.0,1669832468375,Grapes,1571.2000000476837,True,3.35,67301.20000004768,1571.2000000476837,True,HRV,HRV_0165,2022-11-30 18:21:47
38,"[{'imgObject': {}, 'id': 'salmon', 'src': '/static/foodstim60/salmon.jpg', 'key': 'NaN', 'origWidth': 410, 'origHeight': 409, 'width': 410, 'height': 409, 'widthPercent': 0.8, 'rescaleHeight': True, 'trialN': 38, 'loaded': True, 'loadedTime': 2003.7000000476837, 'positionName': 'CENTER', 'positionCoords': [819, 371.5]}]",Rate how much you want to eat this food from 0 (least) to 10 (most).,67302.0,1669832469947,salmon,7757.299999952316,True,3.12,75059.29999995232,7757.299999952316,True,HRV,HRV_0165,2022-11-30 18:21:47
39,"[{'imgObject': {}, 'id': 'burger', 'src': '/static/foodstim60/burger.jpg', 'key': 'NaN', 'origWidth': 409, 'origHeight': 409, 'width': 409, 'height': 409, 'widthPercent': 0.8, 'rescaleHeight': True, 'trialN': 39, 'loaded': True, 'loadedTime': 2004.2000000476837, 'positionName': 'CENTER', 'positionCoords': [819.5, 371.5]}]",Rate how much you want to eat this food from 0 (least) to 10 (most).,75060.09999990463,1669832477705,burger,1615.1000001430511,True,7.07,76675.20000004768,1615.1000001430511,True,HRV,HRV_0165,2022-11-30 18:21:47
40,"[{'imgObject': {}, 'id': 'baked potato', 'src': '/static/foodstim60/baked potato.jpg', 'key': 'NaN', 'origWidth': 409, 'origHeight': 410, 'width': 409, 'height': 410, 'widthPercent': 0.8, 'rescaleHeight': True, 'trialN': 40, 'loaded': True, 'loadedTime': 2006.2999999523163, 'positionName': 'CENTER', 'positionCoords': [819.5, 371]}]",Rate how much you want to eat this food from 0 (least) to 10 (most).,76675.79999995232,1669832479321,baked potato,1193.5,True,2.7600000000000002,77869.29999995232,1193.5,True,HRV,HRV_0165,2022-11-30 18:21:47
41,"[{'imgObject': {}, 'id': 'seaweed', 'src': '/static/foodstim60/seaweed.jpg', 'key': 'NaN', 'origWidth': 410, 'origHeight': 410, 'width': 410, 'height': 410, 'widthPercent': 0.8, 'rescaleHeight': True, 'trialN': 41, 'loaded': True, 'loadedTime': 2011, 'positionName': 'CENTER', 'positionCoords': [819, 371]}]",Rate how much you want to eat this food from 0 (least) to 10 (most).,77870.0,1669832480515,seaweed,1345.2999999523163,True,0.39,79215.29999995232,1345.2999999523163,True,HRV,HRV_0165,2022-11-30 18:21:47
42,"[{'imgObject': {}, 'id': 'blackbeanswithrice', 'src': '/static/foodstim60/blackbeanswithrice.jpg', 'key': 'NaN', 'origWidth': 410, 'origHeight': 410, 'width': 410, 'height': 410, 'widthPercent': 0.8, 'rescaleHeight': True, 'trialN': 42, 'loaded': True, 'loadedTime': 2011.8999998569489, 'positionName': 'CENTER', 'positionCoords': [819, 371]}]",Rate how much you want to eat this food from 0 (least) to 10 (most).,79215.89999985695,1669832481861,blackbeanswithrice,1984.3000001907349,True,1.32,81200.20000004768,1984.3000001907349,True,HRV,HRV_0165,2022-11-30 18:21:47
43,"[{'imgObject': {}, 'id': 'hashbrowns', 'src': '/static/foodstim60/hashbrowns.jpg', 'key': 'NaN', 'origWidth': 411, 'origHeight': 410, 'width': 411, 'height': 410, 'widthPercent': 0.8, 'rescaleHeight': True, 'trialN': 43, 'loaded': True, 'loadedTime': 2012.5, 'positionName': 'CENTER', 'positionCoords': [818.5, 371]}]",Rate how much you want to eat this food from 0 (least) to 10 (most).,81200.89999985695,1669832483846,hashbrowns,1433.3000001907349,True,3.24,82634.20000004768,1433.3000001907349,True,HRV,HRV_0165,2022-11-30 18:21:47
44,"[{'imgObject': {}, 'id': 'roastedpotatoes', 'src': '/static/foodstim60/roastedpotatoes.jpg', 'key': 'NaN', 'origWidth': 409, 'origHeight': 410, 'width': 409, 'height': 410, 'widthPercent': 0.8, 'rescaleHeight': True, 'trialN': 44, 'loaded': True, 'loadedTime': 2016.7999999523163, 'positionName': 'CENTER', 'positionCoords': [819.5, 371]}]",Rate how much you want to eat this food from 0 (least) to 10 (most).,82634.89999985695,1669832485280,roastedpotatoes,1518.3000001907349,True,7.65,84153.20000004768,1518.3000001907349,True,HRV,HRV_0165,2022-11-30 18:21:47
45,"[{'imgObject': {}, 'id': 'cheerios', 'src': '/static/foodstim60/cheerios.jpg', 'key': 'NaN', 'origWidth': 409, 'origHeight': 410, 'width': 409, 'height': 410, 'widthPercent': 0.8, 'rescaleHeight': True, 'trialN': 45, 'loaded': True, 'loadedTime': 2017.5, 'positionName': 'CENTER', 'positionCoords': [819.5, 371]}]",Rate how much you want to eat this food from 0 (least) to 10 (most).,84153.79999995232,1669832486799,cheerios,2266.5,True,4.29,86420.29999995232,2266.5,True,HRV,HRV_0165,2022-11-30 18:21:47
46,"[{'imgObject': {}, 'id': 'banana', 'src': '/static/foodstim60/banana.jpg', 'key': 'NaN', 'origWidth': 410, 'origHeight': 410, 'width': 410, 'height': 410, 'widthPercent': 0.8, 'rescaleHeight': True, 'trialN': 46, 'loaded': True, 'loadedTime': 2018.0999999046326, 'positionName': 'CENTER', 'positionCoords': [819, 371]}]",Rate how much you want to eat this food from 0 (least) to 10 (most).,86421.09999990463,1669832489066,banana,952.2000000476837,True,2.94,87373.29999995232,952.2000000476837,True,HRV,HRV_0165,2022-11-30 18:21:47
47,"[{'imgObject': {}, 'id': 'burrito', 'src': '/static/foodstim60/burrito.jpg', 'key': 'NaN', 'origWidth': 410, 'origHeight': 410, 'width': 410, 'height': 410, 'widthPercent': 0.8, 'rescaleHeight': True, 'trialN': 47, 'loaded': True, 'loadedTime': 2021.3999998569489, 'positionName': 'CENTER', 'positionCoords': [819, 371]}]",Rate how much you want to eat this food from 0 (least) to 10 (most).,87374.09999990463,1669832490019,burrito,1309.2000000476837,True,7.08,88683.29999995232,1309.2000000476837,True,HRV,HRV_0165,2022-11-30 18:21:47
48,"[{'imgObject': {}, 'id': 'tacos', 'src': '/static/foodstim60/tacos.jpg', 'key': 'NaN', 'origWidth': 411, 'origHeight': 411, 'width': 411, 'height': 411, 'widthPercent': 0.8, 'rescaleHeight': True, 'trialN': 48, 'loaded': True, 'loadedTime': 2022.0999999046326, 'positionName': 'CENTER', 'positionCoords': [818.5, 370.5]}]",Rate how much you want to eat this food from 0 (least) to 10 (most).,88683.89999985695,1669832491329,tacos,1315.3000001907349,True,6.22,89999.20000004768,1315.3000001907349,True,HRV,HRV_0165,2022-11-30 18:21:47
49,"[{'imgObject': {}, 'id': 'mango', 'src': '/static/foodstim60/mango.jpg', 'key': 'NaN', 'origWidth': 411, 'origHeight': 411, 'width': 411, 'height': 411, 'widthPercent': 0.8, 'rescaleHeight': True, 'trialN': 49, 'loaded': True, 'loadedTime': 2022.7000000476837, 'positionName': 'CENTER', 'positionCoords': [818.5, 370.5]}]",Rate how much you want to eat this food from 0 (least) to 10 (most).,89999.70000004768,1669832492645,mango,1798.5999999046326,True,5.3500000000000005,91798.29999995232,1798.5999999046326,True,HRV,HRV_0165,2022-11-30 18:21:47
50,"[{'imgObject': {}, 'id': 'popsicles', 'src': '/static/foodstim60/popsicles.jpg', 'key': 'NaN', 'origWidth': 410, 'origHeight': 410, 'width': 410, 'height': 410, 'widthPercent': 0.8, 'rescaleHeight': True, 'trialN': 50, 'loaded': True, 'loadedTime': 2027, 'positionName': 'CENTER', 'positionCoords': [819, 371]}]",Rate how much you want to eat this food from 0 (least) to 10 (most).,91799.09999990463,1669832494444,popsicles,1486.2000000476837,True,3.29,93285.29999995232,1486.2000000476837,True,HRV,HRV_0165,2022-11-30 18:21:47
51,"[{'imgObject': {}, 'id': 'sushi w_condiments', 'src': '/static/foodstim60/sushi w_condiments.jpg', 'key': 'NaN', 'origWidth': 410, 'origHeight': 410, 'width': 410, 'height': 410, 'widthPercent': 0.8, 'rescaleHeight': True, 'trialN': 51, 'loaded': True, 'loadedTime': 2027.7000000476837, 'positionName': 'CENTER', 'positionCoords': [819, 371]}]",Rate how much you want to eat this food from 0 (least) to 10 (most).,93285.89999985695,1669832495931,sushi w_condiments,1772.2000000476837,True,2.75,95058.09999990463,1772.2000000476837,True,HRV,HRV_0165,2022-11-30 18:21:47
52,"[{'imgObject': {}, 'id': 'chicken nuggets2', 'src': '/static/foodstim60/chicken nuggets2.jpg', 'key': 'NaN', 'origWidth': 410, 'origHeight': 409, 'width': 410, 'height': 409, 'widthPercent': 0.8, 'rescaleHeight': True, 'trialN': 52, 'loaded': True, 'loadedTime': 2028.3999998569489, 'positionName': 'CENTER', 'positionCoords': [819, 371.5]}]",Rate how much you want to eat this food from 0 (least) to 10 (most).,95058.70000004768,1669832497704,chicken nuggets2,1505.5999999046326,True,8.82,96564.29999995232,1505.5999999046326,True,HRV,HRV_0165,2022-11-30 18:21:47
53,"[{'imgObject': {}, 'id': 'salad w chicken', 'src': '/static/foodstim60/salad w chicken.jpg', 'key': 'NaN', 'origWidth': 411, 'origHeight': 411, 'width': 411, 'height': 411, 'widthPercent': 0.8, 'rescaleHeight': True, 'trialN': 53, 'loaded': True, 'loadedTime': 2032.8999998569489, 'positionName': 'CENTER', 'positionCoords': [818.5, 370.5]}]",Rate how much you want to eat this food from 0 (least) to 10 (most).,96564.89999985695,1669832499210,salad w chicken,1197.4000000953674,True,7.6000000000000005,97762.29999995232,1197.4000000953674,True,HRV,HRV_0165,2022-11-30 18:21:47
54,"[{'imgObject': {}, 'id': 'mac & cheese', 'src': '/static/foodstim60/mac & cheese.jpg', 'key': 'NaN', 'origWidth': 410, 'origHeight': 410, 'width': 410, 'height': 410, 'widthPercent': 0.8, 'rescaleHeight': True, 'trialN': 54, 'loaded': True, 'loadedTime': 2033.7000000476837, 'positionName': 'CENTER', 'positionCoords': [819, 371]}]",Rate how much you want to eat this food from 0 (least) to 10 (most).,97762.89999985695,1669832500408,mac & cheese,1157.4000000953674,True,7.66,98920.29999995232,1157.4000000953674,True,HRV,HRV_0165,2022-11-30 18:21:47
55,"[{'imgObject': {}, 'id': 'froot loops w milk', 'src': '/static/foodstim60/froot loops w milk.jpg', 'key': 'NaN', 'origWidth': 410, 'origHeight': 410, 'width': 410, 'height': 410, 'widthPercent': 0.8, 'rescaleHeight': True, 'trialN': 55, 'loaded': True, 'loadedTime': 2034.2999999523163, 'positionName': 'CENTER', 'positionCoords': [819, 371]}]",Rate how much you want to eat this food from 0 (least) to 10 (most).,98921.0,1669832501566,froot loops w milk,1449.5999999046326,True,2.69,100370.59999990463,1449.5999999046326,True,HRV,HRV_0165,2022-11-30 18:21:47
56,"[{'imgObject': {}, 'id': 'turkey sandwich', 'src': '/static/foodstim60/turkey sandwich.jpg', 'key': 'NaN', 'origWidth': 409, 'origHeight': 409, 'width': 409, 'height': 409, 'widthPercent': 0.8, 'rescaleHeight': True, 'trialN': 56, 'loaded': True, 'loadedTime': 2038.8999998569489, 'positionName': 'CENTER', 'positionCoords': [819.5, 371.5]}]",Rate how much you want to eat this food from 0 (least) to 10 (most).,100371.29999995232,1669832503016,turkey sandwich,1036.9000000953674,True,5.93,101408.20000004768,1036.9000000953674,True,HRV,HRV_0165,2022-11-30 18:21:47
57,"[{'imgObject': {}, 'id': 'eggsalad', 'src': '/static/foodstim60/eggsalad.jpg', 'key': 'NaN', 'origWidth': 410, 'origHeight': 409, 'width': 410, 'height': 409, 'widthPercent': 0.8, 'rescaleHeight': True, 'trialN': 57, 'loaded': True, 'loadedTime': 2039.5999999046326, 'positionName': 'CENTER', 'positionCoords': [819, 371.5]}]",Rate how much you want to eat this food from 0 (least) to 10 (most).,101408.70000004768,1669832504054,eggsalad,1436.5999999046326,True,3.47,102845.29999995232,1436.5999999046326,True,HRV,HRV_0165,2022-11-30 18:21:47
58,"[{'imgObject': {}, 'id': 'shreddedwheatwithmilk', 'src': '/static/foodstim60/shreddedwheatwithmilk.jpg', 'key': 'NaN', 'origWidth': 410, 'origHeight': 410, 'width': 410, 'height': 410, 'widthPercent': 0.8, 'rescaleHeight': True, 'trialN': 58, 'loaded': True, 'loadedTime': 2040.0999999046326, 'positionName': 'CENTER', 'positionCoords': [819, 371]}]",Rate how much you want to eat this food from 0 (least) to 10 (most).,102845.79999995232,1669832505491,shreddedwheatwithmilk,3974.5,True,5.44,106820.29999995232,3974.5,True,HRV,HRV_0165,2022-11-30 18:21:47
59,"[{'imgObject': {}, 'id': 'eggs', 'src': '/static/foodstim60/eggs.jpg', 'key': 'NaN', 'origWidth': 409, 'origHeight': 409, 'width': 409, 'height': 409, 'widthPercent': 0.8, 'rescaleHeight': True, 'trialN': 59, 'loaded': True, 'loadedTime': 2043.2999999523163, 'positionName': 'CENTER', 'positionCoords': [819.5, 371.5]}]",Rate how much you want to eat this food from 0 (least) to 10 (most).,106820.79999995232,1669832509466,eggs,1461.5,True,3.4,108282.29999995232,1461.5,True,HRV,HRV_0165,2022-11-30 18:21:47
