trialN,stimuli,question,trialStartTime,trialStartTime_UNIX,stimulus1,rt,receivedResponse,rating,trialEndTime,trialDuration,stimulus1Loaded,exp,subjectId,date
0,"[{'imgObject': {}, 'id': 'fried eggs', 'src': '/static/foodstim60/fried eggs.jpg', 'key': 'NaN', 'origWidth': 410, 'origHeight': 410, 'width': 410, 'height': 410, 'widthPercent': 0.8, 'rescaleHeight': True, 'trialN': 0, 'loaded': True, 'loadedTime': 2837.6999999284744, 'positionName': 'CENTER', 'positionCoords': [475, 179]}]",Rate how much you want to eat this food from 0 (least) to 10 (most).,3127.1999999284744,1669834116862,fried eggs,3101.2000000476837,True,3.75,6228.399999976158,3101.2000000476837,True,HRV,HRV_0215,2022-11-30 18:50:37
1,"[{'imgObject': {}, 'id': 'cherries', 'src': '/static/foodstim60/cherries.jpg', 'key': 'NaN', 'origWidth': 410, 'origHeight': 411, 'width': 410, 'height': 411, 'widthPercent': 0.8, 'rescaleHeight': True, 'trialN': 1, 'loaded': True, 'loadedTime': 2848.899999976158, 'positionName': 'CENTER', 'positionCoords': [475, 178.5]}]",Rate how much you want to eat this food from 0 (least) to 10 (most).,6231.5,1669834119966,cherries,1663.2999999523163,True,1.07,7894.799999952316,1663.2999999523163,True,HRV,HRV_0215,2022-11-30 18:50:37
2,"[{'imgObject': {}, 'id': 'rigatoni', 'src': '/static/foodstim60/rigatoni.jpg', 'key': 'NaN', 'origWidth': 411, 'origHeight': 411, 'width': 411, 'height': 411, 'widthPercent': 0.8, 'rescaleHeight': True, 'trialN': 2, 'loaded': True, 'loadedTime': 2850.0999999046326, 'positionName': 'CENTER', 'positionCoords': [474.5, 178.5]}]",Rate how much you want to eat this food from 0 (least) to 10 (most).,7895.699999928474,1669834121630,rigatoni,1670.5,True,3.25,9566.199999928474,1670.5,True,HRV,HRV_0215,2022-11-30 18:50:37
3,"[{'imgObject': {}, 'id': 'lox', 'src': '/static/foodstim60/lox.jpg', 'key': 'NaN', 'origWidth': 410, 'origHeight': 411, 'width': 410, 'height': 411, 'widthPercent': 0.8, 'rescaleHeight': True, 'trialN': 3, 'loaded': True, 'loadedTime': 2854.5999999046326, 'positionName': 'CENTER', 'positionCoords': [475, 178.5]}]",Rate how much you want to eat this food from 0 (least) to 10 (most).,9566.899999976158,1669834123302,lox,1795.1999999284744,True,0.66,11362.099999904633,1795.1999999284744,True,HRV,HRV_0215,2022-11-30 18:50:37
4,"[{'imgObject': {}, 'id': 'cheerios', 'src': '/static/foodstim60/cheerios.jpg', 'key': 'NaN', 'origWidth': 409, 'origHeight': 410, 'width': 409, 'height': 410, 'widthPercent': 0.8, 'rescaleHeight': True, 'trialN': 4, 'loaded': True, 'loadedTime': 2856.899999976158, 'positionName': 'CENTER', 'positionCoords': [475.5, 179]}]",Rate how much you want to eat this food from 0 (least) to 10 (most).,11363.0,1669834125098,cheerios,1791.5999999046326,True,6.51,13154.599999904633,1791.5999999046326,True,HRV,HRV_0215,2022-11-30 18:50:37
5,"[{'imgObject': {}, 'id': 'shreddedwheatwithmilk', 'src': '/static/foodstim60/shreddedwheatwithmilk.jpg', 'key': 'NaN', 'origWidth': 410, 'origHeight': 410, 'width': 410, 'height': 410, 'widthPercent': 0.8, 'rescaleHeight': True, 'trialN': 5, 'loaded': True, 'loadedTime': 2859.399999976158, 'positionName': 'CENTER', 'positionCoords': [475, 179]}]",Rate how much you want to eat this food from 0 (least) to 10 (most).,13155.599999904633,1669834126890,shreddedwheatwithmilk,1306.5,True,6.92,14462.099999904633,1306.5,True,HRV,HRV_0215,2022-11-30 18:50:37
6,"[{'imgObject': {}, 'id': 'salmon', 'src': '/static/foodstim60/salmon.jpg', 'key': 'NaN', 'origWidth': 410, 'origHeight': 409, 'width': 410, 'height': 409, 'widthPercent': 0.8, 'rescaleHeight': True, 'trialN': 6, 'loaded': True, 'loadedTime': 2864.1999999284744, 'positionName': 'CENTER', 'positionCoords': [475, 179.5]}]",Rate how much you want to eat this food from 0 (least) to 10 (most).,14463.099999904633,1669834128198,salmon,2615.600000023842,True,2.98,17078.699999928474,2615.600000023842,True,HRV,HRV_0215,2022-11-30 18:50:37
7,"[{'imgObject': {}, 'id': 'seaweed', 'src': '/static/foodstim60/seaweed.jpg', 'key': 'NaN', 'origWidth': 410, 'origHeight': 410, 'width': 410, 'height': 410, 'widthPercent': 0.8, 'rescaleHeight': True, 'trialN': 7, 'loaded': True, 'loadedTime': 2880.899999976158, 'positionName': 'CENTER', 'positionCoords': [475, 179]}]",Rate how much you want to eat this food from 0 (least) to 10 (most).,17079.799999952316,1669834130814,seaweed,1932.7000000476837,True,0.0,19012.5,1932.7000000476837,True,HRV,HRV_0215,2022-11-30 18:50:37
8,"[{'imgObject': {}, 'id': 'avocado', 'src': '/static/foodstim60/avocado.jpg', 'key': 'NaN', 'origWidth': 409, 'origHeight': 409, 'width': 409, 'height': 409, 'widthPercent': 0.8, 'rescaleHeight': True, 'trialN': 8, 'loaded': True, 'loadedTime': 2882.5999999046326, 'positionName': 'CENTER', 'positionCoords': [475.5, 179.5]}]",Rate how much you want to eat this food from 0 (least) to 10 (most).,19013.599999904633,1669834132749,avocado,1173.3000000715256,True,0.13,20186.899999976158,1173.3000000715256,True,HRV,HRV_0215,2022-11-30 18:50:37
9,"[{'imgObject': {}, 'id': 'salad w chicken', 'src': '/static/foodstim60/salad w chicken.jpg', 'key': 'NaN', 'origWidth': 411, 'origHeight': 411, 'width': 411, 'height': 411, 'widthPercent': 0.8, 'rescaleHeight': True, 'trialN': 9, 'loaded': True, 'loadedTime': 2884.5999999046326, 'positionName': 'CENTER', 'positionCoords': [474.5, 178.5]}]",Rate how much you want to eat this food from 0 (least) to 10 (most).,20188.0,1669834133923,salad w chicken,2441.2999999523163,True,6.11,22629.299999952316,2441.2999999523163,True,HRV,HRV_0215,2022-11-30 18:50:37
10,"[{'imgObject': {}, 'id': 'turkeysandwich', 'src': '/static/foodstim60/turkeysandwich.jpg', 'key': 'NaN', 'origWidth': 409, 'origHeight': 409, 'width': 409, 'height': 409, 'widthPercent': 0.8, 'rescaleHeight': True, 'trialN': 10, 'loaded': True, 'loadedTime': 2888, 'positionName': 'CENTER', 'positionCoords': [475.5, 179.5]}]",Rate how much you want to eat this food from 0 (least) to 10 (most).,22630.5,1669834136365,turkeysandwich,1599.1999999284744,True,7.08,24229.699999928474,1599.1999999284744,True,HRV,HRV_0215,2022-11-30 18:50:37
11,"[{'imgObject': {}, 'id': 'luckycharms', 'src': '/static/foodstim60/luckycharms.jpg', 'key': 'NaN', 'origWidth': 410, 'origHeight': 409, 'width': 410, 'height': 409, 'widthPercent': 0.8, 'rescaleHeight': True, 'trialN': 11, 'loaded': True, 'loadedTime': 2890.7999999523163, 'positionName': 'CENTER', 'positionCoords': [475, 179.5]}]",Rate how much you want to eat this food from 0 (least) to 10 (most).,24232.0,1669834137967,luckycharms,1580.0,True,7.32,25812.0,1580.0,True,HRV,HRV_0215,2022-11-30 18:50:37
12,"[{'imgObject': {}, 'id': 'mango', 'src': '/static/foodstim60/mango.jpg', 'key': 'NaN', 'origWidth': 411, 'origHeight': 411, 'width': 411, 'height': 411, 'widthPercent': 0.8, 'rescaleHeight': True, 'trialN': 12, 'loaded': True, 'loadedTime': 2893.1999999284744, 'positionName': 'CENTER', 'positionCoords': [474.5, 178.5]}]",Rate how much you want to eat this food from 0 (least) to 10 (most).,25813.199999928474,1669834139548,mango,1325.3000000715256,True,2.91,27138.5,1325.3000000715256,True,HRV,HRV_0215,2022-11-30 18:50:37
13,"[{'imgObject': {}, 'id': 'baked potato', 'src': '/static/foodstim60/baked potato.jpg', 'key': 'NaN', 'origWidth': 409, 'origHeight': 410, 'width': 409, 'height': 410, 'widthPercent': 0.8, 'rescaleHeight': True, 'trialN': 13, 'loaded': True, 'loadedTime': 2894.399999976158, 'positionName': 'CENTER', 'positionCoords': [475.5, 179]}]",Rate how much you want to eat this food from 0 (least) to 10 (most).,27140.899999976158,1669834140876,baked potato,2406.6999999284744,True,1.98,29547.599999904633,2406.6999999284744,True,HRV,HRV_0215,2022-11-30 18:50:37
14,"[{'imgObject': {}, 'id': 'yogurt no spoon', 'src': '/static/foodstim60/yogurt no spoon.jpg', 'key': 'NaN', 'origWidth': 411, 'origHeight': 410, 'width': 411, 'height': 410, 'widthPercent': 0.8, 'rescaleHeight': True, 'trialN': 14, 'loaded': True, 'loadedTime': 2896.7999999523163, 'positionName': 'CENTER', 'positionCoords': [474.5, 179]}]",Rate how much you want to eat this food from 0 (least) to 10 (most).,29549.399999976158,1669834143284,yogurt no spoon,1715.1000000238419,True,3.0700000000000003,31264.5,1715.1000000238419,True,HRV,HRV_0215,2022-11-30 18:50:37
15,"[{'imgObject': {}, 'id': 'burrito', 'src': '/static/foodstim60/burrito.jpg', 'key': 'NaN', 'origWidth': 410, 'origHeight': 410, 'width': 410, 'height': 410, 'widthPercent': 0.8, 'rescaleHeight': True, 'trialN': 15, 'loaded': True, 'loadedTime': 2899.399999976158, 'positionName': 'CENTER', 'positionCoords': [475, 179]}]",Rate how much you want to eat this food from 0 (least) to 10 (most).,31265.599999904633,1669834145001,burrito,1795.8000000715256,True,6.6000000000000005,33061.39999997616,1795.8000000715256,True,HRV,HRV_0215,2022-11-30 18:50:37
16,"[{'imgObject': {}, 'id': 'kiwi', 'src': '/static/foodstim60/kiwi.jpg', 'key': 'NaN', 'origWidth': 410, 'origHeight': 410, 'width': 410, 'height': 410, 'widthPercent': 0.8, 'rescaleHeight': True, 'trialN': 16, 'loaded': True, 'loadedTime': 2901.399999976158, 'positionName': 'CENTER', 'positionCoords': [475, 179]}]",Rate how much you want to eat this food from 0 (least) to 10 (most).,33063.199999928474,1669834146798,kiwi,1932.8000000715256,True,5.19,34996.0,1932.8000000715256,True,HRV,HRV_0215,2022-11-30 18:50:37
17,"[{'imgObject': {}, 'id': 'steak', 'src': '/static/foodstim60/steak.jpg', 'key': 'NaN', 'origWidth': 410, 'origHeight': 410, 'width': 410, 'height': 410, 'widthPercent': 0.8, 'rescaleHeight': True, 'trialN': 17, 'loaded': True, 'loadedTime': 2902.6999999284744, 'positionName': 'CENTER', 'positionCoords': [475, 179]}]",Rate how much you want to eat this food from 0 (least) to 10 (most).,34998.299999952316,1669834148733,steak,1963.2999999523163,True,8.01,36961.59999990463,1963.2999999523163,True,HRV,HRV_0215,2022-11-30 18:50:37
18,"[{'imgObject': {}, 'id': 'mashed potato', 'src': '/static/foodstim60/mashed potato.jpg', 'key': 'NaN', 'origWidth': 409, 'origHeight': 409, 'width': 409, 'height': 409, 'widthPercent': 0.8, 'rescaleHeight': True, 'trialN': 18, 'loaded': True, 'loadedTime': 2904.6999999284744, 'positionName': 'CENTER', 'positionCoords': [475.5, 179.5]}]",Rate how much you want to eat this food from 0 (least) to 10 (most).,36962.59999990463,1669834150698,mashed potato,1616.2000000476837,True,6.83,38578.799999952316,1616.2000000476837,True,HRV,HRV_0215,2022-11-30 18:50:37
19,"[{'imgObject': {}, 'id': 'Tribe humus pita', 'src': '/static/foodstim60/Tribe humus pita.jpg', 'key': 'NaN', 'origWidth': 411, 'origHeight': 411, 'width': 411, 'height': 411, 'widthPercent': 0.8, 'rescaleHeight': True, 'trialN': 19, 'loaded': True, 'loadedTime': 2908.2999999523163, 'positionName': 'CENTER', 'positionCoords': [474.5, 178.5]}]",Rate how much you want to eat this food from 0 (least) to 10 (most).,38580.0,1669834152315,Tribe humus pita,1549.1999999284744,True,5.83,40129.199999928474,1549.1999999284744,True,HRV,HRV_0215,2022-11-30 18:50:37
20,"[{'imgObject': {}, 'id': 'blueberries', 'src': '/static/foodstim60/blueberries.jpg', 'key': 'NaN', 'origWidth': 411, 'origHeight': 411, 'width': 411, 'height': 411, 'widthPercent': 0.8, 'rescaleHeight': True, 'trialN': 20, 'loaded': True, 'loadedTime': 2910.6999999284744, 'positionName': 'CENTER', 'positionCoords': [474.5, 178.5]}]",Rate how much you want to eat this food from 0 (least) to 10 (most).,40130.5,1669834153866,blueberries,2197.5,True,0.52,42328.0,2197.5,True,HRV,HRV_0215,2022-11-30 18:50:37
21,"[{'imgObject': {}, 'id': 'chicken nuggets2', 'src': '/static/foodstim60/chicken nuggets2.jpg', 'key': 'NaN', 'origWidth': 410, 'origHeight': 409, 'width': 410, 'height': 409, 'widthPercent': 0.8, 'rescaleHeight': True, 'trialN': 21, 'loaded': True, 'loadedTime': 2912.2999999523163, 'positionName': 'CENTER', 'positionCoords': [475, 179.5]}]",Rate how much you want to eat this food from 0 (least) to 10 (most).,42329.199999928474,1669834156064,chicken nuggets2,2033.0,True,4.72,44362.199999928474,2033.0,True,HRV,HRV_0215,2022-11-30 18:50:37
22,"[{'imgObject': {}, 'id': 'strawberries', 'src': '/static/foodstim60/strawberries.jpg', 'key': 'NaN', 'origWidth': 410, 'origHeight': 410, 'width': 410, 'height': 410, 'widthPercent': 0.8, 'rescaleHeight': True, 'trialN': 22, 'loaded': True, 'loadedTime': 2913.7999999523163, 'positionName': 'CENTER', 'positionCoords': [475, 179]}]",Rate how much you want to eat this food from 0 (least) to 10 (most).,44364.5,1669834158100,strawberries,2128.5,True,0.23,46493.0,2128.5,True,HRV,HRV_0215,2022-11-30 18:50:37
23,"[{'imgObject': {}, 'id': 'roastedpotatoes', 'src': '/static/foodstim60/roastedpotatoes.jpg', 'key': 'NaN', 'origWidth': 409, 'origHeight': 410, 'width': 409, 'height': 410, 'widthPercent': 0.8, 'rescaleHeight': True, 'trialN': 23, 'loaded': True, 'loadedTime': 2915, 'positionName': 'CENTER', 'positionCoords': [475.5, 179]}]",Rate how much you want to eat this food from 0 (least) to 10 (most).,46494.39999997616,1669834160229,roastedpotatoes,1582.8999999761581,True,1.76,48077.299999952316,1582.8999999761581,True,HRV,HRV_0215,2022-11-30 18:50:37
24,"[{'imgObject': {}, 'id': 'ice cream sundae 002', 'src': '/static/foodstim60/ice cream sundae 002.jpg', 'key': 'NaN', 'origWidth': 409, 'origHeight': 409, 'width': 409, 'height': 409, 'widthPercent': 0.8, 'rescaleHeight': True, 'trialN': 24, 'loaded': True, 'loadedTime': 2916.0999999046326, 'positionName': 'CENTER', 'positionCoords': [475.5, 179.5]}]",Rate how much you want to eat this food from 0 (least) to 10 (most).,48079.299999952316,1669834161814,ice cream sundae 002,1717.2999999523163,True,2.32,49796.59999990463,1717.2999999523163,True,HRV,HRV_0215,2022-11-30 18:50:37
25,"[{'imgObject': {}, 'id': 'cocktailshrimp', 'src': '/static/foodstim60/cocktailshrimp.jpg', 'key': 'NaN', 'origWidth': 410, 'origHeight': 410, 'width': 410, 'height': 410, 'widthPercent': 0.8, 'rescaleHeight': True, 'trialN': 25, 'loaded': True, 'loadedTime': 2919.7999999523163, 'positionName': 'CENTER', 'positionCoords': [475, 179]}]",Rate how much you want to eat this food from 0 (least) to 10 (most).,49798.799999952316,1669834163534,cocktailshrimp,2777.100000023842,True,0.04,52575.89999997616,2777.100000023842,True,HRV,HRV_0215,2022-11-30 18:50:37
26,"[{'imgObject': {}, 'id': 'raspberries', 'src': '/static/foodstim60/raspberries.jpg', 'key': 'NaN', 'origWidth': 411, 'origHeight': 411, 'width': 411, 'height': 411, 'widthPercent': 0.8, 'rescaleHeight': True, 'trialN': 26, 'loaded': True, 'loadedTime': 2920.899999976158, 'positionName': 'CENTER', 'positionCoords': [474.5, 178.5]}]",Rate how much you want to eat this food from 0 (least) to 10 (most).,52577.09999990463,1669834166312,raspberries,1383.3000000715256,True,0.2,53960.39999997616,1383.3000000715256,True,HRV,HRV_0215,2022-11-30 18:50:37
27,"[{'imgObject': {}, 'id': 'banana', 'src': '/static/foodstim60/banana.jpg', 'key': 'NaN', 'origWidth': 410, 'origHeight': 410, 'width': 410, 'height': 410, 'widthPercent': 0.8, 'rescaleHeight': True, 'trialN': 27, 'loaded': True, 'loadedTime': 2922.6999999284744, 'positionName': 'CENTER', 'positionCoords': [475, 179]}]",Rate how much you want to eat this food from 0 (least) to 10 (most).,53962.699999928474,1669834167698,banana,1598.0,True,0.05,55560.699999928474,1598.0,True,HRV,HRV_0215,2022-11-30 18:50:37
28,"[{'imgObject': {}, 'id': 'omelette', 'src': '/static/foodstim60/omelette.jpg', 'key': 'NaN', 'origWidth': 410, 'origHeight': 409, 'width': 410, 'height': 409, 'widthPercent': 0.8, 'rescaleHeight': True, 'trialN': 28, 'loaded': True, 'loadedTime': 2925.7999999523163, 'positionName': 'CENTER', 'positionCoords': [475, 179.5]}]",Rate how much you want to eat this food from 0 (least) to 10 (most).,55561.799999952316,1669834169297,omelette,1701.7999999523163,True,0.0,57263.59999990463,1701.7999999523163,True,HRV,HRV_0215,2022-11-30 18:50:37
29,"[{'imgObject': {}, 'id': 'veggieswithdip', 'src': '/static/foodstim60/veggieswithdip.jpg', 'key': 'NaN', 'origWidth': 409, 'origHeight': 409, 'width': 409, 'height': 409, 'widthPercent': 0.8, 'rescaleHeight': True, 'trialN': 29, 'loaded': True, 'loadedTime': 2927.399999976158, 'positionName': 'CENTER', 'positionCoords': [475.5, 179.5]}]",Rate how much you want to eat this food from 0 (least) to 10 (most).,57264.39999997616,1669834170999,veggieswithdip,3514.600000023842,True,2.41,60779.0,3514.600000023842,True,HRV,HRV_0215,2022-11-30 18:50:37
30,"[{'imgObject': {}, 'id': 'rigatoni and sauce', 'src': '/static/foodstim60/rigatoni and sauce.jpg', 'key': 'NaN', 'origWidth': 410, 'origHeight': 411, 'width': 410, 'height': 411, 'widthPercent': 0.8, 'rescaleHeight': True, 'trialN': 30, 'loaded': True, 'loadedTime': 2930, 'positionName': 'CENTER', 'positionCoords': [475, 178.5]}]",Rate how much you want to eat this food from 0 (least) to 10 (most).,60780.0,1669834174515,rigatoni and sauce,1750.8999999761581,True,3.36,62530.89999997616,1750.8999999761581,True,HRV,HRV_0215,2022-11-30 18:50:37
31,"[{'imgObject': {}, 'id': 'olives', 'src': '/static/foodstim60/olives.jpg', 'key': 'NaN', 'origWidth': 410, 'origHeight': 410, 'width': 410, 'height': 410, 'widthPercent': 0.8, 'rescaleHeight': True, 'trialN': 31, 'loaded': True, 'loadedTime': 2931.5999999046326, 'positionName': 'CENTER', 'positionCoords': [475, 179]}]",Rate how much you want to eat this food from 0 (least) to 10 (most).,62531.89999997616,1669834176267,olives,2245.399999976158,True,0.0,64777.299999952316,2245.399999976158,True,HRV,HRV_0215,2022-11-30 18:50:37
32,"[{'imgObject': {}, 'id': 'apple slices', 'src': '/static/foodstim60/apple slices.jpg', 'key': 'NaN', 'origWidth': 409, 'origHeight': 410, 'width': 409, 'height': 410, 'widthPercent': 0.8, 'rescaleHeight': True, 'trialN': 32, 'loaded': True, 'loadedTime': 2950.1999999284744, 'positionName': 'CENTER', 'positionCoords': [475.5, 179]}]",Rate how much you want to eat this food from 0 (least) to 10 (most).,64778.39999997616,1669834178513,apple slices,1349.8999999761581,True,0.55,66128.29999995232,1349.8999999761581,True,HRV,HRV_0215,2022-11-30 18:50:37
33,"[{'imgObject': {}, 'id': 'chickenfingers', 'src': '/static/foodstim60/chickenfingers.jpg', 'key': 'NaN', 'origWidth': 410, 'origHeight': 410, 'width': 410, 'height': 410, 'widthPercent': 0.8, 'rescaleHeight': True, 'trialN': 33, 'loaded': True, 'loadedTime': 2951.399999976158, 'positionName': 'CENTER', 'positionCoords': [475, 179]}]",Rate how much you want to eat this food from 0 (least) to 10 (most).,66129.39999997616,1669834179864,chickenfingers,1924.2999999523163,True,7.42,68053.69999992847,1924.2999999523163,True,HRV,HRV_0215,2022-11-30 18:50:37
34,"[{'imgObject': {}, 'id': 'granola w milk', 'src': '/static/foodstim60/granola w milk.jpg', 'key': 'NaN', 'origWidth': 410, 'origHeight': 410, 'width': 410, 'height': 410, 'widthPercent': 0.8, 'rescaleHeight': True, 'trialN': 34, 'loaded': True, 'loadedTime': 2953, 'positionName': 'CENTER', 'positionCoords': [475, 179]}]",Rate how much you want to eat this food from 0 (least) to 10 (most).,68055.09999990463,1669834181790,granola w milk,2562.8000000715256,True,1.17,70617.89999997616,2562.8000000715256,True,HRV,HRV_0215,2022-11-30 18:50:37
35,"[{'imgObject': {}, 'id': 'grilled chicken strips', 'src': '/static/foodstim60/grilled chicken strips.jpg', 'key': 'NaN', 'origWidth': 410, 'origHeight': 411, 'width': 410, 'height': 411, 'widthPercent': 0.8, 'rescaleHeight': True, 'trialN': 35, 'loaded': True, 'loadedTime': 2954.5, 'positionName': 'CENTER', 'positionCoords': [475, 178.5]}]",Rate how much you want to eat this food from 0 (least) to 10 (most).,70620.5,1669834184356,grilled chicken strips,1902.0,True,8.19,72522.5,1902.0,True,HRV,HRV_0215,2022-11-30 18:50:37
36,"[{'imgObject': {}, 'id': 'corn cob', 'src': '/static/foodstim60/corn cob.jpg', 'key': 'NaN', 'origWidth': 411, 'origHeight': 411, 'width': 411, 'height': 411, 'widthPercent': 0.8, 'rescaleHeight': True, 'trialN': 36, 'loaded': True, 'loadedTime': 2955.7999999523163, 'positionName': 'CENTER', 'positionCoords': [474.5, 178.5]}]",Rate how much you want to eat this food from 0 (least) to 10 (most).,72523.69999992847,1669834186259,corn cob,1443.3999999761581,True,1.3,73967.09999990463,1443.3999999761581,True,HRV,HRV_0215,2022-11-30 18:50:37
37,"[{'imgObject': {}, 'id': 'turkey sandwich', 'src': '/static/foodstim60/turkey sandwich.jpg', 'key': 'NaN', 'origWidth': 409, 'origHeight': 409, 'width': 409, 'height': 409, 'widthPercent': 0.8, 'rescaleHeight': True, 'trialN': 37, 'loaded': True, 'loadedTime': 2957.5999999046326, 'positionName': 'CENTER', 'positionCoords': [475.5, 179.5]}]",Rate how much you want to eat this food from 0 (least) to 10 (most).,73968.09999990463,1669834187703,turkey sandwich,1958.2000000476837,True,7.67,75926.29999995232,1958.2000000476837,True,HRV,HRV_0215,2022-11-30 18:50:37
38,"[{'imgObject': {}, 'id': 'cantaloupe', 'src': '/static/foodstim60/cantaloupe.jpg', 'key': 'NaN', 'origWidth': 409, 'origHeight': 409, 'width': 409, 'height': 409, 'widthPercent': 0.8, 'rescaleHeight': True, 'trialN': 38, 'loaded': True, 'loadedTime': 2992.6999999284744, 'positionName': 'CENTER', 'positionCoords': [475.5, 179.5]}]",Rate how much you want to eat this food from 0 (least) to 10 (most).,75927.39999997616,1669834189662,cantaloupe,2550.399999976158,True,0.48,78477.79999995232,2550.399999976158,True,HRV,HRV_0215,2022-11-30 18:50:37
39,"[{'imgObject': {}, 'id': 'hotdog w must', 'src': '/static/foodstim60/hotdog w must.jpg', 'key': 'NaN', 'origWidth': 409, 'origHeight': 409, 'width': 409, 'height': 409, 'widthPercent': 0.8, 'rescaleHeight': True, 'trialN': 39, 'loaded': True, 'loadedTime': 2996.5, 'positionName': 'CENTER', 'positionCoords': [475.5, 179.5]}]",Rate how much you want to eat this food from 0 (least) to 10 (most).,78479.0,1669834192214,hotdog w must,1848.5999999046326,True,1.52,80327.59999990463,1848.5999999046326,True,HRV,HRV_0215,2022-11-30 18:50:37
40,"[{'imgObject': {}, 'id': 'pear', 'src': '/static/foodstim60/pear.jpg', 'key': 'NaN', 'origWidth': 411, 'origHeight': 410, 'width': 411, 'height': 410, 'widthPercent': 0.8, 'rescaleHeight': True, 'trialN': 40, 'loaded': True, 'loadedTime': 2998.0999999046326, 'positionName': 'CENTER', 'positionCoords': [474.5, 179]}]",Rate how much you want to eat this food from 0 (least) to 10 (most).,80328.89999997616,1669834194064,pear,2479.600000023842,True,1.7,82808.5,2479.600000023842,True,HRV,HRV_0215,2022-11-30 18:50:37
41,"[{'imgObject': {}, 'id': 'sweetpotato', 'src': '/static/foodstim60/sweetpotato.jpg', 'key': 'NaN', 'origWidth': 410, 'origHeight': 410, 'width': 410, 'height': 410, 'widthPercent': 0.8, 'rescaleHeight': True, 'trialN': 41, 'loaded': True, 'loadedTime': 2999.2999999523163, 'positionName': 'CENTER', 'positionCoords': [475, 179]}]",Rate how much you want to eat this food from 0 (least) to 10 (most).,82809.69999992847,1669834196545,sweetpotato,2300.2000000476837,True,0.13,85109.89999997616,2300.2000000476837,True,HRV,HRV_0215,2022-11-30 18:50:37
42,"[{'imgObject': {}, 'id': 'fruitsalad', 'src': '/static/foodstim60/fruitsalad.jpg', 'key': 'NaN', 'origWidth': 410, 'origHeight': 410, 'width': 410, 'height': 410, 'widthPercent': 0.8, 'rescaleHeight': True, 'trialN': 42, 'loaded': True, 'loadedTime': 3000.1999999284744, 'positionName': 'CENTER', 'positionCoords': [475, 179]}]",Rate how much you want to eat this food from 0 (least) to 10 (most).,85111.09999990463,1669834198846,fruitsalad,1833.1000000238419,True,2.41,86944.19999992847,1833.1000000238419,True,HRV,HRV_0215,2022-11-30 18:50:37
43,"[{'imgObject': {}, 'id': 'orange slices', 'src': '/static/foodstim60/orange slices.jpg', 'key': 'NaN', 'origWidth': 409, 'origHeight': 410, 'width': 409, 'height': 410, 'widthPercent': 0.8, 'rescaleHeight': True, 'trialN': 43, 'loaded': True, 'loadedTime': 3001.0999999046326, 'positionName': 'CENTER', 'positionCoords': [475.5, 179]}]",Rate how much you want to eat this food from 0 (least) to 10 (most).,86945.5,1669834200681,orange slices,2014.0999999046326,True,0.0,88959.59999990463,2014.0999999046326,True,HRV,HRV_0215,2022-11-30 18:50:37
44,"[{'imgObject': {}, 'id': 'bagel and cc', 'src': '/static/foodstim60/bagel and cc.jpg', 'key': 'NaN', 'origWidth': 410, 'origHeight': 410, 'width': 410, 'height': 410, 'widthPercent': 0.8, 'rescaleHeight': True, 'trialN': 44, 'loaded': True, 'loadedTime': 3033, 'positionName': 'CENTER', 'positionCoords': [475, 179]}]",Rate how much you want to eat this food from 0 (least) to 10 (most).,88961.79999995232,1669834202697,bagel and cc,1529.1000000238419,True,5.7,90490.89999997616,1529.1000000238419,True,HRV,HRV_0215,2022-11-30 18:50:37
45,"[{'imgObject': {}, 'id': 'Grapes', 'src': '/static/foodstim60/Grapes.jpg', 'key': 'NaN', 'origWidth': 411, 'origHeight': 411, 'width': 411, 'height': 411, 'widthPercent': 0.8, 'rescaleHeight': True, 'trialN': 45, 'loaded': True, 'loadedTime': 3035.6999999284744, 'positionName': 'CENTER', 'positionCoords': [474.5, 178.5]}]",Rate how much you want to eat this food from 0 (least) to 10 (most).,90492.19999992847,1669834204227,Grapes,1817.3000000715256,True,1.1300000000000001,92309.5,1817.3000000715256,True,HRV,HRV_0215,2022-11-30 18:50:37
46,"[{'imgObject': {}, 'id': 'eggsalad', 'src': '/static/foodstim60/eggsalad.jpg', 'key': 'NaN', 'origWidth': 410, 'origHeight': 409, 'width': 410, 'height': 409, 'widthPercent': 0.8, 'rescaleHeight': True, 'trialN': 46, 'loaded': True, 'loadedTime': 3038, 'positionName': 'CENTER', 'positionCoords': [475, 179.5]}]",Rate how much you want to eat this food from 0 (least) to 10 (most).,92310.69999992847,1669834206046,eggsalad,2214.3000000715256,True,4.41,94525.0,2214.3000000715256,True,HRV,HRV_0215,2022-11-30 18:50:37
47,"[{'imgObject': {}, 'id': 'mac & cheese', 'src': '/static/foodstim60/mac & cheese.jpg', 'key': 'NaN', 'origWidth': 410, 'origHeight': 410, 'width': 410, 'height': 410, 'widthPercent': 0.8, 'rescaleHeight': True, 'trialN': 47, 'loaded': True, 'loadedTime': 3039, 'positionName': 'CENTER', 'positionCoords': [475, 179]}]",Rate how much you want to eat this food from 0 (least) to 10 (most).,94526.29999995232,1669834208262,mac & cheese,2116.7999999523163,True,6.140000000000001,96643.09999990463,2116.7999999523163,True,HRV,HRV_0215,2022-11-30 18:50:37
48,"[{'imgObject': {}, 'id': 'cherry tomato', 'src': '/static/foodstim60/cherry tomato.jpg', 'key': 'NaN', 'origWidth': 410, 'origHeight': 410, 'width': 410, 'height': 410, 'widthPercent': 0.8, 'rescaleHeight': True, 'trialN': 48, 'loaded': True, 'loadedTime': 3040.5999999046326, 'positionName': 'CENTER', 'positionCoords': [475, 179]}]",Rate how much you want to eat this food from 0 (least) to 10 (most).,96644.89999997616,1669834210380,cherry tomato,1697.6000000238419,True,0.79,98342.5,1697.6000000238419,True,HRV,HRV_0215,2022-11-30 18:50:37
49,"[{'imgObject': {}, 'id': 'froot loops w milk', 'src': '/static/foodstim60/froot loops w milk.jpg', 'key': 'NaN', 'origWidth': 410, 'origHeight': 410, 'width': 410, 'height': 410, 'widthPercent': 0.8, 'rescaleHeight': True, 'trialN': 49, 'loaded': True, 'loadedTime': 3042.5999999046326, 'positionName': 'CENTER', 'positionCoords': [475, 179]}]",Rate how much you want to eat this food from 0 (least) to 10 (most).,98343.29999995232,1669834212079,froot loops w milk,3166.2000000476837,True,6.640000000000001,101509.5,3166.2000000476837,True,HRV,HRV_0215,2022-11-30 18:50:37
50,"[{'imgObject': {}, 'id': 'hashbrowns', 'src': '/static/foodstim60/hashbrowns.jpg', 'key': 'NaN', 'origWidth': 411, 'origHeight': 410, 'width': 411, 'height': 410, 'widthPercent': 0.8, 'rescaleHeight': True, 'trialN': 50, 'loaded': True, 'loadedTime': 3072.2999999523163, 'positionName': 'CENTER', 'positionCoords': [474.5, 179]}]",Rate how much you want to eat this food from 0 (least) to 10 (most).,101511.79999995232,1669834215247,hashbrowns,2734.2999999523163,True,1.54,104246.09999990463,2734.2999999523163,True,HRV,HRV_0215,2022-11-30 18:50:37
51,"[{'imgObject': {}, 'id': 'eggs', 'src': '/static/foodstim60/eggs.jpg', 'key': 'NaN', 'origWidth': 409, 'origHeight': 409, 'width': 409, 'height': 409, 'widthPercent': 0.8, 'rescaleHeight': True, 'trialN': 51, 'loaded': True, 'loadedTime': 3078.6999999284744, 'positionName': 'CENTER', 'positionCoords': [475.5, 179.5]}]",Rate how much you want to eat this food from 0 (least) to 10 (most).,104247.09999990463,1669834217982,eggs,2596.4000000953674,True,7.51,106843.5,2596.4000000953674,True,HRV,HRV_0215,2022-11-30 18:50:37
52,"[{'imgObject': {}, 'id': 'bagel plain', 'src': '/static/foodstim60/bagel plain.jpg', 'key': 'NaN', 'origWidth': 410, 'origHeight': 410, 'width': 410, 'height': 410, 'widthPercent': 0.8, 'rescaleHeight': True, 'trialN': 52, 'loaded': True, 'loadedTime': 3079.7999999523163, 'positionName': 'CENTER', 'positionCoords': [475, 179]}]",Rate how much you want to eat this food from 0 (least) to 10 (most).,106845.5,1669834220581,bagel plain,1980.0,True,4.94,108825.5,1980.0,True,HRV,HRV_0215,2022-11-30 18:50:37
53,"[{'imgObject': {}, 'id': 'popsicles', 'src': '/static/foodstim60/popsicles.jpg', 'key': 'NaN', 'origWidth': 410, 'origHeight': 410, 'width': 410, 'height': 410, 'widthPercent': 0.8, 'rescaleHeight': True, 'trialN': 53, 'loaded': True, 'loadedTime': 3122, 'positionName': 'CENTER', 'positionCoords': [475, 179]}]",Rate how much you want to eat this food from 0 (least) to 10 (most).,108826.29999995232,1669834222561,popsicles,2516.399999976158,True,2.07,111342.69999992847,2516.399999976158,True,HRV,HRV_0215,2022-11-30 18:50:37
54,"[{'imgObject': {}, 'id': 'tacos', 'src': '/static/foodstim60/tacos.jpg', 'key': 'NaN', 'origWidth': 411, 'origHeight': 411, 'width': 411, 'height': 411, 'widthPercent': 0.8, 'rescaleHeight': True, 'trialN': 54, 'loaded': True, 'loadedTime': 3081.0999999046326, 'positionName': 'CENTER', 'positionCoords': [474.5, 178.5]}]",Rate how much you want to eat this food from 0 (least) to 10 (most).,111343.69999992847,1669834225079,tacos,2046.1000000238419,True,3.16,113389.79999995232,2046.1000000238419,True,HRV,HRV_0215,2022-11-30 18:50:37
55,"[{'imgObject': {}, 'id': 'sushi w_condiments', 'src': '/static/foodstim60/sushi w_condiments.jpg', 'key': 'NaN', 'origWidth': 410, 'origHeight': 410, 'width': 410, 'height': 410, 'widthPercent': 0.8, 'rescaleHeight': True, 'trialN': 55, 'loaded': True, 'loadedTime': 3082.5999999046326, 'positionName': 'CENTER', 'positionCoords': [475, 179]}]",Rate how much you want to eat this food from 0 (least) to 10 (most).,113390.89999997616,1669834227126,sushi w_condiments,2616.5,True,0.04,116007.39999997616,2616.5,True,HRV,HRV_0215,2022-11-30 18:50:37
56,"[{'imgObject': {}, 'id': 'raisin bran w milk', 'src': '/static/foodstim60/raisin bran w milk.jpg', 'key': 'NaN', 'origWidth': 411, 'origHeight': 411, 'width': 411, 'height': 411, 'widthPercent': 0.8, 'rescaleHeight': True, 'trialN': 56, 'loaded': True, 'loadedTime': 3084.2999999523163, 'positionName': 'CENTER', 'positionCoords': [474.5, 178.5]}]",Rate how much you want to eat this food from 0 (least) to 10 (most).,116008.69999992847,1669834229744,raisin bran w milk,1748.2000000476837,True,4.92,117756.89999997616,1748.2000000476837,True,HRV,HRV_0215,2022-11-30 18:50:37
57,"[{'imgObject': {}, 'id': 'burger', 'src': '/static/foodstim60/burger.jpg', 'key': 'NaN', 'origWidth': 409, 'origHeight': 409, 'width': 409, 'height': 409, 'widthPercent': 0.8, 'rescaleHeight': True, 'trialN': 57, 'loaded': True, 'loadedTime': 3119.0999999046326, 'positionName': 'CENTER', 'positionCoords': [475.5, 179.5]}]",Rate how much you want to eat this food from 0 (least) to 10 (most).,117757.89999997616,1669834231493,burger,2350.0,True,4.98,120107.89999997616,2350.0,True,HRV,HRV_0215,2022-11-30 18:50:37
58,"[{'imgObject': {}, 'id': 'blackbeanswithrice', 'src': '/static/foodstim60/blackbeanswithrice.jpg', 'key': 'NaN', 'origWidth': 410, 'origHeight': 410, 'width': 410, 'height': 410, 'widthPercent': 0.8, 'rescaleHeight': True, 'trialN': 58, 'loaded': True, 'loadedTime': 2851.6999999284744, 'positionName': 'CENTER', 'positionCoords': [475, 179]}]",Rate how much you want to eat this food from 0 (least) to 10 (most).,120109.0,1669834233844,blackbeanswithrice,1822.6999999284744,True,0.0,121931.69999992847,1822.6999999284744,True,HRV,HRV_0215,2022-11-30 18:50:37
59,"[{'imgObject': {}, 'id': 'edamame', 'src': '/static/foodstim60/edamame.jpg', 'key': 'NaN', 'origWidth': 409, 'origHeight': 410, 'width': 409, 'height': 410, 'widthPercent': 0.8, 'rescaleHeight': True, 'trialN': 59, 'loaded': True, 'loadedTime': 2853.0999999046326, 'positionName': 'CENTER', 'positionCoords': [475.5, 179]}]",Rate how much you want to eat this food from 0 (least) to 10 (most).,121932.89999997616,1669834235668,edamame,1342.2999999523163,True,0.14,123275.19999992847,1342.2999999523163,True,HRV,HRV_0215,2022-11-30 18:50:37
