trialN,stimuli,question,trialStartTime,trialStartTime_UNIX,stimulus1,rt,receivedResponse,rating,trialEndTime,trialDuration,stimulus1Loaded,exp,subjectId,date
0,"[{'imgObject': {}, 'id': 'blackbeanswithrice', 'src': '/static/foodstim60/blackbeanswithrice.jpg', 'key': 'NaN', 'origWidth': 410, 'origHeight': 410, 'width': 410, 'height': 410, 'widthPercent': 0.8, 'rescaleHeight': True, 'trialN': 0, 'loaded': True, 'loadedTime': 3735.3000000715256, 'positionName': 'CENTER', 'positionCoords': [475, 179]}]",Rate how much you want to eat this food from 0 (least) to 10 (most).,4789.600000023842,1669833916697,blackbeanswithrice,3308.7999999523163,True,0.0,8098.399999976158,3308.7999999523163,True,HRV,HRV_0215,2022-11-30 18:48:24
1,"[{'imgObject': {}, 'id': 'pear', 'src': '/static/foodstim60/pear.jpg', 'key': 'NaN', 'origWidth': 411, 'origHeight': 410, 'width': 411, 'height': 410, 'widthPercent': 0.8, 'rescaleHeight': True, 'trialN': 1, 'loaded': True, 'loadedTime': 3780.7000000476837, 'positionName': 'CENTER', 'positionCoords': [474.5, 179]}]",Rate how much you want to eat this food from 0 (least) to 10 (most).,8102.100000023842,1669833920009,pear,2328.2999999523163,True,1.16,10430.399999976158,2328.2999999523163,True,HRV,HRV_0215,2022-11-30 18:48:24
2,"[{'imgObject': {}, 'id': 'salad w chicken', 'src': '/static/foodstim60/salad w chicken.jpg', 'key': 'NaN', 'origWidth': 411, 'origHeight': 411, 'width': 411, 'height': 411, 'widthPercent': 0.8, 'rescaleHeight': True, 'trialN': 2, 'loaded': True, 'loadedTime': 4003.8000000715256, 'positionName': 'CENTER', 'positionCoords': [474.5, 178.5]}]",Rate how much you want to eat this food from 0 (least) to 10 (most).,10431.5,1669833922339,salad w chicken,3416.399999976158,True,5.33,13847.899999976158,3416.399999976158,True,HRV,HRV_0215,2022-11-30 18:48:24
3,"[{'imgObject': {}, 'id': 'cherries', 'src': '/static/foodstim60/cherries.jpg', 'key': 'NaN', 'origWidth': 410, 'origHeight': 411, 'width': 410, 'height': 411, 'widthPercent': 0.8, 'rescaleHeight': True, 'trialN': 3, 'loaded': True, 'loadedTime': 3953.399999976158, 'positionName': 'CENTER', 'positionCoords': [475, 178.5]}]",Rate how much you want to eat this food from 0 (least) to 10 (most).,13849.0,1669833925756,cherries,2215.899999976158,True,0.98,16064.899999976158,2215.899999976158,True,HRV,HRV_0215,2022-11-30 18:48:24
4,"[{'imgObject': {}, 'id': 'banana', 'src': '/static/foodstim60/banana.jpg', 'key': 'NaN', 'origWidth': 410, 'origHeight': 410, 'width': 410, 'height': 410, 'widthPercent': 0.8, 'rescaleHeight': True, 'trialN': 4, 'loaded': True, 'loadedTime': 3778.3000000715256, 'positionName': 'CENTER', 'positionCoords': [475, 179]}]",Rate how much you want to eat this food from 0 (least) to 10 (most).,16066.100000023842,1669833927973,banana,1831.0,True,0.33,17897.100000023842,1831.0,True,HRV,HRV_0215,2022-11-30 18:48:24
5,"[{'imgObject': {}, 'id': 'avocado', 'src': '/static/foodstim60/avocado.jpg', 'key': 'NaN', 'origWidth': 409, 'origHeight': 409, 'width': 409, 'height': 409, 'widthPercent': 0.8, 'rescaleHeight': True, 'trialN': 5, 'loaded': True, 'loadedTime': 3782.600000023842, 'positionName': 'CENTER', 'positionCoords': [475.5, 179.5]}]",Rate how much you want to eat this food from 0 (least) to 10 (most).,17898.0,1669833929805,avocado,1782.2000000476837,True,0.0,19680.200000047684,1782.2000000476837,True,HRV,HRV_0215,2022-11-30 18:48:24
6,"[{'imgObject': {}, 'id': 'chickenfingers', 'src': '/static/foodstim60/chickenfingers.jpg', 'key': 'NaN', 'origWidth': 410, 'origHeight': 410, 'width': 410, 'height': 410, 'widthPercent': 0.8, 'rescaleHeight': True, 'trialN': 6, 'loaded': True, 'loadedTime': 3893.8000000715256, 'positionName': 'CENTER', 'positionCoords': [475, 179]}]",Rate how much you want to eat this food from 0 (least) to 10 (most).,19681.200000047684,1669833931589,chickenfingers,2232.600000023842,True,9.83,21913.800000071526,2232.600000023842,True,HRV,HRV_0215,2022-11-30 18:48:24
7,"[{'imgObject': {}, 'id': 'burger', 'src': '/static/foodstim60/burger.jpg', 'key': 'NaN', 'origWidth': 409, 'origHeight': 409, 'width': 409, 'height': 409, 'widthPercent': 0.8, 'rescaleHeight': True, 'trialN': 7, 'loaded': True, 'loadedTime': 3901.7000000476837, 'positionName': 'CENTER', 'positionCoords': [475.5, 179.5]}]",Rate how much you want to eat this food from 0 (least) to 10 (most).,21915.899999976158,1669833933823,burger,4147.800000071526,True,5.2,26063.700000047684,4147.800000071526,True,HRV,HRV_0215,2022-11-30 18:48:24
8,"[{'imgObject': {}, 'id': 'olives', 'src': '/static/foodstim60/olives.jpg', 'key': 'NaN', 'origWidth': 410, 'origHeight': 410, 'width': 410, 'height': 410, 'widthPercent': 0.8, 'rescaleHeight': True, 'trialN': 8, 'loaded': True, 'loadedTime': 3895, 'positionName': 'CENTER', 'positionCoords': [475, 179]}]",Rate how much you want to eat this food from 0 (least) to 10 (most).,26065.800000071526,1669833937973,olives,2183.1999999284744,True,0.0,28249.0,2183.1999999284744,True,HRV,HRV_0215,2022-11-30 18:48:24
9,"[{'imgObject': {}, 'id': 'apple slices', 'src': '/static/foodstim60/apple slices.jpg', 'key': 'NaN', 'origWidth': 409, 'origHeight': 410, 'width': 409, 'height': 410, 'widthPercent': 0.8, 'rescaleHeight': True, 'trialN': 9, 'loaded': True, 'loadedTime': 3980, 'positionName': 'CENTER', 'positionCoords': [475.5, 179]}]",Rate how much you want to eat this food from 0 (least) to 10 (most).,28250.100000023842,1669833940157,apple slices,1863.7999999523163,True,0.05,30113.899999976158,1863.7999999523163,True,HRV,HRV_0215,2022-11-30 18:48:24
10,"[{'imgObject': {}, 'id': 'baked potato', 'src': '/static/foodstim60/baked potato.jpg', 'key': 'NaN', 'origWidth': 409, 'origHeight': 410, 'width': 409, 'height': 410, 'widthPercent': 0.8, 'rescaleHeight': True, 'trialN': 10, 'loaded': True, 'loadedTime': 4017.8000000715256, 'positionName': 'CENTER', 'positionCoords': [475.5, 179]}]",Rate how much you want to eat this food from 0 (least) to 10 (most).,30115.300000071526,1669833942023,baked potato,3597.7999999523163,True,0.0,33713.10000002384,3597.7999999523163,True,HRV,HRV_0215,2022-11-30 18:48:24
11,"[{'imgObject': {}, 'id': 'tacos', 'src': '/static/foodstim60/tacos.jpg', 'key': 'NaN', 'origWidth': 411, 'origHeight': 411, 'width': 411, 'height': 411, 'widthPercent': 0.8, 'rescaleHeight': True, 'trialN': 11, 'loaded': True, 'loadedTime': 4013.899999976158, 'positionName': 'CENTER', 'positionCoords': [474.5, 178.5]}]",Rate how much you want to eat this food from 0 (least) to 10 (most).,33715.300000071526,1669833945623,tacos,3848.1999999284744,True,1.35,37563.5,3848.1999999284744,True,HRV,HRV_0215,2022-11-30 18:48:24
12,"[{'imgObject': {}, 'id': 'roastedpotatoes', 'src': '/static/foodstim60/roastedpotatoes.jpg', 'key': 'NaN', 'origWidth': 409, 'origHeight': 410, 'width': 409, 'height': 410, 'widthPercent': 0.8, 'rescaleHeight': True, 'trialN': 12, 'loaded': True, 'loadedTime': 4024.2000000476837, 'positionName': 'CENTER', 'positionCoords': [475.5, 179]}]",Rate how much you want to eat this food from 0 (least) to 10 (most).,37564.5,1669833949472,roastedpotatoes,3597.899999976158,True,2.86,41162.39999997616,3597.899999976158,True,HRV,HRV_0215,2022-11-30 18:48:24
13,"[{'imgObject': {}, 'id': 'salmon', 'src': '/static/foodstim60/salmon.jpg', 'key': 'NaN', 'origWidth': 410, 'origHeight': 409, 'width': 410, 'height': 409, 'widthPercent': 0.8, 'rescaleHeight': True, 'trialN': 13, 'loaded': True, 'loadedTime': 4041.600000023842, 'positionName': 'CENTER', 'positionCoords': [475, 179.5]}]",Rate how much you want to eat this food from 0 (least) to 10 (most).,41163.60000002384,1669833953071,salmon,5299.100000023842,True,1.3900000000000001,46462.700000047684,5299.100000023842,True,HRV,HRV_0215,2022-11-30 18:48:24
14,"[{'imgObject': {}, 'id': 'kiwi', 'src': '/static/foodstim60/kiwi.jpg', 'key': 'NaN', 'origWidth': 410, 'origHeight': 410, 'width': 410, 'height': 410, 'widthPercent': 0.8, 'rescaleHeight': True, 'trialN': 14, 'loaded': True, 'loadedTime': 4076.7000000476837, 'positionName': 'CENTER', 'positionCoords': [475, 179]}]",Rate how much you want to eat this food from 0 (least) to 10 (most).,46463.800000071526,1669833958371,kiwi,6899.0,True,4.95,53362.800000071526,6899.0,True,HRV,HRV_0215,2022-11-30 18:48:24
15,"[{'imgObject': {}, 'id': 'mango', 'src': '/static/foodstim60/mango.jpg', 'key': 'NaN', 'origWidth': 411, 'origHeight': 411, 'width': 411, 'height': 411, 'widthPercent': 0.8, 'rescaleHeight': True, 'trialN': 15, 'loaded': True, 'loadedTime': 4106.899999976158, 'positionName': 'CENTER', 'positionCoords': [474.5, 178.5]}]",Rate how much you want to eat this food from 0 (least) to 10 (most).,53365.0,1669833965272,mango,3047.8000000715256,True,3.0500000000000003,56412.800000071526,3047.8000000715256,True,HRV,HRV_0215,2022-11-30 18:48:24
16,"[{'imgObject': {}, 'id': 'cocktailshrimp', 'src': '/static/foodstim60/cocktailshrimp.jpg', 'key': 'NaN', 'origWidth': 410, 'origHeight': 410, 'width': 410, 'height': 410, 'widthPercent': 0.8, 'rescaleHeight': True, 'trialN': 16, 'loaded': True, 'loadedTime': 4101.200000047684, 'positionName': 'CENTER', 'positionCoords': [475, 179]}]",Rate how much you want to eat this food from 0 (least) to 10 (most).,56413.89999997616,1669833968321,cocktailshrimp,1965.3000000715256,True,0.04,58379.200000047684,1965.3000000715256,True,HRV,HRV_0215,2022-11-30 18:48:24
17,"[{'imgObject': {}, 'id': 'raspberries', 'src': '/static/foodstim60/raspberries.jpg', 'key': 'NaN', 'origWidth': 411, 'origHeight': 411, 'width': 411, 'height': 411, 'widthPercent': 0.8, 'rescaleHeight': True, 'trialN': 17, 'loaded': True, 'loadedTime': 4136.899999976158, 'positionName': 'CENTER', 'positionCoords': [474.5, 178.5]}]",Rate how much you want to eat this food from 0 (least) to 10 (most).,58380.39999997616,1669833970288,raspberries,1498.6000000238419,True,0.26,59879.0,1498.6000000238419,True,HRV,HRV_0215,2022-11-30 18:48:24
18,"[{'imgObject': {}, 'id': 'bagel plain', 'src': '/static/foodstim60/bagel plain.jpg', 'key': 'NaN', 'origWidth': 410, 'origHeight': 410, 'width': 410, 'height': 410, 'widthPercent': 0.8, 'rescaleHeight': True, 'trialN': 18, 'loaded': True, 'loadedTime': 4114.300000071526, 'positionName': 'CENTER', 'positionCoords': [475, 179]}]",Rate how much you want to eat this food from 0 (least) to 10 (most).,59881.200000047684,1669833971788,bagel plain,4311.699999928474,True,4.91,64192.89999997616,4311.699999928474,True,HRV,HRV_0215,2022-11-30 18:48:24
19,"[{'imgObject': {}, 'id': 'ice cream sundae 002', 'src': '/static/foodstim60/ice cream sundae 002.jpg', 'key': 'NaN', 'origWidth': 409, 'origHeight': 409, 'width': 409, 'height': 409, 'widthPercent': 0.8, 'rescaleHeight': True, 'trialN': 19, 'loaded': True, 'loadedTime': 4143.399999976158, 'positionName': 'CENTER', 'positionCoords': [475.5, 179.5]}]",Rate how much you want to eat this food from 0 (least) to 10 (most).,64194.200000047684,1669833976101,ice cream sundae 002,3651.5,True,2.19,67845.70000004768,3651.5,True,HRV,HRV_0215,2022-11-30 18:48:24
20,"[{'imgObject': {}, 'id': 'eggs', 'src': '/static/foodstim60/eggs.jpg', 'key': 'NaN', 'origWidth': 409, 'origHeight': 409, 'width': 409, 'height': 409, 'widthPercent': 0.8, 'rescaleHeight': True, 'trialN': 20, 'loaded': True, 'loadedTime': 4160.399999976158, 'positionName': 'CENTER', 'positionCoords': [475.5, 179.5]}]",Rate how much you want to eat this food from 0 (least) to 10 (most).,67846.70000004768,1669833979754,eggs,3581.100000023842,True,7.82,71427.80000007153,3581.100000023842,True,HRV,HRV_0215,2022-11-30 18:48:24
21,"[{'imgObject': {}, 'id': 'fried eggs', 'src': '/static/foodstim60/fried eggs.jpg', 'key': 'NaN', 'origWidth': 410, 'origHeight': 410, 'width': 410, 'height': 410, 'widthPercent': 0.8, 'rescaleHeight': True, 'trialN': 21, 'loaded': True, 'loadedTime': 4189, 'positionName': 'CENTER', 'positionCoords': [475, 179]}]",Rate how much you want to eat this food from 0 (least) to 10 (most).,71429.10000002384,1669833983336,fried eggs,4637.600000023842,True,1.94,76066.70000004768,4637.600000023842,True,HRV,HRV_0215,2022-11-30 18:48:24
22,"[{'imgObject': {}, 'id': 'strawberries', 'src': '/static/foodstim60/strawberries.jpg', 'key': 'NaN', 'origWidth': 410, 'origHeight': 410, 'width': 410, 'height': 410, 'widthPercent': 0.8, 'rescaleHeight': True, 'trialN': 22, 'loaded': True, 'loadedTime': 4195.300000071526, 'positionName': 'CENTER', 'positionCoords': [475, 179]}]",Rate how much you want to eat this food from 0 (least) to 10 (most).,76069.0,1669833987976,strawberries,1963.2000000476837,True,0.0,78032.20000004768,1963.2000000476837,True,HRV,HRV_0215,2022-11-30 18:48:24
23,"[{'imgObject': {}, 'id': 'sushi w_condiments', 'src': '/static/foodstim60/sushi w_condiments.jpg', 'key': 'NaN', 'origWidth': 410, 'origHeight': 410, 'width': 410, 'height': 410, 'widthPercent': 0.8, 'rescaleHeight': True, 'trialN': 23, 'loaded': True, 'loadedTime': 4216.600000023842, 'positionName': 'CENTER', 'positionCoords': [475, 179]}]",Rate how much you want to eat this food from 0 (least) to 10 (most).,78033.20000004768,1669833989940,sushi w_condiments,6788.199999928474,True,0.08,84821.39999997616,6788.199999928474,True,HRV,HRV_0215,2022-11-30 18:48:24
24,"[{'imgObject': {}, 'id': 'sweetpotato', 'src': '/static/foodstim60/sweetpotato.jpg', 'key': 'NaN', 'origWidth': 410, 'origHeight': 410, 'width': 410, 'height': 410, 'widthPercent': 0.8, 'rescaleHeight': True, 'trialN': 24, 'loaded': True, 'loadedTime': 4220.899999976158, 'positionName': 'CENTER', 'positionCoords': [475, 179]}]",Rate how much you want to eat this food from 0 (least) to 10 (most).,84823.5,1669833996731,sweetpotato,2528.3000000715256,True,0.0,87351.80000007153,2528.3000000715256,True,HRV,HRV_0215,2022-11-30 18:48:24
25,"[{'imgObject': {}, 'id': 'Grapes', 'src': '/static/foodstim60/Grapes.jpg', 'key': 'NaN', 'origWidth': 411, 'origHeight': 411, 'width': 411, 'height': 411, 'widthPercent': 0.8, 'rescaleHeight': True, 'trialN': 25, 'loaded': True, 'loadedTime': 4235, 'positionName': 'CENTER', 'positionCoords': [474.5, 178.5]}]",Rate how much you want to eat this food from 0 (least) to 10 (most).,87352.89999997616,1669833999260,Grapes,1907.7000000476837,True,1.17,89260.60000002384,1907.7000000476837,True,HRV,HRV_0215,2022-11-30 18:48:24
26,"[{'imgObject': {}, 'id': 'rigatoni and sauce', 'src': '/static/foodstim60/rigatoni and sauce.jpg', 'key': 'NaN', 'origWidth': 410, 'origHeight': 411, 'width': 410, 'height': 411, 'widthPercent': 0.8, 'rescaleHeight': True, 'trialN': 26, 'loaded': True, 'loadedTime': 4250.5, 'positionName': 'CENTER', 'positionCoords': [475, 178.5]}]",Rate how much you want to eat this food from 0 (least) to 10 (most).,89261.80000007153,1669834001169,rigatoni and sauce,2931.399999976158,True,0.33,92193.20000004768,2931.399999976158,True,HRV,HRV_0215,2022-11-30 18:48:24
27,"[{'imgObject': {}, 'id': 'turkeysandwich', 'src': '/static/foodstim60/turkeysandwich.jpg', 'key': 'NaN', 'origWidth': 409, 'origHeight': 409, 'width': 409, 'height': 409, 'widthPercent': 0.8, 'rescaleHeight': True, 'trialN': 27, 'loaded': True, 'loadedTime': 4283.600000023842, 'positionName': 'CENTER', 'positionCoords': [475.5, 179.5]}]",Rate how much you want to eat this food from 0 (least) to 10 (most).,92194.30000007153,1669834004102,turkeysandwich,3017.0,True,7.140000000000001,95211.30000007153,3017.0,True,HRV,HRV_0215,2022-11-30 18:48:24
28,"[{'imgObject': {}, 'id': 'eggsalad', 'src': '/static/foodstim60/eggsalad.jpg', 'key': 'NaN', 'origWidth': 410, 'origHeight': 409, 'width': 410, 'height': 409, 'widthPercent': 0.8, 'rescaleHeight': True, 'trialN': 28, 'loaded': True, 'loadedTime': 4302.5, 'positionName': 'CENTER', 'positionCoords': [475, 179.5]}]",Rate how much you want to eat this food from 0 (least) to 10 (most).,95212.20000004768,1669834007119,eggsalad,4432.5,True,2.45,99644.70000004768,4432.5,True,HRV,HRV_0215,2022-11-30 18:48:24
29,"[{'imgObject': {}, 'id': 'grilled chicken strips', 'src': '/static/foodstim60/grilled chicken strips.jpg', 'key': 'NaN', 'origWidth': 410, 'origHeight': 411, 'width': 410, 'height': 411, 'widthPercent': 0.8, 'rescaleHeight': True, 'trialN': 29, 'loaded': True, 'loadedTime': 4299.200000047684, 'positionName': 'CENTER', 'positionCoords': [475, 178.5]}]",Rate how much you want to eat this food from 0 (least) to 10 (most).,99646.10000002384,1669834011553,grilled chicken strips,2997.5,True,8.07,102643.60000002384,2997.5,True,HRV,HRV_0215,2022-11-30 18:48:24
30,"[{'imgObject': {}, 'id': 'raisin bran w milk', 'src': '/static/foodstim60/raisin bran w milk.jpg', 'key': 'NaN', 'origWidth': 411, 'origHeight': 411, 'width': 411, 'height': 411, 'widthPercent': 0.8, 'rescaleHeight': True, 'trialN': 30, 'loaded': True, 'loadedTime': 4320.800000071526, 'positionName': 'CENTER', 'positionCoords': [474.5, 178.5]}]",Rate how much you want to eat this food from 0 (least) to 10 (most).,102644.60000002384,1669834014553,raisin bran w milk,2666.2000000476837,True,1.08,105310.80000007153,2666.2000000476837,True,HRV,HRV_0215,2022-11-30 18:48:24
31,"[{'imgObject': {}, 'id': 'mashed potato', 'src': '/static/foodstim60/mashed potato.jpg', 'key': 'NaN', 'origWidth': 409, 'origHeight': 409, 'width': 409, 'height': 409, 'widthPercent': 0.8, 'rescaleHeight': True, 'trialN': 31, 'loaded': True, 'loadedTime': 4316.100000023842, 'positionName': 'CENTER', 'positionCoords': [475.5, 179.5]}]",Rate how much you want to eat this food from 0 (least) to 10 (most).,105312.10000002384,1669834017220,mashed potato,2814.7999999523163,True,7.23,108126.89999997616,2814.7999999523163,True,HRV,HRV_0215,2022-11-30 18:48:24
32,"[{'imgObject': {}, 'id': 'hashbrowns', 'src': '/static/foodstim60/hashbrowns.jpg', 'key': 'NaN', 'origWidth': 411, 'origHeight': 410, 'width': 411, 'height': 410, 'widthPercent': 0.8, 'rescaleHeight': True, 'trialN': 32, 'loaded': True, 'loadedTime': 4349.800000071526, 'positionName': 'CENTER', 'positionCoords': [474.5, 179]}]",Rate how much you want to eat this food from 0 (least) to 10 (most).,108128.20000004768,1669834020036,hashbrowns,2616.5,True,0.38,110744.70000004768,2616.5,True,HRV,HRV_0215,2022-11-30 18:48:24
33,"[{'imgObject': {}, 'id': 'luckycharms', 'src': '/static/foodstim60/luckycharms.jpg', 'key': 'NaN', 'origWidth': 410, 'origHeight': 409, 'width': 410, 'height': 409, 'widthPercent': 0.8, 'rescaleHeight': True, 'trialN': 33, 'loaded': True, 'loadedTime': 4374.5, 'positionName': 'CENTER', 'positionCoords': [475, 179.5]}]",Rate how much you want to eat this food from 0 (least) to 10 (most).,110745.80000007153,1669834022654,luckycharms,3149.0,True,5.69,113894.80000007153,3149.0,True,HRV,HRV_0215,2022-11-30 18:48:24
34,"[{'imgObject': {}, 'id': 'turkey sandwich', 'src': '/static/foodstim60/turkey sandwich.jpg', 'key': 'NaN', 'origWidth': 409, 'origHeight': 409, 'width': 409, 'height': 409, 'widthPercent': 0.8, 'rescaleHeight': True, 'trialN': 34, 'loaded': True, 'loadedTime': 4389.899999976158, 'positionName': 'CENTER', 'positionCoords': [475.5, 179.5]}]",Rate how much you want to eat this food from 0 (least) to 10 (most).,113896.70000004768,1669834025805,turkey sandwich,2446.899999976158,True,7.13,116343.60000002384,2446.899999976158,True,HRV,HRV_0215,2022-11-30 18:48:24
35,"[{'imgObject': {}, 'id': 'cantaloupe', 'src': '/static/foodstim60/cantaloupe.jpg', 'key': 'NaN', 'origWidth': 409, 'origHeight': 409, 'width': 409, 'height': 409, 'widthPercent': 0.8, 'rescaleHeight': True, 'trialN': 35, 'loaded': True, 'loadedTime': 4395.700000047684, 'positionName': 'CENTER', 'positionCoords': [475.5, 179.5]}]",Rate how much you want to eat this food from 0 (least) to 10 (most).,116344.89999997616,1669834028253,cantaloupe,1830.8000000715256,True,0.17,118175.70000004768,1830.8000000715256,True,HRV,HRV_0215,2022-11-30 18:48:24
36,"[{'imgObject': {}, 'id': 'shreddedwheatwithmilk', 'src': '/static/foodstim60/shreddedwheatwithmilk.jpg', 'key': 'NaN', 'origWidth': 410, 'origHeight': 410, 'width': 410, 'height': 410, 'widthPercent': 0.8, 'rescaleHeight': True, 'trialN': 36, 'loaded': True, 'loadedTime': 4396.899999976158, 'positionName': 'CENTER', 'positionCoords': [475, 179]}]",Rate how much you want to eat this food from 0 (least) to 10 (most).,118176.80000007153,1669834030085,shreddedwheatwithmilk,2016.0,True,6.8500000000000005,120192.80000007153,2016.0,True,HRV,HRV_0215,2022-11-30 18:48:24
37,"[{'imgObject': {}, 'id': 'seaweed', 'src': '/static/foodstim60/seaweed.jpg', 'key': 'NaN', 'origWidth': 410, 'origHeight': 410, 'width': 410, 'height': 410, 'widthPercent': 0.8, 'rescaleHeight': True, 'trialN': 37, 'loaded': True, 'loadedTime': 4407.600000023842, 'positionName': 'CENTER', 'positionCoords': [475, 179]}]",Rate how much you want to eat this food from 0 (least) to 10 (most).,120193.5,1669834032101,seaweed,4432.399999976158,True,0.33,124625.89999997616,4432.399999976158,True,HRV,HRV_0215,2022-11-30 18:48:24
38,"[{'imgObject': {}, 'id': 'fruitsalad', 'src': '/static/foodstim60/fruitsalad.jpg', 'key': 'NaN', 'origWidth': 410, 'origHeight': 410, 'width': 410, 'height': 410, 'widthPercent': 0.8, 'rescaleHeight': True, 'trialN': 38, 'loaded': True, 'loadedTime': 4475.5, 'positionName': 'CENTER', 'positionCoords': [475, 179]}]",Rate how much you want to eat this food from 0 (least) to 10 (most).,124626.80000007153,1669834036535,fruitsalad,1833.0999999046326,True,2.91,126459.89999997616,1833.0999999046326,True,HRV,HRV_0215,2022-11-30 18:48:24
39,"[{'imgObject': {}, 'id': 'blueberries', 'src': '/static/foodstim60/blueberries.jpg', 'key': 'NaN', 'origWidth': 411, 'origHeight': 411, 'width': 411, 'height': 411, 'widthPercent': 0.8, 'rescaleHeight': True, 'trialN': 39, 'loaded': True, 'loadedTime': 4476.700000047684, 'positionName': 'CENTER', 'positionCoords': [474.5, 178.5]}]",Rate how much you want to eat this food from 0 (least) to 10 (most).,126460.89999997616,1669834038369,blueberries,1698.7000000476837,True,2.8000000000000003,128159.60000002384,1698.7000000476837,True,HRV,HRV_0215,2022-11-30 18:48:24
40,"[{'imgObject': {}, 'id': 'veggieswithdip', 'src': '/static/foodstim60/veggieswithdip.jpg', 'key': 'NaN', 'origWidth': 409, 'origHeight': 409, 'width': 409, 'height': 409, 'widthPercent': 0.8, 'rescaleHeight': True, 'trialN': 40, 'loaded': True, 'loadedTime': 4486.200000047684, 'positionName': 'CENTER', 'positionCoords': [475.5, 179.5]}]",Rate how much you want to eat this food from 0 (least) to 10 (most).,128162.10000002384,1669834040070,veggieswithdip,5139.0,True,4.97,133301.10000002384,5139.0,True,HRV,HRV_0215,2022-11-30 18:48:24
41,"[{'imgObject': {}, 'id': 'Tribe humus pita', 'src': '/static/foodstim60/Tribe humus pita.jpg', 'key': 'NaN', 'origWidth': 411, 'origHeight': 411, 'width': 411, 'height': 411, 'widthPercent': 0.8, 'rescaleHeight': True, 'trialN': 41, 'loaded': True, 'loadedTime': 4484.600000023842, 'positionName': 'CENTER', 'positionCoords': [474.5, 178.5]}]",Rate how much you want to eat this food from 0 (least) to 10 (most).,133302.10000002384,1669834045210,Tribe humus pita,5844.399999976158,True,5.5200000000000005,139146.5,5844.399999976158,True,HRV,HRV_0215,2022-11-30 18:48:24
42,"[{'imgObject': {}, 'id': 'cherry tomato', 'src': '/static/foodstim60/cherry tomato.jpg', 'key': 'NaN', 'origWidth': 410, 'origHeight': 410, 'width': 410, 'height': 410, 'widthPercent': 0.8, 'rescaleHeight': True, 'trialN': 42, 'loaded': True, 'loadedTime': 4488.899999976158, 'positionName': 'CENTER', 'positionCoords': [475, 179]}]",Rate how much you want to eat this food from 0 (least) to 10 (most).,139147.60000002384,1669834051055,cherry tomato,2048.2000000476837,True,0.07,141195.80000007153,2048.2000000476837,True,HRV,HRV_0215,2022-11-30 18:48:24
43,"[{'imgObject': {}, 'id': 'cheerios', 'src': '/static/foodstim60/cheerios.jpg', 'key': 'NaN', 'origWidth': 409, 'origHeight': 410, 'width': 409, 'height': 410, 'widthPercent': 0.8, 'rescaleHeight': True, 'trialN': 43, 'loaded': True, 'loadedTime': 4497.800000071526, 'positionName': 'CENTER', 'positionCoords': [475.5, 179]}]",Rate how much you want to eat this food from 0 (least) to 10 (most).,141197.89999997616,1669834053106,cheerios,2543.100000023842,True,7.0,143741.0,2543.100000023842,True,HRV,HRV_0215,2022-11-30 18:48:24
44,"[{'imgObject': {}, 'id': 'mac & cheese', 'src': '/static/foodstim60/mac & cheese.jpg', 'key': 'NaN', 'origWidth': 410, 'origHeight': 410, 'width': 410, 'height': 410, 'widthPercent': 0.8, 'rescaleHeight': True, 'trialN': 44, 'loaded': True, 'loadedTime': 4554.800000071526, 'positionName': 'CENTER', 'positionCoords': [475, 179]}]",Rate how much you want to eat this food from 0 (least) to 10 (most).,143742.10000002384,1669834055650,mac & cheese,2583.600000023842,True,7.76,146325.70000004768,2583.600000023842,True,HRV,HRV_0215,2022-11-30 18:48:24
45,"[{'imgObject': {}, 'id': 'granola w milk', 'src': '/static/foodstim60/granola w milk.jpg', 'key': 'NaN', 'origWidth': 410, 'origHeight': 410, 'width': 410, 'height': 410, 'widthPercent': 0.8, 'rescaleHeight': True, 'trialN': 45, 'loaded': True, 'loadedTime': 4559.800000071526, 'positionName': 'CENTER', 'positionCoords': [475, 179]}]",Rate how much you want to eat this food from 0 (least) to 10 (most).,146327.20000004768,1669834058235,granola w milk,3114.2999999523163,True,4.92,149441.5,3114.2999999523163,True,HRV,HRV_0215,2022-11-30 18:48:24
46,"[{'imgObject': {}, 'id': 'orange slices', 'src': '/static/foodstim60/orange slices.jpg', 'key': 'NaN', 'origWidth': 409, 'origHeight': 410, 'width': 409, 'height': 410, 'widthPercent': 0.8, 'rescaleHeight': True, 'trialN': 46, 'loaded': True, 'loadedTime': 4576.700000047684, 'positionName': 'CENTER', 'positionCoords': [475.5, 179]}]",Rate how much you want to eat this food from 0 (least) to 10 (most).,149442.60000002384,1669834061351,orange slices,3204.7000000476837,True,0.14,152647.30000007153,3204.7000000476837,True,HRV,HRV_0215,2022-11-30 18:48:24
47,"[{'imgObject': {}, 'id': 'lox', 'src': '/static/foodstim60/lox.jpg', 'key': 'NaN', 'origWidth': 410, 'origHeight': 411, 'width': 410, 'height': 411, 'widthPercent': 0.8, 'rescaleHeight': True, 'trialN': 47, 'loaded': True, 'loadedTime': 4583.5, 'positionName': 'CENTER', 'positionCoords': [475, 178.5]}]",Rate how much you want to eat this food from 0 (least) to 10 (most).,152649.0,1669834064557,lox,3810.0,True,0.05,156459.0,3810.0,True,HRV,HRV_0215,2022-11-30 18:48:24
48,"[{'imgObject': {}, 'id': 'froot loops w milk', 'src': '/static/foodstim60/froot loops w milk.jpg', 'key': 'NaN', 'origWidth': 410, 'origHeight': 410, 'width': 410, 'height': 410, 'widthPercent': 0.8, 'rescaleHeight': True, 'trialN': 48, 'loaded': True, 'loadedTime': 4584.700000047684, 'positionName': 'CENTER', 'positionCoords': [475, 179]}]",Rate how much you want to eat this food from 0 (least) to 10 (most).,156460.30000007153,1669834068368,froot loops w milk,2415.0,True,6.38,158875.30000007153,2415.0,True,HRV,HRV_0215,2022-11-30 18:48:24
49,"[{'imgObject': {}, 'id': 'edamame', 'src': '/static/foodstim60/edamame.jpg', 'key': 'NaN', 'origWidth': 409, 'origHeight': 410, 'width': 409, 'height': 410, 'widthPercent': 0.8, 'rescaleHeight': True, 'trialN': 49, 'loaded': True, 'loadedTime': 4608.5, 'positionName': 'CENTER', 'positionCoords': [475.5, 179]}]",Rate how much you want to eat this food from 0 (least) to 10 (most).,158876.5,1669834070784,edamame,3448.2000000476837,True,0.5,162324.70000004768,3448.2000000476837,True,HRV,HRV_0215,2022-11-30 18:48:24
50,"[{'imgObject': {}, 'id': 'burrito', 'src': '/static/foodstim60/burrito.jpg', 'key': 'NaN', 'origWidth': 410, 'origHeight': 410, 'width': 410, 'height': 410, 'widthPercent': 0.8, 'rescaleHeight': True, 'trialN': 50, 'loaded': True, 'loadedTime': 4636.100000023842, 'positionName': 'CENTER', 'positionCoords': [475, 179]}]",Rate how much you want to eat this food from 0 (least) to 10 (most).,162326.0,1669834074233,burrito,2398.600000023842,True,7.22,164724.60000002384,2398.600000023842,True,HRV,HRV_0215,2022-11-30 18:48:24
51,"[{'imgObject': {}, 'id': 'yogurt no spoon', 'src': '/static/foodstim60/yogurt no spoon.jpg', 'key': 'NaN', 'origWidth': 411, 'origHeight': 410, 'width': 411, 'height': 410, 'widthPercent': 0.8, 'rescaleHeight': True, 'trialN': 51, 'loaded': True, 'loadedTime': 4657.100000023842, 'positionName': 'CENTER', 'positionCoords': [474.5, 179]}]",Rate how much you want to eat this food from 0 (least) to 10 (most).,164725.80000007153,1669834076633,yogurt no spoon,4031.0999999046326,True,2.16,168756.89999997616,4031.0999999046326,True,HRV,HRV_0215,2022-11-30 18:48:24
52,"[{'imgObject': {}, 'id': 'hotdog w must', 'src': '/static/foodstim60/hotdog w must.jpg', 'key': 'NaN', 'origWidth': 409, 'origHeight': 409, 'width': 409, 'height': 409, 'widthPercent': 0.8, 'rescaleHeight': True, 'trialN': 52, 'loaded': True, 'loadedTime': 4669.600000023842, 'positionName': 'CENTER', 'positionCoords': [475.5, 179.5]}]",Rate how much you want to eat this food from 0 (least) to 10 (most).,168757.89999997616,1669834080665,hotdog w must,2257.2000000476837,True,0.8300000000000001,171015.10000002384,2257.2000000476837,True,HRV,HRV_0215,2022-11-30 18:48:24
53,"[{'imgObject': {}, 'id': 'rigatoni', 'src': '/static/foodstim60/rigatoni.jpg', 'key': 'NaN', 'origWidth': 411, 'origHeight': 411, 'width': 411, 'height': 411, 'widthPercent': 0.8, 'rescaleHeight': True, 'trialN': 53, 'loaded': True, 'loadedTime': 4688.600000023842, 'positionName': 'CENTER', 'positionCoords': [474.5, 178.5]}]",Rate how much you want to eat this food from 0 (least) to 10 (most).,171016.10000002384,1669834082923,rigatoni,2461.100000023842,True,0.36,173477.20000004768,2461.100000023842,True,HRV,HRV_0215,2022-11-30 18:48:24
54,"[{'imgObject': {}, 'id': 'popsicles', 'src': '/static/foodstim60/popsicles.jpg', 'key': 'NaN', 'origWidth': 410, 'origHeight': 410, 'width': 410, 'height': 410, 'widthPercent': 0.8, 'rescaleHeight': True, 'trialN': 54, 'loaded': True, 'loadedTime': 4678.300000071526, 'positionName': 'CENTER', 'positionCoords': [475, 179]}]",Rate how much you want to eat this food from 0 (least) to 10 (most).,173478.39999997616,1669834085386,popsicles,4612.700000047684,True,0.63,178091.10000002384,4612.700000047684,True,HRV,HRV_0215,2022-11-30 18:48:24
55,"[{'imgObject': {}, 'id': 'omelette', 'src': '/static/foodstim60/omelette.jpg', 'key': 'NaN', 'origWidth': 410, 'origHeight': 409, 'width': 410, 'height': 409, 'widthPercent': 0.8, 'rescaleHeight': True, 'trialN': 55, 'loaded': True, 'loadedTime': 4718.600000023842, 'positionName': 'CENTER', 'positionCoords': [475, 179.5]}]",Rate how much you want to eat this food from 0 (least) to 10 (most).,178092.10000002384,1669834089999,omelette,3615.2000000476837,True,0.8,181707.30000007153,3615.2000000476837,True,HRV,HRV_0215,2022-11-30 18:48:24
56,"[{'imgObject': {}, 'id': 'steak', 'src': '/static/foodstim60/steak.jpg', 'key': 'NaN', 'origWidth': 410, 'origHeight': 410, 'width': 410, 'height': 410, 'widthPercent': 0.8, 'rescaleHeight': True, 'trialN': 56, 'loaded': True, 'loadedTime': 4743.5, 'positionName': 'CENTER', 'positionCoords': [475, 179]}]",Rate how much you want to eat this food from 0 (least) to 10 (most).,181708.5,1669834093616,steak,2366.8000000715256,True,7.6000000000000005,184075.30000007153,2366.8000000715256,True,HRV,HRV_0215,2022-11-30 18:48:24
57,"[{'imgObject': {}, 'id': 'chicken nuggets2', 'src': '/static/foodstim60/chicken nuggets2.jpg', 'key': 'NaN', 'origWidth': 410, 'origHeight': 409, 'width': 410, 'height': 409, 'widthPercent': 0.8, 'rescaleHeight': True, 'trialN': 57, 'loaded': True, 'loadedTime': 4744.899999976158, 'positionName': 'CENTER', 'positionCoords': [475, 179.5]}]",Rate how much you want to eat this food from 0 (least) to 10 (most).,184076.5,1669834095984,chicken nuggets2,3648.600000023842,True,4.89,187725.10000002384,3648.600000023842,True,HRV,HRV_0215,2022-11-30 18:48:24
58,"[{'imgObject': {}, 'id': 'bagel and cc', 'src': '/static/foodstim60/bagel and cc.jpg', 'key': 'NaN', 'origWidth': 410, 'origHeight': 410, 'width': 410, 'height': 410, 'widthPercent': 0.8, 'rescaleHeight': True, 'trialN': 58, 'loaded': True, 'loadedTime': 4753.399999976158, 'positionName': 'CENTER', 'positionCoords': [475, 179]}]",Rate how much you want to eat this food from 0 (least) to 10 (most).,187726.20000004768,1669834099634,bagel and cc,2014.6000000238419,True,6.2700000000000005,189740.80000007153,2014.6000000238419,True,HRV,HRV_0215,2022-11-30 18:48:24
59,"[{'imgObject': {}, 'id': 'corn cob', 'src': '/static/foodstim60/corn cob.jpg', 'key': 'NaN', 'origWidth': 411, 'origHeight': 411, 'width': 411, 'height': 411, 'widthPercent': 0.8, 'rescaleHeight': True, 'trialN': 59, 'loaded': True, 'loadedTime': 4769.899999976158, 'positionName': 'CENTER', 'positionCoords': [474.5, 178.5]}]",Rate how much you want to eat this food from 0 (least) to 10 (most).,189742.0,1669834101649,corn cob,2397.100000023842,True,0.98,192139.10000002384,2397.100000023842,True,HRV,HRV_0215,2022-11-30 18:48:24
