success,trial_type,trial_index,time_elapsed,internal_node_id,Block,TrialNumber,TrialTime,trialTimeDiff,FPS_avg,FPS_med,FPS_mode,TrialDur,winResizeTime,rt,block,button_pressed,MotCoh,MotDir,ColCoh,Color,ChoiceKey,Choice,Accuracy,RT,nFrames,FPS,PPD,missTrial,missTrialMsg,onsetDelay,fullScreenExitTime,canvCenter,TrialType,Score,BlockTrial,stimulus,button_labels,exp,subjectId,date
True,fullscreen,0,5970,0.0-0.0,0.0,1.0,,,,,,,,,,,,,,,,,,,,,,,,,,,,,,,,HRV,HRV_0215,2022-11-30 19:07:10
,wl-check-fps,1,10963,0.0-1.0,0.0,2.0,"[6786, 6788.2, 6805.7, 6821.7, 6840.4, 6855.7, 6872.8, 6888.5, 6906.6, 6923.2, 6938.9, 6955.5, 6972.5, 6988.5, 7005.4, 7022, 7038.7, 7055.1, 7072, 7088.6, 7105.2, 7121.7, 7138.3, 7155.2, 7171.7, 7188.2, 7205, 7221.6, 7238.3, 7255.2, 7271.7, 7288.2, 7305, 7321.7, 7338.2, 7354.9, 7371.5, 7388.2, 7405.6, 7421.6, 7438.2, 7454.9, 7471.6, 7488.3, 7505, 7521.6, 7538.3, 7555, 7571.7, 7588.3, 7604.8, 7621.7, 7638.4, 7655, 7671.6, 7688.3, 7704.8, 7721.7, 7738.3, 7754.9, 7771.9, 7789.5, 7806.6, 7822.4, 7839, 7855.7, 7872.3, 7889.3, 7905.9, 7922.8, 7938.9, 7955.6, 7972.3, 7988.8, 8005.4, 8022.1, 8038.8, 8055.4, 8072, 8088.7, 8105.7, 8122.6, 8138.9, 8155.9, 8172.3, 8189.2, 8205.7, 8222.6, 8238.9, 8255.5, 8272.2, 8291.4, 8305.8, 8322.1, 8339.1, 8355.9, 8372.4, 8388.9, 8405.6, 8422.4, 8438.7, 8455.6, 8472.1, 8488.8, 8505.4, 8522.2, 8538.8, 8556.1, 8572, 8588.4, 8605.1, 8621.7, 8638.1, 8654.9, 8671.6, 8688.2, 8704.9, 8721.6, 8738.3, 8754.8, 8771.7, 8788.3, 8804.8, 8821.7, 8840.3, 8855.2, 8872.3, 8888.5, 8905.2, 8922.1, 8938.5, 8955.4, 8972, 8988.6, 9005.3, 9022, 9038.6, 9055.2, 9072.2, 9088.4, 9105.4, 9122.2, 9138.5, 9155.2, 9172.2, 9188.6, 9205.3, 9222.2, 9238.5, 9255.3, 9272.2, 9288.7, 9305.1, 9322.2, 9338.7, 9355.3, 9372.7, 9388.6, 9405.2, 9422.2, 9438.5, 9455, 9473.1, 9488.6, 9505.2, 9522, 9538.6, 9555.3, 9572, 9588.4, 9605.2, 9622.1, 9638.7, 9655.4, 9672.1, 9688.6, 9705.2, 9722.2, 9738.5, 9755.1, 9772.5, 9789, 9805, 9822.6, 9839, 9855.8, 9872, 9888.7, 9905.6, 9922.1, 9938.6, 9955.2, 9972.1, 9989, 10005.7, 10023.1, 10039.2, 10056.1, 10073.5, 10088.2, 10104.8, 10122, 10138.1, 10154.8, 10171.5, 10188.1, 10204.8, 10221.6, 10238.1, 10254.8, 10271.6, 10288.2, 10304.8, 10321.7, 10338.1, 10354.7, 10371.6, 10388.2, 10404.9, 10421.7, 10438.5, 10455, 10472.2, 10488.5, 10504.9, 10521.6, 10538.3, 10555.2, 10571.8, 10588.3, 10604.9, 10621.8, 10638.2, 10655, 10671.9, 10688.3, 10705, 10722, 10738.4, 10754.9, 10771.9, 10788.3, 10805, 10821.7, 10838.3, 10854.9, 10872.1, 10888.6, 10905, 10921.8, 10938.3, 10955.2, 10973.1, 10988.3, 11005, 11021.8, 11038.5, 11054.9, 11071.8, 11088.3, 11104.9, 11121.7, 11138.1, 11154.8, 11171.7, 11188.1, 11204.8, 11221.5, 11238.1, 11254.8, 11271.6, 11288.1, 11304.8, 11321.7, 11338.1, 11354.8, 11371.6, 11388.1, 11404.7, 11421.7, 11438, 11454.8, 11471.7, 11488.1, 11504.7, 11521.6, 11538.1, 11554.8, 11571.8, 11588.2, 11604.8, 11621.6, 11638.3, 11654.8, 11671.7, 11688.1, 11704.7, 11721.6, 11738, 11754.8]","[4.1, 2.2, 17.5, 16, 18.7, 15.3, 17.1, 15.7, 18.1, 16.6, 15.7, 16.6, 17, 16, 16.9, 16.6, 16.7, 16.4, 16.9, 16.6, 16.6, 16.5, 16.6, 16.9, 16.5, 16.5, 16.8, 16.6, 16.7, 16.9, 16.5, 16.5, 16.8, 16.7, 16.5, 16.7, 16.6, 16.7, 17.4, 16, 16.6, 16.7, 16.7, 16.7, 16.7, 16.6, 16.7, 16.7, 16.7, 16.6, 16.5, 16.9, 16.7, 16.6, 16.6, 16.7, 16.5, 16.9, 16.6, 16.6, 17, 17.6, 17.1, 15.8, 16.6, 16.7, 16.6, 17, 16.6, 16.9, 16.1, 16.7, 16.7, 16.5, 16.6, 16.7, 16.7, 16.6, 16.6, 16.7, 17, 16.9, 16.3, 17, 16.4, 16.9, 16.5, 16.9, 16.3, 16.6, 16.7, 19.2, 14.4, 16.3, 17, 16.8, 16.5, 16.5, 16.7, 16.8, 16.3, 16.9, 16.5, 16.7, 16.6, 16.8, 16.6, 17.3, 15.9, 16.4, 16.7, 16.6, 16.4, 16.8, 16.7, 16.6, 16.7, 16.7, 16.7, 16.5, 16.9, 16.6, 16.5, 16.9, 18.6, 14.9, 17.1, 16.2, 16.7, 16.9, 16.4, 16.9, 16.6, 16.6, 16.7, 16.7, 16.6, 16.6, 17, 16.2, 17, 16.8, 16.3, 16.7, 17, 16.4, 16.7, 16.9, 16.3, 16.8, 16.9, 16.5, 16.4, 17.1, 16.5, 16.6, 17.4, 15.9, 16.6, 17, 16.3, 16.5, 18.1, 15.5, 16.6, 16.8, 16.6, 16.7, 16.7, 16.4, 16.8, 16.9, 16.6, 16.7, 16.7, 16.5, 16.6, 17, 16.3, 16.6, 17.4, 16.5, 16, 17.6, 16.4, 16.8, 16.2, 16.7, 16.9, 16.5, 16.5, 16.6, 16.9, 16.9, 16.7, 17.4, 16.1, 16.9, 17.4, 14.7, 16.6, 17.2, 16.1, 16.7, 16.7, 16.6, 16.7, 16.8, 16.5, 16.7, 16.8, 16.6, 16.6, 16.9, 16.4, 16.6, 16.9, 16.6, 16.7, 16.8, 16.8, 16.5, 17.2, 16.3, 16.4, 16.7, 16.7, 16.9, 16.6, 16.5, 16.6, 16.9, 16.4, 16.8, 16.9, 16.4, 16.7, 17, 16.4, 16.5, 17, 16.4, 16.7, 16.7, 16.6, 16.6, 17.2, 16.5, 16.4, 16.8, 16.5, 16.9, 17.9, 15.2, 16.7, 16.8, 16.7, 16.4, 16.9, 16.5, 16.6, 16.8, 16.4, 16.7, 16.9, 16.4, 16.7, 16.7, 16.6, 16.7, 16.8, 16.5, 16.7, 16.9, 16.4, 16.7, 16.8, 16.5, 16.6, 17, 16.3, 16.8, 16.9, 16.4, 16.6, 16.9, 16.5, 16.7, 17, 16.4, 16.6, 16.8, 16.7, 16.5, 16.9, 16.4, 16.6, 16.9, 16.4, 16.8]",60.0,59.0,60.0,4990.4,[],,,,,,,,,,,,,,,,,,,,,,,,,HRV,HRV_0215,2022-11-30 19:07:10
,wl-html-keyboard-response,2,35633,0.0-2.0-0.0,0.0,3.0,,,,,,,,22660.5,0.0,0,,,,,,,,,,,,,,,,,,,,,,HRV,HRV_0215,2022-11-30 19:07:10
,wl-rdm,3,44944,0.0-3.0-0.0,0.0,4.0,,,,,,,[],,,,0.0,0.0,87.9,0.0,u,0.0,True,3721.5000001192093,224.0,60.0,40.0,False,,3000.0,[],"[680, 384]",ColorTask_Demo,,,,,HRV,HRV_0215,2022-11-30 19:07:10
,wl-rdm,4,51260,0.0-3.0-1.0,0.0,5.0,,,,,,,[],,,,0.0,0.0,87.9,1.0,i,1.0,True,2219.4999998807907,134.0,60.0,40.0,False,,2000.0,[],"[680, 384]",ColorTask_Demo,,,,,HRV,HRV_0215,2022-11-30 19:07:10
,wl-html-keyboard-response,5,58169,0.0-3.0-2.0,0.0,6.0,,,,,,,,4905.600000023842,0.0,1,,,,,,,,,,,,,,,,,,,,,,HRV,HRV_0215,2022-11-30 19:07:10
,wl-html-keyboard-response,6,68378,0.0-4.0-0.0,0.0,7.0,,,,,,,,8205.100000023842,0.0,0,,,,,,,,,,,,,,,,,,,,,,HRV,HRV_0215,2022-11-30 19:07:10
,wl-html-keyboard-response,7,78302,0.0-5.0-0.0,0.0,8.0,,,,,,,,7901.699999928474,0.0,0,,,,,,,,,,,,,,,,,,,,,,HRV,HRV_0215,2022-11-30 19:07:10
,wl-rdm,8,80875,0.0-6.0-0.0,0.0,9.0,,,,,,,[],,,,,,73.6,1.0,i,1.0,True,1162.3000000715256,70.0,60.0,40.0,False,,356.2887786236446,[],"[680, 384]",ColorTask,1.0,1.0,,,HRV,HRV_0215,2022-11-30 19:07:10
,wl-rdm,9,83043,0.0-6.1-0.1,0.0,10.0,,,,,,,[],,,,,,73.6,1.0,i,1.0,True,730.8999999761581,44.0,60.0,40.0,False,,377.35832361033545,[],"[680, 384]",ColorTask,2.0,2.0,,,HRV,HRV_0215,2022-11-30 19:07:10
,wl-rdm,10,85342,0.0-6.2-0.2,0.0,11.0,,,,,,,[],,,,,,87.9,0.0,u,0.0,True,906.0,55.0,60.0,40.0,False,,315.2928506252257,[],"[680, 384]",ColorTask,3.0,3.0,,,HRV,HRV_0215,2022-11-30 19:07:10
,wl-rdm,11,87644,0.0-6.3-0.3,0.0,12.0,,,,,,,[],,,,,,62.5,1.0,i,1.0,True,869.3999999761581,53.0,60.0,40.0,False,,353.4229812182061,[],"[680, 384]",ColorTask,4.0,4.0,,,HRV,HRV_0215,2022-11-30 19:07:10
,wl-rdm,12,89825,0.0-6.4-0.4,0.0,13.0,,,,,,,[],,,,,,73.6,0.0,u,0.0,True,766.6000000238419,46.0,60.0,40.0,False,,338.8906289708607,[],"[680, 384]",ColorTask,5.0,5.0,,,HRV,HRV_0215,2022-11-30 19:07:10
,wl-rdm,13,92475,0.0-6.5-0.5,0.0,14.0,,,,,,,[],,,,,,56.4,0.0,u,0.0,True,1319.8999999761581,80.0,60.0,40.0,False,,258.8144677333933,[],"[680, 384]",ColorTask,6.0,6.0,,,HRV,HRV_0215,2022-11-30 19:07:10
,wl-rdm,14,94725,0.0-6.6-0.6,0.0,15.0,,,,,,,[],,,,,,73.6,0.0,u,0.0,True,931.1000000238419,56.0,60.0,40.0,False,,236.11029147650066,[],"[680, 384]",ColorTask,7.0,7.0,,,HRV,HRV_0215,2022-11-30 19:07:10
,wl-rdm,15,96991,0.0-6.7-0.7,0.0,16.0,,,,,,,[],,,,,,50.0,1.0,u,0.0,False,823.4999998807907,50.0,60.0,40.0,False,,363.22162419862184,[],"[680, 384]",ColorTask,6.0,8.0,,,HRV,HRV_0215,2022-11-30 19:07:10
,wl-rdm,16,98976,0.0-6.8-0.8,0.0,17.0,,,,,,,[],,,,,,56.4,1.0,i,1.0,True,669.4000000953674,41.0,60.0,40.0,False,,220.27650306891755,[],"[680, 384]",ColorTask,7.0,9.0,,,HRV,HRV_0215,2022-11-30 19:07:10
,wl-rdm,17,101341,0.0-6.9-0.9,0.0,18.0,,,,,,,[],,,,,,53.2,0.0,i,1.0,False,952.0999999046326,58.0,60.0,40.0,False,,301.84690105742044,[],"[680, 384]",ColorTask,6.0,10.0,,,HRV,HRV_0215,2022-11-30 19:07:10
,wl-rdm,18,103708,0.0-6.10-0.10,0.0,19.0,,,,,,,[],,,,,,53.2,1.0,i,1.0,True,1060.0,64.0,60.0,40.0,False,,229.02547560852034,[],"[680, 384]",ColorTask,7.0,11.0,,,HRV,HRV_0215,2022-11-30 19:07:10
,wl-rdm,19,105791,0.0-6.11-0.11,0.0,20.0,,,,,,,[],,,,,,87.9,0.0,u,0.0,True,794.1000000238419,48.0,60.0,40.0,False,,218.22188763647347,[],"[680, 384]",ColorTask,8.0,12.0,,,HRV,HRV_0215,2022-11-30 19:07:10
,wl-rdm,20,107774,0.0-6.12-0.12,0.0,21.0,,,,,,,[],,,,,,87.9,0.0,u,0.0,True,677.7000000476837,41.0,60.0,40.0,False,,232.75947328494283,[],"[680, 384]",ColorTask,9.0,13.0,,,HRV,HRV_0215,2022-11-30 19:07:10
,wl-rdm,21,109757,0.0-6.13-0.13,0.0,22.0,,,,,,,[],,,,,,73.6,0.0,u,0.0,True,682.0,41.0,60.0,40.0,False,,222.08387997650618,[],"[680, 384]",ColorTask,10.0,14.0,,,HRV,HRV_0215,2022-11-30 19:07:10
,wl-rdm,22,111874,0.0-6.14-0.14,0.0,23.0,,,,,,,[],,,,,,73.6,1.0,i,1.0,True,791.1999999284744,48.0,60.0,40.0,False,,241.6780857455709,[],"[680, 384]",ColorTask,11.0,15.0,,,HRV,HRV_0215,2022-11-30 19:07:10
,wl-rdm,23,113891,0.0-6.15-0.15,0.0,24.0,,,,,,,[],,,,,,50.0,0.0,i,1.0,False,621.3000000715256,38.0,60.0,40.0,False,,316.11313965252987,[],"[680, 384]",ColorTask,10.0,16.0,,,HRV,HRV_0215,2022-11-30 19:07:10
,wl-rdm,24,116007,0.0-6.16-0.16,0.0,25.0,,,,,,,[],,,,,,53.2,0.0,i,1.0,False,725.2999999523163,44.0,60.0,40.0,False,,306.9082141623835,[],"[680, 384]",ColorTask,9.0,17.0,,,HRV,HRV_0215,2022-11-30 19:07:10
,wl-rdm,25,118540,0.0-6.17-0.17,0.0,26.0,,,,,,,[],,,,,,56.4,0.0,i,1.0,False,1162.5,70.0,60.0,40.0,False,,287.7073790682848,[],"[680, 384]",ColorTask,8.0,18.0,,,HRV,HRV_0215,2022-11-30 19:07:10
,wl-rdm,26,120873,0.0-6.18-0.18,0.0,27.0,,,,,,,[],,,,,,56.4,0.0,i,1.0,False,985.3999999761581,60.0,60.0,40.0,False,,273.80611131211566,[],"[680, 384]",ColorTask,7.0,19.0,,,HRV,HRV_0215,2022-11-30 19:07:10
,wl-rdm,27,123023,0.0-6.19-0.19,0.0,28.0,,,,,,,[],,,,,,87.9,0.0,u,0.0,True,853.2000000476837,52.0,60.0,40.0,False,,207.81350734898817,[],"[680, 384]",ColorTask,8.0,20.0,,,HRV,HRV_0215,2022-11-30 19:07:10
,wl-rdm,28,125273,0.0-6.20-0.20,0.0,29.0,,,,,,,[],,,,,,62.5,0.0,u,0.0,True,885.8000000715256,54.0,60.0,40.0,False,,278.32471227428573,[],"[680, 384]",ColorTask,9.0,21.0,,,HRV,HRV_0215,2022-11-30 19:07:10
,wl-rdm,29,127539,0.0-6.21-0.21,0.0,30.0,,,,,,,[],,,,,,62.5,0.0,u,0.0,True,847.6000000238419,51.0,60.0,40.0,False,,350.14172397002824,[],"[680, 384]",ColorTask,10.0,22.0,,,HRV,HRV_0215,2022-11-30 19:07:10
,wl-rdm,30,129873,0.0-6.22-0.22,0.0,31.0,,,,,,,[],,,,,,50.0,1.0,u,0.0,False,1023.0000001192093,62.0,60.0,40.0,False,,235.44881994050272,[],"[680, 384]",ColorTask,9.0,23.0,,,HRV,HRV_0215,2022-11-30 19:07:10
,wl-rdm,31,131972,0.0-6.23-0.23,0.0,32.0,,,,,,,[],,,,,,87.9,1.0,i,1.0,True,790.3999999761581,48.0,60.0,40.0,False,,223.90251888297624,[],"[680, 384]",ColorTask,10.0,24.0,,,HRV,HRV_0215,2022-11-30 19:07:10
,wl-rdm,32,134222,0.0-6.24-0.24,0.0,33.0,,,,,,,[],,,,,,62.5,0.0,u,0.0,True,882.3999998569489,53.0,60.0,40.0,False,,314.4288023684725,[],"[680, 384]",ColorTask,11.0,25.0,,,HRV,HRV_0215,2022-11-30 19:07:10
,wl-rdm,33,136722,0.0-6.25-0.25,0.0,34.0,,,,,,,[],,,,,,50.0,1.0,u,0.0,False,1204.3999998569489,73.0,60.0,40.0,False,,211.54085605579783,[],"[680, 384]",ColorTask,10.0,26.0,,,HRV,HRV_0215,2022-11-30 19:07:10
,wl-rdm,34,138739,0.0-6.26-0.26,0.0,35.0,,,,,,,[],,,,,,73.6,1.0,i,1.0,True,674.6000000238419,41.0,60.0,40.0,False,,254.15321404661958,[],"[680, 384]",ColorTask,11.0,27.0,,,HRV,HRV_0215,2022-11-30 19:07:10
,wl-rdm,35,140905,0.0-6.27-0.27,0.0,36.0,,,,,,,[],,,,,,53.2,1.0,u,0.0,False,758.8999999761581,46.0,60.0,40.0,False,,335.0908303283783,[],"[680, 384]",ColorTask,10.0,28.0,,,HRV,HRV_0215,2022-11-30 19:07:10
,wl-rdm,36,143205,0.0-6.28-0.28,0.0,37.0,,,,,,,[],,,,,,50.0,1.0,i,1.0,True,877.9000000953674,53.0,60.0,40.0,False,,347.0632998476579,[],"[680, 384]",ColorTask,11.0,29.0,,,HRV,HRV_0215,2022-11-30 19:07:10
,wl-rdm,37,145272,0.0-6.29-0.29,0.0,38.0,,,,,,,[],,,,,,53.2,0.0,i,1.0,False,736.1000000238419,45.0,60.0,40.0,False,,241.19249444664774,[],"[680, 384]",ColorTask,10.0,30.0,,,HRV,HRV_0215,2022-11-30 19:07:10
,wl-rdm,38,147522,0.0-6.30-0.30,0.0,39.0,,,,,,,[],,,,,,87.9,0.0,u,0.0,True,944.3999999761581,57.0,60.0,40.0,False,,217.15619563361918,[],"[680, 384]",ColorTask,11.0,31.0,,,HRV,HRV_0215,2022-11-30 19:07:10
,wl-rdm,39,150055,0.0-6.31-0.31,0.0,40.0,,,,,,,[],,,,,,62.5,0.0,u,0.0,True,1154.2999999523163,70.0,60.0,40.0,False,,313.2216803111747,[],"[680, 384]",ColorTask,12.0,32.0,,,HRV,HRV_0215,2022-11-30 19:07:10
,wl-rdm,40,152138,0.0-6.32-0.32,0.0,41.0,,,,,,,[],,,,,,87.9,1.0,i,1.0,True,785.7999999523163,48.0,60.0,40.0,False,,204.72566902436955,[],"[680, 384]",ColorTask,13.0,33.0,,,HRV,HRV_0215,2022-11-30 19:07:10
,wl-rdm,41,154372,0.0-6.33-0.33,0.0,42.0,,,,,,,[],,,,,,62.5,1.0,i,1.0,True,927.3000000715256,56.0,60.0,40.0,False,,237.04930913031777,[],"[680, 384]",ColorTask,14.0,34.0,,,HRV,HRV_0215,2022-11-30 19:07:10
,wl-rdm,42,157005,0.0-6.34-0.34,0.0,43.0,,,,,,,[],,,,,,62.5,0.0,u,0.0,True,1273.3000000715256,77.0,60.0,40.0,False,,267.0591987847542,[],"[680, 384]",ColorTask,15.0,35.0,,,HRV,HRV_0215,2022-11-30 19:07:10
,wl-rdm,43,159521,0.0-6.35-0.35,0.0,44.0,,,,,,,[],,,,,,56.4,0.0,u,0.0,True,1144.9000000953674,69.0,60.0,40.0,False,,299.5086398479642,[],"[680, 384]",ColorTask,16.0,36.0,,,HRV,HRV_0215,2022-11-30 19:07:10
,wl-rdm,44,161721,0.0-6.36-0.36,0.0,45.0,,,,,,,[],,,,,,56.4,1.0,u,0.0,False,881.8999999761581,53.0,60.0,40.0,False,,250.3621417082889,[],"[680, 384]",ColorTask,15.0,37.0,,,HRV,HRV_0215,2022-11-30 19:07:10
,wl-rdm,45,164138,0.0-6.37-0.37,0.0,46.0,,,,,,,[],,,,,,73.6,0.0,u,0.0,True,1094.2000000476837,66.0,60.0,40.0,False,,238.12881078810324,[],"[680, 384]",ColorTask,16.0,38.0,,,HRV,HRV_0215,2022-11-30 19:07:10
,wl-rdm,46,166271,0.0-6.38-0.38,0.0,47.0,,,,,,,[],,,,,,87.9,0.0,u,0.0,True,782.0,47.0,60.0,40.0,False,,286.6906597730436,[],"[680, 384]",ColorTask,17.0,39.0,,,HRV,HRV_0215,2022-11-30 19:07:10
,wl-rdm,47,168254,0.0-6.39-0.39,0.0,48.0,,,,,,,[],,,,,,87.9,1.0,i,1.0,True,706.5,43.0,60.0,40.0,False,,211.55313790655467,[],"[680, 384]",ColorTask,18.0,40.0,,,HRV,HRV_0215,2022-11-30 19:07:10
,wl-rdm,48,170438,0.0-6.40-0.40,0.0,49.0,,,,,,,[],,,,,,73.6,1.0,i,1.0,True,745.1999999284744,45.0,60.0,40.0,False,,379.0077624276086,[],"[680, 384]",ColorTask,19.0,41.0,,,HRV,HRV_0215,2022-11-30 19:07:10
,wl-rdm,49,172671,0.0-6.41-0.41,0.0,50.0,,,,,,,[],,,,,,56.4,0.0,i,1.0,False,881.8000000715256,53.0,60.0,40.0,False,,276.0123523316515,[],"[680, 384]",ColorTask,18.0,42.0,,,HRV,HRV_0215,2022-11-30 19:07:10
,wl-rdm,50,174837,0.0-6.42-0.42,0.0,51.0,,,,,,,[],,,,,,87.9,1.0,i,1.0,True,758.0,46.0,60.0,40.0,False,,329.1108170734844,[],"[680, 384]",ColorTask,19.0,43.0,,,HRV,HRV_0215,2022-11-30 19:07:10
,wl-rdm,51,177004,0.0-6.43-0.43,0.0,52.0,,,,,,,[],,,,,,73.6,1.0,i,1.0,True,703.3000000715256,43.0,60.0,40.0,False,,368.4566773818826,[],"[680, 384]",ColorTask,20.0,44.0,,,HRV,HRV_0215,2022-11-30 19:07:10
,wl-rdm,52,179521,0.0-6.44-0.44,0.0,53.0,,,,,,,[],,,,,,73.6,0.0,u,0.0,True,1081.0,65.0,60.0,40.0,False,,379.8278381308469,[],"[680, 384]",ColorTask,21.0,45.0,,,HRV,HRV_0215,2022-11-30 19:07:10
,wl-rdm,53,181804,0.0-6.45-0.45,0.0,54.0,,,,,,,[],,,,,,50.0,1.0,i,1.0,True,969.8999999761581,59.0,60.0,40.0,False,,223.73676107469424,[],"[680, 384]",ColorTask,22.0,46.0,,,HRV,HRV_0215,2022-11-30 19:07:10
,wl-rdm,54,184087,0.0-6.46-0.46,0.0,55.0,,,,,,,[],,,,,,53.2,1.0,i,1.0,True,985.6000000238419,60.0,60.0,40.0,False,,202.31507166149527,[],"[680, 384]",ColorTask,23.0,47.0,,,HRV,HRV_0215,2022-11-30 19:07:10
,wl-rdm,55,186271,0.0-6.47-0.47,0.0,56.0,,,,,,,[],,,,,,53.2,1.0,u,0.0,False,899.4000000953674,54.0,60.0,40.0,False,,202.03358751873557,[],"[680, 384]",ColorTask,22.0,48.0,,,HRV,HRV_0215,2022-11-30 19:07:10
,wl-rdm,56,188454,0.0-6.48-0.48,0.0,57.0,,,,,,,[],,,,,,53.2,1.0,u,0.0,False,874.6000000238419,53.0,60.0,40.0,False,,222.24028286269555,[],"[680, 384]",ColorTask,21.0,49.0,,,HRV,HRV_0215,2022-11-30 19:07:10
,wl-rdm,57,190620,0.0-6.49-0.49,0.0,58.0,,,,,,,[],,,,,,50.0,1.0,i,1.0,True,713.3999999761581,43.0,60.0,40.0,False,,397.8573424095134,[],"[680, 384]",ColorTask,22.0,50.0,,,HRV,HRV_0215,2022-11-30 19:07:10
,wl-rdm,58,193070,0.0-6.50-0.50,0.0,59.0,,,,,,,[],,,,,,73.6,0.0,u,0.0,True,1100.2000000476837,66.0,60.0,40.0,False,,281.451313117716,[],"[680, 384]",ColorTask,23.0,51.0,,,HRV,HRV_0215,2022-11-30 19:07:10
,wl-rdm,59,195204,0.0-6.51-0.51,0.0,60.0,,,,,,,[],,,,,,62.5,1.0,i,1.0,True,745.3999999761581,45.0,60.0,40.0,False,,311.16596545814207,[],"[680, 384]",ColorTask,24.0,52.0,,,HRV,HRV_0215,2022-11-30 19:07:10
,wl-rdm,60,197270,0.0-6.52-0.52,0.0,61.0,,,,,,,[],,,,,,87.9,1.0,i,1.0,True,720.7000000476837,44.0,60.0,40.0,False,,262.7772861993,[],"[680, 384]",ColorTask,25.0,53.0,,,HRV,HRV_0215,2022-11-30 19:07:10
,wl-rdm,61,199353,0.0-6.53-0.53,0.0,62.0,,,,,,,[],,,,,,56.4,1.0,i,1.0,True,698.1000000238419,42.0,60.0,40.0,False,,303.3965577794812,[],"[680, 384]",ColorTask,26.0,54.0,,,HRV,HRV_0215,2022-11-30 19:07:10
,wl-rdm,62,201437,0.0-6.54-0.54,0.0,63.0,,,,,,,[],,,,,,62.5,1.0,i,1.0,True,607.4999998807907,37.0,60.0,40.0,False,,389.62914567278483,[],"[680, 384]",ColorTask,27.0,55.0,,,HRV,HRV_0215,2022-11-30 19:07:10
,wl-rdm,63,203687,0.0-6.55-0.55,0.0,64.0,,,,,,,[],,,,,,87.9,0.0,u,0.0,True,786.8999999761581,48.0,60.0,40.0,False,,383.2419807522831,[],"[680, 384]",ColorTask,28.0,56.0,,,HRV,HRV_0215,2022-11-30 19:07:10
,wl-rdm,64,205820,0.0-6.56-0.56,0.0,65.0,,,,,,,[],,,,,,62.5,0.0,u,0.0,True,677.5999999046326,41.0,60.0,40.0,False,,384.1948778338892,[],"[680, 384]",ColorTask,29.0,57.0,,,HRV,HRV_0215,2022-11-30 19:07:10
,wl-rdm,65,207970,0.0-6.57-0.57,0.0,66.0,,,,,,,[],,,,,,62.5,1.0,i,1.0,True,756.0,46.0,60.0,40.0,False,,313.9748178751199,[],"[680, 384]",ColorTask,30.0,58.0,,,HRV,HRV_0215,2022-11-30 19:07:10
,wl-rdm,66,210253,0.0-6.58-0.58,0.0,67.0,,,,,,,[],,,,,,50.0,1.0,i,1.0,True,923.3000000715256,56.0,60.0,40.0,False,,299.5430793987152,[],"[680, 384]",ColorTask,31.0,59.0,,,HRV,HRV_0215,2022-11-30 19:07:10
,wl-rdm,67,212770,0.0-6.59-0.59,0.0,68.0,,,,,,,[],,,,,,50.0,0.0,u,0.0,True,1164.1999999284744,70.0,60.0,40.0,False,,278.1777395974686,[],"[680, 384]",ColorTask,32.0,60.0,,,HRV,HRV_0215,2022-11-30 19:07:10
,wl-rdm,68,214803,0.0-6.60-0.60,0.0,69.0,,,,,,,[],,,,,,73.6,0.0,u,0.0,True,654.1000000238419,40.0,60.0,40.0,False,,315.2952919141012,[],"[680, 384]",ColorTask,33.0,61.0,,,HRV,HRV_0215,2022-11-30 19:07:10
,wl-rdm,69,216836,0.0-6.61-0.61,0.0,70.0,,,,,,,[],,,,,,50.0,1.0,u,0.0,False,702.7999999523163,43.0,60.0,40.0,False,,245.0179106875912,[],"[680, 384]",ColorTask,32.0,62.0,,,HRV,HRV_0215,2022-11-30 19:07:10
,wl-rdm,70,218869,0.0-6.62-0.62,0.0,71.0,,,,,,,[],,,,,,73.6,1.0,i,1.0,True,592.0,36.0,60.0,40.0,False,,374.82274128638943,[],"[680, 384]",ColorTask,33.0,63.0,,,HRV,HRV_0215,2022-11-30 19:07:10
,wl-rdm,71,220869,0.0-6.63-0.63,0.0,72.0,,,,,,,[],,,,,,73.6,1.0,i,1.0,True,677.8999999761581,41.0,60.0,40.0,False,,257.14097608384947,[],"[680, 384]",ColorTask,34.0,64.0,,,HRV,HRV_0215,2022-11-30 19:07:10
,wl-rdm,72,222853,0.0-6.64-0.64,0.0,73.0,,,,,,,[],,,,,,56.4,0.0,u,0.0,True,711.2999999523163,43.0,60.0,40.0,False,,206.25836801860723,[],"[680, 384]",ColorTask,35.0,65.0,,,HRV,HRV_0215,2022-11-30 19:07:10
,wl-rdm,73,224936,0.0-6.65-0.65,0.0,74.0,,,,,,,[],,,,,,62.5,1.0,i,1.0,True,736.1999999284744,45.0,60.0,40.0,False,,269.30710274689386,[],"[680, 384]",ColorTask,36.0,66.0,,,HRV,HRV_0215,2022-11-30 19:07:10
,wl-rdm,74,227052,0.0-6.66-0.66,0.0,75.0,,,,,,,[],,,,,,62.5,1.0,i,1.0,True,769.1999999284744,47.0,60.0,40.0,False,,266.4583222765855,[],"[680, 384]",ColorTask,37.0,67.0,,,HRV,HRV_0215,2022-11-30 19:07:10
,wl-rdm,75,229186,0.0-6.67-0.67,0.0,76.0,,,,,,,[],,,,,,53.2,0.0,i,1.0,False,729.0,44.0,60.0,40.0,False,,322.61667746728335,[],"[680, 384]",ColorTask,36.0,68.0,,,HRV,HRV_0215,2022-11-30 19:07:10
,wl-rdm,76,231236,0.0-6.68-0.68,0.0,77.0,,,,,,,[],,,,,,50.0,0.0,u,0.0,True,726.0,44.0,60.0,40.0,False,,259.4926805194968,[],"[680, 384]",ColorTask,37.0,69.0,,,HRV,HRV_0215,2022-11-30 19:07:10
,wl-rdm,77,233569,0.0-6.69-0.69,0.0,78.0,,,,,,,[],,,,,,53.2,1.0,u,0.0,False,939.8999999761581,57.0,60.0,40.0,False,,301.7026150842291,[],"[680, 384]",ColorTask,36.0,70.0,,,HRV,HRV_0215,2022-11-30 19:07:10
,wl-rdm,78,235335,0.0-6.70-0.70,0.0,79.0,,,,,,,[],,,,,,50.0,0.0,i,1.0,False,472.39999997615814,29.0,60.0,40.0,False,,208.9412408941586,[],"[680, 384]",ColorTask,35.0,71.0,,,HRV,HRV_0215,2022-11-30 19:07:10
,wl-rdm,79,237719,0.0-6.71-0.71,0.0,80.0,,,,,,,[],,,,,,56.4,1.0,i,1.0,True,985.6000000238419,60.0,60.0,40.0,False,,332.73848584644014,[],"[680, 384]",ColorTask,36.0,72.0,,,HRV,HRV_0215,2022-11-30 19:07:10
,wl-rdm,80,239586,0.0-6.72-0.72,0.0,81.0,,,,,,,[],,,,,,56.4,1.0,i,1.0,True,585.1000000238419,36.0,60.0,40.0,False,,203.73946503060225,[],"[680, 384]",ColorTask,37.0,73.0,,,HRV,HRV_0215,2022-11-30 19:07:10
,wl-rdm,81,241519,0.0-6.73-0.73,0.0,82.0,,,,,,,[],,,,,,62.5,1.0,i,1.0,True,619.3000000715256,38.0,60.0,40.0,False,,228.998659321757,[],"[680, 384]",ColorTask,38.0,74.0,,,HRV,HRV_0215,2022-11-30 19:07:10
,wl-rdm,82,243269,0.0-6.74-0.74,0.0,83.0,,,,,,,[],,,,,,53.2,1.0,i,1.0,True,413.7000000476837,25.0,60.0,40.0,False,,264.01008773024597,[],"[680, 384]",ColorTask,39.0,75.0,,,HRV,HRV_0215,2022-11-30 19:07:10
,wl-rdm,83,245185,0.0-6.75-0.75,0.0,84.0,,,,,,,[],,,,,,73.6,1.0,i,1.0,True,538.6000000238419,33.0,60.0,40.0,False,,306.66427272284943,[],"[680, 384]",ColorTask,40.0,76.0,,,HRV,HRV_0215,2022-11-30 19:07:10
,wl-rdm,84,247336,0.0-6.76-0.76,0.0,85.0,,,,,,,[],,,,,,62.5,0.0,i,1.0,False,823.1999999284744,50.0,60.0,40.0,False,,239.3553618963631,[],"[680, 384]",ColorTask,39.0,77.0,,,HRV,HRV_0215,2022-11-30 19:07:10
,wl-rdm,85,249519,0.0-6.77-0.77,0.0,86.0,,,,,,,[],,,,,,56.4,1.0,i,1.0,True,799.0,48.0,60.0,40.0,False,,303.2767446186428,[],"[680, 384]",ColorTask,40.0,78.0,,,HRV,HRV_0215,2022-11-30 19:07:10
,wl-rdm,86,252103,0.0-6.78-0.78,0.0,87.0,,,,,,,[],,,,,,50.0,0.0,u,0.0,True,1293.2999999523163,78.0,60.0,40.0,False,,203.62591392742792,[],"[680, 384]",ColorTask,41.0,79.0,,,HRV,HRV_0215,2022-11-30 19:07:10
,wl-rdm,87,254118,0.0-6.79-0.79,0.0,88.0,,,,,,,[],,,,,,53.2,0.0,u,0.0,True,681.8999999761581,41.0,60.0,40.0,False,,282.3499620436218,[],"[680, 384]",ColorTask,42.0,80.0,,,HRV,HRV_0215,2022-11-30 19:07:10
,wl-rdm,88,256318,0.0-6.80-0.80,0.0,89.0,,,,,,,[],,,,,,56.4,0.0,u,0.0,True,802.6000000238419,49.0,60.0,40.0,False,,301.1352970105922,[],"[680, 384]",ColorTask,43.0,81.0,,,HRV,HRV_0215,2022-11-30 19:07:10
,wl-rdm,89,258702,0.0-6.81-0.81,0.0,90.0,,,,,,,[],,,,,,53.2,1.0,u,0.0,False,1114.2000000476837,67.0,60.0,40.0,False,,210.70187431023805,[],"[680, 384]",ColorTask,42.0,82.0,,,HRV,HRV_0215,2022-11-30 19:07:10
,wl-rdm,90,260835,0.0-6.82-0.82,0.0,91.0,,,,,,,[],,,,,,73.6,0.0,u,0.0,True,748.8999998569489,45.0,60.0,40.0,False,,306.7185549797905,[],"[680, 384]",ColorTask,43.0,83.0,,,HRV,HRV_0215,2022-11-30 19:07:10
,wl-rdm,91,262968,0.0-6.83-0.83,0.0,92.0,,,,,,,[],,,,,,87.9,1.0,i,1.0,True,671.9999998807907,41.0,60.0,40.0,False,,387.12211415287544,[],"[680, 384]",ColorTask,44.0,84.0,,,HRV,HRV_0215,2022-11-30 19:07:10
,wl-rdm,92,265169,0.0-6.84-0.84,0.0,93.0,,,,,,,[],,,,,,56.4,0.0,i,1.0,False,913.2999999523163,55.0,60.0,40.0,False,,209.01708717182657,[],"[680, 384]",ColorTask,43.0,85.0,,,HRV,HRV_0215,2022-11-30 19:07:10
,wl-rdm,93,267318,0.0-6.85-0.85,0.0,94.0,,,,,,,[],,,,,,87.9,0.0,u,0.0,True,769.3000000715256,47.0,60.0,40.0,False,,284.9019874575777,[],"[680, 384]",ColorTask,44.0,86.0,,,HRV,HRV_0215,2022-11-30 19:07:10
,wl-rdm,94,269335,0.0-6.86-0.86,0.0,95.0,,,,,,,[],,,,,,50.0,0.0,u,0.0,True,628.3000000715256,38.0,60.0,40.0,False,,321.10760196969704,[],"[680, 384]",ColorTask,45.0,87.0,,,HRV,HRV_0215,2022-11-30 19:07:10
,wl-rdm,95,271368,0.0-6.87-0.87,0.0,96.0,,,,,,,[],,,,,,56.4,1.0,u,0.0,False,685.5999999046326,42.0,60.0,40.0,False,,273.54457323073797,[],"[680, 384]",ColorTask,44.0,88.0,,,HRV,HRV_0215,2022-11-30 19:07:10
,wl-rdm,96,273484,0.0-6.88-0.88,0.0,97.0,,,,,,,[],,,,,,87.9,1.0,i,1.0,True,660.8000000715256,40.0,60.0,40.0,False,,367.33767024764165,[],"[680, 384]",ColorTask,45.0,89.0,,,HRV,HRV_0215,2022-11-30 19:07:10
,wl-rdm,97,275751,0.0-6.89-0.89,0.0,98.0,,,,,,,[],,,,,,62.5,0.0,u,0.0,True,804.5,49.0,60.0,40.0,False,,368.3854200177783,[],"[680, 384]",ColorTask,46.0,90.0,,,HRV,HRV_0215,2022-11-30 19:07:10
,wl-rdm,98,278034,0.0-6.90-0.90,0.0,99.0,,,,,,,[],,,,,,50.0,0.0,i,1.0,False,860.2000000476837,52.0,60.0,40.0,False,,352.8771433483377,[],"[680, 384]",ColorTask,45.0,91.0,,,HRV,HRV_0215,2022-11-30 19:07:10
,wl-rdm,99,280084,0.0-6.91-0.91,0.0,100.0,,,,,,,[],,,,,,50.0,1.0,u,0.0,False,594.5999999046326,36.0,60.0,40.0,False,,385.07688061009185,[],"[680, 384]",ColorTask,44.0,92.0,,,HRV,HRV_0215,2022-11-30 19:07:10
,wl-rdm,100,282167,0.0-6.92-0.92,0.0,101.0,,,,,,,[],,,,,,87.9,0.0,u,0.0,True,702.8000000715256,43.0,60.0,40.0,False,,298.35577812362277,[],"[680, 384]",ColorTask,45.0,93.0,,,HRV,HRV_0215,2022-11-30 19:07:10
,wl-rdm,101,284301,0.0-6.93-0.93,0.0,102.0,,,,,,,[],,,,,,53.2,0.0,u,0.0,True,757.1999999284744,46.0,60.0,40.0,False,,293.40627819629856,[],"[680, 384]",ColorTask,46.0,94.0,,,HRV,HRV_0215,2022-11-30 19:07:10
,wl-rdm,102,286251,0.0-6.94-0.94,0.0,103.0,,,,,,,[],,,,,,53.2,0.0,u,0.0,True,582.2999999523163,35.0,60.0,40.0,False,,298.14357278000534,[],"[680, 384]",ColorTask,47.0,95.0,,,HRV,HRV_0215,2022-11-30 19:07:10
,wl-rdm,103,288084,0.0-6.95-0.95,0.0,104.0,,,,,,,[],,,,,,53.2,1.0,u,0.0,False,504.2999999523163,31.0,60.0,40.0,False,,244.03570951752195,[],"[680, 384]",ColorTask,46.0,96.0,,,HRV,HRV_0215,2022-11-30 19:07:10
,wl-rdm,104,290467,0.0-6.96-0.96,0.0,105.0,,,,,,,[],,,,,,62.5,0.0,i,1.0,False,975.3999999761581,59.0,60.0,40.0,False,,328.76606239755233,[],"[680, 384]",ColorTask,45.0,97.0,,,HRV,HRV_0215,2022-11-30 19:07:10
,wl-rdm,105,292450,0.0-6.97-0.97,0.0,106.0,,,,,,,[],,,,,,87.9,1.0,i,1.0,True,535.1999999284744,33.0,60.0,40.0,False,,356.8806556240771,[],"[680, 384]",ColorTask,46.0,98.0,,,HRV,HRV_0215,2022-11-30 19:07:10
,wl-rdm,106,294350,0.0-6.98-0.98,0.0,107.0,,,,,,,[],,,,,,73.6,0.0,u,0.0,True,629.5,38.0,60.0,40.0,False,,201.6106985017124,[],"[680, 384]",ColorTask,47.0,99.0,,,HRV,HRV_0215,2022-11-30 19:07:10
,wl-rdm,107,296533,0.0-6.99-0.99,0.0,108.0,,,,,,,[],,,,,,53.2,0.0,u,0.0,True,857.1000000238419,52.0,60.0,40.0,False,,234.57201275502362,[],"[680, 384]",ColorTask,48.0,100.0,,,HRV,HRV_0215,2022-11-30 19:07:10
,wl-rdm,108,298449,0.0-6.100-0.100,0.0,109.0,,,,,,,[],,,,,,50.0,0.0,u,0.0,True,619.8999999761581,38.0,60.0,40.0,False,,222.8972198557633,[],"[680, 384]",ColorTask,49.0,101.0,,,HRV,HRV_0215,2022-11-30 19:07:10
,wl-rdm,109,300466,0.0-6.101-0.101,0.0,110.0,,,,,,,[],,,,,,50.0,0.0,u,0.0,True,694.0,42.0,60.0,40.0,False,,234.9005085544861,[],"[680, 384]",ColorTask,50.0,102.0,,,HRV,HRV_0215,2022-11-30 19:07:10
,wl-rdm,110,302816,0.0-6.102-0.102,0.0,111.0,,,,,,,[],,,,,,87.9,1.0,i,1.0,True,976.8999999761581,59.0,60.0,40.0,False,,315.07765598870594,[],"[680, 384]",ColorTask,51.0,103.0,,,HRV,HRV_0215,2022-11-30 19:07:10
,wl-rdm,111,305049,0.0-6.103-0.103,0.0,112.0,,,,,,,[],,,,,,56.4,1.0,i,1.0,True,788.7999999523163,48.0,60.0,40.0,False,,360.7962213735975,[],"[680, 384]",ColorTask,52.0,104.0,,,HRV,HRV_0215,2022-11-30 19:07:10
,wl-rdm,112,307132,0.0-6.104-0.104,0.0,113.0,,,,,,,[],,,,,,56.4,1.0,i,1.0,True,766.2000000476837,46.0,60.0,40.0,False,,244.755409762642,[],"[680, 384]",ColorTask,53.0,105.0,,,HRV,HRV_0215,2022-11-30 19:07:10
,wl-rdm,113,309182,0.0-6.105-0.105,0.0,114.0,,,,,,,[],,,,,,53.2,0.0,i,1.0,False,652.1000000238419,40.0,60.0,40.0,False,,330.4199216287922,[],"[680, 384]",ColorTask,52.0,106.0,,,HRV,HRV_0215,2022-11-30 19:07:10
,wl-rdm,114,311049,0.0-6.106-0.106,0.0,115.0,,,,,,,[],,,,,,56.4,0.0,u,0.0,True,586.3999999761581,35.0,60.0,40.0,False,,205.4235014451317,[],"[680, 384]",ColorTask,53.0,107.0,,,HRV,HRV_0215,2022-11-30 19:07:10
,wl-rdm,115,313865,0.0-6.107-0.107,0.0,116.0,,,,,,,[],,,,,,62.5,1.0,i,1.0,True,1373.2999999523163,83.0,60.0,40.0,False,,363.8953715747629,[],"[680, 384]",ColorTask,54.0,108.0,,,HRV,HRV_0215,2022-11-30 19:07:10
,wl-html-keyboard-response,116,325506,0.0-7.0-0.0,1.0,117.0,,,,,,,,9629.200000047684,1.0,0,,,,,,,,,,,,,,,,,,,,,,HRV,HRV_0215,2022-11-30 19:07:10
,wl-rdm,117,327415,0.0-8.0-0.0,1.0,118.0,,,,,,,[],,,,,,62.5,1.0,i,1.0,True,571.1000001430511,35.0,60.0,40.0,False,,272.830571741066,[],"[680, 384]",ColorTask,55.0,1.0,,,HRV,HRV_0215,2022-11-30 19:07:10
,wl-rdm,118,329582,0.0-8.1-0.1,1.0,119.0,,,,,,,[],,,,,,73.6,0.0,u,0.0,True,794.0,48.0,60.0,40.0,False,,305.17145506069653,[],"[680, 384]",ColorTask,56.0,2.0,,,HRV,HRV_0215,2022-11-30 19:07:10
,wl-rdm,119,331681,0.0-8.2-0.2,1.0,120.0,,,,,,,[],,,,,,56.4,0.0,i,1.0,False,735.7000000476837,45.0,60.0,40.0,False,,277.5057986523522,[],"[680, 384]",ColorTask,55.0,3.0,,,HRV,HRV_0215,2022-11-30 19:07:10
,wl-rdm,120,333565,0.0-8.3-0.3,1.0,121.0,,,,,,,[],,,,,,73.6,1.0,i,1.0,True,572.7000000476837,35.0,60.0,40.0,False,,221.42718146409308,[],"[680, 384]",ColorTask,56.0,4.0,,,HRV,HRV_0215,2022-11-30 19:07:10
,wl-rdm,121,335765,0.0-8.4-0.4,1.0,122.0,,,,,,,[],,,,,,87.9,0.0,u,0.0,True,802.3000000715256,49.0,60.0,40.0,False,,314.61096318450404,[],"[680, 384]",ColorTask,57.0,5.0,,,HRV,HRV_0215,2022-11-30 19:07:10
,wl-rdm,122,337865,0.0-8.5-0.5,1.0,123.0,,,,,,,[],,,,,,73.6,1.0,i,1.0,True,639.1000000238419,39.0,60.0,40.0,False,,393.8220036718609,[],"[680, 384]",ColorTask,58.0,6.0,,,HRV,HRV_0215,2022-11-30 19:07:10
,wl-rdm,123,339965,0.0-8.6-0.6,1.0,124.0,,,,,,,[],,,,,,53.2,0.0,i,1.0,False,802.0,49.0,60.0,40.0,False,,211.91266729932937,[],"[680, 384]",ColorTask,57.0,7.0,,,HRV,HRV_0215,2022-11-30 19:07:10
,wl-rdm,124,342131,0.0-8.7-0.7,1.0,125.0,,,,,,,[],,,,,,53.2,1.0,i,1.0,True,702.9000000953674,43.0,60.0,40.0,False,,367.9463961235374,[],"[680, 384]",ColorTask,58.0,8.0,,,HRV,HRV_0215,2022-11-30 19:07:10
,wl-rdm,125,344348,0.0-8.8-0.8,1.0,126.0,,,,,,,[],,,,,,53.2,1.0,i,1.0,True,755.5000001192093,46.0,60.0,40.0,False,,368.83823466665456,[],"[680, 384]",ColorTask,59.0,9.0,,,HRV,HRV_0215,2022-11-30 19:07:10
,wl-rdm,126,346264,0.0-8.9-0.9,1.0,127.0,,,,,,,[],,,,,,62.5,0.0,i,1.0,False,624.1000000238419,38.0,60.0,40.0,False,,209.1887978912072,[],"[680, 384]",ColorTask,58.0,10.0,,,HRV,HRV_0215,2022-11-30 19:07:10
,wl-rdm,127,348214,0.0-8.10-0.10,1.0,128.0,,,,,,,[],,,,,,56.4,1.0,i,1.0,True,595.6999999284744,36.0,60.0,40.0,False,,274.48248735317736,[],"[680, 384]",ColorTask,59.0,11.0,,,HRV,HRV_0215,2022-11-30 19:07:10
,wl-rdm,128,350264,0.0-8.11-0.11,1.0,129.0,,,,,,,[],,,,,,56.4,1.0,i,1.0,True,706.3000000715256,43.0,60.0,40.0,False,,265.7828295660837,[],"[680, 384]",ColorTask,60.0,12.0,,,HRV,HRV_0215,2022-11-30 19:07:10
,wl-rdm,129,352031,0.0-8.12-0.12,1.0,130.0,,,,,,,[],,,,,,56.4,0.0,i,1.0,False,476.2000000476837,29.0,60.0,40.0,False,,206.53649467262443,[],"[680, 384]",ColorTask,59.0,13.0,,,HRV,HRV_0215,2022-11-30 19:07:10
,wl-rdm,130,354330,0.0-8.13-0.13,1.0,131.0,,,,,,,[],,,,,,53.2,1.0,i,1.0,True,921.7999999523163,56.0,60.0,40.0,False,,297.4391133455658,[],"[680, 384]",ColorTask,60.0,14.0,,,HRV,HRV_0215,2022-11-30 19:07:10
,wl-rdm,131,356248,0.0-8.14-0.14,1.0,132.0,,,,,,,[],,,,,,56.4,0.0,i,1.0,False,469.0,29.0,60.0,40.0,False,,358.7543600632564,[],"[680, 384]",ColorTask,59.0,15.0,,,HRV,HRV_0215,2022-11-30 19:07:10
,wl-rdm,132,358181,0.0-8.15-0.15,1.0,133.0,,,,,,,[],,,,,,62.5,1.0,i,1.0,True,633.8000000715256,38.0,60.0,40.0,False,,232.33967554903728,[],"[680, 384]",ColorTask,60.0,16.0,,,HRV,HRV_0215,2022-11-30 19:07:10
,wl-rdm,133,360181,0.0-8.16-0.16,1.0,134.0,,,,,,,[],,,,,,50.0,0.0,i,1.0,False,591.8000000715256,36.0,60.0,40.0,False,,339.70295909271374,[],"[680, 384]",ColorTask,59.0,17.0,,,HRV,HRV_0215,2022-11-30 19:07:10
,wl-rdm,134,362164,0.0-8.17-0.17,1.0,135.0,,,,,,,[],,,,,,62.5,0.0,i,1.0,False,556.0,34.0,60.0,40.0,False,,334.6601001340981,[],"[680, 384]",ColorTask,58.0,18.0,,,HRV,HRV_0215,2022-11-30 19:07:10
,wl-rdm,135,364314,0.0-8.18-0.18,1.0,136.0,,,,,,,[],,,,,,56.4,0.0,u,0.0,True,710.8000000715256,43.0,60.0,40.0,False,,363.38540485577846,[],"[680, 384]",ColorTask,59.0,19.0,,,HRV,HRV_0215,2022-11-30 19:07:10
,wl-rdm,136,366398,0.0-8.19-0.19,1.0,137.0,,,,,,,[],,,,,,87.9,1.0,i,1.0,True,788.2999999523163,48.0,60.0,40.0,False,,202.9986471302589,[],"[680, 384]",ColorTask,60.0,20.0,,,HRV,HRV_0215,2022-11-30 19:07:10
,wl-rdm,137,368448,0.0-8.20-0.20,1.0,138.0,,,,,,,[],,,,,,87.9,0.0,u,0.0,True,664.3999999761581,40.0,60.0,40.0,False,,306.32862239551116,[],"[680, 384]",ColorTask,61.0,21.0,,,HRV,HRV_0215,2022-11-30 19:07:10
,wl-rdm,138,370431,0.0-8.21-0.21,1.0,139.0,,,,,,,[],,,,,,73.6,0.0,u,0.0,True,664.0999999046326,40.0,60.0,40.0,False,,235.37419290106897,[],"[680, 384]",ColorTask,62.0,22.0,,,HRV,HRV_0215,2022-11-30 19:07:10
,wl-rdm,139,372647,0.0-8.22-0.22,1.0,140.0,,,,,,,[],,,,,,53.2,0.0,u,0.0,True,812.5,49.0,60.0,40.0,False,,325.6738004550702,[],"[680, 384]",ColorTask,63.0,23.0,,,HRV,HRV_0215,2022-11-30 19:07:10
,wl-rdm,140,375547,0.0-8.23-0.23,1.0,141.0,,,,,,,[],,,,,,87.9,0.0,u,0.0,True,1469.2000000476837,89.0,60.0,40.0,False,,336.89462427318654,[],"[680, 384]",ColorTask,64.0,24.0,,,HRV,HRV_0215,2022-11-30 19:07:10
,wl-rdm,141,378297,0.0-8.24-0.24,1.0,142.0,,,,,,,[],,,,,,62.5,0.0,u,0.0,True,1289.0,78.0,60.0,40.0,False,,375.31936345974384,[],"[680, 384]",ColorTask,65.0,25.0,,,HRV,HRV_0215,2022-11-30 19:07:10
,wl-rdm,142,380630,0.0-8.25-0.25,1.0,143.0,,,,,,,[],,,,,,53.2,1.0,u,0.0,False,880.1999998092651,53.0,60.0,40.0,False,,378.3362850146764,[],"[680, 384]",ColorTask,64.0,26.0,,,HRV,HRV_0215,2022-11-30 19:07:10
,wl-rdm,143,382947,0.0-8.26-0.26,1.0,144.0,,,,,,,[],,,,,,62.5,0.0,i,1.0,False,975.8999999761581,59.0,60.0,40.0,False,,264.184169806858,[],"[680, 384]",ColorTask,63.0,27.0,,,HRV,HRV_0215,2022-11-30 19:07:10
,wl-rdm,144,385031,0.0-8.27-0.27,1.0,145.0,,,,,,,[],,,,,,73.6,1.0,i,1.0,True,747.7000000476837,45.0,60.0,40.0,False,,277.6589632733427,[],"[680, 384]",ColorTask,64.0,28.0,,,HRV,HRV_0215,2022-11-30 19:07:10
,wl-rdm,145,387613,0.0-8.28-0.28,1.0,146.0,,,,,,,[],,,,,,50.0,1.0,i,1.0,True,1204.3000000715256,73.0,60.0,40.0,False,,290.23839401414216,[],"[680, 384]",ColorTask,65.0,29.0,,,HRV,HRV_0215,2022-11-30 19:07:10
,wl-rdm,146,389613,0.0-8.29-0.29,1.0,147.0,,,,,,,[],,,,,,87.9,1.0,i,1.0,True,669.1000000238419,41.0,60.0,40.0,False,,237.2200177546452,[],"[680, 384]",ColorTask,66.0,30.0,,,HRV,HRV_0215,2022-11-30 19:07:10
,wl-rdm,147,391597,0.0-8.30-0.30,1.0,148.0,,,,,,,[],,,,,,73.6,1.0,i,1.0,True,599.2999999523163,36.0,60.0,40.0,False,,303.73792457841665,[],"[680, 384]",ColorTask,67.0,31.0,,,HRV,HRV_0215,2022-11-30 19:07:10
,wl-rdm,148,394163,0.0-8.31-0.31,1.0,149.0,,,,,,,[],,,,,,87.9,1.0,i,1.0,True,1206.7999999523163,73.0,60.0,40.0,False,,279.08806048114957,[],"[680, 384]",ColorTask,68.0,32.0,,,HRV,HRV_0215,2022-11-30 19:07:10
,wl-rdm,149,396530,0.0-8.32-0.32,1.0,150.0,,,,,,,[],,,,,,87.9,1.0,i,1.0,True,1056.0,64.0,60.0,40.0,False,,232.15270183233338,[],"[680, 384]",ColorTask,69.0,33.0,,,HRV,HRV_0215,2022-11-30 19:07:10
,wl-rdm,150,399996,0.0-8.33-0.33,1.0,151.0,,,,,,,[],,,,,,87.9,1.0,i,1.0,True,2142.5,129.0,60.0,40.0,False,,246.70275731279503,[],"[680, 384]",ColorTask,70.0,34.0,,,HRV,HRV_0215,2022-11-30 19:07:10
,wl-rdm,151,403046,0.0-8.34-0.34,1.0,152.0,,,,,,,[],,,,,,50.0,1.0,i,1.0,True,1752.8999999761581,106.0,60.0,40.0,False,,228.88866162384286,[],"[680, 384]",ColorTask,71.0,35.0,,,HRV,HRV_0215,2022-11-30 19:07:10
,wl-rdm,152,405563,0.0-8.35-0.35,1.0,153.0,,,,,,,[],,,,,,87.9,1.0,i,1.0,True,1156.1999999284744,70.0,60.0,40.0,False,,268.0565846977403,[],"[680, 384]",ColorTask,72.0,36.0,,,HRV,HRV_0215,2022-11-30 19:07:10
,wl-rdm,153,408863,0.0-8.36-0.36,1.0,154.0,,,,,,,[],,,,,,50.0,0.0,i,1.0,False,1935.2999999523163,117.0,60.0,40.0,False,,286.9700944014694,[],"[680, 384]",ColorTask,71.0,37.0,,,HRV,HRV_0215,2022-11-30 19:07:10
,wl-rdm,154,411263,0.0-8.37-0.37,1.0,155.0,,,,,,,[],,,,,,53.2,0.0,u,0.0,True,1035.5999999046326,63.0,60.0,40.0,False,,287.8477488296884,[],"[680, 384]",ColorTask,72.0,38.0,,,HRV,HRV_0215,2022-11-30 19:07:10
,wl-rdm,155,415162,0.0-8.38-0.38,1.0,156.0,,,,,,,[],,,,,,56.4,0.0,i,1.0,False,2566.2000000476837,154.0,60.0,40.0,False,,257.39883952345053,[],"[680, 384]",ColorTask,71.0,39.0,,,HRV,HRV_0215,2022-11-30 19:07:10
,wl-rdm,156,417862,0.0-8.39-0.39,1.0,157.0,,,,,,,[],,,,,,62.5,1.0,u,0.0,False,1380.5999999046326,83.0,60.0,40.0,False,,261.12241259098926,[],"[680, 384]",ColorTask,70.0,40.0,,,HRV,HRV_0215,2022-11-30 19:07:10
,wl-rdm,157,420445,0.0-8.40-0.40,1.0,158.0,,,,,,,[],,,,,,56.4,1.0,i,1.0,True,1281.3000000715256,77.0,60.0,40.0,False,,219.3980561102781,[],"[680, 384]",ColorTask,71.0,41.0,,,HRV,HRV_0215,2022-11-30 19:07:10
,wl-rdm,158,422828,0.0-8.41-0.41,1.0,159.0,,,,,,,[],,,,,,62.5,1.0,i,1.0,True,1057.7000000476837,64.0,60.0,40.0,False,,242.79627800885027,[],"[680, 384]",ColorTask,72.0,42.0,,,HRV,HRV_0215,2022-11-30 19:07:10
,wl-rdm,159,426445,0.0-8.42-0.42,1.0,160.0,,,,,,,[],,,,,,87.9,0.0,i,1.0,False,2197.100000023842,132.0,60.0,40.0,False,,338.3889031903052,[],"[680, 384]",ColorTask,71.0,43.0,,,HRV,HRV_0215,2022-11-30 19:07:10
,wl-rdm,160,429244,0.0-8.43-0.43,1.0,161.0,,,,,,,[],,,,,,56.4,1.0,u,0.0,False,1402.4000000953674,85.0,60.0,40.0,False,,326.72485254236665,[],"[680, 384]",ColorTask,70.0,44.0,,,HRV,HRV_0215,2022-11-30 19:07:10
,wl-rdm,161,431661,0.0-8.44-0.44,1.0,162.0,,,,,,,[],,,,,,87.9,0.0,u,0.0,True,1012.2999999523163,61.0,60.0,40.0,False,,332.64728537967267,[],"[680, 384]",ColorTask,71.0,45.0,,,HRV,HRV_0215,2022-11-30 19:07:10
,wl-rdm,162,434144,0.0-8.45-0.45,1.0,163.0,,,,,,,[],,,,,,62.5,1.0,u,0.0,False,1173.7000000476837,71.0,60.0,40.0,False,,228.77662335289386,[],"[680, 384]",ColorTask,70.0,46.0,,,HRV,HRV_0215,2022-11-30 19:07:10
,wl-rdm,163,437844,0.0-8.46-0.46,1.0,164.0,,,,,,,[],,,,,,50.0,0.0,u,0.0,True,2353.699999809265,142.0,60.0,40.0,False,,269.0981165968312,[],"[680, 384]",ColorTask,71.0,47.0,,,HRV,HRV_0215,2022-11-30 19:07:10
,wl-rdm,164,440094,0.0-8.47-0.47,1.0,165.0,,,,,,,[],,,,,,53.2,1.0,u,0.0,False,826.799999833107,50.0,60.0,40.0,False,,362.91659721419035,[],"[680, 384]",ColorTask,70.0,48.0,,,HRV,HRV_0215,2022-11-30 19:07:10
,wl-rdm,165,443444,0.0-8.48-0.48,1.0,166.0,,,,,,,[],,,,,,50.0,1.0,i,1.0,True,2062.7000000476837,124.0,60.0,40.0,False,,207.79893089070254,[],"[680, 384]",ColorTask,71.0,49.0,,,HRV,HRV_0215,2022-11-30 19:07:10
,wl-rdm,166,445677,0.0-8.49-0.49,1.0,167.0,,,,,,,[],,,,,,56.4,1.0,i,1.0,True,885.3999999761581,54.0,60.0,40.0,False,,279.3043592560768,[],"[680, 384]",ColorTask,72.0,50.0,,,HRV,HRV_0215,2022-11-30 19:07:10
,wl-rdm,167,448794,0.0-8.50-0.50,1.0,168.0,,,,,,,[],,,,,,50.0,0.0,i,1.0,False,1639.7999999523163,99.0,60.0,40.0,False,,397.32215592515064,[],"[680, 384]",ColorTask,71.0,51.0,,,HRV,HRV_0215,2022-11-30 19:07:10
,wl-rdm,168,451494,0.0-8.51-0.51,1.0,169.0,,,,,,,[],,,,,,87.9,0.0,u,0.0,True,1413.0,85.0,60.0,40.0,False,,225.5943130155116,[],"[680, 384]",ColorTask,72.0,52.0,,,HRV,HRV_0215,2022-11-30 19:07:10
,wl-rdm,169,454244,0.0-8.52-0.52,1.0,170.0,,,,,,,[],,,,,,50.0,0.0,i,1.0,False,1305.1000000238419,79.0,60.0,40.0,False,,359.2639137878371,[],"[680, 384]",ColorTask,71.0,53.0,,,HRV,HRV_0215,2022-11-30 19:07:10
,wl-rdm,170,458510,0.0-8.53-0.53,1.0,171.0,,,,,,,[],,,,,,56.4,0.0,u,0.0,True,2838.6999999284744,171.0,60.0,40.0,False,,337.2096822757757,[],"[680, 384]",ColorTask,72.0,54.0,,,HRV,HRV_0215,2022-11-30 19:07:10
,wl-rdm,171,461210,0.0-8.54-0.54,1.0,172.0,,,,,,,[],,,,,,53.2,0.0,u,0.0,True,1366.1999999284744,82.0,60.0,40.0,False,,251.11794958922513,[],"[680, 384]",ColorTask,73.0,55.0,,,HRV,HRV_0215,2022-11-30 19:07:10
,wl-rdm,172,464460,0.0-8.55-0.55,1.0,173.0,,,,,,,[],,,,,,50.0,0.0,i,1.0,False,1893.5999999046326,114.0,60.0,40.0,False,,272.9423574010423,[],"[680, 384]",ColorTask,72.0,56.0,,,HRV,HRV_0215,2022-11-30 19:07:10
,wl-rdm,173,467043,0.0-8.56-0.56,1.0,174.0,,,,,,,[],,,,,,62.5,1.0,u,0.0,False,1118.5999999046326,68.0,60.0,40.0,False,,388.6819588389269,[],"[680, 384]",ColorTask,71.0,57.0,,,HRV,HRV_0215,2022-11-30 19:07:10
,wl-rdm,174,469126,0.0-8.57-0.57,1.0,175.0,,,,,,,[],,,,,,87.9,1.0,i,1.0,True,765.8000000715256,46.0,60.0,40.0,False,,247.28714830890877,[],"[680, 384]",ColorTask,72.0,58.0,,,HRV,HRV_0215,2022-11-30 19:07:10
,wl-rdm,175,471976,0.0-8.58-0.58,1.0,176.0,,,,,,,[],,,,,,53.2,1.0,i,1.0,True,1519.3999999761581,92.0,60.0,40.0,False,,234.7619651165092,[],"[680, 384]",ColorTask,73.0,59.0,,,HRV,HRV_0215,2022-11-30 19:07:10
,wl-rdm,176,475109,0.0-8.59-0.59,1.0,177.0,,,,,,,[],,,,,,53.2,0.0,i,1.0,False,1825.3000000715256,110.0,60.0,40.0,False,,232.77084985001775,[],"[680, 384]",ColorTask,72.0,60.0,,,HRV,HRV_0215,2022-11-30 19:07:10
,wl-rdm,177,477343,0.0-8.60-0.60,1.0,178.0,,,,,,,[],,,,,,62.5,1.0,i,1.0,True,932.0,56.0,60.0,40.0,False,,227.84508930870308,[],"[680, 384]",ColorTask,73.0,61.0,,,HRV,HRV_0215,2022-11-30 19:07:10
,wl-rdm,178,481294,0.0-8.61-0.61,1.0,179.0,,,,,,,[],,,,,,87.9,0.0,u,0.0,True,2589.7999999523163,156.0,60.0,40.0,False,,289.9847416850024,[],"[680, 384]",ColorTask,74.0,62.0,,,HRV,HRV_0215,2022-11-30 19:07:10
,wl-rdm,179,484026,0.0-8.62-0.62,1.0,180.0,,,,,,,[],,,,,,73.6,1.0,i,1.0,True,1452.5,88.0,60.0,40.0,False,,206.4014814453109,[],"[680, 384]",ColorTask,75.0,63.0,,,HRV,HRV_0215,2022-11-30 19:07:10
,wl-rdm,180,486659,0.0-8.63-0.63,1.0,181.0,,,,,,,[],,,,,,56.4,1.0,i,1.0,True,1336.5999999046326,81.0,60.0,40.0,False,,215.20033527077348,[],"[680, 384]",ColorTask,76.0,64.0,,,HRV,HRV_0215,2022-11-30 19:07:10
,wl-rdm,181,488559,0.0-8.64-0.64,1.0,182.0,,,,,,,[],,,,,,87.9,1.0,i,1.0,True,516.2000000476837,31.0,60.0,40.0,False,,310.54880318467303,[],"[680, 384]",ColorTask,77.0,65.0,,,HRV,HRV_0215,2022-11-30 19:07:10
,wl-rdm,182,490859,0.0-8.65-0.65,1.0,183.0,,,,,,,[],,,,,,50.0,1.0,i,1.0,True,993.6999999284744,60.0,60.0,40.0,False,,217.46307910451807,[],"[680, 384]",ColorTask,78.0,66.0,,,HRV,HRV_0215,2022-11-30 19:07:10
,wl-rdm,183,492943,0.0-8.66-0.66,1.0,184.0,,,,,,,[],,,,,,53.2,1.0,i,1.0,True,757.2999999523163,46.0,60.0,40.0,False,,247.04904571724296,[],"[680, 384]",ColorTask,79.0,67.0,,,HRV,HRV_0215,2022-11-30 19:07:10
,wl-rdm,184,495392,0.0-8.67-0.67,1.0,185.0,,,,,,,[],,,,,,73.6,0.0,i,1.0,False,1091.4000000953674,66.0,60.0,40.0,False,,269.16118738583464,[],"[680, 384]",ColorTask,78.0,68.0,,,HRV,HRV_0215,2022-11-30 19:07:10
,wl-rdm,185,498142,0.0-8.68-0.68,1.0,186.0,,,,,,,[],,,,,,73.6,0.0,u,0.0,True,1312.0,79.0,60.0,40.0,False,,366.1536242023231,[],"[680, 384]",ColorTask,79.0,69.0,,,HRV,HRV_0215,2022-11-30 19:07:10
,wl-rdm,186,502426,0.0-8.69-0.69,1.0,187.0,,,,,,,[],,,,,,53.2,1.0,u,0.0,False,3010.600000023842,179.0,60.0,40.0,False,,209.76670518208317,[],"[680, 384]",ColorTask,78.0,70.0,,,HRV,HRV_0215,2022-11-30 19:07:10
,wl-rdm,187,504325,0.0-8.70-0.70,1.0,188.0,,,,,,,[],,,,,,50.0,0.0,i,1.0,False,572.3999999761581,35.0,60.0,40.0,False,,241.77010715155023,[],"[680, 384]",ColorTask,77.0,71.0,,,HRV,HRV_0215,2022-11-30 19:07:10
,wl-rdm,188,507459,0.0-8.71-0.71,1.0,189.0,,,,,,,[],,,,,,73.6,1.0,i,1.0,True,1782.6999999284744,107.0,60.0,40.0,False,,278.95865999969715,[],"[680, 384]",ColorTask,78.0,72.0,,,HRV,HRV_0215,2022-11-30 19:07:10
,wl-rdm,189,509542,0.0-8.72-0.72,1.0,190.0,,,,,,,[],,,,,,62.5,0.0,i,1.0,False,685.5000001192093,42.0,60.0,40.0,False,,315.8168997262348,[],"[680, 384]",ColorTask,77.0,73.0,,,HRV,HRV_0215,2022-11-30 19:07:10
,wl-rdm,190,511825,0.0-8.73-0.73,1.0,191.0,,,,,,,[],,,,,,73.6,0.0,u,0.0,True,899.3000000715256,54.0,60.0,40.0,False,,313.54102417179854,[],"[680, 384]",ColorTask,78.0,74.0,,,HRV,HRV_0215,2022-11-30 19:07:10
,wl-rdm,191,515842,0.0-8.74-0.74,1.0,192.0,,,,,,,[],,,,,,53.2,0.0,i,1.0,False,2651.9000000953674,160.0,60.0,40.0,False,,266.7238698380773,[],"[680, 384]",ColorTask,77.0,75.0,,,HRV,HRV_0215,2022-11-30 19:07:10
,wl-rdm,192,518792,0.0-8.75-0.75,1.0,193.0,,,,,,,[],,,,,,56.4,1.0,i,1.0,True,1560.8000000715256,94.0,60.0,40.0,False,,324.3953895960625,[],"[680, 384]",ColorTask,78.0,76.0,,,HRV,HRV_0215,2022-11-30 19:07:10
,wl-rdm,193,522875,0.0-8.76-0.76,1.0,194.0,,,,,,,[],,,,,,62.5,1.0,i,1.0,True,2758.7999999523163,166.0,60.0,40.0,False,,256.5878375155794,[],"[680, 384]",ColorTask,79.0,77.0,,,HRV,HRV_0215,2022-11-30 19:07:10
,wl-rdm,194,526741,0.0-8.77-0.77,1.0,195.0,,,,,,,[],,,,,,53.2,1.0,i,1.0,True,2501.7999999523163,151.0,60.0,40.0,False,,268.24594404451506,[],"[680, 384]",ColorTask,80.0,78.0,,,HRV,HRV_0215,2022-11-30 19:07:10
,wl-rdm,195,530258,0.0-8.78-0.78,1.0,196.0,,,,,,,[],,,,,,50.0,0.0,u,0.0,True,2203.100000023842,133.0,60.0,40.0,False,,230.4098793001598,[],"[680, 384]",ColorTask,81.0,79.0,,,HRV,HRV_0215,2022-11-30 19:07:10
,wl-rdm,196,534174,0.0-8.79-0.79,1.0,197.0,,,,,,,[],,,,,,73.6,0.0,u,0.0,True,2541.0,153.0,60.0,40.0,False,,296.66109126381957,[],"[680, 384]",ColorTask,82.0,80.0,,,HRV,HRV_0215,2022-11-30 19:07:10
,wl-rdm,197,538025,0.0-8.80-0.80,1.0,198.0,,,,,,,[],,,,,,73.6,0.0,u,0.0,True,2402.9000000953674,145.0,60.0,40.0,False,,362.5743636893608,[],"[680, 384]",ColorTask,83.0,81.0,,,HRV,HRV_0215,2022-11-30 19:07:10
,wl-rdm,198,540258,0.0-8.81-0.81,1.0,199.0,,,,,,,[],,,,,,62.5,0.0,u,0.0,True,794.3000000715256,48.0,60.0,40.0,False,,378.9241776202384,[],"[680, 384]",ColorTask,84.0,82.0,,,HRV,HRV_0215,2022-11-30 19:07:10
,wl-rdm,199,542074,0.0-8.82-0.82,1.0,200.0,,,,,,,[],,,,,,53.2,0.0,u,0.0,True,530.8999998569489,32.0,60.0,40.0,False,,225.28970706001718,[],"[680, 384]",ColorTask,85.0,83.0,,,HRV,HRV_0215,2022-11-30 19:07:10
,wl-rdm,200,544391,0.0-8.83-0.83,1.0,201.0,,,,,,,[],,,,,,50.0,1.0,u,0.0,False,929.8999999761581,56.0,60.0,40.0,False,,322.09987400769603,[],"[680, 384]",ColorTask,84.0,84.0,,,HRV,HRV_0215,2022-11-30 19:07:10
,wl-rdm,201,546424,0.0-8.84-0.84,1.0,202.0,,,,,,,[],,,,,,87.9,0.0,u,0.0,True,713.6000000238419,43.0,60.0,40.0,False,,259.264242688257,[],"[680, 384]",ColorTask,85.0,85.0,,,HRV,HRV_0215,2022-11-30 19:07:10
,wl-rdm,202,548407,0.0-8.85-0.85,1.0,203.0,,,,,,,[],,,,,,62.5,0.0,u,0.0,True,680.6000000238419,41.0,60.0,40.0,False,,225.88533499416465,[],"[680, 384]",ColorTask,86.0,86.0,,,HRV,HRV_0215,2022-11-30 19:07:10
,wl-rdm,203,550291,0.0-8.86-0.86,1.0,204.0,,,,,,,[],,,,,,53.2,0.0,u,0.0,True,475.7000000476837,29.0,60.0,40.0,False,,343.6426383588057,[],"[680, 384]",ColorTask,87.0,87.0,,,HRV,HRV_0215,2022-11-30 19:07:10
,wl-rdm,204,552424,0.0-8.87-0.87,1.0,205.0,,,,,,,[],,,,,,62.5,0.0,u,0.0,True,826.1999999284744,50.0,60.0,40.0,False,,232.9987032979145,[],"[680, 384]",ColorTask,88.0,88.0,,,HRV,HRV_0215,2022-11-30 19:07:10
,wl-rdm,205,555357,0.0-8.88-0.88,1.0,206.0,,,,,,,[],,,,,,56.4,1.0,u,0.0,False,1536.2999999523163,93.0,60.0,40.0,False,,306.2891762608643,[],"[680, 384]",ColorTask,87.0,89.0,,,HRV,HRV_0215,2022-11-30 19:07:10
,wl-rdm,206,557624,0.0-8.89-0.89,1.0,207.0,,,,,,,[],,,,,,56.4,0.0,u,0.0,True,886.5,54.0,60.0,40.0,False,,299.29949763802904,[],"[680, 384]",ColorTask,88.0,90.0,,,HRV,HRV_0215,2022-11-30 19:07:10
,wl-rdm,207,559540,0.0-8.90-0.90,1.0,208.0,,,,,,,[],,,,,,56.4,0.0,u,0.0,True,607.7999999523163,37.0,60.0,40.0,False,,228.10424908695907,[],"[680, 384]",ColorTask,89.0,91.0,,,HRV,HRV_0215,2022-11-30 19:07:10
,wl-rdm,208,561574,0.0-8.91-0.91,1.0,209.0,,,,,,,[],,,,,,50.0,1.0,u,0.0,False,569.5,35.0,60.0,40.0,False,,375.8980660956055,[],"[680, 384]",ColorTask,88.0,92.0,,,HRV,HRV_0215,2022-11-30 19:07:10
,wl-rdm,209,563740,0.0-8.92-0.92,1.0,210.0,,,,,,,[],,,,,,73.6,0.0,u,0.0,True,813.7999999523163,49.0,60.0,40.0,False,,276.5685459242446,[],"[680, 384]",ColorTask,89.0,93.0,,,HRV,HRV_0215,2022-11-30 19:07:10
,wl-rdm,210,565823,0.0-8.93-0.93,1.0,211.0,,,,,,,[],,,,,,50.0,1.0,u,0.0,False,621.2999999523163,38.0,60.0,40.0,False,,374.5863213820801,[],"[680, 384]",ColorTask,88.0,94.0,,,HRV,HRV_0215,2022-11-30 19:07:10
,wl-rdm,211,567890,0.0-8.94-0.94,1.0,212.0,,,,,,,[],,,,,,50.0,1.0,u,0.0,False,773.799999833107,47.0,60.0,40.0,False,,212.56951621744332,[],"[680, 384]",ColorTask,87.0,95.0,,,HRV,HRV_0215,2022-11-30 19:07:10
,wl-rdm,212,570590,0.0-8.95-0.95,1.0,213.0,,,,,,,[],,,,,,50.0,1.0,i,1.0,True,1288.4000000953674,78.0,60.0,40.0,False,,317.03377463389023,[],"[680, 384]",ColorTask,88.0,96.0,,,HRV,HRV_0215,2022-11-30 19:07:10
,wl-rdm,213,572406,0.0-8.96-0.96,1.0,214.0,,,,,,,[],,,,,,56.4,0.0,i,1.0,False,522.8999999761581,32.0,60.0,40.0,False,,219.37387928316147,[],"[680, 384]",ColorTask,87.0,97.0,,,HRV,HRV_0215,2022-11-30 19:07:10
,wl-rdm,214,574290,0.0-8.97-0.97,1.0,215.0,,,,,,,[],,,,,,87.9,0.0,u,0.0,True,569.3000000715256,35.0,60.0,40.0,False,,230.06554017503228,[],"[680, 384]",ColorTask,88.0,98.0,,,HRV,HRV_0215,2022-11-30 19:07:10
,wl-rdm,215,576306,0.0-8.98-0.98,1.0,216.0,,,,,,,[],,,,,,53.2,0.0,u,0.0,True,694.0,42.0,60.0,40.0,False,,262.88057804140027,[],"[680, 384]",ColorTask,89.0,99.0,,,HRV,HRV_0215,2022-11-30 19:07:10
,wl-rdm,216,578373,0.0-8.99-0.99,1.0,217.0,,,,,,,[],,,,,,73.6,0.0,u,0.0,True,588.6000000238419,36.0,60.0,40.0,False,,385.0099513436314,[],"[680, 384]",ColorTask,90.0,100.0,,,HRV,HRV_0215,2022-11-30 19:07:10
,wl-rdm,217,580806,0.0-8.100-0.100,1.0,218.0,,,,,,,[],,,,,,73.6,1.0,i,1.0,True,990.6999999284744,60.0,60.0,40.0,False,,360.85867572500024,[],"[680, 384]",ColorTask,91.0,101.0,,,HRV,HRV_0215,2022-11-30 19:07:10
,wl-rdm,218,582989,0.0-8.101-0.101,1.0,219.0,,,,,,,[],,,,,,73.6,1.0,i,1.0,True,837.8000000715256,51.0,60.0,40.0,False,,258.2974140662,[],"[680, 384]",ColorTask,92.0,102.0,,,HRV,HRV_0215,2022-11-30 19:07:10
,wl-rdm,219,585040,0.0-8.102-0.102,1.0,220.0,,,,,,,[],,,,,,62.5,1.0,i,1.0,True,686.1000000238419,42.0,60.0,40.0,False,,293.9976559713382,[],"[680, 384]",ColorTask,93.0,103.0,,,HRV,HRV_0215,2022-11-30 19:07:10
,wl-rdm,220,587573,0.0-8.103-0.103,1.0,221.0,,,,,,,[],,,,,,50.0,0.0,i,1.0,False,1218.4000000953674,74.0,60.0,40.0,False,,220.3561390153232,[],"[680, 384]",ColorTask,92.0,104.0,,,HRV,HRV_0215,2022-11-30 19:07:10
,wl-rdm,221,590273,0.0-8.104-0.104,1.0,222.0,,,,,,,[],,,,,,62.5,0.0,u,0.0,True,1254.2000000476837,76.0,60.0,40.0,False,,312.0978334600339,[],"[680, 384]",ColorTask,93.0,105.0,,,HRV,HRV_0215,2022-11-30 19:07:10
,wl-rdm,222,592706,0.0-8.105-0.105,1.0,223.0,,,,,,,[],,,,,,56.4,1.0,u,0.0,False,1143.8000000715256,69.0,60.0,40.0,False,,227.91339556940892,[],"[680, 384]",ColorTask,92.0,106.0,,,HRV,HRV_0215,2022-11-30 19:07:10
,wl-rdm,223,595589,0.0-8.106-0.106,1.0,224.0,,,,,,,[],,,,,,73.6,1.0,i,1.0,True,1380.299999833107,83.0,60.0,40.0,False,,349.87810938532687,[],"[680, 384]",ColorTask,93.0,107.0,,,HRV,HRV_0215,2022-11-30 19:07:10
,wl-rdm,224,598505,0.0-8.107-0.107,1.0,225.0,,,,,,,[],,,,,,87.9,1.0,i,1.0,True,1518.5999999046326,92.0,60.0,40.0,False,,301.6016727681111,[],"[680, 384]",ColorTask,94.0,108.0,,,HRV,HRV_0215,2022-11-30 19:07:10
,wl-html-button-response,225,605044,0.0-9.0-0.0,,,,,,,,,,6533.799999952316,,0,,,,,,,,,,,,,,,,,,,,<h3>End of this session. Thank you!</h3><br>,['Close window'],HRV,HRV_0215,2022-11-30 19:07:10
