trialN,stimuli,trialStartTime,trialStartTime_UNIX,stimulus1,stimulus2,stimulus1Bid,stimulus2Bid,delta,selected,rt,rt_UNIX,rt_perfnow,receivedResponse,rsp,trialEndTime,trialDuration,trialEndTime_UNIX,trialDuration_UNIX,trialEvents,exp,subjectId,date
0,"[{'imgObject': {}, 'id': 'seaweed', 'src': '/static/foodstim60/seaweed.jpg', 'key': 'u', 'origWidth': 410, 'origHeight': 410, 'width': 410, 'height': 410, 'widthPercent': 0.45, 'rescaleHeight': False, 'trialN': 0, 'loaded': True, 'loadedTime': 2924.7999999523163, 'positionName': 'LEFT', 'positionCoords': [242.8, 179], 'bid': 0}, {'imgObject': {}, 'id': 'cherries', 'src': '/static/foodstim60/cherries.jpg', 'key': 'i', 'origWidth': 410, 'origHeight': 411, 'width': 410, 'height': 411, 'widthPercent': 0.45, 'rescaleHeight': False, 'trialN': 0, 'loaded': True, 'loadedTime': 2987.2999999523163, 'positionName': 'RIGHT', 'positionCoords': [707.2, 178.5], 'bid': 1.07}]",4626.099999904633,1669834313498,seaweed,cherries,0.0,1.07,1.07,seaweed,2980.7000000476837,2981,2981.4000000953674,True,u,8120.399999976158,3494.3000000715256,1669834316992,3494,,HRV,HRV_0215,2022-11-30 18:56:57
1,"[{'imgObject': {}, 'id': 'bagel plain', 'src': '/static/foodstim60/bagel plain.jpg', 'key': 'u', 'origWidth': 410, 'origHeight': 410, 'width': 410, 'height': 410, 'widthPercent': 0.45, 'rescaleHeight': False, 'trialN': 1, 'loaded': True, 'loadedTime': 2989.1999999284744, 'positionName': 'LEFT', 'positionCoords': [242.8, 179], 'bid': 4.94}, {'imgObject': {}, 'id': 'raisin bran w milk', 'src': '/static/foodstim60/raisin bran w milk.jpg', 'key': 'i', 'origWidth': 411, 'origHeight': 411, 'width': 411, 'height': 411, 'widthPercent': 0.45, 'rescaleHeight': False, 'trialN': 1, 'loaded': True, 'loadedTime': 3014.899999976158, 'positionName': 'RIGHT', 'positionCoords': [707.2, 178.5], 'bid': 4.92}]",8121.899999976158,1669834316994,bagel plain,raisin bran w milk,4.94,4.92,-0.020000000000000462,raisin bran w milk,1940.5,1941,1940.7999999523163,True,i,10574.899999976158,2453.0,1669834319447,2453,,HRV,HRV_0215,2022-11-30 18:56:57
2,"[{'imgObject': {}, 'id': 'apple slices', 'src': '/static/foodstim60/apple slices.jpg', 'key': 'u', 'origWidth': 409, 'origHeight': 410, 'width': 409, 'height': 410, 'widthPercent': 0.45, 'rescaleHeight': False, 'trialN': 2, 'loaded': True, 'loadedTime': 3042.1999999284744, 'positionName': 'LEFT', 'positionCoords': [243.8, 179], 'bid': 0.55}, {'imgObject': {}, 'id': 'blackbeanswithrice', 'src': '/static/foodstim60/blackbeanswithrice.jpg', 'key': 'i', 'origWidth': 410, 'origHeight': 410, 'width': 410, 'height': 410, 'widthPercent': 0.45, 'rescaleHeight': False, 'trialN': 2, 'loaded': True, 'loadedTime': 3042.2999999523163, 'positionName': 'RIGHT', 'positionCoords': [707.2, 179], 'bid': 0}]",10576.699999928474,1669834319449,apple slices,blackbeanswithrice,0.55,0.0,-0.55,blackbeanswithrice,1979.5,1979,1979.8999999761581,True,i,13066.299999952316,2489.600000023842,1669834321938,2489,,HRV,HRV_0215,2022-11-30 18:56:57
3,"[{'imgObject': {}, 'id': 'tacos', 'src': '/static/foodstim60/tacos.jpg', 'key': 'u', 'origWidth': 411, 'origHeight': 411, 'width': 411, 'height': 411, 'widthPercent': 0.45, 'rescaleHeight': False, 'trialN': 3, 'loaded': True, 'loadedTime': 3096.399999976158, 'positionName': 'LEFT', 'positionCoords': [241.8, 178.5], 'bid': 3.16}, {'imgObject': {}, 'id': 'burrito', 'src': '/static/foodstim60/burrito.jpg', 'key': 'i', 'origWidth': 410, 'origHeight': 410, 'width': 410, 'height': 410, 'widthPercent': 0.45, 'rescaleHeight': False, 'trialN': 3, 'loaded': True, 'loadedTime': 3098.1999999284744, 'positionName': 'RIGHT', 'positionCoords': [707.2, 179], 'bid': 6.6000000000000005}]",13068.099999904633,1669834321940,tacos,burrito,3.16,6.6000000000000005,3.4400000000000004,tacos,1353.1000000238419,1353,1353.4000000953674,True,u,14936.199999928474,1868.1000000238419,1669834323808,1868,,HRV,HRV_0215,2022-11-30 18:56:57
4,"[{'imgObject': {}, 'id': 'raspberries', 'src': '/static/foodstim60/raspberries.jpg', 'key': 'u', 'origWidth': 411, 'origHeight': 411, 'width': 411, 'height': 411, 'widthPercent': 0.45, 'rescaleHeight': False, 'trialN': 4, 'loaded': True, 'loadedTime': 3146.7999999523163, 'positionName': 'LEFT', 'positionCoords': [241.8, 178.5], 'bid': 0.2}, {'imgObject': {}, 'id': 'olives', 'src': '/static/foodstim60/olives.jpg', 'key': 'i', 'origWidth': 410, 'origHeight': 410, 'width': 410, 'height': 410, 'widthPercent': 0.45, 'rescaleHeight': False, 'trialN': 4, 'loaded': True, 'loadedTime': 3148.5999999046326, 'positionName': 'RIGHT', 'positionCoords': [707.2, 179], 'bid': 0}]",14938.699999928474,1669834323811,raspberries,olives,0.2,0.0,-0.2,raspberries,2456.8000000715256,2457,2457.0,True,u,17903.799999952316,2965.100000023842,1669834326776,2965,,HRV,HRV_0215,2022-11-30 18:56:57
5,"[{'imgObject': {}, 'id': 'orange slices', 'src': '/static/foodstim60/orange slices.jpg', 'key': 'u', 'origWidth': 409, 'origHeight': 410, 'width': 409, 'height': 410, 'widthPercent': 0.45, 'rescaleHeight': False, 'trialN': 5, 'loaded': True, 'loadedTime': 3173.899999976158, 'positionName': 'LEFT', 'positionCoords': [243.8, 179], 'bid': 0}, {'imgObject': {}, 'id': 'Grapes', 'src': '/static/foodstim60/Grapes.jpg', 'key': 'i', 'origWidth': 411, 'origHeight': 411, 'width': 411, 'height': 411, 'widthPercent': 0.45, 'rescaleHeight': False, 'trialN': 5, 'loaded': True, 'loadedTime': 3174.0999999046326, 'positionName': 'RIGHT', 'positionCoords': [707.2, 178.5], 'bid': 1.13}]",17906.299999952316,1669834326778,orange slices,Grapes,0.0,1.13,1.13,Grapes,1250.7999999523163,1251,1251.0,True,i,19674.199999928474,1767.8999999761581,1669834328546,1768,,HRV,HRV_0215,2022-11-30 18:56:57
6,"[{'imgObject': {}, 'id': 'rigatoni and sauce', 'src': '/static/foodstim60/rigatoni and sauce.jpg', 'key': 'u', 'origWidth': 410, 'origHeight': 411, 'width': 410, 'height': 411, 'widthPercent': 0.45, 'rescaleHeight': False, 'trialN': 6, 'loaded': True, 'loadedTime': 3205.7999999523163, 'positionName': 'LEFT', 'positionCoords': [242.8, 178.5], 'bid': 3.36}, {'imgObject': {}, 'id': 'mashed potato', 'src': '/static/foodstim60/mashed potato.jpg', 'key': 'i', 'origWidth': 409, 'origHeight': 409, 'width': 409, 'height': 409, 'widthPercent': 0.45, 'rescaleHeight': False, 'trialN': 6, 'loaded': True, 'loadedTime': 3232.5999999046326, 'positionName': 'RIGHT', 'positionCoords': [707.2, 179.5], 'bid': 6.83}]",19676.5,1669834328548,rigatoni and sauce,mashed potato,3.36,6.83,3.47,mashed potato,1419.1999999284744,1420,1419.5,True,i,21612.599999904633,1936.0999999046326,1669834330484,1936,,HRV,HRV_0215,2022-11-30 18:56:57
7,"[{'imgObject': {}, 'id': 'cherries', 'src': '/static/foodstim60/cherries.jpg', 'key': 'u', 'origWidth': 410, 'origHeight': 411, 'width': 410, 'height': 411, 'widthPercent': 0.45, 'rescaleHeight': False, 'trialN': 7, 'loaded': True, 'loadedTime': 2963.899999976158, 'positionName': 'LEFT', 'positionCoords': [242.8, 178.5], 'bid': 1.07}, {'imgObject': {}, 'id': 'sweetpotato', 'src': '/static/foodstim60/sweetpotato.jpg', 'key': 'i', 'origWidth': 410, 'origHeight': 410, 'width': 410, 'height': 410, 'widthPercent': 0.45, 'rescaleHeight': False, 'trialN': 7, 'loaded': True, 'loadedTime': 3259.0999999046326, 'positionName': 'RIGHT', 'positionCoords': [707.2, 179], 'bid': 0.13}]",21614.399999976158,1669834330486,cherries,sweetpotato,1.07,0.13,-0.9400000000000001,sweetpotato,1969.1000000238419,1970,1969.6000000238419,True,i,24096.099999904633,2481.6999999284744,1669834332968,2482,,HRV,HRV_0215,2022-11-30 18:56:57
8,"[{'imgObject': {}, 'id': 'salad w chicken', 'src': '/static/foodstim60/salad w chicken.jpg', 'key': 'u', 'origWidth': 411, 'origHeight': 411, 'width': 411, 'height': 411, 'widthPercent': 0.45, 'rescaleHeight': False, 'trialN': 8, 'loaded': True, 'loadedTime': 3278.899999976158, 'positionName': 'LEFT', 'positionCoords': [241.8, 178.5], 'bid': 6.11}, {'imgObject': {}, 'id': 'raisin bran w milk', 'src': '/static/foodstim60/raisin bran w milk.jpg', 'key': 'i', 'origWidth': 411, 'origHeight': 411, 'width': 411, 'height': 411, 'widthPercent': 0.45, 'rescaleHeight': False, 'trialN': 8, 'loaded': True, 'loadedTime': 3016.6999999284744, 'positionName': 'RIGHT', 'positionCoords': [707.2, 178.5], 'bid': 4.92}]",24097.799999952316,1669834332970,salad w chicken,raisin bran w milk,6.11,4.92,-1.1900000000000004,salad w chicken,1679.8999999761581,1680,1680.2000000476837,True,u,26297.899999976158,2200.100000023842,1669834335170,2200,,HRV,HRV_0215,2022-11-30 18:56:57
9,"[{'imgObject': {}, 'id': 'kiwi', 'src': '/static/foodstim60/kiwi.jpg', 'key': 'u', 'origWidth': 410, 'origHeight': 410, 'width': 410, 'height': 410, 'widthPercent': 0.45, 'rescaleHeight': False, 'trialN': 9, 'loaded': True, 'loadedTime': 3280.0999999046326, 'positionName': 'LEFT', 'positionCoords': [242.8, 179], 'bid': 5.19}, {'imgObject': {}, 'id': 'turkeysandwich', 'src': '/static/foodstim60/turkeysandwich.jpg', 'key': 'i', 'origWidth': 409, 'origHeight': 409, 'width': 409, 'height': 409, 'widthPercent': 0.45, 'rescaleHeight': False, 'trialN': 9, 'loaded': True, 'loadedTime': 3293, 'positionName': 'RIGHT', 'positionCoords': [707.2, 179.5], 'bid': 7.08}]",26300.199999928474,1669834335172,kiwi,turkeysandwich,5.19,7.08,1.8899999999999997,turkeysandwich,1237.2000000476837,1238,1237.5,True,i,28054.899999976158,1754.7000000476837,1669834336927,1755,,HRV,HRV_0215,2022-11-30 18:56:57
10,"[{'imgObject': {}, 'id': 'mac & cheese', 'src': '/static/foodstim60/mac & cheese.jpg', 'key': 'u', 'origWidth': 410, 'origHeight': 410, 'width': 410, 'height': 410, 'widthPercent': 0.45, 'rescaleHeight': False, 'trialN': 10, 'loaded': True, 'loadedTime': 3299.7999999523163, 'positionName': 'LEFT', 'positionCoords': [242.8, 179], 'bid': 6.140000000000001}, {'imgObject': {}, 'id': 'salmon', 'src': '/static/foodstim60/salmon.jpg', 'key': 'i', 'origWidth': 410, 'origHeight': 409, 'width': 410, 'height': 409, 'widthPercent': 0.45, 'rescaleHeight': False, 'trialN': 10, 'loaded': True, 'loadedTime': 3303, 'positionName': 'RIGHT', 'positionCoords': [707.2, 179.5], 'bid': 2.98}]",28056.5,1669834336928,mac & cheese,salmon,6.140000000000001,2.98,-3.1600000000000006,salmon,1881.3999999761581,1882,1881.6999999284744,True,i,30450.099999904633,2393.5999999046326,1669834339322,2394,,HRV,HRV_0215,2022-11-30 18:56:57
11,"[{'imgObject': {}, 'id': 'apple slices', 'src': '/static/foodstim60/apple slices.jpg', 'key': 'u', 'origWidth': 409, 'origHeight': 410, 'width': 409, 'height': 410, 'widthPercent': 0.45, 'rescaleHeight': False, 'trialN': 11, 'loaded': True, 'loadedTime': 3041.899999976158, 'positionName': 'LEFT', 'positionCoords': [243.8, 179], 'bid': 0.55}, {'imgObject': {}, 'id': 'cantaloupe', 'src': '/static/foodstim60/cantaloupe.jpg', 'key': 'i', 'origWidth': 409, 'origHeight': 409, 'width': 409, 'height': 409, 'widthPercent': 0.45, 'rescaleHeight': False, 'trialN': 11, 'loaded': True, 'loadedTime': 3305.0999999046326, 'positionName': 'RIGHT', 'positionCoords': [707.2, 179.5], 'bid': 0.48}]",30451.899999976158,1669834339324,apple slices,cantaloupe,0.55,0.48,-0.07000000000000006,apple slices,1358.1999999284744,1358,1358.5,True,u,32322.799999952316,1870.8999999761581,1669834341195,1871,,HRV,HRV_0215,2022-11-30 18:56:57
12,"[{'imgObject': {}, 'id': 'froot loops w milk', 'src': '/static/foodstim60/froot loops w milk.jpg', 'key': 'u', 'origWidth': 410, 'origHeight': 410, 'width': 410, 'height': 410, 'widthPercent': 0.45, 'rescaleHeight': False, 'trialN': 12, 'loaded': True, 'loadedTime': 3323.7999999523163, 'positionName': 'LEFT', 'positionCoords': [242.8, 179], 'bid': 6.640000000000001}, {'imgObject': {}, 'id': 'raisin bran w milk', 'src': '/static/foodstim60/raisin bran w milk.jpg', 'key': 'i', 'origWidth': 411, 'origHeight': 411, 'width': 411, 'height': 411, 'widthPercent': 0.45, 'rescaleHeight': False, 'trialN': 12, 'loaded': True, 'loadedTime': 3018.5999999046326, 'positionName': 'RIGHT', 'positionCoords': [707.2, 178.5], 'bid': 4.92}]",32325.099999904633,1669834341197,froot loops w milk,raisin bran w milk,6.640000000000001,4.92,-1.7200000000000006,froot loops w milk,1917.3000000715256,1918,1917.6000000238419,True,u,34749.89999997616,2424.8000000715256,1669834343622,2425,,HRV,HRV_0215,2022-11-30 18:56:57
13,"[{'imgObject': {}, 'id': 'cheerios', 'src': '/static/foodstim60/cheerios.jpg', 'key': 'u', 'origWidth': 409, 'origHeight': 410, 'width': 409, 'height': 410, 'widthPercent': 0.45, 'rescaleHeight': False, 'trialN': 13, 'loaded': True, 'loadedTime': 3323.7999999523163, 'positionName': 'LEFT', 'positionCoords': [243.8, 179], 'bid': 6.51}, {'imgObject': {}, 'id': 'froot loops w milk', 'src': '/static/foodstim60/froot loops w milk.jpg', 'key': 'i', 'origWidth': 410, 'origHeight': 410, 'width': 410, 'height': 410, 'widthPercent': 0.45, 'rescaleHeight': False, 'trialN': 13, 'loaded': True, 'loadedTime': 3323.1999999284744, 'positionName': 'RIGHT', 'positionCoords': [707.2, 179], 'bid': 6.640000000000001}]",34752.299999952316,1669834343624,cheerios,froot loops w milk,6.51,6.640000000000001,0.13000000000000078,cheerios,1872.8999999761581,1873,1873.2999999523163,True,u,37142.89999997616,2390.600000023842,1669834346015,2391,,HRV,HRV_0215,2022-11-30 18:56:57
14,"[{'imgObject': {}, 'id': 'yogurt no spoon', 'src': '/static/foodstim60/yogurt no spoon.jpg', 'key': 'u', 'origWidth': 411, 'origHeight': 410, 'width': 411, 'height': 410, 'widthPercent': 0.45, 'rescaleHeight': False, 'trialN': 14, 'loaded': True, 'loadedTime': 3361.6999999284744, 'positionName': 'LEFT', 'positionCoords': [241.8, 179], 'bid': 3.0700000000000003}, {'imgObject': {}, 'id': 'hashbrowns', 'src': '/static/foodstim60/hashbrowns.jpg', 'key': 'i', 'origWidth': 411, 'origHeight': 410, 'width': 411, 'height': 410, 'widthPercent': 0.45, 'rescaleHeight': False, 'trialN': 14, 'loaded': True, 'loadedTime': 3362.2999999523163, 'positionName': 'RIGHT', 'positionCoords': [707.2, 179], 'bid': 1.54}]",37144.699999928474,1669834346017,yogurt no spoon,hashbrowns,3.0700000000000003,1.54,-1.5300000000000002,hashbrowns,1280.3000000715256,1280,1280.8000000715256,True,i,38933.5,1788.8000000715256,1669834347805,1788,,HRV,HRV_0215,2022-11-30 18:56:57
15,"[{'imgObject': {}, 'id': 'luckycharms', 'src': '/static/foodstim60/luckycharms.jpg', 'key': 'u', 'origWidth': 410, 'origHeight': 409, 'width': 410, 'height': 409, 'widthPercent': 0.45, 'rescaleHeight': False, 'trialN': 15, 'loaded': True, 'loadedTime': 3426.1999999284744, 'positionName': 'LEFT', 'positionCoords': [242.8, 179.5], 'bid': 7.32}, {'imgObject': {}, 'id': 'chicken nuggets2', 'src': '/static/foodstim60/chicken nuggets2.jpg', 'key': 'i', 'origWidth': 410, 'origHeight': 409, 'width': 410, 'height': 409, 'widthPercent': 0.45, 'rescaleHeight': False, 'trialN': 15, 'loaded': True, 'loadedTime': 3428, 'positionName': 'RIGHT', 'positionCoords': [707.2, 179.5], 'bid': 4.72}]",38936.299999952316,1669834347808,luckycharms,chicken nuggets2,7.32,4.72,-2.6000000000000005,luckycharms,1340,1341,1340.3999999761581,True,u,40784.09999990463,1847.7999999523163,1669834349656,1848,,HRV,HRV_0215,2022-11-30 18:56:57
16,"[{'imgObject': {}, 'id': 'mac & cheese', 'src': '/static/foodstim60/mac & cheese.jpg', 'key': 'u', 'origWidth': 410, 'origHeight': 410, 'width': 410, 'height': 410, 'widthPercent': 0.45, 'rescaleHeight': False, 'trialN': 16, 'loaded': True, 'loadedTime': 3299.2999999523163, 'positionName': 'LEFT', 'positionCoords': [242.8, 179], 'bid': 6.140000000000001}, {'imgObject': {}, 'id': 'salad w chicken', 'src': '/static/foodstim60/salad w chicken.jpg', 'key': 'i', 'origWidth': 411, 'origHeight': 411, 'width': 411, 'height': 411, 'widthPercent': 0.45, 'rescaleHeight': False, 'trialN': 16, 'loaded': True, 'loadedTime': 3264.2999999523163, 'positionName': 'RIGHT', 'positionCoords': [707.2, 178.5], 'bid': 6.11}]",40785.799999952316,1669834349658,mac & cheese,salad w chicken,6.140000000000001,6.11,-0.03000000000000025,mac & cheese,1428.3999999761581,1429,1428.8999999761581,True,u,42715.89999997616,1930.1000000238419,1669834351588,1930,,HRV,HRV_0215,2022-11-30 18:56:57
17,"[{'imgObject': {}, 'id': 'eggs', 'src': '/static/foodstim60/eggs.jpg', 'key': 'u', 'origWidth': 409, 'origHeight': 409, 'width': 409, 'height': 409, 'widthPercent': 0.45, 'rescaleHeight': False, 'trialN': 17, 'loaded': True, 'loadedTime': 3434.6999999284744, 'positionName': 'LEFT', 'positionCoords': [243.8, 179.5], 'bid': 7.51}, {'imgObject': {}, 'id': 'bagel plain', 'src': '/static/foodstim60/bagel plain.jpg', 'key': 'i', 'origWidth': 410, 'origHeight': 410, 'width': 410, 'height': 410, 'widthPercent': 0.45, 'rescaleHeight': False, 'trialN': 17, 'loaded': True, 'loadedTime': 2987.6999999284744, 'positionName': 'RIGHT', 'positionCoords': [707.2, 179], 'bid': 4.94}]",42717.699999928474,1669834351590,eggs,bagel plain,7.51,4.94,-2.5699999999999994,bagel plain,1088.7000000476837,1089,1089.0,True,i,44308.199999928474,1590.5,1669834353180,1590,,HRV,HRV_0215,2022-11-30 18:56:57
18,"[{'imgObject': {}, 'id': 'lox', 'src': '/static/foodstim60/lox.jpg', 'key': 'u', 'origWidth': 410, 'origHeight': 411, 'width': 410, 'height': 411, 'widthPercent': 0.45, 'rescaleHeight': False, 'trialN': 18, 'loaded': True, 'loadedTime': 3437.2999999523163, 'positionName': 'LEFT', 'positionCoords': [242.8, 178.5], 'bid': 0.66}, {'imgObject': {}, 'id': 'cocktailshrimp', 'src': '/static/foodstim60/cocktailshrimp.jpg', 'key': 'i', 'origWidth': 410, 'origHeight': 410, 'width': 410, 'height': 410, 'widthPercent': 0.45, 'rescaleHeight': False, 'trialN': 18, 'loaded': True, 'loadedTime': 3440, 'positionName': 'RIGHT', 'positionCoords': [707.2, 179], 'bid': 0.04}]",44310.89999997616,1669834353183,lox,cocktailshrimp,0.66,0.04,-0.62,cocktailshrimp,999.6999999284744,1000,1000.5,True,i,45827.199999928474,1516.2999999523163,1669834354699,1516,,HRV,HRV_0215,2022-11-30 18:56:57
19,"[{'imgObject': {}, 'id': 'salad w chicken', 'src': '/static/foodstim60/salad w chicken.jpg', 'key': 'u', 'origWidth': 411, 'origHeight': 411, 'width': 411, 'height': 411, 'widthPercent': 0.45, 'rescaleHeight': False, 'trialN': 19, 'loaded': True, 'loadedTime': 3276, 'positionName': 'LEFT', 'positionCoords': [241.8, 178.5], 'bid': 6.11}, {'imgObject': {}, 'id': 'mango', 'src': '/static/foodstim60/mango.jpg', 'key': 'i', 'origWidth': 411, 'origHeight': 411, 'width': 411, 'height': 411, 'widthPercent': 0.45, 'rescaleHeight': False, 'trialN': 19, 'loaded': True, 'loadedTime': 3442.2999999523163, 'positionName': 'RIGHT', 'positionCoords': [707.2, 178.5], 'bid': 2.91}]",45829.89999997616,1669834354702,salad w chicken,mango,6.11,2.91,-3.2,mango,1573,1573,1573.3999999761581,True,i,47915.699999928474,2085.7999999523163,1669834356788,2086,,HRV,HRV_0215,2022-11-30 18:56:57
20,"[{'imgObject': {}, 'id': 'sushi w_condiments', 'src': '/static/foodstim60/sushi w_condiments.jpg', 'key': 'u', 'origWidth': 410, 'origHeight': 410, 'width': 410, 'height': 410, 'widthPercent': 0.45, 'rescaleHeight': False, 'trialN': 20, 'loaded': True, 'loadedTime': 3444.899999976158, 'positionName': 'LEFT', 'positionCoords': [242.8, 179], 'bid': 0.04}, {'imgObject': {}, 'id': 'granola w milk', 'src': '/static/foodstim60/granola w milk.jpg', 'key': 'i', 'origWidth': 410, 'origHeight': 410, 'width': 410, 'height': 410, 'widthPercent': 0.45, 'rescaleHeight': False, 'trialN': 20, 'loaded': True, 'loadedTime': 3490.5, 'positionName': 'RIGHT', 'positionCoords': [707.2, 179], 'bid': 1.17}]",47918.699999928474,1669834356791,sushi w_condiments,granola w milk,0.04,1.17,1.13,sushi w_condiments,1617.3999999761581,1617,1617.7000000476837,True,u,50057.199999928474,2138.5,1669834358929,2138,,HRV,HRV_0215,2022-11-30 18:56:57
21,"[{'imgObject': {}, 'id': 'roastedpotatoes', 'src': '/static/foodstim60/roastedpotatoes.jpg', 'key': 'u', 'origWidth': 409, 'origHeight': 410, 'width': 409, 'height': 410, 'widthPercent': 0.45, 'rescaleHeight': False, 'trialN': 21, 'loaded': True, 'loadedTime': 3493.6999999284744, 'positionName': 'LEFT', 'positionCoords': [243.8, 179], 'bid': 1.76}, {'imgObject': {}, 'id': 'rigatoni', 'src': '/static/foodstim60/rigatoni.jpg', 'key': 'i', 'origWidth': 411, 'origHeight': 411, 'width': 411, 'height': 411, 'widthPercent': 0.45, 'rescaleHeight': False, 'trialN': 21, 'loaded': True, 'loadedTime': 3534.0999999046326, 'positionName': 'RIGHT', 'positionCoords': [707.2, 178.5], 'bid': 3.25}]",50059.0,1669834358931,roastedpotatoes,rigatoni,1.76,3.25,1.49,rigatoni,948.7999999523163,949,949.1999999284744,True,i,51529.0,1470.0,1669834360401,1470,,HRV,HRV_0215,2022-11-30 18:56:57
22,"[{'imgObject': {}, 'id': 'popsicles', 'src': '/static/foodstim60/popsicles.jpg', 'key': 'u', 'origWidth': 410, 'origHeight': 410, 'width': 410, 'height': 410, 'widthPercent': 0.45, 'rescaleHeight': False, 'trialN': 22, 'loaded': True, 'loadedTime': 4617.399999976158, 'positionName': 'LEFT', 'positionCoords': [242.8, 179], 'bid': 2.07}, {'imgObject': {}, 'id': 'baked potato', 'src': '/static/foodstim60/baked potato.jpg', 'key': 'i', 'origWidth': 409, 'origHeight': 410, 'width': 409, 'height': 410, 'widthPercent': 0.45, 'rescaleHeight': False, 'trialN': 22, 'loaded': True, 'loadedTime': 3535.5, 'positionName': 'RIGHT', 'positionCoords': [707.2, 179], 'bid': 1.98}]",51530.39999997616,1669834360402,popsicles,baked potato,2.07,1.98,-0.08999999999999986,popsicles,985.3999999761581,986,985.6999999284744,True,u,53032.199999928474,1501.7999999523163,1669834361904,1502,,HRV,HRV_0215,2022-11-30 18:56:57
23,"[{'imgObject': {}, 'id': 'sweetpotato', 'src': '/static/foodstim60/sweetpotato.jpg', 'key': 'u', 'origWidth': 410, 'origHeight': 410, 'width': 410, 'height': 410, 'widthPercent': 0.45, 'rescaleHeight': False, 'trialN': 23, 'loaded': True, 'loadedTime': 3255.2999999523163, 'positionName': 'LEFT', 'positionCoords': [242.8, 179], 'bid': 0.13}, {'imgObject': {}, 'id': 'hashbrowns', 'src': '/static/foodstim60/hashbrowns.jpg', 'key': 'i', 'origWidth': 411, 'origHeight': 410, 'width': 411, 'height': 410, 'widthPercent': 0.45, 'rescaleHeight': False, 'trialN': 23, 'loaded': True, 'loadedTime': 3392.5, 'positionName': 'RIGHT', 'positionCoords': [707.2, 179], 'bid': 1.54}]",53035.0,1669834361907,sweetpotato,hashbrowns,0.13,1.54,1.4100000000000001,sweetpotato,968.5,969,968.6999999284744,True,u,54515.799999952316,1480.7999999523163,1669834363388,1481,,HRV,HRV_0215,2022-11-30 18:56:57
24,"[{'imgObject': {}, 'id': 'rigatoni', 'src': '/static/foodstim60/rigatoni.jpg', 'key': 'u', 'origWidth': 411, 'origHeight': 411, 'width': 411, 'height': 411, 'widthPercent': 0.45, 'rescaleHeight': False, 'trialN': 24, 'loaded': True, 'loadedTime': 3495.0999999046326, 'positionName': 'LEFT', 'positionCoords': [241.8, 178.5], 'bid': 3.25}, {'imgObject': {}, 'id': 'froot loops w milk', 'src': '/static/foodstim60/froot loops w milk.jpg', 'key': 'i', 'origWidth': 410, 'origHeight': 410, 'width': 410, 'height': 410, 'widthPercent': 0.45, 'rescaleHeight': False, 'trialN': 24, 'loaded': True, 'loadedTime': 3323.399999976158, 'positionName': 'RIGHT', 'positionCoords': [707.2, 179], 'bid': 6.640000000000001}]",54517.59999990463,1669834363389,rigatoni,froot loops w milk,3.25,6.640000000000001,3.3900000000000006,rigatoni,1131.2000000476837,1132,1131.6000000238419,True,u,56167.199999928474,1649.6000000238419,1669834365039,1650,,HRV,HRV_0215,2022-11-30 18:56:57
25,"[{'imgObject': {}, 'id': 'strawberries', 'src': '/static/foodstim60/strawberries.jpg', 'key': 'u', 'origWidth': 410, 'origHeight': 410, 'width': 410, 'height': 410, 'widthPercent': 0.45, 'rescaleHeight': False, 'trialN': 25, 'loaded': True, 'loadedTime': 3539.2999999523163, 'positionName': 'LEFT', 'positionCoords': [242.8, 179], 'bid': 0.23}, {'imgObject': {}, 'id': 'popsicles', 'src': '/static/foodstim60/popsicles.jpg', 'key': 'i', 'origWidth': 410, 'origHeight': 410, 'width': 410, 'height': 410, 'widthPercent': 0.45, 'rescaleHeight': False, 'trialN': 25, 'loaded': True, 'loadedTime': 4617.599999904633, 'positionName': 'RIGHT', 'positionCoords': [707.2, 179], 'bid': 2.07}]",56169.09999990463,1669834365041,strawberries,popsicles,0.23,2.07,1.8399999999999999,popsicles,1215.4000000953674,1216,1215.8000000715256,True,i,57889.0,1719.9000000953674,1669834366761,1720,,HRV,HRV_0215,2022-11-30 18:56:57
26,"[{'imgObject': {}, 'id': 'fried eggs', 'src': '/static/foodstim60/fried eggs.jpg', 'key': 'u', 'origWidth': 410, 'origHeight': 410, 'width': 410, 'height': 410, 'widthPercent': 0.45, 'rescaleHeight': False, 'trialN': 26, 'loaded': True, 'loadedTime': 3581, 'positionName': 'LEFT', 'positionCoords': [242.8, 179], 'bid': 3.75}, {'imgObject': {}, 'id': 'shreddedwheatwithmilk', 'src': '/static/foodstim60/shreddedwheatwithmilk.jpg', 'key': 'i', 'origWidth': 410, 'origHeight': 410, 'width': 410, 'height': 410, 'widthPercent': 0.45, 'rescaleHeight': False, 'trialN': 26, 'loaded': True, 'loadedTime': 3582.5999999046326, 'positionName': 'RIGHT', 'positionCoords': [707.2, 179], 'bid': 6.92}]",57890.5,1669834366762,fried eggs,shreddedwheatwithmilk,3.75,6.92,3.17,shreddedwheatwithmilk,1075,1076,1075.3999999761581,True,i,59475.299999952316,1584.7999999523163,1669834368347,1585,,HRV,HRV_0215,2022-11-30 18:56:57
27,"[{'imgObject': {}, 'id': 'roastedpotatoes', 'src': '/static/foodstim60/roastedpotatoes.jpg', 'key': 'u', 'origWidth': 409, 'origHeight': 410, 'width': 409, 'height': 410, 'widthPercent': 0.45, 'rescaleHeight': False, 'trialN': 27, 'loaded': True, 'loadedTime': 3490.6999999284744, 'positionName': 'LEFT', 'positionCoords': [243.8, 179], 'bid': 1.76}, {'imgObject': {}, 'id': 'chickenfingers', 'src': '/static/foodstim60/chickenfingers.jpg', 'key': 'i', 'origWidth': 410, 'origHeight': 410, 'width': 410, 'height': 410, 'widthPercent': 0.45, 'rescaleHeight': False, 'trialN': 27, 'loaded': True, 'loadedTime': 3621.0999999046326, 'positionName': 'RIGHT', 'positionCoords': [707.2, 179], 'bid': 7.42}]",59478.299999952316,1669834368350,roastedpotatoes,chickenfingers,1.76,7.42,5.66,chickenfingers,1005.7999999523163,1006,1006.1000000238419,True,i,61001.199999928474,1522.8999999761581,1669834369873,1523,,HRV,HRV_0215,2022-11-30 18:56:57
28,"[{'imgObject': {}, 'id': 'hotdog w must', 'src': '/static/foodstim60/hotdog w must.jpg', 'key': 'u', 'origWidth': 409, 'origHeight': 409, 'width': 409, 'height': 409, 'widthPercent': 0.45, 'rescaleHeight': False, 'trialN': 28, 'loaded': True, 'loadedTime': 3623.2999999523163, 'positionName': 'LEFT', 'positionCoords': [243.8, 179.5], 'bid': 1.52}, {'imgObject': {}, 'id': 'shreddedwheatwithmilk', 'src': '/static/foodstim60/shreddedwheatwithmilk.jpg', 'key': 'i', 'origWidth': 410, 'origHeight': 410, 'width': 410, 'height': 410, 'widthPercent': 0.45, 'rescaleHeight': False, 'trialN': 28, 'loaded': True, 'loadedTime': 3581.5999999046326, 'positionName': 'RIGHT', 'positionCoords': [707.2, 179], 'bid': 6.92}]",61002.89999997616,1669834369874,hotdog w must,shreddedwheatwithmilk,1.52,6.92,5.4,hotdog w must,1223.6000000238419,1224,1224.1000000238419,True,u,62732.699999928474,1729.7999999523163,1669834371604,1730,,HRV,HRV_0215,2022-11-30 18:56:57
29,"[{'imgObject': {}, 'id': 'turkeysandwich', 'src': '/static/foodstim60/turkeysandwich.jpg', 'key': 'u', 'origWidth': 409, 'origHeight': 409, 'width': 409, 'height': 409, 'widthPercent': 0.45, 'rescaleHeight': False, 'trialN': 29, 'loaded': True, 'loadedTime': 3290.5, 'positionName': 'LEFT', 'positionCoords': [243.8, 179.5], 'bid': 7.08}, {'imgObject': {}, 'id': 'chickenfingers', 'src': '/static/foodstim60/chickenfingers.jpg', 'key': 'i', 'origWidth': 410, 'origHeight': 410, 'width': 410, 'height': 410, 'widthPercent': 0.45, 'rescaleHeight': False, 'trialN': 29, 'loaded': True, 'loadedTime': 3621.1999999284744, 'positionName': 'RIGHT', 'positionCoords': [707.2, 179], 'bid': 7.42}]",62734.39999997616,1669834371606,turkeysandwich,chickenfingers,7.08,7.42,0.33999999999999986,turkeysandwich,1208.6999999284744,1209,1209.0,True,u,64450.799999952316,1716.3999999761581,1669834373322,1716,,HRV,HRV_0215,2022-11-30 18:56:57
30,"[{'imgObject': {}, 'id': 'bagel and cc', 'src': '/static/foodstim60/bagel and cc.jpg', 'key': 'u', 'origWidth': 410, 'origHeight': 410, 'width': 410, 'height': 410, 'widthPercent': 0.45, 'rescaleHeight': False, 'trialN': 30, 'loaded': True, 'loadedTime': 3623.5, 'positionName': 'LEFT', 'positionCoords': [242.8, 179], 'bid': 5.7}, {'imgObject': {}, 'id': 'Tribe humus pita', 'src': '/static/foodstim60/Tribe humus pita.jpg', 'key': 'i', 'origWidth': 411, 'origHeight': 411, 'width': 411, 'height': 411, 'widthPercent': 0.45, 'rescaleHeight': False, 'trialN': 30, 'loaded': True, 'loadedTime': 3659.6999999284744, 'positionName': 'RIGHT', 'positionCoords': [707.2, 178.5], 'bid': 5.83}]",64452.699999928474,1669834373324,bagel and cc,Tribe humus pita,5.7,5.83,0.1299999999999999,bagel and cc,1152.1000000238419,1152,1152.3999999761581,True,u,66120.39999997616,1667.7000000476837,1669834374992,1668,,HRV,HRV_0215,2022-11-30 18:56:57
31,"[{'imgObject': {}, 'id': 'Grapes', 'src': '/static/foodstim60/Grapes.jpg', 'key': 'u', 'origWidth': 411, 'origHeight': 411, 'width': 411, 'height': 411, 'widthPercent': 0.45, 'rescaleHeight': False, 'trialN': 31, 'loaded': True, 'loadedTime': 3175.2999999523163, 'positionName': 'LEFT', 'positionCoords': [241.8, 178.5], 'bid': 1.13}, {'imgObject': {}, 'id': 'cantaloupe', 'src': '/static/foodstim60/cantaloupe.jpg', 'key': 'i', 'origWidth': 409, 'origHeight': 409, 'width': 409, 'height': 409, 'widthPercent': 0.45, 'rescaleHeight': False, 'trialN': 31, 'loaded': True, 'loadedTime': 3319.899999976158, 'positionName': 'RIGHT', 'positionCoords': [707.2, 179.5], 'bid': 0.48}]",66122.19999992847,1669834374994,Grapes,cantaloupe,1.13,0.48,-0.6499999999999999,cantaloupe,777.3999999761581,777,777.8000000715256,True,i,67415.09999990463,1292.8999999761581,1669834376286,1292,,HRV,HRV_0215,2022-11-30 18:56:57
32,"[{'imgObject': {}, 'id': 'raspberries', 'src': '/static/foodstim60/raspberries.jpg', 'key': 'u', 'origWidth': 411, 'origHeight': 411, 'width': 411, 'height': 411, 'widthPercent': 0.45, 'rescaleHeight': False, 'trialN': 32, 'loaded': True, 'loadedTime': 3147.1999999284744, 'positionName': 'LEFT', 'positionCoords': [241.8, 178.5], 'bid': 0.2}, {'imgObject': {}, 'id': 'bagel plain', 'src': '/static/foodstim60/bagel plain.jpg', 'key': 'i', 'origWidth': 410, 'origHeight': 410, 'width': 410, 'height': 410, 'widthPercent': 0.45, 'rescaleHeight': False, 'trialN': 32, 'loaded': True, 'loadedTime': 2988.7999999523163, 'positionName': 'RIGHT', 'positionCoords': [707.2, 179], 'bid': 4.94}]",67416.79999995232,1669834376288,raspberries,bagel plain,0.2,4.94,4.74,bagel plain,629.1000000238419,630,629.6000000238419,True,i,68548.29999995232,1131.5,1669834377420,1132,,HRV,HRV_0215,2022-11-30 18:56:57
33,"[{'imgObject': {}, 'id': 'strawberries', 'src': '/static/foodstim60/strawberries.jpg', 'key': 'u', 'origWidth': 410, 'origHeight': 410, 'width': 410, 'height': 410, 'widthPercent': 0.45, 'rescaleHeight': False, 'trialN': 33, 'loaded': True, 'loadedTime': 3536.0999999046326, 'positionName': 'LEFT', 'positionCoords': [242.8, 179], 'bid': 0.23}, {'imgObject': {}, 'id': 'omelette', 'src': '/static/foodstim60/omelette.jpg', 'key': 'i', 'origWidth': 410, 'origHeight': 409, 'width': 410, 'height': 409, 'widthPercent': 0.45, 'rescaleHeight': False, 'trialN': 33, 'loaded': True, 'loadedTime': 3661.6999999284744, 'positionName': 'RIGHT', 'positionCoords': [707.2, 179.5], 'bid': 0}]",68550.59999990463,1669834377422,strawberries,omelette,0.23,0.0,-0.23,omelette,1205.4000000953674,1206,1205.8000000715256,True,i,70268.29999995232,1717.7000000476837,1669834379140,1718,,HRV,HRV_0215,2022-11-30 18:56:57
34,"[{'imgObject': {}, 'id': 'bagel plain', 'src': '/static/foodstim60/bagel plain.jpg', 'key': 'u', 'origWidth': 410, 'origHeight': 410, 'width': 410, 'height': 410, 'widthPercent': 0.45, 'rescaleHeight': False, 'trialN': 34, 'loaded': True, 'loadedTime': 2988.6999999284744, 'positionName': 'LEFT', 'positionCoords': [242.8, 179], 'bid': 4.94}, {'imgObject': {}, 'id': 'mashed potato', 'src': '/static/foodstim60/mashed potato.jpg', 'key': 'i', 'origWidth': 409, 'origHeight': 409, 'width': 409, 'height': 409, 'widthPercent': 0.45, 'rescaleHeight': False, 'trialN': 34, 'loaded': True, 'loadedTime': 3233.399999976158, 'positionName': 'RIGHT', 'positionCoords': [707.2, 179.5], 'bid': 6.83}]",70270.79999995232,1669834379142,bagel plain,mashed potato,4.94,6.83,1.8899999999999997,bagel plain,1191.3999999761581,1192,1191.7000000476837,True,u,71965.19999992847,1694.3999999761581,1669834380836,1694,,HRV,HRV_0215,2022-11-30 18:56:57
35,"[{'imgObject': {}, 'id': 'grilled chicken strips', 'src': '/static/foodstim60/grilled chicken strips.jpg', 'key': 'u', 'origWidth': 410, 'origHeight': 411, 'width': 410, 'height': 411, 'widthPercent': 0.45, 'rescaleHeight': False, 'trialN': 35, 'loaded': True, 'loadedTime': 3662.899999976158, 'positionName': 'LEFT', 'positionCoords': [242.8, 178.5], 'bid': 8.19}, {'imgObject': {}, 'id': 'burrito', 'src': '/static/foodstim60/burrito.jpg', 'key': 'i', 'origWidth': 410, 'origHeight': 410, 'width': 410, 'height': 410, 'widthPercent': 0.45, 'rescaleHeight': False, 'trialN': 35, 'loaded': True, 'loadedTime': 3099.7999999523163, 'positionName': 'RIGHT', 'positionCoords': [707.2, 179], 'bid': 6.6000000000000005}]",71967.19999992847,1669834380839,grilled chicken strips,burrito,8.19,6.6000000000000005,-1.589999999999999,grilled chicken strips,1166.5,1166,1166.8000000715256,True,u,73650.09999990463,1682.8999999761581,1669834382521,1682,,HRV,HRV_0215,2022-11-30 18:56:57
36,"[{'imgObject': {}, 'id': 'ice cream sundae 002', 'src': '/static/foodstim60/ice cream sundae 002.jpg', 'key': 'u', 'origWidth': 409, 'origHeight': 409, 'width': 409, 'height': 409, 'widthPercent': 0.45, 'rescaleHeight': False, 'trialN': 36, 'loaded': True, 'loadedTime': 3664.0999999046326, 'positionName': 'LEFT', 'positionCoords': [243.8, 179.5], 'bid': 2.32}, {'imgObject': {}, 'id': 'cantaloupe', 'src': '/static/foodstim60/cantaloupe.jpg', 'key': 'i', 'origWidth': 409, 'origHeight': 409, 'width': 409, 'height': 409, 'widthPercent': 0.45, 'rescaleHeight': False, 'trialN': 36, 'loaded': True, 'loadedTime': 3320.399999976158, 'positionName': 'RIGHT', 'positionCoords': [707.2, 179.5], 'bid': 0.48}]",73653.39999997616,1669834382525,ice cream sundae 002,cantaloupe,2.32,0.48,-1.8399999999999999,ice cream sundae 002,956.3999999761581,956,956.6999999284744,True,u,75131.0,1477.6000000238419,1669834384002,1477,,HRV,HRV_0215,2022-11-30 18:56:57
37,"[{'imgObject': {}, 'id': 'hotdog w must', 'src': '/static/foodstim60/hotdog w must.jpg', 'key': 'u', 'origWidth': 409, 'origHeight': 409, 'width': 409, 'height': 409, 'widthPercent': 0.45, 'rescaleHeight': False, 'trialN': 37, 'loaded': True, 'loadedTime': 3622.5, 'positionName': 'LEFT', 'positionCoords': [243.8, 179.5], 'bid': 1.52}, {'imgObject': {}, 'id': 'granola w milk', 'src': '/static/foodstim60/granola w milk.jpg', 'key': 'i', 'origWidth': 410, 'origHeight': 410, 'width': 410, 'height': 410, 'widthPercent': 0.45, 'rescaleHeight': False, 'trialN': 37, 'loaded': True, 'loadedTime': 3479.6999999284744, 'positionName': 'RIGHT', 'positionCoords': [707.2, 179], 'bid': 1.17}]",75132.89999997616,1669834384004,hotdog w must,granola w milk,1.52,1.17,-0.3500000000000001,granola w milk,683.1000000238419,684,683.5,True,i,76329.39999997616,1196.5,1669834385201,1197,,HRV,HRV_0215,2022-11-30 18:56:57
38,"[{'imgObject': {}, 'id': 'cherry tomato', 'src': '/static/foodstim60/cherry tomato.jpg', 'key': 'u', 'origWidth': 410, 'origHeight': 410, 'width': 410, 'height': 410, 'widthPercent': 0.45, 'rescaleHeight': False, 'trialN': 38, 'loaded': True, 'loadedTime': 3701.7999999523163, 'positionName': 'LEFT', 'positionCoords': [242.8, 179], 'bid': 0.79}, {'imgObject': {}, 'id': 'hashbrowns', 'src': '/static/foodstim60/hashbrowns.jpg', 'key': 'i', 'origWidth': 411, 'origHeight': 410, 'width': 411, 'height': 410, 'widthPercent': 0.45, 'rescaleHeight': False, 'trialN': 38, 'loaded': True, 'loadedTime': 3392, 'positionName': 'RIGHT', 'positionCoords': [707.2, 179], 'bid': 1.54}]",76331.39999997616,1669834385203,cherry tomato,hashbrowns,0.79,1.54,0.75,hashbrowns,1055.2999999523163,1055,1055.6000000238419,True,i,77897.59999990463,1566.1999999284744,1669834386769,1566,,HRV,HRV_0215,2022-11-30 18:56:57
39,"[{'imgObject': {}, 'id': 'lox', 'src': '/static/foodstim60/lox.jpg', 'key': 'u', 'origWidth': 410, 'origHeight': 411, 'width': 410, 'height': 411, 'widthPercent': 0.45, 'rescaleHeight': False, 'trialN': 39, 'loaded': True, 'loadedTime': 3436.399999976158, 'positionName': 'LEFT', 'positionCoords': [242.8, 178.5], 'bid': 0.66}, {'imgObject': {}, 'id': 'salad w chicken', 'src': '/static/foodstim60/salad w chicken.jpg', 'key': 'i', 'origWidth': 411, 'origHeight': 411, 'width': 411, 'height': 411, 'widthPercent': 0.45, 'rescaleHeight': False, 'trialN': 39, 'loaded': True, 'loadedTime': 3278.399999976158, 'positionName': 'RIGHT', 'positionCoords': [707.2, 178.5], 'bid': 6.11}]",77900.29999995232,1669834386772,lox,salad w chicken,0.66,6.11,5.45,salad w chicken,1201.2000000476837,1201,1201.5,True,i,79617.39999997616,1717.1000000238419,1669834388489,1717,,HRV,HRV_0215,2022-11-30 18:56:57
40,"[{'imgObject': {}, 'id': 'steak', 'src': '/static/foodstim60/steak.jpg', 'key': 'u', 'origWidth': 410, 'origHeight': 410, 'width': 410, 'height': 410, 'widthPercent': 0.45, 'rescaleHeight': False, 'trialN': 40, 'loaded': True, 'loadedTime': 3701.899999976158, 'positionName': 'LEFT', 'positionCoords': [242.8, 179], 'bid': 8.01}, {'imgObject': {}, 'id': 'shreddedwheatwithmilk', 'src': '/static/foodstim60/shreddedwheatwithmilk.jpg', 'key': 'i', 'origWidth': 410, 'origHeight': 410, 'width': 410, 'height': 410, 'widthPercent': 0.45, 'rescaleHeight': False, 'trialN': 40, 'loaded': True, 'loadedTime': 3583.0999999046326, 'positionName': 'RIGHT', 'positionCoords': [707.2, 179], 'bid': 6.92}]",79620.09999990463,1669834388491,steak,shreddedwheatwithmilk,8.01,6.92,-1.0899999999999999,steak,1022.7000000476837,1024,1023.2000000476837,True,u,81150.0,1529.9000000953674,1669834390021,1530,,HRV,HRV_0215,2022-11-30 18:56:57
41,"[{'imgObject': {}, 'id': 'turkey sandwich', 'src': '/static/foodstim60/turkey sandwich.jpg', 'key': 'u', 'origWidth': 409, 'origHeight': 409, 'width': 409, 'height': 409, 'widthPercent': 0.45, 'rescaleHeight': False, 'trialN': 41, 'loaded': True, 'loadedTime': 3704, 'positionName': 'LEFT', 'positionCoords': [243.8, 179.5], 'bid': 7.67}, {'imgObject': {}, 'id': 'eggs', 'src': '/static/foodstim60/eggs.jpg', 'key': 'i', 'origWidth': 409, 'origHeight': 409, 'width': 409, 'height': 409, 'widthPercent': 0.45, 'rescaleHeight': False, 'trialN': 41, 'loaded': True, 'loadedTime': 3435, 'positionName': 'RIGHT', 'positionCoords': [707.2, 179.5], 'bid': 7.51}]",81151.89999997616,1669834390023,turkey sandwich,eggs,7.67,7.51,-0.16000000000000014,eggs,877.2999999523163,878,877.8999999761581,True,i,82531.69999992847,1379.7999999523163,1669834391403,1380,,HRV,HRV_0215,2022-11-30 18:56:57
42,"[{'imgObject': {}, 'id': 'sushi w_condiments', 'src': '/static/foodstim60/sushi w_condiments.jpg', 'key': 'u', 'origWidth': 410, 'origHeight': 410, 'width': 410, 'height': 410, 'widthPercent': 0.45, 'rescaleHeight': False, 'trialN': 42, 'loaded': True, 'loadedTime': 3473.5, 'positionName': 'LEFT', 'positionCoords': [242.8, 179], 'bid': 0.04}, {'imgObject': {}, 'id': 'apple slices', 'src': '/static/foodstim60/apple slices.jpg', 'key': 'i', 'origWidth': 409, 'origHeight': 410, 'width': 409, 'height': 410, 'widthPercent': 0.45, 'rescaleHeight': False, 'trialN': 42, 'loaded': True, 'loadedTime': 3041.5, 'positionName': 'RIGHT', 'positionCoords': [707.2, 179], 'bid': 0.55}]",82533.29999995232,1669834391405,sushi w_condiments,apple slices,0.04,0.55,0.51,sushi w_condiments,933.2999999523163,933,933.6000000238419,True,u,83978.59999990463,1445.2999999523163,1669834392850,1445,,HRV,HRV_0215,2022-11-30 18:56:57
43,"[{'imgObject': {}, 'id': 'cherry tomato', 'src': '/static/foodstim60/cherry tomato.jpg', 'key': 'u', 'origWidth': 410, 'origHeight': 410, 'width': 410, 'height': 410, 'widthPercent': 0.45, 'rescaleHeight': False, 'trialN': 43, 'loaded': True, 'loadedTime': 3701.5999999046326, 'positionName': 'LEFT', 'positionCoords': [242.8, 179], 'bid': 0.79}, {'imgObject': {}, 'id': 'mac & cheese', 'src': '/static/foodstim60/mac & cheese.jpg', 'key': 'i', 'origWidth': 410, 'origHeight': 410, 'width': 410, 'height': 410, 'widthPercent': 0.45, 'rescaleHeight': False, 'trialN': 43, 'loaded': True, 'loadedTime': 3298.7999999523163, 'positionName': 'RIGHT', 'positionCoords': [707.2, 179], 'bid': 6.140000000000001}]",83980.19999992847,1669834392852,cherry tomato,mac & cheese,0.79,6.140000000000001,5.3500000000000005,cherry tomato,870.6000000238419,870,871.0,True,u,85368.59999990463,1388.3999999761581,1669834394240,1388,,HRV,HRV_0215,2022-11-30 18:56:57
44,"[{'imgObject': {}, 'id': 'mashed potato', 'src': '/static/foodstim60/mashed potato.jpg', 'key': 'u', 'origWidth': 409, 'origHeight': 409, 'width': 409, 'height': 409, 'widthPercent': 0.45, 'rescaleHeight': False, 'trialN': 44, 'loaded': True, 'loadedTime': 3232.7999999523163, 'positionName': 'LEFT', 'positionCoords': [243.8, 179.5], 'bid': 6.83}, {'imgObject': {}, 'id': 'turkey sandwich', 'src': '/static/foodstim60/turkey sandwich.jpg', 'key': 'i', 'origWidth': 409, 'origHeight': 409, 'width': 409, 'height': 409, 'widthPercent': 0.45, 'rescaleHeight': False, 'trialN': 44, 'loaded': True, 'loadedTime': 3704, 'positionName': 'RIGHT', 'positionCoords': [707.2, 179.5], 'bid': 7.67}]",85370.89999997616,1669834394242,mashed potato,turkey sandwich,6.83,7.67,0.8399999999999999,mashed potato,855.7999999523163,856,856.1000000238419,True,u,86731.79999995232,1360.8999999761581,1669834395603,1361,,HRV,HRV_0215,2022-11-30 18:56:57
45,"[{'imgObject': {}, 'id': 'chickenfingers', 'src': '/static/foodstim60/chickenfingers.jpg', 'key': 'u', 'origWidth': 410, 'origHeight': 410, 'width': 410, 'height': 410, 'widthPercent': 0.45, 'rescaleHeight': False, 'trialN': 45, 'loaded': True, 'loadedTime': 3619.899999976158, 'positionName': 'LEFT', 'positionCoords': [242.8, 179], 'bid': 7.42}, {'imgObject': {}, 'id': 'Tribe humus pita', 'src': '/static/foodstim60/Tribe humus pita.jpg', 'key': 'i', 'origWidth': 411, 'origHeight': 411, 'width': 411, 'height': 411, 'widthPercent': 0.45, 'rescaleHeight': False, 'trialN': 45, 'loaded': True, 'loadedTime': 3659.899999976158, 'positionName': 'RIGHT', 'positionCoords': [707.2, 178.5], 'bid': 5.83}]",86735.59999990463,1669834395607,chickenfingers,Tribe humus pita,7.42,5.83,-1.5899999999999999,Tribe humus pita,969.1000000238419,969,969.4000000953674,True,i,88213.69999992847,1478.1000000238419,1669834397085,1478,,HRV,HRV_0215,2022-11-30 18:56:57
46,"[{'imgObject': {}, 'id': 'corn cob', 'src': '/static/foodstim60/corn cob.jpg', 'key': 'u', 'origWidth': 411, 'origHeight': 411, 'width': 411, 'height': 411, 'widthPercent': 0.45, 'rescaleHeight': False, 'trialN': 46, 'loaded': True, 'loadedTime': 3705.1999999284744, 'positionName': 'LEFT', 'positionCoords': [241.8, 178.5], 'bid': 1.3}, {'imgObject': {}, 'id': 'hashbrowns', 'src': '/static/foodstim60/hashbrowns.jpg', 'key': 'i', 'origWidth': 411, 'origHeight': 410, 'width': 411, 'height': 410, 'widthPercent': 0.45, 'rescaleHeight': False, 'trialN': 46, 'loaded': True, 'loadedTime': 3392.399999976158, 'positionName': 'RIGHT', 'positionCoords': [707.2, 179], 'bid': 1.54}]",88216.5,1669834397088,corn cob,hashbrowns,1.3,1.54,0.24,corn cob,929.7999999523163,930,930.1999999284744,True,u,89666.39999997616,1449.8999999761581,1669834398538,1450,,HRV,HRV_0215,2022-11-30 18:56:57
47,"[{'imgObject': {}, 'id': 'cherry tomato', 'src': '/static/foodstim60/cherry tomato.jpg', 'key': 'u', 'origWidth': 410, 'origHeight': 410, 'width': 410, 'height': 410, 'widthPercent': 0.45, 'rescaleHeight': False, 'trialN': 47, 'loaded': True, 'loadedTime': 3701.5999999046326, 'positionName': 'LEFT', 'positionCoords': [242.8, 179], 'bid': 0.79}, {'imgObject': {}, 'id': 'lox', 'src': '/static/foodstim60/lox.jpg', 'key': 'i', 'origWidth': 410, 'origHeight': 411, 'width': 410, 'height': 411, 'widthPercent': 0.45, 'rescaleHeight': False, 'trialN': 47, 'loaded': True, 'loadedTime': 3438, 'positionName': 'RIGHT', 'positionCoords': [707.2, 178.5], 'bid': 0.66}]",89668.39999997616,1669834398540,cherry tomato,lox,0.79,0.66,-0.13,cherry tomato,1192.1000000238419,1192,1192.3999999761581,True,u,91373.09999990463,1704.6999999284744,1669834400244,1704,,HRV,HRV_0215,2022-11-30 18:56:57
48,"[{'imgObject': {}, 'id': 'yogurt no spoon', 'src': '/static/foodstim60/yogurt no spoon.jpg', 'key': 'u', 'origWidth': 411, 'origHeight': 410, 'width': 411, 'height': 410, 'widthPercent': 0.45, 'rescaleHeight': False, 'trialN': 48, 'loaded': True, 'loadedTime': 3362.0999999046326, 'positionName': 'LEFT', 'positionCoords': [241.8, 179], 'bid': 3.0700000000000003}, {'imgObject': {}, 'id': 'rigatoni', 'src': '/static/foodstim60/rigatoni.jpg', 'key': 'i', 'origWidth': 411, 'origHeight': 411, 'width': 411, 'height': 411, 'widthPercent': 0.45, 'rescaleHeight': False, 'trialN': 48, 'loaded': True, 'loadedTime': 3496.5999999046326, 'positionName': 'RIGHT', 'positionCoords': [707.2, 178.5], 'bid': 3.25}]",91375.59999990463,1669834400247,yogurt no spoon,rigatoni,3.0700000000000003,3.25,0.17999999999999972,rigatoni,631.8000000715256,632,632.2000000476837,True,i,92517.69999992847,1142.1000000238419,1669834401389,1142,,HRV,HRV_0215,2022-11-30 18:56:57
49,"[{'imgObject': {}, 'id': 'pear', 'src': '/static/foodstim60/pear.jpg', 'key': 'u', 'origWidth': 411, 'origHeight': 410, 'width': 411, 'height': 410, 'widthPercent': 0.45, 'rescaleHeight': False, 'trialN': 49, 'loaded': True, 'loadedTime': 3707.5, 'positionName': 'LEFT', 'positionCoords': [241.8, 179], 'bid': 1.7}, {'imgObject': {}, 'id': 'roastedpotatoes', 'src': '/static/foodstim60/roastedpotatoes.jpg', 'key': 'i', 'origWidth': 409, 'origHeight': 410, 'width': 409, 'height': 410, 'widthPercent': 0.45, 'rescaleHeight': False, 'trialN': 49, 'loaded': True, 'loadedTime': 3494.1999999284744, 'positionName': 'RIGHT', 'positionCoords': [707.2, 179], 'bid': 1.76}]",92519.59999990463,1669834401391,pear,roastedpotatoes,1.7,1.76,0.06000000000000005,roastedpotatoes,1045,1045,1045.3000000715256,True,i,94080.79999995232,1561.2000000476837,1669834402952,1561,,HRV,HRV_0215,2022-11-30 18:56:57
50,"[{'imgObject': {}, 'id': 'banana', 'src': '/static/foodstim60/banana.jpg', 'key': 'u', 'origWidth': 410, 'origHeight': 410, 'width': 410, 'height': 410, 'widthPercent': 0.45, 'rescaleHeight': False, 'trialN': 50, 'loaded': True, 'loadedTime': 3708.2999999523163, 'positionName': 'LEFT', 'positionCoords': [242.8, 179], 'bid': 0.05}, {'imgObject': {}, 'id': 'cocktailshrimp', 'src': '/static/foodstim60/cocktailshrimp.jpg', 'key': 'i', 'origWidth': 410, 'origHeight': 410, 'width': 410, 'height': 410, 'widthPercent': 0.45, 'rescaleHeight': False, 'trialN': 50, 'loaded': True, 'loadedTime': 3440.6999999284744, 'positionName': 'RIGHT', 'positionCoords': [707.2, 179], 'bid': 0.04}]",94083.5,1669834402955,banana,cocktailshrimp,0.05,0.04,-0.010000000000000002,banana,885.1999999284744,885,885.5999999046326,True,u,95482.69999992847,1399.1999999284744,1669834404354,1399,,HRV,HRV_0215,2022-11-30 18:56:57
51,"[{'imgObject': {}, 'id': 'mango', 'src': '/static/foodstim60/mango.jpg', 'key': 'u', 'origWidth': 411, 'origHeight': 411, 'width': 411, 'height': 411, 'widthPercent': 0.45, 'rescaleHeight': False, 'trialN': 51, 'loaded': True, 'loadedTime': 3442.1999999284744, 'positionName': 'LEFT', 'positionCoords': [241.8, 178.5], 'bid': 2.91}, {'imgObject': {}, 'id': 'olives', 'src': '/static/foodstim60/olives.jpg', 'key': 'i', 'origWidth': 410, 'origHeight': 410, 'width': 410, 'height': 410, 'widthPercent': 0.45, 'rescaleHeight': False, 'trialN': 51, 'loaded': True, 'loadedTime': 3148.399999976158, 'positionName': 'RIGHT', 'positionCoords': [707.2, 179], 'bid': 0}]",95484.39999997616,1669834404356,mango,olives,2.91,0.0,-2.91,mango,867.6999999284744,868,868.1000000238419,True,u,96874.59999990463,1390.1999999284744,1669834405746,1390,,HRV,HRV_0215,2022-11-30 18:56:57
52,"[{'imgObject': {}, 'id': 'banana', 'src': '/static/foodstim60/banana.jpg', 'key': 'u', 'origWidth': 410, 'origHeight': 410, 'width': 410, 'height': 410, 'widthPercent': 0.45, 'rescaleHeight': False, 'trialN': 52, 'loaded': True, 'loadedTime': 3709.0999999046326, 'positionName': 'LEFT', 'positionCoords': [242.8, 179], 'bid': 0.05}, {'imgObject': {}, 'id': 'fried eggs', 'src': '/static/foodstim60/fried eggs.jpg', 'key': 'i', 'origWidth': 410, 'origHeight': 410, 'width': 410, 'height': 410, 'widthPercent': 0.45, 'rescaleHeight': False, 'trialN': 52, 'loaded': True, 'loadedTime': 3580.899999976158, 'positionName': 'RIGHT', 'positionCoords': [707.2, 179], 'bid': 3.75}]",96877.69999992847,1669834405749,banana,fried eggs,0.05,3.75,3.7,banana,733.7000000476837,734,734.2000000476837,True,u,98130.29999995232,1252.6000000238419,1669834407002,1253,,HRV,HRV_0215,2022-11-30 18:56:57
53,"[{'imgObject': {}, 'id': 'baked potato', 'src': '/static/foodstim60/baked potato.jpg', 'key': 'u', 'origWidth': 409, 'origHeight': 410, 'width': 409, 'height': 410, 'widthPercent': 0.45, 'rescaleHeight': False, 'trialN': 53, 'loaded': True, 'loadedTime': 3534.1999999284744, 'positionName': 'LEFT', 'positionCoords': [243.8, 179], 'bid': 1.98}, {'imgObject': {}, 'id': 'eggs', 'src': '/static/foodstim60/eggs.jpg', 'key': 'i', 'origWidth': 409, 'origHeight': 409, 'width': 409, 'height': 409, 'widthPercent': 0.45, 'rescaleHeight': False, 'trialN': 53, 'loaded': True, 'loadedTime': 3433.399999976158, 'positionName': 'RIGHT', 'positionCoords': [707.2, 179.5], 'bid': 7.51}]",98133.0,1669834407004,baked potato,eggs,1.98,7.51,5.529999999999999,eggs,1099.5,1100,1099.7999999523163,True,i,99747.5,1614.5,1669834408619,1615,,HRV,HRV_0215,2022-11-30 18:56:57
54,"[{'imgObject': {}, 'id': 'strawberries', 'src': '/static/foodstim60/strawberries.jpg', 'key': 'u', 'origWidth': 410, 'origHeight': 410, 'width': 410, 'height': 410, 'widthPercent': 0.45, 'rescaleHeight': False, 'trialN': 54, 'loaded': True, 'loadedTime': 3539.0999999046326, 'positionName': 'LEFT', 'positionCoords': [242.8, 179], 'bid': 0.23}, {'imgObject': {}, 'id': 'cherries', 'src': '/static/foodstim60/cherries.jpg', 'key': 'i', 'origWidth': 410, 'origHeight': 411, 'width': 410, 'height': 411, 'widthPercent': 0.45, 'rescaleHeight': False, 'trialN': 54, 'loaded': True, 'loadedTime': 2964.0999999046326, 'positionName': 'RIGHT', 'positionCoords': [707.2, 178.5], 'bid': 1.07}]",99749.5,1669834408621,strawberries,cherries,0.23,1.07,0.8400000000000001,strawberries,845.2999999523163,845,845.5999999046326,True,u,101114.0,1364.5,1669834409985,1364,,HRV,HRV_0215,2022-11-30 18:56:57
55,"[{'imgObject': {}, 'id': 'turkeysandwich', 'src': '/static/foodstim60/turkeysandwich.jpg', 'key': 'u', 'origWidth': 409, 'origHeight': 409, 'width': 409, 'height': 409, 'widthPercent': 0.45, 'rescaleHeight': False, 'trialN': 55, 'loaded': True, 'loadedTime': 3295.2999999523163, 'positionName': 'LEFT', 'positionCoords': [243.8, 179.5], 'bid': 7.08}, {'imgObject': {}, 'id': 'shreddedwheatwithmilk', 'src': '/static/foodstim60/shreddedwheatwithmilk.jpg', 'key': 'i', 'origWidth': 410, 'origHeight': 410, 'width': 410, 'height': 410, 'widthPercent': 0.45, 'rescaleHeight': False, 'trialN': 55, 'loaded': True, 'loadedTime': 3617.7999999523163, 'positionName': 'RIGHT', 'positionCoords': [707.2, 179], 'bid': 6.92}]",101116.0,1669834409987,turkeysandwich,shreddedwheatwithmilk,7.08,6.92,-0.16000000000000014,turkeysandwich,949,950,949.2999999523163,True,u,102579.59999990463,1463.5999999046326,1669834411451,1464,,HRV,HRV_0215,2022-11-30 18:56:57
56,"[{'imgObject': {}, 'id': 'cherry tomato', 'src': '/static/foodstim60/cherry tomato.jpg', 'key': 'u', 'origWidth': 410, 'origHeight': 410, 'width': 410, 'height': 410, 'widthPercent': 0.45, 'rescaleHeight': False, 'trialN': 56, 'loaded': True, 'loadedTime': 3701.399999976158, 'positionName': 'LEFT', 'positionCoords': [242.8, 179], 'bid': 0.79}, {'imgObject': {}, 'id': 'banana', 'src': '/static/foodstim60/banana.jpg', 'key': 'i', 'origWidth': 410, 'origHeight': 410, 'width': 410, 'height': 410, 'widthPercent': 0.45, 'rescaleHeight': False, 'trialN': 56, 'loaded': True, 'loadedTime': 3709.0999999046326, 'positionName': 'RIGHT', 'positionCoords': [707.2, 179], 'bid': 0.05}]",102581.29999995232,1669834411453,cherry tomato,banana,0.79,0.05,-0.74,cherry tomato,1019,1019,1019.2000000476837,True,u,104113.69999992847,1532.3999999761581,1669834412985,1532,,HRV,HRV_0215,2022-11-30 18:56:57
57,"[{'imgObject': {}, 'id': 'ice cream sundae 002', 'src': '/static/foodstim60/ice cream sundae 002.jpg', 'key': 'u', 'origWidth': 409, 'origHeight': 409, 'width': 409, 'height': 409, 'widthPercent': 0.45, 'rescaleHeight': False, 'trialN': 57, 'loaded': True, 'loadedTime': 3698.399999976158, 'positionName': 'LEFT', 'positionCoords': [243.8, 179.5], 'bid': 2.32}, {'imgObject': {}, 'id': 'fruitsalad', 'src': '/static/foodstim60/fruitsalad.jpg', 'key': 'i', 'origWidth': 410, 'origHeight': 410, 'width': 410, 'height': 410, 'widthPercent': 0.45, 'rescaleHeight': False, 'trialN': 57, 'loaded': True, 'loadedTime': 3710.7999999523163, 'positionName': 'RIGHT', 'positionCoords': [707.2, 179], 'bid': 2.41}]",104115.59999990463,1669834412987,ice cream sundae 002,fruitsalad,2.32,2.41,0.0900000000000003,fruitsalad,724.3000000715256,725,724.7000000476837,True,i,105352.69999992847,1237.1000000238419,1669834414224,1237,,HRV,HRV_0215,2022-11-30 18:56:57
58,"[{'imgObject': {}, 'id': 'cocktailshrimp', 'src': '/static/foodstim60/cocktailshrimp.jpg', 'key': 'u', 'origWidth': 410, 'origHeight': 410, 'width': 410, 'height': 410, 'widthPercent': 0.45, 'rescaleHeight': False, 'trialN': 58, 'loaded': True, 'loadedTime': 3440.0999999046326, 'positionName': 'LEFT', 'positionCoords': [242.8, 179], 'bid': 0.04}, {'imgObject': {}, 'id': 'blackbeanswithrice', 'src': '/static/foodstim60/blackbeanswithrice.jpg', 'key': 'i', 'origWidth': 410, 'origHeight': 410, 'width': 410, 'height': 410, 'widthPercent': 0.45, 'rescaleHeight': False, 'trialN': 58, 'loaded': True, 'loadedTime': 3069.7999999523163, 'positionName': 'RIGHT', 'positionCoords': [707.2, 179], 'bid': 0}]",105354.59999990463,1669834414226,cocktailshrimp,blackbeanswithrice,0.04,0.0,-0.04,blackbeanswithrice,1155.7000000476837,1156,1156.0,True,i,107021.79999995232,1667.2000000476837,1669834415893,1667,,HRV,HRV_0215,2022-11-30 18:56:57
59,"[{'imgObject': {}, 'id': 'rigatoni and sauce', 'src': '/static/foodstim60/rigatoni and sauce.jpg', 'key': 'u', 'origWidth': 410, 'origHeight': 411, 'width': 410, 'height': 411, 'widthPercent': 0.45, 'rescaleHeight': False, 'trialN': 59, 'loaded': True, 'loadedTime': 3204, 'positionName': 'LEFT', 'positionCoords': [242.8, 178.5], 'bid': 3.36}, {'imgObject': {}, 'id': 'eggsalad', 'src': '/static/foodstim60/eggsalad.jpg', 'key': 'i', 'origWidth': 410, 'origHeight': 409, 'width': 410, 'height': 409, 'widthPercent': 0.45, 'rescaleHeight': False, 'trialN': 59, 'loaded': True, 'loadedTime': 3712.1999999284744, 'positionName': 'RIGHT', 'positionCoords': [707.2, 179.5], 'bid': 4.41}]",107023.59999990463,1669834415895,rigatoni and sauce,eggsalad,3.36,4.41,1.0500000000000003,rigatoni and sauce,1060.4000000953674,1061,1060.7000000476837,True,u,108596.79999995232,1573.2000000476837,1669834417468,1573,,HRV,HRV_0215,2022-11-30 18:56:57
60,"[{'imgObject': {}, 'id': 'kiwi', 'src': '/static/foodstim60/kiwi.jpg', 'key': 'u', 'origWidth': 410, 'origHeight': 410, 'width': 410, 'height': 410, 'widthPercent': 0.45, 'rescaleHeight': False, 'trialN': 60, 'loaded': True, 'loadedTime': 3289.1999999284744, 'positionName': 'LEFT', 'positionCoords': [242.8, 179], 'bid': 5.19}, {'imgObject': {}, 'id': 'bagel plain', 'src': '/static/foodstim60/bagel plain.jpg', 'key': 'i', 'origWidth': 410, 'origHeight': 410, 'width': 410, 'height': 410, 'widthPercent': 0.45, 'rescaleHeight': False, 'trialN': 60, 'loaded': True, 'loadedTime': 2988.5, 'positionName': 'RIGHT', 'positionCoords': [707.2, 179], 'bid': 4.94}]",108598.59999990463,1669834417470,kiwi,bagel plain,5.19,4.94,-0.25,kiwi,1016.8000000715256,1017,1017.2000000476837,True,u,110130.09999990463,1531.5,1669834419001,1531,,HRV,HRV_0215,2022-11-30 18:56:57
61,"[{'imgObject': {}, 'id': 'yogurt no spoon', 'src': '/static/foodstim60/yogurt no spoon.jpg', 'key': 'u', 'origWidth': 411, 'origHeight': 410, 'width': 411, 'height': 410, 'widthPercent': 0.45, 'rescaleHeight': False, 'trialN': 61, 'loaded': True, 'loadedTime': 3361.899999976158, 'positionName': 'LEFT', 'positionCoords': [241.8, 179], 'bid': 3.0700000000000003}, {'imgObject': {}, 'id': 'salmon', 'src': '/static/foodstim60/salmon.jpg', 'key': 'i', 'origWidth': 410, 'origHeight': 409, 'width': 410, 'height': 409, 'widthPercent': 0.45, 'rescaleHeight': False, 'trialN': 61, 'loaded': True, 'loadedTime': 3301.7999999523163, 'positionName': 'RIGHT', 'positionCoords': [707.2, 179.5], 'bid': 2.98}]",110132.79999995232,1669834419004,yogurt no spoon,salmon,3.0700000000000003,2.98,-0.0900000000000003,salmon,1314.8999999761581,1315,1315.2999999523163,True,i,111963.79999995232,1831.0,1669834420835,1831,,HRV,HRV_0215,2022-11-30 18:56:57
62,"[{'imgObject': {}, 'id': 'popsicles', 'src': '/static/foodstim60/popsicles.jpg', 'key': 'u', 'origWidth': 410, 'origHeight': 410, 'width': 410, 'height': 410, 'widthPercent': 0.45, 'rescaleHeight': False, 'trialN': 62, 'loaded': True, 'loadedTime': 4617.599999904633, 'positionName': 'LEFT', 'positionCoords': [242.8, 179], 'bid': 2.07}, {'imgObject': {}, 'id': 'turkey sandwich', 'src': '/static/foodstim60/turkey sandwich.jpg', 'key': 'i', 'origWidth': 409, 'origHeight': 409, 'width': 409, 'height': 409, 'widthPercent': 0.45, 'rescaleHeight': False, 'trialN': 62, 'loaded': True, 'loadedTime': 3704.0999999046326, 'positionName': 'RIGHT', 'positionCoords': [707.2, 179.5], 'bid': 7.67}]",111965.69999992847,1669834420837,popsicles,turkey sandwich,2.07,7.67,5.6,popsicles,1323.7000000476837,1324,1324.1000000238419,True,u,113798.59999990463,1832.8999999761581,1669834422670,1833,,HRV,HRV_0215,2022-11-30 18:56:57
63,"[{'imgObject': {}, 'id': 'banana', 'src': '/static/foodstim60/banana.jpg', 'key': 'u', 'origWidth': 410, 'origHeight': 410, 'width': 410, 'height': 410, 'widthPercent': 0.45, 'rescaleHeight': False, 'trialN': 63, 'loaded': True, 'loadedTime': 3709.1999999284744, 'positionName': 'LEFT', 'positionCoords': [242.8, 179], 'bid': 0.05}, {'imgObject': {}, 'id': 'olives', 'src': '/static/foodstim60/olives.jpg', 'key': 'i', 'origWidth': 410, 'origHeight': 410, 'width': 410, 'height': 410, 'widthPercent': 0.45, 'rescaleHeight': False, 'trialN': 63, 'loaded': True, 'loadedTime': 3148.6999999284744, 'positionName': 'RIGHT', 'positionCoords': [707.2, 179], 'bid': 0}]",113801.29999995232,1669834422673,banana,olives,0.05,0.0,-0.05,banana,1025.2999999523163,1025,1025.6000000238419,True,u,115340.19999992847,1538.8999999761581,1669834424211,1538,,HRV,HRV_0215,2022-11-30 18:56:57
64,"[{'imgObject': {}, 'id': 'blueberries', 'src': '/static/foodstim60/blueberries.jpg', 'key': 'u', 'origWidth': 411, 'origHeight': 411, 'width': 411, 'height': 411, 'widthPercent': 0.45, 'rescaleHeight': False, 'trialN': 64, 'loaded': True, 'loadedTime': 4575.599999904633, 'positionName': 'LEFT', 'positionCoords': [241.8, 178.5], 'bid': 0.52}, {'imgObject': {}, 'id': 'granola w milk', 'src': '/static/foodstim60/granola w milk.jpg', 'key': 'i', 'origWidth': 410, 'origHeight': 410, 'width': 410, 'height': 410, 'widthPercent': 0.45, 'rescaleHeight': False, 'trialN': 64, 'loaded': True, 'loadedTime': 3478.2999999523163, 'positionName': 'RIGHT', 'positionCoords': [707.2, 179], 'bid': 1.17}]",115342.19999992847,1669834424213,blueberries,granola w milk,0.52,1.17,0.6499999999999999,granola w milk,992.1000000238419,993,992.3999999761581,True,i,116845.09999990463,1502.8999999761581,1669834425716,1503,,HRV,HRV_0215,2022-11-30 18:56:57
65,"[{'imgObject': {}, 'id': 'seaweed', 'src': '/static/foodstim60/seaweed.jpg', 'key': 'u', 'origWidth': 410, 'origHeight': 410, 'width': 410, 'height': 410, 'widthPercent': 0.45, 'rescaleHeight': False, 'trialN': 65, 'loaded': True, 'loadedTime': 2922.899999976158, 'positionName': 'LEFT', 'positionCoords': [242.8, 179], 'bid': 0}, {'imgObject': {}, 'id': 'yogurt no spoon', 'src': '/static/foodstim60/yogurt no spoon.jpg', 'key': 'i', 'origWidth': 411, 'origHeight': 410, 'width': 411, 'height': 410, 'widthPercent': 0.45, 'rescaleHeight': False, 'trialN': 65, 'loaded': True, 'loadedTime': 3360.7999999523163, 'positionName': 'RIGHT', 'positionCoords': [707.2, 179], 'bid': 3.0700000000000003}]",116847.79999995232,1669834425719,seaweed,yogurt no spoon,0.0,3.0700000000000003,3.0700000000000003,yogurt no spoon,970.5,971,970.8999999761581,True,i,118330.59999990463,1482.7999999523163,1669834427202,1483,,HRV,HRV_0215,2022-11-30 18:56:57
66,"[{'imgObject': {}, 'id': 'steak', 'src': '/static/foodstim60/steak.jpg', 'key': 'u', 'origWidth': 410, 'origHeight': 410, 'width': 410, 'height': 410, 'widthPercent': 0.45, 'rescaleHeight': False, 'trialN': 66, 'loaded': True, 'loadedTime': 3702.6999999284744, 'positionName': 'LEFT', 'positionCoords': [242.8, 179], 'bid': 8.01}, {'imgObject': {}, 'id': 'cheerios', 'src': '/static/foodstim60/cheerios.jpg', 'key': 'i', 'origWidth': 409, 'origHeight': 410, 'width': 409, 'height': 410, 'widthPercent': 0.45, 'rescaleHeight': False, 'trialN': 66, 'loaded': True, 'loadedTime': 3360.5999999046326, 'positionName': 'RIGHT', 'positionCoords': [707.2, 179], 'bid': 6.51}]",118333.39999997616,1669834427205,steak,cheerios,8.01,6.51,-1.5,cheerios,838.3999999761581,838,838.7999999523163,True,i,119687.69999992847,1354.2999999523163,1669834428559,1354,,HRV,HRV_0215,2022-11-30 18:56:57
67,"[{'imgObject': {}, 'id': 'blackbeanswithrice', 'src': '/static/foodstim60/blackbeanswithrice.jpg', 'key': 'u', 'origWidth': 410, 'origHeight': 410, 'width': 410, 'height': 410, 'widthPercent': 0.45, 'rescaleHeight': False, 'trialN': 67, 'loaded': True, 'loadedTime': 3071.7999999523163, 'positionName': 'LEFT', 'positionCoords': [242.8, 179], 'bid': 0}, {'imgObject': {}, 'id': 'edamame', 'src': '/static/foodstim60/edamame.jpg', 'key': 'i', 'origWidth': 409, 'origHeight': 410, 'width': 409, 'height': 410, 'widthPercent': 0.45, 'rescaleHeight': False, 'trialN': 67, 'loaded': True, 'loadedTime': 4583.899999976158, 'positionName': 'RIGHT', 'positionCoords': [707.2, 179], 'bid': 0.14}]",119690.19999992847,1669834428562,blackbeanswithrice,edamame,0.0,0.14,0.14,edamame,957.7000000476837,947,958.0,True,i,121163.59999990463,1473.3999999761581,1669834430024,1462,,HRV,HRV_0215,2022-11-30 18:56:57
68,"[{'imgObject': {}, 'id': 'orange slices', 'src': '/static/foodstim60/orange slices.jpg', 'key': 'u', 'origWidth': 409, 'origHeight': 410, 'width': 409, 'height': 410, 'widthPercent': 0.45, 'rescaleHeight': False, 'trialN': 68, 'loaded': True, 'loadedTime': 3173.5999999046326, 'positionName': 'LEFT', 'positionCoords': [243.8, 179], 'bid': 0}, {'imgObject': {}, 'id': 'blueberries', 'src': '/static/foodstim60/blueberries.jpg', 'key': 'i', 'origWidth': 411, 'origHeight': 411, 'width': 411, 'height': 411, 'widthPercent': 0.45, 'rescaleHeight': False, 'trialN': 68, 'loaded': True, 'loadedTime': 4583.699999928474, 'positionName': 'RIGHT', 'positionCoords': [707.2, 178.5], 'bid': 0.52}]",121166.5,1669834430027,orange slices,blueberries,0.0,0.52,0.52,blueberries,901,901,901.3999999761581,True,i,122579.5,1413.0,1669834431440,1413,,HRV,HRV_0215,2022-11-30 18:56:57
69,"[{'imgObject': {}, 'id': 'turkeysandwich', 'src': '/static/foodstim60/turkeysandwich.jpg', 'key': 'u', 'origWidth': 409, 'origHeight': 409, 'width': 409, 'height': 409, 'widthPercent': 0.45, 'rescaleHeight': False, 'trialN': 69, 'loaded': True, 'loadedTime': 3293.399999976158, 'positionName': 'LEFT', 'positionCoords': [243.8, 179.5], 'bid': 7.08}, {'imgObject': {}, 'id': 'grilled chicken strips', 'src': '/static/foodstim60/grilled chicken strips.jpg', 'key': 'i', 'origWidth': 410, 'origHeight': 411, 'width': 410, 'height': 411, 'widthPercent': 0.45, 'rescaleHeight': False, 'trialN': 69, 'loaded': True, 'loadedTime': 3663.2999999523163, 'positionName': 'RIGHT', 'positionCoords': [707.2, 178.5], 'bid': 8.19}]",122581.89999997616,1669834431442,turkeysandwich,grilled chicken strips,7.08,8.19,1.1099999999999994,turkeysandwich,698.5,699,698.8999999761581,True,u,123800.09999990463,1218.1999999284744,1669834432660,1218,,HRV,HRV_0215,2022-11-30 18:56:57
70,"[{'imgObject': {}, 'id': 'burger', 'src': '/static/foodstim60/burger.jpg', 'key': 'u', 'origWidth': 409, 'origHeight': 409, 'width': 409, 'height': 409, 'widthPercent': 0.45, 'rescaleHeight': False, 'trialN': 70, 'loaded': True, 'loadedTime': 4584, 'positionName': 'LEFT', 'positionCoords': [243.8, 179.5], 'bid': 4.98}, {'imgObject': {}, 'id': 'strawberries', 'src': '/static/foodstim60/strawberries.jpg', 'key': 'i', 'origWidth': 410, 'origHeight': 410, 'width': 410, 'height': 410, 'widthPercent': 0.45, 'rescaleHeight': False, 'trialN': 70, 'loaded': True, 'loadedTime': 3538.7999999523163, 'positionName': 'RIGHT', 'positionCoords': [707.2, 179], 'bid': 0.23}]",123802.89999997616,1669834432663,burger,strawberries,4.98,0.23,-4.75,strawberries,928.7999999523163,930,929.2999999523163,True,i,125241.5,1438.6000000238419,1669834434102,1439,,HRV,HRV_0215,2022-11-30 18:56:57
71,"[{'imgObject': {}, 'id': 'popsicles', 'src': '/static/foodstim60/popsicles.jpg', 'key': 'u', 'origWidth': 410, 'origHeight': 410, 'width': 410, 'height': 410, 'widthPercent': 0.45, 'rescaleHeight': False, 'trialN': 71, 'loaded': True, 'loadedTime': 4617.5, 'positionName': 'LEFT', 'positionCoords': [242.8, 179], 'bid': 2.07}, {'imgObject': {}, 'id': 'yogurt no spoon', 'src': '/static/foodstim60/yogurt no spoon.jpg', 'key': 'i', 'origWidth': 411, 'origHeight': 410, 'width': 411, 'height': 410, 'widthPercent': 0.45, 'rescaleHeight': False, 'trialN': 71, 'loaded': True, 'loadedTime': 3362, 'positionName': 'RIGHT', 'positionCoords': [707.2, 179], 'bid': 3.0700000000000003}]",125243.5,1669834434104,popsicles,yogurt no spoon,2.07,3.0700000000000003,1.0000000000000004,yogurt no spoon,905.7999999523163,906,906.3999999761581,True,i,126653.5,1410.0,1669834435514,1410,,HRV,HRV_0215,2022-11-30 18:56:57
72,"[{'imgObject': {}, 'id': 'burrito', 'src': '/static/foodstim60/burrito.jpg', 'key': 'u', 'origWidth': 410, 'origHeight': 410, 'width': 410, 'height': 410, 'widthPercent': 0.45, 'rescaleHeight': False, 'trialN': 72, 'loaded': True, 'loadedTime': 3121.5999999046326, 'positionName': 'LEFT', 'positionCoords': [242.8, 179], 'bid': 6.6000000000000005}, {'imgObject': {}, 'id': 'mashed potato', 'src': '/static/foodstim60/mashed potato.jpg', 'key': 'i', 'origWidth': 409, 'origHeight': 409, 'width': 409, 'height': 409, 'widthPercent': 0.45, 'rescaleHeight': False, 'trialN': 72, 'loaded': True, 'loadedTime': 3233, 'positionName': 'RIGHT', 'positionCoords': [707.2, 179.5], 'bid': 6.83}]",126655.79999995232,1669834435516,burrito,mashed potato,6.6000000000000005,6.83,0.22999999999999954,burrito,967.8999999761581,968,968.2000000476837,True,u,128132.59999990463,1476.7999999523163,1669834436993,1477,,HRV,HRV_0215,2022-11-30 18:56:57
73,"[{'imgObject': {}, 'id': 'cocktailshrimp', 'src': '/static/foodstim60/cocktailshrimp.jpg', 'key': 'u', 'origWidth': 410, 'origHeight': 410, 'width': 410, 'height': 410, 'widthPercent': 0.45, 'rescaleHeight': False, 'trialN': 73, 'loaded': True, 'loadedTime': 3440.1999999284744, 'positionName': 'LEFT', 'positionCoords': [242.8, 179], 'bid': 0.04}, {'imgObject': {}, 'id': 'corn cob', 'src': '/static/foodstim60/corn cob.jpg', 'key': 'i', 'origWidth': 411, 'origHeight': 411, 'width': 411, 'height': 411, 'widthPercent': 0.45, 'rescaleHeight': False, 'trialN': 73, 'loaded': True, 'loadedTime': 3706.0999999046326, 'positionName': 'RIGHT', 'positionCoords': [707.2, 178.5], 'bid': 1.3}]",128134.69999992847,1669834436995,cocktailshrimp,corn cob,0.04,1.3,1.26,cocktailshrimp,994.3999999761581,995,994.8000000715256,True,u,129642.89999997616,1508.2000000476837,1669834438503,1508,,HRV,HRV_0215,2022-11-30 18:56:57
74,"[{'imgObject': {}, 'id': 'kiwi', 'src': '/static/foodstim60/kiwi.jpg', 'key': 'u', 'origWidth': 410, 'origHeight': 410, 'width': 410, 'height': 410, 'widthPercent': 0.45, 'rescaleHeight': False, 'trialN': 74, 'loaded': True, 'loadedTime': 3289.2999999523163, 'positionName': 'LEFT', 'positionCoords': [242.8, 179], 'bid': 5.19}, {'imgObject': {}, 'id': 'burger', 'src': '/static/foodstim60/burger.jpg', 'key': 'i', 'origWidth': 409, 'origHeight': 409, 'width': 409, 'height': 409, 'widthPercent': 0.45, 'rescaleHeight': False, 'trialN': 74, 'loaded': True, 'loadedTime': 4584, 'positionName': 'RIGHT', 'positionCoords': [707.2, 179.5], 'bid': 4.98}]",129644.89999997616,1669834438505,kiwi,burger,5.19,4.98,-0.20999999999999996,kiwi,837,838,837.2999999523163,True,u,130989.79999995232,1344.8999999761581,1669834439850,1345,,HRV,HRV_0215,2022-11-30 18:56:57
75,"[{'imgObject': {}, 'id': 'mac & cheese', 'src': '/static/foodstim60/mac & cheese.jpg', 'key': 'u', 'origWidth': 410, 'origHeight': 410, 'width': 410, 'height': 410, 'widthPercent': 0.45, 'rescaleHeight': False, 'trialN': 75, 'loaded': True, 'loadedTime': 3299.399999976158, 'positionName': 'LEFT', 'positionCoords': [242.8, 179], 'bid': 6.140000000000001}, {'imgObject': {}, 'id': 'Tribe humus pita', 'src': '/static/foodstim60/Tribe humus pita.jpg', 'key': 'i', 'origWidth': 411, 'origHeight': 411, 'width': 411, 'height': 411, 'widthPercent': 0.45, 'rescaleHeight': False, 'trialN': 75, 'loaded': True, 'loadedTime': 3659.899999976158, 'positionName': 'RIGHT', 'positionCoords': [707.2, 178.5], 'bid': 5.83}]",130991.69999992847,1669834439852,mac & cheese,Tribe humus pita,6.140000000000001,5.83,-0.3100000000000005,mac & cheese,650,650,650.3000000715256,True,u,132151.09999990463,1159.3999999761581,1669834441012,1160,,HRV,HRV_0215,2022-11-30 18:56:57
76,"[{'imgObject': {}, 'id': 'fried eggs', 'src': '/static/foodstim60/fried eggs.jpg', 'key': 'u', 'origWidth': 410, 'origHeight': 410, 'width': 410, 'height': 410, 'widthPercent': 0.45, 'rescaleHeight': False, 'trialN': 76, 'loaded': True, 'loadedTime': 3579.2999999523163, 'positionName': 'LEFT', 'positionCoords': [242.8, 179], 'bid': 3.75}, {'imgObject': {}, 'id': 'kiwi', 'src': '/static/foodstim60/kiwi.jpg', 'key': 'i', 'origWidth': 410, 'origHeight': 410, 'width': 410, 'height': 410, 'widthPercent': 0.45, 'rescaleHeight': False, 'trialN': 76, 'loaded': True, 'loadedTime': 3289.6999999284744, 'positionName': 'RIGHT', 'positionCoords': [707.2, 179], 'bid': 5.19}]",132153.69999992847,1669834441014,fried eggs,kiwi,3.75,5.19,1.4400000000000004,kiwi,430.3000000715256,431,430.60000002384186,True,i,133103.69999992847,950.0,1669834441964,950,,HRV,HRV_0215,2022-11-30 18:56:57
77,"[{'imgObject': {}, 'id': 'salmon', 'src': '/static/foodstim60/salmon.jpg', 'key': 'u', 'origWidth': 410, 'origHeight': 409, 'width': 410, 'height': 409, 'widthPercent': 0.45, 'rescaleHeight': False, 'trialN': 77, 'loaded': True, 'loadedTime': 3303.399999976158, 'positionName': 'LEFT', 'positionCoords': [242.8, 179.5], 'bid': 2.98}, {'imgObject': {}, 'id': 'tacos', 'src': '/static/foodstim60/tacos.jpg', 'key': 'i', 'origWidth': 411, 'origHeight': 411, 'width': 411, 'height': 411, 'widthPercent': 0.45, 'rescaleHeight': False, 'trialN': 77, 'loaded': True, 'loadedTime': 3075.5999999046326, 'positionName': 'RIGHT', 'positionCoords': [707.2, 178.5], 'bid': 3.16}]",133105.59999990463,1669834441966,salmon,tacos,2.98,3.16,0.18000000000000016,tacos,458,458,458.3000000715256,True,i,134078.89999997616,973.3000000715256,1669834442939,973,,HRV,HRV_0215,2022-11-30 18:56:57
78,"[{'imgObject': {}, 'id': 'bagel and cc', 'src': '/static/foodstim60/bagel and cc.jpg', 'key': 'u', 'origWidth': 410, 'origHeight': 410, 'width': 410, 'height': 410, 'widthPercent': 0.45, 'rescaleHeight': False, 'trialN': 78, 'loaded': True, 'loadedTime': 3658.1999999284744, 'positionName': 'LEFT', 'positionCoords': [242.8, 179], 'bid': 5.7}, {'imgObject': {}, 'id': 'salad w chicken', 'src': '/static/foodstim60/salad w chicken.jpg', 'key': 'i', 'origWidth': 411, 'origHeight': 411, 'width': 411, 'height': 411, 'widthPercent': 0.45, 'rescaleHeight': False, 'trialN': 78, 'loaded': True, 'loadedTime': 3259.7999999523163, 'positionName': 'RIGHT', 'positionCoords': [707.2, 178.5], 'bid': 6.11}]",134081.79999995232,1669834442942,bagel and cc,salad w chicken,5.7,6.11,0.41000000000000014,salad w chicken,851.7000000476837,852,852.2000000476837,True,i,135447.59999990463,1365.7999999523163,1669834444308,1366,,HRV,HRV_0215,2022-11-30 18:56:57
79,"[{'imgObject': {}, 'id': 'blueberries', 'src': '/static/foodstim60/blueberries.jpg', 'key': 'u', 'origWidth': 411, 'origHeight': 411, 'width': 411, 'height': 411, 'widthPercent': 0.45, 'rescaleHeight': False, 'trialN': 79, 'loaded': True, 'loadedTime': 3712.2999999523163, 'positionName': 'LEFT', 'positionCoords': [241.8, 178.5], 'bid': 0.52}, {'imgObject': {}, 'id': 'bagel and cc', 'src': '/static/foodstim60/bagel and cc.jpg', 'key': 'i', 'origWidth': 410, 'origHeight': 410, 'width': 410, 'height': 410, 'widthPercent': 0.45, 'rescaleHeight': False, 'trialN': 79, 'loaded': True, 'loadedTime': 3627.1999999284744, 'positionName': 'RIGHT', 'positionCoords': [707.2, 179], 'bid': 5.7}]",135450.39999997616,1669834444311,blueberries,bagel and cc,0.52,5.7,5.18,blueberries,1066.2999999523163,1066,1066.5,True,u,137022.39999997616,1572.0,1669834445883,1572,,HRV,HRV_0215,2022-11-30 18:56:57
80,"[{'imgObject': {}, 'id': 'grilled chicken strips', 'src': '/static/foodstim60/grilled chicken strips.jpg', 'key': 'u', 'origWidth': 410, 'origHeight': 411, 'width': 410, 'height': 411, 'widthPercent': 0.45, 'rescaleHeight': False, 'trialN': 80, 'loaded': True, 'loadedTime': 3663.399999976158, 'positionName': 'LEFT', 'positionCoords': [242.8, 178.5], 'bid': 8.19}, {'imgObject': {}, 'id': 'steak', 'src': '/static/foodstim60/steak.jpg', 'key': 'i', 'origWidth': 410, 'origHeight': 410, 'width': 410, 'height': 410, 'widthPercent': 0.45, 'rescaleHeight': False, 'trialN': 80, 'loaded': True, 'loadedTime': 3703, 'positionName': 'RIGHT', 'positionCoords': [707.2, 179], 'bid': 8.01}]",137024.29999995232,1669834445885,grilled chicken strips,steak,8.19,8.01,-0.17999999999999972,grilled chicken strips,837.3999999761581,838,837.8999999761581,True,u,138365.29999995232,1341.0,1669834447226,1341,,HRV,HRV_0215,2022-11-30 18:56:57
81,"[{'imgObject': {}, 'id': 'pear', 'src': '/static/foodstim60/pear.jpg', 'key': 'u', 'origWidth': 411, 'origHeight': 410, 'width': 411, 'height': 410, 'widthPercent': 0.45, 'rescaleHeight': False, 'trialN': 81, 'loaded': True, 'loadedTime': 3707.6999999284744, 'positionName': 'LEFT', 'positionCoords': [241.8, 179], 'bid': 1.7}, {'imgObject': {}, 'id': 'tacos', 'src': '/static/foodstim60/tacos.jpg', 'key': 'i', 'origWidth': 411, 'origHeight': 411, 'width': 411, 'height': 411, 'widthPercent': 0.45, 'rescaleHeight': False, 'trialN': 81, 'loaded': True, 'loadedTime': 3096.6999999284744, 'positionName': 'RIGHT', 'positionCoords': [707.2, 178.5], 'bid': 3.16}]",138369.09999990463,1669834447229,pear,tacos,1.7,3.16,1.4600000000000002,tacos,160.90000009536743,162,161.20000004768372,True,i,139037.79999995232,668.7000000476837,1669834447898,669,,HRV,HRV_0215,2022-11-30 18:56:57
82,"[{'imgObject': {}, 'id': 'steak', 'src': '/static/foodstim60/steak.jpg', 'key': 'u', 'origWidth': 410, 'origHeight': 410, 'width': 410, 'height': 410, 'widthPercent': 0.45, 'rescaleHeight': False, 'trialN': 82, 'loaded': True, 'loadedTime': 3702.899999976158, 'positionName': 'LEFT', 'positionCoords': [242.8, 179], 'bid': 8.01}, {'imgObject': {}, 'id': 'eggs', 'src': '/static/foodstim60/eggs.jpg', 'key': 'i', 'origWidth': 409, 'origHeight': 409, 'width': 409, 'height': 409, 'widthPercent': 0.45, 'rescaleHeight': False, 'trialN': 82, 'loaded': True, 'loadedTime': 3435.7999999523163, 'positionName': 'RIGHT', 'positionCoords': [707.2, 179.5], 'bid': 7.51}]",139039.59999990463,1669834447900,steak,eggs,8.01,7.51,-0.5,steak,1365.8000000715256,1366,1366.2000000476837,True,u,140914.29999995232,1874.7000000476837,1669834449775,1875,,HRV,HRV_0215,2022-11-30 18:56:57
83,"[{'imgObject': {}, 'id': 'blueberries', 'src': '/static/foodstim60/blueberries.jpg', 'key': 'u', 'origWidth': 411, 'origHeight': 411, 'width': 411, 'height': 411, 'widthPercent': 0.45, 'rescaleHeight': False, 'trialN': 83, 'loaded': True, 'loadedTime': 4583.699999928474, 'positionName': 'LEFT', 'positionCoords': [241.8, 178.5], 'bid': 0.52}, {'imgObject': {}, 'id': 'apple slices', 'src': '/static/foodstim60/apple slices.jpg', 'key': 'i', 'origWidth': 409, 'origHeight': 410, 'width': 409, 'height': 410, 'widthPercent': 0.45, 'rescaleHeight': False, 'trialN': 83, 'loaded': True, 'loadedTime': 3042.0999999046326, 'positionName': 'RIGHT', 'positionCoords': [707.2, 179], 'bid': 0.55}]",140916.5,1669834449777,blueberries,apple slices,0.52,0.55,0.030000000000000027,apple slices,1667,1667,1667.1999999284744,True,i,143100.69999992847,2184.1999999284744,1669834451961,2184,,HRV,HRV_0215,2022-11-30 18:56:57
84,"[{'imgObject': {}, 'id': 'avocado', 'src': '/static/foodstim60/avocado.jpg', 'key': 'u', 'origWidth': 409, 'origHeight': 409, 'width': 409, 'height': 409, 'widthPercent': 0.45, 'rescaleHeight': False, 'trialN': 84, 'loaded': True, 'loadedTime': 4584, 'positionName': 'LEFT', 'positionCoords': [243.8, 179.5], 'bid': 0.13}, {'imgObject': {}, 'id': 'pear', 'src': '/static/foodstim60/pear.jpg', 'key': 'i', 'origWidth': 411, 'origHeight': 410, 'width': 411, 'height': 410, 'widthPercent': 0.45, 'rescaleHeight': False, 'trialN': 84, 'loaded': True, 'loadedTime': 3706.399999976158, 'positionName': 'RIGHT', 'positionCoords': [707.2, 179], 'bid': 1.7}]",143102.39999997616,1669834451963,avocado,pear,0.13,1.7,1.5699999999999998,avocado,910.2999999523163,911,910.6999999284744,True,u,144528.0,1425.6000000238419,1669834453388,1425,,HRV,HRV_0215,2022-11-30 18:56:57
85,"[{'imgObject': {}, 'id': 'granola w milk', 'src': '/static/foodstim60/granola w milk.jpg', 'key': 'u', 'origWidth': 410, 'origHeight': 410, 'width': 410, 'height': 410, 'widthPercent': 0.45, 'rescaleHeight': False, 'trialN': 85, 'loaded': True, 'loadedTime': 3480.0999999046326, 'positionName': 'LEFT', 'positionCoords': [242.8, 179], 'bid': 1.17}, {'imgObject': {}, 'id': 'corn cob', 'src': '/static/foodstim60/corn cob.jpg', 'key': 'i', 'origWidth': 411, 'origHeight': 411, 'width': 411, 'height': 411, 'widthPercent': 0.45, 'rescaleHeight': False, 'trialN': 85, 'loaded': True, 'loadedTime': 3706.2999999523163, 'positionName': 'RIGHT', 'positionCoords': [707.2, 178.5], 'bid': 1.3}]",144530.89999997616,1669834453391,granola w milk,corn cob,1.17,1.3,0.13000000000000012,granola w milk,1459,1460,1459.3999999761581,True,u,146495.59999990463,1964.6999999284744,1669834455356,1965,,HRV,HRV_0215,2022-11-30 18:56:57
86,"[{'imgObject': {}, 'id': 'omelette', 'src': '/static/foodstim60/omelette.jpg', 'key': 'u', 'origWidth': 410, 'origHeight': 409, 'width': 410, 'height': 409, 'widthPercent': 0.45, 'rescaleHeight': False, 'trialN': 86, 'loaded': True, 'loadedTime': 3660.2999999523163, 'positionName': 'LEFT', 'positionCoords': [242.8, 179.5], 'bid': 0}, {'imgObject': {}, 'id': 'salmon', 'src': '/static/foodstim60/salmon.jpg', 'key': 'i', 'origWidth': 410, 'origHeight': 409, 'width': 410, 'height': 409, 'widthPercent': 0.45, 'rescaleHeight': False, 'trialN': 86, 'loaded': True, 'loadedTime': 3300.2999999523163, 'positionName': 'RIGHT', 'positionCoords': [707.2, 179.5], 'bid': 2.98}]",146498.5,1669834455359,omelette,salmon,0.0,2.98,2.98,salmon,1228,1228,1228.5999999046326,True,i,148230.19999992847,1731.6999999284744,1669834457091,1732,,HRV,HRV_0215,2022-11-30 18:56:57
87,"[{'imgObject': {}, 'id': 'omelette', 'src': '/static/foodstim60/omelette.jpg', 'key': 'u', 'origWidth': 410, 'origHeight': 409, 'width': 410, 'height': 409, 'widthPercent': 0.45, 'rescaleHeight': False, 'trialN': 87, 'loaded': True, 'loadedTime': 3661.7999999523163, 'positionName': 'LEFT', 'positionCoords': [242.8, 179.5], 'bid': 0}, {'imgObject': {}, 'id': 'sweetpotato', 'src': '/static/foodstim60/sweetpotato.jpg', 'key': 'i', 'origWidth': 410, 'origHeight': 410, 'width': 410, 'height': 410, 'widthPercent': 0.45, 'rescaleHeight': False, 'trialN': 87, 'loaded': True, 'loadedTime': 3233.6999999284744, 'positionName': 'RIGHT', 'positionCoords': [707.2, 179], 'bid': 0.13}]",148231.89999997616,1669834457092,omelette,sweetpotato,0.0,0.13,0.13,omelette,1120.5,1122,1121.5,True,u,149866.09999990463,1634.1999999284744,1669834458727,1635,,HRV,HRV_0215,2022-11-30 18:56:57
88,"[{'imgObject': {}, 'id': 'seaweed', 'src': '/static/foodstim60/seaweed.jpg', 'key': 'u', 'origWidth': 410, 'origHeight': 410, 'width': 410, 'height': 410, 'widthPercent': 0.45, 'rescaleHeight': False, 'trialN': 88, 'loaded': True, 'loadedTime': 2925.0999999046326, 'positionName': 'LEFT', 'positionCoords': [242.8, 179], 'bid': 0}, {'imgObject': {}, 'id': 'omelette', 'src': '/static/foodstim60/omelette.jpg', 'key': 'i', 'origWidth': 410, 'origHeight': 409, 'width': 410, 'height': 409, 'widthPercent': 0.45, 'rescaleHeight': False, 'trialN': 88, 'loaded': True, 'loadedTime': 3661.899999976158, 'positionName': 'RIGHT', 'positionCoords': [707.2, 179.5], 'bid': 0}]",149868.79999995232,1669834458729,seaweed,omelette,0.0,0.0,0.0,NaN,NaN,NaN,,False,NaN,153903.69999992847,4034.899999976158,1669834462764,4035,"[{'event': 'fullscreenchange', 'details': 'fullscreenexit', 'performance time': 150879.39999997616, 'date time': 1669834459740}]",HRV,HRV_0215,2022-11-30 18:56:57
89,"[{'imgObject': {}, 'id': 'tacos', 'src': '/static/foodstim60/tacos.jpg', 'key': 'u', 'origWidth': 411, 'origHeight': 411, 'width': 411, 'height': 411, 'widthPercent': 0.45, 'rescaleHeight': False, 'trialN': 89, 'loaded': True, 'loadedTime': 153907.79999995232, 'positionName': 'LEFT', 'positionCoords': [241.8, 103], 'bid': 3.16}, {'imgObject': {}, 'id': 'ice cream sundae 002', 'src': '/static/foodstim60/ice cream sundae 002.jpg', 'key': 'i', 'origWidth': 409, 'origHeight': 409, 'width': 409, 'height': 409, 'widthPercent': 0.45, 'rescaleHeight': False, 'trialN': 89, 'loaded': True, 'loadedTime': 153912, 'positionName': 'RIGHT', 'positionCoords': [707.2, 104], 'bid': 2.32}]",153904.69999992847,1669834462765,tacos,ice cream sundae 002,3.16,2.32,-0.8400000000000003,tacos,1664.1000000238419,1664,1664.3999999761581,True,u,156081.39999997616,2176.7000000476837,1669834464942,2177,,HRV,HRV_0215,2022-11-30 18:56:57
90,"[{'imgObject': {}, 'id': 'froot loops w milk', 'src': '/static/foodstim60/froot loops w milk.jpg', 'key': 'u', 'origWidth': 410, 'origHeight': 410, 'width': 410, 'height': 410, 'widthPercent': 0.45, 'rescaleHeight': False, 'trialN': 90, 'loaded': True, 'loadedTime': 3323.5999999046326, 'positionName': 'LEFT', 'positionCoords': [242.8, 179], 'bid': 6.640000000000001}, {'imgObject': {}, 'id': 'granola w milk', 'src': '/static/foodstim60/granola w milk.jpg', 'key': 'i', 'origWidth': 410, 'origHeight': 410, 'width': 410, 'height': 410, 'widthPercent': 0.45, 'rescaleHeight': False, 'trialN': 90, 'loaded': True, 'loadedTime': 3490.2999999523163, 'positionName': 'RIGHT', 'positionCoords': [707.2, 179], 'bid': 1.17}]",160095.29999995232,1669834468956,froot loops w milk,granola w milk,6.640000000000001,1.17,-5.470000000000001,NaN,NaN,NaN,,False,NaN,164131.39999997616,4036.100000023842,1669834472992,4036,"[{'event': 'fullscreenchange', 'details': 'fullscreenenter', 'performance time': 160097.19999992847, 'date time': 1669834468958}, {'event': 'fullscreenchange', 'details': 'fullscreenexit', 'performance time': 162912.89999997616, 'date time': 1669834471773}]",HRV,HRV_0215,2022-11-30 18:56:57
91,"[{'imgObject': {}, 'id': 'lox', 'src': '/static/foodstim60/lox.jpg', 'key': 'u', 'origWidth': 410, 'origHeight': 411, 'width': 410, 'height': 411, 'widthPercent': 0.45, 'rescaleHeight': False, 'trialN': 91, 'loaded': True, 'loadedTime': 164134.79999995232, 'positionName': 'LEFT', 'positionCoords': [242.8, 103], 'bid': 0.66}, {'imgObject': {}, 'id': 'olives', 'src': '/static/foodstim60/olives.jpg', 'key': 'i', 'origWidth': 410, 'origHeight': 410, 'width': 410, 'height': 410, 'widthPercent': 0.45, 'rescaleHeight': False, 'trialN': 91, 'loaded': True, 'loadedTime': 164135.79999995232, 'positionName': 'RIGHT', 'positionCoords': [707.2, 103.5], 'bid': 0}]",164132.09999990463,1669834472993,lox,olives,0.66,0.0,-0.66,lox,3240,3240,3240.2000000476837,True,u,167882.69999992847,3750.600000023842,1669834476743,3750,,HRV,HRV_0215,2022-11-30 18:56:57
92,"[{'imgObject': {}, 'id': 'mango', 'src': '/static/foodstim60/mango.jpg', 'key': 'u', 'origWidth': 411, 'origHeight': 411, 'width': 411, 'height': 411, 'widthPercent': 0.45, 'rescaleHeight': False, 'trialN': 92, 'loaded': True, 'loadedTime': 167884.89999997616, 'positionName': 'LEFT', 'positionCoords': [241.8, 103], 'bid': 2.91}, {'imgObject': {}, 'id': 'fruitsalad', 'src': '/static/foodstim60/fruitsalad.jpg', 'key': 'i', 'origWidth': 410, 'origHeight': 410, 'width': 410, 'height': 410, 'widthPercent': 0.45, 'rescaleHeight': False, 'trialN': 92, 'loaded': True, 'loadedTime': 167886, 'positionName': 'RIGHT', 'positionCoords': [707.2, 103.5], 'bid': 2.41}]",167883.29999995232,1669834476744,mango,fruitsalad,2.91,2.41,-0.5,mango,1324.2999999523163,1324,1324.5,True,u,169727.89999997616,1844.6000000238419,1669834478588,1844,,HRV,HRV_0215,2022-11-30 18:56:57
93,"[{'imgObject': {}, 'id': 'sushi w_condiments', 'src': '/static/foodstim60/sushi w_condiments.jpg', 'key': 'u', 'origWidth': 410, 'origHeight': 410, 'width': 410, 'height': 410, 'widthPercent': 0.45, 'rescaleHeight': False, 'trialN': 93, 'loaded': True, 'loadedTime': 169730.19999992847, 'positionName': 'LEFT', 'positionCoords': [242.8, 103.5], 'bid': 0.04}, {'imgObject': {}, 'id': 'orange slices', 'src': '/static/foodstim60/orange slices.jpg', 'key': 'i', 'origWidth': 409, 'origHeight': 410, 'width': 409, 'height': 410, 'widthPercent': 0.45, 'rescaleHeight': False, 'trialN': 93, 'loaded': True, 'loadedTime': 169731.39999997616, 'positionName': 'RIGHT', 'positionCoords': [707.2, 103.5], 'bid': 0}]",169728.59999990463,1669834478589,sushi w_condiments,orange slices,0.04,0.0,-0.04,orange slices,1109.8000000715256,1110,1110.3000000715256,True,i,171352.69999992847,1624.1000000238419,1669834480213,1624,,HRV,HRV_0215,2022-11-30 18:56:57
94,"[{'imgObject': {}, 'id': 'chicken nuggets2', 'src': '/static/foodstim60/chicken nuggets2.jpg', 'key': 'u', 'origWidth': 410, 'origHeight': 409, 'width': 410, 'height': 409, 'widthPercent': 0.45, 'rescaleHeight': False, 'trialN': 94, 'loaded': True, 'loadedTime': 171355.89999997616, 'positionName': 'LEFT', 'positionCoords': [242.8, 104], 'bid': 4.72}, {'imgObject': {}, 'id': 'fried eggs', 'src': '/static/foodstim60/fried eggs.jpg', 'key': 'i', 'origWidth': 410, 'origHeight': 410, 'width': 410, 'height': 410, 'widthPercent': 0.45, 'rescaleHeight': False, 'trialN': 94, 'loaded': True, 'loadedTime': 171357.39999997616, 'positionName': 'RIGHT', 'positionCoords': [707.2, 103.5], 'bid': 3.75}]",171354.09999990463,1669834480215,chicken nuggets2,fried eggs,4.72,3.75,-0.9699999999999998,fried eggs,1305.6000000238419,1306,1306.0,True,i,173163.5,1809.4000000953674,1669834482024,1809,,HRV,HRV_0215,2022-11-30 18:56:57
95,"[{'imgObject': {}, 'id': 'chicken nuggets2', 'src': '/static/foodstim60/chicken nuggets2.jpg', 'key': 'u', 'origWidth': 410, 'origHeight': 409, 'width': 410, 'height': 409, 'widthPercent': 0.45, 'rescaleHeight': False, 'trialN': 95, 'loaded': True, 'loadedTime': 173166.59999990463, 'positionName': 'LEFT', 'positionCoords': [242.8, 104], 'bid': 4.72}, {'imgObject': {}, 'id': 'Tribe humus pita', 'src': '/static/foodstim60/Tribe humus pita.jpg', 'key': 'i', 'origWidth': 411, 'origHeight': 411, 'width': 411, 'height': 411, 'widthPercent': 0.45, 'rescaleHeight': False, 'trialN': 95, 'loaded': True, 'loadedTime': 173167.19999992847, 'positionName': 'RIGHT', 'positionCoords': [707.2, 103], 'bid': 5.83}]",173165.0,1669834482025,chicken nuggets2,Tribe humus pita,4.72,5.83,1.1100000000000003,chicken nuggets2,1892,1893,1892.2999999523163,True,u,175588.89999997616,2423.899999976158,1669834484449,2424,,HRV,HRV_0215,2022-11-30 18:56:57
96,"[{'imgObject': {}, 'id': 'cheerios', 'src': '/static/foodstim60/cheerios.jpg', 'key': 'u', 'origWidth': 409, 'origHeight': 410, 'width': 409, 'height': 410, 'widthPercent': 0.45, 'rescaleHeight': False, 'trialN': 96, 'loaded': True, 'loadedTime': 175591.29999995232, 'positionName': 'LEFT', 'positionCoords': [243.8, 103.5], 'bid': 6.51}, {'imgObject': {}, 'id': 'yogurt no spoon', 'src': '/static/foodstim60/yogurt no spoon.jpg', 'key': 'i', 'origWidth': 411, 'origHeight': 410, 'width': 411, 'height': 410, 'widthPercent': 0.45, 'rescaleHeight': False, 'trialN': 96, 'loaded': True, 'loadedTime': 175592.69999992847, 'positionName': 'RIGHT', 'positionCoords': [707.2, 103.5], 'bid': 3.0700000000000003}]",175589.59999990463,1669834484450,cheerios,yogurt no spoon,6.51,3.0700000000000003,-3.4399999999999995,cheerios,1062,1062,1062.4000000953674,True,u,177162.69999992847,1573.1000000238419,1669834486023,1573,,HRV,HRV_0215,2022-11-30 18:56:57
97,"[{'imgObject': {}, 'id': 'pear', 'src': '/static/foodstim60/pear.jpg', 'key': 'u', 'origWidth': 411, 'origHeight': 410, 'width': 411, 'height': 410, 'widthPercent': 0.45, 'rescaleHeight': False, 'trialN': 97, 'loaded': True, 'loadedTime': 177166, 'positionName': 'LEFT', 'positionCoords': [241.8, 103.5], 'bid': 1.7}, {'imgObject': {}, 'id': 'veggieswithdip', 'src': '/static/foodstim60/veggieswithdip.jpg', 'key': 'i', 'origWidth': 409, 'origHeight': 409, 'width': 409, 'height': 409, 'widthPercent': 0.45, 'rescaleHeight': False, 'trialN': 97, 'loaded': True, 'loadedTime': 177167, 'positionName': 'RIGHT', 'positionCoords': [707.2, 104], 'bid': 2.41}]",177164.29999995232,1669834486025,pear,veggieswithdip,1.7,2.41,0.7100000000000002,pear,880.7000000476837,881,880.8999999761581,True,u,178560.29999995232,1396.0,1669834487421,1396,,HRV,HRV_0215,2022-11-30 18:56:57
98,"[{'imgObject': {}, 'id': 'froot loops w milk', 'src': '/static/foodstim60/froot loops w milk.jpg', 'key': 'u', 'origWidth': 410, 'origHeight': 410, 'width': 410, 'height': 410, 'widthPercent': 0.45, 'rescaleHeight': False, 'trialN': 98, 'loaded': True, 'loadedTime': 178563.09999990463, 'positionName': 'LEFT', 'positionCoords': [242.8, 103.5], 'bid': 6.640000000000001}, {'imgObject': {}, 'id': 'mashed potato', 'src': '/static/foodstim60/mashed potato.jpg', 'key': 'i', 'origWidth': 409, 'origHeight': 409, 'width': 409, 'height': 409, 'widthPercent': 0.45, 'rescaleHeight': False, 'trialN': 98, 'loaded': True, 'loadedTime': 178563.39999997616, 'positionName': 'RIGHT', 'positionCoords': [707.2, 104], 'bid': 6.83}]",178561.59999990463,1669834487422,froot loops w milk,mashed potato,6.640000000000001,6.83,0.1899999999999995,mashed potato,1368.1000000238419,1369,1368.5,True,i,180447.89999997616,1886.3000000715256,1669834489308,1886,,HRV,HRV_0215,2022-11-30 18:56:57
99,"[{'imgObject': {}, 'id': 'baked potato', 'src': '/static/foodstim60/baked potato.jpg', 'key': 'u', 'origWidth': 409, 'origHeight': 410, 'width': 409, 'height': 410, 'widthPercent': 0.45, 'rescaleHeight': False, 'trialN': 99, 'loaded': True, 'loadedTime': 180450, 'positionName': 'LEFT', 'positionCoords': [243.8, 103.5], 'bid': 1.98}, {'imgObject': {}, 'id': 'pear', 'src': '/static/foodstim60/pear.jpg', 'key': 'i', 'origWidth': 411, 'origHeight': 410, 'width': 411, 'height': 410, 'widthPercent': 0.45, 'rescaleHeight': False, 'trialN': 99, 'loaded': True, 'loadedTime': 180451.39999997616, 'positionName': 'RIGHT', 'positionCoords': [707.2, 103.5], 'bid': 1.7}]",180448.5,1669834489309,baked potato,pear,1.98,1.7,-0.28,pear,1060.6999999284744,1071,1061.0,True,i,182024.0,1575.5,1669834490895,1586,,HRV,HRV_0215,2022-11-30 18:56:57
100,"[{'imgObject': {}, 'id': 'burger', 'src': '/static/foodstim60/burger.jpg', 'key': 'u', 'origWidth': 409, 'origHeight': 409, 'width': 409, 'height': 409, 'widthPercent': 0.45, 'rescaleHeight': False, 'trialN': 100, 'loaded': True, 'loadedTime': 182027.19999992847, 'positionName': 'LEFT', 'positionCoords': [243.8, 104], 'bid': 4.98}, {'imgObject': {}, 'id': 'rigatoni and sauce', 'src': '/static/foodstim60/rigatoni and sauce.jpg', 'key': 'i', 'origWidth': 410, 'origHeight': 411, 'width': 410, 'height': 411, 'widthPercent': 0.45, 'rescaleHeight': False, 'trialN': 100, 'loaded': True, 'loadedTime': 182030.5, 'positionName': 'RIGHT', 'positionCoords': [707.2, 103], 'bid': 3.36}]",182025.5,1669834490896,burger,rigatoni and sauce,4.98,3.36,-1.6200000000000006,burger,999.5,1000,999.8999999761581,True,u,183545.19999992847,1519.6999999284744,1669834492416,1520,,HRV,HRV_0215,2022-11-30 18:56:57
101,"[{'imgObject': {}, 'id': 'fried eggs', 'src': '/static/foodstim60/fried eggs.jpg', 'key': 'u', 'origWidth': 410, 'origHeight': 410, 'width': 410, 'height': 410, 'widthPercent': 0.45, 'rescaleHeight': False, 'trialN': 101, 'loaded': True, 'loadedTime': 183548.09999990463, 'positionName': 'LEFT', 'positionCoords': [242.8, 103.5], 'bid': 3.75}, {'imgObject': {}, 'id': 'rigatoni and sauce', 'src': '/static/foodstim60/rigatoni and sauce.jpg', 'key': 'i', 'origWidth': 410, 'origHeight': 411, 'width': 410, 'height': 411, 'widthPercent': 0.45, 'rescaleHeight': False, 'trialN': 101, 'loaded': True, 'loadedTime': 183549.59999990463, 'positionName': 'RIGHT', 'positionCoords': [707.2, 103], 'bid': 3.36}]",183546.5,1669834492417,fried eggs,rigatoni and sauce,3.75,3.36,-0.3900000000000001,fried eggs,1017.5999999046326,1018,1018.0,True,u,185069.39999997616,1522.8999999761581,1669834493940,1523,,HRV,HRV_0215,2022-11-30 18:56:57
102,"[{'imgObject': {}, 'id': 'raspberries', 'src': '/static/foodstim60/raspberries.jpg', 'key': 'u', 'origWidth': 411, 'origHeight': 411, 'width': 411, 'height': 411, 'widthPercent': 0.45, 'rescaleHeight': False, 'trialN': 102, 'loaded': True, 'loadedTime': 185071.79999995232, 'positionName': 'LEFT', 'positionCoords': [241.8, 103], 'bid': 0.2}, {'imgObject': {}, 'id': 'avocado', 'src': '/static/foodstim60/avocado.jpg', 'key': 'i', 'origWidth': 409, 'origHeight': 409, 'width': 409, 'height': 409, 'widthPercent': 0.45, 'rescaleHeight': False, 'trialN': 102, 'loaded': True, 'loadedTime': 185072.89999997616, 'positionName': 'RIGHT', 'positionCoords': [707.2, 104], 'bid': 0.13}]",185070.09999990463,1669834493941,raspberries,avocado,0.2,0.13,-0.07,raspberries,2127.7000000476837,2128,2128.2000000476837,True,u,187714.79999995232,2644.7000000476837,1669834496585,2644,,HRV,HRV_0215,2022-11-30 18:56:57
103,"[{'imgObject': {}, 'id': 'steak', 'src': '/static/foodstim60/steak.jpg', 'key': 'u', 'origWidth': 410, 'origHeight': 410, 'width': 410, 'height': 410, 'widthPercent': 0.45, 'rescaleHeight': False, 'trialN': 103, 'loaded': True, 'loadedTime': 187717.09999990463, 'positionName': 'LEFT', 'positionCoords': [242.8, 103.5], 'bid': 8.01}, {'imgObject': {}, 'id': 'kiwi', 'src': '/static/foodstim60/kiwi.jpg', 'key': 'i', 'origWidth': 410, 'origHeight': 410, 'width': 410, 'height': 410, 'widthPercent': 0.45, 'rescaleHeight': False, 'trialN': 103, 'loaded': True, 'loadedTime': 187718.5, 'positionName': 'RIGHT', 'positionCoords': [707.2, 103.5], 'bid': 5.19}]",187715.39999997616,1669834496586,steak,kiwi,8.01,5.19,-2.8199999999999994,steak,699.7999999523163,700,700.1000000238419,True,u,188926.5,1211.1000000238419,1669834497797,1211,,HRV,HRV_0215,2022-11-30 18:56:57
104,"[{'imgObject': {}, 'id': 'sushi w_condiments', 'src': '/static/foodstim60/sushi w_condiments.jpg', 'key': 'u', 'origWidth': 410, 'origHeight': 410, 'width': 410, 'height': 410, 'widthPercent': 0.45, 'rescaleHeight': False, 'trialN': 104, 'loaded': True, 'loadedTime': 188930.19999992847, 'positionName': 'LEFT', 'positionCoords': [242.8, 103.5], 'bid': 0.04}, {'imgObject': {}, 'id': 'banana', 'src': '/static/foodstim60/banana.jpg', 'key': 'i', 'origWidth': 410, 'origHeight': 410, 'width': 410, 'height': 410, 'widthPercent': 0.45, 'rescaleHeight': False, 'trialN': 104, 'loaded': True, 'loadedTime': 188930.5, 'positionName': 'RIGHT', 'positionCoords': [707.2, 103.5], 'bid': 0.05}]",188928.29999995232,1669834497799,sushi w_condiments,banana,0.04,0.05,0.010000000000000002,banana,2238.899999976158,2239,2239.2999999523163,True,i,191685.39999997616,2757.100000023842,1669834500556,2757,,HRV,HRV_0215,2022-11-30 18:56:57
105,"[{'imgObject': {}, 'id': 'sushi w_condiments', 'src': '/static/foodstim60/sushi w_condiments.jpg', 'key': 'u', 'origWidth': 410, 'origHeight': 410, 'width': 410, 'height': 410, 'widthPercent': 0.45, 'rescaleHeight': False, 'trialN': 105, 'loaded': True, 'loadedTime': 191687.69999992847, 'positionName': 'LEFT', 'positionCoords': [242.8, 103.5], 'bid': 0.04}, {'imgObject': {}, 'id': 'rigatoni', 'src': '/static/foodstim60/rigatoni.jpg', 'key': 'i', 'origWidth': 411, 'origHeight': 411, 'width': 411, 'height': 411, 'widthPercent': 0.45, 'rescaleHeight': False, 'trialN': 105, 'loaded': True, 'loadedTime': 191688, 'positionName': 'RIGHT', 'positionCoords': [707.2, 103], 'bid': 3.25}]",191686.0,1669834500557,sushi w_condiments,rigatoni,0.04,3.25,3.21,rigatoni,1014.1999999284744,1014,1014.5999999046326,True,i,193213.09999990463,1527.0999999046326,1669834502084,1527,,HRV,HRV_0215,2022-11-30 18:56:57
106,"[{'imgObject': {}, 'id': 'cherries', 'src': '/static/foodstim60/cherries.jpg', 'key': 'u', 'origWidth': 410, 'origHeight': 411, 'width': 410, 'height': 411, 'widthPercent': 0.45, 'rescaleHeight': False, 'trialN': 106, 'loaded': True, 'loadedTime': 193215.69999992847, 'positionName': 'LEFT', 'positionCoords': [242.8, 103], 'bid': 1.07}, {'imgObject': {}, 'id': 'cheerios', 'src': '/static/foodstim60/cheerios.jpg', 'key': 'i', 'origWidth': 409, 'origHeight': 410, 'width': 409, 'height': 410, 'widthPercent': 0.45, 'rescaleHeight': False, 'trialN': 106, 'loaded': True, 'loadedTime': 193217, 'positionName': 'RIGHT', 'positionCoords': [707.2, 103.5], 'bid': 6.51}]",193213.69999992847,1669834502084,cherries,cheerios,1.07,6.51,5.4399999999999995,cheerios,889.8000000715256,891,890.2000000476837,True,i,194611.79999995232,1398.1000000238419,1669834503482,1398,,HRV,HRV_0215,2022-11-30 18:56:57
107,"[{'imgObject': {}, 'id': 'sweetpotato', 'src': '/static/foodstim60/sweetpotato.jpg', 'key': 'u', 'origWidth': 410, 'origHeight': 410, 'width': 410, 'height': 410, 'widthPercent': 0.45, 'rescaleHeight': False, 'trialN': 107, 'loaded': True, 'loadedTime': 194613.89999997616, 'positionName': 'LEFT', 'positionCoords': [242.8, 103.5], 'bid': 0.13}, {'imgObject': {}, 'id': 'edamame', 'src': '/static/foodstim60/edamame.jpg', 'key': 'i', 'origWidth': 409, 'origHeight': 410, 'width': 409, 'height': 410, 'widthPercent': 0.45, 'rescaleHeight': False, 'trialN': 107, 'loaded': True, 'loadedTime': 194615.5, 'positionName': 'RIGHT', 'positionCoords': [707.2, 103.5], 'bid': 0.14}]",194612.39999997616,1669834503483,sweetpotato,edamame,0.13,0.14,0.010000000000000009,edamame,1886.1000000238419,1886,1886.5,True,i,197021.29999995232,2408.899999976158,1669834505892,2409,,HRV,HRV_0215,2022-11-30 18:56:57
