trialN,stimuli,trialStartTime,trialStartTime_UNIX,stimulus1,stimulus2,stimulus1Bid,stimulus2Bid,delta,selected,rt,rt_UNIX,rt_perfnow,receivedResponse,rsp,trialEndTime,trialDuration,trialEndTime_UNIX,trialDuration_UNIX,exp,subjectId,date
0,"[{'imgObject': {}, 'id': 'cheerios', 'src': '/static/foodstim60/cheerios.jpg', 'key': 'u', 'origWidth': 409, 'origHeight': 410, 'width': 409, 'height': 410, 'widthPercent': 0.45, 'rescaleHeight': False, 'trialN': 0, 'loaded': True, 'loadedTime': 3862.1999999284744, 'positionName': 'LEFT', 'positionCoords': [512.6, 335], 'bid': 2.65}, {'imgObject': {}, 'id': 'sweetpotato', 'src': '/static/foodstim60/sweetpotato.jpg', 'key': 'i', 'origWidth': 410, 'origHeight': 410, 'width': 410, 'height': 410, 'widthPercent': 0.45, 'rescaleHeight': False, 'trialN': 0, 'loaded': True, 'loadedTime': 3923.2999999523163, 'positionName': 'RIGHT', 'positionCoords': [998.4, 335], 'bid': 7.56}]",4514.299999952316,1669829629326,cheerios,sweetpotato,2.65,7.56,4.91,sweetpotato,1617.1000000238419,1618,1617.5,True,i,6647.600000023842,2133.3000000715256,1669829631459,2133,HRV,HRV_0082,2022-11-30 17:39:56
1,"[{'imgObject': {}, 'id': 'cheerios', 'src': '/static/foodstim60/cheerios.jpg', 'key': 'u', 'origWidth': 409, 'origHeight': 410, 'width': 409, 'height': 410, 'widthPercent': 0.45, 'rescaleHeight': False, 'trialN': 1, 'loaded': True, 'loadedTime': 3867, 'positionName': 'LEFT', 'positionCoords': [512.6, 335], 'bid': 2.65}, {'imgObject': {}, 'id': 'hashbrowns', 'src': '/static/foodstim60/hashbrowns.jpg', 'key': 'i', 'origWidth': 411, 'origHeight': 410, 'width': 411, 'height': 410, 'widthPercent': 0.45, 'rescaleHeight': False, 'trialN': 1, 'loaded': True, 'loadedTime': 3936, 'positionName': 'RIGHT', 'positionCoords': [998.4, 335], 'bid': 5.86}]",6647.899999976158,1669829631460,cheerios,hashbrowns,2.65,5.86,3.2100000000000004,hashbrowns,1227.5,1228,1227.8999999761581,True,i,8382.199999928474,1734.2999999523163,1669829633194,1734,HRV,HRV_0082,2022-11-30 17:39:56
2,"[{'imgObject': {}, 'id': 'bagel and cc', 'src': '/static/foodstim60/bagel and cc.jpg', 'key': 'u', 'origWidth': 410, 'origHeight': 410, 'width': 410, 'height': 410, 'widthPercent': 0.45, 'rescaleHeight': False, 'trialN': 2, 'loaded': True, 'loadedTime': 3920.899999976158, 'positionName': 'LEFT', 'positionCoords': [511.6, 335], 'bid': 7.84}, {'imgObject': {}, 'id': 'burger', 'src': '/static/foodstim60/burger.jpg', 'key': 'i', 'origWidth': 409, 'origHeight': 409, 'width': 409, 'height': 409, 'widthPercent': 0.45, 'rescaleHeight': False, 'trialN': 2, 'loaded': True, 'loadedTime': 3933.600000023842, 'positionName': 'RIGHT', 'positionCoords': [998.4, 335.5], 'bid': 9}]",8382.5,1669829633194,bagel and cc,burger,7.84,9.0,1.1600000000000001,burger,1148.8999999761581,1150,1149.1999999284744,True,i,10041.899999976158,1659.3999999761581,1669829634854,1660,HRV,HRV_0082,2022-11-30 17:39:56
3,"[{'imgObject': {}, 'id': 'yogurt no spoon', 'src': '/static/foodstim60/yogurt no spoon.jpg', 'key': 'u', 'origWidth': 411, 'origHeight': 410, 'width': 411, 'height': 410, 'widthPercent': 0.45, 'rescaleHeight': False, 'trialN': 3, 'loaded': True, 'loadedTime': 3937, 'positionName': 'LEFT', 'positionCoords': [510.6, 335], 'bid': 7.54}, {'imgObject': {}, 'id': 'sweetpotato', 'src': '/static/foodstim60/sweetpotato.jpg', 'key': 'i', 'origWidth': 410, 'origHeight': 410, 'width': 410, 'height': 410, 'widthPercent': 0.45, 'rescaleHeight': False, 'trialN': 3, 'loaded': True, 'loadedTime': 3926.399999976158, 'positionName': 'RIGHT', 'positionCoords': [998.4, 335], 'bid': 7.56}]",10042.199999928474,1669829634854,yogurt no spoon,sweetpotato,7.54,7.56,0.019999999999999574,yogurt no spoon,1193.2000000476837,1193,1193.5,True,u,11744.100000023842,1701.9000000953674,1669829636556,1702,HRV,HRV_0082,2022-11-30 17:39:56
4,"[{'imgObject': {}, 'id': 'banana', 'src': '/static/foodstim60/banana.jpg', 'key': 'u', 'origWidth': 410, 'origHeight': 410, 'width': 410, 'height': 410, 'widthPercent': 0.45, 'rescaleHeight': False, 'trialN': 4, 'loaded': True, 'loadedTime': 3940.1999999284744, 'positionName': 'LEFT', 'positionCoords': [511.6, 335], 'bid': 7.42}, {'imgObject': {}, 'id': 'pear', 'src': '/static/foodstim60/pear.jpg', 'key': 'i', 'origWidth': 411, 'origHeight': 410, 'width': 411, 'height': 410, 'widthPercent': 0.45, 'rescaleHeight': False, 'trialN': 4, 'loaded': True, 'loadedTime': 3942.100000023842, 'positionName': 'RIGHT', 'positionCoords': [998.4, 335], 'bid': 7.4}]",11744.299999952316,1669829636556,banana,pear,7.42,7.4,-0.019999999999999574,banana,1675,1675,1675.3000000715256,True,u,13935.5,2191.2000000476837,1669829638747,2191,HRV,HRV_0082,2022-11-30 17:39:56
5,"[{'imgObject': {}, 'id': 'sushi w_condiments', 'src': '/static/foodstim60/sushi w_condiments.jpg', 'key': 'u', 'origWidth': 410, 'origHeight': 410, 'width': 410, 'height': 410, 'widthPercent': 0.45, 'rescaleHeight': False, 'trialN': 5, 'loaded': True, 'loadedTime': 3942.1999999284744, 'positionName': 'LEFT', 'positionCoords': [511.6, 335], 'bid': 9.81}, {'imgObject': {}, 'id': 'chickenfingers', 'src': '/static/foodstim60/chickenfingers.jpg', 'key': 'i', 'origWidth': 410, 'origHeight': 410, 'width': 410, 'height': 410, 'widthPercent': 0.45, 'rescaleHeight': False, 'trialN': 5, 'loaded': True, 'loadedTime': 3944.1999999284744, 'positionName': 'RIGHT', 'positionCoords': [998.4, 335], 'bid': 8.84}]",13935.699999928474,1669829638748,sushi w_condiments,chickenfingers,9.81,8.84,-0.9700000000000006,sushi w_condiments,779.2000000476837,779,779.4000000953674,True,u,15235.399999976158,1299.7000000476837,1669829640047,1299,HRV,HRV_0082,2022-11-30 17:39:56
6,"[{'imgObject': {}, 'id': 'roastedpotatoes', 'src': '/static/foodstim60/roastedpotatoes.jpg', 'key': 'u', 'origWidth': 409, 'origHeight': 410, 'width': 409, 'height': 410, 'widthPercent': 0.45, 'rescaleHeight': False, 'trialN': 6, 'loaded': True, 'loadedTime': 3971.6999999284744, 'positionName': 'LEFT', 'positionCoords': [512.6, 335], 'bid': 7.0600000000000005}, {'imgObject': {}, 'id': 'baked potato', 'src': '/static/foodstim60/baked potato.jpg', 'key': 'i', 'origWidth': 409, 'origHeight': 410, 'width': 409, 'height': 410, 'widthPercent': 0.45, 'rescaleHeight': False, 'trialN': 6, 'loaded': True, 'loadedTime': 3995.600000023842, 'positionName': 'RIGHT', 'positionCoords': [998.4, 335], 'bid': 7.53}]",15235.600000023842,1669829640047,roastedpotatoes,baked potato,7.0600000000000005,7.53,0.46999999999999975,baked potato,2167.6999999284744,2169,2168.1999999284744,True,i,17923.399999976158,2687.7999999523163,1669829642735,2688,HRV,HRV_0082,2022-11-30 17:39:56
7,"[{'imgObject': {}, 'id': 'cherries', 'src': '/static/foodstim60/cherries.jpg', 'key': 'u', 'origWidth': 410, 'origHeight': 411, 'width': 410, 'height': 411, 'widthPercent': 0.45, 'rescaleHeight': False, 'trialN': 7, 'loaded': True, 'loadedTime': 3997.100000023842, 'positionName': 'LEFT', 'positionCoords': [511.6, 334.5], 'bid': 7.48}, {'imgObject': {}, 'id': 'blueberries', 'src': '/static/foodstim60/blueberries.jpg', 'key': 'i', 'origWidth': 411, 'origHeight': 411, 'width': 411, 'height': 411, 'widthPercent': 0.45, 'rescaleHeight': False, 'trialN': 7, 'loaded': True, 'loadedTime': 4002.899999976158, 'positionName': 'RIGHT', 'positionCoords': [998.4, 334.5], 'bid': 7.37}]",17923.699999928474,1669829642736,cherries,blueberries,7.48,7.37,-0.11000000000000032,cherries,1479.2000000476837,1479,1479.5,True,u,19925.299999952316,2001.6000000238419,1669829644737,2001,HRV,HRV_0082,2022-11-30 17:39:56
8,"[{'imgObject': {}, 'id': 'veggieswithdip', 'src': '/static/foodstim60/veggieswithdip.jpg', 'key': 'u', 'origWidth': 409, 'origHeight': 409, 'width': 409, 'height': 409, 'widthPercent': 0.45, 'rescaleHeight': False, 'trialN': 8, 'loaded': True, 'loadedTime': 4007.100000023842, 'positionName': 'LEFT', 'positionCoords': [512.6, 335.5], 'bid': 7.38}, {'imgObject': {}, 'id': 'cherry tomato', 'src': '/static/foodstim60/cherry tomato.jpg', 'key': 'i', 'origWidth': 410, 'origHeight': 410, 'width': 410, 'height': 410, 'widthPercent': 0.45, 'rescaleHeight': False, 'trialN': 8, 'loaded': True, 'loadedTime': 4040.600000023842, 'positionName': 'RIGHT', 'positionCoords': [998.4, 335], 'bid': 5.39}]",19925.5,1669829644737,veggieswithdip,cherry tomato,7.38,5.39,-1.9900000000000002,veggieswithdip,1366.1000000238419,1367,1366.3999999761581,True,u,21805.699999928474,1880.1999999284744,1669829646617,1880,HRV,HRV_0082,2022-11-30 17:39:56
9,"[{'imgObject': {}, 'id': 'corn cob', 'src': '/static/foodstim60/corn cob.jpg', 'key': 'u', 'origWidth': 411, 'origHeight': 411, 'width': 411, 'height': 411, 'widthPercent': 0.45, 'rescaleHeight': False, 'trialN': 9, 'loaded': True, 'loadedTime': 4044, 'positionName': 'LEFT', 'positionCoords': [510.6, 334.5], 'bid': 8.67}, {'imgObject': {}, 'id': 'turkey sandwich', 'src': '/static/foodstim60/turkey sandwich.jpg', 'key': 'i', 'origWidth': 409, 'origHeight': 409, 'width': 409, 'height': 409, 'widthPercent': 0.45, 'rescaleHeight': False, 'trialN': 9, 'loaded': True, 'loadedTime': 4044.7999999523163, 'positionName': 'RIGHT', 'positionCoords': [998.4, 335.5], 'bid': 9.17}]",21805.899999976158,1669829646618,corn cob,turkey sandwich,8.67,9.17,0.5,turkey sandwich,996.7999999523163,997,997.1000000238419,True,i,23304.100000023842,1498.2000000476837,1669829648116,1498,HRV,HRV_0082,2022-11-30 17:39:56
10,"[{'imgObject': {}, 'id': 'eggs', 'src': '/static/foodstim60/eggs.jpg', 'key': 'u', 'origWidth': 409, 'origHeight': 409, 'width': 409, 'height': 409, 'widthPercent': 0.45, 'rescaleHeight': False, 'trialN': 10, 'loaded': True, 'loadedTime': 4073.7999999523163, 'positionName': 'LEFT', 'positionCoords': [512.6, 335.5], 'bid': 6.3500000000000005}, {'imgObject': {}, 'id': 'hashbrowns', 'src': '/static/foodstim60/hashbrowns.jpg', 'key': 'i', 'origWidth': 411, 'origHeight': 410, 'width': 411, 'height': 410, 'widthPercent': 0.45, 'rescaleHeight': False, 'trialN': 10, 'loaded': True, 'loadedTime': 3935.7999999523163, 'positionName': 'RIGHT', 'positionCoords': [998.4, 335], 'bid': 5.86}]",23304.299999952316,1669829648116,eggs,hashbrowns,6.3500000000000005,5.86,-0.4900000000000002,eggs,1402.8999999761581,1404,1403.3000000715256,True,u,25225.299999952316,1921.0,1669829650037,1921,HRV,HRV_0082,2022-11-30 17:39:56
11,"[{'imgObject': {}, 'id': 'corn cob', 'src': '/static/foodstim60/corn cob.jpg', 'key': 'u', 'origWidth': 411, 'origHeight': 411, 'width': 411, 'height': 411, 'widthPercent': 0.45, 'rescaleHeight': False, 'trialN': 11, 'loaded': True, 'loadedTime': 4040.6999999284744, 'positionName': 'LEFT', 'positionCoords': [510.6, 334.5], 'bid': 8.67}, {'imgObject': {}, 'id': 'grilled chicken strips', 'src': '/static/foodstim60/grilled chicken strips.jpg', 'key': 'i', 'origWidth': 410, 'origHeight': 411, 'width': 410, 'height': 411, 'widthPercent': 0.45, 'rescaleHeight': False, 'trialN': 11, 'loaded': True, 'loadedTime': 4090.899999976158, 'positionName': 'RIGHT', 'positionCoords': [998.4, 334.5], 'bid': 8.620000000000001}]",25225.5,1669829650037,corn cob,grilled chicken strips,8.67,8.620000000000001,-0.049999999999998934,grilled chicken strips,1689.8999999761581,1691,1690.1999999284744,True,i,27426.199999928474,2200.6999999284744,1669829652238,2201,HRV,HRV_0082,2022-11-30 17:39:56
12,"[{'imgObject': {}, 'id': 'steak', 'src': '/static/foodstim60/steak.jpg', 'key': 'u', 'origWidth': 410, 'origHeight': 410, 'width': 410, 'height': 410, 'widthPercent': 0.45, 'rescaleHeight': False, 'trialN': 12, 'loaded': True, 'loadedTime': 4108.799999952316, 'positionName': 'LEFT', 'positionCoords': [511.6, 335], 'bid': 8.76}, {'imgObject': {}, 'id': 'blackbeanswithrice', 'src': '/static/foodstim60/blackbeanswithrice.jpg', 'key': 'i', 'origWidth': 410, 'origHeight': 410, 'width': 410, 'height': 410, 'widthPercent': 0.45, 'rescaleHeight': False, 'trialN': 12, 'loaded': True, 'loadedTime': 4124.699999928474, 'positionName': 'RIGHT', 'positionCoords': [998.4, 335], 'bid': 8}]",27426.399999976158,1669829652238,steak,blackbeanswithrice,8.76,8.0,-0.7599999999999998,steak,1384.6000000238419,1385,1384.8999999761581,True,u,29320.899999976158,1894.5,1669829654133,1895,HRV,HRV_0082,2022-11-30 17:39:56
13,"[{'imgObject': {}, 'id': 'eggsalad', 'src': '/static/foodstim60/eggsalad.jpg', 'key': 'u', 'origWidth': 410, 'origHeight': 409, 'width': 410, 'height': 409, 'widthPercent': 0.45, 'rescaleHeight': False, 'trialN': 13, 'loaded': True, 'loadedTime': 4135.899999976158, 'positionName': 'LEFT', 'positionCoords': [511.6, 335.5], 'bid': 6.72}, {'imgObject': {}, 'id': 'chicken nuggets2', 'src': '/static/foodstim60/chicken nuggets2.jpg', 'key': 'i', 'origWidth': 410, 'origHeight': 409, 'width': 410, 'height': 409, 'widthPercent': 0.45, 'rescaleHeight': False, 'trialN': 13, 'loaded': True, 'loadedTime': 4136.899999976158, 'positionName': 'RIGHT', 'positionCoords': [998.4, 335.5], 'bid': 8.63}]",29321.0,1669829654133,eggsalad,chicken nuggets2,6.72,8.63,1.910000000000001,chicken nuggets2,1601.5,1602,1601.6999999284744,True,i,31439.100000023842,2118.100000023842,1669829656251,2118,HRV,HRV_0082,2022-11-30 17:39:56
14,"[{'imgObject': {}, 'id': 'cocktailshrimp', 'src': '/static/foodstim60/cocktailshrimp.jpg', 'key': 'u', 'origWidth': 410, 'origHeight': 410, 'width': 410, 'height': 410, 'widthPercent': 0.45, 'rescaleHeight': False, 'trialN': 14, 'loaded': True, 'loadedTime': 4140.399999976158, 'positionName': 'LEFT', 'positionCoords': [511.6, 335], 'bid': 9.43}, {'imgObject': {}, 'id': 'turkey sandwich', 'src': '/static/foodstim60/turkey sandwich.jpg', 'key': 'i', 'origWidth': 409, 'origHeight': 409, 'width': 409, 'height': 409, 'widthPercent': 0.45, 'rescaleHeight': False, 'trialN': 14, 'loaded': True, 'loadedTime': 4047.7999999523163, 'positionName': 'RIGHT', 'positionCoords': [998.4, 335.5], 'bid': 9.17}]",31439.199999928474,1669829656251,cocktailshrimp,turkey sandwich,9.43,9.17,-0.2599999999999998,cocktailshrimp,1188.2000000476837,1189,1188.6000000238419,True,u,33143.299999952316,1704.1000000238419,1669829657955,1704,HRV,HRV_0082,2022-11-30 17:39:56
15,"[{'imgObject': {}, 'id': 'fruitsalad', 'src': '/static/foodstim60/fruitsalad.jpg', 'key': 'u', 'origWidth': 410, 'origHeight': 410, 'width': 410, 'height': 410, 'widthPercent': 0.45, 'rescaleHeight': False, 'trialN': 15, 'loaded': True, 'loadedTime': 4142.600000023842, 'positionName': 'LEFT', 'positionCoords': [511.6, 335], 'bid': 8.36}, {'imgObject': {}, 'id': 'eggs', 'src': '/static/foodstim60/eggs.jpg', 'key': 'i', 'origWidth': 409, 'origHeight': 409, 'width': 409, 'height': 409, 'widthPercent': 0.45, 'rescaleHeight': False, 'trialN': 15, 'loaded': True, 'loadedTime': 4056, 'positionName': 'RIGHT', 'positionCoords': [998.4, 335.5], 'bid': 6.3500000000000005}]",33143.39999997616,1669829657955,fruitsalad,eggs,8.36,6.3500000000000005,-2.009999999999999,fruitsalad,1170.8999999761581,1172,1171.2000000476837,True,u,34818.89999997616,1675.5,1669829659631,1676,HRV,HRV_0082,2022-11-30 17:39:56
16,"[{'imgObject': {}, 'id': 'yogurt no spoon', 'src': '/static/foodstim60/yogurt no spoon.jpg', 'key': 'u', 'origWidth': 411, 'origHeight': 410, 'width': 411, 'height': 410, 'widthPercent': 0.45, 'rescaleHeight': False, 'trialN': 16, 'loaded': True, 'loadedTime': 3937.100000023842, 'positionName': 'LEFT', 'positionCoords': [510.6, 335], 'bid': 7.54}, {'imgObject': {}, 'id': 'orange slices', 'src': '/static/foodstim60/orange slices.jpg', 'key': 'i', 'origWidth': 409, 'origHeight': 410, 'width': 409, 'height': 410, 'widthPercent': 0.45, 'rescaleHeight': False, 'trialN': 16, 'loaded': True, 'loadedTime': 4144.199999928474, 'positionName': 'RIGHT', 'positionCoords': [998.4, 335], 'bid': 7.57}]",34819.10000002384,1669829659631,yogurt no spoon,orange slices,7.54,7.57,0.03000000000000025,yogurt no spoon,1968,1968,1968.2999999523163,True,u,37292.299999952316,2473.1999999284744,1669829662104,2473,HRV,HRV_0082,2022-11-30 17:39:56
17,"[{'imgObject': {}, 'id': 'hotdog w must', 'src': '/static/foodstim60/hotdog w must.jpg', 'key': 'u', 'origWidth': 409, 'origHeight': 409, 'width': 409, 'height': 409, 'widthPercent': 0.45, 'rescaleHeight': False, 'trialN': 17, 'loaded': True, 'loadedTime': 4150.5, 'positionName': 'LEFT', 'positionCoords': [512.6, 335.5], 'bid': 7.95}, {'imgObject': {}, 'id': 'seaweed', 'src': '/static/foodstim60/seaweed.jpg', 'key': 'i', 'origWidth': 410, 'origHeight': 410, 'width': 410, 'height': 410, 'widthPercent': 0.45, 'rescaleHeight': False, 'trialN': 17, 'loaded': True, 'loadedTime': 4198.799999952316, 'positionName': 'RIGHT', 'positionCoords': [998.4, 335], 'bid': 8.700000000000001}]",37292.39999997616,1669829662104,hotdog w must,seaweed,7.95,8.700000000000001,0.7500000000000009,hotdog w must,1206.7000000476837,1207,1207.0,True,u,39008.799999952316,1716.3999999761581,1669829663821,1717,HRV,HRV_0082,2022-11-30 17:39:56
18,"[{'imgObject': {}, 'id': 'tacos', 'src': '/static/foodstim60/tacos.jpg', 'key': 'u', 'origWidth': 411, 'origHeight': 411, 'width': 411, 'height': 411, 'widthPercent': 0.45, 'rescaleHeight': False, 'trialN': 18, 'loaded': True, 'loadedTime': 4200.100000023842, 'positionName': 'LEFT', 'positionCoords': [510.6, 334.5], 'bid': 8.09}, {'imgObject': {}, 'id': 'blackbeanswithrice', 'src': '/static/foodstim60/blackbeanswithrice.jpg', 'key': 'i', 'origWidth': 410, 'origHeight': 410, 'width': 410, 'height': 410, 'widthPercent': 0.45, 'rescaleHeight': False, 'trialN': 18, 'loaded': True, 'loadedTime': 4125.199999928474, 'positionName': 'RIGHT', 'positionCoords': [998.4, 335], 'bid': 8}]",39009.0,1669829663821,tacos,blackbeanswithrice,8.09,8.0,-0.08999999999999986,blackbeanswithrice,1322.5,1323,1322.6999999284744,True,i,40851.89999997616,1842.8999999761581,1669829665664,1843,HRV,HRV_0082,2022-11-30 17:39:56
19,"[{'imgObject': {}, 'id': 'orange slices', 'src': '/static/foodstim60/orange slices.jpg', 'key': 'u', 'origWidth': 409, 'origHeight': 410, 'width': 409, 'height': 410, 'widthPercent': 0.45, 'rescaleHeight': False, 'trialN': 19, 'loaded': True, 'loadedTime': 4144.299999952316, 'positionName': 'LEFT', 'positionCoords': [512.6, 335], 'bid': 7.57}, {'imgObject': {}, 'id': 'granola w milk', 'src': '/static/foodstim60/granola w milk.jpg', 'key': 'i', 'origWidth': 410, 'origHeight': 410, 'width': 410, 'height': 410, 'widthPercent': 0.45, 'rescaleHeight': False, 'trialN': 19, 'loaded': True, 'loadedTime': 4239.899999976158, 'positionName': 'RIGHT', 'positionCoords': [998.4, 335], 'bid': 2.86}]",40852.10000002384,1669829665664,orange slices,granola w milk,7.57,2.86,-4.710000000000001,orange slices,1295.2999999523163,1296,1295.6999999284744,True,u,42665.799999952316,1813.6999999284744,1669829667478,1814,HRV,HRV_0082,2022-11-30 17:39:56
20,"[{'imgObject': {}, 'id': 'cherry tomato', 'src': '/static/foodstim60/cherry tomato.jpg', 'key': 'u', 'origWidth': 410, 'origHeight': 410, 'width': 410, 'height': 410, 'widthPercent': 0.45, 'rescaleHeight': False, 'trialN': 20, 'loaded': True, 'loadedTime': 4016.399999976158, 'positionName': 'LEFT', 'positionCoords': [511.6, 335], 'bid': 5.39}, {'imgObject': {}, 'id': 'shreddedwheatwithmilk', 'src': '/static/foodstim60/shreddedwheatwithmilk.jpg', 'key': 'i', 'origWidth': 410, 'origHeight': 410, 'width': 410, 'height': 410, 'widthPercent': 0.45, 'rescaleHeight': False, 'trialN': 20, 'loaded': True, 'loadedTime': 4240.799999952316, 'positionName': 'RIGHT', 'positionCoords': [998.4, 335], 'bid': 2.26}]",42665.89999997616,1669829667478,cherry tomato,shreddedwheatwithmilk,5.39,2.26,-3.13,cherry tomato,1657.7999999523163,1658,1658.0,True,u,44836.39999997616,2170.5,1669829669648,2170,HRV,HRV_0082,2022-11-30 17:39:56
21,"[{'imgObject': {}, 'id': 'raisin bran w milk', 'src': '/static/foodstim60/raisin bran w milk.jpg', 'key': 'u', 'origWidth': 411, 'origHeight': 411, 'width': 411, 'height': 411, 'widthPercent': 0.45, 'rescaleHeight': False, 'trialN': 21, 'loaded': True, 'loadedTime': 4261.699999928474, 'positionName': 'LEFT', 'positionCoords': [510.6, 334.5], 'bid': 3.11}, {'imgObject': {}, 'id': 'olives', 'src': '/static/foodstim60/olives.jpg', 'key': 'i', 'origWidth': 410, 'origHeight': 410, 'width': 410, 'height': 410, 'widthPercent': 0.45, 'rescaleHeight': False, 'trialN': 21, 'loaded': True, 'loadedTime': 4302.5, 'positionName': 'RIGHT', 'positionCoords': [998.4, 335], 'bid': 5.67}]",44836.5,1669829669649,raisin bran w milk,olives,3.11,5.67,2.56,olives,1246.7999999523163,1247,1247.1000000238419,True,i,46601.199999928474,1764.6999999284744,1669829671413,1764,HRV,HRV_0082,2022-11-30 17:39:56
22,"[{'imgObject': {}, 'id': 'tacos', 'src': '/static/foodstim60/tacos.jpg', 'key': 'u', 'origWidth': 411, 'origHeight': 411, 'width': 411, 'height': 411, 'widthPercent': 0.45, 'rescaleHeight': False, 'trialN': 22, 'loaded': True, 'loadedTime': 4200.199999928474, 'positionName': 'LEFT', 'positionCoords': [510.6, 334.5], 'bid': 8.09}, {'imgObject': {}, 'id': 'ice cream sundae 002', 'src': '/static/foodstim60/ice cream sundae 002.jpg', 'key': 'i', 'origWidth': 409, 'origHeight': 409, 'width': 409, 'height': 409, 'widthPercent': 0.45, 'rescaleHeight': False, 'trialN': 22, 'loaded': True, 'loadedTime': 4304.100000023842, 'positionName': 'RIGHT', 'positionCoords': [998.4, 335.5], 'bid': 9.71}]",46601.39999997616,1669829671413,tacos,ice cream sundae 002,8.09,9.71,1.620000000000001,ice cream sundae 002,786.2000000476837,787,786.5,True,i,47901.199999928474,1299.7999999523163,1669829672713,1300,HRV,HRV_0082,2022-11-30 17:39:56
23,"[{'imgObject': {}, 'id': 'mango', 'src': '/static/foodstim60/mango.jpg', 'key': 'u', 'origWidth': 411, 'origHeight': 411, 'width': 411, 'height': 411, 'widthPercent': 0.45, 'rescaleHeight': False, 'trialN': 23, 'loaded': True, 'loadedTime': 4323.100000023842, 'positionName': 'LEFT', 'positionCoords': [510.6, 334.5], 'bid': 7.46}, {'imgObject': {}, 'id': 'apple slices', 'src': '/static/foodstim60/apple slices.jpg', 'key': 'i', 'origWidth': 409, 'origHeight': 410, 'width': 409, 'height': 410, 'widthPercent': 0.45, 'rescaleHeight': False, 'trialN': 23, 'loaded': True, 'loadedTime': 4323.399999976158, 'positionName': 'RIGHT', 'positionCoords': [998.4, 335], 'bid': 7.46}]",47901.299999952316,1669829672713,mango,apple slices,7.46,7.46,0.0,mango,2190.100000023842,2191,2190.399999976158,True,u,50610.699999928474,2709.399999976158,1669829675423,2710,HRV,HRV_0082,2022-11-30 17:39:56
24,"[{'imgObject': {}, 'id': 'kiwi', 'src': '/static/foodstim60/kiwi.jpg', 'key': 'u', 'origWidth': 410, 'origHeight': 410, 'width': 410, 'height': 410, 'widthPercent': 0.45, 'rescaleHeight': False, 'trialN': 24, 'loaded': True, 'loadedTime': 4360.699999928474, 'positionName': 'LEFT', 'positionCoords': [511.6, 335], 'bid': 6.67}, {'imgObject': {}, 'id': 'rigatoni', 'src': '/static/foodstim60/rigatoni.jpg', 'key': 'i', 'origWidth': 411, 'origHeight': 411, 'width': 411, 'height': 411, 'widthPercent': 0.45, 'rescaleHeight': False, 'trialN': 24, 'loaded': True, 'loadedTime': 4361.299999952316, 'positionName': 'RIGHT', 'positionCoords': [998.4, 334.5], 'bid': 4.47}]",50610.89999997616,1669829675423,kiwi,rigatoni,6.67,4.47,-2.2,kiwi,1208.5,1209,1208.7999999523163,True,u,52331.5,1720.6000000238419,1669829677143,1720,HRV,HRV_0082,2022-11-30 17:39:56
25,"[{'imgObject': {}, 'id': 'seaweed', 'src': '/static/foodstim60/seaweed.jpg', 'key': 'u', 'origWidth': 410, 'origHeight': 410, 'width': 410, 'height': 410, 'widthPercent': 0.45, 'rescaleHeight': False, 'trialN': 25, 'loaded': True, 'loadedTime': 4198.600000023842, 'positionName': 'LEFT', 'positionCoords': [511.6, 335], 'bid': 8.700000000000001}, {'imgObject': {}, 'id': 'chicken nuggets2', 'src': '/static/foodstim60/chicken nuggets2.jpg', 'key': 'i', 'origWidth': 410, 'origHeight': 409, 'width': 410, 'height': 409, 'widthPercent': 0.45, 'rescaleHeight': False, 'trialN': 25, 'loaded': True, 'loadedTime': 4137.799999952316, 'positionName': 'RIGHT', 'positionCoords': [998.4, 335.5], 'bid': 8.63}]",52331.699999928474,1669829677144,seaweed,chicken nuggets2,8.700000000000001,8.63,-0.07000000000000028,chicken nuggets2,1334.8000000715256,1335,1335.0,True,i,54178.60000002384,1846.9000000953674,1669829678991,1847,HRV,HRV_0082,2022-11-30 17:39:56
26,"[{'imgObject': {}, 'id': 'cantaloupe', 'src': '/static/foodstim60/cantaloupe.jpg', 'key': 'u', 'origWidth': 409, 'origHeight': 409, 'width': 409, 'height': 409, 'widthPercent': 0.45, 'rescaleHeight': False, 'trialN': 26, 'loaded': True, 'loadedTime': 4400.699999928474, 'positionName': 'LEFT', 'positionCoords': [512.6, 335.5], 'bid': 7.92}, {'imgObject': {}, 'id': 'corn cob', 'src': '/static/foodstim60/corn cob.jpg', 'key': 'i', 'origWidth': 411, 'origHeight': 411, 'width': 411, 'height': 411, 'widthPercent': 0.45, 'rescaleHeight': False, 'trialN': 26, 'loaded': True, 'loadedTime': 4044.399999976158, 'positionName': 'RIGHT', 'positionCoords': [998.4, 334.5], 'bid': 8.67}]",54178.699999928474,1669829678991,cantaloupe,corn cob,7.92,8.67,0.75,corn cob,1288.7000000476837,1289,1289.0,True,i,55975.10000002384,1796.4000000953674,1669829680787,1796,HRV,HRV_0082,2022-11-30 17:39:56
27,"[{'imgObject': {}, 'id': 'kiwi', 'src': '/static/foodstim60/kiwi.jpg', 'key': 'u', 'origWidth': 410, 'origHeight': 410, 'width': 410, 'height': 410, 'widthPercent': 0.45, 'rescaleHeight': False, 'trialN': 27, 'loaded': True, 'loadedTime': 4361.100000023842, 'positionName': 'LEFT', 'positionCoords': [511.6, 335], 'bid': 6.67}, {'imgObject': {}, 'id': 'froot loops w milk', 'src': '/static/foodstim60/froot loops w milk.jpg', 'key': 'i', 'origWidth': 410, 'origHeight': 410, 'width': 410, 'height': 410, 'widthPercent': 0.45, 'rescaleHeight': False, 'trialN': 27, 'loaded': True, 'loadedTime': 4402.399999976158, 'positionName': 'RIGHT', 'positionCoords': [998.4, 335], 'bid': 2.64}]",55975.199999928474,1669829680787,kiwi,froot loops w milk,6.67,2.64,-4.029999999999999,kiwi,1083.6000000238419,1084,1083.8000000715256,True,u,57567.699999928474,1592.5,1669829682380,1593,HRV,HRV_0082,2022-11-30 17:39:56
28,"[{'imgObject': {}, 'id': 'eggs', 'src': '/static/foodstim60/eggs.jpg', 'key': 'u', 'origWidth': 409, 'origHeight': 409, 'width': 409, 'height': 409, 'widthPercent': 0.45, 'rescaleHeight': False, 'trialN': 28, 'loaded': True, 'loadedTime': 4054.7999999523163, 'positionName': 'LEFT', 'positionCoords': [512.6, 335.5], 'bid': 6.3500000000000005}, {'imgObject': {}, 'id': 'omelette', 'src': '/static/foodstim60/omelette.jpg', 'key': 'i', 'origWidth': 410, 'origHeight': 409, 'width': 410, 'height': 409, 'widthPercent': 0.45, 'rescaleHeight': False, 'trialN': 28, 'loaded': True, 'loadedTime': 4402.899999976158, 'positionName': 'RIGHT', 'positionCoords': [998.4, 335.5], 'bid': 6.22}]",57567.89999997616,1669829682380,eggs,omelette,6.3500000000000005,6.22,-0.13000000000000078,omelette,1211.3999999761581,1211,1211.6000000238419,True,i,59291.10000002384,1723.2000000476837,1669829684103,1723,HRV,HRV_0082,2022-11-30 17:39:56
29,"[{'imgObject': {}, 'id': 'popsicles', 'src': '/static/foodstim60/popsicles.jpg', 'key': 'u', 'origWidth': 410, 'origHeight': 410, 'width': 410, 'height': 410, 'widthPercent': 0.45, 'rescaleHeight': False, 'trialN': 29, 'loaded': True, 'loadedTime': 4511.899999976158, 'positionName': 'LEFT', 'positionCoords': [511.6, 335], 'bid': 5.76}, {'imgObject': {}, 'id': 'blackbeanswithrice', 'src': '/static/foodstim60/blackbeanswithrice.jpg', 'key': 'i', 'origWidth': 410, 'origHeight': 410, 'width': 410, 'height': 410, 'widthPercent': 0.45, 'rescaleHeight': False, 'trialN': 29, 'loaded': True, 'loadedTime': 4124.899999976158, 'positionName': 'RIGHT', 'positionCoords': [998.4, 335], 'bid': 8}]",59291.199999928474,1669829684103,popsicles,blackbeanswithrice,5.76,8.0,2.24,blackbeanswithrice,1255.3000000715256,1256,1255.6000000238419,True,i,61061.89999997616,1770.7000000476837,1669829685874,1771,HRV,HRV_0082,2022-11-30 17:39:56
30,"[{'imgObject': {}, 'id': 'blackbeanswithrice', 'src': '/static/foodstim60/blackbeanswithrice.jpg', 'key': 'u', 'origWidth': 410, 'origHeight': 410, 'width': 410, 'height': 410, 'widthPercent': 0.45, 'rescaleHeight': False, 'trialN': 30, 'loaded': True, 'loadedTime': 4129.399999976158, 'positionName': 'LEFT', 'positionCoords': [511.6, 335], 'bid': 8}, {'imgObject': {}, 'id': 'cocktailshrimp', 'src': '/static/foodstim60/cocktailshrimp.jpg', 'key': 'i', 'origWidth': 410, 'origHeight': 410, 'width': 410, 'height': 410, 'widthPercent': 0.45, 'rescaleHeight': False, 'trialN': 30, 'loaded': True, 'loadedTime': 4139.299999952316, 'positionName': 'RIGHT', 'positionCoords': [998.4, 335], 'bid': 9.43}]",61062.0,1669829685874,blackbeanswithrice,cocktailshrimp,8.0,9.43,1.4299999999999997,cocktailshrimp,1276.6999999284744,1277,1276.8999999761581,True,i,62849.10000002384,1787.1000000238419,1669829687661,1787,HRV,HRV_0082,2022-11-30 17:39:56
31,"[{'imgObject': {}, 'id': 'avocado', 'src': '/static/foodstim60/avocado.jpg', 'key': 'u', 'origWidth': 409, 'origHeight': 409, 'width': 409, 'height': 409, 'widthPercent': 0.45, 'rescaleHeight': False, 'trialN': 31, 'loaded': True, 'loadedTime': 4407.799999952316, 'positionName': 'LEFT', 'positionCoords': [512.6, 335.5], 'bid': 4.15}, {'imgObject': {}, 'id': 'rigatoni', 'src': '/static/foodstim60/rigatoni.jpg', 'key': 'i', 'origWidth': 411, 'origHeight': 411, 'width': 411, 'height': 411, 'widthPercent': 0.45, 'rescaleHeight': False, 'trialN': 31, 'loaded': True, 'loadedTime': 4380.299999952316, 'positionName': 'RIGHT', 'positionCoords': [998.4, 334.5], 'bid': 4.47}]",62849.199999928474,1669829687661,avocado,rigatoni,4.15,4.47,0.3199999999999994,avocado,1554.2000000476837,1555,1554.5,True,u,64912.699999928474,2063.5,1669829689725,2064,HRV,HRV_0082,2022-11-30 17:39:56
32,"[{'imgObject': {}, 'id': 'yogurt no spoon', 'src': '/static/foodstim60/yogurt no spoon.jpg', 'key': 'u', 'origWidth': 411, 'origHeight': 410, 'width': 411, 'height': 410, 'widthPercent': 0.45, 'rescaleHeight': False, 'trialN': 32, 'loaded': True, 'loadedTime': 3936.7999999523163, 'positionName': 'LEFT', 'positionCoords': [510.6, 335], 'bid': 7.54}, {'imgObject': {}, 'id': 'salad w chicken', 'src': '/static/foodstim60/salad w chicken.jpg', 'key': 'i', 'origWidth': 411, 'origHeight': 411, 'width': 411, 'height': 411, 'widthPercent': 0.45, 'rescaleHeight': False, 'trialN': 32, 'loaded': True, 'loadedTime': 4409.100000023842, 'positionName': 'RIGHT', 'positionCoords': [998.4, 334.5], 'bid': 8.6}]",64912.699999928474,1669829689725,yogurt no spoon,salad w chicken,7.54,8.6,1.0599999999999996,salad w chicken,1403,1403,1403.3000000715256,True,i,66827.39999997616,1914.7000000476837,1669829691639,1914,HRV,HRV_0082,2022-11-30 17:39:56
33,"[{'imgObject': {}, 'id': 'bagel plain', 'src': '/static/foodstim60/bagel plain.jpg', 'key': 'u', 'origWidth': 410, 'origHeight': 410, 'width': 410, 'height': 410, 'widthPercent': 0.45, 'rescaleHeight': False, 'trialN': 33, 'loaded': True, 'loadedTime': 4414.699999928474, 'positionName': 'LEFT', 'positionCoords': [511.6, 335], 'bid': 7.66}, {'imgObject': {}, 'id': 'banana', 'src': '/static/foodstim60/banana.jpg', 'key': 'i', 'origWidth': 410, 'origHeight': 410, 'width': 410, 'height': 410, 'widthPercent': 0.45, 'rescaleHeight': False, 'trialN': 33, 'loaded': True, 'loadedTime': 3940.899999976158, 'positionName': 'RIGHT', 'positionCoords': [998.4, 335], 'bid': 7.42}]",66827.60000002384,1669829691640,bagel plain,banana,7.66,7.42,-0.2400000000000002,banana,1135.6999999284744,1136,1136.0999999046326,True,i,68482.60000002384,1655.0,1669829693295,1655,HRV,HRV_0082,2022-11-30 17:39:56
34,"[{'imgObject': {}, 'id': 'kiwi', 'src': '/static/foodstim60/kiwi.jpg', 'key': 'u', 'origWidth': 410, 'origHeight': 410, 'width': 410, 'height': 410, 'widthPercent': 0.45, 'rescaleHeight': False, 'trialN': 34, 'loaded': True, 'loadedTime': 4344.399999976158, 'positionName': 'LEFT', 'positionCoords': [511.6, 335], 'bid': 6.67}, {'imgObject': {}, 'id': 'salad w chicken', 'src': '/static/foodstim60/salad w chicken.jpg', 'key': 'i', 'origWidth': 411, 'origHeight': 411, 'width': 411, 'height': 411, 'widthPercent': 0.45, 'rescaleHeight': False, 'trialN': 34, 'loaded': True, 'loadedTime': 4409.199999928474, 'positionName': 'RIGHT', 'positionCoords': [998.4, 334.5], 'bid': 8.6}]",68482.79999995232,1669829693295,kiwi,salad w chicken,6.67,8.6,1.9299999999999997,salad w chicken,1616.5,1617,1616.8999999761581,True,i,70606.79999995232,2124.0,1669829695419,2124,HRV,HRV_0082,2022-11-30 17:39:56
35,"[{'imgObject': {}, 'id': 'popsicles', 'src': '/static/foodstim60/popsicles.jpg', 'key': 'u', 'origWidth': 410, 'origHeight': 410, 'width': 410, 'height': 410, 'widthPercent': 0.45, 'rescaleHeight': False, 'trialN': 35, 'loaded': True, 'loadedTime': 4511.799999952316, 'positionName': 'LEFT', 'positionCoords': [511.6, 335], 'bid': 5.76}, {'imgObject': {}, 'id': 'Tribe humus pita', 'src': '/static/foodstim60/Tribe humus pita.jpg', 'key': 'i', 'origWidth': 411, 'origHeight': 411, 'width': 411, 'height': 411, 'widthPercent': 0.45, 'rescaleHeight': False, 'trialN': 35, 'loaded': True, 'loadedTime': 4416.899999976158, 'positionName': 'RIGHT', 'positionCoords': [998.4, 334.5], 'bid': 6.7}]",70606.89999997616,1669829695419,popsicles,Tribe humus pita,5.76,6.7,0.9400000000000004,Tribe humus pita,1540.1000000238419,1540,1540.3999999761581,True,i,72655.69999992847,2048.7999999523163,1669829697468,2049,HRV,HRV_0082,2022-11-30 17:39:56
36,"[{'imgObject': {}, 'id': 'burger', 'src': '/static/foodstim60/burger.jpg', 'key': 'u', 'origWidth': 409, 'origHeight': 409, 'width': 409, 'height': 409, 'widthPercent': 0.45, 'rescaleHeight': False, 'trialN': 36, 'loaded': True, 'loadedTime': 3933.2999999523163, 'positionName': 'LEFT', 'positionCoords': [512.6, 335.5], 'bid': 9}, {'imgObject': {}, 'id': 'grilled chicken strips', 'src': '/static/foodstim60/grilled chicken strips.jpg', 'key': 'i', 'origWidth': 410, 'origHeight': 411, 'width': 410, 'height': 411, 'widthPercent': 0.45, 'rescaleHeight': False, 'trialN': 36, 'loaded': True, 'loadedTime': 4075.1999999284744, 'positionName': 'RIGHT', 'positionCoords': [998.4, 334.5], 'bid': 8.620000000000001}]",72655.89999997616,1669829697468,burger,grilled chicken strips,9.0,8.620000000000001,-0.379999999999999,grilled chicken strips,1570.3999999761581,1570,1570.5,True,i,74748.89999997616,2093.0,1669829699561,2093,HRV,HRV_0082,2022-11-30 17:39:56
37,"[{'imgObject': {}, 'id': 'raspberries', 'src': '/static/foodstim60/raspberries.jpg', 'key': 'u', 'origWidth': 411, 'origHeight': 411, 'width': 411, 'height': 411, 'widthPercent': 0.45, 'rescaleHeight': False, 'trialN': 37, 'loaded': True, 'loadedTime': 4425.199999928474, 'positionName': 'LEFT', 'positionCoords': [510.6, 334.5], 'bid': 7.3}, {'imgObject': {}, 'id': 'Grapes', 'src': '/static/foodstim60/Grapes.jpg', 'key': 'i', 'origWidth': 411, 'origHeight': 411, 'width': 411, 'height': 411, 'widthPercent': 0.45, 'rescaleHeight': False, 'trialN': 37, 'loaded': True, 'loadedTime': 4446.699999928474, 'positionName': 'RIGHT', 'positionCoords': [998.4, 334.5], 'bid': 6.79}]",74749.19999992847,1669829699561,raspberries,Grapes,7.3,6.79,-0.5099999999999998,raspberries,1549.8000000715256,1550,1550.1000000238419,True,u,76813.0,2063.8000000715256,1669829701625,2064,HRV,HRV_0082,2022-11-30 17:39:56
38,"[{'imgObject': {}, 'id': 'cantaloupe', 'src': '/static/foodstim60/cantaloupe.jpg', 'key': 'u', 'origWidth': 409, 'origHeight': 409, 'width': 409, 'height': 409, 'widthPercent': 0.45, 'rescaleHeight': False, 'trialN': 38, 'loaded': True, 'loadedTime': 4400.5, 'positionName': 'LEFT', 'positionCoords': [512.6, 335.5], 'bid': 7.92}, {'imgObject': {}, 'id': 'burrito', 'src': '/static/foodstim60/burrito.jpg', 'key': 'i', 'origWidth': 410, 'origHeight': 410, 'width': 410, 'height': 410, 'widthPercent': 0.45, 'rescaleHeight': False, 'trialN': 38, 'loaded': True, 'loadedTime': 4447, 'positionName': 'RIGHT', 'positionCoords': [998.4, 335], 'bid': 8.53}]",76813.19999992847,1669829701625,cantaloupe,burrito,7.92,8.53,0.6099999999999994,burrito,1310.2000000476837,1311,1310.6000000238419,True,i,78630.5,1817.3000000715256,1669829703443,1818,HRV,HRV_0082,2022-11-30 17:39:56
39,"[{'imgObject': {}, 'id': 'raspberries', 'src': '/static/foodstim60/raspberries.jpg', 'key': 'u', 'origWidth': 411, 'origHeight': 411, 'width': 411, 'height': 411, 'widthPercent': 0.45, 'rescaleHeight': False, 'trialN': 39, 'loaded': True, 'loadedTime': 4442.699999928474, 'positionName': 'LEFT', 'positionCoords': [510.6, 334.5], 'bid': 7.3}, {'imgObject': {}, 'id': 'yogurt no spoon', 'src': '/static/foodstim60/yogurt no spoon.jpg', 'key': 'i', 'origWidth': 411, 'origHeight': 410, 'width': 411, 'height': 410, 'widthPercent': 0.45, 'rescaleHeight': False, 'trialN': 39, 'loaded': True, 'loadedTime': 3936.899999976158, 'positionName': 'RIGHT', 'positionCoords': [998.4, 335], 'bid': 7.54}]",78630.79999995232,1669829703443,raspberries,yogurt no spoon,7.3,7.54,0.2400000000000002,yogurt no spoon,1116.1000000238419,1116,1116.3000000715256,True,i,80258.69999992847,1627.8999999761581,1669829705071,1628,HRV,HRV_0082,2022-11-30 17:39:56
40,"[{'imgObject': {}, 'id': 'cherry tomato', 'src': '/static/foodstim60/cherry tomato.jpg', 'key': 'u', 'origWidth': 410, 'origHeight': 410, 'width': 410, 'height': 410, 'widthPercent': 0.45, 'rescaleHeight': False, 'trialN': 40, 'loaded': True, 'loadedTime': 4033.7999999523163, 'positionName': 'LEFT', 'positionCoords': [511.6, 335], 'bid': 5.39}, {'imgObject': {}, 'id': 'cantaloupe', 'src': '/static/foodstim60/cantaloupe.jpg', 'key': 'i', 'origWidth': 409, 'origHeight': 409, 'width': 409, 'height': 409, 'widthPercent': 0.45, 'rescaleHeight': False, 'trialN': 40, 'loaded': True, 'loadedTime': 4400.399999976158, 'positionName': 'RIGHT', 'positionCoords': [998.4, 335.5], 'bid': 7.92}]",80258.89999997616,1669829705071,cherry tomato,cantaloupe,5.39,7.92,2.5300000000000002,cantaloupe,1448.3999999761581,1449,1448.6000000238419,True,i,82228.0,1969.1000000238419,1669829707040,1969,HRV,HRV_0082,2022-11-30 17:39:56
41,"[{'imgObject': {}, 'id': 'eggsalad', 'src': '/static/foodstim60/eggsalad.jpg', 'key': 'u', 'origWidth': 410, 'origHeight': 409, 'width': 410, 'height': 409, 'widthPercent': 0.45, 'rescaleHeight': False, 'trialN': 41, 'loaded': True, 'loadedTime': 4136.699999928474, 'positionName': 'LEFT', 'positionCoords': [511.6, 335.5], 'bid': 6.72}, {'imgObject': {}, 'id': 'hashbrowns', 'src': '/static/foodstim60/hashbrowns.jpg', 'key': 'i', 'origWidth': 411, 'origHeight': 410, 'width': 411, 'height': 410, 'widthPercent': 0.45, 'rescaleHeight': False, 'trialN': 41, 'loaded': True, 'loadedTime': 3935.6999999284744, 'positionName': 'RIGHT', 'positionCoords': [998.4, 335], 'bid': 5.86}]",82228.19999992847,1669829707040,eggsalad,hashbrowns,6.72,5.86,-0.8599999999999994,eggsalad,2407.3000000715256,2408,2407.7000000476837,True,u,85149.0,2920.8000000715256,1669829709961,2921,HRV,HRV_0082,2022-11-30 17:39:56
42,"[{'imgObject': {}, 'id': 'steak', 'src': '/static/foodstim60/steak.jpg', 'key': 'u', 'origWidth': 410, 'origHeight': 410, 'width': 410, 'height': 410, 'widthPercent': 0.45, 'rescaleHeight': False, 'trialN': 42, 'loaded': True, 'loadedTime': 4108.699999928474, 'positionName': 'LEFT', 'positionCoords': [511.6, 335], 'bid': 8.76}, {'imgObject': {}, 'id': 'burger', 'src': '/static/foodstim60/burger.jpg', 'key': 'i', 'origWidth': 409, 'origHeight': 409, 'width': 409, 'height': 409, 'widthPercent': 0.45, 'rescaleHeight': False, 'trialN': 42, 'loaded': True, 'loadedTime': 3931.100000023842, 'positionName': 'RIGHT', 'positionCoords': [998.4, 335.5], 'bid': 9}]",85149.10000002384,1669829709961,steak,burger,8.76,9.0,0.2400000000000002,steak,1173.7999999523163,1174,1174.0999999046326,True,u,86834.0,1684.8999999761581,1669829711646,1685,HRV,HRV_0082,2022-11-30 17:39:56
43,"[{'imgObject': {}, 'id': 'ice cream sundae 002', 'src': '/static/foodstim60/ice cream sundae 002.jpg', 'key': 'u', 'origWidth': 409, 'origHeight': 409, 'width': 409, 'height': 409, 'widthPercent': 0.45, 'rescaleHeight': False, 'trialN': 43, 'loaded': True, 'loadedTime': 4304.199999928474, 'positionName': 'LEFT', 'positionCoords': [512.6, 335.5], 'bid': 9.71}, {'imgObject': {}, 'id': 'sushi w_condiments', 'src': '/static/foodstim60/sushi w_condiments.jpg', 'key': 'i', 'origWidth': 410, 'origHeight': 410, 'width': 410, 'height': 410, 'widthPercent': 0.45, 'rescaleHeight': False, 'trialN': 43, 'loaded': True, 'loadedTime': 3943.100000023842, 'positionName': 'RIGHT', 'positionCoords': [998.4, 335], 'bid': 9.81}]",86834.0,1669829711646,ice cream sundae 002,sushi w_condiments,9.71,9.81,0.09999999999999964,ice cream sundae 002,889.5,890,889.8999999761581,True,u,88242.79999995232,1408.7999999523163,1669829713055,1409,HRV,HRV_0082,2022-11-30 17:39:56
44,"[{'imgObject': {}, 'id': 'Grapes', 'src': '/static/foodstim60/Grapes.jpg', 'key': 'u', 'origWidth': 411, 'origHeight': 411, 'width': 411, 'height': 411, 'widthPercent': 0.45, 'rescaleHeight': False, 'trialN': 44, 'loaded': True, 'loadedTime': 4445.5, 'positionName': 'LEFT', 'positionCoords': [510.6, 334.5], 'bid': 6.79}, {'imgObject': {}, 'id': 'omelette', 'src': '/static/foodstim60/omelette.jpg', 'key': 'i', 'origWidth': 410, 'origHeight': 409, 'width': 410, 'height': 409, 'widthPercent': 0.45, 'rescaleHeight': False, 'trialN': 44, 'loaded': True, 'loadedTime': 4403.799999952316, 'positionName': 'RIGHT', 'positionCoords': [998.4, 335.5], 'bid': 6.22}]",88242.89999997616,1669829713055,Grapes,omelette,6.79,6.22,-0.5700000000000003,omelette,2592.7999999523163,2593,2593.0,True,i,91354.29999995232,3111.399999976158,1669829716166,3111,HRV,HRV_0082,2022-11-30 17:39:56
45,"[{'imgObject': {}, 'id': 'veggieswithdip', 'src': '/static/foodstim60/veggieswithdip.jpg', 'key': 'u', 'origWidth': 409, 'origHeight': 409, 'width': 409, 'height': 409, 'widthPercent': 0.45, 'rescaleHeight': False, 'trialN': 45, 'loaded': True, 'loadedTime': 4006.6999999284744, 'positionName': 'LEFT', 'positionCoords': [512.6, 335.5], 'bid': 7.38}, {'imgObject': {}, 'id': 'blueberries', 'src': '/static/foodstim60/blueberries.jpg', 'key': 'i', 'origWidth': 411, 'origHeight': 411, 'width': 411, 'height': 411, 'widthPercent': 0.45, 'rescaleHeight': False, 'trialN': 45, 'loaded': True, 'loadedTime': 4004.2999999523163, 'positionName': 'RIGHT', 'positionCoords': [998.4, 334.5], 'bid': 7.37}]",91354.39999997616,1669829716166,veggieswithdip,blueberries,7.38,7.37,-0.009999999999999787,veggieswithdip,2529.100000023842,2530,2529.600000023842,True,u,94404.60000002384,3050.2000000476837,1669829719216,3050,HRV,HRV_0082,2022-11-30 17:39:56
46,"[{'imgObject': {}, 'id': 'mashed potato', 'src': '/static/foodstim60/mashed potato.jpg', 'key': 'u', 'origWidth': 409, 'origHeight': 409, 'width': 409, 'height': 409, 'widthPercent': 0.45, 'rescaleHeight': False, 'trialN': 46, 'loaded': True, 'loadedTime': 4466.299999952316, 'positionName': 'LEFT', 'positionCoords': [512.6, 335.5], 'bid': 7.57}, {'imgObject': {}, 'id': 'raisin bran w milk', 'src': '/static/foodstim60/raisin bran w milk.jpg', 'key': 'i', 'origWidth': 411, 'origHeight': 411, 'width': 411, 'height': 411, 'widthPercent': 0.45, 'rescaleHeight': False, 'trialN': 46, 'loaded': True, 'loadedTime': 4277.299999952316, 'positionName': 'RIGHT', 'positionCoords': [998.4, 334.5], 'bid': 3.11}]",94404.79999995232,1669829719217,mashed potato,raisin bran w milk,7.57,3.11,-4.460000000000001,mashed potato,1294.5,1294,1294.8000000715256,True,u,96217.60000002384,1812.8000000715256,1669829721029,1812,HRV,HRV_0082,2022-11-30 17:39:56
47,"[{'imgObject': {}, 'id': 'luckycharms', 'src': '/static/foodstim60/luckycharms.jpg', 'key': 'u', 'origWidth': 410, 'origHeight': 409, 'width': 410, 'height': 409, 'widthPercent': 0.45, 'rescaleHeight': False, 'trialN': 47, 'loaded': True, 'loadedTime': 4468.600000023842, 'positionName': 'LEFT', 'positionCoords': [511.6, 335.5], 'bid': 2.43}, {'imgObject': {}, 'id': 'shreddedwheatwithmilk', 'src': '/static/foodstim60/shreddedwheatwithmilk.jpg', 'key': 'i', 'origWidth': 410, 'origHeight': 410, 'width': 410, 'height': 410, 'widthPercent': 0.45, 'rescaleHeight': False, 'trialN': 47, 'loaded': True, 'loadedTime': 4242.199999928474, 'positionName': 'RIGHT', 'positionCoords': [998.4, 335], 'bid': 2.26}]",96217.79999995232,1669829721030,luckycharms,shreddedwheatwithmilk,2.43,2.26,-0.17000000000000037,shreddedwheatwithmilk,2817.399999976158,2817,2817.8000000715256,True,i,99544.19999992847,3326.399999976158,1669829724356,3326,HRV,HRV_0082,2022-11-30 17:39:56
48,"[{'imgObject': {}, 'id': 'edamame', 'src': '/static/foodstim60/edamame.jpg', 'key': 'u', 'origWidth': 409, 'origHeight': 410, 'width': 409, 'height': 410, 'widthPercent': 0.45, 'rescaleHeight': False, 'trialN': 48, 'loaded': True, 'loadedTime': 4468.899999976158, 'positionName': 'LEFT', 'positionCoords': [512.6, 335], 'bid': 7.83}, {'imgObject': {}, 'id': 'bagel and cc', 'src': '/static/foodstim60/bagel and cc.jpg', 'key': 'i', 'origWidth': 410, 'origHeight': 410, 'width': 410, 'height': 410, 'widthPercent': 0.45, 'rescaleHeight': False, 'trialN': 48, 'loaded': True, 'loadedTime': 3897.5, 'positionName': 'RIGHT', 'positionCoords': [998.4, 335], 'bid': 7.84}]",99544.39999997616,1669829724356,edamame,bagel and cc,7.83,7.84,0.009999999999999787,edamame,1355.2999999523163,1356,1355.5,True,u,101411.5,1867.1000000238419,1669829726223,1867,HRV,HRV_0082,2022-11-30 17:39:56
49,"[{'imgObject': {}, 'id': 'turkeysandwich', 'src': '/static/foodstim60/turkeysandwich.jpg', 'key': 'u', 'origWidth': 409, 'origHeight': 409, 'width': 409, 'height': 409, 'widthPercent': 0.45, 'rescaleHeight': False, 'trialN': 49, 'loaded': True, 'loadedTime': 4487.5, 'positionName': 'LEFT', 'positionCoords': [512.6, 335.5], 'bid': 9.1}, {'imgObject': {}, 'id': 'fruitsalad', 'src': '/static/foodstim60/fruitsalad.jpg', 'key': 'i', 'origWidth': 410, 'origHeight': 410, 'width': 410, 'height': 410, 'widthPercent': 0.45, 'rescaleHeight': False, 'trialN': 49, 'loaded': True, 'loadedTime': 4142.299999952316, 'positionName': 'RIGHT', 'positionCoords': [998.4, 335], 'bid': 8.36}]",101411.69999992847,1669829726224,turkeysandwich,fruitsalad,9.1,8.36,-0.7400000000000002,turkeysandwich,1111.4000000953674,1111,1111.7000000476837,True,u,103033.39999997616,1621.7000000476837,1669829727845,1621,HRV,HRV_0082,2022-11-30 17:39:56
50,"[{'imgObject': {}, 'id': 'roastedpotatoes', 'src': '/static/foodstim60/roastedpotatoes.jpg', 'key': 'u', 'origWidth': 409, 'origHeight': 410, 'width': 409, 'height': 410, 'widthPercent': 0.45, 'rescaleHeight': False, 'trialN': 50, 'loaded': True, 'loadedTime': 3972.1999999284744, 'positionName': 'LEFT', 'positionCoords': [512.6, 335], 'bid': 7.0600000000000005}, {'imgObject': {}, 'id': 'eggs', 'src': '/static/foodstim60/eggs.jpg', 'key': 'i', 'origWidth': 409, 'origHeight': 409, 'width': 409, 'height': 409, 'widthPercent': 0.45, 'rescaleHeight': False, 'trialN': 50, 'loaded': True, 'loadedTime': 4073.600000023842, 'positionName': 'RIGHT', 'positionCoords': [998.4, 335.5], 'bid': 6.3500000000000005}]",103033.60000002384,1669829727845,roastedpotatoes,eggs,7.0600000000000005,6.3500000000000005,-0.71,eggs,1922,1923,1922.3999999761581,True,i,105474.39999997616,2440.7999999523163,1669829730286,2441,HRV,HRV_0082,2022-11-30 17:39:56
51,"[{'imgObject': {}, 'id': 'Grapes', 'src': '/static/foodstim60/Grapes.jpg', 'key': 'u', 'origWidth': 411, 'origHeight': 411, 'width': 411, 'height': 411, 'widthPercent': 0.45, 'rescaleHeight': False, 'trialN': 51, 'loaded': True, 'loadedTime': 4446.600000023842, 'positionName': 'LEFT', 'positionCoords': [510.6, 334.5], 'bid': 6.79}, {'imgObject': {}, 'id': 'roastedpotatoes', 'src': '/static/foodstim60/roastedpotatoes.jpg', 'key': 'i', 'origWidth': 409, 'origHeight': 410, 'width': 409, 'height': 410, 'widthPercent': 0.45, 'rescaleHeight': False, 'trialN': 51, 'loaded': True, 'loadedTime': 3944.7999999523163, 'positionName': 'RIGHT', 'positionCoords': [998.4, 335], 'bid': 7.0600000000000005}]",105474.60000002384,1669829730286,Grapes,roastedpotatoes,6.79,7.0600000000000005,0.27000000000000046,roastedpotatoes,1960.5,1961,1960.7999999523163,True,i,107950.0,2475.399999976158,1669829732762,2476,HRV,HRV_0082,2022-11-30 17:39:56
52,"[{'imgObject': {}, 'id': 'raisin bran w milk', 'src': '/static/foodstim60/raisin bran w milk.jpg', 'key': 'u', 'origWidth': 411, 'origHeight': 411, 'width': 411, 'height': 411, 'widthPercent': 0.45, 'rescaleHeight': False, 'trialN': 52, 'loaded': True, 'loadedTime': 4260.299999952316, 'positionName': 'LEFT', 'positionCoords': [510.6, 334.5], 'bid': 3.11}, {'imgObject': {}, 'id': 'Grapes', 'src': '/static/foodstim60/Grapes.jpg', 'key': 'i', 'origWidth': 411, 'origHeight': 411, 'width': 411, 'height': 411, 'widthPercent': 0.45, 'rescaleHeight': False, 'trialN': 52, 'loaded': True, 'loadedTime': 4446.799999952316, 'positionName': 'RIGHT', 'positionCoords': [998.4, 334.5], 'bid': 6.79}]",107950.29999995232,1669829732762,raisin bran w milk,Grapes,3.11,6.79,3.68,Grapes,1405.2000000476837,1406,1405.5,True,i,109870.0,1919.7000000476837,1669829734682,1920,HRV,HRV_0082,2022-11-30 17:39:56
53,"[{'imgObject': {}, 'id': 'cantaloupe', 'src': '/static/foodstim60/cantaloupe.jpg', 'key': 'u', 'origWidth': 409, 'origHeight': 409, 'width': 409, 'height': 409, 'widthPercent': 0.45, 'rescaleHeight': False, 'trialN': 53, 'loaded': True, 'loadedTime': 4400.699999928474, 'positionName': 'LEFT', 'positionCoords': [512.6, 335.5], 'bid': 7.92}, {'imgObject': {}, 'id': 'hotdog w must', 'src': '/static/foodstim60/hotdog w must.jpg', 'key': 'i', 'origWidth': 409, 'origHeight': 409, 'width': 409, 'height': 409, 'widthPercent': 0.45, 'rescaleHeight': False, 'trialN': 53, 'loaded': True, 'loadedTime': 4174.699999928474, 'positionName': 'RIGHT', 'positionCoords': [998.4, 335.5], 'bid': 7.95}]",109870.19999992847,1669829734682,cantaloupe,hotdog w must,7.92,7.95,0.03000000000000025,hotdog w must,1181.4000000953674,1182,1181.6000000238419,True,i,111569.0,1698.8000000715256,1669829736381,1699,HRV,HRV_0082,2022-11-30 17:39:56
54,"[{'imgObject': {}, 'id': 'shreddedwheatwithmilk', 'src': '/static/foodstim60/shreddedwheatwithmilk.jpg', 'key': 'u', 'origWidth': 410, 'origHeight': 410, 'width': 410, 'height': 410, 'widthPercent': 0.45, 'rescaleHeight': False, 'trialN': 54, 'loaded': True, 'loadedTime': 4260.199999928474, 'positionName': 'LEFT', 'positionCoords': [511.6, 335], 'bid': 2.26}, {'imgObject': {}, 'id': 'cherries', 'src': '/static/foodstim60/cherries.jpg', 'key': 'i', 'origWidth': 410, 'origHeight': 411, 'width': 410, 'height': 411, 'widthPercent': 0.45, 'rescaleHeight': False, 'trialN': 54, 'loaded': True, 'loadedTime': 4002.399999976158, 'positionName': 'RIGHT', 'positionCoords': [998.4, 334.5], 'bid': 7.48}]",111569.10000002384,1669829736381,shreddedwheatwithmilk,cherries,2.26,7.48,5.220000000000001,cherries,1329.8999999761581,1330,1330.2999999523163,True,i,113410.10000002384,1841.0,1669829738222,1841,HRV,HRV_0082,2022-11-30 17:39:56
55,"[{'imgObject': {}, 'id': 'baked potato', 'src': '/static/foodstim60/baked potato.jpg', 'key': 'u', 'origWidth': 409, 'origHeight': 410, 'width': 409, 'height': 410, 'widthPercent': 0.45, 'rescaleHeight': False, 'trialN': 55, 'loaded': True, 'loadedTime': 3995.7999999523163, 'positionName': 'LEFT', 'positionCoords': [512.6, 335], 'bid': 7.53}, {'imgObject': {}, 'id': 'apple slices', 'src': '/static/foodstim60/apple slices.jpg', 'key': 'i', 'origWidth': 409, 'origHeight': 410, 'width': 409, 'height': 410, 'widthPercent': 0.45, 'rescaleHeight': False, 'trialN': 55, 'loaded': True, 'loadedTime': 4324.299999952316, 'positionName': 'RIGHT', 'positionCoords': [998.4, 335], 'bid': 7.46}]",113410.19999992847,1669829738222,baked potato,apple slices,7.53,7.46,-0.07000000000000028,baked potato,2513,2513,2513.3000000715256,True,u,116438.60000002384,3028.4000000953674,1669829741250,3028,HRV,HRV_0082,2022-11-30 17:39:56
56,"[{'imgObject': {}, 'id': 'Tribe humus pita', 'src': '/static/foodstim60/Tribe humus pita.jpg', 'key': 'u', 'origWidth': 411, 'origHeight': 411, 'width': 411, 'height': 411, 'widthPercent': 0.45, 'rescaleHeight': False, 'trialN': 56, 'loaded': True, 'loadedTime': 4423.600000023842, 'positionName': 'LEFT', 'positionCoords': [510.6, 334.5], 'bid': 6.7}, {'imgObject': {}, 'id': 'cheerios', 'src': '/static/foodstim60/cheerios.jpg', 'key': 'i', 'origWidth': 409, 'origHeight': 410, 'width': 409, 'height': 410, 'widthPercent': 0.45, 'rescaleHeight': False, 'trialN': 56, 'loaded': True, 'loadedTime': 3862.5, 'positionName': 'RIGHT', 'positionCoords': [998.4, 335], 'bid': 2.65}]",116438.69999992847,1669829741251,Tribe humus pita,cheerios,6.7,2.65,-4.050000000000001,Tribe humus pita,1028.2000000476837,1028,1028.5,True,u,117986.69999992847,1548.0,1669829742799,1548,HRV,HRV_0082,2022-11-30 17:39:56
57,"[{'imgObject': {}, 'id': 'fruitsalad', 'src': '/static/foodstim60/fruitsalad.jpg', 'key': 'u', 'origWidth': 410, 'origHeight': 410, 'width': 410, 'height': 410, 'widthPercent': 0.45, 'rescaleHeight': False, 'trialN': 57, 'loaded': True, 'loadedTime': 4141.100000023842, 'positionName': 'LEFT', 'positionCoords': [511.6, 335], 'bid': 8.36}, {'imgObject': {}, 'id': 'salad w chicken', 'src': '/static/foodstim60/salad w chicken.jpg', 'key': 'i', 'origWidth': 411, 'origHeight': 411, 'width': 411, 'height': 411, 'widthPercent': 0.45, 'rescaleHeight': False, 'trialN': 57, 'loaded': True, 'loadedTime': 4410.199999928474, 'positionName': 'RIGHT', 'positionCoords': [998.4, 334.5], 'bid': 8.6}]",117986.89999997616,1669829742799,fruitsalad,salad w chicken,8.36,8.6,0.2400000000000002,salad w chicken,1056.6000000238419,1057,1056.8999999761581,True,i,119564.69999992847,1577.7999999523163,1669829744376,1577,HRV,HRV_0082,2022-11-30 17:39:56
58,"[{'imgObject': {}, 'id': 'raspberries', 'src': '/static/foodstim60/raspberries.jpg', 'key': 'u', 'origWidth': 411, 'origHeight': 411, 'width': 411, 'height': 411, 'widthPercent': 0.45, 'rescaleHeight': False, 'trialN': 58, 'loaded': True, 'loadedTime': 4425, 'positionName': 'LEFT', 'positionCoords': [510.6, 334.5], 'bid': 7.3}, {'imgObject': {}, 'id': 'strawberries', 'src': '/static/foodstim60/strawberries.jpg', 'key': 'i', 'origWidth': 410, 'origHeight': 410, 'width': 410, 'height': 410, 'widthPercent': 0.45, 'rescaleHeight': False, 'trialN': 58, 'loaded': True, 'loadedTime': 4495.899999976158, 'positionName': 'RIGHT', 'positionCoords': [998.4, 335], 'bid': 7.33}]",119564.79999995232,1669829744377,raspberries,strawberries,7.3,7.33,0.03000000000000025,raspberries,2014.5,2014,2014.8000000715256,True,u,122094.19999992847,2529.399999976158,1669829746906,2529,HRV,HRV_0082,2022-11-30 17:39:56
59,"[{'imgObject': {}, 'id': 'shreddedwheatwithmilk', 'src': '/static/foodstim60/shreddedwheatwithmilk.jpg', 'key': 'u', 'origWidth': 410, 'origHeight': 410, 'width': 410, 'height': 410, 'widthPercent': 0.45, 'rescaleHeight': False, 'trialN': 59, 'loaded': True, 'loadedTime': 4259.699999928474, 'positionName': 'LEFT', 'positionCoords': [511.6, 335], 'bid': 2.26}, {'imgObject': {}, 'id': 'avocado', 'src': '/static/foodstim60/avocado.jpg', 'key': 'i', 'origWidth': 409, 'origHeight': 409, 'width': 409, 'height': 409, 'widthPercent': 0.45, 'rescaleHeight': False, 'trialN': 59, 'loaded': True, 'loadedTime': 4407, 'positionName': 'RIGHT', 'positionCoords': [998.4, 335.5], 'bid': 4.15}]",122094.39999997616,1669829746906,shreddedwheatwithmilk,avocado,2.26,4.15,1.8900000000000006,avocado,997,998,997.5,True,i,123610.89999997616,1516.5,1669829748423,1517,HRV,HRV_0082,2022-11-30 17:39:56
60,"[{'imgObject': {}, 'id': 'luckycharms', 'src': '/static/foodstim60/luckycharms.jpg', 'key': 'u', 'origWidth': 410, 'origHeight': 409, 'width': 410, 'height': 409, 'widthPercent': 0.45, 'rescaleHeight': False, 'trialN': 60, 'loaded': True, 'loadedTime': 4468.299999952316, 'positionName': 'LEFT', 'positionCoords': [511.6, 335.5], 'bid': 2.43}, {'imgObject': {}, 'id': 'cheerios', 'src': '/static/foodstim60/cheerios.jpg', 'key': 'i', 'origWidth': 409, 'origHeight': 410, 'width': 409, 'height': 410, 'widthPercent': 0.45, 'rescaleHeight': False, 'trialN': 60, 'loaded': True, 'loadedTime': 3866.100000023842, 'positionName': 'RIGHT', 'positionCoords': [998.4, 335], 'bid': 2.65}]",123611.0,1669829748423,luckycharms,cheerios,2.43,2.65,0.21999999999999975,cheerios,1152.3999999761581,1153,1152.7999999523163,True,i,125282.5,1671.5,1669829750094,1671,HRV,HRV_0082,2022-11-30 17:39:56
61,"[{'imgObject': {}, 'id': 'burrito', 'src': '/static/foodstim60/burrito.jpg', 'key': 'u', 'origWidth': 410, 'origHeight': 410, 'width': 410, 'height': 410, 'widthPercent': 0.45, 'rescaleHeight': False, 'trialN': 61, 'loaded': True, 'loadedTime': 4448.399999976158, 'positionName': 'LEFT', 'positionCoords': [511.6, 335], 'bid': 8.53}, {'imgObject': {}, 'id': 'salad w chicken', 'src': '/static/foodstim60/salad w chicken.jpg', 'key': 'i', 'origWidth': 411, 'origHeight': 411, 'width': 411, 'height': 411, 'widthPercent': 0.45, 'rescaleHeight': False, 'trialN': 61, 'loaded': True, 'loadedTime': 4409.399999976158, 'positionName': 'RIGHT', 'positionCoords': [998.4, 334.5], 'bid': 8.6}]",125282.60000002384,1669829750094,burrito,salad w chicken,8.53,8.6,0.07000000000000028,salad w chicken,1504.3999999761581,1505,1504.6999999284744,True,i,127295.5,2012.8999999761581,1669829752107,2013,HRV,HRV_0082,2022-11-30 17:39:56
62,"[{'imgObject': {}, 'id': 'froot loops w milk', 'src': '/static/foodstim60/froot loops w milk.jpg', 'key': 'u', 'origWidth': 410, 'origHeight': 410, 'width': 410, 'height': 410, 'widthPercent': 0.45, 'rescaleHeight': False, 'trialN': 62, 'loaded': True, 'loadedTime': 4401.799999952316, 'positionName': 'LEFT', 'positionCoords': [511.6, 335], 'bid': 2.64}, {'imgObject': {}, 'id': 'popsicles', 'src': '/static/foodstim60/popsicles.jpg', 'key': 'i', 'origWidth': 410, 'origHeight': 410, 'width': 410, 'height': 410, 'widthPercent': 0.45, 'rescaleHeight': False, 'trialN': 62, 'loaded': True, 'loadedTime': 4511.799999952316, 'positionName': 'RIGHT', 'positionCoords': [998.4, 335], 'bid': 5.76}]",127295.60000002384,1669829752108,froot loops w milk,popsicles,2.64,5.76,3.1199999999999997,popsicles,2915.5,2915,2915.6999999284744,True,i,130728.39999997616,3432.7999999523163,1669829755540,3432,HRV,HRV_0082,2022-11-30 17:39:56
63,"[{'imgObject': {}, 'id': 'avocado', 'src': '/static/foodstim60/avocado.jpg', 'key': 'u', 'origWidth': 409, 'origHeight': 409, 'width': 409, 'height': 409, 'widthPercent': 0.45, 'rescaleHeight': False, 'trialN': 63, 'loaded': True, 'loadedTime': 4407.100000023842, 'positionName': 'LEFT', 'positionCoords': [512.6, 335.5], 'bid': 4.15}, {'imgObject': {}, 'id': 'granola w milk', 'src': '/static/foodstim60/granola w milk.jpg', 'key': 'i', 'origWidth': 410, 'origHeight': 410, 'width': 410, 'height': 410, 'widthPercent': 0.45, 'rescaleHeight': False, 'trialN': 63, 'loaded': True, 'loadedTime': 4240.5, 'positionName': 'RIGHT', 'positionCoords': [998.4, 335], 'bid': 2.86}]",130728.60000002384,1669829755540,avocado,granola w milk,4.15,2.86,-1.2900000000000005,avocado,1218.8999999761581,1220,1219.2999999523163,True,u,132464.10000002384,1735.5,1669829757276,1736,HRV,HRV_0082,2022-11-30 17:39:56
64,"[{'imgObject': {}, 'id': 'orange slices', 'src': '/static/foodstim60/orange slices.jpg', 'key': 'u', 'origWidth': 409, 'origHeight': 410, 'width': 409, 'height': 410, 'widthPercent': 0.45, 'rescaleHeight': False, 'trialN': 64, 'loaded': True, 'loadedTime': 4143.199999928474, 'positionName': 'LEFT', 'positionCoords': [512.6, 335], 'bid': 7.57}, {'imgObject': {}, 'id': 'mango', 'src': '/static/foodstim60/mango.jpg', 'key': 'i', 'origWidth': 411, 'origHeight': 411, 'width': 411, 'height': 411, 'widthPercent': 0.45, 'rescaleHeight': False, 'trialN': 64, 'loaded': True, 'loadedTime': 4323.199999928474, 'positionName': 'RIGHT', 'positionCoords': [998.4, 334.5], 'bid': 7.46}]",132464.29999995232,1669829757276,orange slices,mango,7.57,7.46,-0.11000000000000032,mango,2067,2067,2067.3000000715256,True,i,135044.29999995232,2580.0,1669829759856,2580,HRV,HRV_0082,2022-11-30 17:39:56
65,"[{'imgObject': {}, 'id': 'bagel plain', 'src': '/static/foodstim60/bagel plain.jpg', 'key': 'u', 'origWidth': 410, 'origHeight': 410, 'width': 410, 'height': 410, 'widthPercent': 0.45, 'rescaleHeight': False, 'trialN': 65, 'loaded': True, 'loadedTime': 4414.799999952316, 'positionName': 'LEFT', 'positionCoords': [511.6, 335], 'bid': 7.66}, {'imgObject': {}, 'id': 'steak', 'src': '/static/foodstim60/steak.jpg', 'key': 'i', 'origWidth': 410, 'origHeight': 410, 'width': 410, 'height': 410, 'widthPercent': 0.45, 'rescaleHeight': False, 'trialN': 65, 'loaded': True, 'loadedTime': 4090.899999976158, 'positionName': 'RIGHT', 'positionCoords': [998.4, 335], 'bid': 8.76}]",135044.39999997616,1669829759856,bagel plain,steak,7.66,8.76,1.0999999999999996,steak,1095,1096,1095.2999999523163,True,i,136658.0,1613.6000000238419,1669829761470,1614,HRV,HRV_0082,2022-11-30 17:39:56
66,"[{'imgObject': {}, 'id': 'froot loops w milk', 'src': '/static/foodstim60/froot loops w milk.jpg', 'key': 'u', 'origWidth': 410, 'origHeight': 410, 'width': 410, 'height': 410, 'widthPercent': 0.45, 'rescaleHeight': False, 'trialN': 66, 'loaded': True, 'loadedTime': 4402.299999952316, 'positionName': 'LEFT', 'positionCoords': [511.6, 335], 'bid': 2.64}, {'imgObject': {}, 'id': 'shreddedwheatwithmilk', 'src': '/static/foodstim60/shreddedwheatwithmilk.jpg', 'key': 'i', 'origWidth': 410, 'origHeight': 410, 'width': 410, 'height': 410, 'widthPercent': 0.45, 'rescaleHeight': False, 'trialN': 66, 'loaded': True, 'loadedTime': 4242.399999976158, 'positionName': 'RIGHT', 'positionCoords': [998.4, 335], 'bid': 2.26}]",136658.10000002384,1669829761470,froot loops w milk,shreddedwheatwithmilk,2.64,2.26,-0.38000000000000034,shreddedwheatwithmilk,2289.1999999284744,2290,2289.5999999046326,True,i,139463.29999995232,2805.1999999284744,1669829764275,2805,HRV,HRV_0082,2022-11-30 17:39:56
67,"[{'imgObject': {}, 'id': 'mashed potato', 'src': '/static/foodstim60/mashed potato.jpg', 'key': 'u', 'origWidth': 409, 'origHeight': 409, 'width': 409, 'height': 409, 'widthPercent': 0.45, 'rescaleHeight': False, 'trialN': 67, 'loaded': True, 'loadedTime': 4466.299999952316, 'positionName': 'LEFT', 'positionCoords': [512.6, 335.5], 'bid': 7.57}, {'imgObject': {}, 'id': 'orange slices', 'src': '/static/foodstim60/orange slices.jpg', 'key': 'i', 'origWidth': 409, 'origHeight': 410, 'width': 409, 'height': 410, 'widthPercent': 0.45, 'rescaleHeight': False, 'trialN': 67, 'loaded': True, 'loadedTime': 4150.199999928474, 'positionName': 'RIGHT', 'positionCoords': [998.4, 335], 'bid': 7.57}]",139463.39999997616,1669829764275,mashed potato,orange slices,7.57,7.57,0.0,mashed potato,1275.8999999761581,1277,1276.2999999523163,True,u,141260.0,1796.6000000238419,1669829766072,1797,HRV,HRV_0082,2022-11-30 17:39:56
68,"[{'imgObject': {}, 'id': 'olives', 'src': '/static/foodstim60/olives.jpg', 'key': 'u', 'origWidth': 410, 'origHeight': 410, 'width': 410, 'height': 410, 'widthPercent': 0.45, 'rescaleHeight': False, 'trialN': 68, 'loaded': True, 'loadedTime': 4278.100000023842, 'positionName': 'LEFT', 'positionCoords': [511.6, 335], 'bid': 5.67}, {'imgObject': {}, 'id': 'rigatoni and sauce', 'src': '/static/foodstim60/rigatoni and sauce.jpg', 'key': 'i', 'origWidth': 410, 'origHeight': 411, 'width': 410, 'height': 411, 'widthPercent': 0.45, 'rescaleHeight': False, 'trialN': 68, 'loaded': True, 'loadedTime': 4497.899999976158, 'positionName': 'RIGHT', 'positionCoords': [998.4, 334.5], 'bid': 5.32}]",141260.10000002384,1669829766072,olives,rigatoni and sauce,5.67,5.32,-0.34999999999999964,olives,1335.5,1336,1335.6999999284744,True,u,143103.39999997616,1843.2999999523163,1669829767915,1843,HRV,HRV_0082,2022-11-30 17:39:56
69,"[{'imgObject': {}, 'id': 'turkeysandwich', 'src': '/static/foodstim60/turkeysandwich.jpg', 'key': 'u', 'origWidth': 409, 'origHeight': 409, 'width': 409, 'height': 409, 'widthPercent': 0.45, 'rescaleHeight': False, 'trialN': 69, 'loaded': True, 'loadedTime': 4486.399999976158, 'positionName': 'LEFT', 'positionCoords': [512.6, 335.5], 'bid': 9.1}, {'imgObject': {}, 'id': 'cantaloupe', 'src': '/static/foodstim60/cantaloupe.jpg', 'key': 'i', 'origWidth': 409, 'origHeight': 409, 'width': 409, 'height': 409, 'widthPercent': 0.45, 'rescaleHeight': False, 'trialN': 69, 'loaded': True, 'loadedTime': 4395.299999952316, 'positionName': 'RIGHT', 'positionCoords': [998.4, 335.5], 'bid': 7.92}]",143103.5,1669829767915,turkeysandwich,cantaloupe,9.1,7.92,-1.1799999999999997,turkeysandwich,1259.6000000238419,1260,1259.8999999761581,True,u,144884.0,1780.5,1669829769696,1781,HRV,HRV_0082,2022-11-30 17:39:56
70,"[{'imgObject': {}, 'id': 'strawberries', 'src': '/static/foodstim60/strawberries.jpg', 'key': 'u', 'origWidth': 410, 'origHeight': 410, 'width': 410, 'height': 410, 'widthPercent': 0.45, 'rescaleHeight': False, 'trialN': 70, 'loaded': True, 'loadedTime': 4496.100000023842, 'positionName': 'LEFT', 'positionCoords': [511.6, 335], 'bid': 7.33}, {'imgObject': {}, 'id': 'chickenfingers', 'src': '/static/foodstim60/chickenfingers.jpg', 'key': 'i', 'origWidth': 410, 'origHeight': 410, 'width': 410, 'height': 410, 'widthPercent': 0.45, 'rescaleHeight': False, 'trialN': 70, 'loaded': True, 'loadedTime': 3944.100000023842, 'positionName': 'RIGHT', 'positionCoords': [998.4, 335], 'bid': 8.84}]",144884.19999992847,1669829769696,strawberries,chickenfingers,7.33,8.84,1.5099999999999998,chickenfingers,1207.2000000476837,1208,1207.7000000476837,True,i,146607.0,1722.8000000715256,1669829771419,1723,HRV,HRV_0082,2022-11-30 17:39:56
71,"[{'imgObject': {}, 'id': 'Tribe humus pita', 'src': '/static/foodstim60/Tribe humus pita.jpg', 'key': 'u', 'origWidth': 411, 'origHeight': 411, 'width': 411, 'height': 411, 'widthPercent': 0.45, 'rescaleHeight': False, 'trialN': 71, 'loaded': True, 'loadedTime': 4416.799999952316, 'positionName': 'LEFT', 'positionCoords': [510.6, 334.5], 'bid': 6.7}, {'imgObject': {}, 'id': 'eggsalad', 'src': '/static/foodstim60/eggsalad.jpg', 'key': 'i', 'origWidth': 410, 'origHeight': 409, 'width': 410, 'height': 409, 'widthPercent': 0.45, 'rescaleHeight': False, 'trialN': 71, 'loaded': True, 'loadedTime': 4135.399999976158, 'positionName': 'RIGHT', 'positionCoords': [998.4, 335.5], 'bid': 6.72}]",146607.19999992847,1669829771419,Tribe humus pita,eggsalad,6.7,6.72,0.019999999999999574,Tribe humus pita,1428,1429,1428.4000000953674,True,u,148555.60000002384,1948.4000000953674,1669829773368,1949,HRV,HRV_0082,2022-11-30 17:39:56
72,"[{'imgObject': {}, 'id': 'baked potato', 'src': '/static/foodstim60/baked potato.jpg', 'key': 'u', 'origWidth': 409, 'origHeight': 410, 'width': 409, 'height': 410, 'widthPercent': 0.45, 'rescaleHeight': False, 'trialN': 72, 'loaded': True, 'loadedTime': 3994.7999999523163, 'positionName': 'LEFT', 'positionCoords': [512.6, 335], 'bid': 7.53}, {'imgObject': {}, 'id': 'cherries', 'src': '/static/foodstim60/cherries.jpg', 'key': 'i', 'origWidth': 410, 'origHeight': 411, 'width': 410, 'height': 411, 'widthPercent': 0.45, 'rescaleHeight': False, 'trialN': 72, 'loaded': True, 'loadedTime': 4002.7999999523163, 'positionName': 'RIGHT', 'positionCoords': [998.4, 334.5], 'bid': 7.48}]",148555.69999992847,1669829773368,baked potato,cherries,7.53,7.48,-0.04999999999999982,cherries,1551.8000000715256,1552,1552.2000000476837,True,i,150617.19999992847,2061.5,1669829775429,2061,HRV,HRV_0082,2022-11-30 17:39:56
73,"[{'imgObject': {}, 'id': 'mango', 'src': '/static/foodstim60/mango.jpg', 'key': 'u', 'origWidth': 411, 'origHeight': 411, 'width': 411, 'height': 411, 'widthPercent': 0.45, 'rescaleHeight': False, 'trialN': 73, 'loaded': True, 'loadedTime': 4323.299999952316, 'positionName': 'LEFT', 'positionCoords': [510.6, 334.5], 'bid': 7.46}, {'imgObject': {}, 'id': 'ice cream sundae 002', 'src': '/static/foodstim60/ice cream sundae 002.jpg', 'key': 'i', 'origWidth': 409, 'origHeight': 409, 'width': 409, 'height': 409, 'widthPercent': 0.45, 'rescaleHeight': False, 'trialN': 73, 'loaded': True, 'loadedTime': 4303.600000023842, 'positionName': 'RIGHT', 'positionCoords': [998.4, 335.5], 'bid': 9.71}]",150617.5,1669829775430,mango,ice cream sundae 002,7.46,9.71,2.250000000000001,ice cream sundae 002,961.8999999761581,962,962.1999999284744,True,i,152100.60000002384,1483.1000000238419,1669829776913,1483,HRV,HRV_0082,2022-11-30 17:39:56
74,"[{'imgObject': {}, 'id': 'fruitsalad', 'src': '/static/foodstim60/fruitsalad.jpg', 'key': 'u', 'origWidth': 410, 'origHeight': 410, 'width': 410, 'height': 410, 'widthPercent': 0.45, 'rescaleHeight': False, 'trialN': 74, 'loaded': True, 'loadedTime': 4142.600000023842, 'positionName': 'LEFT', 'positionCoords': [511.6, 335], 'bid': 8.36}, {'imgObject': {}, 'id': 'cherries', 'src': '/static/foodstim60/cherries.jpg', 'key': 'i', 'origWidth': 410, 'origHeight': 411, 'width': 410, 'height': 411, 'widthPercent': 0.45, 'rescaleHeight': False, 'trialN': 74, 'loaded': True, 'loadedTime': 4001.399999976158, 'positionName': 'RIGHT', 'positionCoords': [998.4, 334.5], 'bid': 7.48}]",152100.79999995232,1669829776913,fruitsalad,cherries,8.36,7.48,-0.879999999999999,fruitsalad,1510.8000000715256,1511,1511.1000000238419,True,u,154132.0,2031.2000000476837,1669829778944,2031,HRV,HRV_0082,2022-11-30 17:39:56
75,"[{'imgObject': {}, 'id': 'ice cream sundae 002', 'src': '/static/foodstim60/ice cream sundae 002.jpg', 'key': 'u', 'origWidth': 409, 'origHeight': 409, 'width': 409, 'height': 409, 'widthPercent': 0.45, 'rescaleHeight': False, 'trialN': 75, 'loaded': True, 'loadedTime': 4304.399999976158, 'positionName': 'LEFT', 'positionCoords': [512.6, 335.5], 'bid': 9.71}, {'imgObject': {}, 'id': 'turkey sandwich', 'src': '/static/foodstim60/turkey sandwich.jpg', 'key': 'i', 'origWidth': 409, 'origHeight': 409, 'width': 409, 'height': 409, 'widthPercent': 0.45, 'rescaleHeight': False, 'trialN': 75, 'loaded': True, 'loadedTime': 4047.1999999284744, 'positionName': 'RIGHT', 'positionCoords': [998.4, 335.5], 'bid': 9.17}]",154132.19999992847,1669829778944,ice cream sundae 002,turkey sandwich,9.71,9.17,-0.5400000000000009,ice cream sundae 002,1878.9000000953674,1880,1879.2000000476837,True,u,156523.79999995232,2391.600000023842,1669829781336,2392,HRV,HRV_0082,2022-11-30 17:39:56
76,"[{'imgObject': {}, 'id': 'kiwi', 'src': '/static/foodstim60/kiwi.jpg', 'key': 'u', 'origWidth': 410, 'origHeight': 410, 'width': 410, 'height': 410, 'widthPercent': 0.45, 'rescaleHeight': False, 'trialN': 76, 'loaded': True, 'loadedTime': 4344.799999952316, 'positionName': 'LEFT', 'positionCoords': [511.6, 335], 'bid': 6.67}, {'imgObject': {}, 'id': 'eggsalad', 'src': '/static/foodstim60/eggsalad.jpg', 'key': 'i', 'origWidth': 410, 'origHeight': 409, 'width': 410, 'height': 409, 'widthPercent': 0.45, 'rescaleHeight': False, 'trialN': 76, 'loaded': True, 'loadedTime': 4136.299999952316, 'positionName': 'RIGHT', 'positionCoords': [998.4, 335.5], 'bid': 6.72}]",156524.0,1669829781336,kiwi,eggsalad,6.67,6.72,0.04999999999999982,eggsalad,1823.3999999761581,1824,1823.8999999761581,True,i,158860.0,2336.0,1669829783672,2336,HRV,HRV_0082,2022-11-30 17:39:56
77,"[{'imgObject': {}, 'id': 'pear', 'src': '/static/foodstim60/pear.jpg', 'key': 'u', 'origWidth': 411, 'origHeight': 410, 'width': 411, 'height': 410, 'widthPercent': 0.45, 'rescaleHeight': False, 'trialN': 77, 'loaded': True, 'loadedTime': 3942, 'positionName': 'LEFT', 'positionCoords': [510.6, 335], 'bid': 7.4}, {'imgObject': {}, 'id': 'salmon', 'src': '/static/foodstim60/salmon.jpg', 'key': 'i', 'origWidth': 410, 'origHeight': 409, 'width': 410, 'height': 409, 'widthPercent': 0.45, 'rescaleHeight': False, 'trialN': 77, 'loaded': True, 'loadedTime': 4498.799999952316, 'positionName': 'RIGHT', 'positionCoords': [998.4, 335.5], 'bid': 7.59}]",158860.19999992847,1669829783672,pear,salmon,7.4,7.59,0.1899999999999995,salmon,1310.8000000715256,1311,1310.9000000953674,True,i,160693.39999997616,1833.2000000476837,1669829785506,1834,HRV,HRV_0082,2022-11-30 17:39:56
78,"[{'imgObject': {}, 'id': 'sweetpotato', 'src': '/static/foodstim60/sweetpotato.jpg', 'key': 'u', 'origWidth': 410, 'origHeight': 410, 'width': 410, 'height': 410, 'widthPercent': 0.45, 'rescaleHeight': False, 'trialN': 78, 'loaded': True, 'loadedTime': 3925.7999999523163, 'positionName': 'LEFT', 'positionCoords': [511.6, 335], 'bid': 7.56}, {'imgObject': {}, 'id': 'strawberries', 'src': '/static/foodstim60/strawberries.jpg', 'key': 'i', 'origWidth': 410, 'origHeight': 410, 'width': 410, 'height': 410, 'widthPercent': 0.45, 'rescaleHeight': False, 'trialN': 78, 'loaded': True, 'loadedTime': 4495.699999928474, 'positionName': 'RIGHT', 'positionCoords': [998.4, 335], 'bid': 7.33}]",160693.5,1669829785506,sweetpotato,strawberries,7.56,7.33,-0.22999999999999954,sweetpotato,2245.899999976158,2246,2246.2999999523163,True,u,163447.60000002384,2754.100000023842,1669829788260,2754,HRV,HRV_0082,2022-11-30 17:39:56
79,"[{'imgObject': {}, 'id': 'seaweed', 'src': '/static/foodstim60/seaweed.jpg', 'key': 'u', 'origWidth': 410, 'origHeight': 410, 'width': 410, 'height': 410, 'widthPercent': 0.45, 'rescaleHeight': False, 'trialN': 79, 'loaded': True, 'loadedTime': 4198.299999952316, 'positionName': 'LEFT', 'positionCoords': [511.6, 335], 'bid': 8.700000000000001}, {'imgObject': {}, 'id': 'salmon', 'src': '/static/foodstim60/salmon.jpg', 'key': 'i', 'origWidth': 410, 'origHeight': 409, 'width': 410, 'height': 409, 'widthPercent': 0.45, 'rescaleHeight': False, 'trialN': 79, 'loaded': True, 'loadedTime': 4499.899999976158, 'positionName': 'RIGHT', 'positionCoords': [998.4, 335.5], 'bid': 7.59}]",163447.69999992847,1669829788260,seaweed,salmon,8.700000000000001,7.59,-1.1100000000000012,salmon,2195.100000023842,2195,2195.4000000953674,True,i,166152.5,2704.8000000715256,1669829790965,2705,HRV,HRV_0082,2022-11-30 17:39:56
80,"[{'imgObject': {}, 'id': 'bagel and cc', 'src': '/static/foodstim60/bagel and cc.jpg', 'key': 'u', 'origWidth': 410, 'origHeight': 410, 'width': 410, 'height': 410, 'widthPercent': 0.45, 'rescaleHeight': False, 'trialN': 80, 'loaded': True, 'loadedTime': 3897.6999999284744, 'positionName': 'LEFT', 'positionCoords': [511.6, 335], 'bid': 7.84}, {'imgObject': {}, 'id': 'apple slices', 'src': '/static/foodstim60/apple slices.jpg', 'key': 'i', 'origWidth': 409, 'origHeight': 410, 'width': 409, 'height': 410, 'widthPercent': 0.45, 'rescaleHeight': False, 'trialN': 80, 'loaded': True, 'loadedTime': 4324.199999928474, 'positionName': 'RIGHT', 'positionCoords': [998.4, 335], 'bid': 7.46}]",166152.89999997616,1669829790965,bagel and cc,apple slices,7.84,7.46,-0.3799999999999999,apple slices,1594.5,1595,1594.8999999761581,True,i,168258.89999997616,2106.0,1669829793071,2106,HRV,HRV_0082,2022-11-30 17:39:56
81,"[{'imgObject': {}, 'id': 'rigatoni and sauce', 'src': '/static/foodstim60/rigatoni and sauce.jpg', 'key': 'u', 'origWidth': 410, 'origHeight': 411, 'width': 410, 'height': 411, 'widthPercent': 0.45, 'rescaleHeight': False, 'trialN': 81, 'loaded': True, 'loadedTime': 4496.5, 'positionName': 'LEFT', 'positionCoords': [511.6, 334.5], 'bid': 5.32}, {'imgObject': {}, 'id': 'cheerios', 'src': '/static/foodstim60/cheerios.jpg', 'key': 'i', 'origWidth': 409, 'origHeight': 410, 'width': 409, 'height': 410, 'widthPercent': 0.45, 'rescaleHeight': False, 'trialN': 81, 'loaded': True, 'loadedTime': 3829.1999999284744, 'positionName': 'RIGHT', 'positionCoords': [998.4, 335], 'bid': 2.65}]",168259.10000002384,1669829793071,rigatoni and sauce,cheerios,5.32,2.65,-2.6700000000000004,rigatoni and sauce,1496,1497,1496.3999999761581,True,u,170262.69999992847,2003.5999999046326,1669829795075,2004,HRV,HRV_0082,2022-11-30 17:39:56
82,"[{'imgObject': {}, 'id': 'roastedpotatoes', 'src': '/static/foodstim60/roastedpotatoes.jpg', 'key': 'u', 'origWidth': 409, 'origHeight': 410, 'width': 409, 'height': 410, 'widthPercent': 0.45, 'rescaleHeight': False, 'trialN': 82, 'loaded': True, 'loadedTime': 3952.399999976158, 'positionName': 'LEFT', 'positionCoords': [512.6, 335], 'bid': 7.0600000000000005}, {'imgObject': {}, 'id': 'avocado', 'src': '/static/foodstim60/avocado.jpg', 'key': 'i', 'origWidth': 409, 'origHeight': 409, 'width': 409, 'height': 409, 'widthPercent': 0.45, 'rescaleHeight': False, 'trialN': 82, 'loaded': True, 'loadedTime': 4406.899999976158, 'positionName': 'RIGHT', 'positionCoords': [998.4, 335.5], 'bid': 4.15}]",170262.79999995232,1669829795075,roastedpotatoes,avocado,7.0600000000000005,4.15,-2.91,avocado,1868.6000000238419,1869,1869.0,True,i,172652.19999992847,2389.399999976158,1669829797464,2389,HRV,HRV_0082,2022-11-30 17:39:56
83,"[{'imgObject': {}, 'id': 'veggieswithdip', 'src': '/static/foodstim60/veggieswithdip.jpg', 'key': 'u', 'origWidth': 409, 'origHeight': 409, 'width': 409, 'height': 409, 'widthPercent': 0.45, 'rescaleHeight': False, 'trialN': 83, 'loaded': True, 'loadedTime': 4006.1999999284744, 'positionName': 'LEFT', 'positionCoords': [512.6, 335.5], 'bid': 7.38}, {'imgObject': {}, 'id': 'banana', 'src': '/static/foodstim60/banana.jpg', 'key': 'i', 'origWidth': 410, 'origHeight': 410, 'width': 410, 'height': 410, 'widthPercent': 0.45, 'rescaleHeight': False, 'trialN': 83, 'loaded': True, 'loadedTime': 3940.7999999523163, 'positionName': 'RIGHT', 'positionCoords': [998.4, 335], 'bid': 7.42}]",172652.39999997616,1669829797465,veggieswithdip,banana,7.38,7.42,0.040000000000000036,veggieswithdip,1183.1000000238419,1183,1183.5,True,u,174354.79999995232,1702.3999999761581,1669829799167,1702,HRV,HRV_0082,2022-11-30 17:39:56
84,"[{'imgObject': {}, 'id': 'cheerios', 'src': '/static/foodstim60/cheerios.jpg', 'key': 'u', 'origWidth': 409, 'origHeight': 410, 'width': 409, 'height': 410, 'widthPercent': 0.45, 'rescaleHeight': False, 'trialN': 84, 'loaded': True, 'loadedTime': 3867.7999999523163, 'positionName': 'LEFT', 'positionCoords': [512.6, 335], 'bid': 2.65}, {'imgObject': {}, 'id': 'froot loops w milk', 'src': '/static/foodstim60/froot loops w milk.jpg', 'key': 'i', 'origWidth': 410, 'origHeight': 410, 'width': 410, 'height': 410, 'widthPercent': 0.45, 'rescaleHeight': False, 'trialN': 84, 'loaded': True, 'loadedTime': 4400.799999952316, 'positionName': 'RIGHT', 'positionCoords': [998.4, 335], 'bid': 2.64}]",174355.10000002384,1669829799167,cheerios,froot loops w milk,2.65,2.64,-0.009999999999999787,cheerios,1280.1999999284744,1281,1280.5,True,u,176150.5,1795.3999999761581,1669829800963,1796,HRV,HRV_0082,2022-11-30 17:39:56
85,"[{'imgObject': {}, 'id': 'omelette', 'src': '/static/foodstim60/omelette.jpg', 'key': 'u', 'origWidth': 410, 'origHeight': 409, 'width': 410, 'height': 409, 'widthPercent': 0.45, 'rescaleHeight': False, 'trialN': 85, 'loaded': True, 'loadedTime': 4404.799999952316, 'positionName': 'LEFT', 'positionCoords': [511.6, 335.5], 'bid': 6.22}, {'imgObject': {}, 'id': 'lox', 'src': '/static/foodstim60/lox.jpg', 'key': 'i', 'origWidth': 410, 'origHeight': 411, 'width': 410, 'height': 411, 'widthPercent': 0.45, 'rescaleHeight': False, 'trialN': 85, 'loaded': True, 'loadedTime': 4501.199999928474, 'positionName': 'RIGHT', 'positionCoords': [998.4, 334.5], 'bid': 8.22}]",176150.89999997616,1669829800963,omelette,lox,6.22,8.22,2.000000000000001,lox,2477,2478,2477.2999999523163,True,i,179143.39999997616,2992.5,1669829803956,2993,HRV,HRV_0082,2022-11-30 17:39:56
86,"[{'imgObject': {}, 'id': 'sweetpotato', 'src': '/static/foodstim60/sweetpotato.jpg', 'key': 'u', 'origWidth': 410, 'origHeight': 410, 'width': 410, 'height': 410, 'widthPercent': 0.45, 'rescaleHeight': False, 'trialN': 86, 'loaded': True, 'loadedTime': 3925.399999976158, 'positionName': 'LEFT', 'positionCoords': [511.6, 335], 'bid': 7.56}, {'imgObject': {}, 'id': 'banana', 'src': '/static/foodstim60/banana.jpg', 'key': 'i', 'origWidth': 410, 'origHeight': 410, 'width': 410, 'height': 410, 'widthPercent': 0.45, 'rescaleHeight': False, 'trialN': 86, 'loaded': True, 'loadedTime': 3941, 'positionName': 'RIGHT', 'positionCoords': [998.4, 335], 'bid': 7.42}]",179143.5,1669829803956,sweetpotato,banana,7.56,7.42,-0.13999999999999968,sweetpotato,2499.600000023842,2500,2500.0,True,u,182161.79999995232,3018.2999999523163,1669829806974,3018,HRV,HRV_0082,2022-11-30 17:39:56
87,"[{'imgObject': {}, 'id': 'chicken nuggets2', 'src': '/static/foodstim60/chicken nuggets2.jpg', 'key': 'u', 'origWidth': 410, 'origHeight': 409, 'width': 410, 'height': 409, 'widthPercent': 0.45, 'rescaleHeight': False, 'trialN': 87, 'loaded': True, 'loadedTime': 4138.399999976158, 'positionName': 'LEFT', 'positionCoords': [511.6, 335.5], 'bid': 8.63}, {'imgObject': {}, 'id': 'orange slices', 'src': '/static/foodstim60/orange slices.jpg', 'key': 'i', 'origWidth': 409, 'origHeight': 410, 'width': 409, 'height': 410, 'widthPercent': 0.45, 'rescaleHeight': False, 'trialN': 87, 'loaded': True, 'loadedTime': 4144.299999952316, 'positionName': 'RIGHT', 'positionCoords': [998.4, 335], 'bid': 7.57}]",182162.0,1669829806974,chicken nuggets2,orange slices,8.63,7.57,-1.0600000000000005,chicken nuggets2,1193.7999999523163,1194,1194.1000000238419,True,u,183863.69999992847,1701.6999999284744,1669829808676,1702,HRV,HRV_0082,2022-11-30 17:39:56
88,"[{'imgObject': {}, 'id': 'popsicles', 'src': '/static/foodstim60/popsicles.jpg', 'key': 'u', 'origWidth': 410, 'origHeight': 410, 'width': 410, 'height': 410, 'widthPercent': 0.45, 'rescaleHeight': False, 'trialN': 88, 'loaded': True, 'loadedTime': 4511.899999976158, 'positionName': 'LEFT', 'positionCoords': [511.6, 335], 'bid': 5.76}, {'imgObject': {}, 'id': 'banana', 'src': '/static/foodstim60/banana.jpg', 'key': 'i', 'origWidth': 410, 'origHeight': 410, 'width': 410, 'height': 410, 'widthPercent': 0.45, 'rescaleHeight': False, 'trialN': 88, 'loaded': True, 'loadedTime': 3937.399999976158, 'positionName': 'RIGHT', 'positionCoords': [998.4, 335], 'bid': 7.42}]",183863.89999997616,1669829808676,popsicles,banana,5.76,7.42,1.6600000000000001,banana,1043.5,1044,1043.6000000238419,True,i,185415.0,1551.1000000238419,1669829810227,1551,HRV,HRV_0082,2022-11-30 17:39:56
89,"[{'imgObject': {}, 'id': 'grilled chicken strips', 'src': '/static/foodstim60/grilled chicken strips.jpg', 'key': 'u', 'origWidth': 410, 'origHeight': 411, 'width': 410, 'height': 411, 'widthPercent': 0.45, 'rescaleHeight': False, 'trialN': 89, 'loaded': True, 'loadedTime': 4073.7999999523163, 'positionName': 'LEFT', 'positionCoords': [511.6, 334.5], 'bid': 8.620000000000001}, {'imgObject': {}, 'id': 'chicken nuggets2', 'src': '/static/foodstim60/chicken nuggets2.jpg', 'key': 'i', 'origWidth': 410, 'origHeight': 409, 'width': 410, 'height': 409, 'widthPercent': 0.45, 'rescaleHeight': False, 'trialN': 89, 'loaded': True, 'loadedTime': 4138.299999952316, 'positionName': 'RIGHT', 'positionCoords': [998.4, 335.5], 'bid': 8.63}]",185415.29999995232,1669829810228,grilled chicken strips,chicken nuggets2,8.620000000000001,8.63,0.009999999999999787,chicken nuggets2,1236,1236,1236.3999999761581,True,i,187166.69999992847,1751.3999999761581,1669829811979,1751,HRV,HRV_0082,2022-11-30 17:39:56
90,"[{'imgObject': {}, 'id': 'mac & cheese', 'src': '/static/foodstim60/mac & cheese.jpg', 'key': 'u', 'origWidth': 410, 'origHeight': 410, 'width': 410, 'height': 410, 'widthPercent': 0.45, 'rescaleHeight': False, 'trialN': 90, 'loaded': True, 'loadedTime': 4502.5, 'positionName': 'LEFT', 'positionCoords': [511.6, 335], 'bid': 4.51}, {'imgObject': {}, 'id': 'strawberries', 'src': '/static/foodstim60/strawberries.jpg', 'key': 'i', 'origWidth': 410, 'origHeight': 410, 'width': 410, 'height': 410, 'widthPercent': 0.45, 'rescaleHeight': False, 'trialN': 90, 'loaded': True, 'loadedTime': 4496.199999928474, 'positionName': 'RIGHT', 'positionCoords': [998.4, 335], 'bid': 7.33}]",192665.60000002384,1669829817478,mac & cheese,strawberries,4.51,7.33,2.8200000000000003,NaN,NaN,NaN,,False,NaN,196699.5,4033.899999976158,1669829821512,4034,HRV,HRV_0082,2022-11-30 17:39:56
91,"[{'imgObject': {}, 'id': 'veggieswithdip', 'src': '/static/foodstim60/veggieswithdip.jpg', 'key': 'u', 'origWidth': 409, 'origHeight': 409, 'width': 409, 'height': 409, 'widthPercent': 0.45, 'rescaleHeight': False, 'trialN': 91, 'loaded': True, 'loadedTime': 4005.2999999523163, 'positionName': 'LEFT', 'positionCoords': [512.6, 335.5], 'bid': 7.38}, {'imgObject': {}, 'id': 'baked potato', 'src': '/static/foodstim60/baked potato.jpg', 'key': 'i', 'origWidth': 409, 'origHeight': 410, 'width': 409, 'height': 410, 'widthPercent': 0.45, 'rescaleHeight': False, 'trialN': 91, 'loaded': True, 'loadedTime': 3972.7999999523163, 'positionName': 'RIGHT', 'positionCoords': [998.4, 335], 'bid': 7.53}]",196699.5,1669829821512,veggieswithdip,baked potato,7.38,7.53,0.15000000000000036,veggieswithdip,1967.3999999761581,1967,1967.6999999284744,True,u,199185.10000002384,2485.600000023842,1669829823997,2485,HRV,HRV_0082,2022-11-30 17:39:56
92,"[{'imgObject': {}, 'id': 'baked potato', 'src': '/static/foodstim60/baked potato.jpg', 'key': 'u', 'origWidth': 409, 'origHeight': 410, 'width': 409, 'height': 410, 'widthPercent': 0.45, 'rescaleHeight': False, 'trialN': 92, 'loaded': True, 'loadedTime': 3990.6999999284744, 'positionName': 'LEFT', 'positionCoords': [512.6, 335], 'bid': 7.53}, {'imgObject': {}, 'id': 'luckycharms', 'src': '/static/foodstim60/luckycharms.jpg', 'key': 'i', 'origWidth': 410, 'origHeight': 409, 'width': 410, 'height': 409, 'widthPercent': 0.45, 'rescaleHeight': False, 'trialN': 92, 'loaded': True, 'loadedTime': 4468.5, 'positionName': 'RIGHT', 'positionCoords': [998.4, 335.5], 'bid': 2.43}]",199185.19999992847,1669829823997,baked potato,luckycharms,7.53,2.43,-5.1,baked potato,1442,1443,1442.2000000476837,True,u,201143.69999992847,1958.5,1669829825956,1959,HRV,HRV_0082,2022-11-30 17:39:56
93,"[{'imgObject': {}, 'id': 'mango', 'src': '/static/foodstim60/mango.jpg', 'key': 'u', 'origWidth': 411, 'origHeight': 411, 'width': 411, 'height': 411, 'widthPercent': 0.45, 'rescaleHeight': False, 'trialN': 93, 'loaded': True, 'loadedTime': 4322.399999976158, 'positionName': 'LEFT', 'positionCoords': [510.6, 334.5], 'bid': 7.46}, {'imgObject': {}, 'id': 'cherries', 'src': '/static/foodstim60/cherries.jpg', 'key': 'i', 'origWidth': 410, 'origHeight': 411, 'width': 410, 'height': 411, 'widthPercent': 0.45, 'rescaleHeight': False, 'trialN': 93, 'loaded': True, 'loadedTime': 4000.6999999284744, 'positionName': 'RIGHT', 'positionCoords': [998.4, 334.5], 'bid': 7.48}]",201143.89999997616,1669829825956,mango,cherries,7.46,7.48,0.020000000000000462,cherries,979,979,979.2000000476837,True,i,202634.89999997616,1491.0,1669829827447,1491,HRV,HRV_0082,2022-11-30 17:39:56
94,"[{'imgObject': {}, 'id': 'baked potato', 'src': '/static/foodstim60/baked potato.jpg', 'key': 'u', 'origWidth': 409, 'origHeight': 410, 'width': 409, 'height': 410, 'widthPercent': 0.45, 'rescaleHeight': False, 'trialN': 94, 'loaded': True, 'loadedTime': 3995, 'positionName': 'LEFT', 'positionCoords': [512.6, 335], 'bid': 7.53}, {'imgObject': {}, 'id': 'burrito', 'src': '/static/foodstim60/burrito.jpg', 'key': 'i', 'origWidth': 410, 'origHeight': 410, 'width': 410, 'height': 410, 'widthPercent': 0.45, 'rescaleHeight': False, 'trialN': 94, 'loaded': True, 'loadedTime': 4448, 'positionName': 'RIGHT', 'positionCoords': [998.4, 335], 'bid': 8.53}]",202635.10000002384,1669829827447,baked potato,burrito,7.53,8.53,0.9999999999999991,burrito,1088.5999999046326,1089,1089.0,True,i,204235.69999992847,1600.5999999046326,1669829829048,1601,HRV,HRV_0082,2022-11-30 17:39:56
95,"[{'imgObject': {}, 'id': 'turkey sandwich', 'src': '/static/foodstim60/turkey sandwich.jpg', 'key': 'u', 'origWidth': 409, 'origHeight': 409, 'width': 409, 'height': 409, 'widthPercent': 0.45, 'rescaleHeight': False, 'trialN': 95, 'loaded': True, 'loadedTime': 4046.7999999523163, 'positionName': 'LEFT', 'positionCoords': [512.6, 335.5], 'bid': 9.17}, {'imgObject': {}, 'id': 'burrito', 'src': '/static/foodstim60/burrito.jpg', 'key': 'i', 'origWidth': 410, 'origHeight': 410, 'width': 410, 'height': 410, 'widthPercent': 0.45, 'rescaleHeight': False, 'trialN': 95, 'loaded': True, 'loadedTime': 4465.100000023842, 'positionName': 'RIGHT', 'positionCoords': [998.4, 335], 'bid': 8.53}]",204236.0,1669829829048,turkey sandwich,burrito,9.17,8.53,-0.6400000000000006,turkey sandwich,951.5,951,951.8999999761581,True,u,205702.10000002384,1466.1000000238419,1669829830514,1466,HRV,HRV_0082,2022-11-30 17:39:56
96,"[{'imgObject': {}, 'id': 'froot loops w milk', 'src': '/static/foodstim60/froot loops w milk.jpg', 'key': 'u', 'origWidth': 410, 'origHeight': 410, 'width': 410, 'height': 410, 'widthPercent': 0.45, 'rescaleHeight': False, 'trialN': 96, 'loaded': True, 'loadedTime': 4402.5, 'positionName': 'LEFT', 'positionCoords': [511.6, 335], 'bid': 2.64}, {'imgObject': {}, 'id': 'mac & cheese', 'src': '/static/foodstim60/mac & cheese.jpg', 'key': 'i', 'origWidth': 410, 'origHeight': 410, 'width': 410, 'height': 410, 'widthPercent': 0.45, 'rescaleHeight': False, 'trialN': 96, 'loaded': True, 'loadedTime': 4502.5, 'positionName': 'RIGHT', 'positionCoords': [998.4, 335], 'bid': 4.51}]",205702.19999992847,1669829830514,froot loops w milk,mac & cheese,2.64,4.51,1.8699999999999997,mac & cheese,1125.5,1126,1125.8000000715256,True,i,207342.5,1640.3000000715256,1669829832154,1640,HRV,HRV_0082,2022-11-30 17:39:56
97,"[{'imgObject': {}, 'id': 'granola w milk', 'src': '/static/foodstim60/granola w milk.jpg', 'key': 'u', 'origWidth': 410, 'origHeight': 410, 'width': 410, 'height': 410, 'widthPercent': 0.45, 'rescaleHeight': False, 'trialN': 97, 'loaded': True, 'loadedTime': 4240.299999952316, 'positionName': 'LEFT', 'positionCoords': [511.6, 335], 'bid': 2.86}, {'imgObject': {}, 'id': 'eggsalad', 'src': '/static/foodstim60/eggsalad.jpg', 'key': 'i', 'origWidth': 410, 'origHeight': 409, 'width': 410, 'height': 409, 'widthPercent': 0.45, 'rescaleHeight': False, 'trialN': 97, 'loaded': True, 'loadedTime': 4131.199999928474, 'positionName': 'RIGHT', 'positionCoords': [998.4, 335.5], 'bid': 6.72}]",207342.60000002384,1669829832154,granola w milk,eggsalad,2.86,6.72,3.86,eggsalad,1012.6999999284744,1013,1013.0,True,i,208858.19999992847,1515.5999999046326,1669829833670,1516,HRV,HRV_0082,2022-11-30 17:39:56
98,"[{'imgObject': {}, 'id': 'bagel plain', 'src': '/static/foodstim60/bagel plain.jpg', 'key': 'u', 'origWidth': 410, 'origHeight': 410, 'width': 410, 'height': 410, 'widthPercent': 0.45, 'rescaleHeight': False, 'trialN': 98, 'loaded': True, 'loadedTime': 4414.899999976158, 'positionName': 'LEFT', 'positionCoords': [511.6, 335], 'bid': 7.66}, {'imgObject': {}, 'id': 'bagel and cc', 'src': '/static/foodstim60/bagel and cc.jpg', 'key': 'i', 'origWidth': 410, 'origHeight': 410, 'width': 410, 'height': 410, 'widthPercent': 0.45, 'rescaleHeight': False, 'trialN': 98, 'loaded': True, 'loadedTime': 3916, 'positionName': 'RIGHT', 'positionCoords': [998.4, 335], 'bid': 7.84}]",208858.29999995232,1669829833670,bagel plain,bagel and cc,7.66,7.84,0.17999999999999972,bagel and cc,1785,1785,1785.3999999761581,True,i,211158.19999992847,2299.899999976158,1669829835970,2300,HRV,HRV_0082,2022-11-30 17:39:56
99,"[{'imgObject': {}, 'id': 'grilled chicken strips', 'src': '/static/foodstim60/grilled chicken strips.jpg', 'key': 'u', 'origWidth': 410, 'origHeight': 411, 'width': 410, 'height': 411, 'widthPercent': 0.45, 'rescaleHeight': False, 'trialN': 99, 'loaded': True, 'loadedTime': 4090.7999999523163, 'positionName': 'LEFT', 'positionCoords': [511.6, 334.5], 'bid': 8.620000000000001}, {'imgObject': {}, 'id': 'sweetpotato', 'src': '/static/foodstim60/sweetpotato.jpg', 'key': 'i', 'origWidth': 410, 'origHeight': 410, 'width': 410, 'height': 410, 'widthPercent': 0.45, 'rescaleHeight': False, 'trialN': 99, 'loaded': True, 'loadedTime': 3924.899999976158, 'positionName': 'RIGHT', 'positionCoords': [998.4, 335], 'bid': 7.56}]",211158.5,1669829835970,grilled chicken strips,sweetpotato,8.620000000000001,7.56,-1.0600000000000014,grilled chicken strips,1124.7999999523163,1125,1125.1999999284744,True,u,212799.5,1641.0,1669829837611,1641,HRV,HRV_0082,2022-11-30 17:39:56
100,"[{'imgObject': {}, 'id': 'edamame', 'src': '/static/foodstim60/edamame.jpg', 'key': 'u', 'origWidth': 409, 'origHeight': 410, 'width': 409, 'height': 410, 'widthPercent': 0.45, 'rescaleHeight': False, 'trialN': 100, 'loaded': True, 'loadedTime': 4470.100000023842, 'positionName': 'LEFT', 'positionCoords': [512.6, 335], 'bid': 7.83}, {'imgObject': {}, 'id': 'salmon', 'src': '/static/foodstim60/salmon.jpg', 'key': 'i', 'origWidth': 410, 'origHeight': 409, 'width': 410, 'height': 409, 'widthPercent': 0.45, 'rescaleHeight': False, 'trialN': 100, 'loaded': True, 'loadedTime': 4500.100000023842, 'positionName': 'RIGHT', 'positionCoords': [998.4, 335.5], 'bid': 7.59}]",212799.69999992847,1669829837611,edamame,salmon,7.83,7.59,-0.2400000000000002,salmon,1883.6000000238419,1884,1883.8000000715256,True,i,215202.5,2402.8000000715256,1669829840014,2403,HRV,HRV_0082,2022-11-30 17:39:56
101,"[{'imgObject': {}, 'id': 'strawberries', 'src': '/static/foodstim60/strawberries.jpg', 'key': 'u', 'origWidth': 410, 'origHeight': 410, 'width': 410, 'height': 410, 'widthPercent': 0.45, 'rescaleHeight': False, 'trialN': 101, 'loaded': True, 'loadedTime': 4490.299999952316, 'positionName': 'LEFT', 'positionCoords': [511.6, 335], 'bid': 7.33}, {'imgObject': {}, 'id': 'kiwi', 'src': '/static/foodstim60/kiwi.jpg', 'key': 'i', 'origWidth': 410, 'origHeight': 410, 'width': 410, 'height': 410, 'widthPercent': 0.45, 'rescaleHeight': False, 'trialN': 101, 'loaded': True, 'loadedTime': 4344.799999952316, 'positionName': 'RIGHT', 'positionCoords': [998.4, 335], 'bid': 6.67}]",215202.79999995232,1669829840014,strawberries,kiwi,7.33,6.67,-0.6600000000000001,strawberries,1336.7000000476837,1338,1337.2000000476837,True,u,217047.19999992847,1844.3999999761581,1669829841859,1845,HRV,HRV_0082,2022-11-30 17:39:56
102,"[{'imgObject': {}, 'id': 'bagel and cc', 'src': '/static/foodstim60/bagel and cc.jpg', 'key': 'u', 'origWidth': 410, 'origHeight': 410, 'width': 410, 'height': 410, 'widthPercent': 0.45, 'rescaleHeight': False, 'trialN': 102, 'loaded': True, 'loadedTime': 3921.2999999523163, 'positionName': 'LEFT', 'positionCoords': [511.6, 335], 'bid': 7.84}, {'imgObject': {}, 'id': 'rigatoni and sauce', 'src': '/static/foodstim60/rigatoni and sauce.jpg', 'key': 'i', 'origWidth': 410, 'origHeight': 411, 'width': 410, 'height': 411, 'widthPercent': 0.45, 'rescaleHeight': False, 'trialN': 102, 'loaded': True, 'loadedTime': 4497.699999928474, 'positionName': 'RIGHT', 'positionCoords': [998.4, 334.5], 'bid': 5.32}]",217047.29999995232,1669829841859,bagel and cc,rigatoni and sauce,7.84,5.32,-2.5199999999999996,bagel and cc,1387.8999999761581,1388,1388.2000000476837,True,u,218947.60000002384,1900.3000000715256,1669829843759,1900,HRV,HRV_0082,2022-11-30 17:39:56
103,"[{'imgObject': {}, 'id': 'seaweed', 'src': '/static/foodstim60/seaweed.jpg', 'key': 'u', 'origWidth': 410, 'origHeight': 410, 'width': 410, 'height': 410, 'widthPercent': 0.45, 'rescaleHeight': False, 'trialN': 103, 'loaded': True, 'loadedTime': 4198.699999928474, 'positionName': 'LEFT', 'positionCoords': [511.6, 335], 'bid': 8.700000000000001}, {'imgObject': {}, 'id': 'corn cob', 'src': '/static/foodstim60/corn cob.jpg', 'key': 'i', 'origWidth': 411, 'origHeight': 411, 'width': 411, 'height': 411, 'widthPercent': 0.45, 'rescaleHeight': False, 'trialN': 103, 'loaded': True, 'loadedTime': 4043.2999999523163, 'positionName': 'RIGHT', 'positionCoords': [998.4, 334.5], 'bid': 8.67}]",218947.79999995232,1669829843759,seaweed,corn cob,8.700000000000001,8.67,-0.030000000000001137,corn cob,936.3000000715256,937,936.5,True,i,220398.19999992847,1450.3999999761581,1669829845210,1451,HRV,HRV_0082,2022-11-30 17:39:56
104,"[{'imgObject': {}, 'id': 'cherry tomato', 'src': '/static/foodstim60/cherry tomato.jpg', 'key': 'u', 'origWidth': 410, 'origHeight': 410, 'width': 410, 'height': 410, 'widthPercent': 0.45, 'rescaleHeight': False, 'trialN': 104, 'loaded': True, 'loadedTime': 4040.1999999284744, 'positionName': 'LEFT', 'positionCoords': [511.6, 335], 'bid': 5.39}, {'imgObject': {}, 'id': 'granola w milk', 'src': '/static/foodstim60/granola w milk.jpg', 'key': 'i', 'origWidth': 410, 'origHeight': 410, 'width': 410, 'height': 410, 'widthPercent': 0.45, 'rescaleHeight': False, 'trialN': 104, 'loaded': True, 'loadedTime': 4240.5, 'positionName': 'RIGHT', 'positionCoords': [998.4, 335], 'bid': 2.86}]",220398.29999995232,1669829845210,cherry tomato,granola w milk,5.39,2.86,-2.53,cherry tomato,1901.1000000238419,1901,1901.5,True,u,222815.29999995232,2417.0,1669829847627,2417,HRV,HRV_0082,2022-11-30 17:39:56
105,"[{'imgObject': {}, 'id': 'mac & cheese', 'src': '/static/foodstim60/mac & cheese.jpg', 'key': 'u', 'origWidth': 410, 'origHeight': 410, 'width': 410, 'height': 410, 'widthPercent': 0.45, 'rescaleHeight': False, 'trialN': 105, 'loaded': True, 'loadedTime': 4502.299999952316, 'positionName': 'LEFT', 'positionCoords': [511.6, 335], 'bid': 4.51}, {'imgObject': {}, 'id': 'cherry tomato', 'src': '/static/foodstim60/cherry tomato.jpg', 'key': 'i', 'origWidth': 410, 'origHeight': 410, 'width': 410, 'height': 410, 'widthPercent': 0.45, 'rescaleHeight': False, 'trialN': 105, 'loaded': True, 'loadedTime': 4013.7999999523163, 'positionName': 'RIGHT', 'positionCoords': [998.4, 335], 'bid': 5.39}]",222815.39999997616,1669829847627,mac & cheese,cherry tomato,4.51,5.39,0.8799999999999999,cherry tomato,1275.7000000476837,1276,1275.8999999761581,True,i,224598.60000002384,1783.2000000476837,1669829849410,1783,HRV,HRV_0082,2022-11-30 17:39:56
106,"[{'imgObject': {}, 'id': 'rigatoni', 'src': '/static/foodstim60/rigatoni.jpg', 'key': 'u', 'origWidth': 411, 'origHeight': 411, 'width': 411, 'height': 411, 'widthPercent': 0.45, 'rescaleHeight': False, 'trialN': 106, 'loaded': True, 'loadedTime': 4380.600000023842, 'positionName': 'LEFT', 'positionCoords': [510.6, 334.5], 'bid': 4.47}, {'imgObject': {}, 'id': 'luckycharms', 'src': '/static/foodstim60/luckycharms.jpg', 'key': 'i', 'origWidth': 410, 'origHeight': 409, 'width': 410, 'height': 409, 'widthPercent': 0.45, 'rescaleHeight': False, 'trialN': 106, 'loaded': True, 'loadedTime': 4468.600000023842, 'positionName': 'RIGHT', 'positionCoords': [998.4, 335.5], 'bid': 2.43}]",224598.69999992847,1669829849410,rigatoni,luckycharms,4.47,2.43,-2.0399999999999996,rigatoni,1004.6000000238419,1005,1004.8000000715256,True,u,226113.69999992847,1515.0,1669829850925,1515,HRV,HRV_0082,2022-11-30 17:39:56
107,"[{'imgObject': {}, 'id': 'olives', 'src': '/static/foodstim60/olives.jpg', 'key': 'u', 'origWidth': 410, 'origHeight': 410, 'width': 410, 'height': 410, 'widthPercent': 0.45, 'rescaleHeight': False, 'trialN': 107, 'loaded': True, 'loadedTime': 4302.699999928474, 'positionName': 'LEFT', 'positionCoords': [511.6, 335], 'bid': 5.67}, {'imgObject': {}, 'id': 'hotdog w must', 'src': '/static/foodstim60/hotdog w must.jpg', 'key': 'i', 'origWidth': 409, 'origHeight': 409, 'width': 409, 'height': 409, 'widthPercent': 0.45, 'rescaleHeight': False, 'trialN': 107, 'loaded': True, 'loadedTime': 4196.299999952316, 'positionName': 'RIGHT', 'positionCoords': [998.4, 335.5], 'bid': 7.95}]",226113.69999992847,1669829850925,olives,hotdog w must,5.67,7.95,2.2800000000000002,hotdog w must,1344.8000000715256,1345,1345.0,True,i,227979.79999995232,1866.1000000238419,1669829852791,1866,HRV,HRV_0082,2022-11-30 17:39:56
