success,trial_type,trial_index,time_elapsed,internal_node_id,Block,TrialNumber,TrialTime,trialTimeDiff,FPS_avg,FPS_med,FPS_mode,TrialDur,winResizeTime,rt,block,button_pressed,MotCoh,MotDir,ColCoh,Color,ChoiceKey,Choice,Accuracy,RT,nFrames,FPS,PPD,missTrial,missTrialMsg,onsetDelay,fullScreenExitTime,canvCenter,TrialType,Score,BlockTrial,stimulus,button_labels,exp,subjectId,date
True,fullscreen,0,2192,0.0-0.0,0.0,1.0,,,,,,,,,,,,,,,,,,,,,,,,,,,,,,,,HRV,HRV_0082,2022-11-30 18:07:49
,wl-check-fps,1,7180,0.0-1.0,0.0,2.0,"[3184.4, 3186.1, 3198.8, 3215.7, 3232.1, 3249, 3265.4, 3282.4, 3299, 3315.7, 3332.1, 3349, 3365.6, 3382.1, 3399, 3415.5, 3432, 3448.7, 3465.3, 3482, 3498.7, 3515.5, 3532.1, 3548.8, 3565.4, 3582, 3598.7, 3615.7, 3632.1, 3649, 3665.6, 3682.1, 3698.8, 3715.3, 3732.4, 3748.8, 3765.6, 3782.1, 3799.1, 3815.6, 3832, 3849, 3865.7, 3882.1, 3899.1, 3915.8, 3932.1, 3948.9, 3965.8, 3982.1, 3999.5, 4015.6, 4032.1, 4049.2, 4065.8, 4082.2, 4099.1, 4115.9, 4132, 4148.9, 4165.7, 4182, 4199.1, 4215.7, 4232.1, 4248.7, 4265.6, 4282, 4299, 4315.7, 4332.1, 4349, 4365.8, 4382.2, 4399, 4415.7, 4432.1, 4449.1, 4465.5, 4482.3, 4498.9, 4515.5, 4532.2, 4548.9, 4565.4, 4582, 4598.7, 4615.4, 4632.1, 4648.9, 4665.5, 4682.1, 4698.7, 4715.3, 4732.1, 4749, 4765.7, 4782.1, 4799, 4815.6, 4832.2, 4849, 4865.5, 4882.1, 4898.8, 4915.3, 4932, 4948.9, 4965.6, 4982.1, 4999.1, 5015.6, 5032.1, 5049, 5065.5, 5082.1, 5098.9, 5115.5, 5132.1, 5148.8, 5165.6, 5182.1, 5199, 5215.6, 5232, 5248.7, 5265.5, 5282, 5299, 5315.5, 5332.2, 5348.9, 5365.7, 5382.5, 5399.1, 5415.6, 5432.3, 5448.9, 5465.5, 5482.2, 5499.1, 5515.7, 5532.1, 5549, 5565.4, 5582.2, 5598.8, 5615.6, 5632.3, 5649, 5665.6, 5682.2, 5698.9, 5715.4, 5732.1, 5748.8, 5765.3, 5782.1, 5798.7, 5815.3, 5832, 5848.7, 5865.3, 5882, 5898.6, 5915.3, 5932.2, 5948.8, 5965.4, 5982.2, 5999.4, 6015.4, 6032.1, 6048.9, 6065.4, 6082.1, 6098.8, 6115.4, 6131.9, 6148.7, 6165.4, 6182.2, 6198.8, 6215.4, 6232, 6248.7, 6265.4, 6282.1, 6298.7, 6315.5, 6332.2, 6348.9, 6365.5, 6382.1, 6398.9, 6415.5, 6432.1, 6448.8, 6465.4, 6482.1, 6498.8, 6515.6, 6532.1, 6548.7, 6565.5, 6582.2, 6598.8, 6615.6, 6632.3, 6648.9, 6665.6, 6682.1, 6699, 6715.7, 6732.2, 6749.1, 6765.7, 6782, 6799, 6815.6, 6832.1, 6849, 6865.5, 6882.1, 6899, 6915.7, 6932.1, 6948.8, 6965.5, 6982.1, 6998.7, 7015.6, 7032.1, 7048.8, 7065.5, 7082.1, 7098.9, 7115.6, 7132.2, 7149, 7165.6, 7182.1, 7198.7, 7215.5, 7232, 7248.9, 7265.5, 7282.1, 7298.8, 7315.5, 7332.3, 7348.8, 7365.7, 7382.3, 7398.9, 7415.5, 7432, 7449, 7465.7, 7482, 7498.9, 7515.5, 7532, 7549.4, 7565.8, 7582, 7599.1, 7616, 7632.1, 7649.2, 7665.6, 7682.1, 7699.1, 7715.3, 7732.7, 7749.3, 7765.6, 7782, 7799.3, 7815.9, 7832.4, 7849.1, 7865.6, 7882, 7899.1, 7915.7, 7932.2, 7948.9, 7965.7, 7982.1, 7999, 8015.5, 8032, 8049, 8065.5, 8082.2, 8098.9, 8115.6, 8132.7, 8149]","[3.3, 1.7, 12.7, 16.9, 16.4, 16.9, 16.4, 17, 16.6, 16.7, 16.4, 16.9, 16.6, 16.5, 16.9, 16.5, 16.5, 16.7, 16.6, 16.7, 16.7, 16.8, 16.6, 16.7, 16.6, 16.6, 16.7, 17, 16.4, 16.9, 16.6, 16.5, 16.7, 16.5, 17.1, 16.4, 16.8, 16.5, 17, 16.5, 16.4, 17, 16.7, 16.4, 17, 16.7, 16.3, 16.8, 16.9, 16.3, 17.4, 16.1, 16.5, 17.1, 16.6, 16.4, 16.9, 16.8, 16.1, 16.9, 16.8, 16.3, 17.1, 16.6, 16.4, 16.6, 16.9, 16.4, 17, 16.7, 16.4, 16.9, 16.8, 16.4, 16.8, 16.7, 16.4, 17, 16.4, 16.8, 16.6, 16.6, 16.7, 16.7, 16.5, 16.6, 16.7, 16.7, 16.7, 16.8, 16.6, 16.6, 16.6, 16.6, 16.8, 16.9, 16.7, 16.4, 16.9, 16.6, 16.6, 16.8, 16.5, 16.6, 16.7, 16.5, 16.7, 16.9, 16.7, 16.5, 17, 16.5, 16.5, 16.9, 16.5, 16.6, 16.8, 16.6, 16.6, 16.7, 16.8, 16.5, 16.9, 16.6, 16.4, 16.7, 16.8, 16.5, 17, 16.5, 16.7, 16.7, 16.8, 16.8, 16.6, 16.5, 16.7, 16.6, 16.6, 16.7, 16.9, 16.6, 16.4, 16.9, 16.4, 16.8, 16.6, 16.8, 16.7, 16.7, 16.6, 16.6, 16.7, 16.5, 16.7, 16.7, 16.5, 16.8, 16.6, 16.6, 16.7, 16.7, 16.6, 16.7, 16.6, 16.7, 16.9, 16.6, 16.6, 16.8, 17.2, 16, 16.7, 16.8, 16.5, 16.7, 16.7, 16.6, 16.5, 16.8, 16.7, 16.8, 16.6, 16.6, 16.6, 16.7, 16.7, 16.7, 16.6, 16.8, 16.7, 16.7, 16.6, 16.6, 16.8, 16.6, 16.6, 16.7, 16.6, 16.7, 16.7, 16.8, 16.5, 16.6, 16.8, 16.7, 16.6, 16.8, 16.7, 16.6, 16.7, 16.5, 16.9, 16.7, 16.5, 16.9, 16.6, 16.3, 17, 16.6, 16.5, 16.9, 16.5, 16.6, 16.9, 16.7, 16.4, 16.7, 16.7, 16.6, 16.6, 16.9, 16.5, 16.7, 16.7, 16.6, 16.8, 16.7, 16.6, 16.8, 16.6, 16.5, 16.6, 16.8, 16.5, 16.9, 16.6, 16.6, 16.7, 16.7, 16.8, 16.5, 16.9, 16.6, 16.6, 16.6, 16.5, 17, 16.7, 16.3, 16.9, 16.6, 16.5, 17.4, 16.4, 16.2, 17.1, 16.9, 16.1, 17.1, 16.4, 16.5, 17, 16.2, 17.4, 16.6, 16.3, 16.4, 17.3, 16.6, 16.5, 16.7, 16.5, 16.4, 17.1, 16.6, 16.5, 16.7, 16.8, 16.4, 16.9, 16.5, 16.5, 17, 16.5, 16.7, 16.7, 16.7, 17.1, 16.3]",60.0,60.0,60.0,4984.6,[],,,,,,,,,,,,,,,,,,,,,,,,,HRV,HRV_0082,2022-11-30 18:07:49
,wl-html-keyboard-response,2,28521,0.0-2.0-0.0,0.0,3.0,,,,,,,,19328.300000071526,0.0,0,,,,,,,,,,,,,,,,,,,,,,HRV,HRV_0082,2022-11-30 18:07:49
,wl-rdm,3,35395,0.0-3.0-0.0,0.0,4.0,,,,,,,[],,,,0.0,0.0,87.9,0.0,u,0.0,True,1313.4000000953674,79.0,60.0,40.0,False,,3000.0,[],"[960, 540]",ColorTask_Demo,,,,,HRV,HRV_0082,2022-11-30 18:07:49
,wl-rdm,4,40912,0.0-3.0-1.0,0.0,5.0,,,,,,,[],,,,0.0,0.0,87.9,1.0,i,1.0,True,1461.8000000715256,88.0,60.0,40.0,False,,2000.0,[],"[960, 540]",ColorTask_Demo,,,,,HRV,HRV_0082,2022-11-30 18:07:49
,wl-html-keyboard-response,5,45850,0.0-3.0-2.0,0.0,6.0,,,,,,,,,0.0,0,,,,,,,,,,,,,,,,,,,,,,HRV,HRV_0082,2022-11-30 18:07:49
,wl-rdm,6,52513,0.0-3.1-0.1,0.0,4.0,,,,,,,[],,,,0.0,0.0,87.9,0.0,u,0.0,True,1068.0,65.0,60.0,40.0,False,,3000.0,[],"[960, 540]",ColorTask_Demo,,,,,HRV,HRV_0082,2022-11-30 18:07:49
,wl-rdm,7,58114,0.0-3.1-1.1,0.0,5.0,,,,,,,[],,,,0.0,0.0,87.9,1.0,i,1.0,True,1504.8000000715256,91.0,60.0,40.0,False,,2000.0,[],"[960, 540]",ColorTask_Demo,,,,,HRV,HRV_0082,2022-11-30 18:07:49
,wl-html-keyboard-response,8,63209,0.0-3.1-2.1,0.0,6.0,,,,,,,,,0.0,0,,,,,,,,,,,,,,,,,,,,,,HRV,HRV_0082,2022-11-30 18:07:49
,wl-rdm,9,70129,0.0-3.2-0.2,0.0,4.0,,,,,,,[],,,,0.0,0.0,87.9,0.0,u,0.0,True,1357.7000000476837,82.0,60.0,40.0,False,,3000.0,[],"[960, 540]",ColorTask_Demo,,,,,HRV,HRV_0082,2022-11-30 18:07:49
,wl-rdm,10,75379,0.0-3.2-1.2,0.0,5.0,,,,,,,[],,,,0.0,0.0,87.9,1.0,i,1.0,True,1168.7000000476837,71.0,60.0,40.0,False,,2000.0,[],"[960, 540]",ColorTask_Demo,,,,,HRV,HRV_0082,2022-11-30 18:07:49
,wl-html-keyboard-response,11,80912,0.0-3.2-2.2,0.0,6.0,,,,,,,,3531.1999999284744,0.0,1,,,,,,,,,,,,,,,,,,,,,,HRV,HRV_0082,2022-11-30 18:07:49
,wl-html-keyboard-response,12,89816,0.0-4.0-0.0,0.0,7.0,,,,,,,,6901.199999928474,0.0,0,,,,,,,,,,,,,,,,,,,,,,HRV,HRV_0082,2022-11-30 18:07:49
,wl-html-keyboard-response,13,110977,0.0-5.0-0.0,0.0,8.0,,,,,,,,19158.299999952316,0.0,0,,,,,,,,,,,,,,,,,,,,,,HRV,HRV_0082,2022-11-30 18:07:49
,wl-rdm,14,115063,0.0-6.0-0.0,0.0,9.0,,,,,,,[],,,,,,53.2,0.0,u,0.0,True,2797.8000000715256,168.0,60.0,40.0,False,,216.21403476107196,[],"[960, 540]",ColorTask,1.0,1.0,,,HRV,HRV_0082,2022-11-30 18:07:49
,wl-rdm,15,119146,0.0-6.1-0.1,0.0,10.0,,,,,,,[],,,,,,50.0,0.0,u,0.0,True,2619.600000023842,158.0,60.0,40.0,False,,378.61840183057154,[],"[960, 540]",ColorTask,2.0,2.0,,,HRV,HRV_0082,2022-11-30 18:07:49
,wl-rdm,16,123396,0.0-6.2-0.2,0.0,11.0,,,,,,,[],,,,,,53.2,0.0,i,1.0,False,2926.0999999046326,176.0,60.0,40.0,False,,242.7638553681442,[],"[960, 540]",ColorTask,1.0,3.0,,,HRV,HRV_0082,2022-11-30 18:07:49
,wl-rdm,17,127796,0.0-6.3-0.3,0.0,12.0,,,,,,,[],,,,,,56.4,1.0,u,0.0,False,3018.7000000476837,179.0,60.0,40.0,False,,289.7554434028119,[],"[960, 540]",ColorTask,0.0,4.0,,,HRV,HRV_0082,2022-11-30 18:07:49
,wl-rdm,18,132095,0.0-6.4-0.4,0.0,12.0,,,,,,,[],,,,,,53.2,1.0,,,,,179.0,60.0,40.0,True,RT_timeout ,202.07928300049926,[],"[960, 540]",ColorTask,-1.0,5.0,,,HRV,HRV_0082,2022-11-30 18:07:49
,wl-rdm,19,133178,0.0-6.5-0.5,0.0,12.0,,,,,,,[],,,,,,56.4,0.0,i,,,91.5,0.0,60.0,40.0,True,too_early ,347.4852753428178,[],"[960, 540]",ColorTask,-2.0,6.0,,,HRV,HRV_0082,2022-11-30 18:07:49
,wl-rdm,20,136911,0.0-6.6-0.6,0.0,13.0,,,,,,,[],,,,,,50.0,1.0,u,0.0,False,2403.899999976158,145.0,60.0,40.0,False,,254.3849113294645,[],"[960, 540]",ColorTask,-3.0,7.0,,,HRV,HRV_0082,2022-11-30 18:07:49
,wl-rdm,21,139745,0.0-6.7-0.7,0.0,14.0,,,,,,,[],,,,,,53.2,1.0,i,1.0,True,1435.7000000476837,87.0,60.0,40.0,False,,321.87733488167,[],"[960, 540]",ColorTask,-2.0,8.0,,,HRV,HRV_0082,2022-11-30 18:07:49
,wl-rdm,22,142862,0.0-6.8-0.8,0.0,15.0,,,,,,,[],,,,,,56.4,0.0,i,1.0,False,1755.8000000715256,106.0,60.0,40.0,False,,296.33954208597254,[],"[960, 540]",ColorTask,-3.0,9.0,,,HRV,HRV_0082,2022-11-30 18:07:49
,wl-rdm,23,145895,0.0-6.9-0.9,0.0,16.0,,,,,,,[],,,,,,62.5,0.0,u,0.0,True,1670.6000000238419,101.0,60.0,40.0,False,,293.2192959255332,[],"[960, 540]",ColorTask,-2.0,10.0,,,HRV,HRV_0082,2022-11-30 18:07:49
,wl-rdm,24,149612,0.0-6.10-0.10,0.0,17.0,,,,,,,[],,,,,,87.9,0.0,u,0.0,True,2401.7999999523163,145.0,60.0,40.0,False,,248.26122005817123,[],"[960, 540]",ColorTask,-1.0,11.0,,,HRV,HRV_0082,2022-11-30 18:07:49
,wl-rdm,25,152628,0.0-6.11-0.11,0.0,18.0,,,,,,,[],,,,,,73.6,0.0,u,0.0,True,1640.2999999523163,99.0,60.0,40.0,False,,300.59628904337956,[],"[960, 540]",ColorTask,0.0,12.0,,,HRV,HRV_0082,2022-11-30 18:07:49
,wl-rdm,26,156062,0.0-6.12-0.12,0.0,19.0,,,,,,,[],,,,,,50.0,0.0,i,1.0,False,2096.2999999523163,126.0,60.0,40.0,False,,276.34116748628304,[],"[960, 540]",ColorTask,-1.0,13.0,,,HRV,HRV_0082,2022-11-30 18:07:49
,wl-rdm,27,159079,0.0-6.13-0.13,0.0,20.0,,,,,,,[],,,,,,50.0,1.0,u,0.0,False,1746.5,105.0,60.0,40.0,False,,201.97207748762145,[],"[960, 540]",ColorTask,-2.0,14.0,,,HRV,HRV_0082,2022-11-30 18:07:49
,wl-rdm,28,162412,0.0-6.14-0.14,0.0,21.0,,,,,,,[],,,,,,53.2,0.0,u,0.0,True,1875.0999999046326,113.0,60.0,40.0,False,,374.21225842725926,[],"[960, 540]",ColorTask,-1.0,15.0,,,HRV,HRV_0082,2022-11-30 18:07:49
,wl-rdm,29,165411,0.0-6.15-0.15,0.0,22.0,,,,,,,[],,,,,,56.4,0.0,i,1.0,False,1641.6000000238419,99.0,60.0,40.0,False,,277.02575291201435,[],"[960, 540]",ColorTask,-2.0,16.0,,,HRV,HRV_0082,2022-11-30 18:07:49
,wl-rdm,30,168412,0.0-6.16-0.16,0.0,23.0,,,,,,,[],,,,,,56.4,0.0,u,0.0,True,1649.7999999523163,99.0,60.0,40.0,False,,278.1442898615462,[],"[960, 540]",ColorTask,-1.0,17.0,,,HRV,HRV_0082,2022-11-30 18:07:49
,wl-rdm,31,171429,0.0-6.17-0.17,0.0,24.0,,,,,,,[],,,,,,73.6,1.0,i,1.0,True,1564.6000000238419,94.0,60.0,40.0,False,,390.8777359124949,[],"[960, 540]",ColorTask,0.0,18.0,,,HRV,HRV_0082,2022-11-30 18:07:49
,wl-rdm,32,174429,0.0-6.18-0.18,0.0,25.0,,,,,,,[],,,,,,50.0,1.0,u,0.0,False,1701.3999999761581,103.0,60.0,40.0,False,,202.69535514716563,[],"[960, 540]",ColorTask,-1.0,19.0,,,HRV,HRV_0082,2022-11-30 18:07:49
,wl-rdm,33,177028,0.0-6.19-0.19,0.0,26.0,,,,,,,[],,,,,,87.9,1.0,i,1.0,True,1182.3999999761581,71.0,60.0,40.0,False,,342.4952156910098,[],"[960, 540]",ColorTask,0.0,20.0,,,HRV,HRV_0082,2022-11-30 18:07:49
,wl-rdm,34,179879,0.0-6.20-0.20,0.0,27.0,,,,,,,[],,,,,,62.5,0.0,u,0.0,True,1496.7000000476837,90.0,60.0,40.0,False,,289.2964442483443,[],"[960, 540]",ColorTask,1.0,21.0,,,HRV,HRV_0082,2022-11-30 18:07:49
,wl-rdm,35,182395,0.0-6.21-0.21,0.0,28.0,,,,,,,[],,,,,,87.9,1.0,i,1.0,True,1209.0,73.0,60.0,40.0,False,,216.58455316844072,[],"[960, 540]",ColorTask,2.0,22.0,,,HRV,HRV_0082,2022-11-30 18:07:49
,wl-rdm,36,185345,0.0-6.22-0.22,0.0,29.0,,,,,,,[],,,,,,50.0,0.0,u,0.0,True,1576.8000000715256,95.0,60.0,40.0,False,,309.3506115811887,[],"[960, 540]",ColorTask,3.0,23.0,,,HRV,HRV_0082,2022-11-30 18:07:49
,wl-rdm,37,188512,0.0-6.23-0.23,0.0,30.0,,,,,,,[],,,,,,50.0,0.0,u,0.0,True,1803.6999999284744,109.0,60.0,40.0,False,,293.8013669535321,[],"[960, 540]",ColorTask,4.0,24.0,,,HRV,HRV_0082,2022-11-30 18:07:49
,wl-rdm,38,191796,0.0-6.24-0.24,0.0,31.0,,,,,,,[],,,,,,50.0,1.0,u,0.0,False,1941.8000000715256,117.0,60.0,40.0,False,,276.1409067463934,[],"[960, 540]",ColorTask,3.0,25.0,,,HRV,HRV_0082,2022-11-30 18:07:49
,wl-rdm,39,194295,0.0-6.25-0.25,0.0,32.0,,,,,,,[],,,,,,73.6,1.0,i,1.0,True,1188.4999998807907,72.0,60.0,40.0,False,,219.14790086815103,[],"[960, 540]",ColorTask,4.0,26.0,,,HRV,HRV_0082,2022-11-30 18:07:49
,wl-rdm,40,197346,0.0-6.26-0.26,0.0,33.0,,,,,,,[],,,,,,56.4,0.0,u,0.0,True,1769.6000000238419,107.0,60.0,40.0,False,,207.0493393308804,[],"[960, 540]",ColorTask,5.0,27.0,,,HRV,HRV_0082,2022-11-30 18:07:49
,wl-rdm,41,199996,0.0-6.27-0.27,0.0,34.0,,,,,,,[],,,,,,56.4,1.0,i,1.0,True,1208.6999999284744,73.0,60.0,40.0,False,,378.4024603908431,[],"[960, 540]",ColorTask,6.0,28.0,,,HRV,HRV_0082,2022-11-30 18:07:49
,wl-rdm,42,203146,0.0-6.28-0.28,0.0,35.0,,,,,,,[],,,,,,50.0,1.0,u,0.0,False,1694.6000000238419,102.0,60.0,40.0,False,,374.5796045545017,[],"[960, 540]",ColorTask,5.0,29.0,,,HRV,HRV_0082,2022-11-30 18:07:49
,wl-rdm,43,205912,0.0-6.29-0.29,0.0,36.0,,,,,,,[],,,,,,62.5,1.0,i,1.0,True,1379.3000000715256,83.0,60.0,40.0,False,,314.8236971567057,[],"[960, 540]",ColorTask,6.0,30.0,,,HRV,HRV_0082,2022-11-30 18:07:49
,wl-rdm,44,209280,0.0-6.30-0.30,0.0,37.0,,,,,,,[],,,,,,53.2,0.0,u,0.0,True,1945.8999999761581,117.0,60.0,40.0,False,,349.90139269634585,[],"[960, 540]",ColorTask,7.0,31.0,,,HRV,HRV_0082,2022-11-30 18:07:49
,wl-rdm,45,212696,0.0-6.31-0.31,0.0,38.0,,,,,,,[],,,,,,56.4,1.0,u,0.0,False,2021.3999999761581,122.0,60.0,40.0,False,,318.13766080902656,[],"[960, 540]",ColorTask,6.0,32.0,,,HRV,HRV_0082,2022-11-30 18:07:49
,wl-rdm,46,215229,0.0-6.32-0.32,0.0,39.0,,,,,,,[],,,,,,73.6,0.0,u,0.0,True,1181.3999999761581,71.0,60.0,40.0,False,,296.09683114840414,[],"[960, 540]",ColorTask,7.0,33.0,,,HRV,HRV_0082,2022-11-30 18:07:49
,wl-rdm,47,218246,0.0-6.33-0.33,0.0,40.0,,,,,,,[],,,,,,50.0,0.0,i,1.0,False,1580.7999999523163,95.0,60.0,40.0,False,,378.5111878146254,[],"[960, 540]",ColorTask,6.0,34.0,,,HRV,HRV_0082,2022-11-30 18:07:49
,wl-rdm,48,221163,0.0-6.34-0.34,0.0,41.0,,,,,,,[],,,,,,87.9,0.0,u,0.0,True,1553.0,94.0,60.0,40.0,False,,274.2168623259944,[],"[960, 540]",ColorTask,7.0,35.0,,,HRV,HRV_0082,2022-11-30 18:07:49
,wl-rdm,49,223779,0.0-6.35-0.35,0.0,42.0,,,,,,,[],,,,,,62.5,0.0,u,0.0,True,1293.1000000238419,78.0,60.0,40.0,False,,236.29612784914082,[],"[960, 540]",ColorTask,8.0,36.0,,,HRV,HRV_0082,2022-11-30 18:07:49
,wl-rdm,50,226612,0.0-6.36-0.36,0.0,43.0,,,,,,,[],,,,,,62.5,0.0,u,0.0,True,1557.6999999284744,94.0,60.0,40.0,False,,200.57034705822156,[],"[960, 540]",ColorTask,9.0,37.0,,,HRV,HRV_0082,2022-11-30 18:07:49
,wl-rdm,51,228929,0.0-6.37-0.37,0.0,44.0,,,,,,,[],,,,,,87.9,0.0,u,0.0,True,1027.3000000715256,62.0,60.0,40.0,False,,218.69894508190038,[],"[960, 540]",ColorTask,10.0,38.0,,,HRV,HRV_0082,2022-11-30 18:07:49
,wl-rdm,52,231679,0.0-6.38-0.38,0.0,45.0,,,,,,,[],,,,,,62.5,0.0,u,0.0,True,1405.7000000476837,85.0,60.0,40.0,False,,254.13902621709337,[],"[960, 540]",ColorTask,11.0,39.0,,,HRV,HRV_0082,2022-11-30 18:07:49
,wl-rdm,53,234363,0.0-6.39-0.39,0.0,46.0,,,,,,,[],,,,,,53.2,1.0,u,0.0,False,1386.1999999284744,84.0,60.0,40.0,False,,213.007254831473,[],"[960, 540]",ColorTask,10.0,40.0,,,HRV,HRV_0082,2022-11-30 18:07:49
,wl-rdm,54,236596,0.0-6.40-0.40,0.0,47.0,,,,,,,[],,,,,,87.9,1.0,i,1.0,True,918.7000000476837,56.0,60.0,40.0,False,,231.50952756514866,[],"[960, 540]",ColorTask,11.0,41.0,,,HRV,HRV_0082,2022-11-30 18:07:49
,wl-rdm,55,239846,0.0-6.41-0.41,0.0,48.0,,,,,,,[],,,,,,56.4,0.0,u,0.0,True,1939.5,117.0,60.0,40.0,False,,224.70430030881835,[],"[960, 540]",ColorTask,12.0,42.0,,,HRV,HRV_0082,2022-11-30 18:07:49
,wl-rdm,56,242279,0.0-6.42-0.42,0.0,49.0,,,,,,,[],,,,,,73.6,0.0,u,0.0,True,1063.5,64.0,60.0,40.0,False,,288.61881363733465,[],"[960, 540]",ColorTask,13.0,43.0,,,HRV,HRV_0082,2022-11-30 18:07:49
,wl-rdm,57,244996,0.0-6.43-0.43,0.0,50.0,,,,,,,[],,,,,,50.0,0.0,u,0.0,True,1292.4999998807907,78.0,60.0,40.0,False,,333.54494468157327,[],"[960, 540]",ColorTask,14.0,44.0,,,HRV,HRV_0082,2022-11-30 18:07:49
,wl-rdm,58,247646,0.0-6.44-0.44,0.0,51.0,,,,,,,[],,,,,,53.2,0.0,u,0.0,True,1364.3999999761581,82.0,60.0,40.0,False,,225.75079764522442,[],"[960, 540]",ColorTask,15.0,45.0,,,HRV,HRV_0082,2022-11-30 18:07:49
,wl-rdm,59,250779,0.0-6.45-0.45,0.0,52.0,,,,,,,[],,,,,,56.4,1.0,u,0.0,False,1769.3999999761581,107.0,60.0,40.0,False,,275.21703924453226,[],"[960, 540]",ColorTask,14.0,46.0,,,HRV,HRV_0082,2022-11-30 18:07:49
,wl-rdm,60,252979,0.0-6.46-0.46,0.0,53.0,,,,,,,[],,,,,,87.9,0.0,u,0.0,True,869.6999999284744,53.0,60.0,40.0,False,,239.54870054760482,[],"[960, 540]",ColorTask,15.0,47.0,,,HRV,HRV_0082,2022-11-30 18:07:49
,wl-rdm,61,255396,0.0-6.47-0.47,0.0,54.0,,,,,,,[],,,,,,62.5,0.0,u,0.0,True,1074.6000000238419,65.0,60.0,40.0,False,,270.6400221918817,[],"[960, 540]",ColorTask,16.0,48.0,,,HRV,HRV_0082,2022-11-30 18:07:49
,wl-rdm,62,258029,0.0-6.48-0.48,0.0,55.0,,,,,,,[],,,,,,53.2,1.0,u,0.0,False,1240.5,75.0,60.0,40.0,False,,316.5836739358982,[],"[960, 540]",ColorTask,15.0,49.0,,,HRV,HRV_0082,2022-11-30 18:07:49
,wl-rdm,63,260530,0.0-6.49-0.49,0.0,56.0,,,,,,,[],,,,,,53.2,0.0,u,0.0,True,1127.2000000476837,68.0,60.0,40.0,False,,293.9770413855837,[],"[960, 540]",ColorTask,16.0,50.0,,,HRV,HRV_0082,2022-11-30 18:07:49
,wl-rdm,64,262796,0.0-6.50-0.50,0.0,57.0,,,,,,,[],,,,,,62.5,1.0,i,1.0,True,935.1999999284744,57.0,60.0,40.0,False,,245.63262618828495,[],"[960, 540]",ColorTask,17.0,51.0,,,HRV,HRV_0082,2022-11-30 18:07:49
,wl-rdm,65,265030,0.0-6.51-0.51,0.0,58.0,,,,,,,[],,,,,,87.9,0.0,u,0.0,True,898.8000000715256,54.0,60.0,40.0,False,,271.8068588435704,[],"[960, 540]",ColorTask,18.0,52.0,,,HRV,HRV_0082,2022-11-30 18:07:49
,wl-rdm,66,267212,0.0-6.52-0.52,0.0,59.0,,,,,,,[],,,,,,87.9,0.0,u,0.0,True,885.0,54.0,60.0,40.0,False,,205.36786093421367,[],"[960, 540]",ColorTask,19.0,53.0,,,HRV,HRV_0082,2022-11-30 18:07:49
,wl-rdm,67,269462,0.0-6.53-0.53,0.0,60.0,,,,,,,[],,,,,,56.4,0.0,i,1.0,False,939.1999998092651,57.0,60.0,40.0,False,,235.59983416412535,[],"[960, 540]",ColorTask,18.0,54.0,,,HRV,HRV_0082,2022-11-30 18:07:49
,wl-rdm,68,272079,0.0-6.54-0.54,0.0,61.0,,,,,,,[],,,,,,62.5,1.0,i,1.0,True,1205.3000000715256,73.0,60.0,40.0,False,,318.78270931008274,[],"[960, 540]",ColorTask,19.0,55.0,,,HRV,HRV_0082,2022-11-30 18:07:49
,wl-rdm,69,274130,0.0-6.55-0.55,0.0,62.0,,,,,,,[],,,,,,73.6,1.0,i,1.0,True,752.8999999761581,46.0,60.0,40.0,False,,204.4254562446169,[],"[960, 540]",ColorTask,20.0,56.0,,,HRV,HRV_0082,2022-11-30 18:07:49
,wl-rdm,70,276696,0.0-6.56-0.56,0.0,63.0,,,,,,,[],,,,,,62.5,1.0,i,1.0,True,1187.4000000953674,72.0,60.0,40.0,False,,311.42177424133774,[],"[960, 540]",ColorTask,21.0,57.0,,,HRV,HRV_0082,2022-11-30 18:07:49
,wl-rdm,71,279596,0.0-6.57-0.57,0.0,64.0,,,,,,,[],,,,,,56.4,0.0,i,1.0,False,1525.5,92.0,60.0,40.0,False,,293.6320614901719,[],"[960, 540]",ColorTask,20.0,58.0,,,HRV,HRV_0082,2022-11-30 18:07:49
,wl-rdm,72,282129,0.0-6.58-0.58,0.0,65.0,,,,,,,[],,,,,,62.5,1.0,i,1.0,True,1203.2000000476837,73.0,60.0,40.0,False,,261.3029891908347,[],"[960, 540]",ColorTask,21.0,59.0,,,HRV,HRV_0082,2022-11-30 18:07:49
,wl-rdm,73,284262,0.0-6.59-0.59,0.0,66.0,,,,,,,[],,,,,,73.6,0.0,u,0.0,True,839.5,51.0,60.0,40.0,False,,202.8224505731671,[],"[960, 540]",ColorTask,22.0,60.0,,,HRV,HRV_0082,2022-11-30 18:07:49
,wl-rdm,74,286430,0.0-6.60-0.60,0.0,67.0,,,,,,,[],,,,,,73.6,0.0,u,0.0,True,864.8999999761581,52.0,60.0,40.0,False,,237.63101807323162,[],"[960, 540]",ColorTask,23.0,61.0,,,HRV,HRV_0082,2022-11-30 18:07:49
,wl-rdm,75,289279,0.0-6.61-0.61,0.0,68.0,,,,,,,[],,,,,,73.6,0.0,u,0.0,True,1521.2999999523163,92.0,60.0,40.0,False,,261.032227481027,[],"[960, 540]",ColorTask,24.0,62.0,,,HRV,HRV_0082,2022-11-30 18:07:49
,wl-rdm,76,292379,0.0-6.62-0.62,0.0,69.0,,,,,,,[],,,,,,56.4,0.0,i,1.0,False,1658.8999999761581,100.0,60.0,40.0,False,,367.8607096581122,[],"[960, 540]",ColorTask,23.0,63.0,,,HRV,HRV_0082,2022-11-30 18:07:49
,wl-rdm,77,294795,0.0-6.63-0.63,0.0,70.0,,,,,,,[],,,,,,73.6,0.0,u,0.0,True,1068.3999999761581,65.0,60.0,40.0,False,,263.1817937405396,[],"[960, 540]",ColorTask,24.0,64.0,,,HRV,HRV_0082,2022-11-30 18:07:49
,wl-rdm,78,297146,0.0-6.64-0.64,0.0,71.0,,,,,,,[],,,,,,62.5,0.0,u,0.0,True,1053.1000000238419,64.0,60.0,40.0,False,,206.41676806402288,[],"[960, 540]",ColorTask,25.0,65.0,,,HRV,HRV_0082,2022-11-30 18:07:49
,wl-rdm,79,299696,0.0-6.65-0.65,0.0,72.0,,,,,,,[],,,,,,50.0,0.0,i,1.0,False,1229.8999999761581,74.0,60.0,40.0,False,,241.3102106671638,[],"[960, 540]",ColorTask,24.0,66.0,,,HRV,HRV_0082,2022-11-30 18:07:49
,wl-rdm,80,301996,0.0-6.66-0.66,0.0,73.0,,,,,,,[],,,,,,73.6,1.0,i,1.0,True,858.3000000715256,52.0,60.0,40.0,False,,377.5997391584526,[],"[960, 540]",ColorTask,25.0,67.0,,,HRV,HRV_0082,2022-11-30 18:07:49
,wl-rdm,81,304196,0.0-6.67-0.67,0.0,74.0,,,,,,,[],,,,,,87.9,0.0,u,0.0,True,849.6999999284744,51.0,60.0,40.0,False,,292.3571205925184,[],"[960, 540]",ColorTask,26.0,68.0,,,HRV,HRV_0082,2022-11-30 18:07:49
,wl-rdm,82,306279,0.0-6.68-0.68,0.0,75.0,,,,,,,[],,,,,,87.9,1.0,i,1.0,True,730.0,44.0,60.0,40.0,False,,273.83894055223664,[],"[960, 540]",ColorTask,27.0,69.0,,,HRV,HRV_0082,2022-11-30 18:07:49
,wl-rdm,83,309296,0.0-6.69-0.69,0.0,76.0,,,,,,,[],,,,,,53.2,1.0,i,1.0,True,1595.8000000715256,96.0,60.0,40.0,False,,357.9234196441306,[],"[960, 540]",ColorTask,28.0,70.0,,,HRV,HRV_0082,2022-11-30 18:07:49
,wl-rdm,84,311596,0.0-6.70-0.70,0.0,77.0,,,,,,,[],,,,,,56.4,1.0,i,1.0,True,919.1999999284744,56.0,60.0,40.0,False,,300.085439752997,[],"[960, 540]",ColorTask,29.0,71.0,,,HRV,HRV_0082,2022-11-30 18:07:49
,wl-rdm,85,314245,0.0-6.71-0.71,0.0,78.0,,,,,,,[],,,,,,53.2,1.0,i,1.0,True,1280.5999999046326,77.0,60.0,40.0,False,,313.03900795174326,[],"[960, 540]",ColorTask,30.0,72.0,,,HRV,HRV_0082,2022-11-30 18:07:49
,wl-rdm,86,316995,0.0-6.72-0.72,0.0,79.0,,,,,,,[],,,,,,56.4,1.0,i,1.0,True,1325.7999999523163,80.0,60.0,40.0,False,,347.28702626282575,[],"[960, 540]",ColorTask,31.0,73.0,,,HRV,HRV_0082,2022-11-30 18:07:49
,wl-rdm,87,319045,0.0-6.73-0.73,0.0,80.0,,,,,,,[],,,,,,87.9,1.0,i,1.0,True,781.0,47.0,60.0,40.0,False,,214.85933670750273,[],"[960, 540]",ColorTask,32.0,74.0,,,HRV,HRV_0082,2022-11-30 18:07:49
,wl-rdm,88,321529,0.0-6.74-0.74,0.0,81.0,,,,,,,[],,,,,,62.5,0.0,u,0.0,True,1003.5,61.0,60.0,40.0,False,,390.64930715411396,[],"[960, 540]",ColorTask,33.0,75.0,,,HRV,HRV_0082,2022-11-30 18:07:49
,wl-rdm,89,324062,0.0-6.75-0.75,0.0,82.0,,,,,,,[],,,,,,56.4,1.0,i,1.0,True,1223.2000000476837,74.0,60.0,40.0,False,,227.71584386299455,[],"[960, 540]",ColorTask,34.0,76.0,,,HRV,HRV_0082,2022-11-30 18:07:49
,wl-rdm,90,326228,0.0-6.76-0.76,0.0,83.0,,,,,,,[],,,,,,73.6,1.0,i,1.0,True,715.3999999761581,43.0,60.0,40.0,False,,371.1048585460668,[],"[960, 540]",ColorTask,35.0,77.0,,,HRV,HRV_0082,2022-11-30 18:07:49
,wl-rdm,91,328462,0.0-6.77-0.77,0.0,84.0,,,,,,,[],,,,,,50.0,0.0,i,1.0,False,923.1999999284744,56.0,60.0,40.0,False,,230.308676019038,[],"[960, 540]",ColorTask,34.0,78.0,,,HRV,HRV_0082,2022-11-30 18:07:49
,wl-rdm,92,330812,0.0-6.78-0.78,0.0,85.0,,,,,,,[],,,,,,62.5,1.0,i,1.0,True,1014.8000000715256,61.0,60.0,40.0,False,,273.23599499942156,[],"[960, 540]",ColorTask,35.0,79.0,,,HRV,HRV_0082,2022-11-30 18:07:49
,wl-rdm,93,332979,0.0-6.79-0.79,0.0,86.0,,,,,,,[],,,,,,73.6,1.0,i,1.0,True,793.2999999523163,48.0,60.0,40.0,False,,283.94388243575247,[],"[960, 540]",ColorTask,36.0,80.0,,,HRV,HRV_0082,2022-11-30 18:07:49
,wl-rdm,94,335779,0.0-6.80-0.80,0.0,87.0,,,,,,,[],,,,,,53.2,0.0,u,0.0,True,1436.2999999523163,87.0,60.0,40.0,False,,280.98186177778706,[],"[960, 540]",ColorTask,37.0,81.0,,,HRV,HRV_0082,2022-11-30 18:07:49
,wl-rdm,95,338995,0.0-6.81-0.81,0.0,88.0,,,,,,,[],,,,,,50.0,1.0,u,0.0,False,1899.7999999523163,114.0,60.0,40.0,False,,265.6625710733936,[],"[960, 540]",ColorTask,36.0,82.0,,,HRV,HRV_0082,2022-11-30 18:07:49
,wl-rdm,96,341112,0.0-6.82-0.82,0.0,89.0,,,,,,,[],,,,,,73.6,1.0,i,1.0,True,745.1000000238419,45.0,60.0,40.0,False,,298.32191965291196,[],"[960, 540]",ColorTask,37.0,83.0,,,HRV,HRV_0082,2022-11-30 18:07:49
,wl-rdm,97,343996,0.0-6.83-0.83,0.0,90.0,,,,,,,[],,,,,,53.2,0.0,i,1.0,False,1434.6000000238419,87.0,60.0,40.0,False,,356.61069862718864,[],"[960, 540]",ColorTask,36.0,84.0,,,HRV,HRV_0082,2022-11-30 18:07:49
,wl-rdm,98,346363,0.0-6.84-0.84,0.0,91.0,,,,,,,[],,,,,,73.6,1.0,i,1.0,True,986.1999999284744,60.0,60.0,40.0,False,,295.65064475097415,[],"[960, 540]",ColorTask,37.0,85.0,,,HRV,HRV_0082,2022-11-30 18:07:49
,wl-rdm,99,348312,0.0-6.85-0.85,0.0,92.0,,,,,,,[],,,,,,87.9,0.0,u,0.0,True,654.7000000476837,40.0,60.0,40.0,False,,211.03419025585245,[],"[960, 540]",ColorTask,38.0,86.0,,,HRV,HRV_0082,2022-11-30 18:07:49
,wl-rdm,100,351446,0.0-6.86-0.86,0.0,93.0,,,,,,,[],,,,,,53.2,1.0,i,1.0,True,1840.2000000476837,111.0,60.0,40.0,False,,207.33576596989718,[],"[960, 540]",ColorTask,39.0,87.0,,,HRV,HRV_0082,2022-11-30 18:07:49
,wl-rdm,101,353546,0.0-6.87-0.87,0.0,94.0,,,,,,,[],,,,,,62.5,1.0,i,1.0,True,803.3999999761581,49.0,60.0,40.0,False,,214.2897330561462,[],"[960, 540]",ColorTask,40.0,88.0,,,HRV,HRV_0082,2022-11-30 18:07:49
,wl-rdm,102,356396,0.0-6.88-0.88,0.0,95.0,,,,,,,[],,,,,,50.0,1.0,i,1.0,True,1558.8999999761581,94.0,60.0,40.0,False,,212.0421128300953,[],"[960, 540]",ColorTask,41.0,89.0,,,HRV,HRV_0082,2022-11-30 18:07:49
,wl-rdm,103,359012,0.0-6.89-0.89,0.0,96.0,,,,,,,[],,,,,,50.0,1.0,i,1.0,True,1240.5,75.0,60.0,40.0,False,,316.3092314003153,[],"[960, 540]",ColorTask,42.0,90.0,,,HRV,HRV_0082,2022-11-30 18:07:49
,wl-rdm,104,361579,0.0-6.90-0.90,0.0,97.0,,,,,,,[],,,,,,53.2,0.0,i,1.0,False,1258.8999999761581,76.0,60.0,40.0,False,,243.67304343518904,[],"[960, 540]",ColorTask,41.0,91.0,,,HRV,HRV_0082,2022-11-30 18:07:49
,wl-rdm,105,364428,0.0-6.91-0.91,0.0,98.0,,,,,,,[],,,,,,53.2,1.0,i,1.0,True,1415.1999999284744,85.0,60.0,40.0,False,,350.31604529369054,[],"[960, 540]",ColorTask,42.0,92.0,,,HRV,HRV_0082,2022-11-30 18:07:49
,wl-rdm,106,366545,0.0-6.92-0.92,0.0,99.0,,,,,,,[],,,,,,73.6,1.0,i,1.0,True,753.5,46.0,60.0,40.0,False,,281.91055772678175,[],"[960, 540]",ColorTask,43.0,93.0,,,HRV,HRV_0082,2022-11-30 18:07:49
,wl-rdm,107,368696,0.0-6.93-0.93,0.0,100.0,,,,,,,[],,,,,,73.6,0.0,u,0.0,True,878.5,53.0,60.0,40.0,False,,208.86832210891515,[],"[960, 540]",ColorTask,44.0,94.0,,,HRV,HRV_0082,2022-11-30 18:07:49
,wl-rdm,108,371396,0.0-6.94-0.94,0.0,101.0,,,,,,,[],,,,,,53.2,1.0,u,0.0,False,1257.9999998807907,76.0,60.0,40.0,False,,369.355496066083,[],"[960, 540]",ColorTask,43.0,95.0,,,HRV,HRV_0082,2022-11-30 18:07:49
,wl-rdm,109,373463,0.0-6.95-0.95,0.0,102.0,,,,,,,[],,,,,,87.9,1.0,i,1.0,True,689.3000000715256,42.0,60.0,40.0,False,,288.3329984123588,[],"[960, 540]",ColorTask,44.0,96.0,,,HRV,HRV_0082,2022-11-30 18:07:49
,wl-rdm,110,375662,0.0-6.96-0.96,0.0,103.0,,,,,,,[],,,,,,62.5,1.0,i,1.0,True,880.5,53.0,60.0,40.0,False,,235.65418724912303,[],"[960, 540]",ColorTask,45.0,97.0,,,HRV,HRV_0082,2022-11-30 18:07:49
,wl-rdm,111,378262,0.0-6.97-0.97,0.0,104.0,,,,,,,[],,,,,,73.6,0.0,u,0.0,True,1222.0,74.0,60.0,40.0,False,,314.7926895657682,[],"[960, 540]",ColorTask,46.0,98.0,,,HRV,HRV_0082,2022-11-30 18:07:49
,wl-rdm,112,381179,0.0-6.98-0.98,0.0,105.0,,,,,,,[],,,,,,56.4,0.0,u,0.0,True,1459.5,88.0,60.0,40.0,False,,377.8570193674916,[],"[960, 540]",ColorTask,47.0,99.0,,,HRV,HRV_0082,2022-11-30 18:07:49
,wl-rdm,113,383212,0.0-6.99-0.99,0.0,106.0,,,,,,,[],,,,,,87.9,1.0,i,1.0,True,702.1000000238419,43.0,60.0,40.0,False,,238.98047182450588,[],"[960, 540]",ColorTask,48.0,100.0,,,HRV,HRV_0082,2022-11-30 18:07:49
,wl-rdm,114,385979,0.0-6.100-0.100,0.0,107.0,,,,,,,[],,,,,,56.4,1.0,i,1.0,True,1482.7000000476837,89.0,60.0,40.0,False,,229.33803577752346,[],"[960, 540]",ColorTask,49.0,101.0,,,HRV,HRV_0082,2022-11-30 18:07:49
,wl-rdm,115,388029,0.0-6.101-0.101,0.0,108.0,,,,,,,[],,,,,,87.9,1.0,i,1.0,True,656.6000000238419,40.0,60.0,40.0,False,,322.5316576544218,[],"[960, 540]",ColorTask,50.0,102.0,,,HRV,HRV_0082,2022-11-30 18:07:49
,wl-rdm,116,390396,0.0-6.102-0.102,0.0,109.0,,,,,,,[],,,,,,62.5,0.0,u,0.0,True,1041.3999999761581,63.0,60.0,40.0,False,,259.7285362731831,[],"[960, 540]",ColorTask,51.0,103.0,,,HRV,HRV_0082,2022-11-30 18:07:49
,wl-rdm,117,393213,0.0-6.103-0.103,0.0,110.0,,,,,,,[],,,,,,50.0,0.0,i,1.0,False,1531.5,92.0,60.0,40.0,False,,225.41812460899996,[],"[960, 540]",ColorTask,50.0,104.0,,,HRV,HRV_0082,2022-11-30 18:07:49
,wl-rdm,118,395813,0.0-6.104-0.104,0.0,111.0,,,,,,,[],,,,,,62.5,1.0,i,1.0,True,1241.5999999046326,75.0,60.0,40.0,False,,274.9528814796872,[],"[960, 540]",ColorTask,51.0,105.0,,,HRV,HRV_0082,2022-11-30 18:07:49
,wl-rdm,119,398013,0.0-6.105-0.105,0.0,112.0,,,,,,,[],,,,,,53.2,1.0,i,1.0,True,832.1000000238419,50.0,60.0,40.0,False,,308.07429887182155,[],"[960, 540]",ColorTask,52.0,106.0,,,HRV,HRV_0082,2022-11-30 18:07:49
,wl-rdm,120,400479,0.0-6.106-0.106,0.0,113.0,,,,,,,[],,,,,,56.4,1.0,i,1.0,True,1030.5999999046326,62.0,60.0,40.0,False,,351.1385548059978,[],"[960, 540]",ColorTask,53.0,107.0,,,HRV,HRV_0082,2022-11-30 18:07:49
,wl-rdm,121,402913,0.0-6.107-0.107,0.0,114.0,,,,,,,[],,,,,,50.0,1.0,i,1.0,True,1104.4000000953674,67.0,60.0,40.0,False,,237.37595514137092,[],"[960, 540]",ColorTask,54.0,108.0,,,HRV,HRV_0082,2022-11-30 18:07:49
,wl-rdm,122,404912,0.0-6.108-0.108,0.0,115.0,,,,,,,[],,,,,,87.9,1.0,i,1.0,True,627.7999999523163,38.0,60.0,40.0,False,,309.59734275789936,[],"[960, 540]",ColorTask,55.0,109.0,,,HRV,HRV_0082,2022-11-30 18:07:49
,wl-rdm,123,406979,0.0-6.109-0.109,0.0,116.0,,,,,,,[],,,,,,87.9,0.0,u,0.0,True,751.0999999046326,46.0,60.0,40.0,False,,234.14916695260476,[],"[960, 540]",ColorTask,56.0,110.0,,,HRV,HRV_0082,2022-11-30 18:07:49
,wl-html-keyboard-response,124,415520,0.0-7.0-0.0,1.0,117.0,,,,,,,,6536.700000047684,1.0,0,,,,,,,,,,,,,,,,,,,,,,HRV,HRV_0082,2022-11-30 18:07:49
,wl-rdm,125,418179,0.0-8.0-0.0,1.0,118.0,,,,,,,[],,,,,,50.0,1.0,u,0.0,False,1335.6000000238419,80.0,60.0,40.0,False,,264.66658220103494,[],"[960, 540]",ColorTask,55.0,1.0,,,HRV,HRV_0082,2022-11-30 18:07:49
,wl-rdm,126,420546,0.0-8.1-0.1,1.0,119.0,,,,,,,[],,,,,,87.9,0.0,u,0.0,True,927.6000000238419,56.0,60.0,40.0,False,,361.6738487878199,[],"[960, 540]",ColorTask,56.0,2.0,,,HRV,HRV_0082,2022-11-30 18:07:49
,wl-rdm,127,422579,0.0-8.2-0.2,1.0,120.0,,,,,,,[],,,,,,73.6,1.0,i,1.0,True,643.0,39.0,60.0,40.0,False,,309.6618893341008,[],"[960, 540]",ColorTask,57.0,3.0,,,HRV,HRV_0082,2022-11-30 18:07:49
,wl-rdm,128,424529,0.0-8.3-0.3,1.0,121.0,,,,,,,[],,,,,,73.6,1.0,i,1.0,True,644.6999999284744,39.0,60.0,40.0,False,,217.31218956266858,[],"[960, 540]",ColorTask,58.0,4.0,,,HRV,HRV_0082,2022-11-30 18:07:49
,wl-rdm,129,427279,0.0-8.4-0.4,1.0,122.0,,,,,,,[],,,,,,53.2,1.0,i,1.0,True,1371.2999999523163,83.0,60.0,40.0,False,,297.0639210906136,[],"[960, 540]",ColorTask,59.0,5.0,,,HRV,HRV_0082,2022-11-30 18:07:49
,wl-rdm,130,429646,0.0-8.5-0.5,1.0,123.0,,,,,,,[],,,,,,62.5,1.0,i,1.0,True,906.3000000715256,55.0,60.0,40.0,False,,390.6614655562104,[],"[960, 540]",ColorTask,60.0,6.0,,,HRV,HRV_0082,2022-11-30 18:07:49
,wl-rdm,131,432412,0.0-8.6-0.6,1.0,124.0,,,,,,,[],,,,,,53.2,0.0,u,0.0,True,1324.3000000715256,80.0,60.0,40.0,False,,366.524117621027,[],"[960, 540]",ColorTask,61.0,7.0,,,HRV,HRV_0082,2022-11-30 18:07:49
,wl-rdm,132,434545,0.0-8.7-0.7,1.0,125.0,,,,,,,[],,,,,,87.9,1.0,i,1.0,True,710.8000000715256,43.0,60.0,40.0,False,,335.85732428022686,[],"[960, 540]",ColorTask,62.0,8.0,,,HRV,HRV_0082,2022-11-30 18:07:49
,wl-rdm,133,436695,0.0-8.8-0.8,1.0,126.0,,,,,,,[],,,,,,53.2,1.0,i,1.0,True,771.6000000238419,47.0,60.0,40.0,False,,295.46716779386395,[],"[960, 540]",ColorTask,63.0,9.0,,,HRV,HRV_0082,2022-11-30 18:07:49
,wl-rdm,134,439229,0.0-8.9-0.9,1.0,127.0,,,,,,,[],,,,,,62.5,1.0,i,1.0,True,1256.2000000476837,76.0,60.0,40.0,False,,205.8047527755008,[],"[960, 540]",ColorTask,64.0,10.0,,,HRV,HRV_0082,2022-11-30 18:07:49
,wl-rdm,135,441896,0.0-8.10-0.10,1.0,128.0,,,,,,,[],,,,,,50.0,0.0,u,0.0,True,1304.2000000476837,79.0,60.0,40.0,False,,275.2767242944084,[],"[960, 540]",ColorTask,65.0,11.0,,,HRV,HRV_0082,2022-11-30 18:07:49
,wl-rdm,136,444678,0.0-8.11-0.11,1.0,129.0,,,,,,,[],,,,,,53.2,1.0,i,1.0,True,1496.7000000476837,90.0,60.0,40.0,False,,201.8287115631201,[],"[960, 540]",ColorTask,66.0,12.0,,,HRV,HRV_0082,2022-11-30 18:07:49
,wl-rdm,137,447062,0.0-8.12-0.12,1.0,130.0,,,,,,,[],,,,,,73.6,0.0,u,0.0,True,1088.6000000238419,66.0,60.0,40.0,False,,212.5446789241629,[],"[960, 540]",ColorTask,67.0,13.0,,,HRV,HRV_0082,2022-11-30 18:07:49
,wl-rdm,138,449646,0.0-8.13-0.13,1.0,131.0,,,,,,,[],,,,,,73.6,0.0,u,0.0,True,1272.8000000715256,77.0,60.0,40.0,False,,235.43885805084966,[],"[960, 540]",ColorTask,68.0,14.0,,,HRV,HRV_0082,2022-11-30 18:07:49
,wl-rdm,139,451812,0.0-8.14-0.14,1.0,132.0,,,,,,,[],,,,,,56.4,0.0,u,0.0,True,840.7999999523163,51.0,60.0,40.0,False,,258.4742857933213,[],"[960, 540]",ColorTask,69.0,15.0,,,HRV,HRV_0082,2022-11-30 18:07:49
,wl-rdm,140,454579,0.0-8.15-0.15,1.0,133.0,,,,,,,[],,,,,,56.4,0.0,u,0.0,True,1342.6000000238419,81.0,60.0,40.0,False,,333.85740924210376,[],"[960, 540]",ColorTask,70.0,16.0,,,HRV,HRV_0082,2022-11-30 18:07:49
,wl-rdm,141,456829,0.0-8.16-0.16,1.0,134.0,,,,,,,[],,,,,,73.6,1.0,i,1.0,True,798.1000000238419,48.0,60.0,40.0,False,,390.0437421391095,[],"[960, 540]",ColorTask,71.0,17.0,,,HRV,HRV_0082,2022-11-30 18:07:49
,wl-rdm,142,459512,0.0-8.17-0.17,1.0,135.0,,,,,,,[],,,,,,50.0,0.0,i,1.0,False,1236.1999999284744,75.0,60.0,40.0,False,,378.5682977116695,[],"[960, 540]",ColorTask,70.0,18.0,,,HRV,HRV_0082,2022-11-30 18:07:49
,wl-rdm,143,462379,0.0-8.18-0.18,1.0,136.0,,,,,,,[],,,,,,56.4,1.0,i,1.0,True,1501.3000000715256,91.0,60.0,40.0,False,,290.6863859873291,[],"[960, 540]",ColorTask,71.0,19.0,,,HRV,HRV_0082,2022-11-30 18:07:49
,wl-rdm,144,464545,0.0-8.19-0.19,1.0,137.0,,,,,,,[],,,,,,87.9,0.0,u,0.0,True,853.1999999284744,52.0,60.0,40.0,False,,225.67191402505145,[],"[960, 540]",ColorTask,72.0,20.0,,,HRV,HRV_0082,2022-11-30 18:07:49
,wl-rdm,145,466912,0.0-8.20-0.20,1.0,138.0,,,,,,,[],,,,,,53.2,1.0,i,1.0,True,1011.3000000715256,61.0,60.0,40.0,False,,298.5226068740367,[],"[960, 540]",ColorTask,73.0,21.0,,,HRV,HRV_0082,2022-11-30 18:07:49
,wl-rdm,146,469179,0.0-8.21-0.21,1.0,139.0,,,,,,,[],,,,,,73.6,0.0,u,0.0,True,942.5,57.0,60.0,40.0,False,,248.0239437542983,[],"[960, 540]",ColorTask,74.0,22.0,,,HRV,HRV_0082,2022-11-30 18:07:49
,wl-rdm,147,472112,0.0-8.22-0.22,1.0,140.0,,,,,,,[],,,,,,62.5,0.0,u,0.0,True,1470.7000000476837,89.0,60.0,40.0,False,,397.6140250787546,[],"[960, 540]",ColorTask,75.0,23.0,,,HRV,HRV_0082,2022-11-30 18:07:49
,wl-rdm,148,474546,0.0-8.23-0.23,1.0,141.0,,,,,,,[],,,,,,50.0,1.0,i,1.0,True,1118.0,68.0,60.0,40.0,False,,249.47923362081997,[],"[960, 540]",ColorTask,76.0,24.0,,,HRV,HRV_0082,2022-11-30 18:07:49
,wl-rdm,149,477662,0.0-8.24-0.24,1.0,142.0,,,,,,,[],,,,,,50.0,1.0,i,1.0,True,1772.2000000476837,107.0,60.0,40.0,False,,259.97525839706395,[],"[960, 540]",ColorTask,77.0,25.0,,,HRV,HRV_0082,2022-11-30 18:07:49
,wl-rdm,150,480679,0.0-8.25-0.25,1.0,143.0,,,,,,,[],,,,,,53.2,0.0,u,0.0,True,1671.7999999523163,101.0,60.0,40.0,False,,253.10531449662273,[],"[960, 540]",ColorTask,78.0,26.0,,,HRV,HRV_0082,2022-11-30 18:07:49
,wl-rdm,151,483362,0.0-8.26-0.26,1.0,144.0,,,,,,,[],,,,,,73.6,0.0,u,0.0,True,1201.7999999523163,73.0,60.0,40.0,False,,389.0289868501611,[],"[960, 540]",ColorTask,79.0,27.0,,,HRV,HRV_0082,2022-11-30 18:07:49
,wl-rdm,152,486096,0.0-8.27-0.27,1.0,145.0,,,,,,,[],,,,,,56.4,1.0,i,1.0,True,1262.5,76.0,60.0,40.0,False,,391.81387177559895,[],"[960, 540]",ColorTask,80.0,28.0,,,HRV,HRV_0082,2022-11-30 18:07:49
,wl-rdm,153,488196,0.0-8.28-0.28,1.0,146.0,,,,,,,[],,,,,,87.9,1.0,i,1.0,True,732.2000000476837,44.0,60.0,40.0,False,,306.1492136239398,[],"[960, 540]",ColorTask,81.0,29.0,,,HRV,HRV_0082,2022-11-30 18:07:49
,wl-rdm,154,490912,0.0-8.29-0.29,1.0,147.0,,,,,,,[],,,,,,53.2,1.0,i,1.0,True,1370.3999999761581,83.0,60.0,40.0,False,,253.32382709460805,[],"[960, 540]",ColorTask,82.0,30.0,,,HRV,HRV_0082,2022-11-30 18:07:49
,wl-rdm,155,493329,0.0-8.30-0.30,1.0,148.0,,,,,,,[],,,,,,62.5,0.0,u,0.0,True,1143.2000000476837,69.0,60.0,40.0,False,,210.04238104291625,[],"[960, 540]",ColorTask,83.0,31.0,,,HRV,HRV_0082,2022-11-30 18:07:49
,wl-rdm,156,495479,0.0-8.31-0.31,1.0,149.0,,,,,,,[],,,,,,73.6,1.0,i,1.0,True,788.3000000715256,48.0,60.0,40.0,False,,274.5288291823747,[],"[960, 540]",ColorTask,84.0,32.0,,,HRV,HRV_0082,2022-11-30 18:07:49
,wl-rdm,157,498129,0.0-8.32-0.32,1.0,150.0,,,,,,,[],,,,,,56.4,1.0,i,1.0,True,1219.1000000238419,74.0,60.0,40.0,False,,343.74237915520246,[],"[960, 540]",ColorTask,85.0,33.0,,,HRV,HRV_0082,2022-11-30 18:07:49
,wl-rdm,158,500763,0.0-8.33-0.33,1.0,151.0,,,,,,,[],,,,,,50.0,1.0,i,1.0,True,1260.5,76.0,60.0,40.0,False,,299.5399534879167,[],"[960, 540]",ColorTask,86.0,34.0,,,HRV,HRV_0082,2022-11-30 18:07:49
,wl-rdm,159,503329,0.0-8.34-0.34,1.0,152.0,,,,,,,[],,,,,,62.5,0.0,u,0.0,True,1194.5999999046326,72.0,60.0,40.0,False,,293.5447135590464,[],"[960, 540]",ColorTask,87.0,35.0,,,HRV,HRV_0082,2022-11-30 18:07:49
,wl-rdm,160,505779,0.0-8.35-0.35,1.0,153.0,,,,,,,[],,,,,,62.5,1.0,i,1.0,True,1032.3000000715256,62.0,60.0,40.0,False,,360.44728295372204,[],"[960, 540]",ColorTask,88.0,36.0,,,HRV,HRV_0082,2022-11-30 18:07:49
,wl-rdm,161,507813,0.0-8.36-0.36,1.0,154.0,,,,,,,[],,,,,,87.9,1.0,i,1.0,True,707.1000000238419,43.0,60.0,40.0,False,,239.78995059556783,[],"[960, 540]",ColorTask,89.0,37.0,,,HRV,HRV_0082,2022-11-30 18:07:49
,wl-rdm,162,510280,0.0-8.37-0.37,1.0,155.0,,,,,,,[],,,,,,62.5,1.0,i,1.0,True,1154.2000000476837,70.0,60.0,40.0,False,,240.20521905133472,[],"[960, 540]",ColorTask,90.0,38.0,,,HRV,HRV_0082,2022-11-30 18:07:49
,wl-rdm,163,513213,0.0-8.38-0.38,1.0,156.0,,,,,,,[],,,,,,53.2,0.0,u,0.0,True,1474.5,89.0,60.0,40.0,False,,375.87970970769874,[],"[960, 540]",ColorTask,91.0,39.0,,,HRV,HRV_0082,2022-11-30 18:07:49
,wl-rdm,164,515579,0.0-8.39-0.39,1.0,157.0,,,,,,,[],,,,,,56.4,0.0,u,0.0,True,968.5999999046326,59.0,60.0,40.0,False,,306.9055927217556,[],"[960, 540]",ColorTask,92.0,40.0,,,HRV,HRV_0082,2022-11-30 18:07:49
,wl-rdm,165,517863,0.0-8.40-0.40,1.0,158.0,,,,,,,[],,,,,,73.6,0.0,u,0.0,True,955.5999999046326,58.0,60.0,40.0,False,,234.0695068547375,[],"[960, 540]",ColorTask,93.0,41.0,,,HRV,HRV_0082,2022-11-30 18:07:49
,wl-rdm,166,520946,0.0-8.41-0.41,1.0,159.0,,,,,,,[],,,,,,50.0,0.0,i,1.0,False,1760.2999999523163,106.0,60.0,40.0,False,,234.0380123310619,[],"[960, 540]",ColorTask,92.0,42.0,,,HRV,HRV_0082,2022-11-30 18:07:49
,wl-rdm,167,523430,0.0-8.42-0.42,1.0,160.0,,,,,,,[],,,,,,56.4,1.0,i,1.0,True,1073.8999999761581,65.0,60.0,40.0,False,,320.2979979296336,[],"[960, 540]",ColorTask,93.0,43.0,,,HRV,HRV_0082,2022-11-30 18:07:49
,wl-rdm,168,525696,0.0-8.43-0.43,1.0,161.0,,,,,,,[],,,,,,56.4,0.0,u,0.0,True,920.5,56.0,60.0,40.0,False,,270.26582209568585,[],"[960, 540]",ColorTask,94.0,44.0,,,HRV,HRV_0082,2022-11-30 18:07:49
,wl-rdm,169,527629,0.0-8.44-0.44,1.0,162.0,,,,,,,[],,,,,,87.9,0.0,u,0.0,True,655.7999999523163,40.0,60.0,40.0,False,,215.34417177143735,[],"[960, 540]",ColorTask,95.0,45.0,,,HRV,HRV_0082,2022-11-30 18:07:49
,wl-rdm,170,530596,0.0-8.45-0.45,1.0,163.0,,,,,,,[],,,,,,50.0,0.0,u,0.0,True,1668.3000000715256,101.0,60.0,40.0,False,,206.7782517069477,[],"[960, 540]",ColorTask,96.0,46.0,,,HRV,HRV_0082,2022-11-30 18:07:49
,wl-rdm,171,533113,0.0-8.46-0.46,1.0,164.0,,,,,,,[],,,,,,62.5,0.0,u,0.0,True,1219.6000000238419,74.0,60.0,40.0,False,,221.61072006358768,[],"[960, 540]",ColorTask,97.0,47.0,,,HRV,HRV_0082,2022-11-30 18:07:49
,wl-rdm,172,535813,0.0-8.47-0.47,1.0,165.0,,,,,,,[],,,,,,50.0,1.0,i,1.0,True,1398.6000000238419,84.0,60.0,40.0,False,,249.329331941816,[],"[960, 540]",ColorTask,98.0,48.0,,,HRV,HRV_0082,2022-11-30 18:07:49
,wl-rdm,173,537896,0.0-8.48-0.48,1.0,166.0,,,,,,,[],,,,,,87.9,0.0,u,0.0,True,729.0999999046326,44.0,60.0,40.0,False,,273.19889642917025,[],"[960, 540]",ColorTask,99.0,49.0,,,HRV,HRV_0082,2022-11-30 18:07:49
,wl-rdm,174,540629,0.0-8.49-0.49,1.0,167.0,,,,,,,[],,,,,,56.4,0.0,i,1.0,False,1356.6000000238419,82.0,60.0,40.0,False,,316.13384670854776,[],"[960, 540]",ColorTask,98.0,50.0,,,HRV,HRV_0082,2022-11-30 18:07:49
,wl-rdm,175,542846,0.0-8.50-0.50,1.0,168.0,,,,,,,[],,,,,,73.6,1.0,i,1.0,True,855.0999999046326,52.0,60.0,40.0,False,,299.51817722689066,[],"[960, 540]",ColorTask,99.0,51.0,,,HRV,HRV_0082,2022-11-30 18:07:49
,wl-rdm,176,544879,0.0-8.51-0.51,1.0,169.0,,,,,,,[],,,,,,73.6,1.0,i,1.0,True,629.5999999046326,38.0,60.0,40.0,False,,324.5887989000136,[],"[960, 540]",ColorTask,100.0,52.0,,,HRV,HRV_0082,2022-11-30 18:07:49
,wl-rdm,177,547513,0.0-8.52-0.52,1.0,170.0,,,,,,,[],,,,,,50.0,0.0,i,1.0,False,1304.0,79.0,60.0,40.0,False,,245.40316466819004,[],"[960, 540]",ColorTask,99.0,53.0,,,HRV,HRV_0082,2022-11-30 18:07:49
,wl-rdm,178,550113,0.0-8.53-0.53,1.0,171.0,,,,,,,[],,,,,,53.2,0.0,i,1.0,False,1186.0,72.0,60.0,40.0,False,,348.25509260589376,[],"[960, 540]",ColorTask,98.0,54.0,,,HRV,HRV_0082,2022-11-30 18:07:49
,wl-rdm,179,553129,0.0-8.54-0.54,1.0,172.0,,,,,,,[],,,,,,62.5,0.0,u,0.0,True,1594.5,96.0,60.0,40.0,False,,346.90201696167765,[],"[960, 540]",ColorTask,99.0,55.0,,,HRV,HRV_0082,2022-11-30 18:07:49
,wl-rdm,180,555912,0.0-8.55-0.55,1.0,173.0,,,,,,,[],,,,,,62.5,0.0,u,0.0,True,1320.5,80.0,60.0,40.0,False,,373.6354946469901,[],"[960, 540]",ColorTask,100.0,56.0,,,HRV,HRV_0082,2022-11-30 18:07:49
,wl-rdm,181,558146,0.0-8.56-0.56,1.0,174.0,,,,,,,[],,,,,,87.9,1.0,i,1.0,True,836.5,51.0,60.0,40.0,False,,313.320941234714,[],"[960, 540]",ColorTask,101.0,57.0,,,HRV,HRV_0082,2022-11-30 18:07:49
,wl-rdm,182,560563,0.0-8.57-0.57,1.0,175.0,,,,,,,[],,,,,,56.4,1.0,i,1.0,True,1126.5,68.0,60.0,40.0,False,,209.46402699249523,[],"[960, 540]",ColorTask,102.0,58.0,,,HRV,HRV_0082,2022-11-30 18:07:49
,wl-rdm,183,563562,0.0-8.58-0.58,1.0,176.0,,,,,,,[],,,,,,56.4,1.0,u,0.0,False,1726.1000000238419,104.0,60.0,40.0,False,,207.35790381621766,[],"[960, 540]",ColorTask,101.0,59.0,,,HRV,HRV_0082,2022-11-30 18:07:49
,wl-rdm,184,566329,0.0-8.59-0.59,1.0,177.0,,,,,,,[],,,,,,50.0,1.0,u,0.0,False,1469.2999999523163,89.0,60.0,40.0,False,,200.1617009793419,[],"[960, 540]",ColorTask,100.0,60.0,,,HRV,HRV_0082,2022-11-30 18:07:49
,wl-rdm,185,568362,0.0-8.60-0.60,1.0,178.0,,,,,,,[],,,,,,87.9,1.0,i,1.0,True,741.5,45.0,60.0,40.0,False,,227.5000172321043,[],"[960, 540]",ColorTask,101.0,61.0,,,HRV,HRV_0082,2022-11-30 18:07:49
,wl-rdm,186,571229,0.0-8.61-0.61,1.0,179.0,,,,,,,[],,,,,,53.2,1.0,u,0.0,False,1573.8999999761581,95.0,60.0,40.0,False,,207.27566412809196,[],"[960, 540]",ColorTask,100.0,62.0,,,HRV,HRV_0082,2022-11-30 18:07:49
,wl-rdm,187,573479,0.0-8.62-0.62,1.0,180.0,,,,,,,[],,,,,,73.6,0.0,u,0.0,True,954.8999999761581,58.0,60.0,40.0,False,,210.98880959923088,[],"[960, 540]",ColorTask,101.0,63.0,,,HRV,HRV_0082,2022-11-30 18:07:49
,wl-rdm,188,576529,0.0-8.63-0.63,1.0,181.0,,,,,,,[],,,,,,53.2,0.0,i,1.0,False,1660.8999999761581,100.0,60.0,40.0,False,,316.0094211899097,[],"[960, 540]",ColorTask,100.0,64.0,,,HRV,HRV_0082,2022-11-30 18:07:49
,wl-rdm,189,578713,0.0-8.64-0.64,1.0,182.0,,,,,,,[],,,,,,73.6,1.0,i,1.0,True,894.0,54.0,60.0,40.0,False,,217.1687459075267,[],"[960, 540]",ColorTask,101.0,65.0,,,HRV,HRV_0082,2022-11-30 18:07:49
,wl-rdm,190,581496,0.0-8.65-0.65,1.0,183.0,,,,,,,[],,,,,,50.0,1.0,u,0.0,False,1403.7999999523163,85.0,60.0,40.0,False,,316.5778428401801,[],"[960, 540]",ColorTask,100.0,66.0,,,HRV,HRV_0082,2022-11-30 18:07:49
,wl-rdm,191,584229,0.0-8.66-0.66,1.0,184.0,,,,,,,[],,,,,,53.2,0.0,u,0.0,True,1447.3999999761581,87.0,60.0,40.0,False,,222.373733024676,[],"[960, 540]",ColorTask,101.0,67.0,,,HRV,HRV_0082,2022-11-30 18:07:49
,wl-rdm,192,587129,0.0-8.67-0.67,1.0,185.0,,,,,,,[],,,,,,50.0,1.0,i,1.0,True,1552.6000000238419,94.0,60.0,40.0,False,,256.8459653685703,[],"[960, 540]",ColorTask,102.0,68.0,,,HRV,HRV_0082,2022-11-30 18:07:49
,wl-rdm,193,589546,0.0-8.68-0.68,1.0,186.0,,,,,,,[],,,,,,73.6,1.0,i,1.0,True,960.5,58.0,60.0,40.0,False,,376.62084234240206,[],"[960, 540]",ColorTask,103.0,69.0,,,HRV,HRV_0082,2022-11-30 18:07:49
,wl-rdm,194,591812,0.0-8.69-0.69,1.0,187.0,,,,,,,[],,,,,,56.4,1.0,i,1.0,True,847.7999999523163,51.0,60.0,40.0,False,,356.23767128194845,[],"[960, 540]",ColorTask,104.0,70.0,,,HRV,HRV_0082,2022-11-30 18:07:49
,wl-rdm,195,594446,0.0-8.70-0.70,1.0,188.0,,,,,,,[],,,,,,56.4,1.0,i,1.0,True,1247.8999999761581,75.0,60.0,40.0,False,,314.2489500166965,[],"[960, 540]",ColorTask,105.0,71.0,,,HRV,HRV_0082,2022-11-30 18:07:49
,wl-rdm,196,596596,0.0-8.71-0.71,1.0,189.0,,,,,,,[],,,,,,87.9,0.0,u,0.0,True,816.3999999761581,49.0,60.0,40.0,False,,265.55433498204707,[],"[960, 540]",ColorTask,106.0,72.0,,,HRV,HRV_0082,2022-11-30 18:07:49
,wl-rdm,197,599213,0.0-8.72-0.72,1.0,190.0,,,,,,,[],,,,,,73.6,0.0,u,0.0,True,1190.2999999523163,72.0,60.0,40.0,False,,363.5620924454947,[],"[960, 540]",ColorTask,107.0,73.0,,,HRV,HRV_0082,2022-11-30 18:07:49
,wl-rdm,198,601679,0.0-8.73-0.73,1.0,191.0,,,,,,,[],,,,,,73.6,1.0,i,1.0,True,1097.1000000238419,66.0,60.0,40.0,False,,296.32022959499375,[],"[960, 540]",ColorTask,108.0,74.0,,,HRV,HRV_0082,2022-11-30 18:07:49
,wl-rdm,199,604229,0.0-8.74-0.74,1.0,192.0,,,,,,,[],,,,,,62.5,0.0,u,0.0,True,1247.2000000476837,75.0,60.0,40.0,False,,249.62977325747246,[],"[960, 540]",ColorTask,109.0,75.0,,,HRV,HRV_0082,2022-11-30 18:07:49
,wl-rdm,200,606679,0.0-8.75-0.75,1.0,193.0,,,,,,,[],,,,,,87.9,0.0,u,0.0,True,1005.0,61.0,60.0,40.0,False,,351.6454254592975,[],"[960, 540]",ColorTask,110.0,76.0,,,HRV,HRV_0082,2022-11-30 18:07:49
,wl-rdm,201,608679,0.0-8.76-0.76,1.0,194.0,,,,,,,[],,,,,,87.9,1.0,i,1.0,True,705.1000000238419,43.0,60.0,40.0,False,,202.33610040447059,[],"[960, 540]",ColorTask,111.0,77.0,,,HRV,HRV_0082,2022-11-30 18:07:49
,wl-rdm,202,611396,0.0-8.77-0.77,1.0,195.0,,,,,,,[],,,,,,50.0,0.0,i,1.0,False,1291.1000000238419,78.0,60.0,40.0,False,,352.71106604260433,[],"[960, 540]",ColorTask,110.0,78.0,,,HRV,HRV_0082,2022-11-30 18:07:49
,wl-rdm,203,613563,0.0-8.78-0.78,1.0,196.0,,,,,,,[],,,,,,62.5,1.0,i,1.0,True,875.5,53.0,60.0,40.0,False,,223.5016226153675,[],"[960, 540]",ColorTask,111.0,79.0,,,HRV,HRV_0082,2022-11-30 18:07:49
,wl-rdm,204,616679,0.0-8.79-0.79,1.0,197.0,,,,,,,[],,,,,,56.4,0.0,u,0.0,True,1686.8000000715256,102.0,60.0,40.0,False,,355.0768778235134,[],"[960, 540]",ColorTask,112.0,80.0,,,HRV,HRV_0082,2022-11-30 18:07:49
,wl-rdm,205,618829,0.0-8.80-0.80,1.0,198.0,,,,,,,[],,,,,,53.2,1.0,i,1.0,True,798.3000000715256,48.0,60.0,40.0,False,,268.5251374376011,[],"[960, 540]",ColorTask,113.0,81.0,,,HRV,HRV_0082,2022-11-30 18:07:49
,wl-rdm,206,621446,0.0-8.81-0.81,1.0,199.0,,,,,,,[],,,,,,53.2,1.0,u,0.0,False,1323.0,80.0,60.0,40.0,False,,208.255200651113,[],"[960, 540]",ColorTask,112.0,82.0,,,HRV,HRV_0082,2022-11-30 18:07:49
,wl-rdm,207,624313,0.0-8.82-0.82,1.0,200.0,,,,,,,[],,,,,,62.5,0.0,u,0.0,True,1452.6000000238419,88.0,60.0,40.0,False,,345.27276393814293,[],"[960, 540]",ColorTask,113.0,83.0,,,HRV,HRV_0082,2022-11-30 18:07:49
,wl-rdm,208,626413,0.0-8.83-0.83,1.0,201.0,,,,,,,[],,,,,,87.9,1.0,i,1.0,True,740.2999999523163,45.0,60.0,40.0,False,,283.85104946053036,[],"[960, 540]",ColorTask,114.0,84.0,,,HRV,HRV_0082,2022-11-30 18:07:49
,wl-rdm,209,628763,0.0-8.84-0.84,1.0,202.0,,,,,,,[],,,,,,53.2,1.0,i,1.0,True,993.2000000476837,60.0,60.0,40.0,False,,274.43252251162846,[],"[960, 540]",ColorTask,115.0,85.0,,,HRV,HRV_0082,2022-11-30 18:07:49
,wl-rdm,210,631463,0.0-8.85-0.85,1.0,203.0,,,,,,,[],,,,,,56.4,1.0,i,1.0,True,1338.6000000238419,81.0,60.0,40.0,False,,279.5218011006386,[],"[960, 540]",ColorTask,116.0,86.0,,,HRV,HRV_0082,2022-11-30 18:07:49
,wl-rdm,211,633779,0.0-8.86-0.86,1.0,204.0,,,,,,,[],,,,,,62.5,0.0,u,0.0,True,1025.5,62.0,60.0,40.0,False,,215.76140970343315,[],"[960, 540]",ColorTask,117.0,87.0,,,HRV,HRV_0082,2022-11-30 18:07:49
,wl-rdm,212,636213,0.0-8.87-0.87,1.0,205.0,,,,,,,[],,,,,,62.5,1.0,i,1.0,True,1034.7999999523163,63.0,60.0,40.0,False,,313.89238454907854,[],"[960, 540]",ColorTask,118.0,88.0,,,HRV,HRV_0082,2022-11-30 18:07:49
,wl-rdm,213,638913,0.0-8.88-0.88,1.0,206.0,,,,,,,[],,,,,,50.0,0.0,u,0.0,True,1419.2000000476837,86.0,60.0,40.0,False,,207.51517806068682,[],"[960, 540]",ColorTask,119.0,89.0,,,HRV,HRV_0082,2022-11-30 18:07:49
,wl-rdm,214,641496,0.0-8.89-0.89,1.0,207.0,,,,,,,[],,,,,,62.5,1.0,i,1.0,True,1137.4999998807907,69.0,60.0,40.0,False,,351.63068288220666,[],"[960, 540]",ColorTask,120.0,90.0,,,HRV,HRV_0082,2022-11-30 18:07:49
,wl-rdm,215,644530,0.0-8.90-0.90,1.0,208.0,,,,,,,[],,,,,,56.4,0.0,u,0.0,True,1643.7000000476837,99.0,60.0,40.0,False,,329.0545929727489,[],"[960, 540]",ColorTask,121.0,91.0,,,HRV,HRV_0082,2022-11-30 18:07:49
,wl-rdm,216,647079,0.0-8.91-0.91,1.0,209.0,,,,,,,[],,,,,,53.2,0.0,u,0.0,True,1221.3000000715256,74.0,60.0,40.0,False,,249.39306694323867,[],"[960, 540]",ColorTask,122.0,92.0,,,HRV,HRV_0082,2022-11-30 18:07:49
,wl-rdm,217,649179,0.0-8.92-0.92,1.0,210.0,,,,,,,[],,,,,,87.9,1.0,i,1.0,True,741.3999999761581,45.0,60.0,40.0,False,,278.76114879493934,[],"[960, 540]",ColorTask,123.0,93.0,,,HRV,HRV_0082,2022-11-30 18:07:49
,wl-rdm,218,651829,0.0-8.93-0.93,1.0,211.0,,,,,,,[],,,,,,53.2,0.0,u,0.0,True,1323.0,80.0,60.0,40.0,False,,257.74990612301923,[],"[960, 540]",ColorTask,124.0,94.0,,,HRV,HRV_0082,2022-11-30 18:07:49
,wl-rdm,219,654530,0.0-8.94-0.94,1.0,212.0,,,,,,,[],,,,,,56.4,0.0,u,0.0,True,1411.2999999523163,85.0,60.0,40.0,False,,209.11784375285703,[],"[960, 540]",ColorTask,125.0,95.0,,,HRV,HRV_0082,2022-11-30 18:07:49
,wl-rdm,220,656630,0.0-8.95-0.95,1.0,213.0,,,,,,,[],,,,,,87.9,0.0,u,0.0,True,730.4999998807907,44.0,60.0,40.0,False,,313.86783732716583,[],"[960, 540]",ColorTask,126.0,96.0,,,HRV,HRV_0082,2022-11-30 18:07:49
,wl-rdm,221,658830,0.0-8.96-0.96,1.0,214.0,,,,,,,[],,,,,,53.2,0.0,u,0.0,True,881.7000000476837,53.0,60.0,40.0,False,,237.42135267514294,[],"[960, 540]",ColorTask,127.0,97.0,,,HRV,HRV_0082,2022-11-30 18:07:49
,wl-rdm,222,661513,0.0-8.97-0.97,1.0,215.0,,,,,,,[],,,,,,50.0,1.0,i,1.0,True,1361.5,82.0,60.0,40.0,False,,245.972028668191,[],"[960, 540]",ColorTask,128.0,98.0,,,HRV,HRV_0082,2022-11-30 18:07:49
,wl-rdm,223,663679,0.0-8.98-0.98,1.0,216.0,,,,,,,[],,,,,,87.9,0.0,u,0.0,True,745.2999999523163,45.0,60.0,40.0,False,,360.2268447897069,[],"[960, 540]",ColorTask,129.0,99.0,,,HRV,HRV_0082,2022-11-30 18:07:49
,wl-rdm,224,666430,0.0-8.99-0.99,1.0,217.0,,,,,,,[],,,,,,62.5,1.0,i,1.0,True,1447.2999999523163,87.0,60.0,40.0,False,,247.82059970603893,[],"[960, 540]",ColorTask,130.0,100.0,,,HRV,HRV_0082,2022-11-30 18:07:49
,wl-rdm,225,669196,0.0-8.100-0.100,1.0,218.0,,,,,,,[],,,,,,50.0,0.0,u,0.0,True,1441.0,87.0,60.0,40.0,False,,253.61131307730668,[],"[960, 540]",ColorTask,131.0,101.0,,,HRV,HRV_0082,2022-11-30 18:07:49
,wl-rdm,226,671330,0.0-8.101-0.101,1.0,219.0,,,,,,,[],,,,,,87.9,0.0,u,0.0,True,685.7999999523163,42.0,60.0,40.0,False,,381.3380701359962,[],"[960, 540]",ColorTask,132.0,102.0,,,HRV,HRV_0082,2022-11-30 18:07:49
,wl-rdm,227,674030,0.0-8.102-0.102,1.0,220.0,,,,,,,[],,,,,,50.0,0.0,u,0.0,True,1372.6999999284744,83.0,60.0,40.0,False,,250.17596629668222,[],"[960, 540]",ColorTask,133.0,103.0,,,HRV,HRV_0082,2022-11-30 18:07:49
,wl-rdm,228,676030,0.0-8.103-0.103,1.0,221.0,,,,,,,[],,,,,,73.6,0.0,u,0.0,True,630.1999998092651,38.0,60.0,40.0,False,,308.1586405465228,[],"[960, 540]",ColorTask,134.0,104.0,,,HRV,HRV_0082,2022-11-30 18:07:49
,wl-rdm,229,678146,0.0-8.104-0.104,1.0,222.0,,,,,,,[],,,,,,87.9,1.0,i,1.0,True,651.8999999761581,40.0,60.0,40.0,False,,381.0342520367677,[],"[960, 540]",ColorTask,135.0,105.0,,,HRV,HRV_0082,2022-11-30 18:07:49
,wl-rdm,230,680346,0.0-8.105-0.105,1.0,223.0,,,,,,,[],,,,,,62.5,1.0,i,1.0,True,802.0,49.0,60.0,40.0,False,,316.2360685653332,[],"[960, 540]",ColorTask,136.0,106.0,,,HRV,HRV_0082,2022-11-30 18:07:49
,wl-rdm,231,682546,0.0-8.106-0.106,1.0,224.0,,,,,,,[],,,,,,73.6,0.0,u,0.0,True,785.0,48.0,60.0,40.0,False,,330.5904012124099,[],"[960, 540]",ColorTask,137.0,107.0,,,HRV,HRV_0082,2022-11-30 18:07:49
,wl-rdm,232,684930,0.0-8.107-0.107,1.0,225.0,,,,,,,[],,,,,,56.4,0.0,u,0.0,True,1078.0,65.0,60.0,40.0,False,,227.2480698585636,[],"[960, 540]",ColorTask,138.0,108.0,,,HRV,HRV_0082,2022-11-30 18:07:49
,wl-html-button-response,233,686995,0.0-9.0-0.0,,,,,,,,,,2061.9000000953674,,0,,,,,,,,,,,,,,,,,,,,<h3>End of this session. Thank you!</h3><br>,['Close window'],HRV,HRV_0082,2022-11-30 18:07:49
