success,trial_type,trial_index,time_elapsed,internal_node_id,Block,TrialNumber,TrialTime,trialTimeDiff,FPS_avg,FPS_med,FPS_mode,TrialDur,winResizeTime,rt,block,button_pressed,MotCoh,MotDir,ColCoh,Color,ChoiceKey,Choice,Accuracy,RT,nFrames,FPS,PPD,missTrial,missTrialMsg,onsetDelay,fullScreenExitTime,canvCenter,TrialType,Score,BlockTrial,stimulus,button_labels,exp,subjectId,date
True,fullscreen,0,2236,0.0-0.0,0.0,1.0,,,,,,,,,,,,,,,,,,,,,,,,,,,,,,,,HRV,HRV_0249,2022-11-30 19:50:28
,wl-check-fps,1,7237,0.0-1.0,0.0,2.0,"[2778.6, 2793.5, 2810.4, 2826.8, 2843.6, 2860.7, 2877.4, 2893.9, 2911.1, 2927.3, 2943.9, 2960.4, 2977.2, 2993.8, 3010.5, 3027.1, 3043.8, 3060.5, 3077.1, 3093.7, 3110.3, 3127.2, 3143.8, 3160.5, 3177, 3193.6, 3210.3, 3227, 3243.5, 3260.3, 3277, 3293.6, 3310.3, 3326.9, 3343.5, 3360.2, 3376.8, 3393.6, 3410.2, 3426.9, 3443.6, 3460.3, 3476.9, 3493.6, 3510.2, 3526.9, 3543.6, 3560.4, 3577, 3593.6, 3610.2, 3626.9, 3643.6, 3660.4, 3676.9, 3693.7, 3710.4, 3727.3, 3743.9, 3760.4, 3777.1, 3793.8, 3810.4, 3827, 3843.6, 3860.2, 3877.1, 3894, 3910.8, 3927.2, 3943.6, 3960.4, 3977.1, 3993.9, 4010.5, 4027, 4043.7, 4060.2, 4076.9, 4093.7, 4110.6, 4127.3, 4143.7, 4160.3, 4177.2, 4193.8, 4210.6, 4227.3, 4244, 4260.6, 4277.3, 4294.2, 4310.7, 4327.3, 4344, 4360.6, 4377.2, 4393.6, 4410.3, 4427, 4443.7, 4460.3, 4477, 4493.5, 4510.3, 4526.9, 4543.7, 4560.6, 4576.8, 4593.6, 4610.2, 4626.8, 4643.5, 4660.2, 4677, 4693.6, 4710.5, 4727, 4743.7, 4760.3, 4777, 4793.8, 4810.3, 4827.1, 4843.7, 4860.3, 4876.9, 4893.6, 4910.2, 4926.9, 4944.1, 4960.3, 4976.9, 4993.9, 5010.5, 5026.9, 5043.5, 5060.3, 5077.3, 5093.7, 5110.5, 5127, 5143.7, 5160.3, 5176.9, 5193.5, 5210.2, 5226.9, 5243.6, 5260.2, 5276.9, 5293.6, 5310.2, 5326.9, 5343.6, 5360.2, 5376.8, 5393.5, 5410.2, 5426.9, 5443.5, 5460.2, 5476.8, 5493.5, 5510.2, 5526.8, 5543.6, 5560.4, 5576.9, 5593.6, 5610.2, 5626.9, 5643.7, 5660.3, 5676.9, 5693.6, 5710.3, 5727, 5743.6, 5760.3, 5776.9, 5793.6, 5810.4, 5827, 5843.6, 5860.4, 5877.1, 5893.8, 5910.4, 5927, 5943.7, 5960.3, 5977, 5993.8, 6010.3, 6027, 6043.7, 6060.3, 6077.1, 6093.7, 6110.3, 6127, 6143.7, 6160.5, 6177.1, 6193.8, 6210.4, 6227.1, 6243.7, 6260.4, 6277.1, 6293.7, 6310.3, 6327, 6343.7, 6360.4, 6377.1, 6393.7, 6410.4, 6426.9, 6443.6, 6460.3, 6476.9, 6493.6, 6510.2, 6526.9, 6543.5, 6560.4, 6576.9, 6593.7, 6610.2, 6626.9, 6643.6, 6660.3, 6676.9, 6693.6, 6710.3, 6727, 6743.6, 6760.2, 6776.9, 6793.6, 6810.3, 6826.9, 6843.6, 6860.3, 6877, 6894, 6910.8, 6927.3, 6943.8, 6960.4, 6977.3, 6993.8, 7010.3, 7027, 7044.1, 7060.8, 7077.1, 7093.7, 7110.4, 7127, 7143.7, 7160.3, 7177, 7193.6, 7210.4, 7227, 7243.7, 7260.3, 7277, 7293.7, 7310.3, 7326.9, 7343.6, 7360.3, 7377, 7393.7, 7410.4, 7427, 7443.7, 7460.3, 7477, 7493.6, 7510.3, 7527, 7543.7, 7560.4, 7577, 7593.6, 7610.3, 7627.2, 7643.7, 7660.4, 7677.2, 7693.7, 7710.3, 7727.1, 7743.6, 7760.2]","[0.6, 14.9, 16.9, 16.4, 16.8, 17.1, 16.7, 16.5, 17.2, 16.2, 16.6, 16.5, 16.8, 16.6, 16.7, 16.6, 16.7, 16.7, 16.6, 16.6, 16.6, 16.9, 16.6, 16.7, 16.5, 16.6, 16.7, 16.7, 16.5, 16.8, 16.7, 16.6, 16.7, 16.6, 16.6, 16.7, 16.6, 16.8, 16.6, 16.7, 16.7, 16.7, 16.6, 16.7, 16.6, 16.7, 16.7, 16.8, 16.6, 16.6, 16.6, 16.7, 16.7, 16.8, 16.5, 16.8, 16.7, 16.9, 16.6, 16.5, 16.7, 16.7, 16.6, 16.6, 16.6, 16.6, 16.9, 16.9, 16.8, 16.4, 16.4, 16.8, 16.7, 16.8, 16.6, 16.5, 16.7, 16.5, 16.7, 16.8, 16.9, 16.7, 16.4, 16.6, 16.9, 16.6, 16.8, 16.7, 16.7, 16.6, 16.7, 16.9, 16.5, 16.6, 16.7, 16.6, 16.6, 16.4, 16.7, 16.7, 16.7, 16.6, 16.7, 16.5, 16.8, 16.6, 16.8, 16.9, 16.2, 16.8, 16.6, 16.6, 16.7, 16.7, 16.8, 16.6, 16.9, 16.5, 16.7, 16.6, 16.7, 16.8, 16.5, 16.8, 16.6, 16.6, 16.6, 16.7, 16.6, 16.7, 17.2, 16.2, 16.6, 17, 16.6, 16.4, 16.6, 16.8, 17, 16.4, 16.8, 16.5, 16.7, 16.6, 16.6, 16.6, 16.7, 16.7, 16.7, 16.6, 16.7, 16.7, 16.6, 16.7, 16.7, 16.6, 16.6, 16.7, 16.7, 16.7, 16.6, 16.7, 16.6, 16.7, 16.7, 16.6, 16.8, 16.8, 16.5, 16.7, 16.6, 16.7, 16.8, 16.6, 16.6, 16.7, 16.7, 16.7, 16.6, 16.7, 16.6, 16.7, 16.8, 16.6, 16.6, 16.8, 16.7, 16.7, 16.6, 16.6, 16.7, 16.6, 16.7, 16.8, 16.5, 16.7, 16.7, 16.6, 16.8, 16.6, 16.6, 16.7, 16.7, 16.8, 16.6, 16.7, 16.6, 16.7, 16.6, 16.7, 16.7, 16.6, 16.6, 16.7, 16.7, 16.7, 16.7, 16.6, 16.7, 16.5, 16.7, 16.7, 16.6, 16.7, 16.6, 16.7, 16.6, 16.9, 16.5, 16.8, 16.5, 16.7, 16.7, 16.7, 16.6, 16.7, 16.7, 16.7, 16.6, 16.6, 16.7, 16.7, 16.7, 16.6, 16.7, 16.7, 16.7, 17, 16.8, 16.5, 16.5, 16.6, 16.9, 16.5, 16.5, 16.7, 17.1, 16.7, 16.3, 16.6, 16.7, 16.6, 16.7, 16.6, 16.7, 16.6, 16.8, 16.6, 16.7, 16.6, 16.7, 16.7, 16.6, 16.6, 16.7, 16.7, 16.7, 16.7, 16.7, 16.6, 16.7, 16.6, 16.7, 16.6, 16.7, 16.7, 16.7, 16.7, 16.6, 16.6, 16.7, 16.9, 16.5, 16.7, 16.8, 16.5, 16.6, 16.8, 16.5, 16.6]",60.0,60.0,60.0,4998.9,[],,,,,,,,,,,,,,,,,,,,,,,,,HRV,HRV_0249,2022-11-30 19:50:28
,wl-html-keyboard-response,2,34127,0.0-2.0-0.0,0.0,3.0,,,,,,,,24866.79999998212,0.0,0,,,,,,,,,,,,,,,,,,,,,,HRV,HRV_0249,2022-11-30 19:50:28
,wl-rdm,3,40516,0.0-3.0-0.0,0.0,4.0,,,,,,,[],,,,0.0,0.0,87.9,0.0,u,0.0,True,810.5,49.0,60.0,40.0,False,,3000.0,[],"[960, 540]",ColorTask_Demo,,,,,HRV,HRV_0249,2022-11-30 19:50:28
,wl-rdm,4,45217,0.0-3.0-1.0,0.0,5.0,,,,,,,[],,,,0.0,0.0,87.9,1.0,i,1.0,True,628.7000000178814,38.0,60.0,40.0,False,,2000.0,[],"[960, 540]",ColorTask_Demo,,,,,HRV,HRV_0249,2022-11-30 19:50:28
,wl-html-keyboard-response,5,51200,0.0-3.0-2.0,0.0,6.0,,,,,,,,3959.5,0.0,1,,,,,,,,,,,,,,,,,,,,,,HRV,HRV_0249,2022-11-30 19:50:28
,wl-html-keyboard-response,6,64901,0.0-4.0-0.0,0.0,7.0,,,,,,,,11690.40000000596,0.0,0,,,,,,,,,,,,,,,,,,,,,,HRV,HRV_0249,2022-11-30 19:50:28
,wl-html-keyboard-response,7,87740,0.0-5.0-0.0,0.0,8.0,,,,,,,,20830.29999998212,0.0,0,,,,,,,,,,,,,,,,,,,,,,HRV,HRV_0249,2022-11-30 19:50:28
,wl-rdm,8,90000,0.0-6.0-0.0,0.0,9.0,,,,,,,[],,,,,,56.4,1.0,i,1.0,True,970.2000000178814,59.0,60.0,40.0,False,,213.33413525303453,[],"[960, 540]",ColorTask,1.0,1.0,,,HRV,HRV_0249,2022-11-30 19:50:28
,wl-rdm,9,92733,0.0-6.1-0.1,0.0,10.0,,,,,,,[],,,,,,50.0,1.0,i,1.0,True,1256.0,76.0,60.0,40.0,False,,386.3684211264632,[],"[960, 540]",ColorTask,2.0,2.0,,,HRV,HRV_0249,2022-11-30 19:50:28
,wl-rdm,10,95383,0.0-6.2-0.2,0.0,11.0,,,,,,,[],,,,,,53.2,1.0,i,1.0,True,1270.2999999821186,77.0,60.0,40.0,False,,285.2164956896451,[],"[960, 540]",ColorTask,3.0,3.0,,,HRV,HRV_0249,2022-11-30 19:50:28
,wl-rdm,11,98083,0.0-6.3-0.3,0.0,12.0,,,,,,,[],,,,,,62.5,0.0,i,1.0,False,1414.300000011921,85.0,60.0,40.0,False,,231.80928370001837,[],"[960, 540]",ColorTask,2.0,4.0,,,HRV,HRV_0249,2022-11-30 19:50:28
,wl-rdm,12,100600,0.0-6.4-0.4,0.0,13.0,,,,,,,[],,,,,,62.5,0.0,u,0.0,True,1185.5999999940395,72.0,60.0,40.0,False,,263.32882775314386,[],"[960, 540]",ColorTask,3.0,5.0,,,HRV,HRV_0249,2022-11-30 19:50:28
,wl-rdm,13,103183,0.0-6.5-0.5,0.0,14.0,,,,,,,[],,,,,,56.4,1.0,i,1.0,True,1261.699999988079,76.0,60.0,40.0,False,,245.1090921528302,[],"[960, 540]",ColorTask,4.0,6.0,,,HRV,HRV_0249,2022-11-30 19:50:28
,wl-rdm,14,105667,0.0-6.6-0.6,0.0,15.0,,,,,,,[],,,,,,87.9,0.0,u,0.0,True,1158.0999999940395,70.0,60.0,40.0,False,,237.25064266653777,[],"[960, 540]",ColorTask,5.0,7.0,,,HRV,HRV_0249,2022-11-30 19:50:28
,wl-rdm,15,107950,0.0-6.7-0.7,0.0,16.0,,,,,,,[],,,,,,73.6,1.0,i,1.0,True,963.4000000059605,58.0,60.0,40.0,False,,236.74929524530455,[],"[960, 540]",ColorTask,6.0,8.0,,,HRV,HRV_0249,2022-11-30 19:50:28
,wl-rdm,16,110067,0.0-6.8-0.8,0.0,17.0,,,,,,,[],,,,,,62.5,1.0,i,1.0,True,791.0999999940395,48.0,60.0,40.0,False,,251.93317223428755,[],"[960, 540]",ColorTask,7.0,9.0,,,HRV,HRV_0249,2022-11-30 19:50:28
,wl-rdm,17,112183,0.0-6.9-0.9,0.0,18.0,,,,,,,[],,,,,,62.5,0.0,i,1.0,False,745.0,45.0,60.0,40.0,False,,299.27586777872847,[],"[960, 540]",ColorTask,6.0,10.0,,,HRV,HRV_0249,2022-11-30 19:50:28
,wl-rdm,18,114334,0.0-6.10-0.10,0.0,19.0,,,,,,,[],,,,,,62.5,0.0,u,0.0,True,879.3999999761581,53.0,60.0,40.0,False,,206.37272772413678,[],"[960, 540]",ColorTask,7.0,11.0,,,HRV,HRV_0249,2022-11-30 19:50:28
,wl-rdm,19,116700,0.0-6.11-0.11,0.0,20.0,,,,,,,[],,,,,,50.0,0.0,i,1.0,False,956.5,58.0,60.0,40.0,False,,320.3330082845966,[],"[960, 540]",ColorTask,6.0,12.0,,,HRV,HRV_0249,2022-11-30 19:50:28
,wl-rdm,20,119017,0.0-6.12-0.12,0.0,21.0,,,,,,,[],,,,,,62.5,0.0,u,0.0,True,893.4000000059605,54.0,60.0,40.0,False,,346.8671459239072,[],"[960, 540]",ColorTask,7.0,13.0,,,HRV,HRV_0249,2022-11-30 19:50:28
,wl-rdm,21,121383,0.0-6.13-0.13,0.0,22.0,,,,,,,[],,,,,,56.4,1.0,i,1.0,True,978.9999999701977,59.0,60.0,40.0,False,,313.3078388373058,[],"[960, 540]",ColorTask,8.0,14.0,,,HRV,HRV_0249,2022-11-30 19:50:28
,wl-rdm,22,123833,0.0-6.14-0.14,0.0,23.0,,,,,,,[],,,,,,73.6,0.0,u,0.0,True,1084.2000000178814,66.0,60.0,40.0,False,,271.5544993191397,[],"[960, 540]",ColorTask,9.0,15.0,,,HRV,HRV_0249,2022-11-30 19:50:28
,wl-rdm,23,126034,0.0-6.15-0.15,0.0,24.0,,,,,,,[],,,,,,73.6,0.0,u,0.0,True,834.5999999940395,51.0,60.0,40.0,False,,294.411408324034,[],"[960, 540]",ColorTask,10.0,16.0,,,HRV,HRV_0249,2022-11-30 19:50:28
,wl-rdm,24,128017,0.0-6.16-0.16,0.0,25.0,,,,,,,[],,,,,,53.2,1.0,i,1.0,True,609.8999999761581,37.0,60.0,40.0,False,,291.99171794141694,[],"[960, 540]",ColorTask,11.0,17.0,,,HRV,HRV_0249,2022-11-30 19:50:28
,wl-rdm,25,130300,0.0-6.17-0.17,0.0,26.0,,,,,,,[],,,,,,53.2,0.0,u,0.0,True,981.4000000059605,59.0,60.0,40.0,False,,219.10615217842738,[],"[960, 540]",ColorTask,12.0,18.0,,,HRV,HRV_0249,2022-11-30 19:50:28
,wl-rdm,26,132217,0.0-6.18-0.18,0.0,27.0,,,,,,,[],,,,,,87.9,1.0,i,1.0,True,586.5,36.0,60.0,40.0,False,,241.9909518344886,[],"[960, 540]",ColorTask,13.0,19.0,,,HRV,HRV_0249,2022-11-30 19:50:28
,wl-rdm,27,134267,0.0-6.19-0.19,0.0,28.0,,,,,,,[],,,,,,50.0,0.0,i,1.0,False,690.2999999821186,42.0,60.0,40.0,False,,290.0676035673216,[],"[960, 540]",ColorTask,12.0,20.0,,,HRV,HRV_0249,2022-11-30 19:50:28
,wl-rdm,28,136350,0.0-6.20-0.20,0.0,29.0,,,,,,,[],,,,,,87.9,0.0,u,0.0,True,737.8000000119209,45.0,60.0,40.0,False,,258.78124643784804,[],"[960, 540]",ColorTask,13.0,21.0,,,HRV,HRV_0249,2022-11-30 19:50:28
,wl-rdm,29,138434,0.0-6.21-0.21,0.0,30.0,,,,,,,[],,,,,,73.6,0.0,u,0.0,True,674.9999999701977,41.0,60.0,40.0,False,,338.3264677330777,[],"[960, 540]",ColorTask,14.0,22.0,,,HRV,HRV_0249,2022-11-30 19:50:28
,wl-rdm,30,140534,0.0-6.22-0.22,0.0,31.0,,,,,,,[],,,,,,56.4,0.0,i,1.0,False,771.1999999880791,47.0,60.0,40.0,False,,235.70096315656457,[],"[960, 540]",ColorTask,13.0,23.0,,,HRV,HRV_0249,2022-11-30 19:50:28
,wl-rdm,31,142967,0.0-6.23-0.23,0.0,32.0,,,,,,,[],,,,,,73.6,0.0,u,0.0,True,1071.4999999701977,65.0,60.0,40.0,False,,265.5341855778108,[],"[960, 540]",ColorTask,14.0,24.0,,,HRV,HRV_0249,2022-11-30 19:50:28
,wl-rdm,32,145251,0.0-6.24-0.24,0.0,33.0,,,,,,,[],,,,,,87.9,0.0,u,0.0,True,914.6999999880791,55.0,60.0,40.0,False,,302.9650902154127,[],"[960, 540]",ColorTask,15.0,25.0,,,HRV,HRV_0249,2022-11-30 19:50:28
,wl-rdm,33,147834,0.0-6.25-0.25,0.0,34.0,,,,,,,[],,,,,,73.6,0.0,u,0.0,True,1142.3000000417233,69.0,60.0,40.0,False,,358.8367993105194,[],"[960, 540]",ColorTask,16.0,26.0,,,HRV,HRV_0249,2022-11-30 19:50:28
,wl-rdm,34,150068,0.0-6.26-0.26,0.0,35.0,,,,,,,[],,,,,,62.5,0.0,i,1.0,False,914.9000000059605,55.0,60.0,40.0,False,,254.19828636989183,[],"[960, 540]",ColorTask,15.0,27.0,,,HRV,HRV_0249,2022-11-30 19:50:28
,wl-rdm,35,152135,0.0-6.27-0.27,0.0,36.0,,,,,,,[],,,,,,87.9,1.0,i,1.0,True,604.7999999821186,37.0,60.0,40.0,False,,367.8325749547081,[],"[960, 540]",ColorTask,16.0,28.0,,,HRV,HRV_0249,2022-11-30 19:50:28
,wl-rdm,36,154368,0.0-6.28-0.28,0.0,37.0,,,,,,,[],,,,,,62.5,0.0,i,1.0,False,894.6999999880791,54.0,60.0,40.0,False,,256.6514989611864,[],"[960, 540]",ColorTask,15.0,29.0,,,HRV,HRV_0249,2022-11-30 19:50:28
,wl-rdm,37,156768,0.0-6.29-0.29,0.0,38.0,,,,,,,[],,,,,,53.2,0.0,i,1.0,False,1111.199999988079,67.0,60.0,40.0,False,,207.18833678716584,[],"[960, 540]",ColorTask,14.0,30.0,,,HRV,HRV_0249,2022-11-30 19:50:28
,wl-rdm,38,159118,0.0-6.30-0.30,0.0,39.0,,,,,,,[],,,,,,73.6,0.0,u,0.0,True,980.0999999940395,59.0,60.0,40.0,False,,284.2238866088724,[],"[960, 540]",ColorTask,15.0,31.0,,,HRV,HRV_0249,2022-11-30 19:50:28
,wl-rdm,39,161468,0.0-6.31-0.31,0.0,40.0,,,,,,,[],,,,,,56.4,1.0,i,1.0,True,940.5,57.0,60.0,40.0,False,,317.3969058601755,[],"[960, 540]",ColorTask,16.0,32.0,,,HRV,HRV_0249,2022-11-30 19:50:28
,wl-rdm,40,163901,0.0-6.32-0.32,0.0,41.0,,,,,,,[],,,,,,56.4,0.0,u,0.0,True,1137.800000011921,69.0,60.0,40.0,False,,227.59933468349857,[],"[960, 540]",ColorTask,17.0,33.0,,,HRV,HRV_0249,2022-11-30 19:50:28
,wl-rdm,41,165968,0.0-6.33-0.33,0.0,42.0,,,,,,,[],,,,,,87.9,1.0,i,1.0,True,776.4999999701977,47.0,60.0,40.0,False,,223.16014884028425,[],"[960, 540]",ColorTask,18.0,34.0,,,HRV,HRV_0249,2022-11-30 19:50:28
,wl-rdm,42,168051,0.0-6.34-0.34,0.0,43.0,,,,,,,[],,,,,,87.9,0.0,u,0.0,True,739.8000000119209,45.0,60.0,40.0,False,,266.5687322828075,[],"[960, 540]",ColorTask,19.0,35.0,,,HRV,HRV_0249,2022-11-30 19:50:28
,wl-rdm,43,170401,0.0-6.35-0.35,0.0,44.0,,,,,,,[],,,,,,50.0,0.0,i,1.0,False,1009.5,61.0,60.0,40.0,False,,256.8096872435595,[],"[960, 540]",ColorTask,18.0,36.0,,,HRV,HRV_0249,2022-11-30 19:50:28
,wl-rdm,44,172902,0.0-6.36-0.36,0.0,45.0,,,,,,,[],,,,,,62.5,0.0,u,0.0,True,1096.0999999940395,66.0,60.0,40.0,False,,346.20129085609335,[],"[960, 540]",ColorTask,19.0,37.0,,,HRV,HRV_0249,2022-11-30 19:50:28
,wl-rdm,45,174868,0.0-6.37-0.37,0.0,46.0,,,,,,,[],,,,,,73.6,1.0,i,1.0,True,665.4000000059605,40.0,60.0,40.0,False,,231.58991142470808,[],"[960, 540]",ColorTask,20.0,38.0,,,HRV,HRV_0249,2022-11-30 19:50:28
,wl-rdm,46,177252,0.0-6.38-0.38,0.0,47.0,,,,,,,[],,,,,,50.0,1.0,i,1.0,True,998.1999999880791,60.0,60.0,40.0,False,,320.3125932571802,[],"[960, 540]",ColorTask,21.0,39.0,,,HRV,HRV_0249,2022-11-30 19:50:28
,wl-rdm,47,179635,0.0-6.39-0.39,0.0,48.0,,,,,,,[],,,,,,53.2,1.0,i,1.0,True,1051.699999988079,64.0,60.0,40.0,False,,247.62200649249021,[],"[960, 540]",ColorTask,22.0,40.0,,,HRV,HRV_0249,2022-11-30 19:50:28
,wl-rdm,48,181768,0.0-6.40-0.40,0.0,49.0,,,,,,,[],,,,,,73.6,0.0,u,0.0,True,826.5,50.0,60.0,40.0,False,,240.99862474651704,[],"[960, 540]",ColorTask,23.0,41.0,,,HRV,HRV_0249,2022-11-30 19:50:28
,wl-rdm,49,184002,0.0-6.41-0.41,0.0,50.0,,,,,,,[],,,,,,73.6,1.0,i,1.0,True,866.3000000119209,52.0,60.0,40.0,False,,311.42440618703927,[],"[960, 540]",ColorTask,24.0,42.0,,,HRV,HRV_0249,2022-11-30 19:50:28
,wl-rdm,50,186102,0.0-6.42-0.42,0.0,51.0,,,,,,,[],,,,,,87.9,0.0,u,0.0,True,654.6999999880791,40.0,60.0,40.0,False,,356.50569656877735,[],"[960, 540]",ColorTask,25.0,43.0,,,HRV,HRV_0249,2022-11-30 19:50:28
,wl-rdm,51,188269,0.0-6.43-0.43,0.0,52.0,,,,,,,[],,,,,,62.5,1.0,i,1.0,True,890.2999999821186,54.0,60.0,40.0,False,,202.45695995124677,[],"[960, 540]",ColorTask,26.0,44.0,,,HRV,HRV_0249,2022-11-30 19:50:28
,wl-rdm,52,190602,0.0-6.44-0.44,0.0,53.0,,,,,,,[],,,,,,62.5,1.0,i,1.0,True,1052.2000000178814,64.0,60.0,40.0,False,,213.45305857351386,[],"[960, 540]",ColorTask,27.0,45.0,,,HRV,HRV_0249,2022-11-30 19:50:28
,wl-rdm,53,192952,0.0-6.45-0.45,0.0,54.0,,,,,,,[],,,,,,50.0,0.0,i,1.0,False,1053.3999999761581,64.0,60.0,40.0,False,,214.91882561079174,[],"[960, 540]",ColorTask,26.0,46.0,,,HRV,HRV_0249,2022-11-30 19:50:28
,wl-rdm,54,195285,0.0-6.46-0.46,0.0,55.0,,,,,,,[],,,,,,53.2,0.0,i,1.0,False,963.7000000178814,59.0,60.0,40.0,False,,288.8590545495058,[],"[960, 540]",ColorTask,25.0,47.0,,,HRV,HRV_0249,2022-11-30 19:50:28
,wl-rdm,55,197818,0.0-6.47-0.47,0.0,56.0,,,,,,,[],,,,,,50.0,0.0,i,1.0,False,1135.0999999940395,69.0,60.0,40.0,False,,315.5279134882779,[],"[960, 540]",ColorTask,24.0,48.0,,,HRV,HRV_0249,2022-11-30 19:50:28
,wl-rdm,56,201152,0.0-6.48-0.48,0.0,57.0,,,,,,,[],,,,,,50.0,1.0,i,1.0,True,1945.5,117.0,60.0,40.0,False,,306.2028642930352,[],"[960, 540]",ColorTask,25.0,49.0,,,HRV,HRV_0249,2022-11-30 19:50:28
,wl-rdm,57,204036,0.0-6.49-0.49,0.0,58.0,,,,,,,[],,,,,,53.2,0.0,i,1.0,False,1599.0999999940395,96.0,60.0,40.0,False,,202.77331158958467,[],"[960, 540]",ColorTask,24.0,50.0,,,HRV,HRV_0249,2022-11-30 19:50:28
,wl-rdm,58,206652,0.0-6.50-0.50,0.0,59.0,,,,,,,[],,,,,,50.0,1.0,i,1.0,True,1290.3999999761581,78.0,60.0,40.0,False,,246.87931541067042,[],"[960, 540]",ColorTask,25.0,51.0,,,HRV,HRV_0249,2022-11-30 19:50:28
,wl-rdm,59,208768,0.0-6.51-0.51,0.0,60.0,,,,,,,[],,,,,,56.4,1.0,u,0.0,False,810.8000000119209,49.0,60.0,40.0,False,,232.20321373192266,[],"[960, 540]",ColorTask,24.0,52.0,,,HRV,HRV_0249,2022-11-30 19:50:28
,wl-rdm,60,211335,0.0-6.52-0.52,0.0,61.0,,,,,,,[],,,,,,50.0,1.0,i,1.0,True,1245.1000000238419,75.0,60.0,40.0,False,,262.90557752651796,[],"[960, 540]",ColorTask,25.0,53.0,,,HRV,HRV_0249,2022-11-30 19:50:28
,wl-rdm,61,213351,0.0-6.53-0.53,0.0,62.0,,,,,,,[],,,,,,87.9,0.0,u,0.0,True,726.9000000059605,44.0,60.0,40.0,False,,202.3133581818782,[],"[960, 540]",ColorTask,26.0,54.0,,,HRV,HRV_0249,2022-11-30 19:50:28
,wl-rdm,62,215535,0.0-6.54-0.54,0.0,63.0,,,,,,,[],,,,,,53.2,1.0,i,1.0,True,894.0000000298023,54.0,60.0,40.0,False,,227.80713151651767,[],"[960, 540]",ColorTask,27.0,55.0,,,HRV,HRV_0249,2022-11-30 19:50:28
,wl-rdm,63,217651,0.0-6.55-0.55,0.0,64.0,,,,,,,[],,,,,,87.9,0.0,u,0.0,True,731.5999999940395,44.0,60.0,40.0,False,,310.69458412100846,[],"[960, 540]",ColorTask,28.0,56.0,,,HRV,HRV_0249,2022-11-30 19:50:28
,wl-rdm,64,219902,0.0-6.56-0.56,0.0,65.0,,,,,,,[],,,,,,73.6,1.0,i,1.0,True,803.4000000059605,49.0,60.0,40.0,False,,380.05217068181844,[],"[960, 540]",ColorTask,29.0,57.0,,,HRV,HRV_0249,2022-11-30 19:50:28
,wl-rdm,65,222502,0.0-6.57-0.57,0.0,66.0,,,,,,,[],,,,,,56.4,0.0,i,1.0,False,1188.2999999821186,72.0,60.0,40.0,False,,340.67610657887667,[],"[960, 540]",ColorTask,28.0,58.0,,,HRV,HRV_0249,2022-11-30 19:50:28
,wl-rdm,66,225019,0.0-6.58-0.58,0.0,67.0,,,,,,,[],,,,,,62.5,1.0,i,1.0,True,1204.300000011921,73.0,60.0,40.0,False,,222.54690688892958,[],"[960, 540]",ColorTask,29.0,59.0,,,HRV,HRV_0249,2022-11-30 19:50:28
,wl-rdm,67,227319,0.0-6.59-0.59,0.0,68.0,,,,,,,[],,,,,,87.9,1.0,i,1.0,True,845.4000000059605,51.0,60.0,40.0,False,,369.3369360983075,[],"[960, 540]",ColorTask,30.0,60.0,,,HRV,HRV_0249,2022-11-30 19:50:28
,wl-rdm,68,230185,0.0-6.60-0.60,0.0,69.0,,,,,,,[],,,,,,50.0,1.0,i,1.0,True,1408.300000011921,85.0,60.0,40.0,False,,385.3926267163614,[],"[960, 540]",ColorTask,31.0,61.0,,,HRV,HRV_0249,2022-11-30 19:50:28
,wl-rdm,69,232419,0.0-6.61-0.61,0.0,70.0,,,,,,,[],,,,,,62.5,1.0,i,1.0,True,799.1999999880791,48.0,60.0,40.0,False,,355.54312125690325,[],"[960, 540]",ColorTask,32.0,62.0,,,HRV,HRV_0249,2022-11-30 19:50:28
,wl-rdm,70,235019,0.0-6.62-0.62,0.0,71.0,,,,,,,[],,,,,,53.2,0.0,u,0.0,True,1108.8999999761581,67.0,60.0,40.0,False,,383.3714948907867,[],"[960, 540]",ColorTask,33.0,63.0,,,HRV,HRV_0249,2022-11-30 19:50:28
,wl-rdm,71,237635,0.0-6.63-0.63,0.0,72.0,,,,,,,[],,,,,,53.2,0.0,u,0.0,True,1298.5999999940395,78.0,60.0,40.0,False,,237.40506100198417,[],"[960, 540]",ColorTask,34.0,64.0,,,HRV,HRV_0249,2022-11-30 19:50:28
,wl-rdm,72,239952,0.0-6.64-0.64,0.0,73.0,,,,,,,[],,,,,,62.5,1.0,i,1.0,True,1059.0,64.0,60.0,40.0,False,,200.08420004603,[],"[960, 540]",ColorTask,35.0,65.0,,,HRV,HRV_0249,2022-11-30 19:50:28
,wl-rdm,73,242936,0.0-6.65-0.65,0.0,74.0,,,,,,,[],,,,,,56.4,0.0,u,0.0,True,1561.4000000357628,94.0,60.0,40.0,False,,337.0244489659358,[],"[960, 540]",ColorTask,36.0,66.0,,,HRV,HRV_0249,2022-11-30 19:50:28
,wl-rdm,74,245902,0.0-6.66-0.66,0.0,75.0,,,,,,,[],,,,,,56.4,0.0,i,1.0,False,1504.0000000298023,91.0,60.0,40.0,False,,386.13115712485234,[],"[960, 540]",ColorTask,35.0,67.0,,,HRV,HRV_0249,2022-11-30 19:50:28
,wl-rdm,75,248219,0.0-6.67-0.67,0.0,76.0,,,,,,,[],,,,,,56.4,0.0,i,1.0,False,999.0999999940395,60.0,60.0,40.0,False,,245.31176071041168,[],"[960, 540]",ColorTask,34.0,68.0,,,HRV,HRV_0249,2022-11-30 19:50:28
,wl-rdm,76,250786,0.0-6.68-0.68,0.0,77.0,,,,,,,[],,,,,,56.4,0.0,i,1.0,False,1151.5999999940395,70.0,60.0,40.0,False,,346.2412629375042,[],"[960, 540]",ColorTask,33.0,69.0,,,HRV,HRV_0249,2022-11-30 19:50:28
,wl-rdm,77,254052,0.0-6.69-0.69,0.0,78.0,,,,,,,[],,,,,,56.4,1.0,i,1.0,True,1897.5999999940395,114.0,60.0,40.0,False,,289.8668273079319,[],"[960, 540]",ColorTask,34.0,70.0,,,HRV,HRV_0249,2022-11-30 19:50:28
,wl-rdm,78,256252,0.0-6.70-0.70,0.0,79.0,,,,,,,[],,,,,,73.6,1.0,i,1.0,True,881.7999999821186,53.0,60.0,40.0,False,,248.411994005969,[],"[960, 540]",ColorTask,35.0,71.0,,,HRV,HRV_0249,2022-11-30 19:50:28
,wl-rdm,79,259019,0.0-6.71-0.71,0.0,80.0,,,,,,,[],,,,,,50.0,1.0,i,1.0,True,1424.300000011921,86.0,60.0,40.0,False,,260.69125709058943,[],"[960, 540]",ColorTask,36.0,72.0,,,HRV,HRV_0249,2022-11-30 19:50:28
,wl-rdm,80,261436,0.0-6.72-0.72,0.0,81.0,,,,,,,[],,,,,,73.6,0.0,u,0.0,True,1048.1000000238419,63.0,60.0,40.0,False,,296.1557164225294,[],"[960, 540]",ColorTask,37.0,73.0,,,HRV,HRV_0249,2022-11-30 19:50:28
,wl-rdm,81,263736,0.0-6.73-0.73,0.0,82.0,,,,,,,[],,,,,,62.5,1.0,i,1.0,True,1010.7000000178814,61.0,60.0,40.0,False,,202.18508447089397,[],"[960, 540]",ColorTask,38.0,74.0,,,HRV,HRV_0249,2022-11-30 19:50:28
,wl-rdm,82,266120,0.0-6.74-0.74,0.0,83.0,,,,,,,[],,,,,,73.6,1.0,i,1.0,True,1061.4000000357628,64.0,60.0,40.0,False,,233.49939037266256,[],"[960, 540]",ColorTask,39.0,75.0,,,HRV,HRV_0249,2022-11-30 19:50:28
,wl-rdm,83,268253,0.0-6.75-0.75,0.0,84.0,,,,,,,[],,,,,,73.6,1.0,i,1.0,True,664.5999999940395,40.0,60.0,40.0,False,,397.07632211909333,[],"[960, 540]",ColorTask,40.0,76.0,,,HRV,HRV_0249,2022-11-30 19:50:28
,wl-rdm,84,270187,0.0-6.76-0.76,0.0,85.0,,,,,,,[],,,,,,53.2,1.0,i,1.0,True,635.3999999761581,39.0,60.0,40.0,False,,208.70289899761607,[],"[960, 540]",ColorTask,41.0,77.0,,,HRV,HRV_0249,2022-11-30 19:50:28
,wl-rdm,85,272204,0.0-6.77-0.77,0.0,86.0,,,,,,,[],,,,,,87.9,1.0,i,1.0,True,699.3000000119209,42.0,60.0,40.0,False,,234.69226498986083,[],"[960, 540]",ColorTask,42.0,78.0,,,HRV,HRV_0249,2022-11-30 19:50:28
,wl-rdm,86,274287,0.0-6.78-0.78,0.0,87.0,,,,,,,[],,,,,,73.6,0.0,u,0.0,True,671.4000000059605,41.0,60.0,40.0,False,,314.2437028368806,[],"[960, 540]",ColorTask,43.0,79.0,,,HRV,HRV_0249,2022-11-30 19:50:28
,wl-rdm,87,276554,0.0-6.79-0.79,0.0,88.0,,,,,,,[],,,,,,73.6,1.0,i,1.0,True,951.8000000119209,58.0,60.0,40.0,False,,217.20093351073817,[],"[960, 540]",ColorTask,44.0,80.0,,,HRV,HRV_0249,2022-11-30 19:50:28
,wl-rdm,88,278754,0.0-6.80-0.80,0.0,89.0,,,,,,,[],,,,,,73.6,1.0,i,1.0,True,886.3000000119209,54.0,60.0,40.0,False,,227.3138977069476,[],"[960, 540]",ColorTask,45.0,81.0,,,HRV,HRV_0249,2022-11-30 19:50:28
,wl-rdm,89,280987,0.0-6.81-0.81,0.0,90.0,,,,,,,[],,,,,,87.9,0.0,u,0.0,True,835.2999999821186,51.0,60.0,40.0,False,,312.3762330304563,[],"[960, 540]",ColorTask,46.0,82.0,,,HRV,HRV_0249,2022-11-30 19:50:28
,wl-rdm,90,283053,0.0-6.82-0.82,0.0,91.0,,,,,,,[],,,,,,53.2,1.0,i,1.0,True,705.9000000059605,43.0,60.0,40.0,False,,274.2003409462611,[],"[960, 540]",ColorTask,47.0,83.0,,,HRV,HRV_0249,2022-11-30 19:50:28
,wl-rdm,91,285004,0.0-6.83-0.83,0.0,92.0,,,,,,,[],,,,,,87.9,1.0,i,1.0,True,632.2999999821186,38.0,60.0,40.0,False,,248.96206996609448,[],"[960, 540]",ColorTask,48.0,84.0,,,HRV,HRV_0249,2022-11-30 19:50:28
,wl-rdm,92,287387,0.0-6.84-0.84,0.0,93.0,,,,,,,[],,,,,,50.0,0.0,i,1.0,False,1115.6000000238419,67.0,60.0,40.0,False,,208.42219006995887,[],"[960, 540]",ColorTask,47.0,85.0,,,HRV,HRV_0249,2022-11-30 19:50:28
,wl-rdm,93,290171,0.0-6.85-0.85,0.0,94.0,,,,,,,[],,,,,,62.5,1.0,i,1.0,True,1418.5000000298023,86.0,60.0,40.0,False,,298.8756493289171,[],"[960, 540]",ColorTask,48.0,86.0,,,HRV,HRV_0249,2022-11-30 19:50:28
,wl-rdm,94,292987,0.0-6.86-0.86,0.0,95.0,,,,,,,[],,,,,,50.0,0.0,i,1.0,False,1385.300000011921,84.0,60.0,40.0,False,,347.09446157903153,[],"[960, 540]",ColorTask,47.0,87.0,,,HRV,HRV_0249,2022-11-30 19:50:28
,wl-rdm,95,295837,0.0-6.87-0.87,0.0,96.0,,,,,,,[],,,,,,53.2,1.0,i,1.0,True,1472.5,89.0,60.0,40.0,False,,285.1909375397658,[],"[960, 540]",ColorTask,48.0,88.0,,,HRV,HRV_0249,2022-11-30 19:50:28
,wl-rdm,96,297921,0.0-6.88-0.88,0.0,97.0,,,,,,,[],,,,,,53.2,0.0,u,0.0,True,718.7999999821186,44.0,60.0,40.0,False,,283.70515939712436,[],"[960, 540]",ColorTask,49.0,89.0,,,HRV,HRV_0249,2022-11-30 19:50:28
,wl-rdm,97,300371,0.0-6.89-0.89,0.0,98.0,,,,,,,[],,,,,,56.4,0.0,u,0.0,True,985.1999999880791,60.0,60.0,40.0,False,,393.7647150230496,[],"[960, 540]",ColorTask,50.0,90.0,,,HRV,HRV_0249,2022-11-30 19:50:28
,wl-rdm,98,302787,0.0-6.90-0.90,0.0,99.0,,,,,,,[],,,,,,62.5,1.0,i,1.0,True,1082.5999999940395,65.0,60.0,40.0,False,,264.6206717114691,[],"[960, 540]",ColorTask,51.0,91.0,,,HRV,HRV_0249,2022-11-30 19:50:28
,wl-rdm,99,306154,0.0-6.91-0.91,0.0,100.0,,,,,,,[],,,,,,50.0,1.0,u,0.0,False,2026.0999999940395,122.0,60.0,40.0,False,,251.48350126541914,[],"[960, 540]",ColorTask,50.0,92.0,,,HRV,HRV_0249,2022-11-30 19:50:28
,wl-rdm,100,309004,0.0-6.92-0.92,0.0,101.0,,,,,,,[],,,,,,50.0,1.0,u,0.0,False,1565.5,94.0,60.0,40.0,False,,201.8426180697985,[],"[960, 540]",ColorTask,49.0,93.0,,,HRV,HRV_0249,2022-11-30 19:50:28
,wl-rdm,101,311404,0.0-6.93-0.93,0.0,102.0,,,,,,,[],,,,,,53.2,1.0,i,1.0,True,1091.5,66.0,60.0,40.0,False,,232.0540152818084,[],"[960, 540]",ColorTask,50.0,94.0,,,HRV,HRV_0249,2022-11-30 19:50:28
,wl-rdm,102,314188,0.0-6.94-0.94,0.0,103.0,,,,,,,[],,,,,,56.4,1.0,u,0.0,False,1465.800000011921,88.0,60.0,40.0,False,,247.2884702344011,[],"[960, 540]",ColorTask,49.0,95.0,,,HRV,HRV_0249,2022-11-30 19:50:28
,wl-rdm,103,316537,0.0-6.95-0.95,0.0,104.0,,,,,,,[],,,,,,87.9,0.0,u,0.0,True,909.8999999761581,55.0,60.0,40.0,False,,355.38833885917023,[],"[960, 540]",ColorTask,50.0,96.0,,,HRV,HRV_0249,2022-11-30 19:50:28
,wl-rdm,104,319888,0.0-6.96-0.96,0.0,105.0,,,,,,,[],,,,,,53.2,0.0,i,1.0,False,2060.199999988079,124.0,60.0,40.0,False,,230.78214802084926,[],"[960, 540]",ColorTask,49.0,97.0,,,HRV,HRV_0249,2022-11-30 19:50:28
,wl-rdm,105,322954,0.0-6.97-0.97,0.0,106.0,,,,,,,[],,,,,,53.2,0.0,i,1.0,False,1709.699999988079,103.0,60.0,40.0,False,,282.81624312734834,[],"[960, 540]",ColorTask,48.0,98.0,,,HRV,HRV_0249,2022-11-30 19:50:28
,wl-rdm,106,325971,0.0-6.98-0.98,0.0,107.0,,,,,,,[],,,,,,56.4,1.0,i,1.0,True,1623.4000000059605,98.0,60.0,40.0,False,,330.1316111298789,[],"[960, 540]",ColorTask,49.0,99.0,,,HRV,HRV_0249,2022-11-30 19:50:28
,wl-rdm,107,328937,0.0-6.99-0.99,0.0,108.0,,,,,,,[],,,,,,53.2,1.0,i,1.0,True,1549.7000000178814,93.0,60.0,40.0,False,,364.5628924951975,[],"[960, 540]",ColorTask,50.0,100.0,,,HRV,HRV_0249,2022-11-30 19:50:28
,wl-rdm,108,331821,0.0-6.100-0.100,0.0,109.0,,,,,,,[],,,,,,56.4,0.0,u,0.0,True,1529.7999999821186,92.0,60.0,40.0,False,,283.990915339514,[],"[960, 540]",ColorTask,51.0,101.0,,,HRV,HRV_0249,2022-11-30 19:50:28
,wl-rdm,109,334654,0.0-6.101-0.101,0.0,110.0,,,,,,,[],,,,,,62.5,0.0,u,0.0,True,1522.4000000059605,92.0,60.0,40.0,False,,224.62973694214287,[],"[960, 540]",ColorTask,52.0,102.0,,,HRV,HRV_0249,2022-11-30 19:50:28
,wl-rdm,110,336921,0.0-6.102-0.102,0.0,111.0,,,,,,,[],,,,,,56.4,1.0,i,1.0,True,876.7000000178814,53.0,60.0,40.0,False,,305.6297007625665,[],"[960, 540]",ColorTask,53.0,103.0,,,HRV,HRV_0249,2022-11-30 19:50:28
,wl-rdm,111,338971,0.0-6.103-0.103,0.0,112.0,,,,,,,[],,,,,,87.9,1.0,i,1.0,True,733.0000000298023,44.0,60.0,40.0,False,,243.7078233809865,[],"[960, 540]",ColorTask,54.0,104.0,,,HRV,HRV_0249,2022-11-30 19:50:28
,wl-rdm,112,341487,0.0-6.104-0.104,0.0,113.0,,,,,,,[],,,,,,50.0,0.0,i,1.0,False,1203.4000000059605,73.0,60.0,40.0,False,,232.6186967641716,[],"[960, 540]",ColorTask,53.0,105.0,,,HRV,HRV_0249,2022-11-30 19:50:28
,wl-rdm,113,343571,0.0-6.105-0.105,0.0,114.0,,,,,,,[],,,,,,87.9,1.0,i,1.0,True,647.8000000119209,39.0,60.0,40.0,False,,375.5978145091724,[],"[960, 540]",ColorTask,54.0,106.0,,,HRV,HRV_0249,2022-11-30 19:50:28
,wl-rdm,114,346221,0.0-6.106-0.106,0.0,115.0,,,,,,,[],,,,,,50.0,0.0,u,0.0,True,1314.300000011921,79.0,60.0,40.0,False,,274.1281870501539,[],"[960, 540]",ColorTask,55.0,107.0,,,HRV,HRV_0249,2022-11-30 19:50:28
,wl-rdm,115,348254,0.0-6.107-0.107,0.0,116.0,,,,,,,[],,,,,,87.9,1.0,i,1.0,True,628.4000000059605,38.0,60.0,40.0,False,,318.65080167612496,[],"[960, 540]",ColorTask,56.0,108.0,,,HRV,HRV_0249,2022-11-30 19:50:28
,wl-html-keyboard-response,116,361252,0.0-7.0-0.0,1.0,117.0,,,,,,,,10987.799999982119,1.0,0,,,,,,,,,,,,,,,,,,,,,,HRV,HRV_0249,2022-11-30 19:50:28
,wl-rdm,117,363638,0.0-8.0-0.0,1.0,118.0,,,,,,,[],,,,,,62.5,1.0,u,0.0,False,945.8000000119209,57.0,60.0,40.0,False,,351.35465018843996,[],"[960, 540]",ColorTask,55.0,1.0,,,HRV,HRV_0249,2022-11-30 19:50:28
,wl-rdm,118,366321,0.0-8.1-0.1,1.0,119.0,,,,,,,[],,,,,,53.2,1.0,i,1.0,True,1334.5999999940395,81.0,60.0,40.0,False,,276.29742365495645,[],"[960, 540]",ColorTask,56.0,2.0,,,HRV,HRV_0249,2022-11-30 19:50:28
,wl-rdm,119,368355,0.0-8.2-0.2,1.0,120.0,,,,,,,[],,,,,,87.9,0.0,u,0.0,True,640.8000000417233,39.0,60.0,40.0,False,,319.5894259879406,[],"[960, 540]",ColorTask,57.0,3.0,,,HRV,HRV_0249,2022-11-30 19:50:28
,wl-rdm,120,370288,0.0-8.3-0.3,1.0,121.0,,,,,,,[],,,,,,50.0,1.0,i,1.0,True,628.4000000059605,38.0,60.0,40.0,False,,227.1069101106537,[],"[960, 540]",ColorTask,58.0,4.0,,,HRV,HRV_0249,2022-11-30 19:50:28
,wl-rdm,121,372288,0.0-8.4-0.4,1.0,122.0,,,,,,,[],,,,,,53.2,0.0,u,0.0,True,677.0999999940395,41.0,60.0,40.0,False,,240.1809034430993,[],"[960, 540]",ColorTask,59.0,5.0,,,HRV,HRV_0249,2022-11-30 19:50:28
,wl-rdm,122,374555,0.0-8.5-0.5,1.0,123.0,,,,,,,[],,,,,,56.4,1.0,u,0.0,False,874.8000000417233,53.0,60.0,40.0,False,,302.4398455112185,[],"[960, 540]",ColorTask,58.0,6.0,,,HRV,HRV_0249,2022-11-30 19:50:28
,wl-rdm,123,376805,0.0-8.6-0.6,1.0,124.0,,,,,,,[],,,,,,50.0,1.0,u,0.0,False,912.8000000119209,55.0,60.0,40.0,False,,274.46245939001074,[],"[960, 540]",ColorTask,57.0,7.0,,,HRV,HRV_0249,2022-11-30 19:50:28
,wl-rdm,124,379038,0.0-8.7-0.7,1.0,125.0,,,,,,,[],,,,,,56.4,1.0,i,1.0,True,928.2000000178814,56.0,60.0,40.0,False,,248.9639957094653,[],"[960, 540]",ColorTask,58.0,8.0,,,HRV,HRV_0249,2022-11-30 19:50:28
,wl-rdm,125,380988,0.0-8.8-0.8,1.0,126.0,,,,,,,[],,,,,,87.9,1.0,i,1.0,True,565.7000000178814,34.0,60.0,40.0,False,,304.6903185515464,[],"[960, 540]",ColorTask,59.0,9.0,,,HRV,HRV_0249,2022-11-30 19:50:28
,wl-rdm,126,383305,0.0-8.9-0.9,1.0,127.0,,,,,,,[],,,,,,56.4,0.0,u,0.0,True,952.5,58.0,60.0,40.0,False,,282.7319250139967,[],"[960, 540]",ColorTask,60.0,10.0,,,HRV,HRV_0249,2022-11-30 19:50:28
,wl-rdm,127,385189,0.0-8.10-0.10,1.0,128.0,,,,,,,[],,,,,,73.6,1.0,i,1.0,True,596.2000000178814,36.0,60.0,40.0,False,,225.81368724165625,[],"[960, 540]",ColorTask,61.0,11.0,,,HRV,HRV_0249,2022-11-30 19:50:28
,wl-rdm,128,387339,0.0-8.11-0.11,1.0,129.0,,,,,,,[],,,,,,87.9,0.0,u,0.0,True,716.9000000059605,43.0,60.0,40.0,False,,355.41446448323666,[],"[960, 540]",ColorTask,62.0,12.0,,,HRV,HRV_0249,2022-11-30 19:50:28
,wl-rdm,129,389688,0.0-8.12-0.12,1.0,130.0,,,,,,,[],,,,,,73.6,0.0,u,0.0,True,985.9000000059605,60.0,60.0,40.0,False,,270.60298766513415,[],"[960, 540]",ColorTask,63.0,13.0,,,HRV,HRV_0249,2022-11-30 19:50:28
,wl-rdm,130,392257,0.0-8.13-0.13,1.0,131.0,,,,,,,[],,,,,,56.4,0.0,u,0.0,True,1171.5999999940395,71.0,60.0,40.0,False,,309.4895906097128,[],"[960, 540]",ColorTask,64.0,14.0,,,HRV,HRV_0249,2022-11-30 19:50:28
,wl-rdm,131,394422,0.0-8.14-0.14,1.0,132.0,,,,,,,[],,,,,,53.2,1.0,i,1.0,True,713.3000000119209,43.0,60.0,40.0,False,,367.0689974049269,[],"[960, 540]",ColorTask,65.0,15.0,,,HRV,HRV_0249,2022-11-30 19:50:28
,wl-rdm,132,396439,0.0-8.15-0.15,1.0,133.0,,,,,,,[],,,,,,87.9,1.0,i,1.0,True,587.0,36.0,60.0,40.0,False,,340.20200886073417,[],"[960, 540]",ColorTask,66.0,16.0,,,HRV,HRV_0249,2022-11-30 19:50:28
,wl-rdm,133,398522,0.0-8.16-0.16,1.0,134.0,,,,,,,[],,,,,,62.5,1.0,i,1.0,True,702.0,43.0,60.0,40.0,False,,306.74163060434165,[],"[960, 540]",ColorTask,67.0,17.0,,,HRV,HRV_0249,2022-11-30 19:50:28
,wl-rdm,134,400856,0.0-8.17-0.17,1.0,135.0,,,,,,,[],,,,,,50.0,0.0,i,1.0,False,1004.0999999940395,61.0,60.0,40.0,False,,242.4579085880536,[],"[960, 540]",ColorTask,66.0,18.0,,,HRV,HRV_0249,2022-11-30 19:50:28
,wl-rdm,135,402956,0.0-8.18-0.18,1.0,136.0,,,,,,,[],,,,,,73.6,0.0,u,0.0,True,668.9000000059605,41.0,60.0,40.0,False,,338.66661756505954,[],"[960, 540]",ColorTask,67.0,19.0,,,HRV,HRV_0249,2022-11-30 19:50:28
,wl-rdm,136,405039,0.0-8.19-0.19,1.0,137.0,,,,,,,[],,,,,,50.0,0.0,i,1.0,False,720.8000000119209,44.0,60.0,40.0,False,,272.97147549231534,[],"[960, 540]",ColorTask,66.0,20.0,,,HRV,HRV_0249,2022-11-30 19:50:28
,wl-rdm,137,407439,0.0-8.20-0.20,1.0,138.0,,,,,,,[],,,,,,62.5,1.0,i,1.0,True,928.9000000059605,56.0,60.0,40.0,False,,392.44651661024994,[],"[960, 540]",ColorTask,67.0,21.0,,,HRV,HRV_0249,2022-11-30 19:50:28
,wl-rdm,138,409589,0.0-8.21-0.21,1.0,139.0,,,,,,,[],,,,,,73.6,0.0,u,0.0,True,736.8000000119209,44.0,60.0,40.0,False,,337.2092942165913,[],"[960, 540]",ColorTask,68.0,22.0,,,HRV,HRV_0249,2022-11-30 19:50:28
,wl-rdm,139,411623,0.0-8.22-0.22,1.0,140.0,,,,,,,[],,,,,,62.5,1.0,i,1.0,True,596.1999999880791,36.0,60.0,40.0,False,,361.57612195123716,[],"[960, 540]",ColorTask,69.0,23.0,,,HRV,HRV_0249,2022-11-30 19:50:28
,wl-rdm,140,413589,0.0-8.23-0.23,1.0,141.0,,,,,,,[],,,,,,73.6,1.0,u,0.0,False,557.0999999940395,34.0,60.0,40.0,False,,318.50155138423014,[],"[960, 540]",ColorTask,68.0,24.0,,,HRV,HRV_0249,2022-11-30 19:50:28
,wl-rdm,141,416123,0.0-8.24-0.24,1.0,142.0,,,,,,,[],,,,,,73.6,0.0,u,0.0,True,1265.5,76.0,60.0,40.0,False,,209.5878533323114,[],"[960, 540]",ColorTask,69.0,25.0,,,HRV,HRV_0249,2022-11-30 19:50:28
,wl-rdm,142,418223,0.0-8.25-0.25,1.0,143.0,,,,,,,[],,,,,,50.0,1.0,i,1.0,True,771.0999999940395,47.0,60.0,40.0,False,,242.28767280302378,[],"[960, 540]",ColorTask,70.0,26.0,,,HRV,HRV_0249,2022-11-30 19:50:28
,wl-rdm,143,421173,0.0-8.26-0.26,1.0,144.0,,,,,,,[],,,,,,56.4,0.0,u,0.0,True,1514.800000011921,91.0,60.0,40.0,False,,357.8006722447981,[],"[960, 540]",ColorTask,71.0,27.0,,,HRV,HRV_0249,2022-11-30 19:50:28
,wl-rdm,144,423306,0.0-8.27-0.27,1.0,145.0,,,,,,,[],,,,,,53.2,1.0,i,1.0,True,842.5,51.0,60.0,40.0,False,,210.60511709534137,[],"[960, 540]",ColorTask,72.0,28.0,,,HRV,HRV_0249,2022-11-30 19:50:28
,wl-rdm,145,425473,0.0-8.28-0.28,1.0,146.0,,,,,,,[],,,,,,62.5,0.0,u,0.0,True,870.2000000178814,53.0,60.0,40.0,False,,209.2712498415062,[],"[960, 540]",ColorTask,73.0,29.0,,,HRV,HRV_0249,2022-11-30 19:50:28
,wl-rdm,146,427573,0.0-8.29-0.29,1.0,147.0,,,,,,,[],,,,,,53.2,1.0,i,1.0,True,647.6000000238419,39.0,60.0,40.0,False,,376.0653095614623,[],"[960, 540]",ColorTask,74.0,30.0,,,HRV,HRV_0249,2022-11-30 19:50:28
,wl-rdm,147,430273,0.0-8.30-0.30,1.0,148.0,,,,,,,[],,,,,,53.2,0.0,u,0.0,True,1386.0,84.0,60.0,40.0,False,,229.73617213688246,[],"[960, 540]",ColorTask,75.0,31.0,,,HRV,HRV_0249,2022-11-30 19:50:28
,wl-rdm,148,432457,0.0-8.31-0.31,1.0,149.0,,,,,,,[],,,,,,56.4,1.0,i,1.0,True,719.7000000178814,44.0,60.0,40.0,False,,378.6136262735433,[],"[960, 540]",ColorTask,76.0,32.0,,,HRV,HRV_0249,2022-11-30 19:50:28
,wl-rdm,149,434606,0.0-8.32-0.32,1.0,150.0,,,,,,,[],,,,,,87.9,0.0,u,0.0,True,704.8000000119209,43.0,60.0,40.0,False,,364.2023394712527,[],"[960, 540]",ColorTask,77.0,33.0,,,HRV,HRV_0249,2022-11-30 19:50:28
,wl-rdm,150,436507,0.0-8.33-0.33,1.0,151.0,,,,,,,[],,,,,,87.9,1.0,i,1.0,True,485.2999999821186,30.0,60.0,40.0,False,,341.3766015174074,[],"[960, 540]",ColorTask,78.0,34.0,,,HRV,HRV_0249,2022-11-30 19:50:28
,wl-rdm,151,438507,0.0-8.34-0.34,1.0,152.0,,,,,,,[],,,,,,50.0,1.0,i,1.0,True,724.8000000417233,44.0,60.0,40.0,False,,211.742845237388,[],"[960, 540]",ColorTask,79.0,35.0,,,HRV,HRV_0249,2022-11-30 19:50:28
,wl-rdm,152,440673,0.0-8.35-0.35,1.0,153.0,,,,,,,[],,,,,,56.4,0.0,u,0.0,True,826.9000000059605,50.0,60.0,40.0,False,,265.5231168113319,[],"[960, 540]",ColorTask,80.0,36.0,,,HRV,HRV_0249,2022-11-30 19:50:28
,wl-rdm,153,443191,0.0-8.36-0.36,1.0,154.0,,,,,,,[],,,,,,50.0,0.0,i,1.0,False,1163.8000000417233,70.0,60.0,40.0,False,,272.80629570852125,[],"[960, 540]",ColorTask,79.0,37.0,,,HRV,HRV_0249,2022-11-30 19:50:28
,wl-rdm,154,445823,0.0-8.37-0.37,1.0,155.0,,,,,,,[],,,,,,50.0,1.0,i,1.0,True,1320.0,80.0,60.0,40.0,False,,236.38128719063977,[],"[960, 540]",ColorTask,80.0,38.0,,,HRV,HRV_0249,2022-11-30 19:50:28
,wl-rdm,155,447740,0.0-8.38-0.38,1.0,156.0,,,,,,,[],,,,,,87.9,0.0,u,0.0,True,591.5999999940395,36.0,60.0,40.0,False,,238.84588315664865,[],"[960, 540]",ColorTask,81.0,39.0,,,HRV,HRV_0249,2022-11-30 19:50:28
,wl-rdm,156,450323,0.0-8.39-0.39,1.0,157.0,,,,,,,[],,,,,,50.0,0.0,u,0.0,True,1299.199999988079,78.0,60.0,40.0,False,,214.12914257188436,[],"[960, 540]",ColorTask,82.0,40.0,,,HRV,HRV_0249,2022-11-30 19:50:28
,wl-rdm,157,452307,0.0-8.40-0.40,1.0,158.0,,,,,,,[],,,,,,73.6,0.0,u,0.0,True,625.5,38.0,60.0,40.0,False,,269.0389801094169,[],"[960, 540]",ColorTask,83.0,41.0,,,HRV,HRV_0249,2022-11-30 19:50:28
,wl-rdm,158,454740,0.0-8.41-0.41,1.0,159.0,,,,,,,[],,,,,,50.0,1.0,i,1.0,True,1123.9000000357628,68.0,60.0,40.0,False,,224.22359203564264,[],"[960, 540]",ColorTask,84.0,42.0,,,HRV,HRV_0249,2022-11-30 19:50:28
,wl-rdm,159,456890,0.0-8.42-0.42,1.0,160.0,,,,,,,[],,,,,,56.4,1.0,i,1.0,True,835.2000000178814,51.0,60.0,40.0,False,,245.25449732142252,[],"[960, 540]",ColorTask,85.0,43.0,,,HRV,HRV_0249,2022-11-30 19:50:28
,wl-rdm,160,458907,0.0-8.43-0.43,1.0,161.0,,,,,,,[],,,,,,73.6,1.0,i,1.0,True,559.5999999940395,34.0,60.0,40.0,False,,374.7686187897661,[],"[960, 540]",ColorTask,86.0,44.0,,,HRV,HRV_0249,2022-11-30 19:50:28
,wl-rdm,161,460907,0.0-8.44-0.44,1.0,162.0,,,,,,,[],,,,,,56.4,1.0,i,1.0,True,731.5999999940395,44.0,60.0,40.0,False,,210.71317165651982,[],"[960, 540]",ColorTask,87.0,45.0,,,HRV,HRV_0249,2022-11-30 19:50:28
,wl-rdm,162,463490,0.0-8.45-0.45,1.0,163.0,,,,,,,[],,,,,,53.2,1.0,u,0.0,False,1219.2999999821186,74.0,60.0,40.0,False,,267.1662132275512,[],"[960, 540]",ColorTask,86.0,46.0,,,HRV,HRV_0249,2022-11-30 19:50:28
,wl-rdm,163,465957,0.0-8.46-0.46,1.0,164.0,,,,,,,[],,,,,,62.5,0.0,u,0.0,True,1105.4000000059605,67.0,60.0,40.0,False,,283.84322827337803,[],"[960, 540]",ColorTask,87.0,47.0,,,HRV,HRV_0249,2022-11-30 19:50:28
,wl-rdm,164,468840,0.0-8.47-0.47,1.0,165.0,,,,,,,[],,,,,,56.4,0.0,i,1.0,False,1453.2999999821186,88.0,60.0,40.0,False,,343.829821170199,[],"[960, 540]",ColorTask,86.0,48.0,,,HRV,HRV_0249,2022-11-30 19:50:28
,wl-rdm,165,471490,0.0-8.48-0.48,1.0,166.0,,,,,,,[],,,,,,62.5,0.0,u,0.0,True,1335.300000011921,81.0,60.0,40.0,False,,219.23348984247917,[],"[960, 540]",ColorTask,87.0,49.0,,,HRV,HRV_0249,2022-11-30 19:50:28
,wl-rdm,166,473423,0.0-8.49-0.49,1.0,167.0,,,,,,,[],,,,,,87.9,1.0,i,1.0,True,611.8000000417233,37.0,60.0,40.0,False,,237.40517540692974,[],"[960, 540]",ColorTask,88.0,50.0,,,HRV,HRV_0249,2022-11-30 19:50:28
,wl-rdm,167,476090,0.0-8.50-0.50,1.0,168.0,,,,,,,[],,,,,,53.2,0.0,u,0.0,True,1208.1000000238419,73.0,60.0,40.0,False,,396.5735074818792,[],"[960, 540]",ColorTask,89.0,51.0,,,HRV,HRV_0249,2022-11-30 19:50:28
,wl-rdm,168,478907,0.0-8.51-0.51,1.0,169.0,,,,,,,[],,,,,,53.2,0.0,u,0.0,True,1499.4000000059605,90.0,60.0,40.0,False,,234.41570473497853,[],"[960, 540]",ColorTask,90.0,52.0,,,HRV,HRV_0249,2022-11-30 19:50:28
,wl-rdm,169,481140,0.0-8.52-0.52,1.0,170.0,,,,,,,[],,,,,,73.6,1.0,i,1.0,True,898.1000000238419,54.0,60.0,40.0,False,,258.0698634978208,[],"[960, 540]",ColorTask,91.0,53.0,,,HRV,HRV_0249,2022-11-30 19:50:28
,wl-rdm,170,483907,0.0-8.53-0.53,1.0,171.0,,,,,,,[],,,,,,56.4,1.0,i,1.0,True,1381.5999999940395,83.0,60.0,40.0,False,,316.60518414877333,[],"[960, 540]",ColorTask,92.0,54.0,,,HRV,HRV_0249,2022-11-30 19:50:28
,wl-rdm,171,485941,0.0-8.54-0.54,1.0,172.0,,,,,,,[],,,,,,73.6,0.0,u,0.0,True,746.6999999880791,45.0,60.0,40.0,False,,222.8959022549261,[],"[960, 540]",ColorTask,93.0,55.0,,,HRV,HRV_0249,2022-11-30 19:50:28
,wl-rdm,172,487974,0.0-8.55-0.55,1.0,173.0,,,,,,,[],,,,,,50.0,0.0,i,1.0,False,655.0,40.0,60.0,40.0,False,,294.3347955256835,[],"[960, 540]",ColorTask,92.0,56.0,,,HRV,HRV_0249,2022-11-30 19:50:28
,wl-rdm,173,490274,0.0-8.56-0.56,1.0,174.0,,,,,,,[],,,,,,62.5,0.0,u,0.0,True,984.2999999821186,60.0,60.0,40.0,False,,245.70271174553716,[],"[960, 540]",ColorTask,93.0,57.0,,,HRV,HRV_0249,2022-11-30 19:50:28
,wl-rdm,174,492457,0.0-8.57-0.57,1.0,175.0,,,,,,,[],,,,,,53.2,0.0,i,1.0,False,843.3000000417233,51.0,60.0,40.0,False,,254.35450314846025,[],"[960, 540]",ColorTask,92.0,58.0,,,HRV,HRV_0249,2022-11-30 19:50:28
,wl-rdm,175,494441,0.0-8.58-0.58,1.0,176.0,,,,,,,[],,,,,,73.6,1.0,i,1.0,True,611.3999999761581,37.0,60.0,40.0,False,,290.92553861977285,[],"[960, 540]",ColorTask,93.0,59.0,,,HRV,HRV_0249,2022-11-30 19:50:28
,wl-rdm,176,496407,0.0-8.59-0.59,1.0,177.0,,,,,,,[],,,,,,56.4,1.0,i,1.0,True,662.2000000178814,40.0,60.0,40.0,False,,216.8526683595199,[],"[960, 540]",ColorTask,94.0,60.0,,,HRV,HRV_0249,2022-11-30 19:50:28
,wl-rdm,177,498824,0.0-8.60-0.60,1.0,178.0,,,,,,,[],,,,,,50.0,1.0,i,1.0,True,1077.300000011921,65.0,60.0,40.0,False,,263.01494751627337,[],"[960, 540]",ColorTask,95.0,61.0,,,HRV,HRV_0249,2022-11-30 19:50:28
,wl-rdm,178,501140,0.0-8.61-0.61,1.0,179.0,,,,,,,[],,,,,,56.4,0.0,u,0.0,True,1022.2999999821186,62.0,60.0,40.0,False,,202.29472658073328,[],"[960, 540]",ColorTask,96.0,62.0,,,HRV,HRV_0249,2022-11-30 19:50:28
,wl-rdm,179,503508,0.0-8.62-0.62,1.0,180.0,,,,,,,[],,,,,,56.4,0.0,i,1.0,False,1073.5,65.0,60.0,40.0,False,,224.894736127754,[],"[960, 540]",ColorTask,95.0,63.0,,,HRV,HRV_0249,2022-11-30 19:50:28
,wl-rdm,180,506107,0.0-8.63-0.63,1.0,181.0,,,,,,,[],,,,,,62.5,0.0,u,0.0,True,1316.8000000417233,79.0,60.0,40.0,False,,206.68835496369792,[],"[960, 540]",ColorTask,96.0,64.0,,,HRV,HRV_0249,2022-11-30 19:50:28
,wl-rdm,181,508090,0.0-8.64-0.64,1.0,182.0,,,,,,,[],,,,,,62.5,1.0,i,1.0,True,685.5,42.0,60.0,40.0,False,,210.4224744544315,[],"[960, 540]",ColorTask,97.0,65.0,,,HRV,HRV_0249,2022-11-30 19:50:28
,wl-rdm,182,510407,0.0-8.65-0.65,1.0,183.0,,,,,,,[],,,,,,50.0,0.0,u,0.0,True,894.0999999940395,54.0,60.0,40.0,False,,353.5485972793988,[],"[960, 540]",ColorTask,98.0,66.0,,,HRV,HRV_0249,2022-11-30 19:50:28
,wl-rdm,183,512491,0.0-8.66-0.66,1.0,184.0,,,,,,,[],,,,,,87.9,0.0,u,0.0,True,751.8000000119209,46.0,60.0,40.0,False,,240.14773844684441,[],"[960, 540]",ColorTask,99.0,67.0,,,HRV,HRV_0249,2022-11-30 19:50:28
,wl-rdm,184,514457,0.0-8.67-0.67,1.0,185.0,,,,,,,[],,,,,,73.6,1.0,i,1.0,True,676.5999999940395,41.0,60.0,40.0,False,,206.22740088657528,[],"[960, 540]",ColorTask,100.0,68.0,,,HRV,HRV_0249,2022-11-30 19:50:28
,wl-rdm,185,516474,0.0-8.68-0.68,1.0,186.0,,,,,,,[],,,,,,87.9,1.0,i,1.0,True,568.6999999880791,35.0,60.0,40.0,False,,360.07666855349964,[],"[960, 540]",ColorTask,101.0,69.0,,,HRV,HRV_0249,2022-11-30 19:50:28
,wl-rdm,186,519107,0.0-8.69-0.69,1.0,187.0,,,,,,,[],,,,,,56.4,0.0,u,0.0,True,1322.5,80.0,60.0,40.0,False,,247.33379909958273,[],"[960, 540]",ColorTask,102.0,70.0,,,HRV,HRV_0249,2022-11-30 19:50:28
,wl-rdm,187,521657,0.0-8.70-0.70,1.0,188.0,,,,,,,[],,,,,,53.2,1.0,i,1.0,True,1258.7000000178814,76.0,60.0,40.0,False,,222.73780689410003,[],"[960, 540]",ColorTask,103.0,71.0,,,HRV,HRV_0249,2022-11-30 19:50:28
,wl-rdm,188,524174,0.0-8.71-0.71,1.0,189.0,,,,,,,[],,,,,,53.2,0.0,u,0.0,True,1211.2999999821186,73.0,60.0,40.0,False,,244.457716308398,[],"[960, 540]",ColorTask,104.0,72.0,,,HRV,HRV_0249,2022-11-30 19:50:28
,wl-rdm,189,526507,0.0-8.72-0.72,1.0,190.0,,,,,,,[],,,,,,53.2,0.0,i,1.0,False,891.5999999940395,54.0,60.0,40.0,False,,353.7506449566838,[],"[960, 540]",ColorTask,103.0,73.0,,,HRV,HRV_0249,2022-11-30 19:50:28
,wl-rdm,190,528724,0.0-8.73-0.73,1.0,191.0,,,,,,,[],,,,,,73.6,0.0,u,0.0,True,922.8000000119209,56.0,60.0,40.0,False,,224.64524606341303,[],"[960, 540]",ColorTask,104.0,74.0,,,HRV,HRV_0249,2022-11-30 19:50:28
,wl-rdm,191,531141,0.0-8.74-0.74,1.0,192.0,,,,,,,[],,,,,,53.2,0.0,i,1.0,False,1121.0999999940395,68.0,60.0,40.0,False,,226.0173970710024,[],"[960, 540]",ColorTask,103.0,75.0,,,HRV,HRV_0249,2022-11-30 19:50:28
,wl-rdm,192,533608,0.0-8.75-0.75,1.0,193.0,,,,,,,[],,,,,,50.0,1.0,i,1.0,True,1127.9000000357628,68.0,60.0,40.0,False,,264.7359215731527,[],"[960, 540]",ColorTask,104.0,76.0,,,HRV,HRV_0249,2022-11-30 19:50:28
,wl-rdm,193,536058,0.0-8.76-0.76,1.0,194.0,,,,,,,[],,,,,,62.5,0.0,u,0.0,True,1151.9000000059605,70.0,60.0,40.0,False,,222.3381456162149,[],"[960, 540]",ColorTask,105.0,77.0,,,HRV,HRV_0249,2022-11-30 19:50:28
,wl-rdm,194,538191,0.0-8.77-0.77,1.0,195.0,,,,,,,[],,,,,,50.0,1.0,i,1.0,True,738.0999999940395,45.0,60.0,40.0,False,,306.5939201847208,[],"[960, 540]",ColorTask,106.0,78.0,,,HRV,HRV_0249,2022-11-30 19:50:28
,wl-rdm,195,540108,0.0-8.78-0.78,1.0,196.0,,,,,,,[],,,,,,87.9,0.0,u,0.0,True,631.3000000119209,38.0,60.0,40.0,False,,222.56218626030176,[],"[960, 540]",ColorTask,107.0,79.0,,,HRV,HRV_0249,2022-11-30 19:50:28
,wl-rdm,196,542441,0.0-8.79-0.79,1.0,197.0,,,,,,,[],,,,,,56.4,1.0,i,1.0,True,1001.7999999821186,61.0,60.0,40.0,False,,265.3376899919617,[],"[960, 540]",ColorTask,108.0,80.0,,,HRV,HRV_0249,2022-11-30 19:50:28
,wl-rdm,197,544691,0.0-8.80-0.80,1.0,198.0,,,,,,,[],,,,,,73.6,1.0,i,1.0,True,899.0,54.0,60.0,40.0,False,,277.06906389280743,[],"[960, 540]",ColorTask,109.0,81.0,,,HRV,HRV_0249,2022-11-30 19:50:28
,wl-rdm,198,546725,0.0-8.81-0.81,1.0,199.0,,,,,,,[],,,,,,62.5,0.0,u,0.0,True,730.5,44.0,60.0,40.0,False,,234.03502292038073,[],"[960, 540]",ColorTask,110.0,82.0,,,HRV,HRV_0249,2022-11-30 19:50:28
,wl-rdm,199,548707,0.0-8.82-0.82,1.0,200.0,,,,,,,[],,,,,,62.5,1.0,i,1.0,True,632.4999999701977,38.0,60.0,40.0,False,,274.39370027294063,[],"[960, 540]",ColorTask,111.0,83.0,,,HRV,HRV_0249,2022-11-30 19:50:28
,wl-rdm,200,550558,0.0-8.83-0.83,1.0,201.0,,,,,,,[],,,,,,87.9,1.0,i,1.0,True,562.8000000119209,34.0,60.0,40.0,False,,201.08383624844814,[],"[960, 540]",ColorTask,112.0,84.0,,,HRV,HRV_0249,2022-11-30 19:50:28
,wl-rdm,201,552975,0.0-8.84-0.84,1.0,202.0,,,,,,,[],,,,,,53.2,0.0,u,0.0,True,1103.7000000178814,67.0,60.0,40.0,False,,239.40742849288722,[],"[960, 540]",ColorTask,113.0,85.0,,,HRV,HRV_0249,2022-11-30 19:50:28
,wl-rdm,202,555458,0.0-8.85-0.85,1.0,203.0,,,,,,,[],,,,,,53.2,1.0,i,1.0,True,1066.9000000357628,64.0,60.0,40.0,False,,341.14628200988574,[],"[960, 540]",ColorTask,114.0,86.0,,,HRV,HRV_0249,2022-11-30 19:50:28
,wl-rdm,203,557541,0.0-8.86-0.86,1.0,204.0,,,,,,,[],,,,,,62.5,0.0,u,0.0,True,746.7000000178814,45.0,60.0,40.0,False,,254.69353121775495,[],"[960, 540]",ColorTask,115.0,87.0,,,HRV,HRV_0249,2022-11-30 19:50:28
,wl-rdm,204,559391,0.0-8.87-0.87,1.0,205.0,,,,,,,[],,,,,,87.9,1.0,i,1.0,True,536.9000000059605,33.0,60.0,40.0,False,,227.9122615743204,[],"[960, 540]",ColorTask,116.0,88.0,,,HRV,HRV_0249,2022-11-30 19:50:28
,wl-rdm,205,561241,0.0-8.88-0.88,1.0,206.0,,,,,,,[],,,,,,62.5,1.0,i,1.0,True,575.5,35.0,60.0,40.0,False,,200.34632066902736,[],"[960, 540]",ColorTask,117.0,89.0,,,HRV,HRV_0249,2022-11-30 19:50:28
,wl-rdm,206,563242,0.0-8.89-0.89,1.0,207.0,,,,,,,[],,,,,,87.9,1.0,i,1.0,True,568.6999999880791,35.0,60.0,40.0,False,,353.9693184340183,[],"[960, 540]",ColorTask,118.0,90.0,,,HRV,HRV_0249,2022-11-30 19:50:28
,wl-rdm,207,565192,0.0-8.90-0.90,1.0,208.0,,,,,,,[],,,,,,73.6,0.0,u,0.0,True,494.19999998807907,30.0,60.0,40.0,False,,376.5712690037385,[],"[960, 540]",ColorTask,119.0,91.0,,,HRV,HRV_0249,2022-11-30 19:50:28
,wl-rdm,208,567092,0.0-8.91-0.91,1.0,209.0,,,,,,,[],,,,,,87.9,0.0,u,0.0,True,514.4000000059605,31.0,60.0,40.0,False,,321.5538797604553,[],"[960, 540]",ColorTask,120.0,92.0,,,HRV,HRV_0249,2022-11-30 19:50:28
,wl-rdm,209,569125,0.0-8.92-0.92,1.0,210.0,,,,,,,[],,,,,,73.6,0.0,u,0.0,True,688.5999999940395,42.0,60.0,40.0,False,,250.36240051809267,[],"[960, 540]",ColorTask,121.0,93.0,,,HRV,HRV_0249,2022-11-30 19:50:28
,wl-rdm,210,571358,0.0-8.93-0.93,1.0,211.0,,,,,,,[],,,,,,56.4,0.0,u,0.0,True,904.8000000119209,55.0,60.0,40.0,False,,261.20858960816963,[],"[960, 540]",ColorTask,122.0,94.0,,,HRV,HRV_0249,2022-11-30 19:50:28
,wl-rdm,211,573342,0.0-8.94-0.94,1.0,212.0,,,,,,,[],,,,,,73.6,1.0,i,1.0,True,579.0,35.0,60.0,40.0,False,,334.98272926647087,[],"[960, 540]",ColorTask,123.0,95.0,,,HRV,HRV_0249,2022-11-30 19:50:28
,wl-rdm,212,575192,0.0-8.95-0.95,1.0,213.0,,,,,,,[],,,,,,50.0,0.0,i,1.0,False,468.5,29.0,60.0,40.0,False,,312.9856707498731,[],"[960, 540]",ColorTask,122.0,96.0,,,HRV,HRV_0249,2022-11-30 19:50:28
,wl-rdm,213,577125,0.0-8.96-0.96,1.0,214.0,,,,,,,[],,,,,,87.9,0.0,u,0.0,True,546.3000000119209,33.0,60.0,40.0,False,,319.9551915290507,[],"[960, 540]",ColorTask,123.0,97.0,,,HRV,HRV_0249,2022-11-30 19:50:28
,wl-rdm,214,578992,0.0-8.97-0.97,1.0,215.0,,,,,,,[],,,,,,53.2,1.0,i,1.0,True,569.7000000178814,35.0,60.0,40.0,False,,201.2912724296171,[],"[960, 540]",ColorTask,124.0,98.0,,,HRV,HRV_0249,2022-11-30 19:50:28
,wl-rdm,215,580875,0.0-8.98-0.98,1.0,216.0,,,,,,,[],,,,,,87.9,1.0,i,1.0,True,490.90000000596046,30.0,60.0,40.0,False,,314.9500529039839,[],"[960, 540]",ColorTask,125.0,99.0,,,HRV,HRV_0249,2022-11-30 19:50:28
,wl-rdm,216,583008,0.0-8.99-0.99,1.0,217.0,,,,,,,[],,,,,,56.4,1.0,u,0.0,False,820.3000000119209,50.0,60.0,40.0,False,,232.26573647242907,[],"[960, 540]",ColorTask,124.0,100.0,,,HRV,HRV_0249,2022-11-30 19:50:28
,wl-rdm,217,585009,0.0-8.100-0.100,1.0,218.0,,,,,,,[],,,,,,62.5,1.0,i,1.0,True,692.9000000357628,42.0,60.0,40.0,False,,243.18346076863293,[],"[960, 540]",ColorTask,125.0,101.0,,,HRV,HRV_0249,2022-11-30 19:50:28
,wl-rdm,218,587209,0.0-8.101-0.101,1.0,219.0,,,,,,,[],,,,,,50.0,0.0,u,0.0,True,826.7000000178814,50.0,60.0,40.0,False,,284.9997000392468,[],"[960, 540]",ColorTask,126.0,102.0,,,HRV,HRV_0249,2022-11-30 19:50:28
,wl-rdm,219,589409,0.0-8.102-0.102,1.0,220.0,,,,,,,[],,,,,,53.2,1.0,u,0.0,False,819.1999999880791,50.0,60.0,40.0,False,,290.6982268793464,[],"[960, 540]",ColorTask,125.0,103.0,,,HRV,HRV_0249,2022-11-30 19:50:28
,wl-rdm,220,591425,0.0-8.103-0.103,1.0,221.0,,,,,,,[],,,,,,62.5,0.0,u,0.0,True,733.0,44.0,60.0,40.0,False,,231.15627696838501,[],"[960, 540]",ColorTask,126.0,104.0,,,HRV,HRV_0249,2022-11-30 19:50:28
,wl-rdm,221,593459,0.0-8.104-0.104,1.0,222.0,,,,,,,[],,,,,,87.9,0.0,u,0.0,True,668.5999999940395,41.0,60.0,40.0,False,,288.1406665673379,[],"[960, 540]",ColorTask,127.0,105.0,,,HRV,HRV_0249,2022-11-30 19:50:28
,wl-rdm,222,595442,0.0-8.105-0.105,1.0,223.0,,,,,,,[],,,,,,62.5,1.0,i,1.0,True,616.7000000178814,37.0,60.0,40.0,False,,285.82937770640535,[],"[960, 540]",ColorTask,128.0,106.0,,,HRV,HRV_0249,2022-11-30 19:50:28
,wl-rdm,223,597359,0.0-8.106-0.106,1.0,224.0,,,,,,,[],,,,,,73.6,1.0,i,1.0,True,535.8999999761581,33.0,60.0,40.0,False,,295.0381561227899,[],"[960, 540]",ColorTask,129.0,107.0,,,HRV,HRV_0249,2022-11-30 19:50:28
,wl-rdm,224,599526,0.0-8.107-0.107,1.0,225.0,,,,,,,[],,,,,,50.0,0.0,i,1.0,False,796.5,48.0,60.0,40.0,False,,284.65089357108957,[],"[960, 540]",ColorTask,128.0,108.0,,,HRV,HRV_0249,2022-11-30 19:50:28
,wl-html-button-response,225,601880,0.0-9.0-0.0,,,,,,,,,,2347.7000000178814,,0,,,,,,,,,,,,,,,,,,,,<h3>End of this session. Thank you!</h3><br>,['Close window'],HRV,HRV_0249,2022-11-30 19:50:28
