trialN,stimuli,trialStartTime,trialStartTime_UNIX,stimulus1,stimulus2,stimulus1Bid,stimulus2Bid,delta,selected,rt,rt_UNIX,rt_perfnow,receivedResponse,rsp,trialEndTime,trialDuration,trialEndTime_UNIX,trialDuration_UNIX,exp,subjectId,date
0,"[{'imgObject': {}, 'id': 'steak', 'src': '/static/foodstim60/steak.jpg', 'key': 'u', 'origWidth': 410, 'origHeight': 410, 'width': 410, 'height': 410, 'widthPercent': 0.45, 'rescaleHeight': False, 'trialN': 0, 'loaded': True, 'loadedTime': 1879.9000000059605, 'positionName': 'LEFT', 'positionCoords': [511.6, 335], 'bid': 7.91}, {'imgObject': {}, 'id': 'pear', 'src': '/static/foodstim60/pear.jpg', 'key': 'i', 'origWidth': 411, 'origHeight': 410, 'width': 411, 'height': 410, 'widthPercent': 0.45, 'rescaleHeight': False, 'trialN': 0, 'loaded': True, 'loadedTime': 1957, 'positionName': 'RIGHT', 'positionCoords': [998.4, 335], 'bid': 6.84}]",2334.4000000059605,1669836893277,steak,pear,7.91,6.84,-1.0700000000000003,steak,1041.5,1042,1042.5,True,u,3882.0999999940395,1547.699999988079,1669836894824,1547,HRV,HRV_0249,2022-11-30 19:40:21
1,"[{'imgObject': {}, 'id': 'bagel plain', 'src': '/static/foodstim60/bagel plain.jpg', 'key': 'u', 'origWidth': 410, 'origHeight': 410, 'width': 410, 'height': 410, 'widthPercent': 0.45, 'rescaleHeight': False, 'trialN': 1, 'loaded': True, 'loadedTime': 1972.199999988079, 'positionName': 'LEFT', 'positionCoords': [511.6, 335], 'bid': 4.21}, {'imgObject': {}, 'id': 'blueberries', 'src': '/static/foodstim60/blueberries.jpg', 'key': 'i', 'origWidth': 411, 'origHeight': 411, 'width': 411, 'height': 411, 'widthPercent': 0.45, 'rescaleHeight': False, 'trialN': 1, 'loaded': True, 'loadedTime': 1987, 'positionName': 'RIGHT', 'positionCoords': [998.4, 334.5], 'bid': 5.4}]",3882.699999988079,1669836894825,bagel plain,blueberries,4.21,5.4,1.1900000000000004,blueberries,1269.1000000238419,1270,1269.6000000238419,True,i,5670.300000011921,1787.6000000238419,1669836896612,1787,HRV,HRV_0249,2022-11-30 19:40:21
2,"[{'imgObject': {}, 'id': 'fried eggs', 'src': '/static/foodstim60/fried eggs.jpg', 'key': 'u', 'origWidth': 410, 'origHeight': 410, 'width': 410, 'height': 410, 'widthPercent': 0.45, 'rescaleHeight': False, 'trialN': 2, 'loaded': True, 'loadedTime': 2002, 'positionName': 'LEFT', 'positionCoords': [511.6, 335], 'bid': 7.97}, {'imgObject': {}, 'id': 'steak', 'src': '/static/foodstim60/steak.jpg', 'key': 'i', 'origWidth': 410, 'origHeight': 410, 'width': 410, 'height': 410, 'widthPercent': 0.45, 'rescaleHeight': False, 'trialN': 2, 'loaded': True, 'loadedTime': 1880.800000011921, 'positionName': 'RIGHT', 'positionCoords': [998.4, 335], 'bid': 7.91}]",5670.5999999940395,1669836896613,fried eggs,steak,7.97,7.91,-0.05999999999999961,steak,1369.2000000178814,1369,1369.7000000178814,True,i,7552.300000011921,1881.7000000178814,1669836898494,1881,HRV,HRV_0249,2022-11-30 19:40:21
3,"[{'imgObject': {}, 'id': 'froot loops w milk', 'src': '/static/foodstim60/froot loops w milk.jpg', 'key': 'u', 'origWidth': 410, 'origHeight': 410, 'width': 410, 'height': 410, 'widthPercent': 0.45, 'rescaleHeight': False, 'trialN': 3, 'loaded': True, 'loadedTime': 2010, 'positionName': 'LEFT', 'positionCoords': [511.6, 335], 'bid': 7.01}, {'imgObject': {}, 'id': 'raisin bran w milk', 'src': '/static/foodstim60/raisin bran w milk.jpg', 'key': 'i', 'origWidth': 411, 'origHeight': 411, 'width': 411, 'height': 411, 'widthPercent': 0.45, 'rescaleHeight': False, 'trialN': 3, 'loaded': True, 'loadedTime': 2018, 'positionName': 'RIGHT', 'positionCoords': [998.4, 334.5], 'bid': 6.44}]",7552.5999999940395,1669836898495,froot loops w milk,raisin bran w milk,7.01,6.44,-0.5699999999999994,froot loops w milk,1223.2000000178814,1224,1223.7000000178814,True,u,9285.800000011921,1733.2000000178814,1669836900228,1733,HRV,HRV_0249,2022-11-30 19:40:21
4,"[{'imgObject': {}, 'id': 'sweetpotato', 'src': '/static/foodstim60/sweetpotato.jpg', 'key': 'u', 'origWidth': 410, 'origHeight': 410, 'width': 410, 'height': 410, 'widthPercent': 0.45, 'rescaleHeight': False, 'trialN': 4, 'loaded': True, 'loadedTime': 2022.199999988079, 'positionName': 'LEFT', 'positionCoords': [511.6, 335], 'bid': 0.06}, {'imgObject': {}, 'id': 'popsicles', 'src': '/static/foodstim60/popsicles.jpg', 'key': 'i', 'origWidth': 410, 'origHeight': 410, 'width': 410, 'height': 410, 'widthPercent': 0.45, 'rescaleHeight': False, 'trialN': 4, 'loaded': True, 'loadedTime': 2333.9000000059605, 'positionName': 'RIGHT', 'positionCoords': [998.4, 335], 'bid': 3.67}]",9286.199999988079,1669836900228,sweetpotato,popsicles,0.06,3.67,3.61,popsicles,1193.800000011921,1194,1194.1000000238419,True,i,10987.59999999404,1701.4000000059605,1669836901930,1702,HRV,HRV_0249,2022-11-30 19:40:21
5,"[{'imgObject': {}, 'id': 'pear', 'src': '/static/foodstim60/pear.jpg', 'key': 'u', 'origWidth': 411, 'origHeight': 410, 'width': 411, 'height': 410, 'widthPercent': 0.45, 'rescaleHeight': False, 'trialN': 5, 'loaded': True, 'loadedTime': 1957.9000000059605, 'positionName': 'LEFT', 'positionCoords': [510.6, 335], 'bid': 6.84}, {'imgObject': {}, 'id': 'froot loops w milk', 'src': '/static/foodstim60/froot loops w milk.jpg', 'key': 'i', 'origWidth': 410, 'origHeight': 410, 'width': 410, 'height': 410, 'widthPercent': 0.45, 'rescaleHeight': False, 'trialN': 5, 'loaded': True, 'loadedTime': 2009.699999988079, 'positionName': 'RIGHT', 'positionCoords': [998.4, 335], 'bid': 7.01}]",10988.09999999404,1669836901930,pear,froot loops w milk,6.84,7.01,0.16999999999999993,froot loops w milk,1323.7000000178814,1325,1324.2000000178814,True,i,12819.09999999404,1831.0,1669836903761,1831,HRV,HRV_0249,2022-11-30 19:40:21
6,"[{'imgObject': {}, 'id': 'popsicles', 'src': '/static/foodstim60/popsicles.jpg', 'key': 'u', 'origWidth': 410, 'origHeight': 410, 'width': 410, 'height': 410, 'widthPercent': 0.45, 'rescaleHeight': False, 'trialN': 6, 'loaded': True, 'loadedTime': 2334, 'positionName': 'LEFT', 'positionCoords': [511.6, 335], 'bid': 3.67}, {'imgObject': {}, 'id': 'bagel plain', 'src': '/static/foodstim60/bagel plain.jpg', 'key': 'i', 'origWidth': 410, 'origHeight': 410, 'width': 410, 'height': 410, 'widthPercent': 0.45, 'rescaleHeight': False, 'trialN': 6, 'loaded': True, 'loadedTime': 1979.0999999940395, 'positionName': 'RIGHT', 'positionCoords': [998.4, 335], 'bid': 4.21}]",12819.59999999404,1669836903762,popsicles,bagel plain,3.67,4.21,0.54,popsicles,1188.300000011921,1189,1188.800000011921,True,u,14516.699999988079,1697.0999999940395,1669836905459,1697,HRV,HRV_0249,2022-11-30 19:40:21
7,"[{'imgObject': {}, 'id': 'fruitsalad', 'src': '/static/foodstim60/fruitsalad.jpg', 'key': 'u', 'origWidth': 410, 'origHeight': 410, 'width': 410, 'height': 410, 'widthPercent': 0.45, 'rescaleHeight': False, 'trialN': 7, 'loaded': True, 'loadedTime': 2027.199999988079, 'positionName': 'LEFT', 'positionCoords': [511.6, 335], 'bid': 8.48}, {'imgObject': {}, 'id': 'luckycharms', 'src': '/static/foodstim60/luckycharms.jpg', 'key': 'i', 'origWidth': 410, 'origHeight': 409, 'width': 410, 'height': 409, 'widthPercent': 0.45, 'rescaleHeight': False, 'trialN': 7, 'loaded': True, 'loadedTime': 2050.300000011921, 'positionName': 'RIGHT', 'positionCoords': [998.4, 335.5], 'bid': 7.1000000000000005}]",14517.09999999404,1669836905459,fruitsalad,luckycharms,8.48,7.1000000000000005,-1.38,fruitsalad,922.4000000059605,923,922.9000000059605,True,u,15951.300000011921,1434.2000000178814,1669836906894,1435,HRV,HRV_0249,2022-11-30 19:40:21
8,"[{'imgObject': {}, 'id': 'luckycharms', 'src': '/static/foodstim60/luckycharms.jpg', 'key': 'u', 'origWidth': 410, 'origHeight': 409, 'width': 410, 'height': 409, 'widthPercent': 0.45, 'rescaleHeight': False, 'trialN': 8, 'loaded': True, 'loadedTime': 2043.300000011921, 'positionName': 'LEFT', 'positionCoords': [511.6, 335.5], 'bid': 7.1000000000000005}, {'imgObject': {}, 'id': 'avocado', 'src': '/static/foodstim60/avocado.jpg', 'key': 'i', 'origWidth': 409, 'origHeight': 409, 'width': 409, 'height': 409, 'widthPercent': 0.45, 'rescaleHeight': False, 'trialN': 8, 'loaded': True, 'loadedTime': 2066.199999988079, 'positionName': 'RIGHT', 'positionCoords': [998.4, 335.5], 'bid': 6.95}]",15951.699999988079,1669836906894,luckycharms,avocado,7.1000000000000005,6.95,-0.15000000000000036,avocado,1024.1000000238419,1024,1024.5,True,i,17490.59999999404,1538.9000000059605,1669836908433,1539,HRV,HRV_0249,2022-11-30 19:40:21
9,"[{'imgObject': {}, 'id': 'granola w milk', 'src': '/static/foodstim60/granola w milk.jpg', 'key': 'u', 'origWidth': 410, 'origHeight': 410, 'width': 410, 'height': 410, 'widthPercent': 0.45, 'rescaleHeight': False, 'trialN': 9, 'loaded': True, 'loadedTime': 2075.4000000059605, 'positionName': 'LEFT', 'positionCoords': [511.6, 335], 'bid': 0.07}, {'imgObject': {}, 'id': 'cocktailshrimp', 'src': '/static/foodstim60/cocktailshrimp.jpg', 'key': 'i', 'origWidth': 410, 'origHeight': 410, 'width': 410, 'height': 410, 'widthPercent': 0.45, 'rescaleHeight': False, 'trialN': 9, 'loaded': True, 'loadedTime': 2083.699999988079, 'positionName': 'RIGHT', 'positionCoords': [998.4, 335], 'bid': 0}]",17490.90000000596,1669836908433,granola w milk,cocktailshrimp,0.07,0.0,-0.07,granola w milk,1052.9000000059605,1054,1053.4000000059605,True,u,19051.59999999404,1560.699999988079,1669836909994,1561,HRV,HRV_0249,2022-11-30 19:40:21
10,"[{'imgObject': {}, 'id': 'edamame', 'src': '/static/foodstim60/edamame.jpg', 'key': 'u', 'origWidth': 409, 'origHeight': 410, 'width': 409, 'height': 410, 'widthPercent': 0.45, 'rescaleHeight': False, 'trialN': 10, 'loaded': True, 'loadedTime': 2097.5999999940395, 'positionName': 'LEFT', 'positionCoords': [512.6, 335], 'bid': 0.08}, {'imgObject': {}, 'id': 'mashed potato', 'src': '/static/foodstim60/mashed potato.jpg', 'key': 'i', 'origWidth': 409, 'origHeight': 409, 'width': 409, 'height': 409, 'widthPercent': 0.45, 'rescaleHeight': False, 'trialN': 10, 'loaded': True, 'loadedTime': 2106.199999988079, 'positionName': 'RIGHT', 'positionCoords': [998.4, 335.5], 'bid': 0}]",19051.90000000596,1669836909994,edamame,mashed potato,0.08,0.0,-0.08,edamame,1084.0,1085,1084.5,True,u,20651.0,1599.0999999940395,1669836911593,1599,HRV,HRV_0249,2022-11-30 19:40:21
11,"[{'imgObject': {}, 'id': 'cantaloupe', 'src': '/static/foodstim60/cantaloupe.jpg', 'key': 'u', 'origWidth': 409, 'origHeight': 409, 'width': 409, 'height': 409, 'widthPercent': 0.45, 'rescaleHeight': False, 'trialN': 11, 'loaded': True, 'loadedTime': 2120.5, 'positionName': 'LEFT', 'positionCoords': [512.6, 335.5], 'bid': 7.35}, {'imgObject': {}, 'id': 'steak', 'src': '/static/foodstim60/steak.jpg', 'key': 'i', 'origWidth': 410, 'origHeight': 410, 'width': 410, 'height': 410, 'widthPercent': 0.45, 'rescaleHeight': False, 'trialN': 11, 'loaded': True, 'loadedTime': 1857.699999988079, 'positionName': 'RIGHT', 'positionCoords': [998.4, 335], 'bid': 7.91}]",20651.19999998808,1669836911593,cantaloupe,steak,7.35,7.91,0.5600000000000005,steak,1029.6000000238419,1030,1030.0,True,i,22186.09999999404,1534.9000000059605,1669836913128,1535,HRV,HRV_0249,2022-11-30 19:40:21
12,"[{'imgObject': {}, 'id': 'burrito', 'src': '/static/foodstim60/burrito.jpg', 'key': 'u', 'origWidth': 410, 'origHeight': 410, 'width': 410, 'height': 410, 'widthPercent': 0.45, 'rescaleHeight': False, 'trialN': 12, 'loaded': True, 'loadedTime': 2120.699999988079, 'positionName': 'LEFT', 'positionCoords': [511.6, 335], 'bid': 0.02}, {'imgObject': {}, 'id': 'chickenfingers', 'src': '/static/foodstim60/chickenfingers.jpg', 'key': 'i', 'origWidth': 410, 'origHeight': 410, 'width': 410, 'height': 410, 'widthPercent': 0.45, 'rescaleHeight': False, 'trialN': 12, 'loaded': True, 'loadedTime': 2135.9000000059605, 'positionName': 'RIGHT', 'positionCoords': [998.4, 335], 'bid': 0.02}]",22186.40000000596,1669836913129,burrito,chickenfingers,0.02,0.02,0.0,chickenfingers,981.2999999821186,981,981.7999999821186,True,i,23678.40000000596,1492.0,1669836914621,1492,HRV,HRV_0249,2022-11-30 19:40:21
13,"[{'imgObject': {}, 'id': 'grilled chicken strips', 'src': '/static/foodstim60/grilled chicken strips.jpg', 'key': 'u', 'origWidth': 410, 'origHeight': 411, 'width': 410, 'height': 411, 'widthPercent': 0.45, 'rescaleHeight': False, 'trialN': 13, 'loaded': True, 'loadedTime': 1893.300000011921, 'positionName': 'LEFT', 'positionCoords': [511.6, 334.5], 'bid': 4.22}, {'imgObject': {}, 'id': 'Tribe humus pita', 'src': '/static/foodstim60/Tribe humus pita.jpg', 'key': 'i', 'origWidth': 411, 'origHeight': 411, 'width': 411, 'height': 411, 'widthPercent': 0.45, 'rescaleHeight': False, 'trialN': 13, 'loaded': True, 'loadedTime': 1910.199999988079, 'positionName': 'RIGHT', 'positionCoords': [998.4, 334.5], 'bid': 5.03}]",23678.69999998808,1669836914621,grilled chicken strips,Tribe humus pita,4.22,5.03,0.8100000000000005,grilled chicken strips,1049.1000000238419,1049,1049.5,True,u,25238.19999998808,1559.5,1669836916180,1559,HRV,HRV_0249,2022-11-30 19:40:21
14,"[{'imgObject': {}, 'id': 'chicken nuggets2', 'src': '/static/foodstim60/chicken nuggets2.jpg', 'key': 'u', 'origWidth': 410, 'origHeight': 409, 'width': 410, 'height': 409, 'widthPercent': 0.45, 'rescaleHeight': False, 'trialN': 14, 'loaded': True, 'loadedTime': 1927.4000000059605, 'positionName': 'LEFT', 'positionCoords': [511.6, 335.5], 'bid': 0.64}, {'imgObject': {}, 'id': 'seaweed', 'src': '/static/foodstim60/seaweed.jpg', 'key': 'i', 'origWidth': 410, 'origHeight': 410, 'width': 410, 'height': 410, 'widthPercent': 0.45, 'rescaleHeight': False, 'trialN': 14, 'loaded': True, 'loadedTime': 1956.699999988079, 'positionName': 'RIGHT', 'positionCoords': [998.4, 335], 'bid': 0.65}]",25238.5,1669836916181,chicken nuggets2,seaweed,0.64,0.65,0.010000000000000009,chicken nuggets2,1217.199999988079,1217,1217.699999988079,True,u,26972.59999999404,1734.0999999940395,1669836917915,1734,HRV,HRV_0249,2022-11-30 19:40:21
15,"[{'imgObject': {}, 'id': 'luckycharms', 'src': '/static/foodstim60/luckycharms.jpg', 'key': 'u', 'origWidth': 410, 'origHeight': 409, 'width': 410, 'height': 409, 'widthPercent': 0.45, 'rescaleHeight': False, 'trialN': 15, 'loaded': True, 'loadedTime': 2049.699999988079, 'positionName': 'LEFT', 'positionCoords': [511.6, 335.5], 'bid': 7.1000000000000005}, {'imgObject': {}, 'id': 'seaweed', 'src': '/static/foodstim60/seaweed.jpg', 'key': 'i', 'origWidth': 410, 'origHeight': 410, 'width': 410, 'height': 410, 'widthPercent': 0.45, 'rescaleHeight': False, 'trialN': 15, 'loaded': True, 'loadedTime': 1949.800000011921, 'positionName': 'RIGHT', 'positionCoords': [998.4, 335], 'bid': 0.65}]",26972.90000000596,1669836917915,luckycharms,seaweed,7.1000000000000005,0.65,-6.45,luckycharms,978.9000000059605,980,979.5,True,u,28467.90000000596,1495.0,1669836919410,1495,HRV,HRV_0249,2022-11-30 19:40:21
16,"[{'imgObject': {}, 'id': 'chickenfingers', 'src': '/static/foodstim60/chickenfingers.jpg', 'key': 'u', 'origWidth': 410, 'origHeight': 410, 'width': 410, 'height': 410, 'widthPercent': 0.45, 'rescaleHeight': False, 'trialN': 16, 'loaded': True, 'loadedTime': 2136.199999988079, 'positionName': 'LEFT', 'positionCoords': [511.6, 335], 'bid': 0.02}, {'imgObject': {}, 'id': 'sweetpotato', 'src': '/static/foodstim60/sweetpotato.jpg', 'key': 'i', 'origWidth': 410, 'origHeight': 410, 'width': 410, 'height': 410, 'widthPercent': 0.45, 'rescaleHeight': False, 'trialN': 16, 'loaded': True, 'loadedTime': 2021.5999999940395, 'positionName': 'RIGHT', 'positionCoords': [998.4, 335], 'bid': 0.06}]",28468.30000001192,1669836919411,chickenfingers,sweetpotato,0.02,0.06,0.039999999999999994,chickenfingers,1018.8999999761581,1019,1019.0999999940395,True,u,30001.40000000596,1533.0999999940395,1669836920944,1533,HRV,HRV_0249,2022-11-30 19:40:21
17,"[{'imgObject': {}, 'id': 'cherry tomato', 'src': '/static/foodstim60/cherry tomato.jpg', 'key': 'u', 'origWidth': 410, 'origHeight': 410, 'width': 410, 'height': 410, 'widthPercent': 0.45, 'rescaleHeight': False, 'trialN': 17, 'loaded': True, 'loadedTime': 2036.0999999940395, 'positionName': 'LEFT', 'positionCoords': [511.6, 335], 'bid': 6.19}, {'imgObject': {}, 'id': 'cherries', 'src': '/static/foodstim60/cherries.jpg', 'key': 'i', 'origWidth': 410, 'origHeight': 411, 'width': 410, 'height': 411, 'widthPercent': 0.45, 'rescaleHeight': False, 'trialN': 17, 'loaded': True, 'loadedTime': 2058.300000011921, 'positionName': 'RIGHT', 'positionCoords': [998.4, 334.5], 'bid': 7.81}]",30001.69999998808,1669836920944,cherry tomato,cherries,6.19,7.81,1.6199999999999992,cherries,1030.2000000178814,1031,1030.6000000238419,True,i,31537.09999999404,1535.4000000059605,1669836922479,1535,HRV,HRV_0249,2022-11-30 19:40:21
18,"[{'imgObject': {}, 'id': 'burger', 'src': '/static/foodstim60/burger.jpg', 'key': 'u', 'origWidth': 409, 'origHeight': 409, 'width': 409, 'height': 409, 'widthPercent': 0.45, 'rescaleHeight': False, 'trialN': 18, 'loaded': True, 'loadedTime': 2144.9000000059605, 'positionName': 'LEFT', 'positionCoords': [512.6, 335.5], 'bid': 8.41}, {'imgObject': {}, 'id': 'froot loops w milk', 'src': '/static/foodstim60/froot loops w milk.jpg', 'key': 'i', 'origWidth': 410, 'origHeight': 410, 'width': 410, 'height': 410, 'widthPercent': 0.45, 'rescaleHeight': False, 'trialN': 18, 'loaded': True, 'loadedTime': 2016.4000000059605, 'positionName': 'RIGHT', 'positionCoords': [998.4, 335], 'bid': 7.01}]",31537.30000001192,1669836922479,burger,froot loops w milk,8.41,7.01,-1.4000000000000004,burger,919.3999999761581,920,919.8999999761581,True,u,32972.69999998808,1435.3999999761581,1669836923915,1436,HRV,HRV_0249,2022-11-30 19:40:21
19,"[{'imgObject': {}, 'id': 'tacos', 'src': '/static/foodstim60/tacos.jpg', 'key': 'u', 'origWidth': 411, 'origHeight': 411, 'width': 411, 'height': 411, 'widthPercent': 0.45, 'rescaleHeight': False, 'trialN': 19, 'loaded': True, 'loadedTime': 2159.5999999940395, 'positionName': 'LEFT', 'positionCoords': [510.6, 334.5], 'bid': 2.93}, {'imgObject': {}, 'id': 'raspberries', 'src': '/static/foodstim60/raspberries.jpg', 'key': 'i', 'origWidth': 411, 'origHeight': 411, 'width': 411, 'height': 411, 'widthPercent': 0.45, 'rescaleHeight': False, 'trialN': 19, 'loaded': True, 'loadedTime': 2167.0999999940395, 'positionName': 'RIGHT', 'positionCoords': [998.4, 334.5], 'bid': 3.35}]",32973.0,1669836923915,tacos,raspberries,2.93,3.35,0.41999999999999993,raspberries,1026.800000011921,1027,1027.199999988079,True,i,34517.90000000596,1544.9000000059605,1669836925460,1545,HRV,HRV_0249,2022-11-30 19:40:21
20,"[{'imgObject': {}, 'id': 'olives', 'src': '/static/foodstim60/olives.jpg', 'key': 'u', 'origWidth': 410, 'origHeight': 410, 'width': 410, 'height': 410, 'widthPercent': 0.45, 'rescaleHeight': False, 'trialN': 20, 'loaded': True, 'loadedTime': 2182.0999999940395, 'positionName': 'LEFT', 'positionCoords': [511.6, 335], 'bid': 0}, {'imgObject': {}, 'id': 'chicken nuggets2', 'src': '/static/foodstim60/chicken nuggets2.jpg', 'key': 'i', 'origWidth': 410, 'origHeight': 409, 'width': 410, 'height': 409, 'widthPercent': 0.45, 'rescaleHeight': False, 'trialN': 20, 'loaded': True, 'loadedTime': 1928.0999999940395, 'positionName': 'RIGHT', 'positionCoords': [998.4, 335.5], 'bid': 0.64}]",34518.19999998808,1669836925460,olives,chicken nuggets2,0.0,0.64,0.64,chicken nuggets2,977.3000000119209,978,977.6000000238419,True,i,36000.59999999404,1482.4000000059605,1669836926943,1483,HRV,HRV_0249,2022-11-30 19:40:21
21,"[{'imgObject': {}, 'id': 'cherries', 'src': '/static/foodstim60/cherries.jpg', 'key': 'u', 'origWidth': 410, 'origHeight': 411, 'width': 410, 'height': 411, 'widthPercent': 0.45, 'rescaleHeight': False, 'trialN': 21, 'loaded': True, 'loadedTime': 2058.9000000059605, 'positionName': 'LEFT', 'positionCoords': [511.6, 334.5], 'bid': 7.81}, {'imgObject': {}, 'id': 'raspberries', 'src': '/static/foodstim60/raspberries.jpg', 'key': 'i', 'origWidth': 411, 'origHeight': 411, 'width': 411, 'height': 411, 'widthPercent': 0.45, 'rescaleHeight': False, 'trialN': 21, 'loaded': True, 'loadedTime': 2173.699999988079, 'positionName': 'RIGHT', 'positionCoords': [998.4, 334.5], 'bid': 3.35}]",36000.80000001192,1669836926943,cherries,raspberries,7.81,3.35,-4.459999999999999,cherries,887.0,887,887.5,True,u,37397.19999998808,1396.3999999761581,1669836928339,1396,HRV,HRV_0249,2022-11-30 19:40:21
22,"[{'imgObject': {}, 'id': 'lox', 'src': '/static/foodstim60/lox.jpg', 'key': 'u', 'origWidth': 410, 'origHeight': 411, 'width': 410, 'height': 411, 'widthPercent': 0.45, 'rescaleHeight': False, 'trialN': 22, 'loaded': True, 'loadedTime': 2183.699999988079, 'positionName': 'LEFT', 'positionCoords': [511.6, 334.5], 'bid': 0.08}, {'imgObject': {}, 'id': 'salad w chicken', 'src': '/static/foodstim60/salad w chicken.jpg', 'key': 'i', 'origWidth': 411, 'origHeight': 411, 'width': 411, 'height': 411, 'widthPercent': 0.45, 'rescaleHeight': False, 'trialN': 22, 'loaded': True, 'loadedTime': 2199.199999988079, 'positionName': 'RIGHT', 'positionCoords': [998.4, 334.5], 'bid': 4.4}]",37397.5,1669836928340,lox,salad w chicken,0.08,4.4,4.32,salad w chicken,1058.199999988079,1058,1058.699999988079,True,i,38972.80000001192,1575.300000011921,1669836929919,1579,HRV,HRV_0249,2022-11-30 19:40:21
23,"[{'imgObject': {}, 'id': 'shreddedwheatwithmilk', 'src': '/static/foodstim60/shreddedwheatwithmilk.jpg', 'key': 'u', 'origWidth': 410, 'origHeight': 410, 'width': 410, 'height': 410, 'widthPercent': 0.45, 'rescaleHeight': False, 'trialN': 23, 'loaded': True, 'loadedTime': 2200.4000000059605, 'positionName': 'LEFT', 'positionCoords': [511.6, 335], 'bid': 3.61}, {'imgObject': {}, 'id': 'popsicles', 'src': '/static/foodstim60/popsicles.jpg', 'key': 'i', 'origWidth': 410, 'origHeight': 410, 'width': 410, 'height': 410, 'widthPercent': 0.45, 'rescaleHeight': False, 'trialN': 23, 'loaded': True, 'loadedTime': 2333.4000000059605, 'positionName': 'RIGHT', 'positionCoords': [998.4, 335], 'bid': 3.67}]",38973.09999999404,1669836929919,shreddedwheatwithmilk,popsicles,3.61,3.67,0.06000000000000005,popsicles,1170.5999999940395,1171,1171.2000000178814,True,i,40650.5,1677.4000000059605,1669836931596,1677,HRV,HRV_0249,2022-11-30 19:40:21
24,"[{'imgObject': {}, 'id': 'raisin bran w milk', 'src': '/static/foodstim60/raisin bran w milk.jpg', 'key': 'u', 'origWidth': 411, 'origHeight': 411, 'width': 411, 'height': 411, 'widthPercent': 0.45, 'rescaleHeight': False, 'trialN': 24, 'loaded': True, 'loadedTime': 2020.199999988079, 'positionName': 'LEFT', 'positionCoords': [510.6, 334.5], 'bid': 6.44}, {'imgObject': {}, 'id': 'sweetpotato', 'src': '/static/foodstim60/sweetpotato.jpg', 'key': 'i', 'origWidth': 410, 'origHeight': 410, 'width': 410, 'height': 410, 'widthPercent': 0.45, 'rescaleHeight': False, 'trialN': 24, 'loaded': True, 'loadedTime': 2022.0999999940395, 'positionName': 'RIGHT', 'positionCoords': [998.4, 335], 'bid': 0.06}]",40650.80000001192,1669836931597,raisin bran w milk,sweetpotato,6.44,0.06,-6.380000000000001,raisin bran w milk,924.5,924,924.7999999821186,True,u,42084.59999999404,1433.7999999821186,1669836933031,1434,HRV,HRV_0249,2022-11-30 19:40:21
25,"[{'imgObject': {}, 'id': 'turkeysandwich', 'src': '/static/foodstim60/turkeysandwich.jpg', 'key': 'u', 'origWidth': 409, 'origHeight': 409, 'width': 409, 'height': 409, 'widthPercent': 0.45, 'rescaleHeight': False, 'trialN': 25, 'loaded': True, 'loadedTime': 2215.0999999940395, 'positionName': 'LEFT', 'positionCoords': [512.6, 335.5], 'bid': 9.37}, {'imgObject': {}, 'id': 'pear', 'src': '/static/foodstim60/pear.jpg', 'key': 'i', 'origWidth': 411, 'origHeight': 410, 'width': 411, 'height': 410, 'widthPercent': 0.45, 'rescaleHeight': False, 'trialN': 25, 'loaded': True, 'loadedTime': 1963.9000000059605, 'positionName': 'RIGHT', 'positionCoords': [998.4, 335], 'bid': 6.84}]",42084.90000000596,1669836933031,turkeysandwich,pear,9.37,6.84,-2.5299999999999994,turkeysandwich,1027.699999988079,1028,1028.199999988079,True,u,43617.40000000596,1532.5,1669836934563,1532,HRV,HRV_0249,2022-11-30 19:40:21
26,"[{'imgObject': {}, 'id': 'rigatoni and sauce', 'src': '/static/foodstim60/rigatoni and sauce.jpg', 'key': 'u', 'origWidth': 410, 'origHeight': 411, 'width': 410, 'height': 411, 'widthPercent': 0.45, 'rescaleHeight': False, 'trialN': 26, 'loaded': True, 'loadedTime': 2216.699999988079, 'positionName': 'LEFT', 'positionCoords': [511.6, 334.5], 'bid': 0.04}, {'imgObject': {}, 'id': 'corn cob', 'src': '/static/foodstim60/corn cob.jpg', 'key': 'i', 'origWidth': 411, 'origHeight': 411, 'width': 411, 'height': 411, 'widthPercent': 0.45, 'rescaleHeight': False, 'trialN': 26, 'loaded': True, 'loadedTime': 2223.9000000059605, 'positionName': 'RIGHT', 'positionCoords': [998.4, 334.5], 'bid': 6.13}]",43617.59999999404,1669836934563,rigatoni and sauce,corn cob,0.04,6.13,6.09,corn cob,902.0999999940395,903,902.7000000178814,True,i,45035.5,1417.9000000059605,1669836935981,1418,HRV,HRV_0249,2022-11-30 19:40:21
27,"[{'imgObject': {}, 'id': 'strawberries', 'src': '/static/foodstim60/strawberries.jpg', 'key': 'u', 'origWidth': 410, 'origHeight': 410, 'width': 410, 'height': 410, 'widthPercent': 0.45, 'rescaleHeight': False, 'trialN': 27, 'loaded': True, 'loadedTime': 2233.300000011921, 'positionName': 'LEFT', 'positionCoords': [511.6, 335], 'bid': 2.59}, {'imgObject': {}, 'id': 'burrito', 'src': '/static/foodstim60/burrito.jpg', 'key': 'i', 'origWidth': 410, 'origHeight': 410, 'width': 410, 'height': 410, 'widthPercent': 0.45, 'rescaleHeight': False, 'trialN': 27, 'loaded': True, 'loadedTime': 2128.5999999940395, 'positionName': 'RIGHT', 'positionCoords': [998.4, 335], 'bid': 0.02}]",45035.69999998808,1669836935982,strawberries,burrito,2.59,0.02,-2.57,strawberries,956.0,956,956.6000000238419,True,u,46501.80000001192,1466.1000000238419,1669836937448,1466,HRV,HRV_0249,2022-11-30 19:40:21
28,"[{'imgObject': {}, 'id': 'turkey sandwich', 'src': '/static/foodstim60/turkey sandwich.jpg', 'key': 'u', 'origWidth': 409, 'origHeight': 409, 'width': 409, 'height': 409, 'widthPercent': 0.45, 'rescaleHeight': False, 'trialN': 28, 'loaded': True, 'loadedTime': 2236.9000000059605, 'positionName': 'LEFT', 'positionCoords': [512.6, 335.5], 'bid': 7.66}, {'imgObject': {}, 'id': 'roastedpotatoes', 'src': '/static/foodstim60/roastedpotatoes.jpg', 'key': 'i', 'origWidth': 409, 'origHeight': 410, 'width': 409, 'height': 410, 'widthPercent': 0.45, 'rescaleHeight': False, 'trialN': 28, 'loaded': True, 'loadedTime': 2238.4000000059605, 'positionName': 'RIGHT', 'positionCoords': [998.4, 335], 'bid': 3.12}]",46502.09999999404,1669836937448,turkey sandwich,roastedpotatoes,7.66,3.12,-4.54,turkey sandwich,985.0999999940395,985,985.3000000119209,True,u,48001.5,1499.4000000059605,1669836938947,1499,HRV,HRV_0249,2022-11-30 19:40:21
29,"[{'imgObject': {}, 'id': 'strawberries', 'src': '/static/foodstim60/strawberries.jpg', 'key': 'u', 'origWidth': 410, 'origHeight': 410, 'width': 410, 'height': 410, 'widthPercent': 0.45, 'rescaleHeight': False, 'trialN': 29, 'loaded': True, 'loadedTime': 2233.199999988079, 'positionName': 'LEFT', 'positionCoords': [511.6, 335], 'bid': 2.59}, {'imgObject': {}, 'id': 'Tribe humus pita', 'src': '/static/foodstim60/Tribe humus pita.jpg', 'key': 'i', 'origWidth': 411, 'origHeight': 411, 'width': 411, 'height': 411, 'widthPercent': 0.45, 'rescaleHeight': False, 'trialN': 29, 'loaded': True, 'loadedTime': 1917.9000000059605, 'positionName': 'RIGHT', 'positionCoords': [998.4, 334.5], 'bid': 5.03}]",48001.80000001192,1669836938948,strawberries,Tribe humus pita,2.59,5.03,2.4400000000000004,Tribe humus pita,862.0999999940395,862,862.5,True,i,49382.5,1380.699999988079,1669836940328,1380,HRV,HRV_0249,2022-11-30 19:40:21
30,"[{'imgObject': {}, 'id': 'baked potato', 'src': '/static/foodstim60/baked potato.jpg', 'key': 'u', 'origWidth': 409, 'origHeight': 410, 'width': 409, 'height': 410, 'widthPercent': 0.45, 'rescaleHeight': False, 'trialN': 30, 'loaded': True, 'loadedTime': 2241.0999999940395, 'positionName': 'LEFT', 'positionCoords': [512.6, 335], 'bid': 5.51}, {'imgObject': {}, 'id': 'blueberries', 'src': '/static/foodstim60/blueberries.jpg', 'key': 'i', 'origWidth': 411, 'origHeight': 411, 'width': 411, 'height': 411, 'widthPercent': 0.45, 'rescaleHeight': False, 'trialN': 30, 'loaded': True, 'loadedTime': 1994.4000000059605, 'positionName': 'RIGHT', 'positionCoords': [998.4, 334.5], 'bid': 5.4}]",49383.0,1669836940329,baked potato,blueberries,5.51,5.4,-0.10999999999999943,baked potato,960.8000000119209,961,961.3000000119209,True,u,50849.19999998808,1466.199999988079,1669836941795,1466,HRV,HRV_0249,2022-11-30 19:40:21
31,"[{'imgObject': {}, 'id': 'sushi w_condiments', 'src': '/static/foodstim60/sushi w_condiments.jpg', 'key': 'u', 'origWidth': 410, 'origHeight': 410, 'width': 410, 'height': 410, 'widthPercent': 0.45, 'rescaleHeight': False, 'trialN': 31, 'loaded': True, 'loadedTime': 2250.199999988079, 'positionName': 'LEFT', 'positionCoords': [511.6, 335], 'bid': 6.51}, {'imgObject': {}, 'id': 'hotdog w must', 'src': '/static/foodstim60/hotdog w must.jpg', 'key': 'i', 'origWidth': 409, 'origHeight': 409, 'width': 409, 'height': 409, 'widthPercent': 0.45, 'rescaleHeight': False, 'trialN': 31, 'loaded': True, 'loadedTime': 2257.5, 'positionName': 'RIGHT', 'positionCoords': [998.4, 335.5], 'bid': 0.06}]",50849.40000000596,1669836941795,sushi w_condiments,hotdog w must,6.51,0.06,-6.45,sushi w_condiments,1086.4000000059605,1087,1086.9000000059605,True,u,52452.0,1602.5999999940395,1669836943398,1603,HRV,HRV_0249,2022-11-30 19:40:21
32,"[{'imgObject': {}, 'id': 'tacos', 'src': '/static/foodstim60/tacos.jpg', 'key': 'u', 'origWidth': 411, 'origHeight': 411, 'width': 411, 'height': 411, 'widthPercent': 0.45, 'rescaleHeight': False, 'trialN': 32, 'loaded': True, 'loadedTime': 2159.199999988079, 'positionName': 'LEFT', 'positionCoords': [510.6, 334.5], 'bid': 2.93}, {'imgObject': {}, 'id': 'edamame', 'src': '/static/foodstim60/edamame.jpg', 'key': 'i', 'origWidth': 409, 'origHeight': 410, 'width': 409, 'height': 410, 'widthPercent': 0.45, 'rescaleHeight': False, 'trialN': 32, 'loaded': True, 'loadedTime': 2104.699999988079, 'positionName': 'RIGHT', 'positionCoords': [998.4, 335], 'bid': 0.08}]",52452.19999998808,1669836943398,tacos,edamame,2.93,0.08,-2.85,edamame,1140.4000000059605,1141,1140.9000000059605,True,i,54101.69999998808,1649.5,1669836945048,1650,HRV,HRV_0249,2022-11-30 19:40:21
33,"[{'imgObject': {}, 'id': 'corn cob', 'src': '/static/foodstim60/corn cob.jpg', 'key': 'u', 'origWidth': 411, 'origHeight': 411, 'width': 411, 'height': 411, 'widthPercent': 0.45, 'rescaleHeight': False, 'trialN': 33, 'loaded': True, 'loadedTime': 2232.199999988079, 'positionName': 'LEFT', 'positionCoords': [510.6, 334.5], 'bid': 6.13}, {'imgObject': {}, 'id': 'banana', 'src': '/static/foodstim60/banana.jpg', 'key': 'i', 'origWidth': 410, 'origHeight': 410, 'width': 410, 'height': 410, 'widthPercent': 0.45, 'rescaleHeight': False, 'trialN': 33, 'loaded': True, 'loadedTime': 2258.5, 'positionName': 'RIGHT', 'positionCoords': [998.4, 335], 'bid': 6.21}]",54101.90000000596,1669836945048,corn cob,banana,6.13,6.21,0.08000000000000007,banana,1226.0,1226,1226.5,True,i,55835.59999999404,1733.699999988079,1669836946782,1734,HRV,HRV_0249,2022-11-30 19:40:21
34,"[{'imgObject': {}, 'id': 'turkey sandwich', 'src': '/static/foodstim60/turkey sandwich.jpg', 'key': 'u', 'origWidth': 409, 'origHeight': 409, 'width': 409, 'height': 409, 'widthPercent': 0.45, 'rescaleHeight': False, 'trialN': 34, 'loaded': True, 'loadedTime': 2236.5, 'positionName': 'LEFT', 'positionCoords': [512.6, 335.5], 'bid': 7.66}, {'imgObject': {}, 'id': 'omelette', 'src': '/static/foodstim60/omelette.jpg', 'key': 'i', 'origWidth': 410, 'origHeight': 409, 'width': 410, 'height': 409, 'widthPercent': 0.45, 'rescaleHeight': False, 'trialN': 34, 'loaded': True, 'loadedTime': 2265.9000000059605, 'positionName': 'RIGHT', 'positionCoords': [998.4, 335.5], 'bid': 6.55}]",55835.90000000596,1669836946782,turkey sandwich,omelette,7.66,6.55,-1.1100000000000003,turkey sandwich,1180.0999999940395,1180,1180.5999999940395,True,u,57521.69999998808,1685.7999999821186,1669836948468,1686,HRV,HRV_0249,2022-11-30 19:40:21
35,"[{'imgObject': {}, 'id': 'salad w chicken', 'src': '/static/foodstim60/salad w chicken.jpg', 'key': 'u', 'origWidth': 411, 'origHeight': 411, 'width': 411, 'height': 411, 'widthPercent': 0.45, 'rescaleHeight': False, 'trialN': 35, 'loaded': True, 'loadedTime': 2192.199999988079, 'positionName': 'LEFT', 'positionCoords': [510.6, 334.5], 'bid': 4.4}, {'imgObject': {}, 'id': 'grilled chicken strips', 'src': '/static/foodstim60/grilled chicken strips.jpg', 'key': 'i', 'origWidth': 410, 'origHeight': 411, 'width': 410, 'height': 411, 'widthPercent': 0.45, 'rescaleHeight': False, 'trialN': 35, 'loaded': True, 'loadedTime': 1894.199999988079, 'positionName': 'RIGHT', 'positionCoords': [998.4, 334.5], 'bid': 4.22}]",57521.90000000596,1669836948468,salad w chicken,grilled chicken strips,4.4,4.22,-0.1800000000000006,salad w chicken,1173.9000000059605,1174,1174.4000000059605,True,u,59207.5,1685.5999999940395,1669836950153,1685,HRV,HRV_0249,2022-11-30 19:40:21
36,"[{'imgObject': {}, 'id': 'avocado', 'src': '/static/foodstim60/avocado.jpg', 'key': 'u', 'origWidth': 409, 'origHeight': 409, 'width': 409, 'height': 409, 'widthPercent': 0.45, 'rescaleHeight': False, 'trialN': 36, 'loaded': True, 'loadedTime': 2066.300000011921, 'positionName': 'LEFT', 'positionCoords': [512.6, 335.5], 'bid': 6.95}, {'imgObject': {}, 'id': 'edamame', 'src': '/static/foodstim60/edamame.jpg', 'key': 'i', 'origWidth': 409, 'origHeight': 410, 'width': 409, 'height': 410, 'widthPercent': 0.45, 'rescaleHeight': False, 'trialN': 36, 'loaded': True, 'loadedTime': 2105.0999999940395, 'positionName': 'RIGHT', 'positionCoords': [998.4, 335], 'bid': 0.08}]",59207.80000001192,1669836950154,avocado,edamame,6.95,0.08,-6.87,avocado,1144.0,1144,1144.5999999940395,True,u,60865.0,1657.199999988079,1669836951811,1657,HRV,HRV_0249,2022-11-30 19:40:21
37,"[{'imgObject': {}, 'id': 'corn cob', 'src': '/static/foodstim60/corn cob.jpg', 'key': 'u', 'origWidth': 411, 'origHeight': 411, 'width': 411, 'height': 411, 'widthPercent': 0.45, 'rescaleHeight': False, 'trialN': 37, 'loaded': True, 'loadedTime': 2223.0999999940395, 'positionName': 'LEFT', 'positionCoords': [510.6, 334.5], 'bid': 6.13}, {'imgObject': {}, 'id': 'Grapes', 'src': '/static/foodstim60/Grapes.jpg', 'key': 'i', 'origWidth': 411, 'origHeight': 411, 'width': 411, 'height': 411, 'widthPercent': 0.45, 'rescaleHeight': False, 'trialN': 37, 'loaded': True, 'loadedTime': 2273.5999999940395, 'positionName': 'RIGHT', 'positionCoords': [998.4, 334.5], 'bid': 6.6000000000000005}]",60865.19999998808,1669836951811,corn cob,Grapes,6.13,6.6000000000000005,0.47000000000000064,corn cob,1110.7000000178814,1111,1111.1000000238419,True,u,62484.80000001192,1619.6000000238419,1669836953431,1620,HRV,HRV_0249,2022-11-30 19:40:21
38,"[{'imgObject': {}, 'id': 'mac & cheese', 'src': '/static/foodstim60/mac & cheese.jpg', 'key': 'u', 'origWidth': 410, 'origHeight': 410, 'width': 410, 'height': 410, 'widthPercent': 0.45, 'rescaleHeight': False, 'trialN': 38, 'loaded': True, 'loadedTime': 2274.5, 'positionName': 'LEFT', 'positionCoords': [511.6, 335], 'bid': 8.67}, {'imgObject': {}, 'id': 'burger', 'src': '/static/foodstim60/burger.jpg', 'key': 'i', 'origWidth': 409, 'origHeight': 409, 'width': 409, 'height': 409, 'widthPercent': 0.45, 'rescaleHeight': False, 'trialN': 38, 'loaded': True, 'loadedTime': 2152.300000011921, 'positionName': 'RIGHT', 'positionCoords': [998.4, 335.5], 'bid': 8.41}]",62485.09999999404,1669836953431,mac & cheese,burger,8.67,8.41,-0.2599999999999998,burger,1139.5999999940395,1140,1140.0,True,i,64135.59999999404,1650.5,1669836955081,1650,HRV,HRV_0249,2022-11-30 19:40:21
39,"[{'imgObject': {}, 'id': 'omelette', 'src': '/static/foodstim60/omelette.jpg', 'key': 'u', 'origWidth': 410, 'origHeight': 409, 'width': 410, 'height': 409, 'widthPercent': 0.45, 'rescaleHeight': False, 'trialN': 39, 'loaded': True, 'loadedTime': 2258.699999988079, 'positionName': 'LEFT', 'positionCoords': [511.6, 335.5], 'bid': 6.55}, {'imgObject': {}, 'id': 'Grapes', 'src': '/static/foodstim60/Grapes.jpg', 'key': 'i', 'origWidth': 411, 'origHeight': 411, 'width': 411, 'height': 411, 'widthPercent': 0.45, 'rescaleHeight': False, 'trialN': 39, 'loaded': True, 'loadedTime': 2266.800000011921, 'positionName': 'RIGHT', 'positionCoords': [998.4, 334.5], 'bid': 6.6000000000000005}]",64135.80000001192,1669836955082,omelette,Grapes,6.55,6.6000000000000005,0.05000000000000071,omelette,1184.0,1184,1184.5,True,u,65836.19999998808,1700.3999999761581,1669836956782,1700,HRV,HRV_0249,2022-11-30 19:40:21
40,"[{'imgObject': {}, 'id': 'mac & cheese', 'src': '/static/foodstim60/mac & cheese.jpg', 'key': 'u', 'origWidth': 410, 'origHeight': 410, 'width': 410, 'height': 410, 'widthPercent': 0.45, 'rescaleHeight': False, 'trialN': 40, 'loaded': True, 'loadedTime': 2273.699999988079, 'positionName': 'LEFT', 'positionCoords': [511.6, 335], 'bid': 8.67}, {'imgObject': {}, 'id': 'cantaloupe', 'src': '/static/foodstim60/cantaloupe.jpg', 'key': 'i', 'origWidth': 409, 'origHeight': 409, 'width': 409, 'height': 409, 'widthPercent': 0.45, 'rescaleHeight': False, 'trialN': 40, 'loaded': True, 'loadedTime': 2113.300000011921, 'positionName': 'RIGHT', 'positionCoords': [998.4, 335.5], 'bid': 7.35}]",65836.40000000596,1669836956782,mac & cheese,cantaloupe,8.67,7.35,-1.3200000000000003,cantaloupe,1171.2999999821186,1172,1171.9000000059605,True,i,67522.59999999404,1686.199999988079,1669836958468,1686,HRV,HRV_0249,2022-11-30 19:40:21
41,"[{'imgObject': {}, 'id': 'popsicles', 'src': '/static/foodstim60/popsicles.jpg', 'key': 'u', 'origWidth': 410, 'origHeight': 410, 'width': 410, 'height': 410, 'widthPercent': 0.45, 'rescaleHeight': False, 'trialN': 41, 'loaded': True, 'loadedTime': 2334, 'positionName': 'LEFT', 'positionCoords': [511.6, 335], 'bid': 3.67}, {'imgObject': {}, 'id': 'veggieswithdip', 'src': '/static/foodstim60/veggieswithdip.jpg', 'key': 'i', 'origWidth': 409, 'origHeight': 409, 'width': 409, 'height': 409, 'widthPercent': 0.45, 'rescaleHeight': False, 'trialN': 41, 'loaded': True, 'loadedTime': 2275.300000011921, 'positionName': 'RIGHT', 'positionCoords': [998.4, 335.5], 'bid': 5.07}]",67522.90000000596,1669836958469,popsicles,veggieswithdip,3.67,5.07,1.4000000000000004,veggieswithdip,1140.7999999821186,1141,1141.2999999821186,True,i,69176.5,1653.5999999940395,1669836960122,1653,HRV,HRV_0249,2022-11-30 19:40:21
42,"[{'imgObject': {}, 'id': 'turkey sandwich', 'src': '/static/foodstim60/turkey sandwich.jpg', 'key': 'u', 'origWidth': 409, 'origHeight': 409, 'width': 409, 'height': 409, 'widthPercent': 0.45, 'rescaleHeight': False, 'trialN': 42, 'loaded': True, 'loadedTime': 2236.4000000059605, 'positionName': 'LEFT', 'positionCoords': [512.6, 335.5], 'bid': 7.66}, {'imgObject': {}, 'id': 'corn cob', 'src': '/static/foodstim60/corn cob.jpg', 'key': 'i', 'origWidth': 411, 'origHeight': 411, 'width': 411, 'height': 411, 'widthPercent': 0.45, 'rescaleHeight': False, 'trialN': 42, 'loaded': True, 'loadedTime': 2224, 'positionName': 'RIGHT', 'positionCoords': [998.4, 334.5], 'bid': 6.13}]",69176.80000001192,1669836960123,turkey sandwich,corn cob,7.66,6.13,-1.5300000000000002,turkey sandwich,935.0,935,935.5,True,u,70620.19999998808,1443.3999999761581,1669836961566,1443,HRV,HRV_0249,2022-11-30 19:40:21
43,"[{'imgObject': {}, 'id': 'chickenfingers', 'src': '/static/foodstim60/chickenfingers.jpg', 'key': 'u', 'origWidth': 410, 'origHeight': 410, 'width': 410, 'height': 410, 'widthPercent': 0.45, 'rescaleHeight': False, 'trialN': 43, 'loaded': True, 'loadedTime': 2144.5, 'positionName': 'LEFT', 'positionCoords': [511.6, 335], 'bid': 0.02}, {'imgObject': {}, 'id': 'salmon', 'src': '/static/foodstim60/salmon.jpg', 'key': 'i', 'origWidth': 410, 'origHeight': 409, 'width': 410, 'height': 409, 'widthPercent': 0.45, 'rescaleHeight': False, 'trialN': 43, 'loaded': True, 'loadedTime': 2275.5, 'positionName': 'RIGHT', 'positionCoords': [998.4, 335.5], 'bid': 2.01}]",70620.5,1669836961566,chickenfingers,salmon,0.02,2.01,1.9899999999999998,chickenfingers,1387.300000011921,1388,1387.9000000059605,True,u,72519.0,1898.5,1669836963465,1899,HRV,HRV_0249,2022-11-30 19:40:21
44,"[{'imgObject': {}, 'id': 'yogurt no spoon', 'src': '/static/foodstim60/yogurt no spoon.jpg', 'key': 'u', 'origWidth': 411, 'origHeight': 410, 'width': 411, 'height': 410, 'widthPercent': 0.45, 'rescaleHeight': False, 'trialN': 44, 'loaded': True, 'loadedTime': 2291.5999999940395, 'positionName': 'LEFT', 'positionCoords': [510.6, 335], 'bid': 0.04}, {'imgObject': {}, 'id': 'blackbeanswithrice', 'src': '/static/foodstim60/blackbeanswithrice.jpg', 'key': 'i', 'origWidth': 410, 'origHeight': 410, 'width': 410, 'height': 410, 'widthPercent': 0.45, 'rescaleHeight': False, 'trialN': 44, 'loaded': True, 'loadedTime': 2293, 'positionName': 'RIGHT', 'positionCoords': [998.4, 335], 'bid': 0.05}]",72519.19999998808,1669836963465,yogurt no spoon,blackbeanswithrice,0.04,0.05,0.010000000000000002,yogurt no spoon,1169.5,1170,1170.0,True,u,74202.59999999404,1683.4000000059605,1669836965148,1683,HRV,HRV_0249,2022-11-30 19:40:21
45,"[{'imgObject': {}, 'id': 'steak', 'src': '/static/foodstim60/steak.jpg', 'key': 'u', 'origWidth': 410, 'origHeight': 410, 'width': 410, 'height': 410, 'widthPercent': 0.45, 'rescaleHeight': False, 'trialN': 45, 'loaded': True, 'loadedTime': 1880.5, 'positionName': 'LEFT', 'positionCoords': [511.6, 335], 'bid': 7.91}, {'imgObject': {}, 'id': 'shreddedwheatwithmilk', 'src': '/static/foodstim60/shreddedwheatwithmilk.jpg', 'key': 'i', 'origWidth': 410, 'origHeight': 410, 'width': 410, 'height': 410, 'widthPercent': 0.45, 'rescaleHeight': False, 'trialN': 45, 'loaded': True, 'loadedTime': 2207.199999988079, 'positionName': 'RIGHT', 'positionCoords': [998.4, 335], 'bid': 3.61}]",74202.90000000596,1669836965149,steak,shreddedwheatwithmilk,7.91,3.61,-4.300000000000001,steak,1244.4000000059605,1244,1244.5999999940395,True,u,75966.80000001192,1763.9000000059605,1669836966913,1764,HRV,HRV_0249,2022-11-30 19:40:21
46,"[{'imgObject': {}, 'id': 'salmon', 'src': '/static/foodstim60/salmon.jpg', 'key': 'u', 'origWidth': 410, 'origHeight': 409, 'width': 410, 'height': 409, 'widthPercent': 0.45, 'rescaleHeight': False, 'trialN': 46, 'loaded': True, 'loadedTime': 2276.0999999940395, 'positionName': 'LEFT', 'positionCoords': [511.6, 335.5], 'bid': 2.01}, {'imgObject': {}, 'id': 'blackbeanswithrice', 'src': '/static/foodstim60/blackbeanswithrice.jpg', 'key': 'i', 'origWidth': 410, 'origHeight': 410, 'width': 410, 'height': 410, 'widthPercent': 0.45, 'rescaleHeight': False, 'trialN': 46, 'loaded': True, 'loadedTime': 2293.199999988079, 'positionName': 'RIGHT', 'positionCoords': [998.4, 335], 'bid': 0.05}]",75967.09999999404,1669836966913,salmon,blackbeanswithrice,2.01,0.05,-1.9599999999999997,salmon,1288.5999999940395,1289,1289.2000000178814,True,u,77772.30000001192,1805.2000000178814,1669836968718,1805,HRV,HRV_0249,2022-11-30 19:40:21
47,"[{'imgObject': {}, 'id': 'Grapes', 'src': '/static/foodstim60/Grapes.jpg', 'key': 'u', 'origWidth': 411, 'origHeight': 411, 'width': 411, 'height': 411, 'widthPercent': 0.45, 'rescaleHeight': False, 'trialN': 47, 'loaded': True, 'loadedTime': 2266.800000011921, 'positionName': 'LEFT', 'positionCoords': [510.6, 334.5], 'bid': 6.6000000000000005}, {'imgObject': {}, 'id': 'mac & cheese', 'src': '/static/foodstim60/mac & cheese.jpg', 'key': 'i', 'origWidth': 410, 'origHeight': 410, 'width': 410, 'height': 410, 'widthPercent': 0.45, 'rescaleHeight': False, 'trialN': 47, 'loaded': True, 'loadedTime': 2274.5999999940395, 'positionName': 'RIGHT', 'positionCoords': [998.4, 335], 'bid': 8.67}]",77772.5,1669836968718,Grapes,mac & cheese,6.6000000000000005,8.67,2.0699999999999994,Grapes,1386.699999988079,1387,1387.0,True,u,79679.0,1906.5,1669836970625,1907,HRV,HRV_0249,2022-11-30 19:40:21
48,"[{'imgObject': {}, 'id': 'yogurt no spoon', 'src': '/static/foodstim60/yogurt no spoon.jpg', 'key': 'u', 'origWidth': 411, 'origHeight': 410, 'width': 411, 'height': 410, 'widthPercent': 0.45, 'rescaleHeight': False, 'trialN': 48, 'loaded': True, 'loadedTime': 2291.199999988079, 'positionName': 'LEFT', 'positionCoords': [510.6, 335], 'bid': 0.04}, {'imgObject': {}, 'id': 'cocktailshrimp', 'src': '/static/foodstim60/cocktailshrimp.jpg', 'key': 'i', 'origWidth': 410, 'origHeight': 410, 'width': 410, 'height': 410, 'widthPercent': 0.45, 'rescaleHeight': False, 'trialN': 48, 'loaded': True, 'loadedTime': 2082.9000000059605, 'positionName': 'RIGHT', 'positionCoords': [998.4, 335], 'bid': 0}]",79679.30000001192,1669836970625,yogurt no spoon,cocktailshrimp,0.04,0.0,-0.04,yogurt no spoon,1032.3999999761581,1033,1032.8999999761581,True,u,81223.19999998808,1543.8999999761581,1669836972169,1544,HRV,HRV_0249,2022-11-30 19:40:21
49,"[{'imgObject': {}, 'id': 'bagel and cc', 'src': '/static/foodstim60/bagel and cc.jpg', 'key': 'u', 'origWidth': 410, 'origHeight': 410, 'width': 410, 'height': 410, 'widthPercent': 0.45, 'rescaleHeight': False, 'trialN': 49, 'loaded': True, 'loadedTime': 2301.4000000059605, 'positionName': 'LEFT', 'positionCoords': [511.6, 335], 'bid': 5.26}, {'imgObject': {}, 'id': 'cheerios', 'src': '/static/foodstim60/cheerios.jpg', 'key': 'i', 'origWidth': 409, 'origHeight': 410, 'width': 409, 'height': 410, 'widthPercent': 0.45, 'rescaleHeight': False, 'trialN': 49, 'loaded': True, 'loadedTime': 2302.4000000059605, 'positionName': 'RIGHT', 'positionCoords': [998.4, 335], 'bid': 5.5}]",81223.40000000596,1669836972169,bagel and cc,cheerios,5.26,5.5,0.2400000000000002,cheerios,1048.4000000059605,1049,1048.9000000059605,True,i,82786.0,1562.5999999940395,1669836973732,1563,HRV,HRV_0249,2022-11-30 19:40:21
50,"[{'imgObject': {}, 'id': 'avocado', 'src': '/static/foodstim60/avocado.jpg', 'key': 'u', 'origWidth': 409, 'origHeight': 409, 'width': 409, 'height': 409, 'widthPercent': 0.45, 'rescaleHeight': False, 'trialN': 50, 'loaded': True, 'loadedTime': 2066, 'positionName': 'LEFT', 'positionCoords': [512.6, 335.5], 'bid': 6.95}, {'imgObject': {}, 'id': 'pear', 'src': '/static/foodstim60/pear.jpg', 'key': 'i', 'origWidth': 411, 'origHeight': 410, 'width': 411, 'height': 410, 'widthPercent': 0.45, 'rescaleHeight': False, 'trialN': 50, 'loaded': True, 'loadedTime': 1957.800000011921, 'positionName': 'RIGHT', 'positionCoords': [998.4, 335], 'bid': 6.84}]",82786.30000001192,1669836973732,avocado,pear,6.95,6.84,-0.11000000000000032,avocado,1101.0,1101,1101.199999988079,True,u,84402.5,1616.199999988079,1669836975348,1616,HRV,HRV_0249,2022-11-30 19:40:21
51,"[{'imgObject': {}, 'id': 'rigatoni', 'src': '/static/foodstim60/rigatoni.jpg', 'key': 'u', 'origWidth': 411, 'origHeight': 411, 'width': 411, 'height': 411, 'widthPercent': 0.45, 'rescaleHeight': False, 'trialN': 51, 'loaded': True, 'loadedTime': 2309.300000011921, 'positionName': 'LEFT', 'positionCoords': [510.6, 334.5], 'bid': 1.75}, {'imgObject': {}, 'id': 'chicken nuggets2', 'src': '/static/foodstim60/chicken nuggets2.jpg', 'key': 'i', 'origWidth': 410, 'origHeight': 409, 'width': 410, 'height': 409, 'widthPercent': 0.45, 'rescaleHeight': False, 'trialN': 51, 'loaded': True, 'loadedTime': 1934.5, 'positionName': 'RIGHT', 'positionCoords': [998.4, 335.5], 'bid': 0.64}]",84402.59999999404,1669836975348,rigatoni,chicken nuggets2,1.75,0.64,-1.1099999999999999,chicken nuggets2,1220.5,1221,1220.800000011921,True,i,86135.40000000596,1732.800000011921,1669836977081,1733,HRV,HRV_0249,2022-11-30 19:40:21
52,"[{'imgObject': {}, 'id': 'mashed potato', 'src': '/static/foodstim60/mashed potato.jpg', 'key': 'u', 'origWidth': 409, 'origHeight': 409, 'width': 409, 'height': 409, 'widthPercent': 0.45, 'rescaleHeight': False, 'trialN': 52, 'loaded': True, 'loadedTime': 2105.9000000059605, 'positionName': 'LEFT', 'positionCoords': [512.6, 335.5], 'bid': 0}, {'imgObject': {}, 'id': 'Tribe humus pita', 'src': '/static/foodstim60/Tribe humus pita.jpg', 'key': 'i', 'origWidth': 411, 'origHeight': 411, 'width': 411, 'height': 411, 'widthPercent': 0.45, 'rescaleHeight': False, 'trialN': 52, 'loaded': True, 'loadedTime': 1918.4000000059605, 'positionName': 'RIGHT', 'positionCoords': [998.4, 334.5], 'bid': 5.03}]",86135.59999999404,1669836977081,mashed potato,Tribe humus pita,0.0,5.03,5.03,Tribe humus pita,1104.2000000178814,1105,1104.7000000178814,True,i,87756.69999998808,1621.0999999940395,1669836978703,1622,HRV,HRV_0249,2022-11-30 19:40:21
53,"[{'imgObject': {}, 'id': 'apple slices', 'src': '/static/foodstim60/apple slices.jpg', 'key': 'u', 'origWidth': 409, 'origHeight': 410, 'width': 409, 'height': 410, 'widthPercent': 0.45, 'rescaleHeight': False, 'trialN': 53, 'loaded': True, 'loadedTime': 2309.4000000059605, 'positionName': 'LEFT', 'positionCoords': [512.6, 335], 'bid': 7.44}, {'imgObject': {}, 'id': 'cantaloupe', 'src': '/static/foodstim60/cantaloupe.jpg', 'key': 'i', 'origWidth': 409, 'origHeight': 409, 'width': 409, 'height': 409, 'widthPercent': 0.45, 'rescaleHeight': False, 'trialN': 53, 'loaded': True, 'loadedTime': 2113.0999999940395, 'positionName': 'RIGHT', 'positionCoords': [998.4, 335.5], 'bid': 7.35}]",87756.90000000596,1669836978703,apple slices,cantaloupe,7.44,7.35,-0.09000000000000075,cantaloupe,1034.9000000059605,1035,1035.5,True,i,89302.69999998808,1545.7999999821186,1669836980249,1546,HRV,HRV_0249,2022-11-30 19:40:21
54,"[{'imgObject': {}, 'id': 'chicken nuggets2', 'src': '/static/foodstim60/chicken nuggets2.jpg', 'key': 'u', 'origWidth': 410, 'origHeight': 409, 'width': 410, 'height': 409, 'widthPercent': 0.45, 'rescaleHeight': False, 'trialN': 54, 'loaded': True, 'loadedTime': 1935.199999988079, 'positionName': 'LEFT', 'positionCoords': [511.6, 335.5], 'bid': 0.64}, {'imgObject': {}, 'id': 'roastedpotatoes', 'src': '/static/foodstim60/roastedpotatoes.jpg', 'key': 'i', 'origWidth': 409, 'origHeight': 410, 'width': 409, 'height': 410, 'widthPercent': 0.45, 'rescaleHeight': False, 'trialN': 54, 'loaded': True, 'loadedTime': 2238, 'positionName': 'RIGHT', 'positionCoords': [998.4, 335], 'bid': 3.12}]",89302.90000000596,1669836980249,chicken nuggets2,roastedpotatoes,0.64,3.12,2.48,chicken nuggets2,1056.9000000059605,1057,1057.4000000059605,True,u,90865.5,1562.5999999940395,1669836981811,1562,HRV,HRV_0249,2022-11-30 19:40:21
55,"[{'imgObject': {}, 'id': 'olives', 'src': '/static/foodstim60/olives.jpg', 'key': 'u', 'origWidth': 410, 'origHeight': 410, 'width': 410, 'height': 410, 'widthPercent': 0.45, 'rescaleHeight': False, 'trialN': 55, 'loaded': True, 'loadedTime': 2182.4000000059605, 'positionName': 'LEFT', 'positionCoords': [511.6, 335], 'bid': 0}, {'imgObject': {}, 'id': 'rigatoni and sauce', 'src': '/static/foodstim60/rigatoni and sauce.jpg', 'key': 'i', 'origWidth': 410, 'origHeight': 411, 'width': 410, 'height': 411, 'widthPercent': 0.45, 'rescaleHeight': False, 'trialN': 55, 'loaded': True, 'loadedTime': 2216.5999999940395, 'positionName': 'RIGHT', 'positionCoords': [998.4, 334.5], 'bid': 0.04}]",90865.80000001192,1669836981812,olives,rigatoni and sauce,0.0,0.04,0.04,rigatoni and sauce,870.0,870,870.5,True,i,92252.69999998808,1386.8999999761581,1669836983199,1387,HRV,HRV_0249,2022-11-30 19:40:21
56,"[{'imgObject': {}, 'id': 'yogurt no spoon', 'src': '/static/foodstim60/yogurt no spoon.jpg', 'key': 'u', 'origWidth': 411, 'origHeight': 410, 'width': 411, 'height': 410, 'widthPercent': 0.45, 'rescaleHeight': False, 'trialN': 56, 'loaded': True, 'loadedTime': 2291.800000011921, 'positionName': 'LEFT', 'positionCoords': [510.6, 335], 'bid': 0.04}, {'imgObject': {}, 'id': 'raspberries', 'src': '/static/foodstim60/raspberries.jpg', 'key': 'i', 'origWidth': 411, 'origHeight': 411, 'width': 411, 'height': 411, 'widthPercent': 0.45, 'rescaleHeight': False, 'trialN': 56, 'loaded': True, 'loadedTime': 2167, 'positionName': 'RIGHT', 'positionCoords': [998.4, 334.5], 'bid': 3.35}]",92253.0,1669836983199,yogurt no spoon,raspberries,0.04,3.35,3.31,yogurt no spoon,1314.0999999940395,1314,1314.4000000059605,True,u,94085.40000000596,1832.4000000059605,1669836985031,1832,HRV,HRV_0249,2022-11-30 19:40:21
57,"[{'imgObject': {}, 'id': 'seaweed', 'src': '/static/foodstim60/seaweed.jpg', 'key': 'u', 'origWidth': 410, 'origHeight': 410, 'width': 410, 'height': 410, 'widthPercent': 0.45, 'rescaleHeight': False, 'trialN': 57, 'loaded': True, 'loadedTime': 1950.300000011921, 'positionName': 'LEFT', 'positionCoords': [511.6, 335], 'bid': 0.65}, {'imgObject': {}, 'id': 'salmon', 'src': '/static/foodstim60/salmon.jpg', 'key': 'i', 'origWidth': 410, 'origHeight': 409, 'width': 410, 'height': 409, 'widthPercent': 0.45, 'rescaleHeight': False, 'trialN': 57, 'loaded': True, 'loadedTime': 2283.5999999940395, 'positionName': 'RIGHT', 'positionCoords': [998.4, 335.5], 'bid': 2.01}]",94085.69999998808,1669836985032,seaweed,salmon,0.65,2.01,1.3599999999999999,salmon,1043.0,1043,1043.6000000238419,True,i,95632.90000000596,1547.2000000178814,1669836986579,1547,HRV,HRV_0249,2022-11-30 19:40:21
58,"[{'imgObject': {}, 'id': 'bagel plain', 'src': '/static/foodstim60/bagel plain.jpg', 'key': 'u', 'origWidth': 410, 'origHeight': 410, 'width': 410, 'height': 410, 'widthPercent': 0.45, 'rescaleHeight': False, 'trialN': 58, 'loaded': True, 'loadedTime': 1979.5999999940395, 'positionName': 'LEFT', 'positionCoords': [511.6, 335], 'bid': 4.21}, {'imgObject': {}, 'id': 'granola w milk', 'src': '/static/foodstim60/granola w milk.jpg', 'key': 'i', 'origWidth': 410, 'origHeight': 410, 'width': 410, 'height': 410, 'widthPercent': 0.45, 'rescaleHeight': False, 'trialN': 58, 'loaded': True, 'loadedTime': 2074.800000011921, 'positionName': 'RIGHT', 'positionCoords': [998.4, 335], 'bid': 0.07}]",95633.09999999404,1669836986579,bagel plain,granola w milk,4.21,0.07,-4.14,granola w milk,1246.7000000178814,1247,1247.2000000178814,True,i,97399.69999998808,1766.5999999940395,1669836988346,1767,HRV,HRV_0249,2022-11-30 19:40:21
59,"[{'imgObject': {}, 'id': 'bagel and cc', 'src': '/static/foodstim60/bagel and cc.jpg', 'key': 'u', 'origWidth': 410, 'origHeight': 410, 'width': 410, 'height': 410, 'widthPercent': 0.45, 'rescaleHeight': False, 'trialN': 59, 'loaded': True, 'loadedTime': 2301, 'positionName': 'LEFT', 'positionCoords': [511.6, 335], 'bid': 5.26}, {'imgObject': {}, 'id': 'cocktailshrimp', 'src': '/static/foodstim60/cocktailshrimp.jpg', 'key': 'i', 'origWidth': 410, 'origHeight': 410, 'width': 410, 'height': 410, 'widthPercent': 0.45, 'rescaleHeight': False, 'trialN': 59, 'loaded': True, 'loadedTime': 2089.9000000059605, 'positionName': 'RIGHT', 'positionCoords': [998.4, 335], 'bid': 0}]",97400.09999999404,1669836988346,bagel and cc,cocktailshrimp,5.26,0.0,-5.26,bagel and cc,991.7000000178814,992,992.2000000178814,True,u,98896.90000000596,1496.800000011921,1669836989843,1497,HRV,HRV_0249,2022-11-30 19:40:21
60,"[{'imgObject': {}, 'id': 'steak', 'src': '/static/foodstim60/steak.jpg', 'key': 'u', 'origWidth': 410, 'origHeight': 410, 'width': 410, 'height': 410, 'widthPercent': 0.45, 'rescaleHeight': False, 'trialN': 60, 'loaded': True, 'loadedTime': 1880.199999988079, 'positionName': 'LEFT', 'positionCoords': [511.6, 335], 'bid': 7.91}, {'imgObject': {}, 'id': 'turkey sandwich', 'src': '/static/foodstim60/turkey sandwich.jpg', 'key': 'i', 'origWidth': 409, 'origHeight': 409, 'width': 409, 'height': 409, 'widthPercent': 0.45, 'rescaleHeight': False, 'trialN': 60, 'loaded': True, 'loadedTime': 2236.4000000059605, 'positionName': 'RIGHT', 'positionCoords': [998.4, 335.5], 'bid': 7.66}]",98897.19999998808,1669836989843,steak,turkey sandwich,7.91,7.66,-0.25,steak,1022.6000000238419,1018,1023.2000000178814,True,u,100435.80000001192,1538.6000000238419,1669836991376,1533,HRV,HRV_0249,2022-11-30 19:40:21
61,"[{'imgObject': {}, 'id': 'orange slices', 'src': '/static/foodstim60/orange slices.jpg', 'key': 'u', 'origWidth': 409, 'origHeight': 410, 'width': 409, 'height': 410, 'widthPercent': 0.45, 'rescaleHeight': False, 'trialN': 61, 'loaded': True, 'loadedTime': 2319.800000011921, 'positionName': 'LEFT', 'positionCoords': [512.6, 335], 'bid': 5.86}, {'imgObject': {}, 'id': 'hashbrowns', 'src': '/static/foodstim60/hashbrowns.jpg', 'key': 'i', 'origWidth': 411, 'origHeight': 410, 'width': 411, 'height': 410, 'widthPercent': 0.45, 'rescaleHeight': False, 'trialN': 61, 'loaded': True, 'loadedTime': 2320.199999988079, 'positionName': 'RIGHT', 'positionCoords': [998.4, 335], 'bid': 0.03}]",100436.09999999404,1669836991377,orange slices,hashbrowns,5.86,0.03,-5.83,orange slices,971.7000000178814,972,972.2000000178814,True,u,101918.40000000596,1482.300000011921,1669836992859,1482,HRV,HRV_0249,2022-11-30 19:40:21
62,"[{'imgObject': {}, 'id': 'sweetpotato', 'src': '/static/foodstim60/sweetpotato.jpg', 'key': 'u', 'origWidth': 410, 'origHeight': 410, 'width': 410, 'height': 410, 'widthPercent': 0.45, 'rescaleHeight': False, 'trialN': 62, 'loaded': True, 'loadedTime': 2023.199999988079, 'positionName': 'LEFT', 'positionCoords': [511.6, 335], 'bid': 0.06}, {'imgObject': {}, 'id': 'yogurt no spoon', 'src': '/static/foodstim60/yogurt no spoon.jpg', 'key': 'i', 'origWidth': 411, 'origHeight': 410, 'width': 411, 'height': 410, 'widthPercent': 0.45, 'rescaleHeight': False, 'trialN': 62, 'loaded': True, 'loadedTime': 2291.9000000059605, 'positionName': 'RIGHT', 'positionCoords': [998.4, 335], 'bid': 0.04}]",101918.69999998808,1669836992859,sweetpotato,yogurt no spoon,0.06,0.04,-0.019999999999999997,yogurt no spoon,929.1000000238419,930,929.6000000238419,True,i,103355.0,1436.300000011921,1669836994295,1436,HRV,HRV_0249,2022-11-30 19:40:21
63,"[{'imgObject': {}, 'id': 'baked potato', 'src': '/static/foodstim60/baked potato.jpg', 'key': 'u', 'origWidth': 409, 'origHeight': 410, 'width': 409, 'height': 410, 'widthPercent': 0.45, 'rescaleHeight': False, 'trialN': 63, 'loaded': True, 'loadedTime': 2241.4000000059605, 'positionName': 'LEFT', 'positionCoords': [512.6, 335], 'bid': 5.51}, {'imgObject': {}, 'id': 'popsicles', 'src': '/static/foodstim60/popsicles.jpg', 'key': 'i', 'origWidth': 410, 'origHeight': 410, 'width': 410, 'height': 410, 'widthPercent': 0.45, 'rescaleHeight': False, 'trialN': 63, 'loaded': True, 'loadedTime': 2334, 'positionName': 'RIGHT', 'positionCoords': [998.4, 335], 'bid': 3.67}]",103355.19999998808,1669836994296,baked potato,popsicles,5.51,3.67,-1.8399999999999999,popsicles,1252.9000000059605,1253,1253.4000000059605,True,i,105115.69999998808,1760.5,1669836996056,1760,HRV,HRV_0249,2022-11-30 19:40:21
64,"[{'imgObject': {}, 'id': 'roastedpotatoes', 'src': '/static/foodstim60/roastedpotatoes.jpg', 'key': 'u', 'origWidth': 409, 'origHeight': 410, 'width': 409, 'height': 410, 'widthPercent': 0.45, 'rescaleHeight': False, 'trialN': 64, 'loaded': True, 'loadedTime': 2238.5, 'positionName': 'LEFT', 'positionCoords': [512.6, 335], 'bid': 3.12}, {'imgObject': {}, 'id': 'raspberries', 'src': '/static/foodstim60/raspberries.jpg', 'key': 'i', 'origWidth': 411, 'origHeight': 411, 'width': 411, 'height': 411, 'widthPercent': 0.45, 'rescaleHeight': False, 'trialN': 64, 'loaded': True, 'loadedTime': 2167.199999988079, 'positionName': 'RIGHT', 'positionCoords': [998.4, 334.5], 'bid': 3.35}]",105116.0,1669836996056,roastedpotatoes,raspberries,3.12,3.35,0.22999999999999998,raspberries,1052.699999988079,1054,1053.199999988079,True,i,106686.59999999404,1570.5999999940395,1669836997627,1571,HRV,HRV_0249,2022-11-30 19:40:21
65,"[{'imgObject': {}, 'id': 'mac & cheese', 'src': '/static/foodstim60/mac & cheese.jpg', 'key': 'u', 'origWidth': 410, 'origHeight': 410, 'width': 410, 'height': 410, 'widthPercent': 0.45, 'rescaleHeight': False, 'trialN': 65, 'loaded': True, 'loadedTime': 2274.5999999940395, 'positionName': 'LEFT', 'positionCoords': [511.6, 335], 'bid': 8.67}, {'imgObject': {}, 'id': 'turkeysandwich', 'src': '/static/foodstim60/turkeysandwich.jpg', 'key': 'i', 'origWidth': 409, 'origHeight': 409, 'width': 409, 'height': 409, 'widthPercent': 0.45, 'rescaleHeight': False, 'trialN': 65, 'loaded': True, 'loadedTime': 2208, 'positionName': 'RIGHT', 'positionCoords': [998.4, 335.5], 'bid': 9.37}]",106686.90000000596,1669836997627,mac & cheese,turkeysandwich,8.67,9.37,0.6999999999999993,turkeysandwich,1056.9000000059605,1058,1057.5,True,i,108251.80000001192,1564.9000000059605,1669836999192,1565,HRV,HRV_0249,2022-11-30 19:40:21
66,"[{'imgObject': {}, 'id': 'cantaloupe', 'src': '/static/foodstim60/cantaloupe.jpg', 'key': 'u', 'origWidth': 409, 'origHeight': 409, 'width': 409, 'height': 409, 'widthPercent': 0.45, 'rescaleHeight': False, 'trialN': 66, 'loaded': True, 'loadedTime': 2120.5, 'positionName': 'LEFT', 'positionCoords': [512.6, 335.5], 'bid': 7.35}, {'imgObject': {}, 'id': 'eggs', 'src': '/static/foodstim60/eggs.jpg', 'key': 'i', 'origWidth': 409, 'origHeight': 409, 'width': 409, 'height': 409, 'widthPercent': 0.45, 'rescaleHeight': False, 'trialN': 66, 'loaded': True, 'loadedTime': 2321.9000000059605, 'positionName': 'RIGHT', 'positionCoords': [998.4, 335.5], 'bid': 7.44}]",108252.09999999404,1669836999193,cantaloupe,eggs,7.35,7.44,0.09000000000000075,cantaloupe,1115.7000000178814,1116,1116.300000011921,True,u,109886.80000001192,1634.7000000178814,1669837000827,1634,HRV,HRV_0249,2022-11-30 19:40:21
67,"[{'imgObject': {}, 'id': 'apple slices', 'src': '/static/foodstim60/apple slices.jpg', 'key': 'u', 'origWidth': 409, 'origHeight': 410, 'width': 409, 'height': 410, 'widthPercent': 0.45, 'rescaleHeight': False, 'trialN': 67, 'loaded': True, 'loadedTime': 2310, 'positionName': 'LEFT', 'positionCoords': [512.6, 335], 'bid': 7.44}, {'imgObject': {}, 'id': 'strawberries', 'src': '/static/foodstim60/strawberries.jpg', 'key': 'i', 'origWidth': 410, 'origHeight': 410, 'width': 410, 'height': 410, 'widthPercent': 0.45, 'rescaleHeight': False, 'trialN': 67, 'loaded': True, 'loadedTime': 2233.4000000059605, 'positionName': 'RIGHT', 'positionCoords': [998.4, 335], 'bid': 2.59}]",109887.0,1669837000828,apple slices,strawberries,7.44,2.59,-4.8500000000000005,apple slices,1112.800000011921,1113,1113.300000011921,True,u,111507.09999999404,1620.0999999940395,1669837002448,1620,HRV,HRV_0249,2022-11-30 19:40:21
68,"[{'imgObject': {}, 'id': 'eggs', 'src': '/static/foodstim60/eggs.jpg', 'key': 'u', 'origWidth': 409, 'origHeight': 409, 'width': 409, 'height': 409, 'widthPercent': 0.45, 'rescaleHeight': False, 'trialN': 68, 'loaded': True, 'loadedTime': 2322, 'positionName': 'LEFT', 'positionCoords': [512.6, 335.5], 'bid': 7.44}, {'imgObject': {}, 'id': 'fried eggs', 'src': '/static/foodstim60/fried eggs.jpg', 'key': 'i', 'origWidth': 410, 'origHeight': 410, 'width': 410, 'height': 410, 'widthPercent': 0.45, 'rescaleHeight': False, 'trialN': 68, 'loaded': True, 'loadedTime': 2002.199999988079, 'positionName': 'RIGHT', 'positionCoords': [998.4, 335], 'bid': 7.97}]",111507.40000000596,1669837002448,eggs,fried eggs,7.44,7.97,0.5299999999999994,fried eggs,1196.4000000059605,1197,1196.9000000059605,True,i,113224.19999998808,1716.7999999821186,1669837004165,1717,HRV,HRV_0249,2022-11-30 19:40:21
69,"[{'imgObject': {}, 'id': 'raisin bran w milk', 'src': '/static/foodstim60/raisin bran w milk.jpg', 'key': 'u', 'origWidth': 411, 'origHeight': 411, 'width': 411, 'height': 411, 'widthPercent': 0.45, 'rescaleHeight': False, 'trialN': 69, 'loaded': True, 'loadedTime': 2019.699999988079, 'positionName': 'LEFT', 'positionCoords': [510.6, 334.5], 'bid': 6.44}, {'imgObject': {}, 'id': 'sushi w_condiments', 'src': '/static/foodstim60/sushi w_condiments.jpg', 'key': 'i', 'origWidth': 410, 'origHeight': 410, 'width': 410, 'height': 410, 'widthPercent': 0.45, 'rescaleHeight': False, 'trialN': 69, 'loaded': True, 'loadedTime': 2241.699999988079, 'positionName': 'RIGHT', 'positionCoords': [998.4, 335], 'bid': 6.51}]",113224.5,1669837004165,raisin bran w milk,sushi w_condiments,6.44,6.51,0.0699999999999994,raisin bran w milk,1262.9000000059605,1263,1263.199999988079,True,u,115005.19999998808,1780.699999988079,1669837005946,1781,HRV,HRV_0249,2022-11-30 19:40:21
70,"[{'imgObject': {}, 'id': 'raisin bran w milk', 'src': '/static/foodstim60/raisin bran w milk.jpg', 'key': 'u', 'origWidth': 411, 'origHeight': 411, 'width': 411, 'height': 411, 'widthPercent': 0.45, 'rescaleHeight': False, 'trialN': 70, 'loaded': True, 'loadedTime': 2018.800000011921, 'positionName': 'LEFT', 'positionCoords': [510.6, 334.5], 'bid': 6.44}, {'imgObject': {}, 'id': 'omelette', 'src': '/static/foodstim60/omelette.jpg', 'key': 'i', 'origWidth': 410, 'origHeight': 409, 'width': 410, 'height': 409, 'widthPercent': 0.45, 'rescaleHeight': False, 'trialN': 70, 'loaded': True, 'loadedTime': 2265.5999999940395, 'positionName': 'RIGHT', 'positionCoords': [998.4, 335.5], 'bid': 6.55}]",115005.40000000596,1669837005946,raisin bran w milk,omelette,6.44,6.55,0.10999999999999943,raisin bran w milk,1363.2999999821186,1364,1363.7999999821186,True,u,116881.59999999404,1876.199999988079,1669837007822,1876,HRV,HRV_0249,2022-11-30 19:40:21
71,"[{'imgObject': {}, 'id': 'chickenfingers', 'src': '/static/foodstim60/chickenfingers.jpg', 'key': 'u', 'origWidth': 410, 'origHeight': 410, 'width': 410, 'height': 410, 'widthPercent': 0.45, 'rescaleHeight': False, 'trialN': 71, 'loaded': True, 'loadedTime': 2136, 'positionName': 'LEFT', 'positionCoords': [511.6, 335], 'bid': 0.02}, {'imgObject': {}, 'id': 'hashbrowns', 'src': '/static/foodstim60/hashbrowns.jpg', 'key': 'i', 'origWidth': 411, 'origHeight': 410, 'width': 411, 'height': 410, 'widthPercent': 0.45, 'rescaleHeight': False, 'trialN': 71, 'loaded': True, 'loadedTime': 2320.9000000059605, 'positionName': 'RIGHT', 'positionCoords': [998.4, 335], 'bid': 0.03}]",116881.90000000596,1669837007822,chickenfingers,hashbrowns,0.02,0.03,0.009999999999999998,chickenfingers,1181.2999999821186,1182,1181.5,True,u,118569.59999999404,1687.699999988079,1669837009510,1688,HRV,HRV_0249,2022-11-30 19:40:21
72,"[{'imgObject': {}, 'id': 'rigatoni and sauce', 'src': '/static/foodstim60/rigatoni and sauce.jpg', 'key': 'u', 'origWidth': 410, 'origHeight': 411, 'width': 410, 'height': 411, 'widthPercent': 0.45, 'rescaleHeight': False, 'trialN': 72, 'loaded': True, 'loadedTime': 2215.4000000059605, 'positionName': 'LEFT', 'positionCoords': [511.6, 334.5], 'bid': 0.04}, {'imgObject': {}, 'id': 'burrito', 'src': '/static/foodstim60/burrito.jpg', 'key': 'i', 'origWidth': 410, 'origHeight': 410, 'width': 410, 'height': 410, 'widthPercent': 0.45, 'rescaleHeight': False, 'trialN': 72, 'loaded': True, 'loadedTime': 2122, 'positionName': 'RIGHT', 'positionCoords': [998.4, 335], 'bid': 0.02}]",118569.80000001192,1669837009510,rigatoni and sauce,burrito,0.04,0.02,-0.02,rigatoni and sauce,1222.0,1223,1222.5999999940395,True,u,120302.90000000596,1733.0999999940395,1669837011243,1733,HRV,HRV_0249,2022-11-30 19:40:21
73,"[{'imgObject': {}, 'id': 'blackbeanswithrice', 'src': '/static/foodstim60/blackbeanswithrice.jpg', 'key': 'u', 'origWidth': 410, 'origHeight': 410, 'width': 410, 'height': 410, 'widthPercent': 0.45, 'rescaleHeight': False, 'trialN': 73, 'loaded': True, 'loadedTime': 2291.9000000059605, 'positionName': 'LEFT', 'positionCoords': [511.6, 335], 'bid': 0.05}, {'imgObject': {}, 'id': 'banana', 'src': '/static/foodstim60/banana.jpg', 'key': 'i', 'origWidth': 410, 'origHeight': 410, 'width': 410, 'height': 410, 'widthPercent': 0.45, 'rescaleHeight': False, 'trialN': 73, 'loaded': True, 'loadedTime': 2258.5, 'positionName': 'RIGHT', 'positionCoords': [998.4, 335], 'bid': 6.21}]",120303.09999999404,1669837011244,blackbeanswithrice,banana,0.05,6.21,6.16,banana,992.7000000178814,993,993.2000000178814,True,i,121804.30000001192,1501.2000000178814,1669837012745,1501,HRV,HRV_0249,2022-11-30 19:40:21
74,"[{'imgObject': {}, 'id': 'kiwi', 'src': '/static/foodstim60/kiwi.jpg', 'key': 'u', 'origWidth': 410, 'origHeight': 410, 'width': 410, 'height': 410, 'widthPercent': 0.45, 'rescaleHeight': False, 'trialN': 74, 'loaded': True, 'loadedTime': 2323, 'positionName': 'LEFT', 'positionCoords': [511.6, 335], 'bid': 4.21}, {'imgObject': {}, 'id': 'bagel and cc', 'src': '/static/foodstim60/bagel and cc.jpg', 'key': 'i', 'origWidth': 410, 'origHeight': 410, 'width': 410, 'height': 410, 'widthPercent': 0.45, 'rescaleHeight': False, 'trialN': 74, 'loaded': True, 'loadedTime': 2293.9000000059605, 'positionName': 'RIGHT', 'positionCoords': [998.4, 335], 'bid': 5.26}]",121804.59999999404,1669837012745,kiwi,bagel and cc,4.21,5.26,1.0499999999999998,kiwi,1051.2000000178814,1052,1051.5999999940395,True,u,123383.40000000596,1578.800000011921,1669837014324,1579,HRV,HRV_0249,2022-11-30 19:40:21
75,"[{'imgObject': {}, 'id': 'luckycharms', 'src': '/static/foodstim60/luckycharms.jpg', 'key': 'u', 'origWidth': 410, 'origHeight': 409, 'width': 410, 'height': 409, 'widthPercent': 0.45, 'rescaleHeight': False, 'trialN': 75, 'loaded': True, 'loadedTime': 2050.4000000059605, 'positionName': 'LEFT', 'positionCoords': [511.6, 335.5], 'bid': 7.1000000000000005}, {'imgObject': {}, 'id': 'bagel and cc', 'src': '/static/foodstim60/bagel and cc.jpg', 'key': 'i', 'origWidth': 410, 'origHeight': 410, 'width': 410, 'height': 410, 'widthPercent': 0.45, 'rescaleHeight': False, 'trialN': 75, 'loaded': True, 'loadedTime': 2293.300000011921, 'positionName': 'RIGHT', 'positionCoords': [998.4, 335], 'bid': 5.26}]",123383.69999998808,1669837014324,luckycharms,bagel and cc,7.1000000000000005,5.26,-1.8400000000000007,luckycharms,824.1000000238419,825,824.7000000178814,True,u,124719.90000000596,1336.2000000178814,1669837015660,1336,HRV,HRV_0249,2022-11-30 19:40:21
76,"[{'imgObject': {}, 'id': 'burger', 'src': '/static/foodstim60/burger.jpg', 'key': 'u', 'origWidth': 409, 'origHeight': 409, 'width': 409, 'height': 409, 'widthPercent': 0.45, 'rescaleHeight': False, 'trialN': 76, 'loaded': True, 'loadedTime': 2145.699999988079, 'positionName': 'LEFT', 'positionCoords': [512.6, 335.5], 'bid': 8.41}, {'imgObject': {}, 'id': 'fruitsalad', 'src': '/static/foodstim60/fruitsalad.jpg', 'key': 'i', 'origWidth': 410, 'origHeight': 410, 'width': 410, 'height': 410, 'widthPercent': 0.45, 'rescaleHeight': False, 'trialN': 76, 'loaded': True, 'loadedTime': 2027.0999999940395, 'positionName': 'RIGHT', 'positionCoords': [998.4, 335], 'bid': 8.48}]",124720.30000001192,1669837015661,burger,fruitsalad,8.41,8.48,0.07000000000000028,burger,1063.199999988079,1063,1063.5999999940395,True,u,126303.19999998808,1582.8999999761581,1669837017244,1583,HRV,HRV_0249,2022-11-30 19:40:21
77,"[{'imgObject': {}, 'id': 'avocado', 'src': '/static/foodstim60/avocado.jpg', 'key': 'u', 'origWidth': 409, 'origHeight': 409, 'width': 409, 'height': 409, 'widthPercent': 0.45, 'rescaleHeight': False, 'trialN': 77, 'loaded': True, 'loadedTime': 2066.5, 'positionName': 'LEFT', 'positionCoords': [512.6, 335.5], 'bid': 6.95}, {'imgObject': {}, 'id': 'Tribe humus pita', 'src': '/static/foodstim60/Tribe humus pita.jpg', 'key': 'i', 'origWidth': 411, 'origHeight': 411, 'width': 411, 'height': 411, 'widthPercent': 0.45, 'rescaleHeight': False, 'trialN': 77, 'loaded': True, 'loadedTime': 1926.800000011921, 'positionName': 'RIGHT', 'positionCoords': [998.4, 334.5], 'bid': 5.03}]",126303.5,1669837017244,avocado,Tribe humus pita,6.95,5.03,-1.92,Tribe humus pita,1049.300000011921,1050,1049.800000011921,True,i,127870.30000001192,1566.800000011921,1669837018811,1567,HRV,HRV_0249,2022-11-30 19:40:21
78,"[{'imgObject': {}, 'id': 'granola w milk', 'src': '/static/foodstim60/granola w milk.jpg', 'key': 'u', 'origWidth': 410, 'origHeight': 410, 'width': 410, 'height': 410, 'widthPercent': 0.45, 'rescaleHeight': False, 'trialN': 78, 'loaded': True, 'loadedTime': 2066.5, 'positionName': 'LEFT', 'positionCoords': [511.6, 335], 'bid': 0.07}, {'imgObject': {}, 'id': 'rigatoni', 'src': '/static/foodstim60/rigatoni.jpg', 'key': 'i', 'origWidth': 411, 'origHeight': 411, 'width': 411, 'height': 411, 'widthPercent': 0.45, 'rescaleHeight': False, 'trialN': 78, 'loaded': True, 'loadedTime': 2309.199999988079, 'positionName': 'RIGHT', 'positionCoords': [998.4, 334.5], 'bid': 1.75}]",127870.59999999404,1669837018811,granola w milk,rigatoni,0.07,1.75,1.68,granola w milk,1025.2000000178814,1026,1025.800000011921,True,u,129415.59999999404,1545.0,1669837020356,1545,HRV,HRV_0249,2022-11-30 19:40:21
79,"[{'imgObject': {}, 'id': 'kiwi', 'src': '/static/foodstim60/kiwi.jpg', 'key': 'u', 'origWidth': 410, 'origHeight': 410, 'width': 410, 'height': 410, 'widthPercent': 0.45, 'rescaleHeight': False, 'trialN': 79, 'loaded': True, 'loadedTime': 2322.5999999940395, 'positionName': 'LEFT', 'positionCoords': [511.6, 335], 'bid': 4.21}, {'imgObject': {}, 'id': 'burger', 'src': '/static/foodstim60/burger.jpg', 'key': 'i', 'origWidth': 409, 'origHeight': 409, 'width': 409, 'height': 409, 'widthPercent': 0.45, 'rescaleHeight': False, 'trialN': 79, 'loaded': True, 'loadedTime': 2145.800000011921, 'positionName': 'RIGHT', 'positionCoords': [998.4, 335.5], 'bid': 8.41}]",129416.0,1669837020356,kiwi,burger,4.21,8.41,4.2,burger,983.8000000119209,985,984.3000000119209,True,i,130912.09999999404,1496.0999999940395,1669837021853,1497,HRV,HRV_0249,2022-11-30 19:40:21
80,"[{'imgObject': {}, 'id': 'mango', 'src': '/static/foodstim60/mango.jpg', 'key': 'u', 'origWidth': 411, 'origHeight': 411, 'width': 411, 'height': 411, 'widthPercent': 0.45, 'rescaleHeight': False, 'trialN': 80, 'loaded': True, 'loadedTime': 2323.5999999940395, 'positionName': 'LEFT', 'positionCoords': [510.6, 334.5], 'bid': 7.53}, {'imgObject': {}, 'id': 'sushi w_condiments', 'src': '/static/foodstim60/sushi w_condiments.jpg', 'key': 'i', 'origWidth': 410, 'origHeight': 410, 'width': 410, 'height': 410, 'widthPercent': 0.45, 'rescaleHeight': False, 'trialN': 80, 'loaded': True, 'loadedTime': 2249.699999988079, 'positionName': 'RIGHT', 'positionCoords': [998.4, 335], 'bid': 6.51}]",130912.40000000596,1669837021853,mango,sushi w_condiments,7.53,6.51,-1.0200000000000005,sushi w_condiments,1383.4000000059605,1384,1384.0999999940395,True,i,132802.30000001192,1889.9000000059605,1669837023743,1890,HRV,HRV_0249,2022-11-30 19:40:21
81,"[{'imgObject': {}, 'id': 'strawberries', 'src': '/static/foodstim60/strawberries.jpg', 'key': 'u', 'origWidth': 410, 'origHeight': 410, 'width': 410, 'height': 410, 'widthPercent': 0.45, 'rescaleHeight': False, 'trialN': 81, 'loaded': True, 'loadedTime': 2234.5999999940395, 'positionName': 'LEFT', 'positionCoords': [511.6, 335], 'bid': 2.59}, {'imgObject': {}, 'id': 'roastedpotatoes', 'src': '/static/foodstim60/roastedpotatoes.jpg', 'key': 'i', 'origWidth': 409, 'origHeight': 410, 'width': 409, 'height': 410, 'widthPercent': 0.45, 'rescaleHeight': False, 'trialN': 81, 'loaded': True, 'loadedTime': 2237.300000011921, 'positionName': 'RIGHT', 'positionCoords': [998.4, 335], 'bid': 3.12}]",132802.5,1669837023743,strawberries,roastedpotatoes,2.59,3.12,0.5300000000000002,strawberries,1221.300000011921,1222,1221.9000000059605,True,u,134536.69999998808,1734.199999988079,1669837025477,1734,HRV,HRV_0249,2022-11-30 19:40:21
82,"[{'imgObject': {}, 'id': 'Tribe humus pita', 'src': '/static/foodstim60/Tribe humus pita.jpg', 'key': 'u', 'origWidth': 411, 'origHeight': 411, 'width': 411, 'height': 411, 'widthPercent': 0.45, 'rescaleHeight': False, 'trialN': 82, 'loaded': True, 'loadedTime': 1911.199999988079, 'positionName': 'LEFT', 'positionCoords': [510.6, 334.5], 'bid': 5.03}, {'imgObject': {}, 'id': 'veggieswithdip', 'src': '/static/foodstim60/veggieswithdip.jpg', 'key': 'i', 'origWidth': 409, 'origHeight': 409, 'width': 409, 'height': 409, 'widthPercent': 0.45, 'rescaleHeight': False, 'trialN': 82, 'loaded': True, 'loadedTime': 2275.4000000059605, 'positionName': 'RIGHT', 'positionCoords': [998.4, 335.5], 'bid': 5.07}]",134536.90000000596,1669837025477,Tribe humus pita,veggieswithdip,5.03,5.07,0.040000000000000036,Tribe humus pita,1103.0,1104,1103.4000000059605,True,u,136154.09999999404,1617.199999988079,1669837027094,1617,HRV,HRV_0249,2022-11-30 19:40:21
83,"[{'imgObject': {}, 'id': 'mango', 'src': '/static/foodstim60/mango.jpg', 'key': 'u', 'origWidth': 411, 'origHeight': 411, 'width': 411, 'height': 411, 'widthPercent': 0.45, 'rescaleHeight': False, 'trialN': 83, 'loaded': True, 'loadedTime': 2323.5, 'positionName': 'LEFT', 'positionCoords': [510.6, 334.5], 'bid': 7.53}, {'imgObject': {}, 'id': 'eggs', 'src': '/static/foodstim60/eggs.jpg', 'key': 'i', 'origWidth': 409, 'origHeight': 409, 'width': 409, 'height': 409, 'widthPercent': 0.45, 'rescaleHeight': False, 'trialN': 83, 'loaded': True, 'loadedTime': 2321.5999999940395, 'positionName': 'RIGHT', 'positionCoords': [998.4, 335.5], 'bid': 7.44}]",136154.30000001192,1669837027095,mango,eggs,7.53,7.44,-0.08999999999999986,eggs,1101.5999999940395,1102,1102.0999999940395,True,i,137773.19999998808,1618.8999999761581,1669837028714,1619,HRV,HRV_0249,2022-11-30 19:40:21
84,"[{'imgObject': {}, 'id': 'chickenfingers', 'src': '/static/foodstim60/chickenfingers.jpg', 'key': 'u', 'origWidth': 410, 'origHeight': 410, 'width': 410, 'height': 410, 'widthPercent': 0.45, 'rescaleHeight': False, 'trialN': 84, 'loaded': True, 'loadedTime': 2136.199999988079, 'positionName': 'LEFT', 'positionCoords': [511.6, 335], 'bid': 0.02}, {'imgObject': {}, 'id': 'lox', 'src': '/static/foodstim60/lox.jpg', 'key': 'i', 'origWidth': 410, 'origHeight': 411, 'width': 410, 'height': 411, 'widthPercent': 0.45, 'rescaleHeight': False, 'trialN': 84, 'loaded': True, 'loadedTime': 2191.300000011921, 'positionName': 'RIGHT', 'positionCoords': [998.4, 334.5], 'bid': 0.08}]",137773.59999999404,1669837028714,chickenfingers,lox,0.02,0.08,0.06,chickenfingers,987.0999999940395,988,987.5999999940395,True,u,139272.59999999404,1499.0,1669837030213,1499,HRV,HRV_0249,2022-11-30 19:40:21
85,"[{'imgObject': {}, 'id': 'cheerios', 'src': '/static/foodstim60/cheerios.jpg', 'key': 'u', 'origWidth': 409, 'origHeight': 410, 'width': 409, 'height': 410, 'widthPercent': 0.45, 'rescaleHeight': False, 'trialN': 85, 'loaded': True, 'loadedTime': 2302.300000011921, 'positionName': 'LEFT', 'positionCoords': [512.6, 335], 'bid': 5.5}, {'imgObject': {}, 'id': 'baked potato', 'src': '/static/foodstim60/baked potato.jpg', 'key': 'i', 'origWidth': 409, 'origHeight': 410, 'width': 409, 'height': 410, 'widthPercent': 0.45, 'rescaleHeight': False, 'trialN': 85, 'loaded': True, 'loadedTime': 2238.5, 'positionName': 'RIGHT', 'positionCoords': [998.4, 335], 'bid': 5.51}]",139272.90000000596,1669837030213,cheerios,baked potato,5.5,5.51,0.009999999999999787,cheerios,1270.9000000059605,1272,1271.5999999940395,True,u,141054.80000001192,1781.9000000059605,1669837031995,1782,HRV,HRV_0249,2022-11-30 19:40:21
86,"[{'imgObject': {}, 'id': 'tacos', 'src': '/static/foodstim60/tacos.jpg', 'key': 'u', 'origWidth': 411, 'origHeight': 411, 'width': 411, 'height': 411, 'widthPercent': 0.45, 'rescaleHeight': False, 'trialN': 86, 'loaded': True, 'loadedTime': 2159.699999988079, 'positionName': 'LEFT', 'positionCoords': [510.6, 334.5], 'bid': 2.93}, {'imgObject': {}, 'id': 'veggieswithdip', 'src': '/static/foodstim60/veggieswithdip.jpg', 'key': 'i', 'origWidth': 409, 'origHeight': 409, 'width': 409, 'height': 409, 'widthPercent': 0.45, 'rescaleHeight': False, 'trialN': 86, 'loaded': True, 'loadedTime': 2274.699999988079, 'positionName': 'RIGHT', 'positionCoords': [998.4, 335.5], 'bid': 5.07}]",141055.09999999404,1669837031996,tacos,veggieswithdip,2.93,5.07,2.14,veggieswithdip,1032.7000000178814,1033,1033.2000000178814,True,i,142603.80000001192,1548.7000000178814,1669837033544,1548,HRV,HRV_0249,2022-11-30 19:40:21
87,"[{'imgObject': {}, 'id': 'apple slices', 'src': '/static/foodstim60/apple slices.jpg', 'key': 'u', 'origWidth': 409, 'origHeight': 410, 'width': 409, 'height': 410, 'widthPercent': 0.45, 'rescaleHeight': False, 'trialN': 87, 'loaded': True, 'loadedTime': 2310.0999999940395, 'positionName': 'LEFT', 'positionCoords': [512.6, 335], 'bid': 7.44}, {'imgObject': {}, 'id': 'baked potato', 'src': '/static/foodstim60/baked potato.jpg', 'key': 'i', 'origWidth': 409, 'origHeight': 410, 'width': 409, 'height': 410, 'widthPercent': 0.45, 'rescaleHeight': False, 'trialN': 87, 'loaded': True, 'loadedTime': 2241.5, 'positionName': 'RIGHT', 'positionCoords': [998.4, 335], 'bid': 5.51}]",142604.09999999404,1669837033545,apple slices,baked potato,7.44,5.51,-1.9300000000000006,baked potato,1108.0,1108,1108.4000000059605,True,i,144219.19999998808,1615.0999999940395,1669837035160,1615,HRV,HRV_0249,2022-11-30 19:40:21
88,"[{'imgObject': {}, 'id': 'ice cream sundae 002', 'src': '/static/foodstim60/ice cream sundae 002.jpg', 'key': 'u', 'origWidth': 409, 'origHeight': 409, 'width': 409, 'height': 409, 'widthPercent': 0.45, 'rescaleHeight': False, 'trialN': 88, 'loaded': True, 'loadedTime': 2324.4000000059605, 'positionName': 'LEFT', 'positionCoords': [512.6, 335.5], 'bid': 0.01}, {'imgObject': {}, 'id': 'rigatoni', 'src': '/static/foodstim60/rigatoni.jpg', 'key': 'i', 'origWidth': 411, 'origHeight': 411, 'width': 411, 'height': 411, 'widthPercent': 0.45, 'rescaleHeight': False, 'trialN': 88, 'loaded': True, 'loadedTime': 2302.5999999940395, 'positionName': 'RIGHT', 'positionCoords': [998.4, 334.5], 'bid': 1.75}]",144219.40000000596,1669837035160,ice cream sundae 002,rigatoni,0.01,1.75,1.74,ice cream sundae 002,1220.5,1221,1221.0,True,u,145953.90000000596,1734.5,1669837036894,1734,HRV,HRV_0249,2022-11-30 19:40:21
89,"[{'imgObject': {}, 'id': 'mango', 'src': '/static/foodstim60/mango.jpg', 'key': 'u', 'origWidth': 411, 'origHeight': 411, 'width': 411, 'height': 411, 'widthPercent': 0.45, 'rescaleHeight': False, 'trialN': 89, 'loaded': True, 'loadedTime': 2323.0999999940395, 'positionName': 'LEFT', 'positionCoords': [510.6, 334.5], 'bid': 7.53}, {'imgObject': {}, 'id': 'tacos', 'src': '/static/foodstim60/tacos.jpg', 'key': 'i', 'origWidth': 411, 'origHeight': 411, 'width': 411, 'height': 411, 'widthPercent': 0.45, 'rescaleHeight': False, 'trialN': 89, 'loaded': True, 'loadedTime': 2159.4000000059605, 'positionName': 'RIGHT', 'positionCoords': [998.4, 334.5], 'bid': 2.93}]",145954.19999998808,1669837036895,mango,tacos,7.53,2.93,-4.6,mango,1165.5,1166,1166.0,True,u,147633.69999998808,1679.5,1669837038574,1679,HRV,HRV_0249,2022-11-30 19:40:21
90,"[{'imgObject': {}, 'id': 'roastedpotatoes', 'src': '/static/foodstim60/roastedpotatoes.jpg', 'key': 'u', 'origWidth': 409, 'origHeight': 410, 'width': 409, 'height': 410, 'widthPercent': 0.45, 'rescaleHeight': False, 'trialN': 90, 'loaded': True, 'loadedTime': 2238.0999999940395, 'positionName': 'LEFT', 'positionCoords': [512.6, 335], 'bid': 3.12}, {'imgObject': {}, 'id': 'bagel and cc', 'src': '/static/foodstim60/bagel and cc.jpg', 'key': 'i', 'origWidth': 410, 'origHeight': 410, 'width': 410, 'height': 410, 'widthPercent': 0.45, 'rescaleHeight': False, 'trialN': 90, 'loaded': True, 'loadedTime': 2301.4000000059605, 'positionName': 'RIGHT', 'positionCoords': [998.4, 335], 'bid': 5.26}]",181919.90000000596,1669837072866,roastedpotatoes,bagel and cc,3.12,5.26,2.1399999999999997,bagel and cc,1191.9000000059605,1192,1192.4000000059605,True,i,183618.30000001192,1698.4000000059605,1669837074564,1698,HRV,HRV_0249,2022-11-30 19:40:21
91,"[{'imgObject': {}, 'id': 'orange slices', 'src': '/static/foodstim60/orange slices.jpg', 'key': 'u', 'origWidth': 409, 'origHeight': 410, 'width': 409, 'height': 410, 'widthPercent': 0.45, 'rescaleHeight': False, 'trialN': 91, 'loaded': True, 'loadedTime': 2310.300000011921, 'positionName': 'LEFT', 'positionCoords': [512.6, 335], 'bid': 5.86}, {'imgObject': {}, 'id': 'mango', 'src': '/static/foodstim60/mango.jpg', 'key': 'i', 'origWidth': 411, 'origHeight': 411, 'width': 411, 'height': 411, 'widthPercent': 0.45, 'rescaleHeight': False, 'trialN': 91, 'loaded': True, 'loadedTime': 2323.5, 'positionName': 'RIGHT', 'positionCoords': [998.4, 334.5], 'bid': 7.53}]",183618.59999999404,1669837074564,orange slices,mango,5.86,7.53,1.67,orange slices,940.5999999940395,941,940.9000000059605,True,u,185070.30000001192,1451.7000000178814,1669837076016,1452,HRV,HRV_0249,2022-11-30 19:40:21
92,"[{'imgObject': {}, 'id': 'fried eggs', 'src': '/static/foodstim60/fried eggs.jpg', 'key': 'u', 'origWidth': 410, 'origHeight': 410, 'width': 410, 'height': 410, 'widthPercent': 0.45, 'rescaleHeight': False, 'trialN': 92, 'loaded': True, 'loadedTime': 1995.5, 'positionName': 'LEFT', 'positionCoords': [511.6, 335], 'bid': 7.97}, {'imgObject': {}, 'id': 'avocado', 'src': '/static/foodstim60/avocado.jpg', 'key': 'i', 'origWidth': 409, 'origHeight': 409, 'width': 409, 'height': 409, 'widthPercent': 0.45, 'rescaleHeight': False, 'trialN': 92, 'loaded': True, 'loadedTime': 2064.9000000059605, 'positionName': 'RIGHT', 'positionCoords': [998.4, 335.5], 'bid': 6.95}]",185070.5,1669837076016,fried eggs,avocado,7.97,6.95,-1.0199999999999996,fried eggs,1049.5999999940395,1050,1050.0,True,u,186638.0,1567.5,1669837077584,1568,HRV,HRV_0249,2022-11-30 19:40:21
93,"[{'imgObject': {}, 'id': 'cantaloupe', 'src': '/static/foodstim60/cantaloupe.jpg', 'key': 'u', 'origWidth': 409, 'origHeight': 409, 'width': 409, 'height': 409, 'widthPercent': 0.45, 'rescaleHeight': False, 'trialN': 93, 'loaded': True, 'loadedTime': 2112.5, 'positionName': 'LEFT', 'positionCoords': [512.6, 335.5], 'bid': 7.35}, {'imgObject': {}, 'id': 'rigatoni', 'src': '/static/foodstim60/rigatoni.jpg', 'key': 'i', 'origWidth': 411, 'origHeight': 411, 'width': 411, 'height': 411, 'widthPercent': 0.45, 'rescaleHeight': False, 'trialN': 93, 'loaded': True, 'loadedTime': 2309.4000000059605, 'positionName': 'RIGHT', 'positionCoords': [998.4, 334.5], 'bid': 1.75}]",186638.30000001192,1669837077584,cantaloupe,rigatoni,7.35,1.75,-5.6,cantaloupe,857.1999999880791,858,857.5999999940395,True,u,188009.5,1371.199999988079,1669837078955,1371,HRV,HRV_0249,2022-11-30 19:40:21
94,"[{'imgObject': {}, 'id': 'froot loops w milk', 'src': '/static/foodstim60/froot loops w milk.jpg', 'key': 'u', 'origWidth': 410, 'origHeight': 410, 'width': 410, 'height': 410, 'widthPercent': 0.45, 'rescaleHeight': False, 'trialN': 94, 'loaded': True, 'loadedTime': 2009.800000011921, 'positionName': 'LEFT', 'positionCoords': [511.6, 335], 'bid': 7.01}, {'imgObject': {}, 'id': 'luckycharms', 'src': '/static/foodstim60/luckycharms.jpg', 'key': 'i', 'origWidth': 410, 'origHeight': 409, 'width': 410, 'height': 409, 'widthPercent': 0.45, 'rescaleHeight': False, 'trialN': 94, 'loaded': True, 'loadedTime': 2050.199999988079, 'positionName': 'RIGHT', 'positionCoords': [998.4, 335.5], 'bid': 7.1000000000000005}]",188009.80000001192,1669837078956,froot loops w milk,luckycharms,7.01,7.1000000000000005,0.09000000000000075,froot loops w milk,1142.0,1142,1142.699999988079,True,u,189665.69999998808,1655.8999999761581,1669837080611,1655,HRV,HRV_0249,2022-11-30 19:40:21
95,"[{'imgObject': {}, 'id': 'granola w milk', 'src': '/static/foodstim60/granola w milk.jpg', 'key': 'u', 'origWidth': 410, 'origHeight': 410, 'width': 410, 'height': 410, 'widthPercent': 0.45, 'rescaleHeight': False, 'trialN': 95, 'loaded': True, 'loadedTime': 2075.0999999940395, 'positionName': 'LEFT', 'positionCoords': [511.6, 335], 'bid': 0.07}, {'imgObject': {}, 'id': 'lox', 'src': '/static/foodstim60/lox.jpg', 'key': 'i', 'origWidth': 410, 'origHeight': 411, 'width': 410, 'height': 411, 'widthPercent': 0.45, 'rescaleHeight': False, 'trialN': 95, 'loaded': True, 'loadedTime': 2191.199999988079, 'positionName': 'RIGHT', 'positionCoords': [998.4, 334.5], 'bid': 0.08}]",189665.90000000596,1669837080612,granola w milk,lox,0.07,0.08,0.009999999999999995,granola w milk,845.9000000059605,846,846.4000000059605,True,u,191023.5,1357.5999999940395,1669837081969,1357,HRV,HRV_0249,2022-11-30 19:40:21
96,"[{'imgObject': {}, 'id': 'hotdog w must', 'src': '/static/foodstim60/hotdog w must.jpg', 'key': 'u', 'origWidth': 409, 'origHeight': 409, 'width': 409, 'height': 409, 'widthPercent': 0.45, 'rescaleHeight': False, 'trialN': 96, 'loaded': True, 'loadedTime': 2257.699999988079, 'positionName': 'LEFT', 'positionCoords': [512.6, 335.5], 'bid': 0.06}, {'imgObject': {}, 'id': 'olives', 'src': '/static/foodstim60/olives.jpg', 'key': 'i', 'origWidth': 410, 'origHeight': 410, 'width': 410, 'height': 410, 'widthPercent': 0.45, 'rescaleHeight': False, 'trialN': 96, 'loaded': True, 'loadedTime': 2174.800000011921, 'positionName': 'RIGHT', 'positionCoords': [998.4, 335], 'bid': 0}]",191023.80000001192,1669837081970,hotdog w must,olives,0.06,0.0,-0.06,hotdog w must,1088.7999999821186,1089,1089.3999999761581,True,u,192619.90000000596,1596.0999999940395,1669837083566,1596,HRV,HRV_0249,2022-11-30 19:40:21
97,"[{'imgObject': {}, 'id': 'Grapes', 'src': '/static/foodstim60/Grapes.jpg', 'key': 'u', 'origWidth': 411, 'origHeight': 411, 'width': 411, 'height': 411, 'widthPercent': 0.45, 'rescaleHeight': False, 'trialN': 97, 'loaded': True, 'loadedTime': 2266.300000011921, 'positionName': 'LEFT', 'positionCoords': [510.6, 334.5], 'bid': 6.6000000000000005}, {'imgObject': {}, 'id': 'cherries', 'src': '/static/foodstim60/cherries.jpg', 'key': 'i', 'origWidth': 410, 'origHeight': 411, 'width': 410, 'height': 411, 'widthPercent': 0.45, 'rescaleHeight': False, 'trialN': 97, 'loaded': True, 'loadedTime': 2058.699999988079, 'positionName': 'RIGHT', 'positionCoords': [998.4, 334.5], 'bid': 7.81}]",192620.09999999404,1669837083566,Grapes,cherries,6.6000000000000005,7.81,1.209999999999999,cherries,1091.0999999940395,1091,1091.300000011921,True,i,194220.59999999404,1600.5,1669837085166,1600,HRV,HRV_0249,2022-11-30 19:40:21
98,"[{'imgObject': {}, 'id': 'blueberries', 'src': '/static/foodstim60/blueberries.jpg', 'key': 'u', 'origWidth': 411, 'origHeight': 411, 'width': 411, 'height': 411, 'widthPercent': 0.45, 'rescaleHeight': False, 'trialN': 98, 'loaded': True, 'loadedTime': 1986.4000000059605, 'positionName': 'LEFT', 'positionCoords': [510.6, 334.5], 'bid': 5.4}, {'imgObject': {}, 'id': 'bagel and cc', 'src': '/static/foodstim60/bagel and cc.jpg', 'key': 'i', 'origWidth': 410, 'origHeight': 410, 'width': 410, 'height': 410, 'widthPercent': 0.45, 'rescaleHeight': False, 'trialN': 98, 'loaded': True, 'loadedTime': 2301.5999999940395, 'positionName': 'RIGHT', 'positionCoords': [998.4, 335], 'bid': 5.26}]",194220.90000000596,1669837085167,blueberries,bagel and cc,5.4,5.26,-0.14000000000000057,blueberries,1106.9000000059605,1107,1107.4000000059605,True,u,195836.90000000596,1616.0,1669837086783,1616,HRV,HRV_0249,2022-11-30 19:40:21
99,"[{'imgObject': {}, 'id': 'cheerios', 'src': '/static/foodstim60/cheerios.jpg', 'key': 'u', 'origWidth': 409, 'origHeight': 410, 'width': 409, 'height': 410, 'widthPercent': 0.45, 'rescaleHeight': False, 'trialN': 99, 'loaded': True, 'loadedTime': 2302.5, 'positionName': 'LEFT', 'positionCoords': [512.6, 335], 'bid': 5.5}, {'imgObject': {}, 'id': 'chickenfingers', 'src': '/static/foodstim60/chickenfingers.jpg', 'key': 'i', 'origWidth': 410, 'origHeight': 410, 'width': 410, 'height': 410, 'widthPercent': 0.45, 'rescaleHeight': False, 'trialN': 99, 'loaded': True, 'loadedTime': 2135, 'positionName': 'RIGHT', 'positionCoords': [998.4, 335], 'bid': 0.02}]",195837.19999998808,1669837086783,cheerios,chickenfingers,5.5,0.02,-5.48,cheerios,1170.6000000238419,1171,1171.0,True,u,197525.19999998808,1688.0,1669837088471,1688,HRV,HRV_0249,2022-11-30 19:40:21
100,"[{'imgObject': {}, 'id': 'cherry tomato', 'src': '/static/foodstim60/cherry tomato.jpg', 'key': 'u', 'origWidth': 410, 'origHeight': 410, 'width': 410, 'height': 410, 'widthPercent': 0.45, 'rescaleHeight': False, 'trialN': 100, 'loaded': True, 'loadedTime': 2035.4000000059605, 'positionName': 'LEFT', 'positionCoords': [511.6, 335], 'bid': 6.19}, {'imgObject': {}, 'id': 'yogurt no spoon', 'src': '/static/foodstim60/yogurt no spoon.jpg', 'key': 'i', 'origWidth': 411, 'origHeight': 410, 'width': 411, 'height': 410, 'widthPercent': 0.45, 'rescaleHeight': False, 'trialN': 100, 'loaded': True, 'loadedTime': 2291.5, 'positionName': 'RIGHT', 'positionCoords': [998.4, 335], 'bid': 0.04}]",197525.5,1669837088471,cherry tomato,yogurt no spoon,6.19,0.04,-6.15,yogurt no spoon,1306.199999988079,1307,1306.699999988079,True,i,199339.19999998808,1813.699999988079,1669837090285,1814,HRV,HRV_0249,2022-11-30 19:40:21
101,"[{'imgObject': {}, 'id': 'mashed potato', 'src': '/static/foodstim60/mashed potato.jpg', 'key': 'u', 'origWidth': 409, 'origHeight': 409, 'width': 409, 'height': 409, 'widthPercent': 0.45, 'rescaleHeight': False, 'trialN': 101, 'loaded': True, 'loadedTime': 2106.300000011921, 'positionName': 'LEFT', 'positionCoords': [512.6, 335.5], 'bid': 0}, {'imgObject': {}, 'id': 'olives', 'src': '/static/foodstim60/olives.jpg', 'key': 'i', 'origWidth': 410, 'origHeight': 410, 'width': 410, 'height': 410, 'widthPercent': 0.45, 'rescaleHeight': False, 'trialN': 101, 'loaded': True, 'loadedTime': 2174, 'positionName': 'RIGHT', 'positionCoords': [998.4, 335], 'bid': 0}]",199339.40000000596,1669837090285,mashed potato,olives,0.0,0.0,0.0,mashed potato,1060.4000000059605,1061,1060.9000000059605,True,u,200913.30000001192,1573.9000000059605,1669837091859,1574,HRV,HRV_0249,2022-11-30 19:40:21
102,"[{'imgObject': {}, 'id': 'cherry tomato', 'src': '/static/foodstim60/cherry tomato.jpg', 'key': 'u', 'origWidth': 410, 'origHeight': 410, 'width': 410, 'height': 410, 'widthPercent': 0.45, 'rescaleHeight': False, 'trialN': 102, 'loaded': True, 'loadedTime': 2042.699999988079, 'positionName': 'LEFT', 'positionCoords': [511.6, 335], 'bid': 6.19}, {'imgObject': {}, 'id': 'banana', 'src': '/static/foodstim60/banana.jpg', 'key': 'i', 'origWidth': 410, 'origHeight': 410, 'width': 410, 'height': 410, 'widthPercent': 0.45, 'rescaleHeight': False, 'trialN': 102, 'loaded': True, 'loadedTime': 2258.699999988079, 'positionName': 'RIGHT', 'positionCoords': [998.4, 335], 'bid': 6.21}]",200913.69999998808,1669837091859,cherry tomato,banana,6.19,6.21,0.019999999999999574,banana,1029.7000000178814,1030,1030.1000000238419,True,i,202455.0,1541.300000011921,1669837093401,1542,HRV,HRV_0249,2022-11-30 19:40:21
103,"[{'imgObject': {}, 'id': 'fried eggs', 'src': '/static/foodstim60/fried eggs.jpg', 'key': 'u', 'origWidth': 410, 'origHeight': 410, 'width': 410, 'height': 410, 'widthPercent': 0.45, 'rescaleHeight': False, 'trialN': 103, 'loaded': True, 'loadedTime': 1994.9000000059605, 'positionName': 'LEFT', 'positionCoords': [511.6, 335], 'bid': 7.97}, {'imgObject': {}, 'id': 'raisin bran w milk', 'src': '/static/foodstim60/raisin bran w milk.jpg', 'key': 'i', 'origWidth': 411, 'origHeight': 411, 'width': 411, 'height': 411, 'widthPercent': 0.45, 'rescaleHeight': False, 'trialN': 103, 'loaded': True, 'loadedTime': 2019.0999999940395, 'positionName': 'RIGHT', 'positionCoords': [998.4, 334.5], 'bid': 6.44}]",202455.30000001192,1669837093401,fried eggs,raisin bran w milk,7.97,6.44,-1.5299999999999994,fried eggs,992.6999999880791,993,993.0,True,u,203953.5,1498.199999988079,1669837094899,1498,HRV,HRV_0249,2022-11-30 19:40:21
104,"[{'imgObject': {}, 'id': 'corn cob', 'src': '/static/foodstim60/corn cob.jpg', 'key': 'u', 'origWidth': 411, 'origHeight': 411, 'width': 411, 'height': 411, 'widthPercent': 0.45, 'rescaleHeight': False, 'trialN': 104, 'loaded': True, 'loadedTime': 2223.800000011921, 'positionName': 'LEFT', 'positionCoords': [510.6, 334.5], 'bid': 6.13}, {'imgObject': {}, 'id': 'bagel plain', 'src': '/static/foodstim60/bagel plain.jpg', 'key': 'i', 'origWidth': 410, 'origHeight': 410, 'width': 410, 'height': 410, 'widthPercent': 0.45, 'rescaleHeight': False, 'trialN': 104, 'loaded': True, 'loadedTime': 1972.800000011921, 'positionName': 'RIGHT', 'positionCoords': [998.4, 335], 'bid': 4.21}]",203953.59999999404,1669837094899,corn cob,bagel plain,6.13,4.21,-1.92,corn cob,998.2000000178814,999,998.9000000059605,True,u,205462.90000000596,1509.300000011921,1669837096409,1510,HRV,HRV_0249,2022-11-30 19:40:21
105,"[{'imgObject': {}, 'id': 'roastedpotatoes', 'src': '/static/foodstim60/roastedpotatoes.jpg', 'key': 'u', 'origWidth': 409, 'origHeight': 410, 'width': 409, 'height': 410, 'widthPercent': 0.45, 'rescaleHeight': False, 'trialN': 105, 'loaded': True, 'loadedTime': 2238.0999999940395, 'positionName': 'LEFT', 'positionCoords': [512.6, 335], 'bid': 3.12}, {'imgObject': {}, 'id': 'rigatoni and sauce', 'src': '/static/foodstim60/rigatoni and sauce.jpg', 'key': 'i', 'origWidth': 410, 'origHeight': 411, 'width': 410, 'height': 411, 'widthPercent': 0.45, 'rescaleHeight': False, 'trialN': 105, 'loaded': True, 'loadedTime': 2216.300000011921, 'positionName': 'RIGHT', 'positionCoords': [998.4, 334.5], 'bid': 0.04}]",205463.09999999404,1669837096409,roastedpotatoes,rigatoni and sauce,3.12,0.04,-3.08,rigatoni and sauce,976.7000000178814,977,977.2000000178814,True,i,206944.69999998808,1481.5999999940395,1669837097890,1481,HRV,HRV_0249,2022-11-30 19:40:21
106,"[{'imgObject': {}, 'id': 'cheerios', 'src': '/static/foodstim60/cheerios.jpg', 'key': 'u', 'origWidth': 409, 'origHeight': 410, 'width': 409, 'height': 410, 'widthPercent': 0.45, 'rescaleHeight': False, 'trialN': 106, 'loaded': True, 'loadedTime': 2302.4000000059605, 'positionName': 'LEFT', 'positionCoords': [512.6, 335], 'bid': 5.5}, {'imgObject': {}, 'id': 'shreddedwheatwithmilk', 'src': '/static/foodstim60/shreddedwheatwithmilk.jpg', 'key': 'i', 'origWidth': 410, 'origHeight': 410, 'width': 410, 'height': 410, 'widthPercent': 0.45, 'rescaleHeight': False, 'trialN': 106, 'loaded': True, 'loadedTime': 2199.699999988079, 'positionName': 'RIGHT', 'positionCoords': [998.4, 335], 'bid': 3.61}]",206945.0,1669837097891,cheerios,shreddedwheatwithmilk,5.5,3.61,-1.8900000000000001,cheerios,974.8000000119209,975,975.1999999880791,True,u,208437.90000000596,1492.9000000059605,1669837099384,1493,HRV,HRV_0249,2022-11-30 19:40:21
107,"[{'imgObject': {}, 'id': 'granola w milk', 'src': '/static/foodstim60/granola w milk.jpg', 'key': 'u', 'origWidth': 410, 'origHeight': 410, 'width': 410, 'height': 410, 'widthPercent': 0.45, 'rescaleHeight': False, 'trialN': 107, 'loaded': True, 'loadedTime': 2082.4000000059605, 'positionName': 'LEFT', 'positionCoords': [511.6, 335], 'bid': 0.07}, {'imgObject': {}, 'id': 'omelette', 'src': '/static/foodstim60/omelette.jpg', 'key': 'i', 'origWidth': 410, 'origHeight': 409, 'width': 410, 'height': 409, 'widthPercent': 0.45, 'rescaleHeight': False, 'trialN': 107, 'loaded': True, 'loadedTime': 2266, 'positionName': 'RIGHT', 'positionCoords': [998.4, 335.5], 'bid': 6.55}]",208438.09999999404,1669837099384,granola w milk,omelette,0.07,6.55,6.4799999999999995,granola w milk,1081.7000000178814,1082,1082.2000000178814,True,u,210037.80000001192,1599.7000000178814,1669837100984,1600,HRV,HRV_0249,2022-11-30 19:40:21
108,"[{'imgObject': {}, 'id': 'lox', 'src': '/static/foodstim60/lox.jpg', 'key': 'u', 'origWidth': 410, 'origHeight': 411, 'width': 410, 'height': 411, 'widthPercent': 0.45, 'rescaleHeight': False, 'trialN': 108, 'loaded': True, 'loadedTime': 2182.5999999940395, 'positionName': 'LEFT', 'positionCoords': [511.6, 334.5], 'bid': 0.08}, {'imgObject': {}, 'id': 'strawberries', 'src': '/static/foodstim60/strawberries.jpg', 'key': 'i', 'origWidth': 410, 'origHeight': 410, 'width': 410, 'height': 410, 'widthPercent': 0.45, 'rescaleHeight': False, 'trialN': 108, 'loaded': True, 'loadedTime': 2235.199999988079, 'positionName': 'RIGHT', 'positionCoords': [998.4, 335], 'bid': 2.59}]",210038.09999999404,1669837100984,lox,strawberries,0.08,2.59,2.51,strawberries,849.7000000178814,850,850.0999999940395,True,i,211401.59999999404,1363.5,1669837102347,1363,HRV,HRV_0249,2022-11-30 19:40:21
