success,trial_type,trial_index,time_elapsed,internal_node_id,Block,TrialNumber,TrialTime,trialTimeDiff,FPS_avg,FPS_med,FPS_mode,TrialDur,winResizeTime,rt,block,button_pressed,MotCoh,MotDir,ColCoh,Color,ChoiceKey,Choice,Accuracy,RT,nFrames,FPS,PPD,missTrial,missTrialMsg,onsetDelay,fullScreenExitTime,canvCenter,TrialType,Score,BlockTrial,stimulus,button_labels,exp,subjectId,date
True,fullscreen,0,2845,0.0-0.0,0.0,1.0,,,,,,,,,,,,,,,,,,,,,,,,,,,,,,,,HRV,HRV_0085,2022-11-30 18:05:02
,wl-check-fps,1,7847,0.0-1.0,0.0,2.0,"[3603.8, 3622.5, 3626.2, 3633.2, 3647.7, 3664.7, 3683.9, 3701.1, 3716, 3734, 3749, 3764.9, 3781.9, 3798.5, 3814.5, 3831.5, 3848.1, 3864.7, 3881.1, 3898.6, 3915.8, 3933.9, 3950.6, 3966.6, 3984.1, 3999.4, 4015.7, 4032.3, 4050.2, 4066.9, 4083.4, 4098.4, 4114.8, 4132.3, 4150.1, 4165.5, 4181.7, 4198.3, 4215.2, 4233.8, 4250.3, 4267, 4284.1, 4299.7, 4315.9, 4332.4, 4350.2, 4367, 4384.2, 4399.6, 4416.2, 4434.8, 4475.3, 4481.8, 4483.6, 4499, 4515.2, 4531.2, 4547.8, 4564.7, 4581.3, 4598, 4614.7, 4633.1, 4648.1, 4664.7, 4683.3, 4698, 4714.7, 4731.5, 4750.1, 4766.7, 4784.2, 4800.4, 4815, 4831.8, 4848.4, 4865.4, 4881.8, 4898.7, 4915.1, 4932, 4948.6, 4965.5, 4981.5, 4998.7, 5015.3, 5032.1, 5048.8, 5065.1, 5082.5, 5106.7, 5115.6, 5131.9, 5148.1, 5165, 5181.5, 5198.7, 5215.3, 5232.2, 5248.4, 5265.4, 5282.3, 5298.8, 5315.6, 5331.9, 5348.8, 5365.5, 5382.2, 5398.9, 5415.5, 5432, 5448.9, 5465.4, 5482.3, 5498.8, 5515.5, 5532.2, 5548.9, 5565.6, 5583.7, 5598.6, 5615.3, 5632.4, 5648.7, 5666.6, 5682.3, 5698.9, 5716.1, 5735.9, 5748.6, 5765.6, 5783.4, 5799, 5815.6, 5832.4, 5848.9, 5865.6, 5882.1, 5898.5, 5915.4, 5932, 5949, 5965.6, 5982.2, 5999.2, 6015.7, 6032.4, 6049.1, 6065.7, 6083.4, 6098.9, 6115.5, 6132.3, 6149.1, 6165.8, 6184.2, 6201.2, 6217, 6234.2, 6249.9, 6266.7, 6284.6, 6301.1, 6317.5, 6332.5, 6349.3, 6365.7, 6383.4, 6399.2, 6416, 6432.5, 6449.2, 6466.7, 6484.7, 6501.3, 6516.7, 6534.1, 6550, 6566.8, 6584.9, 6601, 6617.6, 6634.2, 6650.4, 6669.6, 6685.5, 6700.9, 6720.5, 6732, 6748.7, 6765.3, 6782.3, 6798.7, 6815.4, 6833.1, 6849.2, 6865.9, 6882.9, 6899.5, 6916.1, 6933.5, 6949.5, 6966, 6982.9, 7001.3, 7017, 7034.4, 7050.2, 7066.5, 7082.3, 7100, 7116.9, 7134.5, 7150.3, 7168, 7185.3, 7201.7, 7218, 7233.9, 7251.9, 7269.4, 7286.5, 7301.1, 7317.9, 7339.5, 7350.8, 7366.7, 7384, 7400.2, 7416.9, 7434.6, 7450.7, 7467.5, 7484.4, 7501, 7517.6, 7534.9, 7550.6, 7568, 7584.7, 7600.9, 7617.6, 7633.7, 7650.3, 7666.7, 7683.8, 7700.1, 7717.6, 7734.4, 7752.6, 7767.9, 7784.8, 7800.3, 7817, 7834.5, 7850.9, 7867.6, 7888.2, 7901.3, 7916.4, 7933.7, 7949.8, 7966.2, 7983.5, 7999.9, 8016.5, 8033.7, 8049.7, 8066.5, 8083.7, 8099.7, 8116.5, 8133.9, 8149.9, 8166.5, 8183.7, 8199.8, 8216.5, 8233.4, 8249.6, 8266.5, 8283.9, 8300, 8316.6, 8333.2, 8349.5, 8366.6, 8383.7, 8399.9, 8416.6, 8433.8, 8450, 8466.7, 8483.5, 8500, 8516.7, 8533.8, 8550, 8566.8]","[17, 18.7, 3.7, 7, 14.5, 17, 19.2, 17.2, 14.9, 18, 15, 15.9, 17, 16.6, 16, 17, 16.6, 16.6, 16.4, 17.5, 17.2, 18.1, 16.7, 16, 17.5, 15.3, 16.3, 16.6, 17.9, 16.7, 16.5, 15, 16.4, 17.5, 17.8, 15.4, 16.2, 16.6, 16.9, 18.6, 16.5, 16.7, 17.1, 15.6, 16.2, 16.5, 17.8, 16.8, 17.2, 15.4, 16.6, 18.6, 40.5, 6.5, 1.8, 15.4, 16.2, 16, 16.6, 16.9, 16.6, 16.7, 16.7, 18.4, 15, 16.6, 18.6, 14.7, 16.7, 16.8, 18.6, 16.6, 17.5, 16.2, 14.6, 16.8, 16.6, 17, 16.4, 16.9, 16.4, 16.9, 16.6, 16.9, 16, 17.2, 16.6, 16.8, 16.7, 16.3, 17.4, 24.2, 8.9, 16.3, 16.2, 16.9, 16.5, 17.2, 16.6, 16.9, 16.2, 17, 16.9, 16.5, 16.8, 16.3, 16.9, 16.7, 16.7, 16.7, 16.6, 16.5, 16.9, 16.5, 16.9, 16.5, 16.7, 16.7, 16.7, 16.7, 18.1, 14.9, 16.7, 17.1, 16.3, 17.9, 15.7, 16.6, 17.2, 19.8, 12.7, 17, 17.8, 15.6, 16.6, 16.8, 16.5, 16.7, 16.5, 16.4, 16.9, 16.6, 17, 16.6, 16.6, 17, 16.5, 16.7, 16.7, 16.6, 17.7, 15.5, 16.6, 16.8, 16.8, 16.7, 18.4, 17, 15.8, 17.2, 15.7, 16.8, 17.9, 16.5, 16.4, 15, 16.8, 16.4, 17.7, 15.8, 16.8, 16.5, 16.7, 17.5, 18, 16.6, 15.4, 17.4, 15.9, 16.8, 18.1, 16.1, 16.6, 16.6, 16.2, 19.2, 15.9, 15.4, 19.6, 11.5, 16.7, 16.6, 17, 16.4, 16.7, 17.7, 16.1, 16.7, 17, 16.6, 16.6, 17.4, 16, 16.5, 16.9, 18.4, 15.7, 17.4, 15.8, 16.3, 15.8, 17.7, 16.9, 17.6, 15.8, 17.7, 17.3, 16.4, 16.3, 15.9, 18, 17.5, 17.1, 14.6, 16.8, 21.6, 11.3, 15.9, 17.3, 16.2, 16.7, 17.7, 16.1, 16.8, 16.9, 16.6, 16.6, 17.3, 15.7, 17.4, 16.7, 16.2, 16.7, 16.1, 16.6, 16.4, 17.1, 16.3, 17.5, 16.8, 18.2, 15.3, 16.9, 15.5, 16.7, 17.5, 16.4, 16.7, 20.6, 13.1, 15.1, 17.3, 16.1, 16.4, 17.3, 16.4, 16.6, 17.2, 16, 16.8, 17.2, 16, 16.8, 17.4, 16, 16.6, 17.2, 16.1, 16.7, 16.9, 16.2, 16.9, 17.4, 16.1, 16.6, 16.6, 16.3, 17.1, 17.1, 16.2, 16.7, 17.2, 16.2, 16.7, 16.8, 16.5, 16.7, 17.1, 16.2, 16.8]",60.0,58.0,60.0,4996.7,[],,,,,,,,,,,,,,,,,,,,,,,,,HRV,HRV_0085,2022-11-30 18:05:02
,wl-html-keyboard-response,2,21503,0.0-2.0-0.0,0.0,3.0,,,,,,,,11639.399999856949,0.0,0,,,,,,,,,,,,,,,,,,,,,,HRV,HRV_0085,2022-11-30 18:05:02
,wl-rdm,3,31154,0.0-3.0-0.0,0.0,4.0,,,,,,,[],,,,0.0,0.0,87.9,0.0,u,0.0,True,4007.0,241.0,60.0,40.0,False,,3000.0,[],"[657, 369.5]",ColorTask_Demo,,,,,HRV,HRV_0085,2022-11-30 18:05:02
,wl-rdm,4,35939,0.0-3.0-1.0,0.0,5.0,,,,,,,[],,,,0.0,0.0,87.9,1.0,i,1.0,True,725.7000000476837,44.0,60.0,40.0,False,,2000.0,[],"[657, 369.5]",ColorTask_Demo,,,,,HRV,HRV_0085,2022-11-30 18:05:02
,wl-html-keyboard-response,5,43170,0.0-3.0-2.0,0.0,6.0,,,,,,,,5219.699999809265,0.0,1,,,,,,,,,,,,,,,,,,,,,,HRV,HRV_0085,2022-11-30 18:05:02
,wl-html-keyboard-response,6,50657,0.0-4.0-0.0,0.0,7.0,,,,,,,,5478.0,0.0,0,,,,,,,,,,,,,,,,,,,,,,HRV,HRV_0085,2022-11-30 18:05:02
,wl-html-keyboard-response,7,72930,0.0-5.0-0.0,0.0,8.0,,,,,,,,20256.700000047684,0.0,0,,,,,,,,,,,,,,,,,,,,,,HRV,HRV_0085,2022-11-30 18:05:02
,wl-rdm,8,75521,0.0-6.0-0.0,0.0,9.0,,,,,,,[],,,,,,53.2,1.0,i,1.0,True,1288.1999998092651,77.0,60.0,40.0,False,,221.98076403596212,[],"[657, 369.5]",ColorTask,1.0,1.0,,,HRV,HRV_0085,2022-11-30 18:05:02
,wl-rdm,9,77621,0.0-6.1-0.1,0.0,10.0,,,,,,,[],,,,,,73.6,1.0,i,1.0,True,812.6000001430511,49.0,60.0,40.0,False,,208.3802810112395,[],"[657, 369.5]",ColorTask,2.0,2.0,,,HRV,HRV_0085,2022-11-30 18:05:02
,wl-rdm,10,80273,0.0-6.2-0.2,0.0,11.0,,,,,,,[],,,,,,50.0,1.0,i,1.0,True,1353.8000001907349,81.0,60.0,40.0,False,,228.5026581282379,[],"[657, 369.5]",ColorTask,3.0,3.0,,,HRV,HRV_0085,2022-11-30 18:05:02
,wl-rdm,11,82991,0.0-6.3-0.3,0.0,12.0,,,,,,,[],,,,,,73.6,0.0,u,0.0,True,1289.2000000476837,78.0,60.0,40.0,False,,359.89230916052895,[],"[657, 369.5]",ColorTask,4.0,4.0,,,HRV,HRV_0085,2022-11-30 18:05:02
,wl-rdm,12,85058,0.0-6.4-0.4,0.0,13.0,,,,,,,[],,,,,,73.6,0.0,u,0.0,True,690.0,42.0,60.0,40.0,False,,310.19784942815613,[],"[657, 369.5]",ColorTask,5.0,5.0,,,HRV,HRV_0085,2022-11-30 18:05:02
,wl-rdm,13,87493,0.0-6.5-0.5,0.0,14.0,,,,,,,[],,,,,,56.4,0.0,u,0.0,True,1003.0,60.0,60.0,40.0,False,,357.21943660445015,[],"[657, 369.5]",ColorTask,6.0,6.0,,,HRV,HRV_0085,2022-11-30 18:05:02
,wl-rdm,14,89592,0.0-6.6-0.6,0.0,15.0,,,,,,,[],,,,,,56.4,1.0,i,1.0,True,648.0000002384186,39.0,60.0,40.0,False,,383.08597287180464,[],"[657, 369.5]",ColorTask,7.0,7.0,,,HRV,HRV_0085,2022-11-30 18:05:02
,wl-rdm,15,91794,0.0-6.7-0.7,0.0,16.0,,,,,,,[],,,,,,56.4,0.0,i,1.0,False,784.900000333786,47.0,60.0,40.0,False,,343.338973931115,[],"[657, 369.5]",ColorTask,6.0,8.0,,,HRV,HRV_0085,2022-11-30 18:05:02
,wl-rdm,16,93810,0.0-6.8-0.8,0.0,17.0,,,,,,,[],,,,,,53.2,1.0,i,1.0,True,717.8999998569489,43.0,60.0,40.0,False,,231.86177686032417,[],"[657, 369.5]",ColorTask,7.0,9.0,,,HRV,HRV_0085,2022-11-30 18:05:02
,wl-rdm,17,95894,0.0-6.9-0.9,0.0,18.0,,,,,,,[],,,,,,53.2,0.0,u,0.0,True,670.8999998569489,41.0,60.0,40.0,False,,332.65191947415406,[],"[657, 369.5]",ColorTask,8.0,10.0,,,HRV,HRV_0085,2022-11-30 18:05:02
,wl-rdm,18,98003,0.0-6.10-0.10,0.0,19.0,,,,,,,[],,,,,,62.5,0.0,u,0.0,True,786.0000002384186,48.0,60.0,40.0,False,,228.63828745600927,[],"[657, 369.5]",ColorTask,9.0,11.0,,,HRV,HRV_0085,2022-11-30 18:05:02
,wl-rdm,19,100235,0.0-6.11-0.11,0.0,20.0,,,,,,,[],,,,,,50.0,0.0,u,0.0,True,920.7999997138977,56.0,60.0,40.0,False,,227.2197117341933,[],"[657, 369.5]",ColorTask,10.0,12.0,,,HRV,HRV_0085,2022-11-30 18:05:02
,wl-rdm,20,101730,0.0-6.12-0.12,0.0,21.0,,,,,,,[],,,,,,53.2,0.0,i,1.0,False,206.29999995231628,13.0,60.0,40.0,False,,229.5196739637872,[],"[657, 369.5]",ColorTask,9.0,13.0,,,HRV,HRV_0085,2022-11-30 18:05:02
,wl-rdm,21,104231,0.0-6.13-0.13,0.0,22.0,,,,,,,[],,,,,,53.2,1.0,i,1.0,True,1113.5,67.0,60.0,40.0,False,,321.41150991530975,[],"[657, 369.5]",ColorTask,10.0,14.0,,,HRV,HRV_0085,2022-11-30 18:05:02
,wl-rdm,22,106566,0.0-6.14-0.14,0.0,23.0,,,,,,,[],,,,,,73.6,0.0,i,1.0,False,995.6999998092651,60.0,60.0,40.0,False,,273.9232779434629,[],"[657, 369.5]",ColorTask,9.0,15.0,,,HRV,HRV_0085,2022-11-30 18:05:02
,wl-rdm,23,109250,0.0-6.15-0.15,0.0,24.0,,,,,,,[],,,,,,62.5,0.0,u,0.0,True,1340.0,81.0,60.0,40.0,False,,278.05663015977234,[],"[657, 369.5]",ColorTask,10.0,16.0,,,HRV,HRV_0085,2022-11-30 18:05:02
,wl-rdm,24,111133,0.0-6.16-0.16,0.0,25.0,,,,,,,[],,,,,,87.9,0.0,u,0.0,True,577.2999999523163,35.0,60.0,40.0,False,,239.78493438613438,[],"[657, 369.5]",ColorTask,11.0,17.0,,,HRV,HRV_0085,2022-11-30 18:05:02
,wl-rdm,25,113135,0.0-6.17-0.17,0.0,26.0,,,,,,,[],,,,,,56.4,0.0,u,0.0,True,654.4000000953674,40.0,60.0,40.0,False,,275.3991173286244,[],"[657, 369.5]",ColorTask,12.0,18.0,,,HRV,HRV_0085,2022-11-30 18:05:02
,wl-rdm,26,115169,0.0-6.18-0.18,0.0,27.0,,,,,,,[],,,,,,87.9,0.0,u,0.0,True,698.3999998569489,42.0,60.0,40.0,False,,266.525309855979,[],"[657, 369.5]",ColorTask,13.0,19.0,,,HRV,HRV_0085,2022-11-30 18:05:02
,wl-rdm,27,117137,0.0-6.19-0.19,0.0,28.0,,,,,,,[],,,,,,50.0,1.0,i,1.0,True,556.8999998569489,34.0,60.0,40.0,False,,333.5721698354572,[],"[657, 369.5]",ColorTask,14.0,20.0,,,HRV,HRV_0085,2022-11-30 18:05:02
,wl-rdm,28,119087,0.0-6.20-0.20,0.0,29.0,,,,,,,[],,,,,,53.2,0.0,i,1.0,False,601.2999999523163,36.0,60.0,40.0,False,,281.83221122285755,[],"[657, 369.5]",ColorTask,13.0,21.0,,,HRV,HRV_0085,2022-11-30 18:05:02
,wl-rdm,29,121271,0.0-6.21-0.21,0.0,30.0,,,,,,,[],,,,,,73.6,1.0,i,1.0,True,837.1999998092651,51.0,60.0,40.0,False,,254.66656188001645,[],"[657, 369.5]",ColorTask,14.0,22.0,,,HRV,HRV_0085,2022-11-30 18:05:02
,wl-rdm,30,123639,0.0-6.22-0.22,0.0,31.0,,,,,,,[],,,,,,87.9,0.0,u,0.0,True,537.6999998092651,33.0,60.0,40.0,False,,393.36161583468737,[],"[657, 369.5]",ColorTask,15.0,23.0,,,HRV,HRV_0085,2022-11-30 18:05:02
,wl-rdm,31,125590,0.0-6.23-0.23,0.0,32.0,,,,,,,[],,,,,,62.5,1.0,i,1.0,True,676.2999997138977,41.0,60.0,40.0,False,,216.02446478036646,[],"[657, 369.5]",ColorTask,16.0,24.0,,,HRV,HRV_0085,2022-11-30 18:05:02
,wl-rdm,32,127740,0.0-6.24-0.24,0.0,33.0,,,,,,,[],,,,,,56.4,1.0,i,1.0,True,677.7999999523163,41.0,60.0,40.0,False,,392.57794851316544,[],"[657, 369.5]",ColorTask,17.0,25.0,,,HRV,HRV_0085,2022-11-30 18:05:02
,wl-rdm,33,129608,0.0-6.25-0.25,0.0,34.0,,,,,,,[],,,,,,87.9,1.0,i,1.0,True,598.4000000953674,36.0,60.0,40.0,False,,206.85404631214283,[],"[657, 369.5]",ColorTask,18.0,26.0,,,HRV,HRV_0085,2022-11-30 18:05:02
,wl-rdm,34,131692,0.0-6.26-0.26,0.0,35.0,,,,,,,[],,,,,,56.4,0.0,i,1.0,False,743.2999999523163,45.0,60.0,40.0,False,,278.7451467668392,[],"[657, 369.5]",ColorTask,17.0,27.0,,,HRV,HRV_0085,2022-11-30 18:05:02
,wl-rdm,35,134359,0.0-6.27-0.27,0.0,36.0,,,,,,,[],,,,,,62.5,0.0,u,0.0,True,1261.4000000953674,76.0,60.0,40.0,False,,300.16243996915114,[],"[657, 369.5]",ColorTask,18.0,28.0,,,HRV,HRV_0085,2022-11-30 18:05:02
,wl-rdm,36,136343,0.0-6.28-0.28,0.0,37.0,,,,,,,[],,,,,,62.5,0.0,u,0.0,True,601.8999998569489,36.0,60.0,40.0,False,,310.33979102861827,[],"[657, 369.5]",ColorTask,19.0,29.0,,,HRV,HRV_0085,2022-11-30 18:05:02
,wl-rdm,37,138378,0.0-6.29-0.29,0.0,38.0,,,,,,,[],,,,,,62.5,1.0,u,0.0,False,689.0000002384186,42.0,60.0,40.0,False,,250.59841138785652,[],"[657, 369.5]",ColorTask,18.0,30.0,,,HRV,HRV_0085,2022-11-30 18:05:02
,wl-rdm,38,140214,0.0-6.30-0.30,0.0,39.0,,,,,,,[],,,,,,62.5,1.0,i,1.0,True,471.2999999523163,29.0,60.0,40.0,False,,291.0653790900747,[],"[657, 369.5]",ColorTask,19.0,31.0,,,HRV,HRV_0085,2022-11-30 18:05:02
,wl-rdm,39,142230,0.0-6.31-0.31,0.0,40.0,,,,,,,[],,,,,,73.6,1.0,i,1.0,True,669.9000000953674,41.0,60.0,40.0,False,,270.13289811175827,[],"[657, 369.5]",ColorTask,20.0,32.0,,,HRV,HRV_0085,2022-11-30 18:05:02
,wl-rdm,40,144196,0.0-6.32-0.32,0.0,41.0,,,,,,,[],,,,,,50.0,1.0,i,1.0,True,623.5,38.0,60.0,40.0,False,,271.5754700158127,[],"[657, 369.5]",ColorTask,21.0,33.0,,,HRV,HRV_0085,2022-11-30 18:05:02
,wl-rdm,41,146098,0.0-6.33-0.33,0.0,42.0,,,,,,,[],,,,,,87.9,0.0,i,1.0,False,579.8999998569489,35.0,60.0,40.0,False,,255.37667431177312,[],"[657, 369.5]",ColorTask,20.0,34.0,,,HRV,HRV_0085,2022-11-30 18:05:02
,wl-rdm,42,148231,0.0-6.34-0.34,0.0,43.0,,,,,,,[],,,,,,56.4,1.0,i,1.0,True,695.5,42.0,60.0,40.0,False,,373.184137948508,[],"[657, 369.5]",ColorTask,21.0,35.0,,,HRV,HRV_0085,2022-11-30 18:05:02
,wl-rdm,43,150116,0.0-6.35-0.35,0.0,44.0,,,,,,,[],,,,,,87.9,1.0,i,1.0,True,606.7000000476837,37.0,60.0,40.0,False,,207.93114645375906,[],"[657, 369.5]",ColorTask,22.0,36.0,,,HRV,HRV_0085,2022-11-30 18:05:02
,wl-rdm,44,152216,0.0-6.36-0.36,0.0,45.0,,,,,,,[],,,,,,73.6,0.0,u,0.0,True,717.3000001907349,43.0,60.0,40.0,False,,305.03529095027216,[],"[657, 369.5]",ColorTask,23.0,37.0,,,HRV,HRV_0085,2022-11-30 18:05:02
,wl-rdm,45,154068,0.0-6.37-0.37,0.0,46.0,,,,,,,[],,,,,,50.0,0.0,u,0.0,True,477.09999990463257,29.0,60.0,40.0,False,,313.8467524652591,[],"[657, 369.5]",ColorTask,24.0,38.0,,,HRV,HRV_0085,2022-11-30 18:05:02
,wl-rdm,46,156034,0.0-6.38-0.38,0.0,47.0,,,,,,,[],,,,,,87.9,1.0,i,1.0,True,628.7999999523163,38.0,60.0,40.0,False,,280.626929926008,[],"[657, 369.5]",ColorTask,25.0,39.0,,,HRV,HRV_0085,2022-11-30 18:05:02
,wl-rdm,47,158032,0.0-6.39-0.39,0.0,48.0,,,,,,,[],,,,,,73.6,1.0,i,1.0,True,707.2999999523163,42.0,60.0,40.0,False,,200.63631828206334,[],"[657, 369.5]",ColorTask,26.0,40.0,,,HRV,HRV_0085,2022-11-30 18:05:02
,wl-rdm,48,160069,0.0-6.40-0.40,0.0,49.0,,,,,,,[],,,,,,73.6,1.0,i,1.0,True,712.6999998092651,44.0,60.0,40.0,False,,221.79949479471782,[],"[657, 369.5]",ColorTask,27.0,41.0,,,HRV,HRV_0085,2022-11-30 18:05:02
,wl-rdm,49,162036,0.0-6.41-0.41,0.0,50.0,,,,,,,[],,,,,,62.5,0.0,u,0.0,True,597.8000001907349,36.0,60.0,40.0,False,,290.77475227507307,[],"[657, 369.5]",ColorTask,28.0,42.0,,,HRV,HRV_0085,2022-11-30 18:05:02
,wl-rdm,50,164254,0.0-6.42-0.42,0.0,51.0,,,,,,,[],,,,,,56.4,1.0,i,1.0,True,848.3999998569489,51.0,60.0,40.0,False,,287.9392771700126,[],"[657, 369.5]",ColorTask,29.0,43.0,,,HRV,HRV_0085,2022-11-30 18:05:02
,wl-rdm,51,166422,0.0-6.43-0.43,0.0,52.0,,,,,,,[],,,,,,50.0,0.0,i,1.0,False,794.9000000953674,48.0,60.0,40.0,False,,304.6803237139073,[],"[657, 369.5]",ColorTask,28.0,44.0,,,HRV,HRV_0085,2022-11-30 18:05:02
,wl-rdm,52,168440,0.0-6.44-0.44,0.0,53.0,,,,,,,[],,,,,,73.6,1.0,i,1.0,True,592.7000000476837,36.0,60.0,40.0,False,,351.6553452786346,[],"[657, 369.5]",ColorTask,29.0,45.0,,,HRV,HRV_0085,2022-11-30 18:05:02
,wl-rdm,53,170373,0.0-6.45-0.45,0.0,54.0,,,,,,,[],,,,,,73.6,0.0,u,0.0,True,657.9000000953674,40.0,60.0,40.0,False,,200.19344557197996,[],"[657, 369.5]",ColorTask,30.0,46.0,,,HRV,HRV_0085,2022-11-30 18:05:02
,wl-rdm,54,172441,0.0-6.46-0.46,0.0,55.0,,,,,,,[],,,,,,87.9,1.0,i,1.0,True,673.9000000953674,41.0,60.0,40.0,False,,328.5151094101724,[],"[657, 369.5]",ColorTask,31.0,47.0,,,HRV,HRV_0085,2022-11-30 18:05:02
,wl-rdm,55,174641,0.0-6.47-0.47,0.0,56.0,,,,,,,[],,,,,,56.4,1.0,u,0.0,False,891.3000001907349,54.0,60.0,40.0,False,,237.16518063450974,[],"[657, 369.5]",ColorTask,30.0,48.0,,,HRV,HRV_0085,2022-11-30 18:05:02
,wl-rdm,56,176492,0.0-6.48-0.48,0.0,57.0,,,,,,,[],,,,,,56.4,0.0,u,0.0,True,535.9000000953674,32.0,60.0,40.0,False,,243.90063697525463,[],"[657, 369.5]",ColorTask,31.0,49.0,,,HRV,HRV_0085,2022-11-30 18:05:02
,wl-rdm,57,178693,0.0-6.49-0.49,0.0,58.0,,,,,,,[],,,,,,62.5,1.0,i,1.0,True,910.7999999523163,55.0,60.0,40.0,False,,217.06700681195707,[],"[657, 369.5]",ColorTask,32.0,50.0,,,HRV,HRV_0085,2022-11-30 18:05:02
,wl-rdm,58,181027,0.0-6.50-0.50,0.0,59.0,,,,,,,[],,,,,,56.4,0.0,u,0.0,True,980.7999999523163,58.0,60.0,40.0,False,,271.295621685962,[],"[657, 369.5]",ColorTask,33.0,51.0,,,HRV,HRV_0085,2022-11-30 18:05:02
,wl-rdm,59,183178,0.0-6.51-0.51,0.0,60.0,,,,,,,[],,,,,,56.4,1.0,u,0.0,False,824.7999999523163,50.0,60.0,40.0,False,,258.42760154387804,[],"[657, 369.5]",ColorTask,32.0,52.0,,,HRV,HRV_0085,2022-11-30 18:05:02
,wl-rdm,60,185679,0.0-6.52-0.52,0.0,61.0,,,,,,,[],,,,,,50.0,0.0,u,0.0,True,1076.0,65.0,60.0,40.0,False,,357.8332229489116,[],"[657, 369.5]",ColorTask,33.0,53.0,,,HRV,HRV_0085,2022-11-30 18:05:02
,wl-rdm,61,188080,0.0-6.53-0.53,0.0,62.0,,,,,,,[],,,,,,53.2,1.0,u,0.0,False,1073.2000000476837,65.0,60.0,40.0,False,,259.4950387040095,[],"[657, 369.5]",ColorTask,32.0,54.0,,,HRV,HRV_0085,2022-11-30 18:05:02
,wl-rdm,62,190397,0.0-6.54-0.54,0.0,63.0,,,,,,,[],,,,,,50.0,0.0,u,0.0,True,841.4999997615814,50.0,60.0,40.0,False,,396.85735560984375,[],"[657, 369.5]",ColorTask,33.0,55.0,,,HRV,HRV_0085,2022-11-30 18:05:02
,wl-rdm,63,192682,0.0-6.55-0.55,0.0,64.0,,,,,,,[],,,,,,56.4,0.0,i,1.0,False,999.5,60.0,60.0,40.0,False,,209.655252608322,[],"[657, 369.5]",ColorTask,32.0,56.0,,,HRV,HRV_0085,2022-11-30 18:05:02
,wl-rdm,64,194865,0.0-6.56-0.56,0.0,65.0,,,,,,,[],,,,,,62.5,1.0,i,1.0,True,873.9000000953674,53.0,60.0,40.0,False,,246.3160826545468,[],"[657, 369.5]",ColorTask,33.0,57.0,,,HRV,HRV_0085,2022-11-30 18:05:02
,wl-rdm,65,196916,0.0-6.57-0.57,0.0,66.0,,,,,,,[],,,,,,62.5,0.0,u,0.0,True,723.9000000953674,42.0,60.0,40.0,False,,238.44589768272738,[],"[657, 369.5]",ColorTask,34.0,58.0,,,HRV,HRV_0085,2022-11-30 18:05:02
,wl-rdm,66,199217,0.0-6.58-0.58,0.0,67.0,,,,,,,[],,,,,,50.0,1.0,u,0.0,False,928.9999997615814,56.0,60.0,40.0,False,,308.65541881189677,[],"[657, 369.5]",ColorTask,33.0,59.0,,,HRV,HRV_0085,2022-11-30 18:05:02
,wl-rdm,67,201052,0.0-6.59-0.59,0.0,68.0,,,,,,,[],,,,,,50.0,1.0,i,1.0,True,489.2000000476837,30.0,60.0,40.0,False,,274.93131025419797,[],"[657, 369.5]",ColorTask,34.0,60.0,,,HRV,HRV_0085,2022-11-30 18:05:02
,wl-rdm,68,202969,0.0-6.60-0.60,0.0,69.0,,,,,,,[],,,,,,87.9,1.0,i,1.0,True,559.7000000476837,34.0,60.0,40.0,False,,290.38371263457486,[],"[657, 369.5]",ColorTask,35.0,61.0,,,HRV,HRV_0085,2022-11-30 18:05:02
,wl-rdm,69,205120,0.0-6.61-0.61,0.0,70.0,,,,,,,[],,,,,,50.0,0.0,i,1.0,False,866.9999997615814,52.0,60.0,40.0,False,,201.95648792669797,[],"[657, 369.5]",ColorTask,34.0,62.0,,,HRV,HRV_0085,2022-11-30 18:05:02
,wl-rdm,70,206954,0.0-6.62-0.62,0.0,71.0,,,,,,,[],,,,,,87.9,0.0,u,0.0,True,514.5,31.0,60.0,40.0,False,,262.28288594773295,[],"[657, 369.5]",ColorTask,35.0,63.0,,,HRV,HRV_0085,2022-11-30 18:05:02
,wl-rdm,71,209105,0.0-6.63-0.63,0.0,72.0,,,,,,,[],,,,,,56.4,1.0,i,1.0,True,686.8999998569489,42.0,60.0,40.0,False,,378.06727058402373,[],"[657, 369.5]",ColorTask,36.0,64.0,,,HRV,HRV_0085,2022-11-30 18:05:02
,wl-rdm,72,211155,0.0-6.64-0.64,0.0,73.0,,,,,,,[],,,,,,87.9,1.0,u,0.0,False,687.2000000476837,42.0,60.0,40.0,False,,274.51025386368417,[],"[657, 369.5]",ColorTask,35.0,65.0,,,HRV,HRV_0085,2022-11-30 18:05:02
,wl-rdm,73,213122,0.0-6.65-0.65,0.0,74.0,,,,,,,[],,,,,,53.2,1.0,u,0.0,False,688.4000000953674,42.0,60.0,40.0,False,,206.4635778595036,[],"[657, 369.5]",ColorTask,34.0,66.0,,,HRV,HRV_0085,2022-11-30 18:05:02
,wl-rdm,74,215590,0.0-6.66-0.66,0.0,75.0,,,,,,,[],,,,,,56.4,0.0,u,0.0,True,1135.9000000953674,69.0,60.0,40.0,False,,238.48473127074226,[],"[657, 369.5]",ColorTask,35.0,67.0,,,HRV,HRV_0085,2022-11-30 18:05:02
,wl-rdm,75,217674,0.0-6.67-0.67,0.0,76.0,,,,,,,[],,,,,,53.2,1.0,i,1.0,True,653.1000001430511,40.0,60.0,40.0,False,,362.53222600030745,[],"[657, 369.5]",ColorTask,36.0,68.0,,,HRV,HRV_0085,2022-11-30 18:05:02
,wl-rdm,76,219843,0.0-6.68-0.68,0.0,77.0,,,,,,,[],,,,,,53.2,1.0,i,1.0,True,812.0999999046326,49.0,60.0,40.0,False,,287.3294483567195,[],"[657, 369.5]",ColorTask,37.0,69.0,,,HRV,HRV_0085,2022-11-30 18:05:02
,wl-rdm,77,221826,0.0-6.69-0.69,0.0,78.0,,,,,,,[],,,,,,87.9,0.0,u,0.0,True,663.3999998569489,40.0,60.0,40.0,False,,253.24887658550887,[],"[657, 369.5]",ColorTask,38.0,70.0,,,HRV,HRV_0085,2022-11-30 18:05:02
,wl-rdm,78,223827,0.0-6.70-0.70,0.0,79.0,,,,,,,[],,,,,,50.0,0.0,i,1.0,False,605.5,37.0,60.0,40.0,False,,317.0936812037861,[],"[657, 369.5]",ColorTask,37.0,71.0,,,HRV,HRV_0085,2022-11-30 18:05:02
,wl-rdm,79,226078,0.0-6.71-0.71,0.0,80.0,,,,,,,[],,,,,,62.5,0.0,i,1.0,False,859.9000000953674,52.0,60.0,40.0,False,,309.2322693546334,[],"[657, 369.5]",ColorTask,36.0,72.0,,,HRV,HRV_0085,2022-11-30 18:05:02
,wl-rdm,80,228362,0.0-6.72-0.72,0.0,81.0,,,,,,,[],,,,,,62.5,1.0,i,1.0,True,916.1000001430511,55.0,60.0,40.0,False,,314.2774517947354,[],"[657, 369.5]",ColorTask,37.0,73.0,,,HRV,HRV_0085,2022-11-30 18:05:02
,wl-rdm,81,230829,0.0-6.73-0.73,0.0,82.0,,,,,,,[],,,,,,53.2,0.0,u,0.0,True,1051.4999997615814,63.0,60.0,40.0,False,,337.9404096863581,[],"[657, 369.5]",ColorTask,38.0,74.0,,,HRV,HRV_0085,2022-11-30 18:05:02
,wl-rdm,82,232731,0.0-6.74-0.74,0.0,83.0,,,,,,,[],,,,,,53.2,0.0,i,1.0,False,617.1000001430511,37.0,60.0,40.0,False,,208.81138143320476,[],"[657, 369.5]",ColorTask,37.0,75.0,,,HRV,HRV_0085,2022-11-30 18:05:02
,wl-rdm,83,234764,0.0-6.75-0.75,0.0,84.0,,,,,,,[],,,,,,53.2,0.0,i,1.0,False,746.0,45.0,60.0,40.0,False,,229.12201085454763,[],"[657, 369.5]",ColorTask,36.0,76.0,,,HRV,HRV_0085,2022-11-30 18:05:02
,wl-rdm,84,236915,0.0-6.76-0.76,0.0,85.0,,,,,,,[],,,,,,50.0,1.0,u,0.0,False,825.9000000953674,50.0,60.0,40.0,False,,247.23182045935488,[],"[657, 369.5]",ColorTask,35.0,77.0,,,HRV,HRV_0085,2022-11-30 18:05:02
,wl-rdm,85,238816,0.0-6.77-0.77,0.0,86.0,,,,,,,[],,,,,,53.2,1.0,i,1.0,True,531.9000000953674,31.0,60.0,40.0,False,,310.13259043355697,[],"[657, 369.5]",ColorTask,36.0,78.0,,,HRV,HRV_0085,2022-11-30 18:05:02
,wl-rdm,86,240100,0.0-6.78-0.78,0.0,86.0,,,,,,,[],,,,,,73.6,1.0,u,,,736.0,0.0,60.0,40.0,True,too_early ,237.2344061159973,[],"[657, 369.5]",ColorTask,35.0,79.0,,,HRV,HRV_0085,2022-11-30 18:05:02
,wl-rdm,87,242368,0.0-6.79-0.79,0.0,87.0,,,,,,,[],,,,,,87.9,0.0,u,0.0,True,800.5999999046326,48.0,60.0,40.0,False,,384.25809885914623,[],"[657, 369.5]",ColorTask,36.0,80.0,,,HRV,HRV_0085,2022-11-30 18:05:02
,wl-rdm,88,244302,0.0-6.80-0.80,0.0,88.0,,,,,,,[],,,,,,87.9,0.0,u,0.0,True,656.0,40.0,60.0,40.0,False,,201.66150166086194,[],"[657, 369.5]",ColorTask,37.0,81.0,,,HRV,HRV_0085,2022-11-30 18:05:02
,wl-rdm,89,246602,0.0-6.81-0.81,0.0,89.0,,,,,,,[],,,,,,62.5,0.0,i,1.0,False,852.1000001430511,51.0,60.0,40.0,False,,367.1320670625083,[],"[657, 369.5]",ColorTask,36.0,82.0,,,HRV,HRV_0085,2022-11-30 18:05:02
,wl-rdm,90,248820,0.0-6.82-0.82,0.0,90.0,,,,,,,[],,,,,,50.0,1.0,i,1.0,True,737.9000000953674,44.0,60.0,40.0,False,,399.58098571461136,[],"[657, 369.5]",ColorTask,37.0,83.0,,,HRV,HRV_0085,2022-11-30 18:05:02
,wl-rdm,91,250870,0.0-6.83-0.83,0.0,91.0,,,,,,,[],,,,,,56.4,1.0,i,1.0,True,778.5999999046326,46.0,60.0,40.0,False,,208.16763072152952,[],"[657, 369.5]",ColorTask,38.0,84.0,,,HRV,HRV_0085,2022-11-30 18:05:02
,wl-rdm,92,253055,0.0-6.84-0.84,0.0,92.0,,,,,,,[],,,,,,73.6,1.0,i,1.0,True,725.9000000953674,44.0,60.0,40.0,False,,395.44569672743694,[],"[657, 369.5]",ColorTask,39.0,85.0,,,HRV,HRV_0085,2022-11-30 18:05:02
,wl-rdm,93,255139,0.0-6.85-0.85,0.0,93.0,,,,,,,[],,,,,,50.0,1.0,i,1.0,True,705.8000001907349,43.0,60.0,40.0,False,,306.98758289756034,[],"[657, 369.5]",ColorTask,40.0,86.0,,,HRV,HRV_0085,2022-11-30 18:05:02
,wl-rdm,94,257540,0.0-6.86-0.86,0.0,94.0,,,,,,,[],,,,,,50.0,0.0,u,0.0,True,1089.3999998569489,66.0,60.0,40.0,False,,242.6211981972621,[],"[657, 369.5]",ColorTask,41.0,87.0,,,HRV,HRV_0085,2022-11-30 18:05:02
,wl-rdm,95,259523,0.0-6.87-0.87,0.0,95.0,,,,,,,[],,,,,,87.9,1.0,i,1.0,True,643.2000000476837,39.0,60.0,40.0,False,,280.1018749435843,[],"[657, 369.5]",ColorTask,42.0,88.0,,,HRV,HRV_0085,2022-11-30 18:05:02
,wl-rdm,96,261674,0.0-6.88-0.88,0.0,96.0,,,,,,,[],,,,,,73.6,0.0,u,0.0,True,765.9000000953674,46.0,60.0,40.0,False,,325.61588548217776,[],"[657, 369.5]",ColorTask,43.0,89.0,,,HRV,HRV_0085,2022-11-30 18:05:02
,wl-rdm,97,263792,0.0-6.89-0.89,0.0,97.0,,,,,,,[],,,,,,56.4,0.0,i,1.0,False,777.8999998569489,47.0,60.0,40.0,False,,277.92561889032476,[],"[657, 369.5]",ColorTask,42.0,90.0,,,HRV,HRV_0085,2022-11-30 18:05:02
,wl-rdm,98,265759,0.0-6.90-0.90,0.0,98.0,,,,,,,[],,,,,,73.6,1.0,i,1.0,True,639.1999998092651,39.0,60.0,40.0,False,,255.76782422504712,[],"[657, 369.5]",ColorTask,43.0,91.0,,,HRV,HRV_0085,2022-11-30 18:05:02
,wl-rdm,99,267860,0.0-6.91-0.91,0.0,99.0,,,,,,,[],,,,,,73.6,0.0,u,0.0,True,761.9999997615814,46.0,60.0,40.0,False,,267.17146350196606,[],"[657, 369.5]",ColorTask,44.0,92.0,,,HRV,HRV_0085,2022-11-30 18:05:02
,wl-rdm,100,270145,0.0-6.92-0.92,0.0,100.0,,,,,,,[],,,,,,56.4,1.0,i,1.0,True,1023.0,62.0,60.0,40.0,False,,205.1287910704034,[],"[657, 369.5]",ColorTask,45.0,93.0,,,HRV,HRV_0085,2022-11-30 18:05:02
,wl-rdm,101,272362,0.0-6.93-0.93,0.0,101.0,,,,,,,[],,,,,,53.2,0.0,u,0.0,True,871.8000001907349,53.0,60.0,40.0,False,,279.03253469569364,[],"[657, 369.5]",ColorTask,46.0,94.0,,,HRV,HRV_0085,2022-11-30 18:05:02
,wl-rdm,102,274362,0.0-6.94-0.94,0.0,102.0,,,,,,,[],,,,,,62.5,0.0,i,1.0,False,724.9000000953674,42.0,60.0,40.0,False,,208.88448129398995,[],"[657, 369.5]",ColorTask,45.0,95.0,,,HRV,HRV_0085,2022-11-30 18:05:02
,wl-rdm,103,276380,0.0-6.95-0.95,0.0,103.0,,,,,,,[],,,,,,53.2,0.0,i,1.0,False,650.1000001430511,39.0,60.0,40.0,False,,293.13279234916246,[],"[657, 369.5]",ColorTask,44.0,96.0,,,HRV,HRV_0085,2022-11-30 18:05:02
,wl-rdm,104,278381,0.0-6.96-0.96,0.0,104.0,,,,,,,[],,,,,,62.5,1.0,i,1.0,True,712.6999998092651,43.0,60.0,40.0,False,,216.9995212036423,[],"[657, 369.5]",ColorTask,45.0,97.0,,,HRV,HRV_0085,2022-11-30 18:05:02
,wl-rdm,105,280665,0.0-6.97-0.97,0.0,105.0,,,,,,,[],,,,,,62.5,1.0,u,0.0,False,958.0000002384186,58.0,60.0,40.0,False,,256.4726832123913,[],"[657, 369.5]",ColorTask,44.0,98.0,,,HRV,HRV_0085,2022-11-30 18:05:02
,wl-rdm,106,282800,0.0-6.98-0.98,0.0,106.0,,,,,,,[],,,,,,73.6,0.0,u,0.0,True,815.3999998569489,49.0,60.0,40.0,False,,253.6344904560531,[],"[657, 369.5]",ColorTask,45.0,99.0,,,HRV,HRV_0085,2022-11-30 18:05:02
,wl-rdm,107,284817,0.0-6.99-0.99,0.0,107.0,,,,,,,[],,,,,,73.6,1.0,i,1.0,True,662.8000001907349,40.0,60.0,40.0,False,,274.84945017794337,[],"[657, 369.5]",ColorTask,46.0,100.0,,,HRV,HRV_0085,2022-11-30 18:05:02
,wl-rdm,108,287351,0.0-6.100-0.100,0.0,108.0,,,,,,,[],,,,,,73.6,0.0,u,0.0,True,1139.2999999523163,68.0,60.0,40.0,False,,303.34967017196493,[],"[657, 369.5]",ColorTask,47.0,101.0,,,HRV,HRV_0085,2022-11-30 18:05:02
,wl-rdm,109,289268,0.0-6.101-0.101,0.0,109.0,,,,,,,[],,,,,,87.9,1.0,i,1.0,True,547.5999999046326,33.0,60.0,40.0,False,,312.28609606294197,[],"[657, 369.5]",ColorTask,48.0,102.0,,,HRV,HRV_0085,2022-11-30 18:05:02
,wl-rdm,110,291819,0.0-6.102-0.102,0.0,110.0,,,,,,,[],,,,,,50.0,0.0,u,0.0,True,1234.1999998092651,74.0,60.0,40.0,False,,236.7736843405777,[],"[657, 369.5]",ColorTask,49.0,103.0,,,HRV,HRV_0085,2022-11-30 18:05:02
,wl-rdm,111,293770,0.0-6.103-0.103,0.0,111.0,,,,,,,[],,,,,,87.9,1.0,i,1.0,True,691.0,42.0,60.0,40.0,False,,210.90347760273144,[],"[657, 369.5]",ColorTask,50.0,104.0,,,HRV,HRV_0085,2022-11-30 18:05:02
,wl-rdm,112,296305,0.0-6.104-0.104,0.0,112.0,,,,,,,[],,,,,,53.2,1.0,i,1.0,True,1265.2000000476837,76.0,60.0,40.0,False,,214.713047681997,[],"[657, 369.5]",ColorTask,51.0,105.0,,,HRV,HRV_0085,2022-11-30 18:05:02
,wl-rdm,113,298489,0.0-6.105-0.105,0.0,113.0,,,,,,,[],,,,,,62.5,1.0,i,1.0,True,810.5999999046326,49.0,60.0,40.0,False,,299.11299749256915,[],"[657, 369.5]",ColorTask,52.0,106.0,,,HRV,HRV_0085,2022-11-30 18:05:02
,wl-rdm,114,300623,0.0-6.106-0.106,0.0,114.0,,,,,,,[],,,,,,87.9,0.0,u,0.0,True,723.9000000953674,44.0,60.0,40.0,False,,348.2477242211478,[],"[657, 369.5]",ColorTask,53.0,107.0,,,HRV,HRV_0085,2022-11-30 18:05:02
,wl-rdm,115,303191,0.0-6.107-0.107,0.0,115.0,,,,,,,[],,,,,,53.2,0.0,i,1.0,False,1168.2000000476837,70.0,60.0,40.0,False,,324.6113634130462,[],"[657, 369.5]",ColorTask,52.0,108.0,,,HRV,HRV_0085,2022-11-30 18:05:02
,wl-rdm,116,305442,0.0-6.108-0.108,0.0,116.0,,,,,,,[],,,,,,50.0,1.0,u,0.0,False,838.5999999046326,51.0,60.0,40.0,False,,343.44303518474186,[],"[657, 369.5]",ColorTask,51.0,109.0,,,HRV,HRV_0085,2022-11-30 18:05:02
,wl-html-keyboard-response,117,319051,0.0-7.0-0.0,1.0,117.0,,,,,,,,11593.900000095367,1.0,0,,,,,,,,,,,,,,,,,,,,,,HRV,HRV_0085,2022-11-30 18:05:02
,wl-rdm,118,321164,0.0-8.0-0.0,1.0,118.0,,,,,,,[],,,,,,53.2,0.0,i,1.0,False,819.5,48.0,60.0,40.0,False,,212.54600199156258,[],"[657, 369.5]",ColorTask,50.0,1.0,,,HRV,HRV_0085,2022-11-30 18:05:02
,wl-rdm,119,323148,0.0-8.1-0.1,1.0,119.0,,,,,,,[],,,,,,73.6,1.0,i,1.0,True,592.2999999523163,36.0,60.0,40.0,False,,303.0474871159512,[],"[657, 369.5]",ColorTask,51.0,2.0,,,HRV,HRV_0085,2022-11-30 18:05:02
,wl-rdm,120,325116,0.0-8.2-0.2,1.0,120.0,,,,,,,[],,,,,,62.5,1.0,i,1.0,True,669.5,41.0,60.0,40.0,False,,228.57503348654836,[],"[657, 369.5]",ColorTask,52.0,3.0,,,HRV,HRV_0085,2022-11-30 18:05:02
,wl-rdm,121,327100,0.0-8.3-0.3,1.0,121.0,,,,,,,[],,,,,,87.9,1.0,i,1.0,True,680.5,41.0,60.0,40.0,False,,235.20305941775058,[],"[657, 369.5]",ColorTask,53.0,4.0,,,HRV,HRV_0085,2022-11-30 18:05:02
,wl-rdm,122,329301,0.0-8.4-0.4,1.0,122.0,,,,,,,[],,,,,,50.0,0.0,i,1.0,False,908.8999998569489,55.0,60.0,40.0,False,,227.71918169606727,[],"[657, 369.5]",ColorTask,52.0,5.0,,,HRV,HRV_0085,2022-11-30 18:05:02
,wl-rdm,123,331402,0.0-8.5-0.5,1.0,123.0,,,,,,,[],,,,,,50.0,0.0,i,1.0,False,721.1000001430511,44.0,60.0,40.0,False,,313.6776478180665,[],"[657, 369.5]",ColorTask,51.0,6.0,,,HRV,HRV_0085,2022-11-30 18:05:02
,wl-rdm,124,333220,0.0-8.6-0.6,1.0,124.0,,,,,,,[],,,,,,56.4,0.0,u,0.0,True,508.09999990463257,31.0,60.0,40.0,False,,214.72601625189245,[],"[657, 369.5]",ColorTask,52.0,7.0,,,HRV,HRV_0085,2022-11-30 18:05:02
,wl-rdm,125,335270,0.0-8.7-0.7,1.0,125.0,,,,,,,[],,,,,,62.5,0.0,u,0.0,True,728.3999998569489,44.0,60.0,40.0,False,,248.7019885557836,[],"[657, 369.5]",ColorTask,53.0,8.0,,,HRV,HRV_0085,2022-11-30 18:05:02
,wl-rdm,126,337305,0.0-8.8-0.8,1.0,126.0,,,,,,,[],,,,,,56.4,1.0,i,1.0,True,577.7999999523163,35.0,60.0,40.0,False,,392.76455709682955,[],"[657, 369.5]",ColorTask,54.0,9.0,,,HRV,HRV_0085,2022-11-30 18:05:02
,wl-rdm,127,339438,0.0-8.9-0.9,1.0,127.0,,,,,,,[],,,,,,53.2,1.0,i,1.0,True,817.9000000953674,49.0,60.0,40.0,False,,239.59539875776034,[],"[657, 369.5]",ColorTask,55.0,10.0,,,HRV,HRV_0085,2022-11-30 18:05:02
,wl-rdm,128,341506,0.0-8.10-0.10,1.0,128.0,,,,,,,[],,,,,,73.6,0.0,u,0.0,True,787.7000000476837,48.0,60.0,40.0,False,,202.95604556245362,[],"[657, 369.5]",ColorTask,56.0,11.0,,,HRV,HRV_0085,2022-11-30 18:05:02
,wl-rdm,129,343489,0.0-8.11-0.11,1.0,129.0,,,,,,,[],,,,,,73.6,0.0,u,0.0,True,692.2999999523163,41.0,60.0,40.0,False,,223.54947663584096,[],"[657, 369.5]",ColorTask,57.0,12.0,,,HRV,HRV_0085,2022-11-30 18:05:02
,wl-rdm,130,345791,0.0-8.12-0.12,1.0,130.0,,,,,,,[],,,,,,87.9,1.0,i,1.0,True,1005.1999998092651,61.0,60.0,40.0,False,,231.03205168438768,[],"[657, 369.5]",ColorTask,58.0,13.0,,,HRV,HRV_0085,2022-11-30 18:05:02
,wl-rdm,131,347976,0.0-8.13-0.13,1.0,131.0,,,,,,,[],,,,,,53.2,0.0,i,1.0,False,882.0,53.0,60.0,40.0,False,,244.1879318028986,[],"[657, 369.5]",ColorTask,57.0,14.0,,,HRV,HRV_0085,2022-11-30 18:05:02
,wl-rdm,132,350125,0.0-8.14-0.14,1.0,132.0,,,,,,,[],,,,,,50.0,1.0,i,1.0,True,804.5,49.0,60.0,40.0,False,,282.23752253434157,[],"[657, 369.5]",ColorTask,58.0,15.0,,,HRV,HRV_0085,2022-11-30 18:05:02
,wl-rdm,133,352126,0.0-8.15-0.15,1.0,133.0,,,,,,,[],,,,,,62.5,0.0,u,0.0,True,708.5999999046326,43.0,60.0,40.0,False,,219.24956026329767,[],"[657, 369.5]",ColorTask,59.0,16.0,,,HRV,HRV_0085,2022-11-30 18:05:02
,wl-rdm,134,354242,0.0-8.16-0.16,1.0,134.0,,,,,,,[],,,,,,73.6,1.0,i,1.0,True,802.4000000953674,48.0,60.0,40.0,False,,246.40188195483057,[],"[657, 369.5]",ColorTask,60.0,17.0,,,HRV,HRV_0085,2022-11-30 18:05:02
,wl-rdm,135,356741,0.0-8.17-0.17,1.0,135.0,,,,,,,[],,,,,,53.2,0.0,i,1.0,False,1058.1999998092651,64.0,60.0,40.0,False,,325.86375477314806,[],"[657, 369.5]",ColorTask,59.0,18.0,,,HRV,HRV_0085,2022-11-30 18:05:02
,wl-rdm,136,358863,0.0-8.18-0.18,1.0,136.0,,,,,,,[],,,,,,87.9,0.0,u,0.0,True,790.5000002384186,48.0,60.0,40.0,False,,200.41869603256015,[],"[657, 369.5]",ColorTask,60.0,19.0,,,HRV,HRV_0085,2022-11-30 18:05:02
,wl-rdm,137,361129,0.0-8.19-0.19,1.0,137.0,,,,,,,[],,,,,,73.6,0.0,u,0.0,True,850.2999997138977,51.0,60.0,40.0,False,,348.20619877201943,[],"[657, 369.5]",ColorTask,61.0,20.0,,,HRV,HRV_0085,2022-11-30 18:05:02
,wl-rdm,138,363496,0.0-8.20-0.20,1.0,138.0,,,,,,,[],,,,,,50.0,0.0,u,0.0,True,1097.5,66.0,60.0,40.0,False,,214.09978982821124,[],"[657, 369.5]",ColorTask,62.0,21.0,,,HRV,HRV_0085,2022-11-30 18:05:02
,wl-rdm,139,365530,0.0-8.21-0.21,1.0,139.0,,,,,,,[],,,,,,62.5,1.0,i,1.0,True,713.7000000476837,43.0,60.0,40.0,False,,244.55722213871877,[],"[657, 369.5]",ColorTask,63.0,22.0,,,HRV,HRV_0085,2022-11-30 18:05:02
,wl-rdm,140,367532,0.0-8.22-0.22,1.0,140.0,,,,,,,[],,,,,,73.6,1.0,i,1.0,True,731.6000001430511,44.0,60.0,40.0,False,,216.67187557479585,[],"[657, 369.5]",ColorTask,64.0,23.0,,,HRV,HRV_0085,2022-11-30 18:05:02
,wl-rdm,141,369931,0.0-8.23-0.23,1.0,141.0,,,,,,,[],,,,,,53.2,1.0,i,1.0,True,946.4000000953674,57.0,60.0,40.0,False,,353.80082453235116,[],"[657, 369.5]",ColorTask,65.0,24.0,,,HRV,HRV_0085,2022-11-30 18:05:02
,wl-rdm,142,372300,0.0-8.24-0.24,1.0,142.0,,,,,,,[],,,,,,62.5,1.0,i,1.0,True,941.3000001907349,57.0,60.0,40.0,False,,344.6500421149167,[],"[657, 369.5]",ColorTask,66.0,25.0,,,HRV,HRV_0085,2022-11-30 18:05:02
,wl-rdm,143,374584,0.0-8.25-0.25,1.0,143.0,,,,,,,[],,,,,,56.4,0.0,u,0.0,True,992.4000000953674,60.0,60.0,40.0,False,,228.44843101588884,[],"[657, 369.5]",ColorTask,67.0,26.0,,,HRV,HRV_0085,2022-11-30 18:05:02
,wl-rdm,144,376824,0.0-8.26-0.26,1.0,144.0,,,,,,,[],,,,,,62.5,0.0,u,0.0,True,838.5000002384186,50.0,60.0,40.0,False,,325.77367195029024,[],"[657, 369.5]",ColorTask,68.0,27.0,,,HRV,HRV_0085,2022-11-30 18:05:02
,wl-rdm,145,379219,0.0-8.27-0.27,1.0,145.0,,,,,,,[],,,,,,62.5,1.0,i,1.0,True,1010.7999999523163,61.0,60.0,40.0,False,,306.91194538409235,[],"[657, 369.5]",ColorTask,69.0,28.0,,,HRV,HRV_0085,2022-11-30 18:05:02
,wl-rdm,146,381404,0.0-8.28-0.28,1.0,146.0,,,,,,,[],,,,,,56.4,1.0,i,1.0,True,802.1999998092651,48.0,60.0,40.0,False,,308.7913696739406,[],"[657, 369.5]",ColorTask,70.0,29.0,,,HRV,HRV_0085,2022-11-30 18:05:02
,wl-rdm,147,383538,0.0-8.29-0.29,1.0,147.0,,,,,,,[],,,,,,50.0,1.0,i,1.0,True,836.0999999046326,51.0,60.0,40.0,False,,217.77110883339247,[],"[657, 369.5]",ColorTask,71.0,30.0,,,HRV,HRV_0085,2022-11-30 18:05:02
,wl-rdm,148,385907,0.0-8.30-0.30,1.0,148.0,,,,,,,[],,,,,,56.4,0.0,i,1.0,False,1063.5999999046326,64.0,60.0,40.0,False,,243.20718377568448,[],"[657, 369.5]",ColorTask,70.0,31.0,,,HRV,HRV_0085,2022-11-30 18:05:02
,wl-rdm,149,388005,0.0-8.31-0.31,1.0,149.0,,,,,,,[],,,,,,73.6,1.0,i,1.0,True,775.7999999523163,47.0,60.0,40.0,False,,264.6156137610743,[],"[657, 369.5]",ColorTask,71.0,32.0,,,HRV,HRV_0085,2022-11-30 18:05:02
,wl-rdm,150,390173,0.0-8.32-0.32,1.0,150.0,,,,,,,[],,,,,,87.9,1.0,i,1.0,True,764.6000001430511,46.0,60.0,40.0,False,,322.78528033273653,[],"[657, 369.5]",ColorTask,72.0,33.0,,,HRV,HRV_0085,2022-11-30 18:05:02
,wl-rdm,151,392140,0.0-8.33-0.33,1.0,151.0,,,,,,,[],,,,,,87.9,0.0,u,0.0,True,623.3000001907349,38.0,60.0,40.0,False,,282.9962478390254,[],"[657, 369.5]",ColorTask,73.0,34.0,,,HRV,HRV_0085,2022-11-30 18:05:02
,wl-rdm,152,394491,0.0-8.34-0.34,1.0,152.0,,,,,,,[],,,,,,62.5,0.0,i,1.0,False,1039.7999999523163,62.0,60.0,40.0,False,,249.988071369781,[],"[657, 369.5]",ColorTask,72.0,35.0,,,HRV,HRV_0085,2022-11-30 18:05:02
,wl-rdm,153,396625,0.0-8.35-0.35,1.0,153.0,,,,,,,[],,,,,,50.0,1.0,u,0.0,False,838.0999999046326,51.0,60.0,40.0,False,,220.44141086050973,[],"[657, 369.5]",ColorTask,71.0,36.0,,,HRV,HRV_0085,2022-11-30 18:05:02
,wl-rdm,154,399076,0.0-8.36-0.36,1.0,154.0,,,,,,,[],,,,,,53.2,1.0,i,1.0,True,1138.5000002384186,69.0,60.0,40.0,False,,213.49431513545034,[],"[657, 369.5]",ColorTask,72.0,37.0,,,HRV,HRV_0085,2022-11-30 18:05:02
,wl-rdm,155,401311,0.0-8.37-0.37,1.0,155.0,,,,,,,[],,,,,,50.0,1.0,i,1.0,True,912.8999998569489,55.0,60.0,40.0,False,,239.28195250182347,[],"[657, 369.5]",ColorTask,73.0,38.0,,,HRV,HRV_0085,2022-11-30 18:05:02
,wl-rdm,156,403445,0.0-8.38-0.38,1.0,156.0,,,,,,,[],,,,,,50.0,1.0,i,1.0,True,794.0999999046326,47.0,60.0,40.0,False,,272.19737386341103,[],"[657, 369.5]",ColorTask,74.0,39.0,,,HRV,HRV_0085,2022-11-30 18:05:02
,wl-rdm,157,405729,0.0-8.39-0.39,1.0,157.0,,,,,,,[],,,,,,62.5,1.0,i,1.0,True,852.9000000953674,51.0,60.0,40.0,False,,363.8416821989472,[],"[657, 369.5]",ColorTask,75.0,40.0,,,HRV,HRV_0085,2022-11-30 18:05:02
,wl-rdm,158,407900,0.0-8.40-0.40,1.0,158.0,,,,,,,[],,,,,,53.2,0.0,i,1.0,False,843.5,51.0,60.0,40.0,False,,257.35324989444047,[],"[657, 369.5]",ColorTask,74.0,41.0,,,HRV,HRV_0085,2022-11-30 18:05:02
,wl-rdm,159,410031,0.0-8.41-0.41,1.0,159.0,,,,,,,[],,,,,,56.4,1.0,i,1.0,True,820.7999997138977,50.0,60.0,40.0,False,,231.82731190236677,[],"[657, 369.5]",ColorTask,75.0,42.0,,,HRV,HRV_0085,2022-11-30 18:05:02
,wl-rdm,160,412465,0.0-8.42-0.42,1.0,160.0,,,,,,,[],,,,,,50.0,1.0,i,1.0,True,989.4000000953674,60.0,60.0,40.0,False,,335.41473276220177,[],"[657, 369.5]",ColorTask,76.0,43.0,,,HRV,HRV_0085,2022-11-30 18:05:02
,wl-rdm,161,414817,0.0-8.43-0.43,1.0,161.0,,,,,,,[],,,,,,62.5,1.0,u,0.0,False,1002.5999999046326,61.0,60.0,40.0,False,,274.8322417264005,[],"[657, 369.5]",ColorTask,75.0,44.0,,,HRV,HRV_0085,2022-11-30 18:05:02
,wl-rdm,162,416835,0.0-8.44-0.44,1.0,162.0,,,,,,,[],,,,,,56.4,0.0,u,0.0,True,568.2000000476837,34.0,60.0,40.0,False,,367.80706930405927,[],"[657, 369.5]",ColorTask,76.0,45.0,,,HRV,HRV_0085,2022-11-30 18:05:02
,wl-rdm,163,418985,0.0-8.45-0.45,1.0,163.0,,,,,,,[],,,,,,56.4,0.0,i,1.0,False,754.0999999046326,46.0,60.0,40.0,False,,312.2609179963838,[],"[657, 369.5]",ColorTask,75.0,46.0,,,HRV,HRV_0085,2022-11-30 18:05:02
,wl-rdm,164,421152,0.0-8.46-0.46,1.0,164.0,,,,,,,[],,,,,,53.2,1.0,i,1.0,True,737.6000001430511,45.0,60.0,40.0,False,,336.98967457181527,[],"[657, 369.5]",ColorTask,76.0,47.0,,,HRV,HRV_0085,2022-11-30 18:05:02
,wl-rdm,165,423369,0.0-8.47-0.47,1.0,165.0,,,,,,,[],,,,,,73.6,0.0,u,0.0,True,871.4000000953674,53.0,60.0,40.0,False,,251.0395688037145,[],"[657, 369.5]",ColorTask,77.0,48.0,,,HRV,HRV_0085,2022-11-30 18:05:02
,wl-rdm,166,425337,0.0-8.48-0.48,1.0,166.0,,,,,,,[],,,,,,87.9,0.0,u,0.0,True,677.4000000953674,41.0,60.0,40.0,False,,208.61177936299526,[],"[657, 369.5]",ColorTask,78.0,49.0,,,HRV,HRV_0085,2022-11-30 18:05:02
,wl-rdm,167,427387,0.0-8.49-0.49,1.0,167.0,,,,,,,[],,,,,,62.5,0.0,u,0.0,True,754.3999998569489,46.0,60.0,40.0,False,,224.77401095317774,[],"[657, 369.5]",ColorTask,79.0,50.0,,,HRV,HRV_0085,2022-11-30 18:05:02
,wl-rdm,168,429655,0.0-8.50-0.50,1.0,168.0,,,,,,,[],,,,,,73.6,1.0,i,1.0,True,924.7000000476837,56.0,60.0,40.0,False,,263.68714430631115,[],"[657, 369.5]",ColorTask,80.0,51.0,,,HRV,HRV_0085,2022-11-30 18:05:02
,wl-rdm,169,431839,0.0-8.51-0.51,1.0,169.0,,,,,,,[],,,,,,87.9,0.0,u,0.0,True,761.0,46.0,60.0,40.0,False,,341.3095137223734,[],"[657, 369.5]",ColorTask,81.0,52.0,,,HRV,HRV_0085,2022-11-30 18:05:02
,wl-rdm,170,433983,0.0-8.52-0.52,1.0,170.0,,,,,,,[],,,,,,73.6,1.0,i,1.0,True,724.5,44.0,60.0,40.0,False,,339.7903150995087,[],"[657, 369.5]",ColorTask,82.0,53.0,,,HRV,HRV_0085,2022-11-30 18:05:02
,wl-rdm,171,436108,0.0-8.53-0.53,1.0,171.0,,,,,,,[],,,,,,50.0,0.0,i,1.0,False,778.0,47.0,60.0,40.0,False,,292.33872513532265,[],"[657, 369.5]",ColorTask,81.0,54.0,,,HRV,HRV_0085,2022-11-30 18:05:02
,wl-rdm,172,438241,0.0-8.54-0.54,1.0,172.0,,,,,,,[],,,,,,87.9,0.0,u,0.0,True,677.7999999523163,41.0,60.0,40.0,False,,372.6615766115293,[],"[657, 369.5]",ColorTask,82.0,55.0,,,HRV,HRV_0085,2022-11-30 18:05:02
,wl-rdm,173,440159,0.0-8.55-0.55,1.0,173.0,,,,,,,[],,,,,,50.0,1.0,i,1.0,True,630.2999999523163,38.0,60.0,40.0,False,,222.03242681692547,[],"[657, 369.5]",ColorTask,83.0,56.0,,,HRV,HRV_0085,2022-11-30 18:05:02
,wl-rdm,174,442194,0.0-8.56-0.56,1.0,174.0,,,,,,,[],,,,,,62.5,1.0,i,1.0,True,694.3999998569489,42.0,60.0,40.0,False,,278.3653741382488,[],"[657, 369.5]",ColorTask,84.0,57.0,,,HRV,HRV_0085,2022-11-30 18:05:02
,wl-rdm,175,444794,0.0-8.57-0.57,1.0,175.0,,,,,,,[],,,,,,53.2,0.0,i,1.0,False,1191.7000000476837,72.0,60.0,40.0,False,,330.6017622463464,[],"[657, 369.5]",ColorTask,83.0,58.0,,,HRV,HRV_0085,2022-11-30 18:05:02
,wl-rdm,176,446801,0.0-8.58-0.58,1.0,176.0,,,,,,,[],,,,,,53.2,1.0,i,1.0,True,654.3000001907349,40.0,60.0,40.0,False,,294.05876653229905,[],"[657, 369.5]",ColorTask,84.0,59.0,,,HRV,HRV_0085,2022-11-30 18:05:02
,wl-rdm,177,448763,0.0-8.59-0.59,1.0,177.0,,,,,,,[],,,,,,73.6,0.0,u,0.0,True,650.1000001430511,39.0,60.0,40.0,False,,242.91182016796924,[],"[657, 369.5]",ColorTask,85.0,60.0,,,HRV,HRV_0085,2022-11-30 18:05:02
,wl-rdm,178,450747,0.0-8.60-0.60,1.0,178.0,,,,,,,[],,,,,,62.5,1.0,i,1.0,True,616.1000001430511,37.0,60.0,40.0,False,,300.46472012690265,[],"[657, 369.5]",ColorTask,86.0,61.0,,,HRV,HRV_0085,2022-11-30 18:05:02
,wl-rdm,179,452797,0.0-8.61-0.61,1.0,179.0,,,,,,,[],,,,,,53.2,0.0,i,1.0,False,776.5,47.0,60.0,40.0,False,,210.60910634551354,[],"[657, 369.5]",ColorTask,85.0,62.0,,,HRV,HRV_0085,2022-11-30 18:05:02
,wl-rdm,180,454864,0.0-8.62-0.62,1.0,180.0,,,,,,,[],,,,,,50.0,0.0,i,1.0,False,652.0999999046326,39.0,60.0,40.0,False,,348.9925641616819,[],"[657, 369.5]",ColorTask,84.0,63.0,,,HRV,HRV_0085,2022-11-30 18:05:02
,wl-rdm,181,456998,0.0-8.63-0.63,1.0,181.0,,,,,,,[],,,,,,50.0,0.0,i,1.0,False,721.0,44.0,60.0,40.0,False,,335.2722093656513,[],"[657, 369.5]",ColorTask,83.0,64.0,,,HRV,HRV_0085,2022-11-30 18:05:02
,wl-rdm,182,459450,0.0-8.64-0.64,1.0,182.0,,,,,,,[],,,,,,53.2,1.0,u,0.0,False,1055.5999999046326,64.0,60.0,40.0,False,,308.9220784466446,[],"[657, 369.5]",ColorTask,82.0,65.0,,,HRV,HRV_0085,2022-11-30 18:05:02
,wl-rdm,183,461367,0.0-8.65-0.65,1.0,183.0,,,,,,,[],,,,,,87.9,1.0,i,1.0,True,601.0,36.0,60.0,40.0,False,,235.79124358325,[],"[657, 369.5]",ColorTask,83.0,66.0,,,HRV,HRV_0085,2022-11-30 18:05:02
,wl-rdm,184,463802,0.0-8.66-0.66,1.0,184.0,,,,,,,[],,,,,,53.2,1.0,u,0.0,False,1141.5,69.0,60.0,40.0,False,,222.52344804572525,[],"[657, 369.5]",ColorTask,82.0,67.0,,,HRV,HRV_0085,2022-11-30 18:05:02
,wl-rdm,185,465819,0.0-8.67-0.67,1.0,185.0,,,,,,,[],,,,,,50.0,1.0,i,1.0,True,604.6000001430511,37.0,60.0,40.0,False,,337.69023340048244,[],"[657, 369.5]",ColorTask,83.0,68.0,,,HRV,HRV_0085,2022-11-30 18:05:02
,wl-rdm,186,468270,0.0-8.68-0.68,1.0,186.0,,,,,,,[],,,,,,53.2,0.0,u,0.0,True,1127.8999998569489,68.0,60.0,40.0,False,,249.62804169880968,[],"[657, 369.5]",ColorTask,84.0,69.0,,,HRV,HRV_0085,2022-11-30 18:05:02
,wl-rdm,187,470937,0.0-8.69-0.69,1.0,187.0,,,,,,,[],,,,,,56.4,1.0,i,1.0,True,1393.5,84.0,60.0,40.0,False,,207.28797305536713,[],"[657, 369.5]",ColorTask,85.0,70.0,,,HRV,HRV_0085,2022-11-30 18:05:02
,wl-rdm,188,473088,0.0-8.70-0.70,1.0,188.0,,,,,,,[],,,,,,56.4,0.0,u,0.0,True,865.5999999046326,51.0,60.0,40.0,False,,201.76411246307688,[],"[657, 369.5]",ColorTask,86.0,71.0,,,HRV,HRV_0085,2022-11-30 18:05:02
,wl-rdm,189,475156,0.0-8.71-0.71,1.0,189.0,,,,,,,[],,,,,,87.9,1.0,i,1.0,True,692.7999999523163,42.0,60.0,40.0,False,,293.6821937257598,[],"[657, 369.5]",ColorTask,87.0,72.0,,,HRV,HRV_0085,2022-11-30 18:05:02
,wl-rdm,190,477374,0.0-8.72-0.72,1.0,190.0,,,,,,,[],,,,,,73.6,0.0,u,0.0,True,867.5,52.0,60.0,40.0,False,,277.7364317612392,[],"[657, 369.5]",ColorTask,88.0,73.0,,,HRV,HRV_0085,2022-11-30 18:05:02
,wl-rdm,191,479525,0.0-8.73-0.73,1.0,191.0,,,,,,,[],,,,,,50.0,1.0,i,1.0,True,711.8999998569489,43.0,60.0,40.0,False,,381.5730887659762,[],"[657, 369.5]",ColorTask,89.0,74.0,,,HRV,HRV_0085,2022-11-30 18:05:02
,wl-rdm,192,481676,0.0-8.74-0.74,1.0,192.0,,,,,,,[],,,,,,87.9,1.0,i,1.0,True,742.0999999046326,45.0,60.0,40.0,False,,333.2659594469823,[],"[657, 369.5]",ColorTask,90.0,75.0,,,HRV,HRV_0085,2022-11-30 18:05:02
,wl-rdm,193,483710,0.0-8.75-0.75,1.0,193.0,,,,,,,[],,,,,,87.9,0.0,u,0.0,True,612.5999999046326,37.0,60.0,40.0,False,,345.5981331262813,[],"[657, 369.5]",ColorTask,91.0,76.0,,,HRV,HRV_0085,2022-11-30 18:05:02
,wl-rdm,194,485744,0.0-8.76-0.76,1.0,194.0,,,,,,,[],,,,,,62.5,0.0,u,0.0,True,704.3999998569489,43.0,60.0,40.0,False,,255.753747788849,[],"[657, 369.5]",ColorTask,92.0,77.0,,,HRV,HRV_0085,2022-11-30 18:05:02
,wl-rdm,195,487711,0.0-8.77-0.77,1.0,195.0,,,,,,,[],,,,,,53.2,1.0,u,0.0,False,681.0999999046326,41.0,60.0,40.0,False,,225.0410279187254,[],"[657, 369.5]",ColorTask,91.0,78.0,,,HRV,HRV_0085,2022-11-30 18:05:02
,wl-rdm,196,489949,0.0-8.78-0.78,1.0,196.0,,,,,,,[],,,,,,56.4,0.0,i,1.0,False,811.7000000476837,49.0,60.0,40.0,False,,349.0376153440576,[],"[657, 369.5]",ColorTask,90.0,79.0,,,HRV,HRV_0085,2022-11-30 18:05:02
,wl-rdm,197,492229,0.0-8.79-0.79,1.0,197.0,,,,,,,[],,,,,,62.5,0.0,u,0.0,True,1005.4000000953674,61.0,60.0,40.0,False,,211.46477723825464,[],"[657, 369.5]",ColorTask,91.0,80.0,,,HRV,HRV_0085,2022-11-30 18:05:02
,wl-rdm,198,494347,0.0-8.80-0.80,1.0,198.0,,,,,,,[],,,,,,87.9,0.0,u,0.0,True,758.5,46.0,60.0,40.0,False,,274.06960418632366,[],"[657, 369.5]",ColorTask,92.0,81.0,,,HRV,HRV_0085,2022-11-30 18:05:02
,wl-rdm,199,496815,0.0-8.81-0.81,1.0,199.0,,,,,,,[],,,,,,53.2,1.0,i,1.0,True,1155.9000000953674,70.0,60.0,40.0,False,,247.67382446614897,[],"[657, 369.5]",ColorTask,93.0,82.0,,,HRV,HRV_0085,2022-11-30 18:05:02
,wl-rdm,200,498983,0.0-8.82-0.82,1.0,200.0,,,,,,,[],,,,,,53.2,0.0,u,0.0,True,738.9999997615814,45.0,60.0,40.0,False,,354.6952348905436,[],"[657, 369.5]",ColorTask,94.0,83.0,,,HRV,HRV_0085,2022-11-30 18:05:02
,wl-rdm,201,501400,0.0-8.83-0.83,1.0,201.0,,,,,,,[],,,,,,53.2,0.0,u,0.0,True,1084.1000001430511,64.0,60.0,40.0,False,,263.43841907267336,[],"[657, 369.5]",ColorTask,95.0,84.0,,,HRV,HRV_0085,2022-11-30 18:05:02
,wl-rdm,202,503517,0.0-8.84-0.84,1.0,202.0,,,,,,,[],,,,,,56.4,1.0,u,0.0,False,739.6999998092651,45.0,60.0,40.0,False,,291.82377172595045,[],"[657, 369.5]",ColorTask,94.0,85.0,,,HRV,HRV_0085,2022-11-30 18:05:02
,wl-rdm,203,505468,0.0-8.85-0.85,1.0,203.0,,,,,,,[],,,,,,87.9,1.0,i,1.0,True,485.80000019073486,29.0,60.0,40.0,False,,391.3249453101165,[],"[657, 369.5]",ColorTask,95.0,86.0,,,HRV,HRV_0085,2022-11-30 18:05:02
,wl-rdm,204,507502,0.0-8.86-0.86,1.0,204.0,,,,,,,[],,,,,,87.9,0.0,u,0.0,True,689.3999998569489,43.0,60.0,40.0,False,,237.4783163422711,[],"[657, 369.5]",ColorTask,96.0,87.0,,,HRV,HRV_0085,2022-11-30 18:05:02
,wl-rdm,205,509959,0.0-8.87-0.87,1.0,205.0,,,,,,,[],,,,,,50.0,0.0,i,1.0,False,1024.4999997615814,62.0,60.0,40.0,False,,323.1500051073613,[],"[657, 369.5]",ColorTask,95.0,88.0,,,HRV,HRV_0085,2022-11-30 18:05:02
,wl-rdm,206,511990,0.0-8.88-0.88,1.0,206.0,,,,,,,[],,,,,,73.6,1.0,i,1.0,True,756.3999998569489,46.0,60.0,40.0,False,,205.27172167495686,[],"[657, 369.5]",ColorTask,96.0,89.0,,,HRV,HRV_0085,2022-11-30 18:05:02
,wl-rdm,207,513954,0.0-8.89-0.89,1.0,207.0,,,,,,,[],,,,,,50.0,0.0,u,0.0,True,594.8999998569489,36.0,60.0,40.0,False,,312.3673279402992,[],"[657, 369.5]",ColorTask,97.0,90.0,,,HRV,HRV_0085,2022-11-30 18:05:02
,wl-rdm,208,515888,0.0-8.90-0.90,1.0,208.0,,,,,,,[],,,,,,87.9,1.0,i,1.0,True,660.7000000476837,40.0,60.0,40.0,False,,214.95557474518566,[],"[657, 369.5]",ColorTask,98.0,91.0,,,HRV,HRV_0085,2022-11-30 18:05:02
,wl-rdm,209,518173,0.0-8.91-0.91,1.0,209.0,,,,,,,[],,,,,,56.4,0.0,i,1.0,False,934.2000000476837,56.0,60.0,40.0,False,,279.677693590236,[],"[657, 369.5]",ColorTask,97.0,92.0,,,HRV,HRV_0085,2022-11-30 18:05:02
,wl-rdm,210,520207,0.0-8.92-0.92,1.0,210.0,,,,,,,[],,,,,,73.6,1.0,i,1.0,True,638.3000001907349,39.0,60.0,40.0,False,,319.74108647244225,[],"[657, 369.5]",ColorTask,98.0,93.0,,,HRV,HRV_0085,2022-11-30 18:05:02
,wl-rdm,211,522491,0.0-8.93-0.93,1.0,211.0,,,,,,,[],,,,,,62.5,0.0,u,0.0,True,966.7000000476837,58.0,60.0,40.0,False,,246.41637012263965,[],"[657, 369.5]",ColorTask,99.0,94.0,,,HRV,HRV_0085,2022-11-30 18:05:02
,wl-rdm,212,524710,0.0-8.94-0.94,1.0,212.0,,,,,,,[],,,,,,50.0,0.0,u,0.0,True,908.5,55.0,60.0,40.0,False,,238.83898705217632,[],"[657, 369.5]",ColorTask,100.0,95.0,,,HRV,HRV_0085,2022-11-30 18:05:02
,wl-rdm,213,527077,0.0-8.95-0.95,1.0,213.0,,,,,,,[],,,,,,56.4,1.0,i,1.0,True,995.0,60.0,60.0,40.0,False,,288.1164418105111,[],"[657, 369.5]",ColorTask,101.0,96.0,,,HRV,HRV_0085,2022-11-30 18:05:02
,wl-rdm,214,529594,0.0-8.96-0.96,1.0,214.0,,,,,,,[],,,,,,56.4,0.0,u,0.0,True,1068.3999998569489,64.0,60.0,40.0,False,,372.0738885197932,[],"[657, 369.5]",ColorTask,102.0,97.0,,,HRV,HRV_0085,2022-11-30 18:05:02
,wl-rdm,215,531629,0.0-8.97-0.97,1.0,215.0,,,,,,,[],,,,,,73.6,0.0,u,0.0,True,742.2000000476837,45.0,60.0,40.0,False,,228.60246171230227,[],"[657, 369.5]",ColorTask,103.0,98.0,,,HRV,HRV_0085,2022-11-30 18:05:02
,wl-rdm,216,533629,0.0-8.98-0.98,1.0,216.0,,,,,,,[],,,,,,87.9,0.0,u,0.0,True,671.8999998569489,41.0,60.0,40.0,False,,243.84463022581764,[],"[657, 369.5]",ColorTask,104.0,99.0,,,HRV,HRV_0085,2022-11-30 18:05:02
,wl-rdm,217,535630,0.0-8.99-0.99,1.0,217.0,,,,,,,[],,,,,,73.6,0.0,u,0.0,True,656.8999998569489,40.0,60.0,40.0,False,,264.4768269694648,[],"[657, 369.5]",ColorTask,105.0,100.0,,,HRV,HRV_0085,2022-11-30 18:05:02
,wl-rdm,218,537883,0.0-8.100-0.100,1.0,218.0,,,,,,,[],,,,,,62.5,0.0,u,0.0,True,877.5,53.0,60.0,40.0,False,,309.4567066801311,[],"[657, 369.5]",ColorTask,106.0,101.0,,,HRV,HRV_0085,2022-11-30 18:05:02
,wl-rdm,219,540465,0.0-8.101-0.101,1.0,219.0,,,,,,,[],,,,,,62.5,1.0,u,0.0,False,1137.5999999046326,68.0,60.0,40.0,False,,372.4439720767641,[],"[657, 369.5]",ColorTask,105.0,102.0,,,HRV,HRV_0085,2022-11-30 18:05:02
,wl-rdm,220,542766,0.0-8.102-0.102,1.0,220.0,,,,,,,[],,,,,,73.6,0.0,u,0.0,True,859.2000000476837,48.0,60.0,40.0,False,,371.32211547572933,[],"[657, 369.5]",ColorTask,106.0,103.0,,,HRV,HRV_0085,2022-11-30 18:05:02
,wl-rdm,221,544766,0.0-8.103-0.103,1.0,221.0,,,,,,,[],,,,,,73.6,1.0,i,1.0,True,588.6000001430511,36.0,60.0,40.0,False,,320.236466136218,[],"[657, 369.5]",ColorTask,107.0,104.0,,,HRV,HRV_0085,2022-11-30 18:05:02
,wl-rdm,222,547517,0.0-8.104-0.104,1.0,222.0,,,,,,,[],,,,,,56.4,1.0,i,1.0,True,1362.0999999046326,82.0,60.0,40.0,False,,308.7110882486961,[],"[657, 369.5]",ColorTask,108.0,105.0,,,HRV,HRV_0085,2022-11-30 18:05:02
,wl-rdm,223,549702,0.0-8.105-0.105,1.0,223.0,,,,,,,[],,,,,,56.4,1.0,u,0.0,False,829.5,50.0,60.0,40.0,False,,298.13738908257653,[],"[657, 369.5]",ColorTask,107.0,106.0,,,HRV,HRV_0085,2022-11-30 18:05:02
,wl-rdm,224,551619,0.0-8.106-0.106,1.0,224.0,,,,,,,[],,,,,,56.4,1.0,i,1.0,True,554.6000001430511,34.0,60.0,40.0,False,,275.35196219998875,[],"[657, 369.5]",ColorTask,108.0,107.0,,,HRV,HRV_0085,2022-11-30 18:05:02
,wl-rdm,225,553553,0.0-8.107-0.107,1.0,225.0,,,,,,,[],,,,,,87.9,1.0,i,1.0,True,654.4999997615814,40.0,60.0,40.0,False,,201.52310714114162,[],"[657, 369.5]",ColorTask,109.0,108.0,,,HRV,HRV_0085,2022-11-30 18:05:02
,wl-html-button-response,226,557574,0.0-9.0-0.0,,,,,,,,,,4011.4000000953674,,0,,,,,,,,,,,,,,,,,,,,<h3>End of this session. Thank you!</h3><br>,['Close window'],HRV,HRV_0085,2022-11-30 18:05:02
