trialN,stimuli,trialStartTime,trialStartTime_UNIX,stimulus1,stimulus2,stimulus1Bid,stimulus2Bid,delta,selected,rt,rt_UNIX,rt_perfnow,receivedResponse,rsp,trialEndTime,trialDuration,trialEndTime_UNIX,trialDuration_UNIX,exp,subjectId,date
0,"[{'imgObject': {}, 'id': 'sushi w_condiments', 'src': '/static/foodstim60/sushi w_condiments.jpg', 'key': 'u', 'origWidth': 410, 'origHeight': 410, 'width': 410, 'height': 410, 'widthPercent': 0.45, 'rescaleHeight': False, 'trialN': 0, 'loaded': True, 'loadedTime': 5305.5, 'positionName': 'LEFT', 'positionCoords': [220.72, 164.5], 'bid': 9.71}, {'imgObject': {}, 'id': 'cocktailshrimp', 'src': '/static/foodstim60/cocktailshrimp.jpg', 'key': 'i', 'origWidth': 410, 'origHeight': 410, 'width': 410, 'height': 410, 'widthPercent': 0.45, 'rescaleHeight': False, 'trialN': 0, 'loaded': True, 'loadedTime': 5363.299999952316, 'positionName': 'RIGHT', 'positionCoords': [683.28, 164.5], 'bid': 9.76}]",6368.299999952316,1669830610824,sushi w_condiments,cocktailshrimp,9.71,9.76,0.049999999999998934,sushi w_condiments,1249.9000000953674,1260,1260.4000000953674,True,u,8131.5,1763.2000000476837,1669830612587,1763,HRV,HRV_0085,2022-11-30 17:55:34
1,"[{'imgObject': {}, 'id': 'banana', 'src': '/static/foodstim60/banana.jpg', 'key': 'u', 'origWidth': 410, 'origHeight': 410, 'width': 410, 'height': 410, 'widthPercent': 0.45, 'rescaleHeight': False, 'trialN': 1, 'loaded': True, 'loadedTime': 5390.599999904633, 'positionName': 'LEFT', 'positionCoords': [220.72, 164.5], 'bid': 0.12}, {'imgObject': {}, 'id': 'blackbeanswithrice', 'src': '/static/foodstim60/blackbeanswithrice.jpg', 'key': 'i', 'origWidth': 410, 'origHeight': 410, 'width': 410, 'height': 410, 'widthPercent': 0.45, 'rescaleHeight': False, 'trialN': 1, 'loaded': True, 'loadedTime': 5417.599999904633, 'positionName': 'RIGHT', 'positionCoords': [683.28, 164.5], 'bid': 1.33}]",8132.599999904633,1669830612588,banana,blackbeanswithrice,0.12,1.33,1.21,blackbeanswithrice,1576.1000001430511,1577,1577.2999999523163,True,i,10216.899999856949,2084.2999999523163,1669830614672,2084,HRV,HRV_0085,2022-11-30 17:55:34
2,"[{'imgObject': {}, 'id': 'raspberries', 'src': '/static/foodstim60/raspberries.jpg', 'key': 'u', 'origWidth': 411, 'origHeight': 411, 'width': 411, 'height': 411, 'widthPercent': 0.45, 'rescaleHeight': False, 'trialN': 2, 'loaded': True, 'loadedTime': 5445, 'positionName': 'LEFT', 'positionCoords': [219.72, 164], 'bid': 4.3100000000000005}, {'imgObject': {}, 'id': 'mango', 'src': '/static/foodstim60/mango.jpg', 'key': 'i', 'origWidth': 411, 'origHeight': 411, 'width': 411, 'height': 411, 'widthPercent': 0.45, 'rescaleHeight': False, 'trialN': 2, 'loaded': True, 'loadedTime': 5476, 'positionName': 'RIGHT', 'positionCoords': [683.28, 164], 'bid': 5.98}]",10217.200000047684,1669830614673,raspberries,mango,4.3100000000000005,5.98,1.67,mango,1711.1999998092651,1712,1711.8999998569489,True,i,12449.899999856949,2232.699999809265,1669830616905,2232,HRV,HRV_0085,2022-11-30 17:55:34
3,"[{'imgObject': {}, 'id': 'roastedpotatoes', 'src': '/static/foodstim60/roastedpotatoes.jpg', 'key': 'u', 'origWidth': 409, 'origHeight': 410, 'width': 409, 'height': 410, 'widthPercent': 0.45, 'rescaleHeight': False, 'trialN': 3, 'loaded': True, 'loadedTime': 5510.099999904633, 'positionName': 'LEFT', 'positionCoords': [221.72, 164.5], 'bid': 0.66}, {'imgObject': {}, 'id': 'hashbrowns', 'src': '/static/foodstim60/hashbrowns.jpg', 'key': 'i', 'origWidth': 411, 'origHeight': 410, 'width': 411, 'height': 410, 'widthPercent': 0.45, 'rescaleHeight': False, 'trialN': 3, 'loaded': True, 'loadedTime': 5513.299999952316, 'positionName': 'RIGHT', 'positionCoords': [683.28, 164.5], 'bid': 1.31}]",12450.799999952316,1669830616906,roastedpotatoes,hashbrowns,0.66,1.31,0.65,hashbrowns,1338.0,1339,1338.5999999046326,True,i,14301.899999856949,1851.0999999046326,1669830618757,1851,HRV,HRV_0085,2022-11-30 17:55:34
4,"[{'imgObject': {}, 'id': 'lox', 'src': '/static/foodstim60/lox.jpg', 'key': 'u', 'origWidth': 410, 'origHeight': 411, 'width': 410, 'height': 411, 'widthPercent': 0.45, 'rescaleHeight': False, 'trialN': 4, 'loaded': True, 'loadedTime': 5543.099999904633, 'positionName': 'LEFT', 'positionCoords': [220.72, 164], 'bid': 9.97}, {'imgObject': {}, 'id': 'mango', 'src': '/static/foodstim60/mango.jpg', 'key': 'i', 'origWidth': 411, 'origHeight': 411, 'width': 411, 'height': 411, 'widthPercent': 0.45, 'rescaleHeight': False, 'trialN': 4, 'loaded': True, 'loadedTime': 5445.200000047684, 'positionName': 'RIGHT', 'positionCoords': [683.28, 164], 'bid': 5.98}]",14302.700000047684,1669830618758,lox,mango,9.97,5.98,-3.99,lox,911.5,913,912.8999998569489,True,u,15738.299999952316,1435.5999999046326,1669830620194,1436,HRV,HRV_0085,2022-11-30 17:55:34
5,"[{'imgObject': {}, 'id': 'bagel and cc', 'src': '/static/foodstim60/bagel and cc.jpg', 'key': 'u', 'origWidth': 410, 'origHeight': 410, 'width': 410, 'height': 410, 'widthPercent': 0.45, 'rescaleHeight': False, 'trialN': 5, 'loaded': True, 'loadedTime': 5577.899999856949, 'positionName': 'LEFT', 'positionCoords': [220.72, 164.5], 'bid': 9.87}, {'imgObject': {}, 'id': 'veggieswithdip', 'src': '/static/foodstim60/veggieswithdip.jpg', 'key': 'i', 'origWidth': 409, 'origHeight': 409, 'width': 409, 'height': 409, 'widthPercent': 0.45, 'rescaleHeight': False, 'trialN': 5, 'loaded': True, 'loadedTime': 5609.5, 'positionName': 'RIGHT', 'positionCoords': [683.28, 165], 'bid': 8.22}]",15738.700000047684,1669830620194,bagel and cc,veggieswithdip,9.87,8.22,-1.6499999999999986,veggieswithdip,1842.2999999523163,1844,1843.5999999046326,True,i,18088.599999904633,2349.899999856949,1669830622544,2350,HRV,HRV_0085,2022-11-30 17:55:34
6,"[{'imgObject': {}, 'id': 'shreddedwheatwithmilk', 'src': '/static/foodstim60/shreddedwheatwithmilk.jpg', 'key': 'u', 'origWidth': 410, 'origHeight': 410, 'width': 410, 'height': 410, 'widthPercent': 0.45, 'rescaleHeight': False, 'trialN': 6, 'loaded': True, 'loadedTime': 5642.599999904633, 'positionName': 'LEFT', 'positionCoords': [220.72, 164.5], 'bid': 5.24}, {'imgObject': {}, 'id': 'pear', 'src': '/static/foodstim60/pear.jpg', 'key': 'i', 'origWidth': 411, 'origHeight': 410, 'width': 411, 'height': 410, 'widthPercent': 0.45, 'rescaleHeight': False, 'trialN': 6, 'loaded': True, 'loadedTime': 5646.299999952316, 'positionName': 'RIGHT', 'positionCoords': [683.28, 164.5], 'bid': 5.89}]",18089.200000047684,1669830622545,shreddedwheatwithmilk,pear,5.24,5.89,0.6499999999999995,pear,1984.2999999523163,1985,1985.6999998092651,True,i,20592.799999952316,2503.5999999046326,1669830625048,2503,HRV,HRV_0085,2022-11-30 17:55:34
7,"[{'imgObject': {}, 'id': 'ice cream sundae 002', 'src': '/static/foodstim60/ice cream sundae 002.jpg', 'key': 'u', 'origWidth': 409, 'origHeight': 409, 'width': 409, 'height': 409, 'widthPercent': 0.45, 'rescaleHeight': False, 'trialN': 7, 'loaded': True, 'loadedTime': 5723.399999856949, 'positionName': 'LEFT', 'positionCoords': [221.72, 165], 'bid': 4.71}, {'imgObject': {}, 'id': 'raspberries', 'src': '/static/foodstim60/raspberries.jpg', 'key': 'i', 'origWidth': 411, 'origHeight': 411, 'width': 411, 'height': 411, 'widthPercent': 0.45, 'rescaleHeight': False, 'trialN': 7, 'loaded': True, 'loadedTime': 5420.599999904633, 'positionName': 'RIGHT', 'positionCoords': [683.28, 164], 'bid': 4.3100000000000005}]",20593.799999952316,1669830625049,ice cream sundae 002,raspberries,4.71,4.3100000000000005,-0.39999999999999947,raspberries,2156.9000000953674,2159,2158.2000000476837,True,i,23268.700000047684,2674.9000000953674,1669830627724,2675,HRV,HRV_0085,2022-11-30 17:55:34
8,"[{'imgObject': {}, 'id': 'eggs', 'src': '/static/foodstim60/eggs.jpg', 'key': 'u', 'origWidth': 409, 'origHeight': 409, 'width': 409, 'height': 409, 'widthPercent': 0.45, 'rescaleHeight': False, 'trialN': 8, 'loaded': True, 'loadedTime': 5728.700000047684, 'positionName': 'LEFT', 'positionCoords': [221.72, 165], 'bid': 9.76}, {'imgObject': {}, 'id': 'tacos', 'src': '/static/foodstim60/tacos.jpg', 'key': 'i', 'origWidth': 411, 'origHeight': 411, 'width': 411, 'height': 411, 'widthPercent': 0.45, 'rescaleHeight': False, 'trialN': 8, 'loaded': True, 'loadedTime': 5757.700000047684, 'positionName': 'RIGHT', 'positionCoords': [683.28, 164], 'bid': 9.91}]",23269.5,1669830627725,eggs,tacos,9.76,9.91,0.15000000000000036,tacos,1947.0999999046326,1958,1948.5999999046326,True,i,25735.200000047684,2465.7000000476837,1669830630200,2475,HRV,HRV_0085,2022-11-30 17:55:34
9,"[{'imgObject': {}, 'id': 'cherries', 'src': '/static/foodstim60/cherries.jpg', 'key': 'u', 'origWidth': 410, 'origHeight': 411, 'width': 410, 'height': 411, 'widthPercent': 0.45, 'rescaleHeight': False, 'trialN': 9, 'loaded': True, 'loadedTime': 5764.099999904633, 'positionName': 'LEFT', 'positionCoords': [220.72, 164], 'bid': 7.63}, {'imgObject': {}, 'id': 'rigatoni', 'src': '/static/foodstim60/rigatoni.jpg', 'key': 'i', 'origWidth': 411, 'origHeight': 411, 'width': 411, 'height': 411, 'widthPercent': 0.45, 'rescaleHeight': False, 'trialN': 9, 'loaded': True, 'loadedTime': 5807.899999856949, 'positionName': 'RIGHT', 'positionCoords': [683.28, 164], 'bid': 0.32}]",25735.5,1669830630200,cherries,rigatoni,7.63,0.32,-7.31,cherries,1221.7000000476837,1224,1223.0999999046326,True,u,27466.200000047684,1730.7000000476837,1669830631931,1731,HRV,HRV_0085,2022-11-30 17:55:34
10,"[{'imgObject': {}, 'id': 'edamame', 'src': '/static/foodstim60/edamame.jpg', 'key': 'u', 'origWidth': 409, 'origHeight': 410, 'width': 409, 'height': 410, 'widthPercent': 0.45, 'rescaleHeight': False, 'trialN': 10, 'loaded': True, 'loadedTime': 5832.200000047684, 'positionName': 'LEFT', 'positionCoords': [221.72, 164.5], 'bid': 7.73}, {'imgObject': {}, 'id': 'turkeysandwich', 'src': '/static/foodstim60/turkeysandwich.jpg', 'key': 'i', 'origWidth': 409, 'origHeight': 409, 'width': 409, 'height': 409, 'widthPercent': 0.45, 'rescaleHeight': False, 'trialN': 10, 'loaded': True, 'loadedTime': 5840, 'positionName': 'RIGHT', 'positionCoords': [683.28, 165], 'bid': 7.8}]",27467.200000047684,1669830631932,edamame,turkeysandwich,7.73,7.8,0.0699999999999994,turkeysandwich,2127.199999809265,2129,2128.399999856949,True,i,30109.200000047684,2642.0,1669830634574,2642,HRV,HRV_0085,2022-11-30 17:55:34
11,"[{'imgObject': {}, 'id': 'cheerios', 'src': '/static/foodstim60/cheerios.jpg', 'key': 'u', 'origWidth': 409, 'origHeight': 410, 'width': 409, 'height': 410, 'widthPercent': 0.45, 'rescaleHeight': False, 'trialN': 11, 'loaded': True, 'loadedTime': 5866.899999856949, 'positionName': 'LEFT', 'positionCoords': [221.72, 164.5], 'bid': 5.0600000000000005}, {'imgObject': {}, 'id': 'mac & cheese', 'src': '/static/foodstim60/mac & cheese.jpg', 'key': 'i', 'origWidth': 410, 'origHeight': 410, 'width': 410, 'height': 410, 'widthPercent': 0.45, 'rescaleHeight': False, 'trialN': 11, 'loaded': True, 'loadedTime': 5900.899999856949, 'positionName': 'RIGHT', 'positionCoords': [683.28, 164.5], 'bid': 5.04}]",30109.599999904633,1669830634575,cheerios,mac & cheese,5.0600000000000005,5.04,-0.020000000000000462,mac & cheese,851.5,852,852.7999999523163,True,i,31479.799999952316,1370.2000000476837,1669830635945,1370,HRV,HRV_0085,2022-11-30 17:55:34
12,"[{'imgObject': {}, 'id': 'olives', 'src': '/static/foodstim60/olives.jpg', 'key': 'u', 'origWidth': 410, 'origHeight': 410, 'width': 410, 'height': 410, 'widthPercent': 0.45, 'rescaleHeight': False, 'trialN': 12, 'loaded': True, 'loadedTime': 5930.099999904633, 'positionName': 'LEFT', 'positionCoords': [220.72, 164.5], 'bid': 9.55}, {'imgObject': {}, 'id': 'grilled chicken strips', 'src': '/static/foodstim60/grilled chicken strips.jpg', 'key': 'i', 'origWidth': 410, 'origHeight': 411, 'width': 410, 'height': 411, 'widthPercent': 0.45, 'rescaleHeight': False, 'trialN': 12, 'loaded': True, 'loadedTime': 5935.099999904633, 'positionName': 'RIGHT', 'positionCoords': [683.28, 164], 'bid': 7.81}]",31480.599999904633,1669830635946,olives,grilled chicken strips,9.55,7.81,-1.740000000000001,olives,2016.4000000953674,2017,2017.7000000476837,True,u,34016.39999985695,2535.7999999523163,1669830638481,2535,HRV,HRV_0085,2022-11-30 17:55:34
13,"[{'imgObject': {}, 'id': 'sweetpotato', 'src': '/static/foodstim60/sweetpotato.jpg', 'key': 'u', 'origWidth': 410, 'origHeight': 410, 'width': 410, 'height': 410, 'widthPercent': 0.45, 'rescaleHeight': False, 'trialN': 13, 'loaded': True, 'loadedTime': 5962.099999904633, 'positionName': 'LEFT', 'positionCoords': [220.72, 164.5], 'bid': 0.2}, {'imgObject': {}, 'id': 'strawberries', 'src': '/static/foodstim60/strawberries.jpg', 'key': 'i', 'origWidth': 410, 'origHeight': 410, 'width': 410, 'height': 410, 'widthPercent': 0.45, 'rescaleHeight': False, 'trialN': 13, 'loaded': True, 'loadedTime': 5966.200000047684, 'positionName': 'RIGHT', 'positionCoords': [683.28, 164.5], 'bid': 1.59}]",34017.39999985695,1669830638482,sweetpotato,strawberries,0.2,1.59,1.3900000000000001,strawberries,1011.4000000953674,1013,1012.7000000476837,True,i,35545.5,1528.1000001430511,1669830640010,1528,HRV,HRV_0085,2022-11-30 17:55:34
14,"[{'imgObject': {}, 'id': 'eggsalad', 'src': '/static/foodstim60/eggsalad.jpg', 'key': 'u', 'origWidth': 410, 'origHeight': 409, 'width': 410, 'height': 409, 'widthPercent': 0.45, 'rescaleHeight': False, 'trialN': 14, 'loaded': True, 'loadedTime': 5999.299999952316, 'positionName': 'LEFT', 'positionCoords': [220.72, 165], 'bid': 9.88}, {'imgObject': {}, 'id': 'chickenfingers', 'src': '/static/foodstim60/chickenfingers.jpg', 'key': 'i', 'origWidth': 410, 'origHeight': 410, 'width': 410, 'height': 410, 'widthPercent': 0.45, 'rescaleHeight': False, 'trialN': 14, 'loaded': True, 'loadedTime': 6037.299999952316, 'positionName': 'RIGHT', 'positionCoords': [683.28, 164.5], 'bid': 8.27}]",35546.39999985695,1669830640011,eggsalad,chickenfingers,9.88,8.27,-1.6100000000000012,chickenfingers,1515.2000000476837,1517,1516.6000001430511,True,i,37577.39999985695,2031.0,1669830642042,2031,HRV,HRV_0085,2022-11-30 17:55:34
15,"[{'imgObject': {}, 'id': 'cherries', 'src': '/static/foodstim60/cherries.jpg', 'key': 'u', 'origWidth': 410, 'origHeight': 411, 'width': 410, 'height': 411, 'widthPercent': 0.45, 'rescaleHeight': False, 'trialN': 15, 'loaded': True, 'loadedTime': 5799.299999952316, 'positionName': 'LEFT', 'positionCoords': [220.72, 164], 'bid': 7.63}, {'imgObject': {}, 'id': 'raisin bran w milk', 'src': '/static/foodstim60/raisin bran w milk.jpg', 'key': 'i', 'origWidth': 411, 'origHeight': 411, 'width': 411, 'height': 411, 'widthPercent': 0.45, 'rescaleHeight': False, 'trialN': 15, 'loaded': True, 'loadedTime': 6068.299999952316, 'positionName': 'RIGHT', 'positionCoords': [683.28, 164], 'bid': 5.21}]",37578.299999952316,1669830642043,cherries,raisin bran w milk,7.63,5.21,-2.42,cherries,926.0,927,927.2000000476837,True,u,39014.59999990463,1436.2999999523163,1669830643480,1437,HRV,HRV_0085,2022-11-30 17:55:34
16,"[{'imgObject': {}, 'id': 'yogurt no spoon', 'src': '/static/foodstim60/yogurt no spoon.jpg', 'key': 'u', 'origWidth': 411, 'origHeight': 410, 'width': 411, 'height': 410, 'widthPercent': 0.45, 'rescaleHeight': False, 'trialN': 16, 'loaded': True, 'loadedTime': 6072.200000047684, 'positionName': 'LEFT', 'positionCoords': [219.72, 164.5], 'bid': 2.38}, {'imgObject': {}, 'id': 'strawberries', 'src': '/static/foodstim60/strawberries.jpg', 'key': 'i', 'origWidth': 410, 'origHeight': 410, 'width': 410, 'height': 410, 'widthPercent': 0.45, 'rescaleHeight': False, 'trialN': 16, 'loaded': True, 'loadedTime': 5996.299999952316, 'positionName': 'RIGHT', 'positionCoords': [683.28, 164.5], 'bid': 1.59}]",39015.59999990463,1669830643481,yogurt no spoon,strawberries,2.38,1.59,-0.7899999999999998,strawberries,1028.7000000476837,1030,1030.1000001430511,True,i,40550.799999952316,1535.2000000476837,1669830645016,1535,HRV,HRV_0085,2022-11-30 17:55:34
17,"[{'imgObject': {}, 'id': 'salmon', 'src': '/static/foodstim60/salmon.jpg', 'key': 'u', 'origWidth': 410, 'origHeight': 409, 'width': 410, 'height': 409, 'widthPercent': 0.45, 'rescaleHeight': False, 'trialN': 17, 'loaded': True, 'loadedTime': 6098.599999904633, 'positionName': 'LEFT', 'positionCoords': [220.72, 165], 'bid': 5.15}, {'imgObject': {}, 'id': 'popsicles', 'src': '/static/foodstim60/popsicles.jpg', 'key': 'i', 'origWidth': 410, 'origHeight': 410, 'width': 410, 'height': 410, 'widthPercent': 0.45, 'rescaleHeight': False, 'trialN': 17, 'loaded': True, 'loadedTime': 6365.299999952316, 'positionName': 'RIGHT', 'positionCoords': [683.28, 164.5], 'bid': 4.74}]",40551.200000047684,1669830645016,salmon,popsicles,5.15,4.74,-0.41000000000000014,salmon,1216.1999998092651,1261,1260.7999999523163,True,u,42329.09999990463,1777.8999998569489,1669830646794,1778,HRV,HRV_0085,2022-11-30 17:55:34
18,"[{'imgObject': {}, 'id': 'eggsalad', 'src': '/static/foodstim60/eggsalad.jpg', 'key': 'u', 'origWidth': 410, 'origHeight': 409, 'width': 410, 'height': 409, 'widthPercent': 0.45, 'rescaleHeight': False, 'trialN': 18, 'loaded': True, 'loadedTime': 6000.700000047684, 'positionName': 'LEFT', 'positionCoords': [220.72, 165], 'bid': 9.88}, {'imgObject': {}, 'id': 'burrito', 'src': '/static/foodstim60/burrito.jpg', 'key': 'i', 'origWidth': 410, 'origHeight': 410, 'width': 410, 'height': 410, 'widthPercent': 0.45, 'rescaleHeight': False, 'trialN': 18, 'loaded': True, 'loadedTime': 6099.399999856949, 'positionName': 'RIGHT', 'positionCoords': [683.28, 164.5], 'bid': 9.94}]",42330.0,1669830646795,eggsalad,burrito,9.88,9.94,0.05999999999999872,burrito,1295.3999998569489,1297,1296.5999999046326,True,i,44155.09999990463,1825.0999999046326,1669830648620,1825,HRV,HRV_0085,2022-11-30 17:55:34
19,"[{'imgObject': {}, 'id': 'baked potato', 'src': '/static/foodstim60/baked potato.jpg', 'key': 'u', 'origWidth': 409, 'origHeight': 410, 'width': 409, 'height': 410, 'widthPercent': 0.45, 'rescaleHeight': False, 'trialN': 19, 'loaded': True, 'loadedTime': 6130.099999904633, 'positionName': 'LEFT', 'positionCoords': [221.72, 164.5], 'bid': 0.08}, {'imgObject': {}, 'id': 'Tribe humus pita', 'src': '/static/foodstim60/Tribe humus pita.jpg', 'key': 'i', 'origWidth': 411, 'origHeight': 411, 'width': 411, 'height': 411, 'widthPercent': 0.45, 'rescaleHeight': False, 'trialN': 19, 'loaded': True, 'loadedTime': 6134.700000047684, 'positionName': 'RIGHT', 'positionCoords': [683.28, 164], 'bid': 7.0200000000000005}]",44155.59999990463,1669830648620,baked potato,Tribe humus pita,0.08,7.0200000000000005,6.94,Tribe humus pita,1081.2000000476837,1083,1082.6000001430511,True,i,45748.09999990463,1592.5,1669830650213,1593,HRV,HRV_0085,2022-11-30 17:55:34
20,"[{'imgObject': {}, 'id': 'steak', 'src': '/static/foodstim60/steak.jpg', 'key': 'u', 'origWidth': 410, 'origHeight': 410, 'width': 410, 'height': 410, 'widthPercent': 0.45, 'rescaleHeight': False, 'trialN': 20, 'loaded': True, 'loadedTime': 6139.099999904633, 'positionName': 'LEFT', 'positionCoords': [220.72, 164.5], 'bid': 9.9}, {'imgObject': {}, 'id': 'salad w chicken', 'src': '/static/foodstim60/salad w chicken.jpg', 'key': 'i', 'origWidth': 411, 'origHeight': 411, 'width': 411, 'height': 411, 'widthPercent': 0.45, 'rescaleHeight': False, 'trialN': 20, 'loaded': True, 'loadedTime': 6166.399999856949, 'positionName': 'RIGHT', 'positionCoords': [683.28, 164], 'bid': 7.9}]",45748.59999990463,1669830650213,steak,salad w chicken,9.9,7.9,-2.0,steak,730.4000000953674,732,731.9000000953674,True,u,46986.5,1237.9000000953674,1669830651451,1238,HRV,HRV_0085,2022-11-30 17:55:34
21,"[{'imgObject': {}, 'id': 'chicken nuggets2', 'src': '/static/foodstim60/chicken nuggets2.jpg', 'key': 'u', 'origWidth': 410, 'origHeight': 409, 'width': 410, 'height': 409, 'widthPercent': 0.45, 'rescaleHeight': False, 'trialN': 21, 'loaded': True, 'loadedTime': 6167, 'positionName': 'LEFT', 'positionCoords': [220.72, 165], 'bid': 7.140000000000001}, {'imgObject': {}, 'id': 'apple slices', 'src': '/static/foodstim60/apple slices.jpg', 'key': 'i', 'origWidth': 409, 'origHeight': 410, 'width': 409, 'height': 410, 'widthPercent': 0.45, 'rescaleHeight': False, 'trialN': 21, 'loaded': True, 'loadedTime': 6173.799999952316, 'positionName': 'RIGHT', 'positionCoords': [683.28, 164.5], 'bid': 5.89}]",46987.39999985695,1669830651452,chicken nuggets2,apple slices,7.140000000000001,5.89,-1.2500000000000009,chicken nuggets2,2075.800000190735,2077,2077.2000000476837,True,u,49582.700000047684,2595.300000190735,1669830654048,2596,HRV,HRV_0085,2022-11-30 17:55:34
22,"[{'imgObject': {}, 'id': 'hashbrowns', 'src': '/static/foodstim60/hashbrowns.jpg', 'key': 'u', 'origWidth': 411, 'origHeight': 410, 'width': 411, 'height': 410, 'widthPercent': 0.45, 'rescaleHeight': False, 'trialN': 22, 'loaded': True, 'loadedTime': 5513.899999856949, 'positionName': 'LEFT', 'positionCoords': [219.72, 164.5], 'bid': 1.31}, {'imgObject': {}, 'id': 'baked potato', 'src': '/static/foodstim60/baked potato.jpg', 'key': 'i', 'origWidth': 409, 'origHeight': 410, 'width': 409, 'height': 410, 'widthPercent': 0.45, 'rescaleHeight': False, 'trialN': 22, 'loaded': True, 'loadedTime': 6101.5, 'positionName': 'RIGHT', 'positionCoords': [683.28, 164.5], 'bid': 0.08}]",49583.59999990463,1669830654049,hashbrowns,baked potato,1.31,0.08,-1.23,hashbrowns,1430.7999999523163,1432,1432.1000001430511,True,u,51527.0,1943.4000000953674,1669830655992,1943,HRV,HRV_0085,2022-11-30 17:55:34
23,"[{'imgObject': {}, 'id': 'bagel and cc', 'src': '/static/foodstim60/bagel and cc.jpg', 'key': 'u', 'origWidth': 410, 'origHeight': 410, 'width': 410, 'height': 410, 'widthPercent': 0.45, 'rescaleHeight': False, 'trialN': 23, 'loaded': True, 'loadedTime': 5578.200000047684, 'positionName': 'LEFT', 'positionCoords': [220.72, 164.5], 'bid': 9.87}, {'imgObject': {}, 'id': 'mac & cheese', 'src': '/static/foodstim60/mac & cheese.jpg', 'key': 'i', 'origWidth': 410, 'origHeight': 410, 'width': 410, 'height': 410, 'widthPercent': 0.45, 'rescaleHeight': False, 'trialN': 23, 'loaded': True, 'loadedTime': 5901.399999856949, 'positionName': 'RIGHT', 'positionCoords': [683.28, 164.5], 'bid': 5.04}]",51527.89999985695,1669830655993,bagel and cc,mac & cheese,9.87,5.04,-4.829999999999999,bagel and cc,1527.4000000953674,1529,1528.8000001907349,True,u,53562.700000047684,2034.8000001907349,1669830658028,2035,HRV,HRV_0085,2022-11-30 17:55:34
24,"[{'imgObject': {}, 'id': 'ice cream sundae 002', 'src': '/static/foodstim60/ice cream sundae 002.jpg', 'key': 'u', 'origWidth': 409, 'origHeight': 409, 'width': 409, 'height': 409, 'widthPercent': 0.45, 'rescaleHeight': False, 'trialN': 24, 'loaded': True, 'loadedTime': 5693.200000047684, 'positionName': 'LEFT', 'positionCoords': [221.72, 165], 'bid': 4.71}, {'imgObject': {}, 'id': 'eggs', 'src': '/static/foodstim60/eggs.jpg', 'key': 'i', 'origWidth': 409, 'origHeight': 409, 'width': 409, 'height': 409, 'widthPercent': 0.45, 'rescaleHeight': False, 'trialN': 24, 'loaded': True, 'loadedTime': 5729.200000047684, 'positionName': 'RIGHT', 'positionCoords': [683.28, 165], 'bid': 9.76}]",53563.5,1669830658028,ice cream sundae 002,eggs,4.71,9.76,5.05,eggs,910.2000000476837,912,911.5999999046326,True,i,54992.5,1429.0,1669830659457,1429,HRV,HRV_0085,2022-11-30 17:55:34
25,"[{'imgObject': {}, 'id': 'Grapes', 'src': '/static/foodstim60/Grapes.jpg', 'key': 'u', 'origWidth': 411, 'origHeight': 411, 'width': 411, 'height': 411, 'widthPercent': 0.45, 'rescaleHeight': False, 'trialN': 25, 'loaded': True, 'loadedTime': 6198.599999904633, 'positionName': 'LEFT', 'positionCoords': [219.72, 164], 'bid': 4.51}, {'imgObject': {}, 'id': 'rigatoni and sauce', 'src': '/static/foodstim60/rigatoni and sauce.jpg', 'key': 'i', 'origWidth': 410, 'origHeight': 411, 'width': 410, 'height': 411, 'widthPercent': 0.45, 'rescaleHeight': False, 'trialN': 25, 'loaded': True, 'loadedTime': 6203.399999856949, 'positionName': 'RIGHT', 'positionCoords': [683.28, 164], 'bid': 6.8500000000000005}]",54993.0,1669830659458,Grapes,rigatoni and sauce,4.51,6.8500000000000005,2.3400000000000007,rigatoni and sauce,1232.7999999523163,1234,1234.2999999523163,True,i,56741.39999985695,1748.3999998569489,1669830661206,1748,HRV,HRV_0085,2022-11-30 17:55:34
26,"[{'imgObject': {}, 'id': 'turkeysandwich', 'src': '/static/foodstim60/turkeysandwich.jpg', 'key': 'u', 'origWidth': 409, 'origHeight': 409, 'width': 409, 'height': 409, 'widthPercent': 0.45, 'rescaleHeight': False, 'trialN': 26, 'loaded': True, 'loadedTime': 5864.200000047684, 'positionName': 'LEFT', 'positionCoords': [221.72, 165], 'bid': 7.8}, {'imgObject': {}, 'id': 'bagel and cc', 'src': '/static/foodstim60/bagel and cc.jpg', 'key': 'i', 'origWidth': 410, 'origHeight': 410, 'width': 410, 'height': 410, 'widthPercent': 0.45, 'rescaleHeight': False, 'trialN': 26, 'loaded': True, 'loadedTime': 5576.299999952316, 'positionName': 'RIGHT', 'positionCoords': [683.28, 164.5], 'bid': 9.87}]",56742.200000047684,1669830661207,turkeysandwich,bagel and cc,7.8,9.87,2.0699999999999994,turkeysandwich,1216.1999998092651,1218,1217.5,True,u,58476.299999952316,1734.0999999046326,1669830662941,1734,HRV,HRV_0085,2022-11-30 17:55:34
27,"[{'imgObject': {}, 'id': 'fried eggs', 'src': '/static/foodstim60/fried eggs.jpg', 'key': 'u', 'origWidth': 410, 'origHeight': 410, 'width': 410, 'height': 410, 'widthPercent': 0.45, 'rescaleHeight': False, 'trialN': 27, 'loaded': True, 'loadedTime': 6208.700000047684, 'positionName': 'LEFT', 'positionCoords': [220.72, 164.5], 'bid': 9.7}, {'imgObject': {}, 'id': 'lox', 'src': '/static/foodstim60/lox.jpg', 'key': 'i', 'origWidth': 410, 'origHeight': 411, 'width': 410, 'height': 411, 'widthPercent': 0.45, 'rescaleHeight': False, 'trialN': 27, 'loaded': True, 'loadedTime': 5546.399999856949, 'positionName': 'RIGHT', 'positionCoords': [683.28, 164], 'bid': 9.97}]",58477.09999990463,1669830662942,fried eggs,lox,9.7,9.97,0.27000000000000135,lox,1124.1000001430511,1125,1125.2999999523163,True,i,60109.299999952316,1632.2000000476837,1669830664574,1632,HRV,HRV_0085,2022-11-30 17:55:34
28,"[{'imgObject': {}, 'id': 'omelette', 'src': '/static/foodstim60/omelette.jpg', 'key': 'u', 'origWidth': 410, 'origHeight': 409, 'width': 410, 'height': 409, 'widthPercent': 0.45, 'rescaleHeight': False, 'trialN': 28, 'loaded': True, 'loadedTime': 6232.5, 'positionName': 'LEFT', 'positionCoords': [220.72, 165], 'bid': 9.85}, {'imgObject': {}, 'id': 'burger', 'src': '/static/foodstim60/burger.jpg', 'key': 'i', 'origWidth': 409, 'origHeight': 409, 'width': 409, 'height': 409, 'widthPercent': 0.45, 'rescaleHeight': False, 'trialN': 28, 'loaded': True, 'loadedTime': 6236.399999856949, 'positionName': 'RIGHT', 'positionCoords': [683.28, 165], 'bid': 9.97}]",60110.09999990463,1669830664575,omelette,burger,9.85,9.97,0.120000000000001,burger,2066.0,2067,2066.7000000476837,True,i,62696.59999990463,2586.5,1669830667162,2587,HRV,HRV_0085,2022-11-30 17:55:34
29,"[{'imgObject': {}, 'id': 'eggs', 'src': '/static/foodstim60/eggs.jpg', 'key': 'u', 'origWidth': 409, 'origHeight': 409, 'width': 409, 'height': 409, 'widthPercent': 0.45, 'rescaleHeight': False, 'trialN': 29, 'loaded': True, 'loadedTime': 5757.200000047684, 'positionName': 'LEFT', 'positionCoords': [221.72, 165], 'bid': 9.76}, {'imgObject': {}, 'id': 'sushi w_condiments', 'src': '/static/foodstim60/sushi w_condiments.jpg', 'key': 'i', 'origWidth': 410, 'origHeight': 410, 'width': 410, 'height': 410, 'widthPercent': 0.45, 'rescaleHeight': False, 'trialN': 29, 'loaded': True, 'loadedTime': 5177.5, 'positionName': 'RIGHT', 'positionCoords': [683.28, 164.5], 'bid': 9.71}]",62697.39999985695,1669830667162,eggs,sushi w_condiments,9.76,9.71,-0.049999999999998934,sushi w_condiments,1278.8000001907349,1281,1280.2000000476837,True,i,64485.299999952316,1787.9000000953674,1669830668950,1788,HRV,HRV_0085,2022-11-30 17:55:34
30,"[{'imgObject': {}, 'id': 'orange slices', 'src': '/static/foodstim60/orange slices.jpg', 'key': 'u', 'origWidth': 409, 'origHeight': 410, 'width': 409, 'height': 410, 'widthPercent': 0.45, 'rescaleHeight': False, 'trialN': 30, 'loaded': True, 'loadedTime': 6240.299999952316, 'positionName': 'LEFT', 'positionCoords': [221.72, 164.5], 'bid': 7.61}, {'imgObject': {}, 'id': 'cherries', 'src': '/static/foodstim60/cherries.jpg', 'key': 'i', 'origWidth': 410, 'origHeight': 411, 'width': 410, 'height': 411, 'widthPercent': 0.45, 'rescaleHeight': False, 'trialN': 30, 'loaded': True, 'loadedTime': 5804.5, 'positionName': 'RIGHT', 'positionCoords': [683.28, 164], 'bid': 7.63}]",64486.09999990463,1669830668951,orange slices,cherries,7.61,7.63,0.019999999999999574,orange slices,920.7999999523163,922,922.2000000476837,True,u,65918.39999985695,1432.2999999523163,1669830670383,1432,HRV,HRV_0085,2022-11-30 17:55:34
31,"[{'imgObject': {}, 'id': 'turkeysandwich', 'src': '/static/foodstim60/turkeysandwich.jpg', 'key': 'u', 'origWidth': 409, 'origHeight': 409, 'width': 409, 'height': 409, 'widthPercent': 0.45, 'rescaleHeight': False, 'trialN': 31, 'loaded': True, 'loadedTime': 5864.700000047684, 'positionName': 'LEFT', 'positionCoords': [221.72, 165], 'bid': 7.8}, {'imgObject': {}, 'id': 'seaweed', 'src': '/static/foodstim60/seaweed.jpg', 'key': 'i', 'origWidth': 410, 'origHeight': 410, 'width': 410, 'height': 410, 'widthPercent': 0.45, 'rescaleHeight': False, 'trialN': 31, 'loaded': True, 'loadedTime': 6241.200000047684, 'positionName': 'RIGHT', 'positionCoords': [683.28, 164.5], 'bid': 0.78}]",65919.20000004768,1669830670384,turkeysandwich,seaweed,7.8,0.78,-7.02,turkeysandwich,1189.5999999046326,1191,1190.8999998569489,True,u,67625.70000004768,1706.5,1669830672091,1707,HRV,HRV_0085,2022-11-30 17:55:34
32,"[{'imgObject': {}, 'id': 'cherry tomato', 'src': '/static/foodstim60/cherry tomato.jpg', 'key': 'u', 'origWidth': 410, 'origHeight': 410, 'width': 410, 'height': 410, 'widthPercent': 0.45, 'rescaleHeight': False, 'trialN': 32, 'loaded': True, 'loadedTime': 6270.899999856949, 'positionName': 'LEFT', 'positionCoords': [220.72, 164.5], 'bid': 2.71}, {'imgObject': {}, 'id': 'chickenfingers', 'src': '/static/foodstim60/chickenfingers.jpg', 'key': 'i', 'origWidth': 410, 'origHeight': 410, 'width': 410, 'height': 410, 'widthPercent': 0.45, 'rescaleHeight': False, 'trialN': 32, 'loaded': True, 'loadedTime': 6037.899999856949, 'positionName': 'RIGHT', 'positionCoords': [683.28, 164.5], 'bid': 8.27}]",67626.59999990463,1669830672092,cherry tomato,chickenfingers,2.71,8.27,5.56,chickenfingers,837.5,838,838.7999999523163,True,i,68984.29999995232,1357.7000000476837,1669830673449,1357,HRV,HRV_0085,2022-11-30 17:55:34
33,"[{'imgObject': {}, 'id': 'eggsalad', 'src': '/static/foodstim60/eggsalad.jpg', 'key': 'u', 'origWidth': 410, 'origHeight': 409, 'width': 410, 'height': 409, 'widthPercent': 0.45, 'rescaleHeight': False, 'trialN': 33, 'loaded': True, 'loadedTime': 5998.799999952316, 'positionName': 'LEFT', 'positionCoords': [220.72, 165], 'bid': 9.88}, {'imgObject': {}, 'id': 'grilled chicken strips', 'src': '/static/foodstim60/grilled chicken strips.jpg', 'key': 'i', 'origWidth': 410, 'origHeight': 411, 'width': 410, 'height': 411, 'widthPercent': 0.45, 'rescaleHeight': False, 'trialN': 33, 'loaded': True, 'loadedTime': 5930.599999904633, 'positionName': 'RIGHT', 'positionCoords': [683.28, 164], 'bid': 7.81}]",68985.09999990463,1669830673450,eggsalad,grilled chicken strips,9.88,7.81,-2.070000000000001,grilled chicken strips,1836.7999999523163,1838,1837.7999999523163,True,i,71334.20000004768,2349.100000143051,1669830675799,2349,HRV,HRV_0085,2022-11-30 17:55:34
34,"[{'imgObject': {}, 'id': 'Grapes', 'src': '/static/foodstim60/Grapes.jpg', 'key': 'u', 'origWidth': 411, 'origHeight': 411, 'width': 411, 'height': 411, 'widthPercent': 0.45, 'rescaleHeight': False, 'trialN': 34, 'loaded': True, 'loadedTime': 6198.099999904633, 'positionName': 'LEFT', 'positionCoords': [219.72, 164], 'bid': 4.51}, {'imgObject': {}, 'id': 'cantaloupe', 'src': '/static/foodstim60/cantaloupe.jpg', 'key': 'i', 'origWidth': 409, 'origHeight': 409, 'width': 409, 'height': 409, 'widthPercent': 0.45, 'rescaleHeight': False, 'trialN': 34, 'loaded': True, 'loadedTime': 6272.899999856949, 'positionName': 'RIGHT', 'positionCoords': [683.28, 165], 'bid': 3.34}]",71334.29999995232,1669830675799,Grapes,cantaloupe,4.51,3.34,-1.17,Grapes,1128.7999999523163,1130,1129.4000000953674,True,u,72975.70000004768,1641.4000000953674,1669830677441,1642,HRV,HRV_0085,2022-11-30 17:55:34
35,"[{'imgObject': {}, 'id': 'Tribe humus pita', 'src': '/static/foodstim60/Tribe humus pita.jpg', 'key': 'u', 'origWidth': 411, 'origHeight': 411, 'width': 411, 'height': 411, 'widthPercent': 0.45, 'rescaleHeight': False, 'trialN': 35, 'loaded': True, 'loadedTime': 6133.200000047684, 'positionName': 'LEFT', 'positionCoords': [219.72, 164], 'bid': 7.0200000000000005}, {'imgObject': {}, 'id': 'chicken nuggets2', 'src': '/static/foodstim60/chicken nuggets2.jpg', 'key': 'i', 'origWidth': 410, 'origHeight': 409, 'width': 410, 'height': 409, 'widthPercent': 0.45, 'rescaleHeight': False, 'trialN': 35, 'loaded': True, 'loadedTime': 6170, 'positionName': 'RIGHT', 'positionCoords': [683.28, 165], 'bid': 7.140000000000001}]",72976.09999990463,1669830677441,Tribe humus pita,chicken nuggets2,7.0200000000000005,7.140000000000001,0.1200000000000001,chicken nuggets2,943.6000001430511,945,945.0,True,i,74435.39999985695,1459.2999999523163,1669830678900,1459,HRV,HRV_0085,2022-11-30 17:55:34
36,"[{'imgObject': {}, 'id': 'avocado', 'src': '/static/foodstim60/avocado.jpg', 'key': 'u', 'origWidth': 409, 'origHeight': 409, 'width': 409, 'height': 409, 'widthPercent': 0.45, 'rescaleHeight': False, 'trialN': 36, 'loaded': True, 'loadedTime': 6276.200000047684, 'positionName': 'LEFT', 'positionCoords': [221.72, 165], 'bid': 9.91}, {'imgObject': {}, 'id': 'shreddedwheatwithmilk', 'src': '/static/foodstim60/shreddedwheatwithmilk.jpg', 'key': 'i', 'origWidth': 410, 'origHeight': 410, 'width': 410, 'height': 410, 'widthPercent': 0.45, 'rescaleHeight': False, 'trialN': 36, 'loaded': True, 'loadedTime': 5643.200000047684, 'positionName': 'RIGHT', 'positionCoords': [683.28, 164.5], 'bid': 5.24}]",74436.29999995232,1669830678901,avocado,shreddedwheatwithmilk,9.91,5.24,-4.67,avocado,1004.2999999523163,1006,1005.7999999523163,True,u,75949.89999985695,1513.5999999046326,1669830680415,1514,HRV,HRV_0085,2022-11-30 17:55:34
37,"[{'imgObject': {}, 'id': 'hotdog w must', 'src': '/static/foodstim60/hotdog w must.jpg', 'key': 'u', 'origWidth': 409, 'origHeight': 409, 'width': 409, 'height': 409, 'widthPercent': 0.45, 'rescaleHeight': False, 'trialN': 37, 'loaded': True, 'loadedTime': 6282.399999856949, 'positionName': 'LEFT', 'positionCoords': [221.72, 165], 'bid': 9.91}, {'imgObject': {}, 'id': 'raisin bran w milk', 'src': '/static/foodstim60/raisin bran w milk.jpg', 'key': 'i', 'origWidth': 411, 'origHeight': 411, 'width': 411, 'height': 411, 'widthPercent': 0.45, 'rescaleHeight': False, 'trialN': 37, 'loaded': True, 'loadedTime': 6068.799999952316, 'positionName': 'RIGHT', 'positionCoords': [683.28, 164], 'bid': 5.21}]",75950.70000004768,1669830680416,hotdog w must,raisin bran w milk,9.91,5.21,-4.7,hotdog w must,1014.5999999046326,1016,1016.0,True,u,77479.89999985695,1529.1999998092651,1669830681945,1529,HRV,HRV_0085,2022-11-30 17:55:34
38,"[{'imgObject': {}, 'id': 'hashbrowns', 'src': '/static/foodstim60/hashbrowns.jpg', 'key': 'u', 'origWidth': 411, 'origHeight': 410, 'width': 411, 'height': 410, 'widthPercent': 0.45, 'rescaleHeight': False, 'trialN': 38, 'loaded': True, 'loadedTime': 5510.599999904633, 'positionName': 'LEFT', 'positionCoords': [219.72, 164.5], 'bid': 1.31}, {'imgObject': {}, 'id': 'grilled chicken strips', 'src': '/static/foodstim60/grilled chicken strips.jpg', 'key': 'i', 'origWidth': 410, 'origHeight': 411, 'width': 410, 'height': 411, 'widthPercent': 0.45, 'rescaleHeight': False, 'trialN': 38, 'loaded': True, 'loadedTime': 5934.5, 'positionName': 'RIGHT', 'positionCoords': [683.28, 164], 'bid': 7.81}]",77480.59999990463,1669830681946,hashbrowns,grilled chicken strips,1.31,7.81,6.5,grilled chicken strips,1068.1000001430511,1069,1069.6000001430511,True,i,79066.09999990463,1585.5,1669830683531,1585,HRV,HRV_0085,2022-11-30 17:55:34
39,"[{'imgObject': {}, 'id': 'fried eggs', 'src': '/static/foodstim60/fried eggs.jpg', 'key': 'u', 'origWidth': 410, 'origHeight': 410, 'width': 410, 'height': 410, 'widthPercent': 0.45, 'rescaleHeight': False, 'trialN': 39, 'loaded': True, 'loadedTime': 6207.200000047684, 'positionName': 'LEFT', 'positionCoords': [220.72, 164.5], 'bid': 9.7}, {'imgObject': {}, 'id': 'hotdog w must', 'src': '/static/foodstim60/hotdog w must.jpg', 'key': 'i', 'origWidth': 409, 'origHeight': 409, 'width': 409, 'height': 409, 'widthPercent': 0.45, 'rescaleHeight': False, 'trialN': 39, 'loaded': True, 'loadedTime': 6282.599999904633, 'positionName': 'RIGHT', 'positionCoords': [683.28, 165], 'bid': 9.91}]",79066.5,1669830683531,fried eggs,hotdog w must,9.7,9.91,0.21000000000000085,fried eggs,1548.0,1550,1549.2000000476837,True,u,81122.79999995232,2056.2999999523163,1669830685588,2057,HRV,HRV_0085,2022-11-30 17:55:34
40,"[{'imgObject': {}, 'id': 'rigatoni', 'src': '/static/foodstim60/rigatoni.jpg', 'key': 'u', 'origWidth': 411, 'origHeight': 411, 'width': 411, 'height': 411, 'widthPercent': 0.45, 'rescaleHeight': False, 'trialN': 40, 'loaded': True, 'loadedTime': 5831.399999856949, 'positionName': 'LEFT', 'positionCoords': [219.72, 164], 'bid': 0.32}, {'imgObject': {}, 'id': 'sweetpotato', 'src': '/static/foodstim60/sweetpotato.jpg', 'key': 'i', 'origWidth': 410, 'origHeight': 410, 'width': 410, 'height': 410, 'widthPercent': 0.45, 'rescaleHeight': False, 'trialN': 40, 'loaded': True, 'loadedTime': 5962.700000047684, 'positionName': 'RIGHT', 'positionCoords': [683.28, 164.5], 'bid': 0.2}]",81123.59999990463,1669830685589,rigatoni,sweetpotato,0.32,0.2,-0.12,rigatoni,1301.6000001430511,1303,1303.0,True,u,82935.20000004768,1811.6000001430511,1669830687400,1811,HRV,HRV_0085,2022-11-30 17:55:34
41,"[{'imgObject': {}, 'id': 'seaweed', 'src': '/static/foodstim60/seaweed.jpg', 'key': 'u', 'origWidth': 410, 'origHeight': 410, 'width': 410, 'height': 410, 'widthPercent': 0.45, 'rescaleHeight': False, 'trialN': 41, 'loaded': True, 'loadedTime': 6244.299999952316, 'positionName': 'LEFT', 'positionCoords': [220.72, 164.5], 'bid': 0.78}, {'imgObject': {}, 'id': 'roastedpotatoes', 'src': '/static/foodstim60/roastedpotatoes.jpg', 'key': 'i', 'origWidth': 409, 'origHeight': 410, 'width': 409, 'height': 410, 'widthPercent': 0.45, 'rescaleHeight': False, 'trialN': 41, 'loaded': True, 'loadedTime': 5510.299999952316, 'positionName': 'RIGHT', 'positionCoords': [683.28, 164.5], 'bid': 0.66}]",82936.0,1669830687401,seaweed,roastedpotatoes,0.78,0.66,-0.12,roastedpotatoes,1003.3999998569489,1005,1005.0,True,i,84452.59999990463,1516.5999999046326,1669830688918,1517,HRV,HRV_0085,2022-11-30 17:55:34
42,"[{'imgObject': {}, 'id': 'blackbeanswithrice', 'src': '/static/foodstim60/blackbeanswithrice.jpg', 'key': 'u', 'origWidth': 410, 'origHeight': 410, 'width': 410, 'height': 410, 'widthPercent': 0.45, 'rescaleHeight': False, 'trialN': 42, 'loaded': True, 'loadedTime': 5394.799999952316, 'positionName': 'LEFT', 'positionCoords': [220.72, 164.5], 'bid': 1.33}, {'imgObject': {}, 'id': 'salmon', 'src': '/static/foodstim60/salmon.jpg', 'key': 'i', 'origWidth': 410, 'origHeight': 409, 'width': 410, 'height': 409, 'widthPercent': 0.45, 'rescaleHeight': False, 'trialN': 42, 'loaded': True, 'loadedTime': 6074.299999952316, 'positionName': 'RIGHT', 'positionCoords': [683.28, 165], 'bid': 5.15}]",84453.29999995232,1669830688918,blackbeanswithrice,salmon,1.33,5.15,3.8200000000000003,salmon,1622.2000000476837,1615,1623.5,True,i,86581.29999995232,2128.0,1669830691037,2119,HRV,HRV_0085,2022-11-30 17:55:34
43,"[{'imgObject': {}, 'id': 'bagel plain', 'src': '/static/foodstim60/bagel plain.jpg', 'key': 'u', 'origWidth': 410, 'origHeight': 410, 'width': 410, 'height': 410, 'widthPercent': 0.45, 'rescaleHeight': False, 'trialN': 43, 'loaded': True, 'loadedTime': 6285.700000047684, 'positionName': 'LEFT', 'positionCoords': [220.72, 164.5], 'bid': 9.82}, {'imgObject': {}, 'id': 'froot loops w milk', 'src': '/static/foodstim60/froot loops w milk.jpg', 'key': 'i', 'origWidth': 410, 'origHeight': 410, 'width': 410, 'height': 410, 'widthPercent': 0.45, 'rescaleHeight': False, 'trialN': 43, 'loaded': True, 'loadedTime': 6308.099999904633, 'positionName': 'RIGHT', 'positionCoords': [683.28, 164.5], 'bid': 4.89}]",86582.20000004768,1669830691038,bagel plain,froot loops w milk,9.82,4.89,-4.930000000000001,bagel plain,1092.5999999046326,1094,1093.8999998569489,True,u,88191.59999990463,1609.3999998569489,1669830692647,1609,HRV,HRV_0085,2022-11-30 17:55:34
44,"[{'imgObject': {}, 'id': 'cherry tomato', 'src': '/static/foodstim60/cherry tomato.jpg', 'key': 'u', 'origWidth': 410, 'origHeight': 410, 'width': 410, 'height': 410, 'widthPercent': 0.45, 'rescaleHeight': False, 'trialN': 44, 'loaded': True, 'loadedTime': 6271, 'positionName': 'LEFT', 'positionCoords': [220.72, 164.5], 'bid': 2.71}, {'imgObject': {}, 'id': 'seaweed', 'src': '/static/foodstim60/seaweed.jpg', 'key': 'i', 'origWidth': 410, 'origHeight': 410, 'width': 410, 'height': 410, 'widthPercent': 0.45, 'rescaleHeight': False, 'trialN': 44, 'loaded': True, 'loadedTime': 6244.799999952316, 'positionName': 'RIGHT', 'positionCoords': [683.28, 164.5], 'bid': 0.78}]",88192.59999990463,1669830692648,cherry tomato,seaweed,2.71,0.78,-1.93,cherry tomato,961.9000000953674,963,962.4000000953674,True,u,89673.70000004768,1481.1000001430511,1669830694129,1481,HRV,HRV_0085,2022-11-30 17:55:34
45,"[{'imgObject': {}, 'id': 'chicken nuggets2', 'src': '/static/foodstim60/chicken nuggets2.jpg', 'key': 'u', 'origWidth': 410, 'origHeight': 409, 'width': 410, 'height': 409, 'widthPercent': 0.45, 'rescaleHeight': False, 'trialN': 45, 'loaded': True, 'loadedTime': 6170.399999856949, 'positionName': 'LEFT', 'positionCoords': [220.72, 165], 'bid': 7.140000000000001}, {'imgObject': {}, 'id': 'rigatoni and sauce', 'src': '/static/foodstim60/rigatoni and sauce.jpg', 'key': 'i', 'origWidth': 410, 'origHeight': 411, 'width': 410, 'height': 411, 'widthPercent': 0.45, 'rescaleHeight': False, 'trialN': 45, 'loaded': True, 'loadedTime': 6199.899999856949, 'positionName': 'RIGHT', 'positionCoords': [683.28, 164], 'bid': 6.8500000000000005}]",89674.39999985695,1669830694130,chicken nuggets2,rigatoni and sauce,7.140000000000001,6.8500000000000005,-0.29000000000000004,rigatoni and sauce,1581.8000001907349,1583,1582.9000000953674,True,i,91764.89999985695,2090.5,1669830696221,2091,HRV,HRV_0085,2022-11-30 17:55:34
46,"[{'imgObject': {}, 'id': 'pear', 'src': '/static/foodstim60/pear.jpg', 'key': 'u', 'origWidth': 411, 'origHeight': 410, 'width': 411, 'height': 410, 'widthPercent': 0.45, 'rescaleHeight': False, 'trialN': 46, 'loaded': True, 'loadedTime': 5646.5, 'positionName': 'LEFT', 'positionCoords': [219.72, 164.5], 'bid': 5.89}, {'imgObject': {}, 'id': 'mashed potato', 'src': '/static/foodstim60/mashed potato.jpg', 'key': 'i', 'origWidth': 409, 'origHeight': 409, 'width': 409, 'height': 409, 'widthPercent': 0.45, 'rescaleHeight': False, 'trialN': 46, 'loaded': True, 'loadedTime': 6309.899999856949, 'positionName': 'RIGHT', 'positionCoords': [683.28, 165], 'bid': 5.91}]",91765.39999985695,1669830696221,pear,mashed potato,5.89,5.91,0.020000000000000462,pear,2149.2000000476837,2151,2150.600000143051,True,u,94419.39999985695,2654.0,1669830698875,2654,HRV,HRV_0085,2022-11-30 17:55:34
47,"[{'imgObject': {}, 'id': 'eggs', 'src': '/static/foodstim60/eggs.jpg', 'key': 'u', 'origWidth': 409, 'origHeight': 409, 'width': 409, 'height': 409, 'widthPercent': 0.45, 'rescaleHeight': False, 'trialN': 47, 'loaded': True, 'loadedTime': 5724.399999856949, 'positionName': 'LEFT', 'positionCoords': [221.72, 165], 'bid': 9.76}, {'imgObject': {}, 'id': 'Tribe humus pita', 'src': '/static/foodstim60/Tribe humus pita.jpg', 'key': 'i', 'origWidth': 411, 'origHeight': 411, 'width': 411, 'height': 411, 'widthPercent': 0.45, 'rescaleHeight': False, 'trialN': 47, 'loaded': True, 'loadedTime': 6134.200000047684, 'positionName': 'RIGHT', 'positionCoords': [683.28, 164], 'bid': 7.0200000000000005}]",94420.20000004768,1669830698876,eggs,Tribe humus pita,9.76,7.0200000000000005,-2.7399999999999993,Tribe humus pita,1575.2999999523163,1577,1576.6999998092651,True,i,96502.0,2081.7999999523163,1669830700958,2082,HRV,HRV_0085,2022-11-30 17:55:34
48,"[{'imgObject': {}, 'id': 'seaweed', 'src': '/static/foodstim60/seaweed.jpg', 'key': 'u', 'origWidth': 410, 'origHeight': 410, 'width': 410, 'height': 410, 'widthPercent': 0.45, 'rescaleHeight': False, 'trialN': 48, 'loaded': True, 'loadedTime': 6243.899999856949, 'positionName': 'LEFT', 'positionCoords': [220.72, 164.5], 'bid': 0.78}, {'imgObject': {}, 'id': 'ice cream sundae 002', 'src': '/static/foodstim60/ice cream sundae 002.jpg', 'key': 'i', 'origWidth': 409, 'origHeight': 409, 'width': 409, 'height': 409, 'widthPercent': 0.45, 'rescaleHeight': False, 'trialN': 48, 'loaded': True, 'loadedTime': 5697.700000047684, 'positionName': 'RIGHT', 'positionCoords': [683.28, 165], 'bid': 4.71}]",96502.70000004768,1669830700958,seaweed,ice cream sundae 002,0.78,4.71,3.9299999999999997,ice cream sundae 002,979.7999999523163,982,981.1999998092651,True,i,97987.39999985695,1484.6999998092651,1669830702443,1485,HRV,HRV_0085,2022-11-30 17:55:34
49,"[{'imgObject': {}, 'id': 'apple slices', 'src': '/static/foodstim60/apple slices.jpg', 'key': 'u', 'origWidth': 409, 'origHeight': 410, 'width': 409, 'height': 410, 'widthPercent': 0.45, 'rescaleHeight': False, 'trialN': 49, 'loaded': True, 'loadedTime': 6174.599999904633, 'positionName': 'LEFT', 'positionCoords': [221.72, 164.5], 'bid': 5.89}, {'imgObject': {}, 'id': 'mashed potato', 'src': '/static/foodstim60/mashed potato.jpg', 'key': 'i', 'origWidth': 409, 'origHeight': 409, 'width': 409, 'height': 409, 'widthPercent': 0.45, 'rescaleHeight': False, 'trialN': 49, 'loaded': True, 'loadedTime': 6310.200000047684, 'positionName': 'RIGHT', 'positionCoords': [683.28, 165], 'bid': 5.91}]",97988.29999995232,1669830702444,apple slices,mashed potato,5.89,5.91,0.020000000000000462,mashed potato,1781.4000000953674,1783,1782.9000000953674,True,i,100280.70000004768,2292.4000000953674,1669830704736,2292,HRV,HRV_0085,2022-11-30 17:55:34
50,"[{'imgObject': {}, 'id': 'pear', 'src': '/static/foodstim60/pear.jpg', 'key': 'u', 'origWidth': 411, 'origHeight': 410, 'width': 411, 'height': 410, 'widthPercent': 0.45, 'rescaleHeight': False, 'trialN': 50, 'loaded': True, 'loadedTime': 5678.200000047684, 'positionName': 'LEFT', 'positionCoords': [219.72, 164.5], 'bid': 5.89}, {'imgObject': {}, 'id': 'orange slices', 'src': '/static/foodstim60/orange slices.jpg', 'key': 'i', 'origWidth': 409, 'origHeight': 410, 'width': 409, 'height': 410, 'widthPercent': 0.45, 'rescaleHeight': False, 'trialN': 50, 'loaded': True, 'loadedTime': 6237.5, 'positionName': 'RIGHT', 'positionCoords': [683.28, 164.5], 'bid': 7.61}]",100281.79999995232,1669830704738,pear,orange slices,5.89,7.61,1.7200000000000006,orange slices,972.7000000476837,973,974.0,True,i,101787.89999985695,1506.0999999046326,1669830706244,1506,HRV,HRV_0085,2022-11-30 17:55:34
51,"[{'imgObject': {}, 'id': 'rigatoni', 'src': '/static/foodstim60/rigatoni.jpg', 'key': 'u', 'origWidth': 411, 'origHeight': 411, 'width': 411, 'height': 411, 'widthPercent': 0.45, 'rescaleHeight': False, 'trialN': 51, 'loaded': True, 'loadedTime': 5832, 'positionName': 'LEFT', 'positionCoords': [219.72, 164], 'bid': 0.32}, {'imgObject': {}, 'id': 'banana', 'src': '/static/foodstim60/banana.jpg', 'key': 'i', 'origWidth': 410, 'origHeight': 410, 'width': 410, 'height': 410, 'widthPercent': 0.45, 'rescaleHeight': False, 'trialN': 51, 'loaded': True, 'loadedTime': 5364.5, 'positionName': 'RIGHT', 'positionCoords': [683.28, 164.5], 'bid': 0.12}]",101788.20000004768,1669830706244,rigatoni,banana,0.32,0.12,-0.2,rigatoni,1189.0,1190,1189.8999998569489,True,u,103491.20000004768,1703.0,1669830707947,1703,HRV,HRV_0085,2022-11-30 17:55:34
52,"[{'imgObject': {}, 'id': 'cantaloupe', 'src': '/static/foodstim60/cantaloupe.jpg', 'key': 'u', 'origWidth': 409, 'origHeight': 409, 'width': 409, 'height': 409, 'widthPercent': 0.45, 'rescaleHeight': False, 'trialN': 52, 'loaded': True, 'loadedTime': 6271.099999904633, 'positionName': 'LEFT', 'positionCoords': [221.72, 165], 'bid': 3.34}, {'imgObject': {}, 'id': 'mashed potato', 'src': '/static/foodstim60/mashed potato.jpg', 'key': 'i', 'origWidth': 409, 'origHeight': 409, 'width': 409, 'height': 409, 'widthPercent': 0.45, 'rescaleHeight': False, 'trialN': 52, 'loaded': True, 'loadedTime': 6308.599999904633, 'positionName': 'RIGHT', 'positionCoords': [683.28, 165], 'bid': 5.91}]",103492.29999995232,1669830707948,cantaloupe,mashed potato,3.34,5.91,2.5700000000000003,mashed potato,1111.5999999046326,1113,1113.2000000476837,True,i,105114.20000004768,1621.9000000953674,1669830709570,1622,HRV,HRV_0085,2022-11-30 17:55:34
53,"[{'imgObject': {}, 'id': 'ice cream sundae 002', 'src': '/static/foodstim60/ice cream sundae 002.jpg', 'key': 'u', 'origWidth': 409, 'origHeight': 409, 'width': 409, 'height': 409, 'widthPercent': 0.45, 'rescaleHeight': False, 'trialN': 53, 'loaded': True, 'loadedTime': 5685.399999856949, 'positionName': 'LEFT', 'positionCoords': [221.72, 165], 'bid': 4.71}, {'imgObject': {}, 'id': 'cheerios', 'src': '/static/foodstim60/cheerios.jpg', 'key': 'i', 'origWidth': 409, 'origHeight': 410, 'width': 409, 'height': 410, 'widthPercent': 0.45, 'rescaleHeight': False, 'trialN': 53, 'loaded': True, 'loadedTime': 5866.099999904633, 'positionName': 'RIGHT', 'positionCoords': [683.28, 164.5], 'bid': 5.0600000000000005}]",105115.0,1669830709571,ice cream sundae 002,cheerios,4.71,5.0600000000000005,0.35000000000000053,cheerios,1319.2999999523163,1320,1320.7000000476837,True,i,106939.0,1824.0,1669830711395,1824,HRV,HRV_0085,2022-11-30 17:55:34
54,"[{'imgObject': {}, 'id': 'blueberries', 'src': '/static/foodstim60/blueberries.jpg', 'key': 'u', 'origWidth': 411, 'origHeight': 411, 'width': 411, 'height': 411, 'widthPercent': 0.45, 'rescaleHeight': False, 'trialN': 54, 'loaded': True, 'loadedTime': 6311.899999856949, 'positionName': 'LEFT', 'positionCoords': [219.72, 164], 'bid': 4.95}, {'imgObject': {}, 'id': 'omelette', 'src': '/static/foodstim60/omelette.jpg', 'key': 'i', 'origWidth': 410, 'origHeight': 409, 'width': 410, 'height': 409, 'widthPercent': 0.45, 'rescaleHeight': False, 'trialN': 54, 'loaded': True, 'loadedTime': 6211.5, 'positionName': 'RIGHT', 'positionCoords': [683.28, 165], 'bid': 9.85}]",106940.20000004768,1669830711396,blueberries,omelette,4.95,9.85,4.8999999999999995,omelette,915.1999998092651,917,916.7999999523163,True,i,108364.79999995232,1424.5999999046326,1669830712820,1424,HRV,HRV_0085,2022-11-30 17:55:34
55,"[{'imgObject': {}, 'id': 'steak', 'src': '/static/foodstim60/steak.jpg', 'key': 'u', 'origWidth': 410, 'origHeight': 410, 'width': 410, 'height': 410, 'widthPercent': 0.45, 'rescaleHeight': False, 'trialN': 55, 'loaded': True, 'loadedTime': 6140.399999856949, 'positionName': 'LEFT', 'positionCoords': [220.72, 164.5], 'bid': 9.9}, {'imgObject': {}, 'id': 'hotdog w must', 'src': '/static/foodstim60/hotdog w must.jpg', 'key': 'i', 'origWidth': 409, 'origHeight': 409, 'width': 409, 'height': 409, 'widthPercent': 0.45, 'rescaleHeight': False, 'trialN': 55, 'loaded': True, 'loadedTime': 6281.399999856949, 'positionName': 'RIGHT', 'positionCoords': [683.28, 165], 'bid': 9.91}]",108365.5,1669830712821,steak,hotdog w must,9.9,9.91,0.009999999999999787,steak,701.5,703,703.0,True,u,109576.79999995232,1211.2999999523163,1669830714032,1211,HRV,HRV_0085,2022-11-30 17:55:34
56,"[{'imgObject': {}, 'id': 'salad w chicken', 'src': '/static/foodstim60/salad w chicken.jpg', 'key': 'u', 'origWidth': 411, 'origHeight': 411, 'width': 411, 'height': 411, 'widthPercent': 0.45, 'rescaleHeight': False, 'trialN': 56, 'loaded': True, 'loadedTime': 6165.899999856949, 'positionName': 'LEFT', 'positionCoords': [219.72, 164], 'bid': 7.9}, {'imgObject': {}, 'id': 'fried eggs', 'src': '/static/foodstim60/fried eggs.jpg', 'key': 'i', 'origWidth': 410, 'origHeight': 410, 'width': 410, 'height': 410, 'widthPercent': 0.45, 'rescaleHeight': False, 'trialN': 56, 'loaded': True, 'loadedTime': 6205.200000047684, 'positionName': 'RIGHT', 'positionCoords': [683.28, 164.5], 'bid': 9.7}]",109577.59999990463,1669830714033,salad w chicken,fried eggs,7.9,9.7,1.799999999999999,salad w chicken,1666.2000000476837,1668,1667.5,True,u,111752.20000004768,2174.600000143051,1669830716208,2175,HRV,HRV_0085,2022-11-30 17:55:34
57,"[{'imgObject': {}, 'id': 'veggieswithdip', 'src': '/static/foodstim60/veggieswithdip.jpg', 'key': 'u', 'origWidth': 409, 'origHeight': 409, 'width': 409, 'height': 409, 'widthPercent': 0.45, 'rescaleHeight': False, 'trialN': 57, 'loaded': True, 'loadedTime': 5610.299999952316, 'positionName': 'LEFT', 'positionCoords': [221.72, 165], 'bid': 8.22}, {'imgObject': {}, 'id': 'granola w milk', 'src': '/static/foodstim60/granola w milk.jpg', 'key': 'i', 'origWidth': 410, 'origHeight': 410, 'width': 410, 'height': 410, 'widthPercent': 0.45, 'rescaleHeight': False, 'trialN': 57, 'loaded': True, 'loadedTime': 6314.299999952316, 'positionName': 'RIGHT', 'positionCoords': [683.28, 164.5], 'bid': 2.54}]",111752.39999985695,1669830716208,veggieswithdip,granola w milk,8.22,2.54,-5.680000000000001,veggieswithdip,1201.5,1203,1203.4000000953674,True,u,113461.79999995232,1709.4000000953674,1669830717917,1709,HRV,HRV_0085,2022-11-30 17:55:34
58,"[{'imgObject': {}, 'id': 'roastedpotatoes', 'src': '/static/foodstim60/roastedpotatoes.jpg', 'key': 'u', 'origWidth': 409, 'origHeight': 410, 'width': 409, 'height': 410, 'widthPercent': 0.45, 'rescaleHeight': False, 'trialN': 58, 'loaded': True, 'loadedTime': 5509.599999904633, 'positionName': 'LEFT', 'positionCoords': [221.72, 164.5], 'bid': 0.66}, {'imgObject': {}, 'id': 'edamame', 'src': '/static/foodstim60/edamame.jpg', 'key': 'i', 'origWidth': 409, 'origHeight': 410, 'width': 409, 'height': 410, 'widthPercent': 0.45, 'rescaleHeight': False, 'trialN': 58, 'loaded': True, 'loadedTime': 5835.099999904633, 'positionName': 'RIGHT', 'positionCoords': [683.28, 164.5], 'bid': 7.73}]",113462.79999995232,1669830717919,roastedpotatoes,edamame,0.66,7.73,7.07,edamame,923.2999999523163,924,924.5999999046326,True,i,114893.59999990463,1430.7999999523163,1669830719349,1430,HRV,HRV_0085,2022-11-30 17:55:34
59,"[{'imgObject': {}, 'id': 'blackbeanswithrice', 'src': '/static/foodstim60/blackbeanswithrice.jpg', 'key': 'u', 'origWidth': 410, 'origHeight': 410, 'width': 410, 'height': 410, 'widthPercent': 0.45, 'rescaleHeight': False, 'trialN': 59, 'loaded': True, 'loadedTime': 5418, 'positionName': 'LEFT', 'positionCoords': [220.72, 164.5], 'bid': 1.33}, {'imgObject': {}, 'id': 'seaweed', 'src': '/static/foodstim60/seaweed.jpg', 'key': 'i', 'origWidth': 410, 'origHeight': 410, 'width': 410, 'height': 410, 'widthPercent': 0.45, 'rescaleHeight': False, 'trialN': 59, 'loaded': True, 'loadedTime': 6245.099999904633, 'positionName': 'RIGHT', 'positionCoords': [683.28, 164.5], 'bid': 0.78}]",114894.5,1669830719350,blackbeanswithrice,seaweed,1.33,0.78,-0.55,blackbeanswithrice,1173.3999998569489,1174,1174.2000000476837,True,u,116583.5,1689.0,1669830721039,1689,HRV,HRV_0085,2022-11-30 17:55:34
60,"[{'imgObject': {}, 'id': 'burger', 'src': '/static/foodstim60/burger.jpg', 'key': 'u', 'origWidth': 409, 'origHeight': 409, 'width': 409, 'height': 409, 'widthPercent': 0.45, 'rescaleHeight': False, 'trialN': 60, 'loaded': True, 'loadedTime': 6235.599999904633, 'positionName': 'LEFT', 'positionCoords': [221.72, 165], 'bid': 9.97}, {'imgObject': {}, 'id': 'sushi w_condiments', 'src': '/static/foodstim60/sushi w_condiments.jpg', 'key': 'i', 'origWidth': 410, 'origHeight': 410, 'width': 410, 'height': 410, 'widthPercent': 0.45, 'rescaleHeight': False, 'trialN': 60, 'loaded': True, 'loadedTime': 5306, 'positionName': 'RIGHT', 'positionCoords': [683.28, 164.5], 'bid': 9.71}]",116584.29999995232,1669830721040,burger,sushi w_condiments,9.97,9.71,-0.2599999999999998,sushi w_condiments,1339.5999999046326,1340,1340.2000000476837,True,i,118440.0,1855.7000000476837,1669830722896,1856,HRV,HRV_0085,2022-11-30 17:55:34
61,"[{'imgObject': {}, 'id': 'luckycharms', 'src': '/static/foodstim60/luckycharms.jpg', 'key': 'u', 'origWidth': 410, 'origHeight': 409, 'width': 410, 'height': 409, 'widthPercent': 0.45, 'rescaleHeight': False, 'trialN': 61, 'loaded': True, 'loadedTime': 6315.099999904633, 'positionName': 'LEFT', 'positionCoords': [220.72, 165], 'bid': 4.89}, {'imgObject': {}, 'id': 'sweetpotato', 'src': '/static/foodstim60/sweetpotato.jpg', 'key': 'i', 'origWidth': 410, 'origHeight': 410, 'width': 410, 'height': 410, 'widthPercent': 0.45, 'rescaleHeight': False, 'trialN': 61, 'loaded': True, 'loadedTime': 5935.5, 'positionName': 'RIGHT', 'positionCoords': [683.28, 164.5], 'bid': 0.2}]",118440.89999985695,1669830722897,luckycharms,sweetpotato,4.89,0.2,-4.6899999999999995,luckycharms,881.4000000953674,882,882.6000001430511,True,u,119829.0,1388.1000001430511,1669830724285,1388,HRV,HRV_0085,2022-11-30 17:55:34
62,"[{'imgObject': {}, 'id': 'olives', 'src': '/static/foodstim60/olives.jpg', 'key': 'u', 'origWidth': 410, 'origHeight': 410, 'width': 410, 'height': 410, 'widthPercent': 0.45, 'rescaleHeight': False, 'trialN': 62, 'loaded': True, 'loadedTime': 5930.399999856949, 'positionName': 'LEFT', 'positionCoords': [220.72, 164.5], 'bid': 9.55}, {'imgObject': {}, 'id': 'veggieswithdip', 'src': '/static/foodstim60/veggieswithdip.jpg', 'key': 'i', 'origWidth': 409, 'origHeight': 409, 'width': 409, 'height': 409, 'widthPercent': 0.45, 'rescaleHeight': False, 'trialN': 62, 'loaded': True, 'loadedTime': 5606.399999856949, 'positionName': 'RIGHT', 'positionCoords': [683.28, 165], 'bid': 8.22}]",119829.70000004768,1669830724285,olives,veggieswithdip,9.55,8.22,-1.33,veggieswithdip,1302.0999999046326,1304,1303.5,True,i,121642.89999985695,1813.1999998092651,1669830726099,1814,HRV,HRV_0085,2022-11-30 17:55:34
63,"[{'imgObject': {}, 'id': 'luckycharms', 'src': '/static/foodstim60/luckycharms.jpg', 'key': 'u', 'origWidth': 410, 'origHeight': 409, 'width': 410, 'height': 409, 'widthPercent': 0.45, 'rescaleHeight': False, 'trialN': 63, 'loaded': True, 'loadedTime': 6317.799999952316, 'positionName': 'LEFT', 'positionCoords': [220.72, 165], 'bid': 4.89}, {'imgObject': {}, 'id': 'blackbeanswithrice', 'src': '/static/foodstim60/blackbeanswithrice.jpg', 'key': 'i', 'origWidth': 410, 'origHeight': 410, 'width': 410, 'height': 410, 'widthPercent': 0.45, 'rescaleHeight': False, 'trialN': 63, 'loaded': True, 'loadedTime': 5418.299999952316, 'positionName': 'RIGHT', 'positionCoords': [683.28, 164.5], 'bid': 1.33}]",121643.59999990463,1669830726099,luckycharms,blackbeanswithrice,4.89,1.33,-3.5599999999999996,blackbeanswithrice,1147.2999999523163,1149,1148.7000000476837,True,i,123298.39999985695,1654.7999999523163,1669830727754,1655,HRV,HRV_0085,2022-11-30 17:55:34
64,"[{'imgObject': {}, 'id': 'luckycharms', 'src': '/static/foodstim60/luckycharms.jpg', 'key': 'u', 'origWidth': 410, 'origHeight': 409, 'width': 410, 'height': 409, 'widthPercent': 0.45, 'rescaleHeight': False, 'trialN': 64, 'loaded': True, 'loadedTime': 6317.099999904633, 'positionName': 'LEFT', 'positionCoords': [220.72, 165], 'bid': 4.89}, {'imgObject': {}, 'id': 'blueberries', 'src': '/static/foodstim60/blueberries.jpg', 'key': 'i', 'origWidth': 411, 'origHeight': 411, 'width': 411, 'height': 411, 'widthPercent': 0.45, 'rescaleHeight': False, 'trialN': 64, 'loaded': True, 'loadedTime': 6311.599999904633, 'positionName': 'RIGHT', 'positionCoords': [683.28, 164], 'bid': 4.95}]",123299.09999990463,1669830727755,luckycharms,blueberries,4.89,4.95,0.0600000000000005,luckycharms,993.1000001430511,994,994.2999999523163,True,u,124808.70000004768,1509.6000001430511,1669830729264,1509,HRV,HRV_0085,2022-11-30 17:55:34
65,"[{'imgObject': {}, 'id': 'orange slices', 'src': '/static/foodstim60/orange slices.jpg', 'key': 'u', 'origWidth': 409, 'origHeight': 410, 'width': 409, 'height': 410, 'widthPercent': 0.45, 'rescaleHeight': False, 'trialN': 65, 'loaded': True, 'loadedTime': 6240.799999952316, 'positionName': 'LEFT', 'positionCoords': [221.72, 164.5], 'bid': 7.61}, {'imgObject': {}, 'id': 'salmon', 'src': '/static/foodstim60/salmon.jpg', 'key': 'i', 'origWidth': 410, 'origHeight': 409, 'width': 410, 'height': 409, 'widthPercent': 0.45, 'rescaleHeight': False, 'trialN': 65, 'loaded': True, 'loadedTime': 6075.399999856949, 'positionName': 'RIGHT', 'positionCoords': [683.28, 165], 'bid': 5.15}]",124809.39999985695,1669830729265,orange slices,salmon,7.61,5.15,-2.46,salmon,1523.7000000476837,1525,1525.1000001430511,True,i,126839.29999995232,2029.9000000953674,1669830731295,2030,HRV,HRV_0085,2022-11-30 17:55:34
66,"[{'imgObject': {}, 'id': 'blueberries', 'src': '/static/foodstim60/blueberries.jpg', 'key': 'u', 'origWidth': 411, 'origHeight': 411, 'width': 411, 'height': 411, 'widthPercent': 0.45, 'rescaleHeight': False, 'trialN': 66, 'loaded': True, 'loadedTime': 6312.099999904633, 'positionName': 'LEFT', 'positionCoords': [219.72, 164], 'bid': 4.95}, {'imgObject': {}, 'id': 'roastedpotatoes', 'src': '/static/foodstim60/roastedpotatoes.jpg', 'key': 'i', 'origWidth': 409, 'origHeight': 410, 'width': 409, 'height': 410, 'widthPercent': 0.45, 'rescaleHeight': False, 'trialN': 66, 'loaded': True, 'loadedTime': 5477.399999856949, 'positionName': 'RIGHT', 'positionCoords': [683.28, 164.5], 'bid': 0.66}]",126840.29999995232,1669830731296,blueberries,roastedpotatoes,4.95,0.66,-4.29,blueberries,1500.5,1502,1502.0999999046326,True,u,128858.5,2018.2000000476837,1669830733314,2018,HRV,HRV_0085,2022-11-30 17:55:34
67,"[{'imgObject': {}, 'id': 'cherries', 'src': '/static/foodstim60/cherries.jpg', 'key': 'u', 'origWidth': 410, 'origHeight': 411, 'width': 410, 'height': 411, 'widthPercent': 0.45, 'rescaleHeight': False, 'trialN': 67, 'loaded': True, 'loadedTime': 5796.599999904633, 'positionName': 'LEFT', 'positionCoords': [220.72, 164], 'bid': 7.63}, {'imgObject': {}, 'id': 'mashed potato', 'src': '/static/foodstim60/mashed potato.jpg', 'key': 'i', 'origWidth': 409, 'origHeight': 409, 'width': 409, 'height': 409, 'widthPercent': 0.45, 'rescaleHeight': False, 'trialN': 67, 'loaded': True, 'loadedTime': 6309.700000047684, 'positionName': 'RIGHT', 'positionCoords': [683.28, 165], 'bid': 5.91}]",128859.0,1669830733315,cherries,mashed potato,7.63,5.91,-1.7199999999999998,cherries,815.7000000476837,817,817.0,True,u,130196.59999990463,1337.5999999046326,1669830734652,1337,HRV,HRV_0085,2022-11-30 17:55:34
68,"[{'imgObject': {}, 'id': 'omelette', 'src': '/static/foodstim60/omelette.jpg', 'key': 'u', 'origWidth': 410, 'origHeight': 409, 'width': 410, 'height': 409, 'widthPercent': 0.45, 'rescaleHeight': False, 'trialN': 68, 'loaded': True, 'loadedTime': 6231.899999856949, 'positionName': 'LEFT', 'positionCoords': [220.72, 165], 'bid': 9.85}, {'imgObject': {}, 'id': 'tacos', 'src': '/static/foodstim60/tacos.jpg', 'key': 'i', 'origWidth': 411, 'origHeight': 411, 'width': 411, 'height': 411, 'widthPercent': 0.45, 'rescaleHeight': False, 'trialN': 68, 'loaded': True, 'loadedTime': 5762.099999904633, 'positionName': 'RIGHT', 'positionCoords': [683.28, 164], 'bid': 9.91}]",130196.79999995232,1669830734653,omelette,tacos,9.85,9.91,0.0600000000000005,tacos,1261.4000000953674,1262,1262.0999999046326,True,i,131975.20000004768,1778.4000000953674,1669830736431,1778,HRV,HRV_0085,2022-11-30 17:55:34
69,"[{'imgObject': {}, 'id': 'lox', 'src': '/static/foodstim60/lox.jpg', 'key': 'u', 'origWidth': 410, 'origHeight': 411, 'width': 410, 'height': 411, 'widthPercent': 0.45, 'rescaleHeight': False, 'trialN': 69, 'loaded': True, 'loadedTime': 5546, 'positionName': 'LEFT', 'positionCoords': [220.72, 164], 'bid': 9.97}, {'imgObject': {}, 'id': 'bagel plain', 'src': '/static/foodstim60/bagel plain.jpg', 'key': 'i', 'origWidth': 410, 'origHeight': 410, 'width': 410, 'height': 410, 'widthPercent': 0.45, 'rescaleHeight': False, 'trialN': 69, 'loaded': True, 'loadedTime': 6282.799999952316, 'positionName': 'RIGHT', 'positionCoords': [683.28, 164.5], 'bid': 9.82}]",131975.59999990463,1669830736431,lox,bagel plain,9.97,9.82,-0.15000000000000036,lox,754.1000001430511,756,756.1000001430511,True,u,133238.89999985695,1263.2999999523163,1669830737695,1264,HRV,HRV_0085,2022-11-30 17:55:34
70,"[{'imgObject': {}, 'id': 'luckycharms', 'src': '/static/foodstim60/luckycharms.jpg', 'key': 'u', 'origWidth': 410, 'origHeight': 409, 'width': 410, 'height': 409, 'widthPercent': 0.45, 'rescaleHeight': False, 'trialN': 70, 'loaded': True, 'loadedTime': 6318.200000047684, 'positionName': 'LEFT', 'positionCoords': [220.72, 165], 'bid': 4.89}, {'imgObject': {}, 'id': 'raisin bran w milk', 'src': '/static/foodstim60/raisin bran w milk.jpg', 'key': 'i', 'origWidth': 411, 'origHeight': 411, 'width': 411, 'height': 411, 'widthPercent': 0.45, 'rescaleHeight': False, 'trialN': 70, 'loaded': True, 'loadedTime': 6038.399999856949, 'positionName': 'RIGHT', 'positionCoords': [683.28, 164], 'bid': 5.21}]",133239.29999995232,1669830737695,luckycharms,raisin bran w milk,4.89,5.21,0.3200000000000003,luckycharms,1043.9000000953674,1045,1045.4000000953674,True,u,134795.39999985695,1556.0999999046326,1669830739251,1556,HRV,HRV_0085,2022-11-30 17:55:34
71,"[{'imgObject': {}, 'id': 'olives', 'src': '/static/foodstim60/olives.jpg', 'key': 'u', 'origWidth': 410, 'origHeight': 410, 'width': 410, 'height': 410, 'widthPercent': 0.45, 'rescaleHeight': False, 'trialN': 71, 'loaded': True, 'loadedTime': 5905.799999952316, 'positionName': 'LEFT', 'positionCoords': [220.72, 164.5], 'bid': 9.55}, {'imgObject': {}, 'id': 'cantaloupe', 'src': '/static/foodstim60/cantaloupe.jpg', 'key': 'i', 'origWidth': 409, 'origHeight': 409, 'width': 409, 'height': 409, 'widthPercent': 0.45, 'rescaleHeight': False, 'trialN': 71, 'loaded': True, 'loadedTime': 6272.5, 'positionName': 'RIGHT', 'positionCoords': [683.28, 165], 'bid': 3.34}]",134795.5,1669830739251,olives,cantaloupe,9.55,3.34,-6.210000000000001,olives,1307.3999998569489,1308,1308.0,True,u,136622.5,1827.0,1669830741078,1827,HRV,HRV_0085,2022-11-30 17:55:34
72,"[{'imgObject': {}, 'id': 'rigatoni and sauce', 'src': '/static/foodstim60/rigatoni and sauce.jpg', 'key': 'u', 'origWidth': 410, 'origHeight': 411, 'width': 410, 'height': 411, 'widthPercent': 0.45, 'rescaleHeight': False, 'trialN': 72, 'loaded': True, 'loadedTime': 6203.799999952316, 'positionName': 'LEFT', 'positionCoords': [220.72, 164], 'bid': 6.8500000000000005}, {'imgObject': {}, 'id': 'burger', 'src': '/static/foodstim60/burger.jpg', 'key': 'i', 'origWidth': 409, 'origHeight': 409, 'width': 409, 'height': 409, 'widthPercent': 0.45, 'rescaleHeight': False, 'trialN': 72, 'loaded': True, 'loadedTime': 6236.599999904633, 'positionName': 'RIGHT', 'positionCoords': [683.28, 165], 'bid': 9.97}]",136623.29999995232,1669830741079,rigatoni and sauce,burger,6.8500000000000005,9.97,3.12,burger,1213.5999999046326,1215,1214.4000000953674,True,i,138351.59999990463,1728.2999999523163,1669830742807,1728,HRV,HRV_0085,2022-11-30 17:55:34
73,"[{'imgObject': {}, 'id': 'baked potato', 'src': '/static/foodstim60/baked potato.jpg', 'key': 'u', 'origWidth': 409, 'origHeight': 410, 'width': 409, 'height': 410, 'widthPercent': 0.45, 'rescaleHeight': False, 'trialN': 73, 'loaded': True, 'loadedTime': 6129.200000047684, 'positionName': 'LEFT', 'positionCoords': [221.72, 164.5], 'bid': 0.08}, {'imgObject': {}, 'id': 'sweetpotato', 'src': '/static/foodstim60/sweetpotato.jpg', 'key': 'i', 'origWidth': 410, 'origHeight': 410, 'width': 410, 'height': 410, 'widthPercent': 0.45, 'rescaleHeight': False, 'trialN': 73, 'loaded': True, 'loadedTime': 5963, 'positionName': 'RIGHT', 'positionCoords': [683.28, 164.5], 'bid': 0.2}]",138352.09999990463,1669830742808,baked potato,sweetpotato,0.08,0.2,0.12000000000000001,baked potato,1649.6000001430511,1651,1651.0,True,u,140509.39999985695,2157.2999999523163,1669830744965,2157,HRV,HRV_0085,2022-11-30 17:55:34
74,"[{'imgObject': {}, 'id': 'sushi w_condiments', 'src': '/static/foodstim60/sushi w_condiments.jpg', 'key': 'u', 'origWidth': 410, 'origHeight': 410, 'width': 410, 'height': 410, 'widthPercent': 0.45, 'rescaleHeight': False, 'trialN': 74, 'loaded': True, 'loadedTime': 5305.200000047684, 'positionName': 'LEFT', 'positionCoords': [220.72, 164.5], 'bid': 9.71}, {'imgObject': {}, 'id': 'Grapes', 'src': '/static/foodstim60/Grapes.jpg', 'key': 'i', 'origWidth': 411, 'origHeight': 411, 'width': 411, 'height': 411, 'widthPercent': 0.45, 'rescaleHeight': False, 'trialN': 74, 'loaded': True, 'loadedTime': 6196.599999904633, 'positionName': 'RIGHT', 'positionCoords': [683.28, 164], 'bid': 4.51}]",140510.0,1669830744966,sushi w_condiments,Grapes,9.71,4.51,-5.200000000000001,sushi w_condiments,1616.5999999046326,1618,1617.8999998569489,True,u,142648.79999995232,2138.7999999523163,1669830747104,2138,HRV,HRV_0085,2022-11-30 17:55:34
75,"[{'imgObject': {}, 'id': 'avocado', 'src': '/static/foodstim60/avocado.jpg', 'key': 'u', 'origWidth': 409, 'origHeight': 409, 'width': 409, 'height': 409, 'widthPercent': 0.45, 'rescaleHeight': False, 'trialN': 75, 'loaded': True, 'loadedTime': 6273.399999856949, 'positionName': 'LEFT', 'positionCoords': [221.72, 165], 'bid': 9.91}, {'imgObject': {}, 'id': 'sushi w_condiments', 'src': '/static/foodstim60/sushi w_condiments.jpg', 'key': 'i', 'origWidth': 410, 'origHeight': 410, 'width': 410, 'height': 410, 'widthPercent': 0.45, 'rescaleHeight': False, 'trialN': 75, 'loaded': True, 'loadedTime': 5304, 'positionName': 'RIGHT', 'positionCoords': [683.28, 164.5], 'bid': 9.71}]",142649.0,1669830747105,avocado,sushi w_condiments,9.91,9.71,-0.1999999999999993,sushi w_condiments,1597.8999998569489,1599,1599.2999999523163,True,i,144765.79999995232,2116.7999999523163,1669830749221,2116,HRV,HRV_0085,2022-11-30 17:55:34
76,"[{'imgObject': {}, 'id': 'avocado', 'src': '/static/foodstim60/avocado.jpg', 'key': 'u', 'origWidth': 409, 'origHeight': 409, 'width': 409, 'height': 409, 'widthPercent': 0.45, 'rescaleHeight': False, 'trialN': 76, 'loaded': True, 'loadedTime': 6275.399999856949, 'positionName': 'LEFT', 'positionCoords': [221.72, 165], 'bid': 9.91}, {'imgObject': {}, 'id': 'steak', 'src': '/static/foodstim60/steak.jpg', 'key': 'i', 'origWidth': 410, 'origHeight': 410, 'width': 410, 'height': 410, 'widthPercent': 0.45, 'rescaleHeight': False, 'trialN': 76, 'loaded': True, 'loadedTime': 6137.200000047684, 'positionName': 'RIGHT', 'positionCoords': [683.28, 164.5], 'bid': 9.9}]",144766.20000004768,1669830749222,avocado,steak,9.91,9.9,-0.009999999999999787,steak,776.1999998092651,778,777.6999998092651,True,i,146063.5,1297.2999999523163,1669830750519,1297,HRV,HRV_0085,2022-11-30 17:55:34
77,"[{'imgObject': {}, 'id': 'burrito', 'src': '/static/foodstim60/burrito.jpg', 'key': 'u', 'origWidth': 410, 'origHeight': 410, 'width': 410, 'height': 410, 'widthPercent': 0.45, 'rescaleHeight': False, 'trialN': 77, 'loaded': True, 'loadedTime': 6100.599999904633, 'positionName': 'LEFT', 'positionCoords': [220.72, 164.5], 'bid': 9.94}, {'imgObject': {}, 'id': 'burger', 'src': '/static/foodstim60/burger.jpg', 'key': 'i', 'origWidth': 409, 'origHeight': 409, 'width': 409, 'height': 409, 'widthPercent': 0.45, 'rescaleHeight': False, 'trialN': 77, 'loaded': True, 'loadedTime': 6233.299999952316, 'positionName': 'RIGHT', 'positionCoords': [683.28, 165], 'bid': 9.97}]",146063.70000004768,1669830750519,burrito,burger,9.94,9.97,0.030000000000001137,burrito,1402.8999998569489,1411,1404.2999999523163,True,u,147981.20000004768,1917.5,1669830752443,1924,HRV,HRV_0085,2022-11-30 17:55:34
78,"[{'imgObject': {}, 'id': 'kiwi', 'src': '/static/foodstim60/kiwi.jpg', 'key': 'u', 'origWidth': 410, 'origHeight': 410, 'width': 410, 'height': 410, 'widthPercent': 0.45, 'rescaleHeight': False, 'trialN': 78, 'loaded': True, 'loadedTime': 6345.5, 'positionName': 'LEFT', 'positionCoords': [220.72, 164.5], 'bid': 7.92}, {'imgObject': {}, 'id': 'mango', 'src': '/static/foodstim60/mango.jpg', 'key': 'i', 'origWidth': 411, 'origHeight': 411, 'width': 411, 'height': 411, 'widthPercent': 0.45, 'rescaleHeight': False, 'trialN': 78, 'loaded': True, 'loadedTime': 5475.299999952316, 'positionName': 'RIGHT', 'positionCoords': [683.28, 164], 'bid': 5.98}]",147982.09999990463,1669830752444,kiwi,mango,7.92,5.98,-1.9399999999999995,kiwi,1695.7000000476837,1697,1697.1000001430511,True,u,150198.39999985695,2216.2999999523163,1669830754660,2216,HRV,HRV_0085,2022-11-30 17:55:34
79,"[{'imgObject': {}, 'id': 'fruitsalad', 'src': '/static/foodstim60/fruitsalad.jpg', 'key': 'u', 'origWidth': 410, 'origHeight': 410, 'width': 410, 'height': 410, 'widthPercent': 0.45, 'rescaleHeight': False, 'trialN': 79, 'loaded': True, 'loadedTime': 6349.5, 'positionName': 'LEFT', 'positionCoords': [220.72, 164.5], 'bid': 7.930000000000001}, {'imgObject': {}, 'id': 'rigatoni and sauce', 'src': '/static/foodstim60/rigatoni and sauce.jpg', 'key': 'i', 'origWidth': 410, 'origHeight': 411, 'width': 410, 'height': 411, 'widthPercent': 0.45, 'rescaleHeight': False, 'trialN': 79, 'loaded': True, 'loadedTime': 6202.399999856949, 'positionName': 'RIGHT', 'positionCoords': [683.28, 164], 'bid': 6.8500000000000005}]",150199.20000004768,1669830754661,fruitsalad,rigatoni and sauce,7.930000000000001,6.8500000000000005,-1.08,fruitsalad,933.6999998092651,936,935.3999998569489,True,u,151649.59999990463,1450.3999998569489,1669830756112,1451,HRV,HRV_0085,2022-11-30 17:55:34
80,"[{'imgObject': {}, 'id': 'strawberries', 'src': '/static/foodstim60/strawberries.jpg', 'key': 'u', 'origWidth': 410, 'origHeight': 410, 'width': 410, 'height': 410, 'widthPercent': 0.45, 'rescaleHeight': False, 'trialN': 80, 'loaded': True, 'loadedTime': 5966.5, 'positionName': 'LEFT', 'positionCoords': [220.72, 164.5], 'bid': 1.59}, {'imgObject': {}, 'id': 'froot loops w milk', 'src': '/static/foodstim60/froot loops w milk.jpg', 'key': 'i', 'origWidth': 410, 'origHeight': 410, 'width': 410, 'height': 410, 'widthPercent': 0.45, 'rescaleHeight': False, 'trialN': 80, 'loaded': True, 'loadedTime': 6306.200000047684, 'positionName': 'RIGHT', 'positionCoords': [683.28, 164.5], 'bid': 4.89}]",151650.5,1669830756112,strawberries,froot loops w milk,1.59,4.89,3.3,strawberries,1013.7000000476837,1015,1014.2000000476837,True,u,153180.09999990463,1529.5999999046326,1669830757642,1530,HRV,HRV_0085,2022-11-30 17:55:34
81,"[{'imgObject': {}, 'id': 'granola w milk', 'src': '/static/foodstim60/granola w milk.jpg', 'key': 'u', 'origWidth': 410, 'origHeight': 410, 'width': 410, 'height': 410, 'widthPercent': 0.45, 'rescaleHeight': False, 'trialN': 81, 'loaded': True, 'loadedTime': 6312.399999856949, 'positionName': 'LEFT', 'positionCoords': [220.72, 164.5], 'bid': 2.54}, {'imgObject': {}, 'id': 'apple slices', 'src': '/static/foodstim60/apple slices.jpg', 'key': 'i', 'origWidth': 409, 'origHeight': 410, 'width': 409, 'height': 410, 'widthPercent': 0.45, 'rescaleHeight': False, 'trialN': 81, 'loaded': True, 'loadedTime': 6171.399999856949, 'positionName': 'RIGHT', 'positionCoords': [683.28, 164.5], 'bid': 5.89}]",153180.89999985695,1669830757643,granola w milk,apple slices,2.54,5.89,3.3499999999999996,apple slices,1459.0,1460,1460.5,True,i,155148.0,1967.1000001430511,1669830759610,1967,HRV,HRV_0085,2022-11-30 17:55:34
82,"[{'imgObject': {}, 'id': 'avocado', 'src': '/static/foodstim60/avocado.jpg', 'key': 'u', 'origWidth': 409, 'origHeight': 409, 'width': 409, 'height': 409, 'widthPercent': 0.45, 'rescaleHeight': False, 'trialN': 82, 'loaded': True, 'loadedTime': 6276.5, 'positionName': 'LEFT', 'positionCoords': [221.72, 165], 'bid': 9.91}, {'imgObject': {}, 'id': 'bagel plain', 'src': '/static/foodstim60/bagel plain.jpg', 'key': 'i', 'origWidth': 410, 'origHeight': 410, 'width': 410, 'height': 410, 'widthPercent': 0.45, 'rescaleHeight': False, 'trialN': 82, 'loaded': True, 'loadedTime': 6284.599999904633, 'positionName': 'RIGHT', 'positionCoords': [683.28, 164.5], 'bid': 9.82}]",155148.39999985695,1669830759610,avocado,bagel plain,9.91,9.82,-0.08999999999999986,avocado,784.4000000953674,786,785.9000000953674,True,u,156438.39999985695,1290.0,1669830760900,1290,HRV,HRV_0085,2022-11-30 17:55:34
83,"[{'imgObject': {}, 'id': 'turkey sandwich', 'src': '/static/foodstim60/turkey sandwich.jpg', 'key': 'u', 'origWidth': 409, 'origHeight': 409, 'width': 409, 'height': 409, 'widthPercent': 0.45, 'rescaleHeight': False, 'trialN': 83, 'loaded': True, 'loadedTime': 6350.5, 'positionName': 'LEFT', 'positionCoords': [221.72, 165], 'bid': 9.91}, {'imgObject': {}, 'id': 'cocktailshrimp', 'src': '/static/foodstim60/cocktailshrimp.jpg', 'key': 'i', 'origWidth': 410, 'origHeight': 410, 'width': 410, 'height': 410, 'widthPercent': 0.45, 'rescaleHeight': False, 'trialN': 83, 'loaded': True, 'loadedTime': 5362.099999904633, 'positionName': 'RIGHT', 'positionCoords': [683.28, 164.5], 'bid': 9.76}]",156439.20000004768,1669830760901,turkey sandwich,cocktailshrimp,9.91,9.76,-0.15000000000000036,turkey sandwich,842.2999999523163,844,843.5999999046326,True,u,157792.5,1353.2999999523163,1669830762254,1353,HRV,HRV_0085,2022-11-30 17:55:34
84,"[{'imgObject': {}, 'id': 'pear', 'src': '/static/foodstim60/pear.jpg', 'key': 'u', 'origWidth': 411, 'origHeight': 410, 'width': 411, 'height': 410, 'widthPercent': 0.45, 'rescaleHeight': False, 'trialN': 84, 'loaded': True, 'loadedTime': 5643.799999952316, 'positionName': 'LEFT', 'positionCoords': [219.72, 164.5], 'bid': 5.89}, {'imgObject': {}, 'id': 'cherry tomato', 'src': '/static/foodstim60/cherry tomato.jpg', 'key': 'i', 'origWidth': 410, 'origHeight': 410, 'width': 410, 'height': 410, 'widthPercent': 0.45, 'rescaleHeight': False, 'trialN': 84, 'loaded': True, 'loadedTime': 6270.5, 'positionName': 'RIGHT', 'positionCoords': [683.28, 164.5], 'bid': 2.71}]",157792.89999985695,1669830762255,pear,cherry tomato,5.89,2.71,-3.1799999999999997,pear,1610.1000001430511,1611,1611.6000001430511,True,u,159908.89999985695,2116.0,1669830764371,2116,HRV,HRV_0085,2022-11-30 17:55:34
85,"[{'imgObject': {}, 'id': 'steak', 'src': '/static/foodstim60/steak.jpg', 'key': 'u', 'origWidth': 410, 'origHeight': 410, 'width': 410, 'height': 410, 'widthPercent': 0.45, 'rescaleHeight': False, 'trialN': 85, 'loaded': True, 'loadedTime': 6138.399999856949, 'positionName': 'LEFT', 'positionCoords': [220.72, 164.5], 'bid': 9.9}, {'imgObject': {}, 'id': 'olives', 'src': '/static/foodstim60/olives.jpg', 'key': 'i', 'origWidth': 410, 'origHeight': 410, 'width': 410, 'height': 410, 'widthPercent': 0.45, 'rescaleHeight': False, 'trialN': 85, 'loaded': True, 'loadedTime': 5904.399999856949, 'positionName': 'RIGHT', 'positionCoords': [683.28, 164.5], 'bid': 9.55}]",159909.70000004768,1669830764372,steak,olives,9.9,9.55,-0.34999999999999964,steak,805.5999999046326,807,807.1999998092651,True,u,161234.0,1324.2999999523163,1669830765696,1324,HRV,HRV_0085,2022-11-30 17:55:34
86,"[{'imgObject': {}, 'id': 'chickenfingers', 'src': '/static/foodstim60/chickenfingers.jpg', 'key': 'u', 'origWidth': 410, 'origHeight': 410, 'width': 410, 'height': 410, 'widthPercent': 0.45, 'rescaleHeight': False, 'trialN': 86, 'loaded': True, 'loadedTime': 6027.799999952316, 'positionName': 'LEFT', 'positionCoords': [220.72, 164.5], 'bid': 8.27}, {'imgObject': {}, 'id': 'fried eggs', 'src': '/static/foodstim60/fried eggs.jpg', 'key': 'i', 'origWidth': 410, 'origHeight': 410, 'width': 410, 'height': 410, 'widthPercent': 0.45, 'rescaleHeight': False, 'trialN': 86, 'loaded': True, 'loadedTime': 6209.099999904633, 'positionName': 'RIGHT', 'positionCoords': [683.28, 164.5], 'bid': 9.7}]",161234.79999995232,1669830765697,chickenfingers,fried eggs,8.27,9.7,1.4299999999999997,fried eggs,1691.5,1693,1692.9000000953674,True,i,163440.39999985695,2205.5999999046326,1669830767902,2205,HRV,HRV_0085,2022-11-30 17:55:34
87,"[{'imgObject': {}, 'id': 'mashed potato', 'src': '/static/foodstim60/mashed potato.jpg', 'key': 'u', 'origWidth': 409, 'origHeight': 409, 'width': 409, 'height': 409, 'widthPercent': 0.45, 'rescaleHeight': False, 'trialN': 87, 'loaded': True, 'loadedTime': 6310, 'positionName': 'LEFT', 'positionCoords': [221.72, 165], 'bid': 5.91}, {'imgObject': {}, 'id': 'burrito', 'src': '/static/foodstim60/burrito.jpg', 'key': 'i', 'origWidth': 410, 'origHeight': 410, 'width': 410, 'height': 410, 'widthPercent': 0.45, 'rescaleHeight': False, 'trialN': 87, 'loaded': True, 'loadedTime': 6101.299999952316, 'positionName': 'RIGHT', 'positionCoords': [683.28, 164.5], 'bid': 9.94}]",163441.29999995232,1669830767903,mashed potato,burrito,5.91,9.94,4.029999999999999,burrito,1188.2000000476837,1190,1189.7000000476837,True,i,165147.79999995232,1706.5,1669830769610,1707,HRV,HRV_0085,2022-11-30 17:55:34
88,"[{'imgObject': {}, 'id': 'kiwi', 'src': '/static/foodstim60/kiwi.jpg', 'key': 'u', 'origWidth': 410, 'origHeight': 410, 'width': 410, 'height': 410, 'widthPercent': 0.45, 'rescaleHeight': False, 'trialN': 88, 'loaded': True, 'loadedTime': 6345.899999856949, 'positionName': 'LEFT', 'positionCoords': [220.72, 164.5], 'bid': 7.92}, {'imgObject': {}, 'id': 'hotdog w must', 'src': '/static/foodstim60/hotdog w must.jpg', 'key': 'i', 'origWidth': 409, 'origHeight': 409, 'width': 409, 'height': 409, 'widthPercent': 0.45, 'rescaleHeight': False, 'trialN': 88, 'loaded': True, 'loadedTime': 6278.799999952316, 'positionName': 'RIGHT', 'positionCoords': [683.28, 165], 'bid': 9.91}]",165149.0,1669830769611,kiwi,hotdog w must,7.92,9.91,1.9900000000000002,kiwi,1457.2000000476837,1461,1460.7999999523163,True,u,167116.0,1967.0,1669830771578,1967,HRV,HRV_0085,2022-11-30 17:55:34
89,"[{'imgObject': {}, 'id': 'pear', 'src': '/static/foodstim60/pear.jpg', 'key': 'u', 'origWidth': 411, 'origHeight': 410, 'width': 411, 'height': 410, 'widthPercent': 0.45, 'rescaleHeight': False, 'trialN': 89, 'loaded': True, 'loadedTime': 5685, 'positionName': 'LEFT', 'positionCoords': [219.72, 164.5], 'bid': 5.89}, {'imgObject': {}, 'id': 'grilled chicken strips', 'src': '/static/foodstim60/grilled chicken strips.jpg', 'key': 'i', 'origWidth': 410, 'origHeight': 411, 'width': 410, 'height': 411, 'widthPercent': 0.45, 'rescaleHeight': False, 'trialN': 89, 'loaded': True, 'loadedTime': 5932.899999856949, 'positionName': 'RIGHT', 'positionCoords': [683.28, 164], 'bid': 7.81}]",167116.39999985695,1669830771578,pear,grilled chicken strips,5.89,7.81,1.92,grilled chicken strips,1216.0,1218,1217.6000001430511,True,i,168845.59999990463,1729.2000000476837,1669830773307,1729,HRV,HRV_0085,2022-11-30 17:55:34
90,"[{'imgObject': {}, 'id': 'apple slices', 'src': '/static/foodstim60/apple slices.jpg', 'key': 'u', 'origWidth': 409, 'origHeight': 410, 'width': 409, 'height': 410, 'widthPercent': 0.45, 'rescaleHeight': False, 'trialN': 90, 'loaded': True, 'loadedTime': 6174.099999904633, 'positionName': 'LEFT', 'positionCoords': [221.72, 164.5], 'bid': 5.89}, {'imgObject': {}, 'id': 'turkeysandwich', 'src': '/static/foodstim60/turkeysandwich.jpg', 'key': 'i', 'origWidth': 409, 'origHeight': 409, 'width': 409, 'height': 409, 'widthPercent': 0.45, 'rescaleHeight': False, 'trialN': 90, 'loaded': True, 'loadedTime': 5840.599999904633, 'positionName': 'RIGHT', 'positionCoords': [683.28, 165], 'bid': 7.8}]",174879.79999995232,1669830779342,apple slices,turkeysandwich,5.89,7.8,1.9100000000000001,turkeysandwich,2073.0,2075,2074.9000000953674,True,i,177460.39999985695,2580.5999999046326,1669830781922,2580,HRV,HRV_0085,2022-11-30 17:55:34
91,"[{'imgObject': {}, 'id': 'blackbeanswithrice', 'src': '/static/foodstim60/blackbeanswithrice.jpg', 'key': 'u', 'origWidth': 410, 'origHeight': 410, 'width': 410, 'height': 410, 'widthPercent': 0.45, 'rescaleHeight': False, 'trialN': 91, 'loaded': True, 'loadedTime': 5418.5, 'positionName': 'LEFT', 'positionCoords': [220.72, 164.5], 'bid': 1.33}, {'imgObject': {}, 'id': 'salad w chicken', 'src': '/static/foodstim60/salad w chicken.jpg', 'key': 'i', 'origWidth': 411, 'origHeight': 411, 'width': 411, 'height': 411, 'widthPercent': 0.45, 'rescaleHeight': False, 'trialN': 91, 'loaded': True, 'loadedTime': 6166.599999904633, 'positionName': 'RIGHT', 'positionCoords': [683.28, 164], 'bid': 7.9}]",177461.20000004768,1669830781923,blackbeanswithrice,salad w chicken,1.33,7.9,6.57,salad w chicken,1218.2999999523163,1219,1218.8999998569489,True,i,179183.70000004768,1722.5,1669830783646,1723,HRV,HRV_0085,2022-11-30 17:55:34
92,"[{'imgObject': {}, 'id': 'rigatoni and sauce', 'src': '/static/foodstim60/rigatoni and sauce.jpg', 'key': 'u', 'origWidth': 410, 'origHeight': 411, 'width': 410, 'height': 411, 'widthPercent': 0.45, 'rescaleHeight': False, 'trialN': 92, 'loaded': True, 'loadedTime': 6203.599999904633, 'positionName': 'LEFT', 'positionCoords': [220.72, 164], 'bid': 6.8500000000000005}, {'imgObject': {}, 'id': 'mango', 'src': '/static/foodstim60/mango.jpg', 'key': 'i', 'origWidth': 411, 'origHeight': 411, 'width': 411, 'height': 411, 'widthPercent': 0.45, 'rescaleHeight': False, 'trialN': 92, 'loaded': True, 'loadedTime': 5447.599999904633, 'positionName': 'RIGHT', 'positionCoords': [683.28, 164], 'bid': 5.98}]",179184.79999995232,1669830783647,rigatoni and sauce,mango,6.8500000000000005,5.98,-0.8700000000000001,rigatoni and sauce,1244.9000000953674,1247,1246.7999999523163,True,u,180945.70000004768,1760.9000000953674,1669830785408,1761,HRV,HRV_0085,2022-11-30 17:55:34
93,"[{'imgObject': {}, 'id': 'chicken nuggets2', 'src': '/static/foodstim60/chicken nuggets2.jpg', 'key': 'u', 'origWidth': 410, 'origHeight': 409, 'width': 410, 'height': 409, 'widthPercent': 0.45, 'rescaleHeight': False, 'trialN': 93, 'loaded': True, 'loadedTime': 6171.299999952316, 'positionName': 'LEFT', 'positionCoords': [220.72, 165], 'bid': 7.140000000000001}, {'imgObject': {}, 'id': 'cocktailshrimp', 'src': '/static/foodstim60/cocktailshrimp.jpg', 'key': 'i', 'origWidth': 410, 'origHeight': 410, 'width': 410, 'height': 410, 'widthPercent': 0.45, 'rescaleHeight': False, 'trialN': 93, 'loaded': True, 'loadedTime': 5360, 'positionName': 'RIGHT', 'positionCoords': [683.28, 164.5], 'bid': 9.76}]",180946.5,1669830785408,chicken nuggets2,cocktailshrimp,7.140000000000001,9.76,2.619999999999999,cocktailshrimp,1430.8999998569489,1433,1432.2999999523163,True,i,182884.70000004768,1938.2000000476837,1669830787347,1939,HRV,HRV_0085,2022-11-30 17:55:34
94,"[{'imgObject': {}, 'id': 'kiwi', 'src': '/static/foodstim60/kiwi.jpg', 'key': 'u', 'origWidth': 410, 'origHeight': 410, 'width': 410, 'height': 410, 'widthPercent': 0.45, 'rescaleHeight': False, 'trialN': 94, 'loaded': True, 'loadedTime': 6346.299999952316, 'positionName': 'LEFT', 'positionCoords': [220.72, 164.5], 'bid': 7.92}, {'imgObject': {}, 'id': 'sushi w_condiments', 'src': '/static/foodstim60/sushi w_condiments.jpg', 'key': 'i', 'origWidth': 410, 'origHeight': 410, 'width': 410, 'height': 410, 'widthPercent': 0.45, 'rescaleHeight': False, 'trialN': 94, 'loaded': True, 'loadedTime': 5304.799999952316, 'positionName': 'RIGHT', 'positionCoords': [683.28, 164.5], 'bid': 9.71}]",182885.5,1669830787347,kiwi,sushi w_condiments,7.92,9.71,1.790000000000001,sushi w_condiments,1836.5999999046326,1838,1837.7999999523163,True,i,185226.79999995232,2341.2999999523163,1669830789689,2342,HRV,HRV_0085,2022-11-30 17:55:34
95,"[{'imgObject': {}, 'id': 'grilled chicken strips', 'src': '/static/foodstim60/grilled chicken strips.jpg', 'key': 'u', 'origWidth': 410, 'origHeight': 411, 'width': 410, 'height': 411, 'widthPercent': 0.45, 'rescaleHeight': False, 'trialN': 95, 'loaded': True, 'loadedTime': 5934.799999952316, 'positionName': 'LEFT', 'positionCoords': [220.72, 164], 'bid': 7.81}, {'imgObject': {}, 'id': 'kiwi', 'src': '/static/foodstim60/kiwi.jpg', 'key': 'i', 'origWidth': 410, 'origHeight': 410, 'width': 410, 'height': 410, 'widthPercent': 0.45, 'rescaleHeight': False, 'trialN': 95, 'loaded': True, 'loadedTime': 6346.5, 'positionName': 'RIGHT', 'positionCoords': [683.28, 164.5], 'bid': 7.92}]",185227.70000004768,1669830789690,grilled chicken strips,kiwi,7.81,7.92,0.11000000000000032,grilled chicken strips,1495.0999999046326,1496,1496.1999998092651,True,u,187229.20000004768,2001.5,1669830791691,2001,HRV,HRV_0085,2022-11-30 17:55:34
96,"[{'imgObject': {}, 'id': 'baked potato', 'src': '/static/foodstim60/baked potato.jpg', 'key': 'u', 'origWidth': 409, 'origHeight': 410, 'width': 409, 'height': 410, 'widthPercent': 0.45, 'rescaleHeight': False, 'trialN': 96, 'loaded': True, 'loadedTime': 6129.799999952316, 'positionName': 'LEFT', 'positionCoords': [221.72, 164.5], 'bid': 0.08}, {'imgObject': {}, 'id': 'banana', 'src': '/static/foodstim60/banana.jpg', 'key': 'i', 'origWidth': 410, 'origHeight': 410, 'width': 410, 'height': 410, 'widthPercent': 0.45, 'rescaleHeight': False, 'trialN': 96, 'loaded': True, 'loadedTime': 5393, 'positionName': 'RIGHT', 'positionCoords': [683.28, 164.5], 'bid': 0.12}]",187230.09999990463,1669830791692,baked potato,banana,0.08,0.12,0.039999999999999994,banana,1728.6000001430511,1730,1730.2999999523163,True,i,189478.09999990463,2248.0,1669830793940,2248,HRV,HRV_0085,2022-11-30 17:55:34
97,"[{'imgObject': {}, 'id': 'chickenfingers', 'src': '/static/foodstim60/chickenfingers.jpg', 'key': 'u', 'origWidth': 410, 'origHeight': 410, 'width': 410, 'height': 410, 'widthPercent': 0.45, 'rescaleHeight': False, 'trialN': 97, 'loaded': True, 'loadedTime': 6037.599999904633, 'positionName': 'LEFT', 'positionCoords': [220.72, 164.5], 'bid': 8.27}, {'imgObject': {}, 'id': 'corn cob', 'src': '/static/foodstim60/corn cob.jpg', 'key': 'i', 'origWidth': 411, 'origHeight': 411, 'width': 411, 'height': 411, 'widthPercent': 0.45, 'rescaleHeight': False, 'trialN': 97, 'loaded': True, 'loadedTime': 6360, 'positionName': 'RIGHT', 'positionCoords': [683.28, 164], 'bid': 9.77}]",189478.79999995232,1669830793941,chickenfingers,corn cob,8.27,9.77,1.5,chickenfingers,1361.2999999523163,1362,1362.2000000476837,True,u,191346.89999985695,1868.0999999046326,1669830795809,1868,HRV,HRV_0085,2022-11-30 17:55:34
98,"[{'imgObject': {}, 'id': 'kiwi', 'src': '/static/foodstim60/kiwi.jpg', 'key': 'u', 'origWidth': 410, 'origHeight': 410, 'width': 410, 'height': 410, 'widthPercent': 0.45, 'rescaleHeight': False, 'trialN': 98, 'loaded': True, 'loadedTime': 6318.399999856949, 'positionName': 'LEFT', 'positionCoords': [220.72, 164.5], 'bid': 7.92}, {'imgObject': {}, 'id': 'fruitsalad', 'src': '/static/foodstim60/fruitsalad.jpg', 'key': 'i', 'origWidth': 410, 'origHeight': 410, 'width': 410, 'height': 410, 'widthPercent': 0.45, 'rescaleHeight': False, 'trialN': 98, 'loaded': True, 'loadedTime': 6349.700000047684, 'positionName': 'RIGHT', 'positionCoords': [683.28, 164.5], 'bid': 7.930000000000001}]",191347.0,1669830795809,kiwi,fruitsalad,7.92,7.930000000000001,0.010000000000000675,fruitsalad,899.5999999046326,900,900.2000000476837,True,i,192767.29999995232,1420.2999999523163,1669830797229,1420,HRV,HRV_0085,2022-11-30 17:55:34
99,"[{'imgObject': {}, 'id': 'bagel plain', 'src': '/static/foodstim60/bagel plain.jpg', 'key': 'u', 'origWidth': 410, 'origHeight': 410, 'width': 410, 'height': 410, 'widthPercent': 0.45, 'rescaleHeight': False, 'trialN': 99, 'loaded': True, 'loadedTime': 6284.299999952316, 'positionName': 'LEFT', 'positionCoords': [220.72, 164.5], 'bid': 9.82}, {'imgObject': {}, 'id': 'cherries', 'src': '/static/foodstim60/cherries.jpg', 'key': 'i', 'origWidth': 410, 'origHeight': 411, 'width': 410, 'height': 411, 'widthPercent': 0.45, 'rescaleHeight': False, 'trialN': 99, 'loaded': True, 'loadedTime': 5767.799999952316, 'positionName': 'RIGHT', 'positionCoords': [683.28, 164], 'bid': 7.63}]",192768.09999990463,1669830797230,bagel plain,cherries,9.82,7.63,-2.1900000000000004,bagel plain,1485.2999999523163,1486,1486.4000000953674,True,u,194772.39999985695,2004.2999999523163,1669830799234,2004,HRV,HRV_0085,2022-11-30 17:55:34
100,"[{'imgObject': {}, 'id': 'Tribe humus pita', 'src': '/static/foodstim60/Tribe humus pita.jpg', 'key': 'u', 'origWidth': 411, 'origHeight': 411, 'width': 411, 'height': 411, 'widthPercent': 0.45, 'rescaleHeight': False, 'trialN': 100, 'loaded': True, 'loadedTime': 6134.899999856949, 'positionName': 'LEFT', 'positionCoords': [219.72, 164], 'bid': 7.0200000000000005}, {'imgObject': {}, 'id': 'shreddedwheatwithmilk', 'src': '/static/foodstim60/shreddedwheatwithmilk.jpg', 'key': 'i', 'origWidth': 410, 'origHeight': 410, 'width': 410, 'height': 410, 'widthPercent': 0.45, 'rescaleHeight': False, 'trialN': 100, 'loaded': True, 'loadedTime': 5613.5, 'positionName': 'RIGHT', 'positionCoords': [683.28, 164.5], 'bid': 5.24}]",194773.70000004768,1669830799236,Tribe humus pita,shreddedwheatwithmilk,7.0200000000000005,5.24,-1.7800000000000002,Tribe humus pita,1183.0999999046326,1184,1183.7999999523163,True,u,196469.79999995232,1696.0999999046326,1669830800932,1696,HRV,HRV_0085,2022-11-30 17:55:34
101,"[{'imgObject': {}, 'id': 'granola w milk', 'src': '/static/foodstim60/granola w milk.jpg', 'key': 'u', 'origWidth': 410, 'origHeight': 410, 'width': 410, 'height': 410, 'widthPercent': 0.45, 'rescaleHeight': False, 'trialN': 101, 'loaded': True, 'loadedTime': 6314.899999856949, 'positionName': 'LEFT', 'positionCoords': [220.72, 164.5], 'bid': 2.54}, {'imgObject': {}, 'id': 'roastedpotatoes', 'src': '/static/foodstim60/roastedpotatoes.jpg', 'key': 'i', 'origWidth': 409, 'origHeight': 410, 'width': 409, 'height': 410, 'widthPercent': 0.45, 'rescaleHeight': False, 'trialN': 101, 'loaded': True, 'loadedTime': 5480.899999856949, 'positionName': 'RIGHT', 'positionCoords': [683.28, 164.5], 'bid': 0.66}]",196470.79999995232,1669830800933,granola w milk,roastedpotatoes,2.54,0.66,-1.88,granola w milk,1083.0999999046326,1085,1084.7999999523163,True,u,198067.09999990463,1596.2999999523163,1669830802529,1596,HRV,HRV_0085,2022-11-30 17:55:34
102,"[{'imgObject': {}, 'id': 'raspberries', 'src': '/static/foodstim60/raspberries.jpg', 'key': 'u', 'origWidth': 411, 'origHeight': 411, 'width': 411, 'height': 411, 'widthPercent': 0.45, 'rescaleHeight': False, 'trialN': 102, 'loaded': True, 'loadedTime': 5444.599999904633, 'positionName': 'LEFT', 'positionCoords': [219.72, 164], 'bid': 4.3100000000000005}, {'imgObject': {}, 'id': 'cantaloupe', 'src': '/static/foodstim60/cantaloupe.jpg', 'key': 'i', 'origWidth': 409, 'origHeight': 409, 'width': 409, 'height': 409, 'widthPercent': 0.45, 'rescaleHeight': False, 'trialN': 102, 'loaded': True, 'loadedTime': 6272.599999904633, 'positionName': 'RIGHT', 'positionCoords': [683.28, 165], 'bid': 3.34}]",198067.70000004768,1669830802530,raspberries,cantaloupe,4.3100000000000005,3.34,-0.9700000000000006,raspberries,1029.1999998092651,1030,1030.5,True,u,199604.39999985695,1536.6999998092651,1669830804066,1536,HRV,HRV_0085,2022-11-30 17:55:34
103,"[{'imgObject': {}, 'id': 'popsicles', 'src': '/static/foodstim60/popsicles.jpg', 'key': 'u', 'origWidth': 410, 'origHeight': 410, 'width': 410, 'height': 410, 'widthPercent': 0.45, 'rescaleHeight': False, 'trialN': 103, 'loaded': True, 'loadedTime': 6364.899999856949, 'positionName': 'LEFT', 'positionCoords': [220.72, 164.5], 'bid': 4.74}, {'imgObject': {}, 'id': 'banana', 'src': '/static/foodstim60/banana.jpg', 'key': 'i', 'origWidth': 410, 'origHeight': 410, 'width': 410, 'height': 410, 'widthPercent': 0.45, 'rescaleHeight': False, 'trialN': 103, 'loaded': True, 'loadedTime': 5393.5, 'positionName': 'RIGHT', 'positionCoords': [683.28, 164.5], 'bid': 0.12}]",199605.39999985695,1669830804067,popsicles,banana,4.74,0.12,-4.62,popsicles,1430.8000001907349,1433,1432.2000000476837,True,u,201542.20000004768,1936.8000001907349,1669830806004,1937,HRV,HRV_0085,2022-11-30 17:55:34
104,"[{'imgObject': {}, 'id': 'yogurt no spoon', 'src': '/static/foodstim60/yogurt no spoon.jpg', 'key': 'u', 'origWidth': 411, 'origHeight': 410, 'width': 411, 'height': 410, 'widthPercent': 0.45, 'rescaleHeight': False, 'trialN': 104, 'loaded': True, 'loadedTime': 6070.5, 'positionName': 'LEFT', 'positionCoords': [219.72, 164.5], 'bid': 2.38}, {'imgObject': {}, 'id': 'blueberries', 'src': '/static/foodstim60/blueberries.jpg', 'key': 'i', 'origWidth': 411, 'origHeight': 411, 'width': 411, 'height': 411, 'widthPercent': 0.45, 'rescaleHeight': False, 'trialN': 104, 'loaded': True, 'loadedTime': 6310.200000047684, 'positionName': 'RIGHT', 'positionCoords': [683.28, 164], 'bid': 4.95}]",201543.0,1669830806005,yogurt no spoon,blueberries,2.38,4.95,2.5700000000000003,yogurt no spoon,1601.0999999046326,1603,1602.5,True,u,203663.29999995232,2120.2999999523163,1669830808125,2120,HRV,HRV_0085,2022-11-30 17:55:34
105,"[{'imgObject': {}, 'id': 'grilled chicken strips', 'src': '/static/foodstim60/grilled chicken strips.jpg', 'key': 'u', 'origWidth': 410, 'origHeight': 411, 'width': 410, 'height': 411, 'widthPercent': 0.45, 'rescaleHeight': False, 'trialN': 105, 'loaded': True, 'loadedTime': 5933.299999952316, 'positionName': 'LEFT', 'positionCoords': [220.72, 164], 'bid': 7.81}, {'imgObject': {}, 'id': 'salad w chicken', 'src': '/static/foodstim60/salad w chicken.jpg', 'key': 'i', 'origWidth': 411, 'origHeight': 411, 'width': 411, 'height': 411, 'widthPercent': 0.45, 'rescaleHeight': False, 'trialN': 105, 'loaded': True, 'loadedTime': 6140.799999952316, 'positionName': 'RIGHT', 'positionCoords': [683.28, 164], 'bid': 7.9}]",203664.5,1669830808126,grilled chicken strips,salad w chicken,7.81,7.9,0.09000000000000075,salad w chicken,1013.0,1015,1014.5,True,i,205198.20000004768,1533.7000000476837,1669830809660,1534,HRV,HRV_0085,2022-11-30 17:55:34
106,"[{'imgObject': {}, 'id': 'salad w chicken', 'src': '/static/foodstim60/salad w chicken.jpg', 'key': 'u', 'origWidth': 411, 'origHeight': 411, 'width': 411, 'height': 411, 'widthPercent': 0.45, 'rescaleHeight': False, 'trialN': 106, 'loaded': True, 'loadedTime': 6166.799999952316, 'positionName': 'LEFT', 'positionCoords': [219.72, 164], 'bid': 7.9}, {'imgObject': {}, 'id': 'fruitsalad', 'src': '/static/foodstim60/fruitsalad.jpg', 'key': 'i', 'origWidth': 410, 'origHeight': 410, 'width': 410, 'height': 410, 'widthPercent': 0.45, 'rescaleHeight': False, 'trialN': 106, 'loaded': True, 'loadedTime': 6346.700000047684, 'positionName': 'RIGHT', 'positionCoords': [683.28, 164.5], 'bid': 7.930000000000001}]",205199.0,1669830809661,salad w chicken,fruitsalad,7.9,7.930000000000001,0.03000000000000025,salad w chicken,1662.2999999523163,1664,1663.5999999046326,True,u,207370.39999985695,2171.399999856949,1669830811832,2171,HRV,HRV_0085,2022-11-30 17:55:34
107,"[{'imgObject': {}, 'id': 'fried eggs', 'src': '/static/foodstim60/fried eggs.jpg', 'key': 'u', 'origWidth': 410, 'origHeight': 410, 'width': 410, 'height': 410, 'widthPercent': 0.45, 'rescaleHeight': False, 'trialN': 107, 'loaded': True, 'loadedTime': 6208.899999856949, 'positionName': 'LEFT', 'positionCoords': [220.72, 164.5], 'bid': 9.7}, {'imgObject': {}, 'id': 'raspberries', 'src': '/static/foodstim60/raspberries.jpg', 'key': 'i', 'origWidth': 411, 'origHeight': 411, 'width': 411, 'height': 411, 'widthPercent': 0.45, 'rescaleHeight': False, 'trialN': 107, 'loaded': True, 'loadedTime': 5418.899999856949, 'positionName': 'RIGHT', 'positionCoords': [683.28, 164], 'bid': 4.3100000000000005}]",207371.79999995232,1669830811834,fried eggs,raspberries,9.7,4.3100000000000005,-5.389999999999999,fried eggs,1000.5,999,1001.9000000953674,True,u,208876.09999990463,1504.2999999523163,1669830813335,1501,HRV,HRV_0085,2022-11-30 17:55:34
