trialN,stimuli,trialStartTime,trialStartTime_UNIX,stimulus1,stimulus2,stimulus1Bid,stimulus2Bid,delta,selected,rt,rt_UNIX,rt_perfnow,receivedResponse,rsp,trialEndTime,trialDuration,trialEndTime_UNIX,trialDuration_UNIX,exp,subjectId,date
0,"[{'imgObject': {}, 'id': 'chicken nuggets2', 'src': '/static/foodstim60/chicken nuggets2.jpg', 'key': 'u', 'origWidth': 410, 'origHeight': 409, 'width': 410, 'height': 409, 'widthPercent': 0.45, 'rescaleHeight': False, 'trialN': 0, 'loaded': True, 'loadedTime': 3619, 'positionName': 'LEFT', 'positionCoords': [511.6, 335.5], 'bid': 7.85}, {'imgObject': {}, 'id': 'cheerios', 'src': '/static/foodstim60/cheerios.jpg', 'key': 'i', 'origWidth': 409, 'origHeight': 410, 'width': 409, 'height': 410, 'widthPercent': 0.45, 'rescaleHeight': False, 'trialN': 0, 'loaded': True, 'loadedTime': 3620, 'positionName': 'RIGHT', 'positionCoords': [998.4, 335], 'bid': 7.76}]",3746,1669830179765,chicken nuggets2,cheerios,7.85,7.76,-0.08999999999999986,chicken nuggets2,1080,1095,1096,True,u,5346,1600,1669830181365,1600,HRV,HRV_0118,2022-11-30 17:46:59
1,"[{'imgObject': {}, 'id': 'sweetpotato', 'src': '/static/foodstim60/sweetpotato.jpg', 'key': 'u', 'origWidth': 410, 'origHeight': 410, 'width': 410, 'height': 410, 'widthPercent': 0.45, 'rescaleHeight': False, 'trialN': 1, 'loaded': True, 'loadedTime': 3622, 'positionName': 'LEFT', 'positionCoords': [511.6, 335], 'bid': 9.08}, {'imgObject': {}, 'id': 'fried eggs', 'src': '/static/foodstim60/fried eggs.jpg', 'key': 'i', 'origWidth': 410, 'origHeight': 410, 'width': 410, 'height': 410, 'widthPercent': 0.45, 'rescaleHeight': False, 'trialN': 1, 'loaded': True, 'loadedTime': 3624, 'positionName': 'RIGHT', 'positionCoords': [998.4, 335], 'bid': 3.5700000000000003}]",5347,1669830181366,sweetpotato,fried eggs,9.08,3.5700000000000003,-5.51,sweetpotato,839,842,842,True,u,6698,1351,1669830182717,1351,HRV,HRV_0118,2022-11-30 17:46:59
2,"[{'imgObject': {}, 'id': 'fried eggs', 'src': '/static/foodstim60/fried eggs.jpg', 'key': 'u', 'origWidth': 410, 'origHeight': 410, 'width': 410, 'height': 410, 'widthPercent': 0.45, 'rescaleHeight': False, 'trialN': 2, 'loaded': True, 'loadedTime': 3625, 'positionName': 'LEFT', 'positionCoords': [511.6, 335], 'bid': 3.5700000000000003}, {'imgObject': {}, 'id': 'avocado', 'src': '/static/foodstim60/avocado.jpg', 'key': 'i', 'origWidth': 409, 'origHeight': 409, 'width': 409, 'height': 409, 'widthPercent': 0.45, 'rescaleHeight': False, 'trialN': 2, 'loaded': True, 'loadedTime': 3625, 'positionName': 'RIGHT', 'positionCoords': [998.4, 335.5], 'bid': 2.67}]",6699,1669830182717,fried eggs,avocado,3.5700000000000003,2.67,-0.9000000000000004,avocado,737,749,748,True,i,7959,1260,1669830183978,1261,HRV,HRV_0118,2022-11-30 17:46:59
3,"[{'imgObject': {}, 'id': 'bagel plain', 'src': '/static/foodstim60/bagel plain.jpg', 'key': 'u', 'origWidth': 410, 'origHeight': 410, 'width': 410, 'height': 410, 'widthPercent': 0.45, 'rescaleHeight': False, 'trialN': 3, 'loaded': True, 'loadedTime': 3627, 'positionName': 'LEFT', 'positionCoords': [511.6, 335], 'bid': 6.16}, {'imgObject': {}, 'id': 'eggsalad', 'src': '/static/foodstim60/eggsalad.jpg', 'key': 'i', 'origWidth': 410, 'origHeight': 409, 'width': 410, 'height': 409, 'widthPercent': 0.45, 'rescaleHeight': False, 'trialN': 3, 'loaded': True, 'loadedTime': 3627, 'positionName': 'RIGHT', 'positionCoords': [998.4, 335.5], 'bid': 0.11}]",7959,1669830183979,bagel plain,eggsalad,6.16,0.11,-6.05,bagel plain,695,701,702,True,u,9177,1218,1669830185196,1217,HRV,HRV_0118,2022-11-30 17:46:59
4,"[{'imgObject': {}, 'id': 'blackbeanswithrice', 'src': '/static/foodstim60/blackbeanswithrice.jpg', 'key': 'u', 'origWidth': 410, 'origHeight': 410, 'width': 410, 'height': 410, 'widthPercent': 0.45, 'rescaleHeight': False, 'trialN': 4, 'loaded': True, 'loadedTime': 3629, 'positionName': 'LEFT', 'positionCoords': [511.6, 335], 'bid': 5.01}, {'imgObject': {}, 'id': 'baked potato', 'src': '/static/foodstim60/baked potato.jpg', 'key': 'i', 'origWidth': 409, 'origHeight': 410, 'width': 409, 'height': 410, 'widthPercent': 0.45, 'rescaleHeight': False, 'trialN': 4, 'loaded': True, 'loadedTime': 3631, 'positionName': 'RIGHT', 'positionCoords': [998.4, 335], 'bid': 9.12}]",9177,1669830185196,blackbeanswithrice,baked potato,5.01,9.12,4.109999999999999,baked potato,758,765,766,True,i,10451,1274,1669830186470,1274,HRV,HRV_0118,2022-11-30 17:46:59
5,"[{'imgObject': {}, 'id': 'turkey sandwich', 'src': '/static/foodstim60/turkey sandwich.jpg', 'key': 'u', 'origWidth': 409, 'origHeight': 409, 'width': 409, 'height': 409, 'widthPercent': 0.45, 'rescaleHeight': False, 'trialN': 5, 'loaded': True, 'loadedTime': 3632, 'positionName': 'LEFT', 'positionCoords': [512.6, 335.5], 'bid': 8.1}, {'imgObject': {}, 'id': 'apple slices', 'src': '/static/foodstim60/apple slices.jpg', 'key': 'i', 'origWidth': 409, 'origHeight': 410, 'width': 409, 'height': 410, 'widthPercent': 0.45, 'rescaleHeight': False, 'trialN': 5, 'loaded': True, 'loadedTime': 3634, 'positionName': 'RIGHT', 'positionCoords': [998.4, 335], 'bid': 8.21}]",10451,1669830186470,turkey sandwich,apple slices,8.1,8.21,0.11000000000000121,turkey sandwich,655,661,661,True,u,11615,1164,1669830187634,1164,HRV,HRV_0118,2022-11-30 17:46:59
6,"[{'imgObject': {}, 'id': 'Grapes', 'src': '/static/foodstim60/Grapes.jpg', 'key': 'u', 'origWidth': 411, 'origHeight': 411, 'width': 411, 'height': 411, 'widthPercent': 0.45, 'rescaleHeight': False, 'trialN': 6, 'loaded': True, 'loadedTime': 3634, 'positionName': 'LEFT', 'positionCoords': [510.6, 334.5], 'bid': 9.1}, {'imgObject': {}, 'id': 'sweetpotato', 'src': '/static/foodstim60/sweetpotato.jpg', 'key': 'i', 'origWidth': 410, 'origHeight': 410, 'width': 410, 'height': 410, 'widthPercent': 0.45, 'rescaleHeight': False, 'trialN': 6, 'loaded': True, 'loadedTime': 3623, 'positionName': 'RIGHT', 'positionCoords': [998.4, 335], 'bid': 9.08}]",11616,1669830187634,Grapes,sweetpotato,9.1,9.08,-0.019999999999999574,Grapes,616,624,624,True,u,12741,1125,1669830188760,1126,HRV,HRV_0118,2022-11-30 17:46:59
7,"[{'imgObject': {}, 'id': 'roastedpotatoes', 'src': '/static/foodstim60/roastedpotatoes.jpg', 'key': 'u', 'origWidth': 409, 'origHeight': 410, 'width': 409, 'height': 410, 'widthPercent': 0.45, 'rescaleHeight': False, 'trialN': 7, 'loaded': True, 'loadedTime': 3637, 'positionName': 'LEFT', 'positionCoords': [512.6, 335], 'bid': 9.23}, {'imgObject': {}, 'id': 'banana', 'src': '/static/foodstim60/banana.jpg', 'key': 'i', 'origWidth': 410, 'origHeight': 410, 'width': 410, 'height': 410, 'widthPercent': 0.45, 'rescaleHeight': False, 'trialN': 7, 'loaded': True, 'loadedTime': 3638, 'positionName': 'RIGHT', 'positionCoords': [998.4, 335], 'bid': 9}]",12741,1669830188760,roastedpotatoes,banana,9.23,9.0,-0.23000000000000043,banana,662,669,669,True,i,13913,1172,1669830189932,1172,HRV,HRV_0118,2022-11-30 17:46:59
8,"[{'imgObject': {}, 'id': 'burger', 'src': '/static/foodstim60/burger.jpg', 'key': 'u', 'origWidth': 409, 'origHeight': 409, 'width': 409, 'height': 409, 'widthPercent': 0.45, 'rescaleHeight': False, 'trialN': 8, 'loaded': True, 'loadedTime': 3639, 'positionName': 'LEFT', 'positionCoords': [512.6, 335.5], 'bid': 9.39}, {'imgObject': {}, 'id': 'turkeysandwich', 'src': '/static/foodstim60/turkeysandwich.jpg', 'key': 'i', 'origWidth': 409, 'origHeight': 409, 'width': 409, 'height': 409, 'widthPercent': 0.45, 'rescaleHeight': False, 'trialN': 8, 'loaded': True, 'loadedTime': 3640, 'positionName': 'RIGHT', 'positionCoords': [998.4, 335.5], 'bid': 9.08}]",13913,1669830189932,burger,turkeysandwich,9.39,9.08,-0.3100000000000005,burger,616,622,622,True,u,15037,1124,1669830191056,1124,HRV,HRV_0118,2022-11-30 17:46:59
9,"[{'imgObject': {}, 'id': 'burrito', 'src': '/static/foodstim60/burrito.jpg', 'key': 'u', 'origWidth': 410, 'origHeight': 410, 'width': 410, 'height': 410, 'widthPercent': 0.45, 'rescaleHeight': False, 'trialN': 9, 'loaded': True, 'loadedTime': 3641, 'positionName': 'LEFT', 'positionCoords': [511.6, 335], 'bid': 5.72}, {'imgObject': {}, 'id': 'mashed potato', 'src': '/static/foodstim60/mashed potato.jpg', 'key': 'i', 'origWidth': 409, 'origHeight': 409, 'width': 409, 'height': 409, 'widthPercent': 0.45, 'rescaleHeight': False, 'trialN': 9, 'loaded': True, 'loadedTime': 3643, 'positionName': 'RIGHT', 'positionCoords': [998.4, 335.5], 'bid': 6.54}]",15037,1669830191056,burrito,mashed potato,5.72,6.54,0.8200000000000003,burrito,741,758,758,True,u,16299,1262,1669830192318,1262,HRV,HRV_0118,2022-11-30 17:46:59
10,"[{'imgObject': {}, 'id': 'veggieswithdip', 'src': '/static/foodstim60/veggieswithdip.jpg', 'key': 'u', 'origWidth': 409, 'origHeight': 409, 'width': 409, 'height': 409, 'widthPercent': 0.45, 'rescaleHeight': False, 'trialN': 10, 'loaded': True, 'loadedTime': 3643, 'positionName': 'LEFT', 'positionCoords': [512.6, 335.5], 'bid': 4.6000000000000005}, {'imgObject': {}, 'id': 'cherries', 'src': '/static/foodstim60/cherries.jpg', 'key': 'i', 'origWidth': 410, 'origHeight': 411, 'width': 410, 'height': 411, 'widthPercent': 0.45, 'rescaleHeight': False, 'trialN': 10, 'loaded': True, 'loadedTime': 3645, 'positionName': 'RIGHT', 'positionCoords': [998.4, 334.5], 'bid': 1.6}]",16299,1669830192318,veggieswithdip,cherries,4.6000000000000005,1.6,-3.0000000000000004,veggieswithdip,870,886,886,True,u,17699,1400,1669830193717,1399,HRV,HRV_0118,2022-11-30 17:46:59
11,"[{'imgObject': {}, 'id': 'hashbrowns', 'src': '/static/foodstim60/hashbrowns.jpg', 'key': 'u', 'origWidth': 411, 'origHeight': 410, 'width': 411, 'height': 410, 'widthPercent': 0.45, 'rescaleHeight': False, 'trialN': 11, 'loaded': True, 'loadedTime': 3646, 'positionName': 'LEFT', 'positionCoords': [510.6, 335], 'bid': 0.16}, {'imgObject': {}, 'id': 'sushi w_condiments', 'src': '/static/foodstim60/sushi w_condiments.jpg', 'key': 'i', 'origWidth': 410, 'origHeight': 410, 'width': 410, 'height': 410, 'widthPercent': 0.45, 'rescaleHeight': False, 'trialN': 11, 'loaded': True, 'loadedTime': 3649, 'positionName': 'RIGHT', 'positionCoords': [998.4, 335], 'bid': 0.19}]",17699,1669830193717,hashbrowns,sushi w_condiments,0.16,0.19,0.03,sushi w_condiments,751,768,767,True,i,18980,1281,1669830194999,1282,HRV,HRV_0118,2022-11-30 17:46:59
12,"[{'imgObject': {}, 'id': 'strawberries', 'src': '/static/foodstim60/strawberries.jpg', 'key': 'u', 'origWidth': 410, 'origHeight': 410, 'width': 410, 'height': 410, 'widthPercent': 0.45, 'rescaleHeight': False, 'trialN': 12, 'loaded': True, 'loadedTime': 3650, 'positionName': 'LEFT', 'positionCoords': [511.6, 335], 'bid': 0.13}, {'imgObject': {}, 'id': 'mashed potato', 'src': '/static/foodstim60/mashed potato.jpg', 'key': 'i', 'origWidth': 409, 'origHeight': 409, 'width': 409, 'height': 409, 'widthPercent': 0.45, 'rescaleHeight': False, 'trialN': 12, 'loaded': True, 'loadedTime': 3643, 'positionName': 'RIGHT', 'positionCoords': [998.4, 335.5], 'bid': 6.54}]",18981,1669830194999,strawberries,mashed potato,0.13,6.54,6.41,mashed potato,720,723,722,True,i,20212,1231,1669830196231,1232,HRV,HRV_0118,2022-11-30 17:46:59
13,"[{'imgObject': {}, 'id': 'lox', 'src': '/static/foodstim60/lox.jpg', 'key': 'u', 'origWidth': 410, 'origHeight': 411, 'width': 410, 'height': 411, 'widthPercent': 0.45, 'rescaleHeight': False, 'trialN': 13, 'loaded': True, 'loadedTime': 3651, 'positionName': 'LEFT', 'positionCoords': [511.6, 334.5], 'bid': 0.1}, {'imgObject': {}, 'id': 'eggsalad', 'src': '/static/foodstim60/eggsalad.jpg', 'key': 'i', 'origWidth': 410, 'origHeight': 409, 'width': 410, 'height': 409, 'widthPercent': 0.45, 'rescaleHeight': False, 'trialN': 13, 'loaded': True, 'loadedTime': 3629, 'positionName': 'RIGHT', 'positionCoords': [998.4, 335.5], 'bid': 0.11}]",20212,1669830196231,lox,eggsalad,0.1,0.11,0.009999999999999995,eggsalad,738,750,750,True,i,21476,1264,1669830197495,1264,HRV,HRV_0118,2022-11-30 17:46:59
14,"[{'imgObject': {}, 'id': 'blueberries', 'src': '/static/foodstim60/blueberries.jpg', 'key': 'u', 'origWidth': 411, 'origHeight': 411, 'width': 411, 'height': 411, 'widthPercent': 0.45, 'rescaleHeight': False, 'trialN': 14, 'loaded': True, 'loadedTime': 3653, 'positionName': 'LEFT', 'positionCoords': [510.6, 334.5], 'bid': 5.94}, {'imgObject': {}, 'id': 'burrito', 'src': '/static/foodstim60/burrito.jpg', 'key': 'i', 'origWidth': 410, 'origHeight': 410, 'width': 410, 'height': 410, 'widthPercent': 0.45, 'rescaleHeight': False, 'trialN': 14, 'loaded': True, 'loadedTime': 3642, 'positionName': 'RIGHT', 'positionCoords': [998.4, 335], 'bid': 5.72}]",21477,1669830197495,blueberries,burrito,5.94,5.72,-0.22000000000000064,blueberries,864,876,875,True,u,22855,1378,1669830198874,1379,HRV,HRV_0118,2022-11-30 17:46:59
15,"[{'imgObject': {}, 'id': 'corn cob', 'src': '/static/foodstim60/corn cob.jpg', 'key': 'u', 'origWidth': 411, 'origHeight': 411, 'width': 411, 'height': 411, 'widthPercent': 0.45, 'rescaleHeight': False, 'trialN': 15, 'loaded': True, 'loadedTime': 3654, 'positionName': 'LEFT', 'positionCoords': [510.6, 334.5], 'bid': 5.58}, {'imgObject': {}, 'id': 'olives', 'src': '/static/foodstim60/olives.jpg', 'key': 'i', 'origWidth': 410, 'origHeight': 410, 'width': 410, 'height': 410, 'widthPercent': 0.45, 'rescaleHeight': False, 'trialN': 15, 'loaded': True, 'loadedTime': 3655, 'positionName': 'RIGHT', 'positionCoords': [998.4, 335], 'bid': 0.58}]",22855,1669830198875,corn cob,olives,5.58,0.58,-5.0,corn cob,799,801,802,True,u,24163,1308,1669830200181,1306,HRV,HRV_0118,2022-11-30 17:46:59
16,"[{'imgObject': {}, 'id': 'chickenfingers', 'src': '/static/foodstim60/chickenfingers.jpg', 'key': 'u', 'origWidth': 410, 'origHeight': 410, 'width': 410, 'height': 410, 'widthPercent': 0.45, 'rescaleHeight': False, 'trialN': 16, 'loaded': True, 'loadedTime': 3657, 'positionName': 'LEFT', 'positionCoords': [511.6, 335], 'bid': 9.85}, {'imgObject': {}, 'id': 'rigatoni and sauce', 'src': '/static/foodstim60/rigatoni and sauce.jpg', 'key': 'i', 'origWidth': 410, 'origHeight': 411, 'width': 410, 'height': 411, 'widthPercent': 0.45, 'rescaleHeight': False, 'trialN': 16, 'loaded': True, 'loadedTime': 3658, 'positionName': 'RIGHT', 'positionCoords': [998.4, 334.5], 'bid': 8.77}]",24163,1669830200181,chickenfingers,rigatoni and sauce,9.85,8.77,-1.08,chickenfingers,679,687,686,True,u,25365,1202,1669830201383,1202,HRV,HRV_0118,2022-11-30 17:46:59
17,"[{'imgObject': {}, 'id': 'blackbeanswithrice', 'src': '/static/foodstim60/blackbeanswithrice.jpg', 'key': 'u', 'origWidth': 410, 'origHeight': 410, 'width': 410, 'height': 410, 'widthPercent': 0.45, 'rescaleHeight': False, 'trialN': 17, 'loaded': True, 'loadedTime': 3631, 'positionName': 'LEFT', 'positionCoords': [511.6, 335], 'bid': 5.01}, {'imgObject': {}, 'id': 'bagel and cc', 'src': '/static/foodstim60/bagel and cc.jpg', 'key': 'i', 'origWidth': 410, 'origHeight': 410, 'width': 410, 'height': 410, 'widthPercent': 0.45, 'rescaleHeight': False, 'trialN': 17, 'loaded': True, 'loadedTime': 3659, 'positionName': 'RIGHT', 'positionCoords': [998.4, 335], 'bid': 5.97}]",25365,1669830201383,blackbeanswithrice,bagel and cc,5.01,5.97,0.96,bagel and cc,695,700,699,True,i,26576,1211,1669830202595,1212,HRV,HRV_0118,2022-11-30 17:46:59
18,"[{'imgObject': {}, 'id': 'raisin bran w milk', 'src': '/static/foodstim60/raisin bran w milk.jpg', 'key': 'u', 'origWidth': 411, 'origHeight': 411, 'width': 411, 'height': 411, 'widthPercent': 0.45, 'rescaleHeight': False, 'trialN': 18, 'loaded': True, 'loadedTime': 3661, 'positionName': 'LEFT', 'positionCoords': [510.6, 334.5], 'bid': 6.98}, {'imgObject': {}, 'id': 'salmon', 'src': '/static/foodstim60/salmon.jpg', 'key': 'i', 'origWidth': 410, 'origHeight': 409, 'width': 410, 'height': 409, 'widthPercent': 0.45, 'rescaleHeight': False, 'trialN': 18, 'loaded': True, 'loadedTime': 3662, 'positionName': 'RIGHT', 'positionCoords': [998.4, 335.5], 'bid': 0.16}]",26576,1669830202595,raisin bran w milk,salmon,6.98,0.16,-6.82,raisin bran w milk,672,680,680,True,u,27767,1191,1669830203785,1190,HRV,HRV_0118,2022-11-30 17:46:59
19,"[{'imgObject': {}, 'id': 'turkey sandwich', 'src': '/static/foodstim60/turkey sandwich.jpg', 'key': 'u', 'origWidth': 409, 'origHeight': 409, 'width': 409, 'height': 409, 'widthPercent': 0.45, 'rescaleHeight': False, 'trialN': 19, 'loaded': True, 'loadedTime': 3634, 'positionName': 'LEFT', 'positionCoords': [512.6, 335.5], 'bid': 8.1}, {'imgObject': {}, 'id': 'omelette', 'src': '/static/foodstim60/omelette.jpg', 'key': 'i', 'origWidth': 410, 'origHeight': 409, 'width': 410, 'height': 409, 'widthPercent': 0.45, 'rescaleHeight': False, 'trialN': 19, 'loaded': True, 'loadedTime': 3664, 'positionName': 'RIGHT', 'positionCoords': [998.4, 335.5], 'bid': 7.87}]",27767,1669830203785,turkey sandwich,omelette,8.1,7.87,-0.22999999999999954,turkey sandwich,669,682,682,True,u,28954,1187,1669830204974,1189,HRV,HRV_0118,2022-11-30 17:46:59
20,"[{'imgObject': {}, 'id': 'omelette', 'src': '/static/foodstim60/omelette.jpg', 'key': 'u', 'origWidth': 410, 'origHeight': 409, 'width': 410, 'height': 409, 'widthPercent': 0.45, 'rescaleHeight': False, 'trialN': 20, 'loaded': True, 'loadedTime': 3665, 'positionName': 'LEFT', 'positionCoords': [511.6, 335.5], 'bid': 7.87}, {'imgObject': {}, 'id': 'chickenfingers', 'src': '/static/foodstim60/chickenfingers.jpg', 'key': 'i', 'origWidth': 410, 'origHeight': 410, 'width': 410, 'height': 410, 'widthPercent': 0.45, 'rescaleHeight': False, 'trialN': 20, 'loaded': True, 'loadedTime': 3658, 'positionName': 'RIGHT', 'positionCoords': [998.4, 335], 'bid': 9.85}]",28954,1669830204974,omelette,chickenfingers,7.87,9.85,1.9799999999999995,chickenfingers,793,796,798,True,i,30259,1305,1669830206278,1304,HRV,HRV_0118,2022-11-30 17:46:59
21,"[{'imgObject': {}, 'id': 'veggieswithdip', 'src': '/static/foodstim60/veggieswithdip.jpg', 'key': 'u', 'origWidth': 409, 'origHeight': 409, 'width': 409, 'height': 409, 'widthPercent': 0.45, 'rescaleHeight': False, 'trialN': 21, 'loaded': True, 'loadedTime': 3645, 'positionName': 'LEFT', 'positionCoords': [512.6, 335.5], 'bid': 4.6000000000000005}, {'imgObject': {}, 'id': 'Tribe humus pita', 'src': '/static/foodstim60/Tribe humus pita.jpg', 'key': 'i', 'origWidth': 411, 'origHeight': 411, 'width': 411, 'height': 411, 'widthPercent': 0.45, 'rescaleHeight': False, 'trialN': 21, 'loaded': True, 'loadedTime': 3666, 'positionName': 'RIGHT', 'positionCoords': [998.4, 334.5], 'bid': 3.23}]",30259,1669830206278,veggieswithdip,Tribe humus pita,4.6000000000000005,3.23,-1.3700000000000006,veggieswithdip,786,795,795,True,u,31565,1306,1669830207585,1307,HRV,HRV_0118,2022-11-30 17:46:59
22,"[{'imgObject': {}, 'id': 'salad w chicken', 'src': '/static/foodstim60/salad w chicken.jpg', 'key': 'u', 'origWidth': 411, 'origHeight': 411, 'width': 411, 'height': 411, 'widthPercent': 0.45, 'rescaleHeight': False, 'trialN': 22, 'loaded': True, 'loadedTime': 3667, 'positionName': 'LEFT', 'positionCoords': [510.6, 334.5], 'bid': 8.59}, {'imgObject': {}, 'id': 'pear', 'src': '/static/foodstim60/pear.jpg', 'key': 'i', 'origWidth': 411, 'origHeight': 410, 'width': 411, 'height': 410, 'widthPercent': 0.45, 'rescaleHeight': False, 'trialN': 22, 'loaded': True, 'loadedTime': 3670, 'positionName': 'RIGHT', 'positionCoords': [998.4, 335], 'bid': 9.1}]",31566,1669830207585,salad w chicken,pear,8.59,9.1,0.5099999999999998,salad w chicken,697,703,703,True,u,32782,1216,1669830208801,1216,HRV,HRV_0118,2022-11-30 17:46:59
23,"[{'imgObject': {}, 'id': 'seaweed', 'src': '/static/foodstim60/seaweed.jpg', 'key': 'u', 'origWidth': 410, 'origHeight': 410, 'width': 410, 'height': 410, 'widthPercent': 0.45, 'rescaleHeight': False, 'trialN': 23, 'loaded': True, 'loadedTime': 3673, 'positionName': 'LEFT', 'positionCoords': [511.6, 335], 'bid': 0.15}, {'imgObject': {}, 'id': 'strawberries', 'src': '/static/foodstim60/strawberries.jpg', 'key': 'i', 'origWidth': 410, 'origHeight': 410, 'width': 410, 'height': 410, 'widthPercent': 0.45, 'rescaleHeight': False, 'trialN': 23, 'loaded': True, 'loadedTime': 3651, 'positionName': 'RIGHT', 'positionCoords': [998.4, 335], 'bid': 0.13}]",32782,1669830208802,seaweed,strawberries,0.15,0.13,-0.01999999999999999,seaweed,950,964,965,True,u,34250,1468,1669830210269,1467,HRV,HRV_0118,2022-11-30 17:46:59
24,"[{'imgObject': {}, 'id': 'grilled chicken strips', 'src': '/static/foodstim60/grilled chicken strips.jpg', 'key': 'u', 'origWidth': 410, 'origHeight': 411, 'width': 410, 'height': 411, 'widthPercent': 0.45, 'rescaleHeight': False, 'trialN': 24, 'loaded': True, 'loadedTime': 3676, 'positionName': 'LEFT', 'positionCoords': [511.6, 334.5], 'bid': 9.42}, {'imgObject': {}, 'id': 'sweetpotato', 'src': '/static/foodstim60/sweetpotato.jpg', 'key': 'i', 'origWidth': 410, 'origHeight': 410, 'width': 410, 'height': 410, 'widthPercent': 0.45, 'rescaleHeight': False, 'trialN': 24, 'loaded': True, 'loadedTime': 3623, 'positionName': 'RIGHT', 'positionCoords': [998.4, 335], 'bid': 9.08}]",34250,1669830210269,grilled chicken strips,sweetpotato,9.42,9.08,-0.33999999999999986,grilled chicken strips,653,668,668,True,u,35420,1170,1669830211439,1170,HRV,HRV_0118,2022-11-30 17:46:59
25,"[{'imgObject': {}, 'id': 'chickenfingers', 'src': '/static/foodstim60/chickenfingers.jpg', 'key': 'u', 'origWidth': 410, 'origHeight': 410, 'width': 410, 'height': 410, 'widthPercent': 0.45, 'rescaleHeight': False, 'trialN': 25, 'loaded': True, 'loadedTime': 3658, 'positionName': 'LEFT', 'positionCoords': [511.6, 335], 'bid': 9.85}, {'imgObject': {}, 'id': 'burger', 'src': '/static/foodstim60/burger.jpg', 'key': 'i', 'origWidth': 409, 'origHeight': 409, 'width': 409, 'height': 409, 'widthPercent': 0.45, 'rescaleHeight': False, 'trialN': 25, 'loaded': True, 'loadedTime': 3640, 'positionName': 'RIGHT', 'positionCoords': [998.4, 335.5], 'bid': 9.39}]",35420,1669830211439,chickenfingers,burger,9.85,9.39,-0.4599999999999991,chickenfingers,749,756,756,True,u,36685,1265,1669830212704,1265,HRV,HRV_0118,2022-11-30 17:46:59
26,"[{'imgObject': {}, 'id': 'cherry tomato', 'src': '/static/foodstim60/cherry tomato.jpg', 'key': 'u', 'origWidth': 410, 'origHeight': 410, 'width': 410, 'height': 410, 'widthPercent': 0.45, 'rescaleHeight': False, 'trialN': 26, 'loaded': True, 'loadedTime': 3678, 'positionName': 'LEFT', 'positionCoords': [511.6, 335], 'bid': 0.64}, {'imgObject': {}, 'id': 'burrito', 'src': '/static/foodstim60/burrito.jpg', 'key': 'i', 'origWidth': 410, 'origHeight': 410, 'width': 410, 'height': 410, 'widthPercent': 0.45, 'rescaleHeight': False, 'trialN': 26, 'loaded': True, 'loadedTime': 3642, 'positionName': 'RIGHT', 'positionCoords': [998.4, 335], 'bid': 5.72}]",36685,1669830212704,cherry tomato,burrito,0.64,5.72,5.08,burrito,828,838,838,True,i,38039,1354,1669830214058,1354,HRV,HRV_0118,2022-11-30 17:46:59
27,"[{'imgObject': {}, 'id': 'roastedpotatoes', 'src': '/static/foodstim60/roastedpotatoes.jpg', 'key': 'u', 'origWidth': 409, 'origHeight': 410, 'width': 409, 'height': 410, 'widthPercent': 0.45, 'rescaleHeight': False, 'trialN': 27, 'loaded': True, 'loadedTime': 3638, 'positionName': 'LEFT', 'positionCoords': [512.6, 335], 'bid': 9.23}, {'imgObject': {}, 'id': 'edamame', 'src': '/static/foodstim60/edamame.jpg', 'key': 'i', 'origWidth': 409, 'origHeight': 410, 'width': 409, 'height': 410, 'widthPercent': 0.45, 'rescaleHeight': False, 'trialN': 27, 'loaded': True, 'loadedTime': 3679, 'positionName': 'RIGHT', 'positionCoords': [998.4, 335], 'bid': 5.07}]",38039,1669830214058,roastedpotatoes,edamame,9.23,5.07,-4.16,roastedpotatoes,740,743,743,True,u,39289,1250,1669830215308,1250,HRV,HRV_0118,2022-11-30 17:46:59
28,"[{'imgObject': {}, 'id': 'mango', 'src': '/static/foodstim60/mango.jpg', 'key': 'u', 'origWidth': 411, 'origHeight': 411, 'width': 411, 'height': 411, 'widthPercent': 0.45, 'rescaleHeight': False, 'trialN': 28, 'loaded': True, 'loadedTime': 3680, 'positionName': 'LEFT', 'positionCoords': [510.6, 334.5], 'bid': 1.15}, {'imgObject': {}, 'id': 'yogurt no spoon', 'src': '/static/foodstim60/yogurt no spoon.jpg', 'key': 'i', 'origWidth': 411, 'origHeight': 410, 'width': 411, 'height': 410, 'widthPercent': 0.45, 'rescaleHeight': False, 'trialN': 28, 'loaded': True, 'loadedTime': 3681, 'positionName': 'RIGHT', 'positionCoords': [998.4, 335], 'bid': 0.1}]",39289,1669830215308,mango,yogurt no spoon,1.15,0.1,-1.0499999999999998,yogurt no spoon,803,818,817,True,i,40615,1326,1669830216634,1326,HRV,HRV_0118,2022-11-30 17:46:59
29,"[{'imgObject': {}, 'id': 'raisin bran w milk', 'src': '/static/foodstim60/raisin bran w milk.jpg', 'key': 'u', 'origWidth': 411, 'origHeight': 411, 'width': 411, 'height': 411, 'widthPercent': 0.45, 'rescaleHeight': False, 'trialN': 29, 'loaded': True, 'loadedTime': 3662, 'positionName': 'LEFT', 'positionCoords': [510.6, 334.5], 'bid': 6.98}, {'imgObject': {}, 'id': 'chicken nuggets2', 'src': '/static/foodstim60/chicken nuggets2.jpg', 'key': 'i', 'origWidth': 410, 'origHeight': 409, 'width': 410, 'height': 409, 'widthPercent': 0.45, 'rescaleHeight': False, 'trialN': 29, 'loaded': True, 'loadedTime': 3620, 'positionName': 'RIGHT', 'positionCoords': [998.4, 335.5], 'bid': 7.85}]",40615,1669830216634,raisin bran w milk,chicken nuggets2,6.98,7.85,0.8699999999999992,raisin bran w milk,727,728,728,True,u,41845,1230,1669830217864,1230,HRV,HRV_0118,2022-11-30 17:46:59
30,"[{'imgObject': {}, 'id': 'cheerios', 'src': '/static/foodstim60/cheerios.jpg', 'key': 'u', 'origWidth': 409, 'origHeight': 410, 'width': 409, 'height': 410, 'widthPercent': 0.45, 'rescaleHeight': False, 'trialN': 30, 'loaded': True, 'loadedTime': 3622, 'positionName': 'LEFT', 'positionCoords': [512.6, 335], 'bid': 7.76}, {'imgObject': {}, 'id': 'granola w milk', 'src': '/static/foodstim60/granola w milk.jpg', 'key': 'i', 'origWidth': 410, 'origHeight': 410, 'width': 410, 'height': 410, 'widthPercent': 0.45, 'rescaleHeight': False, 'trialN': 30, 'loaded': True, 'loadedTime': 3683, 'positionName': 'RIGHT', 'positionCoords': [998.4, 335], 'bid': 6.95}]",41846,1669830217864,cheerios,granola w milk,7.76,6.95,-0.8099999999999996,cheerios,777,780,778,True,u,43126,1280,1669830219145,1281,HRV,HRV_0118,2022-11-30 17:46:59
31,"[{'imgObject': {}, 'id': 'mango', 'src': '/static/foodstim60/mango.jpg', 'key': 'u', 'origWidth': 411, 'origHeight': 411, 'width': 411, 'height': 411, 'widthPercent': 0.45, 'rescaleHeight': False, 'trialN': 31, 'loaded': True, 'loadedTime': 3681, 'positionName': 'LEFT', 'positionCoords': [510.6, 334.5], 'bid': 1.15}, {'imgObject': {}, 'id': 'seaweed', 'src': '/static/foodstim60/seaweed.jpg', 'key': 'i', 'origWidth': 410, 'origHeight': 410, 'width': 410, 'height': 410, 'widthPercent': 0.45, 'rescaleHeight': False, 'trialN': 31, 'loaded': True, 'loadedTime': 3675, 'positionName': 'RIGHT', 'positionCoords': [998.4, 335], 'bid': 0.15}]",43126,1669830219145,mango,seaweed,1.15,0.15,-0.9999999999999999,mango,918,933,933,True,u,44559,1433,1669830220577,1432,HRV,HRV_0118,2022-11-30 17:46:59
32,"[{'imgObject': {}, 'id': 'bagel and cc', 'src': '/static/foodstim60/bagel and cc.jpg', 'key': 'u', 'origWidth': 410, 'origHeight': 410, 'width': 410, 'height': 410, 'widthPercent': 0.45, 'rescaleHeight': False, 'trialN': 32, 'loaded': True, 'loadedTime': 3661, 'positionName': 'LEFT', 'positionCoords': [511.6, 335], 'bid': 5.97}, {'imgObject': {}, 'id': 'turkey sandwich', 'src': '/static/foodstim60/turkey sandwich.jpg', 'key': 'i', 'origWidth': 409, 'origHeight': 409, 'width': 409, 'height': 409, 'widthPercent': 0.45, 'rescaleHeight': False, 'trialN': 32, 'loaded': True, 'loadedTime': 3634, 'positionName': 'RIGHT', 'positionCoords': [998.4, 335.5], 'bid': 8.1}]",44559,1669830220577,bagel and cc,turkey sandwich,5.97,8.1,2.13,turkey sandwich,814,825,824,True,i,45889,1330,1669830221909,1332,HRV,HRV_0118,2022-11-30 17:46:59
33,"[{'imgObject': {}, 'id': 'chicken nuggets2', 'src': '/static/foodstim60/chicken nuggets2.jpg', 'key': 'u', 'origWidth': 410, 'origHeight': 409, 'width': 410, 'height': 409, 'widthPercent': 0.45, 'rescaleHeight': False, 'trialN': 33, 'loaded': True, 'loadedTime': 3620, 'positionName': 'LEFT', 'positionCoords': [511.6, 335.5], 'bid': 7.85}, {'imgObject': {}, 'id': 'rigatoni', 'src': '/static/foodstim60/rigatoni.jpg', 'key': 'i', 'origWidth': 411, 'origHeight': 411, 'width': 411, 'height': 411, 'widthPercent': 0.45, 'rescaleHeight': False, 'trialN': 33, 'loaded': True, 'loadedTime': 3685, 'positionName': 'RIGHT', 'positionCoords': [998.4, 334.5], 'bid': 7.45}]",45890,1669830221909,chicken nuggets2,rigatoni,7.85,7.45,-0.39999999999999947,chicken nuggets2,671,686,686,True,u,47090,1200,1669830223110,1201,HRV,HRV_0118,2022-11-30 17:46:59
34,"[{'imgObject': {}, 'id': 'shreddedwheatwithmilk', 'src': '/static/foodstim60/shreddedwheatwithmilk.jpg', 'key': 'u', 'origWidth': 410, 'origHeight': 410, 'width': 410, 'height': 410, 'widthPercent': 0.45, 'rescaleHeight': False, 'trialN': 34, 'loaded': True, 'loadedTime': 3686, 'positionName': 'LEFT', 'positionCoords': [511.6, 335], 'bid': 6.6000000000000005}, {'imgObject': {}, 'id': 'mashed potato', 'src': '/static/foodstim60/mashed potato.jpg', 'key': 'i', 'origWidth': 409, 'origHeight': 409, 'width': 409, 'height': 409, 'widthPercent': 0.45, 'rescaleHeight': False, 'trialN': 34, 'loaded': True, 'loadedTime': 3643, 'positionName': 'RIGHT', 'positionCoords': [998.4, 335.5], 'bid': 6.54}]",47091,1669830223110,shreddedwheatwithmilk,mashed potato,6.6000000000000005,6.54,-0.0600000000000005,shreddedwheatwithmilk,985,986,986,True,u,48580,1489,1669830224599,1489,HRV,HRV_0118,2022-11-30 17:46:59
35,"[{'imgObject': {}, 'id': 'mango', 'src': '/static/foodstim60/mango.jpg', 'key': 'u', 'origWidth': 411, 'origHeight': 411, 'width': 411, 'height': 411, 'widthPercent': 0.45, 'rescaleHeight': False, 'trialN': 35, 'loaded': True, 'loadedTime': 3681, 'positionName': 'LEFT', 'positionCoords': [510.6, 334.5], 'bid': 1.15}, {'imgObject': {}, 'id': 'luckycharms', 'src': '/static/foodstim60/luckycharms.jpg', 'key': 'i', 'origWidth': 410, 'origHeight': 409, 'width': 410, 'height': 409, 'widthPercent': 0.45, 'rescaleHeight': False, 'trialN': 35, 'loaded': True, 'loadedTime': 3687, 'positionName': 'RIGHT', 'positionCoords': [998.4, 335.5], 'bid': 2.38}]",48580,1669830224599,mango,luckycharms,1.15,2.38,1.23,luckycharms,792,799,800,True,i,49890,1310,1669830225909,1310,HRV,HRV_0118,2022-11-30 17:46:59
36,"[{'imgObject': {}, 'id': 'sweetpotato', 'src': '/static/foodstim60/sweetpotato.jpg', 'key': 'u', 'origWidth': 410, 'origHeight': 410, 'width': 410, 'height': 410, 'widthPercent': 0.45, 'rescaleHeight': False, 'trialN': 36, 'loaded': True, 'loadedTime': 3623, 'positionName': 'LEFT', 'positionCoords': [511.6, 335], 'bid': 9.08}, {'imgObject': {}, 'id': 'pear', 'src': '/static/foodstim60/pear.jpg', 'key': 'i', 'origWidth': 411, 'origHeight': 410, 'width': 411, 'height': 410, 'widthPercent': 0.45, 'rescaleHeight': False, 'trialN': 36, 'loaded': True, 'loadedTime': 3673, 'positionName': 'RIGHT', 'positionCoords': [998.4, 335], 'bid': 9.1}]",49890,1669830225909,sweetpotato,pear,9.08,9.1,0.019999999999999574,sweetpotato,716,726,726,True,u,51124,1234,1669830227144,1235,HRV,HRV_0118,2022-11-30 17:46:59
37,"[{'imgObject': {}, 'id': 'avocado', 'src': '/static/foodstim60/avocado.jpg', 'key': 'u', 'origWidth': 409, 'origHeight': 409, 'width': 409, 'height': 409, 'widthPercent': 0.45, 'rescaleHeight': False, 'trialN': 37, 'loaded': True, 'loadedTime': 3627, 'positionName': 'LEFT', 'positionCoords': [512.6, 335.5], 'bid': 2.67}, {'imgObject': {}, 'id': 'banana', 'src': '/static/foodstim60/banana.jpg', 'key': 'i', 'origWidth': 410, 'origHeight': 410, 'width': 410, 'height': 410, 'widthPercent': 0.45, 'rescaleHeight': False, 'trialN': 37, 'loaded': True, 'loadedTime': 3639, 'positionName': 'RIGHT', 'positionCoords': [998.4, 335], 'bid': 9}]",51125,1669830227144,avocado,banana,2.67,9.0,6.33,banana,716,727,728,True,i,52357,1232,1669830228376,1232,HRV,HRV_0118,2022-11-30 17:46:59
38,"[{'imgObject': {}, 'id': 'raisin bran w milk', 'src': '/static/foodstim60/raisin bran w milk.jpg', 'key': 'u', 'origWidth': 411, 'origHeight': 411, 'width': 411, 'height': 411, 'widthPercent': 0.45, 'rescaleHeight': False, 'trialN': 38, 'loaded': True, 'loadedTime': 3662, 'positionName': 'LEFT', 'positionCoords': [510.6, 334.5], 'bid': 6.98}, {'imgObject': {}, 'id': 'corn cob', 'src': '/static/foodstim60/corn cob.jpg', 'key': 'i', 'origWidth': 411, 'origHeight': 411, 'width': 411, 'height': 411, 'widthPercent': 0.45, 'rescaleHeight': False, 'trialN': 38, 'loaded': True, 'loadedTime': 3655, 'positionName': 'RIGHT', 'positionCoords': [998.4, 334.5], 'bid': 5.58}]",52357,1669830228376,raisin bran w milk,corn cob,6.98,5.58,-1.4000000000000004,raisin bran w milk,750,754,754,True,u,53623,1266,1669830229642,1266,HRV,HRV_0118,2022-11-30 17:46:59
39,"[{'imgObject': {}, 'id': 'mac & cheese', 'src': '/static/foodstim60/mac & cheese.jpg', 'key': 'u', 'origWidth': 410, 'origHeight': 410, 'width': 410, 'height': 410, 'widthPercent': 0.45, 'rescaleHeight': False, 'trialN': 39, 'loaded': True, 'loadedTime': 3688, 'positionName': 'LEFT', 'positionCoords': [511.6, 335], 'bid': 7.4}, {'imgObject': {}, 'id': 'sushi w_condiments', 'src': '/static/foodstim60/sushi w_condiments.jpg', 'key': 'i', 'origWidth': 410, 'origHeight': 410, 'width': 410, 'height': 410, 'widthPercent': 0.45, 'rescaleHeight': False, 'trialN': 39, 'loaded': True, 'loadedTime': 3649, 'positionName': 'RIGHT', 'positionCoords': [998.4, 335], 'bid': 0.19}]",53623,1669830229642,mac & cheese,sushi w_condiments,7.4,0.19,-7.21,mac & cheese,718,725,725,True,u,54857,1234,1669830230876,1234,HRV,HRV_0118,2022-11-30 17:46:59
40,"[{'imgObject': {}, 'id': 'chickenfingers', 'src': '/static/foodstim60/chickenfingers.jpg', 'key': 'u', 'origWidth': 410, 'origHeight': 410, 'width': 410, 'height': 410, 'widthPercent': 0.45, 'rescaleHeight': False, 'trialN': 40, 'loaded': True, 'loadedTime': 3658, 'positionName': 'LEFT', 'positionCoords': [511.6, 335], 'bid': 9.85}, {'imgObject': {}, 'id': 'popsicles', 'src': '/static/foodstim60/popsicles.jpg', 'key': 'i', 'origWidth': 410, 'origHeight': 410, 'width': 410, 'height': 410, 'widthPercent': 0.45, 'rescaleHeight': False, 'trialN': 40, 'loaded': True, 'loadedTime': 3690, 'positionName': 'RIGHT', 'positionCoords': [998.4, 335], 'bid': 5.73}]",54857,1669830230876,chickenfingers,popsicles,9.85,5.73,-4.119999999999999,chickenfingers,719,727,727,True,u,56090,1233,1669830232109,1233,HRV,HRV_0118,2022-11-30 17:46:59
41,"[{'imgObject': {}, 'id': 'froot loops w milk', 'src': '/static/foodstim60/froot loops w milk.jpg', 'key': 'u', 'origWidth': 410, 'origHeight': 410, 'width': 410, 'height': 410, 'widthPercent': 0.45, 'rescaleHeight': False, 'trialN': 41, 'loaded': True, 'loadedTime': 3692, 'positionName': 'LEFT', 'positionCoords': [511.6, 335], 'bid': 7.09}, {'imgObject': {}, 'id': 'hashbrowns', 'src': '/static/foodstim60/hashbrowns.jpg', 'key': 'i', 'origWidth': 411, 'origHeight': 410, 'width': 411, 'height': 410, 'widthPercent': 0.45, 'rescaleHeight': False, 'trialN': 41, 'loaded': True, 'loadedTime': 3648, 'positionName': 'RIGHT', 'positionCoords': [998.4, 335], 'bid': 0.16}]",56090,1669830232109,froot loops w milk,hashbrowns,7.09,0.16,-6.93,froot loops w milk,861,864,864,True,u,57467,1377,1669830233486,1377,HRV,HRV_0118,2022-11-30 17:46:59
42,"[{'imgObject': {}, 'id': 'avocado', 'src': '/static/foodstim60/avocado.jpg', 'key': 'u', 'origWidth': 409, 'origHeight': 409, 'width': 409, 'height': 409, 'widthPercent': 0.45, 'rescaleHeight': False, 'trialN': 42, 'loaded': True, 'loadedTime': 3627, 'positionName': 'LEFT', 'positionCoords': [512.6, 335.5], 'bid': 2.67}, {'imgObject': {}, 'id': 'Tribe humus pita', 'src': '/static/foodstim60/Tribe humus pita.jpg', 'key': 'i', 'origWidth': 411, 'origHeight': 411, 'width': 411, 'height': 411, 'widthPercent': 0.45, 'rescaleHeight': False, 'trialN': 42, 'loaded': True, 'loadedTime': 3667, 'positionName': 'RIGHT', 'positionCoords': [998.4, 334.5], 'bid': 3.23}]",57467,1669830233486,avocado,Tribe humus pita,2.67,3.23,0.56,Tribe humus pita,672,680,679,True,i,58652,1185,1669830234670,1184,HRV,HRV_0118,2022-11-30 17:46:59
43,"[{'imgObject': {}, 'id': 'cantaloupe', 'src': '/static/foodstim60/cantaloupe.jpg', 'key': 'u', 'origWidth': 409, 'origHeight': 409, 'width': 409, 'height': 409, 'widthPercent': 0.45, 'rescaleHeight': False, 'trialN': 43, 'loaded': True, 'loadedTime': 3693, 'positionName': 'LEFT', 'positionCoords': [512.6, 335.5], 'bid': 0.17}, {'imgObject': {}, 'id': 'kiwi', 'src': '/static/foodstim60/kiwi.jpg', 'key': 'i', 'origWidth': 410, 'origHeight': 410, 'width': 410, 'height': 410, 'widthPercent': 0.45, 'rescaleHeight': False, 'trialN': 43, 'loaded': True, 'loadedTime': 3695, 'positionName': 'RIGHT', 'positionCoords': [998.4, 335], 'bid': 0.51}]",58652,1669830234670,cantaloupe,kiwi,0.17,0.51,0.33999999999999997,kiwi,767,776,776,True,i,59932,1280,1669830235952,1282,HRV,HRV_0118,2022-11-30 17:46:59
44,"[{'imgObject': {}, 'id': 'burger', 'src': '/static/foodstim60/burger.jpg', 'key': 'u', 'origWidth': 409, 'origHeight': 409, 'width': 409, 'height': 409, 'widthPercent': 0.45, 'rescaleHeight': False, 'trialN': 44, 'loaded': True, 'loadedTime': 3640, 'positionName': 'LEFT', 'positionCoords': [512.6, 335.5], 'bid': 9.39}, {'imgObject': {}, 'id': 'cheerios', 'src': '/static/foodstim60/cheerios.jpg', 'key': 'i', 'origWidth': 409, 'origHeight': 410, 'width': 409, 'height': 410, 'widthPercent': 0.45, 'rescaleHeight': False, 'trialN': 44, 'loaded': True, 'loadedTime': 3622, 'positionName': 'RIGHT', 'positionCoords': [998.4, 335], 'bid': 7.76}]",59933,1669830235952,burger,cheerios,9.39,7.76,-1.6300000000000008,burger,673,688,688,True,u,61129,1196,1669830237147,1195,HRV,HRV_0118,2022-11-30 17:46:59
45,"[{'imgObject': {}, 'id': 'hotdog w must', 'src': '/static/foodstim60/hotdog w must.jpg', 'key': 'u', 'origWidth': 409, 'origHeight': 409, 'width': 409, 'height': 409, 'widthPercent': 0.45, 'rescaleHeight': False, 'trialN': 45, 'loaded': True, 'loadedTime': 3696, 'positionName': 'LEFT', 'positionCoords': [512.6, 335.5], 'bid': 0.9}, {'imgObject': {}, 'id': 'Tribe humus pita', 'src': '/static/foodstim60/Tribe humus pita.jpg', 'key': 'i', 'origWidth': 411, 'origHeight': 411, 'width': 411, 'height': 411, 'widthPercent': 0.45, 'rescaleHeight': False, 'trialN': 45, 'loaded': True, 'loadedTime': 3667, 'positionName': 'RIGHT', 'positionCoords': [998.4, 334.5], 'bid': 3.23}]",61129,1669830237147,hotdog w must,Tribe humus pita,0.9,3.23,2.33,Tribe humus pita,760,773,772,True,i,62407,1278,1669830238426,1279,HRV,HRV_0118,2022-11-30 17:46:59
46,"[{'imgObject': {}, 'id': 'steak', 'src': '/static/foodstim60/steak.jpg', 'key': 'u', 'origWidth': 410, 'origHeight': 410, 'width': 410, 'height': 410, 'widthPercent': 0.45, 'rescaleHeight': False, 'trialN': 46, 'loaded': True, 'loadedTime': 3700, 'positionName': 'LEFT', 'positionCoords': [511.6, 335], 'bid': 6.5}, {'imgObject': {}, 'id': 'bagel plain', 'src': '/static/foodstim60/bagel plain.jpg', 'key': 'i', 'origWidth': 410, 'origHeight': 410, 'width': 410, 'height': 410, 'widthPercent': 0.45, 'rescaleHeight': False, 'trialN': 46, 'loaded': True, 'loadedTime': 3627, 'positionName': 'RIGHT', 'positionCoords': [998.4, 335], 'bid': 6.16}]",62407,1669830238426,steak,bagel plain,6.5,6.16,-0.33999999999999986,steak,700,708,708,True,u,63624,1217,1669830239642,1216,HRV,HRV_0118,2022-11-30 17:46:59
47,"[{'imgObject': {}, 'id': 'salad w chicken', 'src': '/static/foodstim60/salad w chicken.jpg', 'key': 'u', 'origWidth': 411, 'origHeight': 411, 'width': 411, 'height': 411, 'widthPercent': 0.45, 'rescaleHeight': False, 'trialN': 47, 'loaded': True, 'loadedTime': 3670, 'positionName': 'LEFT', 'positionCoords': [510.6, 334.5], 'bid': 8.59}, {'imgObject': {}, 'id': 'steak', 'src': '/static/foodstim60/steak.jpg', 'key': 'i', 'origWidth': 410, 'origHeight': 410, 'width': 410, 'height': 410, 'widthPercent': 0.45, 'rescaleHeight': False, 'trialN': 47, 'loaded': True, 'loadedTime': 3702, 'positionName': 'RIGHT', 'positionCoords': [998.4, 335], 'bid': 6.5}]",63624,1669830239642,salad w chicken,steak,8.59,6.5,-2.09,salad w chicken,749,752,750,True,u,64886,1262,1669830240905,1263,HRV,HRV_0118,2022-11-30 17:46:59
48,"[{'imgObject': {}, 'id': 'pear', 'src': '/static/foodstim60/pear.jpg', 'key': 'u', 'origWidth': 411, 'origHeight': 410, 'width': 411, 'height': 410, 'widthPercent': 0.45, 'rescaleHeight': False, 'trialN': 48, 'loaded': True, 'loadedTime': 3673, 'positionName': 'LEFT', 'positionCoords': [510.6, 335], 'bid': 9.1}, {'imgObject': {}, 'id': 'omelette', 'src': '/static/foodstim60/omelette.jpg', 'key': 'i', 'origWidth': 410, 'origHeight': 409, 'width': 410, 'height': 409, 'widthPercent': 0.45, 'rescaleHeight': False, 'trialN': 48, 'loaded': True, 'loadedTime': 3665, 'positionName': 'RIGHT', 'positionCoords': [998.4, 335.5], 'bid': 7.87}]",64886,1669830240905,pear,omelette,9.1,7.87,-1.2299999999999995,omelette,800,813,813,True,i,66204,1318,1669830242224,1319,HRV,HRV_0118,2022-11-30 17:46:59
49,"[{'imgObject': {}, 'id': 'salad w chicken', 'src': '/static/foodstim60/salad w chicken.jpg', 'key': 'u', 'origWidth': 411, 'origHeight': 411, 'width': 411, 'height': 411, 'widthPercent': 0.45, 'rescaleHeight': False, 'trialN': 49, 'loaded': True, 'loadedTime': 3670, 'positionName': 'LEFT', 'positionCoords': [510.6, 334.5], 'bid': 8.59}, {'imgObject': {}, 'id': 'banana', 'src': '/static/foodstim60/banana.jpg', 'key': 'i', 'origWidth': 410, 'origHeight': 410, 'width': 410, 'height': 410, 'widthPercent': 0.45, 'rescaleHeight': False, 'trialN': 49, 'loaded': True, 'loadedTime': 3639, 'positionName': 'RIGHT', 'positionCoords': [998.4, 335], 'bid': 9}]",66205,1669830242225,salad w chicken,banana,8.59,9.0,0.41000000000000014,salad w chicken,761,773,775,True,u,67492,1287,1669830243510,1285,HRV,HRV_0118,2022-11-30 17:46:59
50,"[{'imgObject': {}, 'id': 'cocktailshrimp', 'src': '/static/foodstim60/cocktailshrimp.jpg', 'key': 'u', 'origWidth': 410, 'origHeight': 410, 'width': 410, 'height': 410, 'widthPercent': 0.45, 'rescaleHeight': False, 'trialN': 50, 'loaded': True, 'loadedTime': 3706, 'positionName': 'LEFT', 'positionCoords': [511.6, 335], 'bid': 0.13}, {'imgObject': {}, 'id': 'avocado', 'src': '/static/foodstim60/avocado.jpg', 'key': 'i', 'origWidth': 409, 'origHeight': 409, 'width': 409, 'height': 409, 'widthPercent': 0.45, 'rescaleHeight': False, 'trialN': 50, 'loaded': True, 'loadedTime': 3627, 'positionName': 'RIGHT', 'positionCoords': [998.4, 335.5], 'bid': 2.67}]",67492,1669830243511,cocktailshrimp,avocado,0.13,2.67,2.54,avocado,755,767,767,True,i,68775,1283,1669830244795,1284,HRV,HRV_0118,2022-11-30 17:46:59
51,"[{'imgObject': {}, 'id': 'shreddedwheatwithmilk', 'src': '/static/foodstim60/shreddedwheatwithmilk.jpg', 'key': 'u', 'origWidth': 410, 'origHeight': 410, 'width': 410, 'height': 410, 'widthPercent': 0.45, 'rescaleHeight': False, 'trialN': 51, 'loaded': True, 'loadedTime': 3687, 'positionName': 'LEFT', 'positionCoords': [511.6, 335], 'bid': 6.6000000000000005}, {'imgObject': {}, 'id': 'popsicles', 'src': '/static/foodstim60/popsicles.jpg', 'key': 'i', 'origWidth': 410, 'origHeight': 410, 'width': 410, 'height': 410, 'widthPercent': 0.45, 'rescaleHeight': False, 'trialN': 51, 'loaded': True, 'loadedTime': 3692, 'positionName': 'RIGHT', 'positionCoords': [998.4, 335], 'bid': 5.73}]",68776,1669830244795,shreddedwheatwithmilk,popsicles,6.6000000000000005,5.73,-0.8700000000000001,shreddedwheatwithmilk,691,699,700,True,u,69979,1203,1669830245998,1203,HRV,HRV_0118,2022-11-30 17:46:59
52,"[{'imgObject': {}, 'id': 'orange slices', 'src': '/static/foodstim60/orange slices.jpg', 'key': 'u', 'origWidth': 409, 'origHeight': 410, 'width': 409, 'height': 410, 'widthPercent': 0.45, 'rescaleHeight': False, 'trialN': 52, 'loaded': True, 'loadedTime': 3710, 'positionName': 'LEFT', 'positionCoords': [512.6, 335], 'bid': 7.25}, {'imgObject': {}, 'id': 'tacos', 'src': '/static/foodstim60/tacos.jpg', 'key': 'i', 'origWidth': 411, 'origHeight': 411, 'width': 411, 'height': 411, 'widthPercent': 0.45, 'rescaleHeight': False, 'trialN': 52, 'loaded': True, 'loadedTime': 3716, 'positionName': 'RIGHT', 'positionCoords': [998.4, 334.5], 'bid': 8.1}]",69979,1669830245999,orange slices,tacos,7.25,8.1,0.8499999999999996,orange slices,707,709,710,True,u,71194,1215,1669830247213,1214,HRV,HRV_0118,2022-11-30 17:46:59
53,"[{'imgObject': {}, 'id': 'lox', 'src': '/static/foodstim60/lox.jpg', 'key': 'u', 'origWidth': 410, 'origHeight': 411, 'width': 410, 'height': 411, 'widthPercent': 0.45, 'rescaleHeight': False, 'trialN': 53, 'loaded': True, 'loadedTime': 3652, 'positionName': 'LEFT', 'positionCoords': [511.6, 334.5], 'bid': 0.1}, {'imgObject': {}, 'id': 'seaweed', 'src': '/static/foodstim60/seaweed.jpg', 'key': 'i', 'origWidth': 410, 'origHeight': 410, 'width': 410, 'height': 410, 'widthPercent': 0.45, 'rescaleHeight': False, 'trialN': 53, 'loaded': True, 'loadedTime': 3675, 'positionName': 'RIGHT', 'positionCoords': [998.4, 335], 'bid': 0.15}]",71194,1669830247213,lox,seaweed,0.1,0.15,0.04999999999999999,seaweed,834,842,842,True,i,72547,1353,1669830248565,1352,HRV,HRV_0118,2022-11-30 17:46:59
54,"[{'imgObject': {}, 'id': 'cherry tomato', 'src': '/static/foodstim60/cherry tomato.jpg', 'key': 'u', 'origWidth': 410, 'origHeight': 410, 'width': 410, 'height': 410, 'widthPercent': 0.45, 'rescaleHeight': False, 'trialN': 54, 'loaded': True, 'loadedTime': 3679, 'positionName': 'LEFT', 'positionCoords': [511.6, 335], 'bid': 0.64}, {'imgObject': {}, 'id': 'olives', 'src': '/static/foodstim60/olives.jpg', 'key': 'i', 'origWidth': 410, 'origHeight': 410, 'width': 410, 'height': 410, 'widthPercent': 0.45, 'rescaleHeight': False, 'trialN': 54, 'loaded': True, 'loadedTime': 3656, 'positionName': 'RIGHT', 'positionCoords': [998.4, 335], 'bid': 0.58}]",72547,1669830248565,cherry tomato,olives,0.64,0.58,-0.06000000000000005,cherry tomato,763,770,770,True,u,73829,1282,1669830249848,1283,HRV,HRV_0118,2022-11-30 17:46:59
55,"[{'imgObject': {}, 'id': 'cocktailshrimp', 'src': '/static/foodstim60/cocktailshrimp.jpg', 'key': 'u', 'origWidth': 410, 'origHeight': 410, 'width': 410, 'height': 410, 'widthPercent': 0.45, 'rescaleHeight': False, 'trialN': 55, 'loaded': True, 'loadedTime': 3708, 'positionName': 'LEFT', 'positionCoords': [511.6, 335], 'bid': 0.13}, {'imgObject': {}, 'id': 'hotdog w must', 'src': '/static/foodstim60/hotdog w must.jpg', 'key': 'i', 'origWidth': 409, 'origHeight': 409, 'width': 409, 'height': 409, 'widthPercent': 0.45, 'rescaleHeight': False, 'trialN': 55, 'loaded': True, 'loadedTime': 3698, 'positionName': 'RIGHT', 'positionCoords': [998.4, 335.5], 'bid': 0.9}]",73829,1669830249848,cocktailshrimp,hotdog w must,0.13,0.9,0.77,hotdog w must,777,791,790,True,i,75135,1306,1669830251154,1306,HRV,HRV_0118,2022-11-30 17:46:59
56,"[{'imgObject': {}, 'id': 'raspberries', 'src': '/static/foodstim60/raspberries.jpg', 'key': 'u', 'origWidth': 411, 'origHeight': 411, 'width': 411, 'height': 411, 'widthPercent': 0.45, 'rescaleHeight': False, 'trialN': 56, 'loaded': True, 'loadedTime': 3723, 'positionName': 'LEFT', 'positionCoords': [510.6, 334.5], 'bid': 0.89}, {'imgObject': {}, 'id': 'hotdog w must', 'src': '/static/foodstim60/hotdog w must.jpg', 'key': 'i', 'origWidth': 409, 'origHeight': 409, 'width': 409, 'height': 409, 'widthPercent': 0.45, 'rescaleHeight': False, 'trialN': 56, 'loaded': True, 'loadedTime': 3698, 'positionName': 'RIGHT', 'positionCoords': [998.4, 335.5], 'bid': 0.9}]",75135,1669830251154,raspberries,hotdog w must,0.89,0.9,0.010000000000000009,hotdog w must,957,963,962,True,i,76603,1468,1669830252622,1468,HRV,HRV_0118,2022-11-30 17:46:59
57,"[{'imgObject': {}, 'id': 'granola w milk', 'src': '/static/foodstim60/granola w milk.jpg', 'key': 'u', 'origWidth': 410, 'origHeight': 410, 'width': 410, 'height': 410, 'widthPercent': 0.45, 'rescaleHeight': False, 'trialN': 57, 'loaded': True, 'loadedTime': 3684, 'positionName': 'LEFT', 'positionCoords': [511.6, 335], 'bid': 6.95}, {'imgObject': {}, 'id': 'turkeysandwich', 'src': '/static/foodstim60/turkeysandwich.jpg', 'key': 'i', 'origWidth': 409, 'origHeight': 409, 'width': 409, 'height': 409, 'widthPercent': 0.45, 'rescaleHeight': False, 'trialN': 57, 'loaded': True, 'loadedTime': 3641, 'positionName': 'RIGHT', 'positionCoords': [998.4, 335.5], 'bid': 9.08}]",76604,1669830252622,granola w milk,turkeysandwich,6.95,9.08,2.13,granola w milk,785,798,797,True,u,77914,1310,1669830253933,1311,HRV,HRV_0118,2022-11-30 17:46:59
58,"[{'imgObject': {}, 'id': 'mac & cheese', 'src': '/static/foodstim60/mac & cheese.jpg', 'key': 'u', 'origWidth': 410, 'origHeight': 410, 'width': 410, 'height': 410, 'widthPercent': 0.45, 'rescaleHeight': False, 'trialN': 58, 'loaded': True, 'loadedTime': 3690, 'positionName': 'LEFT', 'positionCoords': [511.6, 335], 'bid': 7.4}, {'imgObject': {}, 'id': 'cheerios', 'src': '/static/foodstim60/cheerios.jpg', 'key': 'i', 'origWidth': 409, 'origHeight': 410, 'width': 409, 'height': 410, 'widthPercent': 0.45, 'rescaleHeight': False, 'trialN': 58, 'loaded': True, 'loadedTime': 3622, 'positionName': 'RIGHT', 'positionCoords': [998.4, 335], 'bid': 7.76}]",77914,1669830253933,mac & cheese,cheerios,7.4,7.76,0.35999999999999943,mac & cheese,709,723,723,True,u,79153,1239,1669830255172,1239,HRV,HRV_0118,2022-11-30 17:46:59
59,"[{'imgObject': {}, 'id': 'hashbrowns', 'src': '/static/foodstim60/hashbrowns.jpg', 'key': 'u', 'origWidth': 411, 'origHeight': 410, 'width': 411, 'height': 410, 'widthPercent': 0.45, 'rescaleHeight': False, 'trialN': 59, 'loaded': True, 'loadedTime': 3648, 'positionName': 'LEFT', 'positionCoords': [510.6, 335], 'bid': 0.16}, {'imgObject': {}, 'id': 'cantaloupe', 'src': '/static/foodstim60/cantaloupe.jpg', 'key': 'i', 'origWidth': 409, 'origHeight': 409, 'width': 409, 'height': 409, 'widthPercent': 0.45, 'rescaleHeight': False, 'trialN': 59, 'loaded': True, 'loadedTime': 3695, 'positionName': 'RIGHT', 'positionCoords': [998.4, 335.5], 'bid': 0.17}]",79153,1669830255172,hashbrowns,cantaloupe,0.16,0.17,0.010000000000000009,cantaloupe,751,765,765,True,i,80422,1269,1669830256441,1269,HRV,HRV_0118,2022-11-30 17:46:59
60,"[{'imgObject': {}, 'id': 'bagel and cc', 'src': '/static/foodstim60/bagel and cc.jpg', 'key': 'u', 'origWidth': 410, 'origHeight': 410, 'width': 410, 'height': 410, 'widthPercent': 0.45, 'rescaleHeight': False, 'trialN': 60, 'loaded': True, 'loadedTime': 3661, 'positionName': 'LEFT', 'positionCoords': [511.6, 335], 'bid': 5.97}, {'imgObject': {}, 'id': 'popsicles', 'src': '/static/foodstim60/popsicles.jpg', 'key': 'i', 'origWidth': 410, 'origHeight': 410, 'width': 410, 'height': 410, 'widthPercent': 0.45, 'rescaleHeight': False, 'trialN': 60, 'loaded': True, 'loadedTime': 3692, 'positionName': 'RIGHT', 'positionCoords': [998.4, 335], 'bid': 5.73}]",80423,1669830256442,bagel and cc,popsicles,5.97,5.73,-0.23999999999999932,bagel and cc,652,666,665,True,u,81593,1170,1669830257613,1171,HRV,HRV_0118,2022-11-30 17:46:59
61,"[{'imgObject': {}, 'id': 'yogurt no spoon', 'src': '/static/foodstim60/yogurt no spoon.jpg', 'key': 'u', 'origWidth': 411, 'origHeight': 410, 'width': 411, 'height': 410, 'widthPercent': 0.45, 'rescaleHeight': False, 'trialN': 61, 'loaded': True, 'loadedTime': 3683, 'positionName': 'LEFT', 'positionCoords': [510.6, 335], 'bid': 0.1}, {'imgObject': {}, 'id': 'kiwi', 'src': '/static/foodstim60/kiwi.jpg', 'key': 'i', 'origWidth': 410, 'origHeight': 410, 'width': 410, 'height': 410, 'widthPercent': 0.45, 'rescaleHeight': False, 'trialN': 61, 'loaded': True, 'loadedTime': 3696, 'positionName': 'RIGHT', 'positionCoords': [998.4, 335], 'bid': 0.51}]",81593,1669830257613,yogurt no spoon,kiwi,0.1,0.51,0.41000000000000003,kiwi,717,731,732,True,i,82835,1242,1669830258853,1240,HRV,HRV_0118,2022-11-30 17:46:59
62,"[{'imgObject': {}, 'id': 'strawberries', 'src': '/static/foodstim60/strawberries.jpg', 'key': 'u', 'origWidth': 410, 'origHeight': 410, 'width': 410, 'height': 410, 'widthPercent': 0.45, 'rescaleHeight': False, 'trialN': 62, 'loaded': True, 'loadedTime': 3651, 'positionName': 'LEFT', 'positionCoords': [511.6, 335], 'bid': 0.13}, {'imgObject': {}, 'id': 'sushi w_condiments', 'src': '/static/foodstim60/sushi w_condiments.jpg', 'key': 'i', 'origWidth': 410, 'origHeight': 410, 'width': 410, 'height': 410, 'widthPercent': 0.45, 'rescaleHeight': False, 'trialN': 62, 'loaded': True, 'loadedTime': 3650, 'positionName': 'RIGHT', 'positionCoords': [998.4, 335], 'bid': 0.19}]",82835,1669830258853,strawberries,sushi w_condiments,0.13,0.19,0.06,sushi w_condiments,694,705,705,True,i,84049,1214,1669830260068,1215,HRV,HRV_0118,2022-11-30 17:46:59
63,"[{'imgObject': {}, 'id': 'shreddedwheatwithmilk', 'src': '/static/foodstim60/shreddedwheatwithmilk.jpg', 'key': 'u', 'origWidth': 410, 'origHeight': 410, 'width': 410, 'height': 410, 'widthPercent': 0.45, 'rescaleHeight': False, 'trialN': 63, 'loaded': True, 'loadedTime': 3687, 'positionName': 'LEFT', 'positionCoords': [511.6, 335], 'bid': 6.6000000000000005}, {'imgObject': {}, 'id': 'steak', 'src': '/static/foodstim60/steak.jpg', 'key': 'i', 'origWidth': 410, 'origHeight': 410, 'width': 410, 'height': 410, 'widthPercent': 0.45, 'rescaleHeight': False, 'trialN': 63, 'loaded': True, 'loadedTime': 3702, 'positionName': 'RIGHT', 'positionCoords': [998.4, 335], 'bid': 6.5}]",84050,1669830260068,shreddedwheatwithmilk,steak,6.6000000000000005,6.5,-0.10000000000000053,shreddedwheatwithmilk,761,772,771,True,u,85335,1285,1669830261354,1286,HRV,HRV_0118,2022-11-30 17:46:59
64,"[{'imgObject': {}, 'id': 'luckycharms', 'src': '/static/foodstim60/luckycharms.jpg', 'key': 'u', 'origWidth': 410, 'origHeight': 409, 'width': 410, 'height': 409, 'widthPercent': 0.45, 'rescaleHeight': False, 'trialN': 64, 'loaded': True, 'loadedTime': 3688, 'positionName': 'LEFT', 'positionCoords': [511.6, 335.5], 'bid': 2.38}, {'imgObject': {}, 'id': 'fruitsalad', 'src': '/static/foodstim60/fruitsalad.jpg', 'key': 'i', 'origWidth': 410, 'origHeight': 410, 'width': 410, 'height': 410, 'widthPercent': 0.45, 'rescaleHeight': False, 'trialN': 64, 'loaded': True, 'loadedTime': 3728, 'positionName': 'RIGHT', 'positionCoords': [998.4, 335], 'bid': 2.6}]",85336,1669830261354,luckycharms,fruitsalad,2.38,2.6,0.2200000000000002,luckycharms,959,967,966,True,u,86809,1473,1669830262828,1474,HRV,HRV_0118,2022-11-30 17:46:59
65,"[{'imgObject': {}, 'id': 'edamame', 'src': '/static/foodstim60/edamame.jpg', 'key': 'u', 'origWidth': 409, 'origHeight': 410, 'width': 409, 'height': 410, 'widthPercent': 0.45, 'rescaleHeight': False, 'trialN': 65, 'loaded': True, 'loadedTime': 3680, 'positionName': 'LEFT', 'positionCoords': [512.6, 335], 'bid': 5.07}, {'imgObject': {}, 'id': 'kiwi', 'src': '/static/foodstim60/kiwi.jpg', 'key': 'i', 'origWidth': 410, 'origHeight': 410, 'width': 410, 'height': 410, 'widthPercent': 0.45, 'rescaleHeight': False, 'trialN': 65, 'loaded': True, 'loadedTime': 3696, 'positionName': 'RIGHT', 'positionCoords': [998.4, 335], 'bid': 0.51}]",86809,1669830262828,edamame,kiwi,5.07,0.51,-4.5600000000000005,kiwi,969,972,972,True,i,88297,1488,1669830264316,1488,HRV,HRV_0118,2022-11-30 17:46:59
66,"[{'imgObject': {}, 'id': 'blueberries', 'src': '/static/foodstim60/blueberries.jpg', 'key': 'u', 'origWidth': 411, 'origHeight': 411, 'width': 411, 'height': 411, 'widthPercent': 0.45, 'rescaleHeight': False, 'trialN': 66, 'loaded': True, 'loadedTime': 3654, 'positionName': 'LEFT', 'positionCoords': [510.6, 334.5], 'bid': 5.94}, {'imgObject': {}, 'id': 'lox', 'src': '/static/foodstim60/lox.jpg', 'key': 'i', 'origWidth': 410, 'origHeight': 411, 'width': 410, 'height': 411, 'widthPercent': 0.45, 'rescaleHeight': False, 'trialN': 66, 'loaded': True, 'loadedTime': 3653, 'positionName': 'RIGHT', 'positionCoords': [998.4, 334.5], 'bid': 0.1}]",88297,1669830264316,blueberries,lox,5.94,0.1,-5.840000000000001,blueberries,717,722,722,True,u,89533,1236,1669830265552,1236,HRV,HRV_0118,2022-11-30 17:46:59
67,"[{'imgObject': {}, 'id': 'bagel and cc', 'src': '/static/foodstim60/bagel and cc.jpg', 'key': 'u', 'origWidth': 410, 'origHeight': 410, 'width': 410, 'height': 410, 'widthPercent': 0.45, 'rescaleHeight': False, 'trialN': 67, 'loaded': True, 'loadedTime': 3661, 'positionName': 'LEFT', 'positionCoords': [511.6, 335], 'bid': 5.97}, {'imgObject': {}, 'id': 'yogurt no spoon', 'src': '/static/foodstim60/yogurt no spoon.jpg', 'key': 'i', 'origWidth': 411, 'origHeight': 410, 'width': 411, 'height': 410, 'widthPercent': 0.45, 'rescaleHeight': False, 'trialN': 67, 'loaded': True, 'loadedTime': 3683, 'positionName': 'RIGHT', 'positionCoords': [998.4, 335], 'bid': 0.1}]",89533,1669830265552,bagel and cc,yogurt no spoon,5.97,0.1,-5.87,bagel and cc,714,724,723,True,u,90761,1228,1669830266780,1228,HRV,HRV_0118,2022-11-30 17:46:59
68,"[{'imgObject': {}, 'id': 'edamame', 'src': '/static/foodstim60/edamame.jpg', 'key': 'u', 'origWidth': 409, 'origHeight': 410, 'width': 409, 'height': 410, 'widthPercent': 0.45, 'rescaleHeight': False, 'trialN': 68, 'loaded': True, 'loadedTime': 3680, 'positionName': 'LEFT', 'positionCoords': [512.6, 335], 'bid': 5.07}, {'imgObject': {}, 'id': 'eggs', 'src': '/static/foodstim60/eggs.jpg', 'key': 'i', 'origWidth': 409, 'origHeight': 409, 'width': 409, 'height': 409, 'widthPercent': 0.45, 'rescaleHeight': False, 'trialN': 68, 'loaded': True, 'loadedTime': 3734, 'positionName': 'RIGHT', 'positionCoords': [998.4, 335.5], 'bid': 4.94}]",90761,1669830266780,edamame,eggs,5.07,4.94,-0.1299999999999999,edamame,736,754,753,True,u,92020,1259,1669830268039,1259,HRV,HRV_0118,2022-11-30 17:46:59
69,"[{'imgObject': {}, 'id': 'fruitsalad', 'src': '/static/foodstim60/fruitsalad.jpg', 'key': 'u', 'origWidth': 410, 'origHeight': 410, 'width': 410, 'height': 410, 'widthPercent': 0.45, 'rescaleHeight': False, 'trialN': 69, 'loaded': True, 'loadedTime': 3730, 'positionName': 'LEFT', 'positionCoords': [511.6, 335], 'bid': 2.6}, {'imgObject': {}, 'id': 'cantaloupe', 'src': '/static/foodstim60/cantaloupe.jpg', 'key': 'i', 'origWidth': 409, 'origHeight': 409, 'width': 409, 'height': 409, 'widthPercent': 0.45, 'rescaleHeight': False, 'trialN': 69, 'loaded': True, 'loadedTime': 3695, 'positionName': 'RIGHT', 'positionCoords': [998.4, 335.5], 'bid': 0.17}]",92020,1669830268039,fruitsalad,cantaloupe,2.6,0.17,-2.43,fruitsalad,899,907,907,True,u,93428,1408,1669830269446,1407,HRV,HRV_0118,2022-11-30 17:46:59
70,"[{'imgObject': {}, 'id': 'froot loops w milk', 'src': '/static/foodstim60/froot loops w milk.jpg', 'key': 'u', 'origWidth': 410, 'origHeight': 410, 'width': 410, 'height': 410, 'widthPercent': 0.45, 'rescaleHeight': False, 'trialN': 70, 'loaded': True, 'loadedTime': 3693, 'positionName': 'LEFT', 'positionCoords': [511.6, 335], 'bid': 7.09}, {'imgObject': {}, 'id': 'granola w milk', 'src': '/static/foodstim60/granola w milk.jpg', 'key': 'i', 'origWidth': 410, 'origHeight': 410, 'width': 410, 'height': 410, 'widthPercent': 0.45, 'rescaleHeight': False, 'trialN': 70, 'loaded': True, 'loadedTime': 3685, 'positionName': 'RIGHT', 'positionCoords': [998.4, 335], 'bid': 6.95}]",93428,1669830269446,froot loops w milk,granola w milk,7.09,6.95,-0.13999999999999968,granola w milk,928,935,933,True,i,94867,1439,1669830270887,1441,HRV,HRV_0118,2022-11-30 17:46:59
71,"[{'imgObject': {}, 'id': 'hashbrowns', 'src': '/static/foodstim60/hashbrowns.jpg', 'key': 'u', 'origWidth': 411, 'origHeight': 410, 'width': 411, 'height': 410, 'widthPercent': 0.45, 'rescaleHeight': False, 'trialN': 71, 'loaded': True, 'loadedTime': 3648, 'positionName': 'LEFT', 'positionCoords': [510.6, 335], 'bid': 0.16}, {'imgObject': {}, 'id': 'veggieswithdip', 'src': '/static/foodstim60/veggieswithdip.jpg', 'key': 'i', 'origWidth': 409, 'origHeight': 409, 'width': 409, 'height': 409, 'widthPercent': 0.45, 'rescaleHeight': False, 'trialN': 71, 'loaded': True, 'loadedTime': 3645, 'positionName': 'RIGHT', 'positionCoords': [998.4, 335.5], 'bid': 4.6000000000000005}]",94868,1669830270888,hashbrowns,veggieswithdip,0.16,4.6000000000000005,4.44,veggieswithdip,958,972,973,True,i,96349,1481,1669830272368,1480,HRV,HRV_0118,2022-11-30 17:46:59
72,"[{'imgObject': {}, 'id': 'corn cob', 'src': '/static/foodstim60/corn cob.jpg', 'key': 'u', 'origWidth': 411, 'origHeight': 411, 'width': 411, 'height': 411, 'widthPercent': 0.45, 'rescaleHeight': False, 'trialN': 72, 'loaded': True, 'loadedTime': 3655, 'positionName': 'LEFT', 'positionCoords': [510.6, 334.5], 'bid': 5.58}, {'imgObject': {}, 'id': 'steak', 'src': '/static/foodstim60/steak.jpg', 'key': 'i', 'origWidth': 410, 'origHeight': 410, 'width': 410, 'height': 410, 'widthPercent': 0.45, 'rescaleHeight': False, 'trialN': 72, 'loaded': True, 'loadedTime': 3703, 'positionName': 'RIGHT', 'positionCoords': [998.4, 335], 'bid': 6.5}]",96350,1669830272368,corn cob,steak,5.58,6.5,0.9199999999999999,steak,835,839,838,True,i,97694,1344,1669830273714,1346,HRV,HRV_0118,2022-11-30 17:46:59
73,"[{'imgObject': {}, 'id': 'apple slices', 'src': '/static/foodstim60/apple slices.jpg', 'key': 'u', 'origWidth': 409, 'origHeight': 410, 'width': 409, 'height': 410, 'widthPercent': 0.45, 'rescaleHeight': False, 'trialN': 73, 'loaded': True, 'loadedTime': 3634, 'positionName': 'LEFT', 'positionCoords': [512.6, 335], 'bid': 8.21}, {'imgObject': {}, 'id': 'tacos', 'src': '/static/foodstim60/tacos.jpg', 'key': 'i', 'origWidth': 411, 'origHeight': 411, 'width': 411, 'height': 411, 'widthPercent': 0.45, 'rescaleHeight': False, 'trialN': 73, 'loaded': True, 'loadedTime': 3719, 'positionName': 'RIGHT', 'positionCoords': [998.4, 334.5], 'bid': 8.1}]",97694,1669830273714,apple slices,tacos,8.21,8.1,-0.11000000000000121,tacos,897,906,906,True,i,99115,1421,1669830275133,1419,HRV,HRV_0118,2022-11-30 17:46:59
74,"[{'imgObject': {}, 'id': 'shreddedwheatwithmilk', 'src': '/static/foodstim60/shreddedwheatwithmilk.jpg', 'key': 'u', 'origWidth': 410, 'origHeight': 410, 'width': 410, 'height': 410, 'widthPercent': 0.45, 'rescaleHeight': False, 'trialN': 74, 'loaded': True, 'loadedTime': 3687, 'positionName': 'LEFT', 'positionCoords': [511.6, 335], 'bid': 6.6000000000000005}, {'imgObject': {}, 'id': 'cocktailshrimp', 'src': '/static/foodstim60/cocktailshrimp.jpg', 'key': 'i', 'origWidth': 410, 'origHeight': 410, 'width': 410, 'height': 410, 'widthPercent': 0.45, 'rescaleHeight': False, 'trialN': 74, 'loaded': True, 'loadedTime': 3708, 'positionName': 'RIGHT', 'positionCoords': [998.4, 335], 'bid': 0.13}]",99115,1669830275133,shreddedwheatwithmilk,cocktailshrimp,6.6000000000000005,0.13,-6.470000000000001,shreddedwheatwithmilk,774,790,788,True,u,100411,1296,1669830276430,1297,HRV,HRV_0118,2022-11-30 17:46:59
75,"[{'imgObject': {}, 'id': 'blackbeanswithrice', 'src': '/static/foodstim60/blackbeanswithrice.jpg', 'key': 'u', 'origWidth': 410, 'origHeight': 410, 'width': 410, 'height': 410, 'widthPercent': 0.45, 'rescaleHeight': False, 'trialN': 75, 'loaded': True, 'loadedTime': 3631, 'positionName': 'LEFT', 'positionCoords': [511.6, 335], 'bid': 5.01}, {'imgObject': {}, 'id': 'eggs', 'src': '/static/foodstim60/eggs.jpg', 'key': 'i', 'origWidth': 409, 'origHeight': 409, 'width': 409, 'height': 409, 'widthPercent': 0.45, 'rescaleHeight': False, 'trialN': 75, 'loaded': True, 'loadedTime': 3735, 'positionName': 'RIGHT', 'positionCoords': [998.4, 335.5], 'bid': 4.94}]",100411,1669830276430,blackbeanswithrice,eggs,5.01,4.94,-0.0699999999999994,blackbeanswithrice,805,817,818,True,u,101739,1328,1669830277758,1328,HRV,HRV_0118,2022-11-30 17:46:59
76,"[{'imgObject': {}, 'id': 'granola w milk', 'src': '/static/foodstim60/granola w milk.jpg', 'key': 'u', 'origWidth': 410, 'origHeight': 410, 'width': 410, 'height': 410, 'widthPercent': 0.45, 'rescaleHeight': False, 'trialN': 76, 'loaded': True, 'loadedTime': 3685, 'positionName': 'LEFT', 'positionCoords': [511.6, 335], 'bid': 6.95}, {'imgObject': {}, 'id': 'edamame', 'src': '/static/foodstim60/edamame.jpg', 'key': 'i', 'origWidth': 409, 'origHeight': 410, 'width': 409, 'height': 410, 'widthPercent': 0.45, 'rescaleHeight': False, 'trialN': 76, 'loaded': True, 'loadedTime': 3680, 'positionName': 'RIGHT', 'positionCoords': [998.4, 335], 'bid': 5.07}]",101739,1669830277758,granola w milk,edamame,6.95,5.07,-1.88,granola w milk,852,858,858,True,u,103104,1365,1669830279122,1364,HRV,HRV_0118,2022-11-30 17:46:59
77,"[{'imgObject': {}, 'id': 'roastedpotatoes', 'src': '/static/foodstim60/roastedpotatoes.jpg', 'key': 'u', 'origWidth': 409, 'origHeight': 410, 'width': 409, 'height': 410, 'widthPercent': 0.45, 'rescaleHeight': False, 'trialN': 77, 'loaded': True, 'loadedTime': 3638, 'positionName': 'LEFT', 'positionCoords': [512.6, 335], 'bid': 9.23}, {'imgObject': {}, 'id': 'turkey sandwich', 'src': '/static/foodstim60/turkey sandwich.jpg', 'key': 'i', 'origWidth': 409, 'origHeight': 409, 'width': 409, 'height': 409, 'widthPercent': 0.45, 'rescaleHeight': False, 'trialN': 77, 'loaded': True, 'loadedTime': 3634, 'positionName': 'RIGHT', 'positionCoords': [998.4, 335.5], 'bid': 8.1}]",103104,1669830279122,roastedpotatoes,turkey sandwich,9.23,8.1,-1.1300000000000008,roastedpotatoes,722,730,729,True,u,104347,1243,1669830280366,1244,HRV,HRV_0118,2022-11-30 17:46:59
78,"[{'imgObject': {}, 'id': 'cantaloupe', 'src': '/static/foodstim60/cantaloupe.jpg', 'key': 'u', 'origWidth': 409, 'origHeight': 409, 'width': 409, 'height': 409, 'widthPercent': 0.45, 'rescaleHeight': False, 'trialN': 78, 'loaded': True, 'loadedTime': 3695, 'positionName': 'LEFT', 'positionCoords': [512.6, 335.5], 'bid': 0.17}, {'imgObject': {}, 'id': 'eggs', 'src': '/static/foodstim60/eggs.jpg', 'key': 'i', 'origWidth': 409, 'origHeight': 409, 'width': 409, 'height': 409, 'widthPercent': 0.45, 'rescaleHeight': False, 'trialN': 78, 'loaded': True, 'loadedTime': 3736, 'positionName': 'RIGHT', 'positionCoords': [998.4, 335.5], 'bid': 4.94}]",104347,1669830280366,cantaloupe,eggs,0.17,4.94,4.7700000000000005,eggs,807,811,811,True,i,105668,1321,1669830281687,1321,HRV,HRV_0118,2022-11-30 17:46:59
79,"[{'imgObject': {}, 'id': 'grilled chicken strips', 'src': '/static/foodstim60/grilled chicken strips.jpg', 'key': 'u', 'origWidth': 410, 'origHeight': 411, 'width': 410, 'height': 411, 'widthPercent': 0.45, 'rescaleHeight': False, 'trialN': 79, 'loaded': True, 'loadedTime': 3678, 'positionName': 'LEFT', 'positionCoords': [511.6, 334.5], 'bid': 9.42}, {'imgObject': {}, 'id': 'burrito', 'src': '/static/foodstim60/burrito.jpg', 'key': 'i', 'origWidth': 410, 'origHeight': 410, 'width': 410, 'height': 410, 'widthPercent': 0.45, 'rescaleHeight': False, 'trialN': 79, 'loaded': True, 'loadedTime': 3643, 'positionName': 'RIGHT', 'positionCoords': [998.4, 335], 'bid': 5.72}]",105668,1669830281687,grilled chicken strips,burrito,9.42,5.72,-3.7,grilled chicken strips,689,705,705,True,u,106884,1216,1669830282903,1216,HRV,HRV_0118,2022-11-30 17:46:59
80,"[{'imgObject': {}, 'id': 'steak', 'src': '/static/foodstim60/steak.jpg', 'key': 'u', 'origWidth': 410, 'origHeight': 410, 'width': 410, 'height': 410, 'widthPercent': 0.45, 'rescaleHeight': False, 'trialN': 80, 'loaded': True, 'loadedTime': 3705, 'positionName': 'LEFT', 'positionCoords': [511.6, 335], 'bid': 6.5}, {'imgObject': {}, 'id': 'veggieswithdip', 'src': '/static/foodstim60/veggieswithdip.jpg', 'key': 'i', 'origWidth': 409, 'origHeight': 409, 'width': 409, 'height': 409, 'widthPercent': 0.45, 'rescaleHeight': False, 'trialN': 80, 'loaded': True, 'loadedTime': 3645, 'positionName': 'RIGHT', 'positionCoords': [998.4, 335.5], 'bid': 4.6000000000000005}]",106884,1669830282903,steak,veggieswithdip,6.5,4.6000000000000005,-1.8999999999999995,steak,598,614,615,True,u,108006,1122,1669830284025,1122,HRV,HRV_0118,2022-11-30 17:46:59
81,"[{'imgObject': {}, 'id': 'baked potato', 'src': '/static/foodstim60/baked potato.jpg', 'key': 'u', 'origWidth': 409, 'origHeight': 410, 'width': 409, 'height': 410, 'widthPercent': 0.45, 'rescaleHeight': False, 'trialN': 81, 'loaded': True, 'loadedTime': 3632, 'positionName': 'LEFT', 'positionCoords': [512.6, 335], 'bid': 9.12}, {'imgObject': {}, 'id': 'rigatoni and sauce', 'src': '/static/foodstim60/rigatoni and sauce.jpg', 'key': 'i', 'origWidth': 410, 'origHeight': 411, 'width': 410, 'height': 411, 'widthPercent': 0.45, 'rescaleHeight': False, 'trialN': 81, 'loaded': True, 'loadedTime': 3659, 'positionName': 'RIGHT', 'positionCoords': [998.4, 334.5], 'bid': 8.77}]",108006,1669830284025,baked potato,rigatoni and sauce,9.12,8.77,-0.34999999999999964,baked potato,680,685,686,True,u,109193,1187,1669830285212,1187,HRV,HRV_0118,2022-11-30 17:46:59
82,"[{'imgObject': {}, 'id': 'edamame', 'src': '/static/foodstim60/edamame.jpg', 'key': 'u', 'origWidth': 409, 'origHeight': 410, 'width': 409, 'height': 410, 'widthPercent': 0.45, 'rescaleHeight': False, 'trialN': 82, 'loaded': True, 'loadedTime': 3680, 'positionName': 'LEFT', 'positionCoords': [512.6, 335], 'bid': 5.07}, {'imgObject': {}, 'id': 'corn cob', 'src': '/static/foodstim60/corn cob.jpg', 'key': 'i', 'origWidth': 411, 'origHeight': 411, 'width': 411, 'height': 411, 'widthPercent': 0.45, 'rescaleHeight': False, 'trialN': 82, 'loaded': True, 'loadedTime': 3655, 'positionName': 'RIGHT', 'positionCoords': [998.4, 334.5], 'bid': 5.58}]",109193,1669830285212,edamame,corn cob,5.07,5.58,0.5099999999999998,corn cob,679,691,691,True,i,110398,1205,1669830286417,1205,HRV,HRV_0118,2022-11-30 17:46:59
83,"[{'imgObject': {}, 'id': 'bagel plain', 'src': '/static/foodstim60/bagel plain.jpg', 'key': 'u', 'origWidth': 410, 'origHeight': 410, 'width': 410, 'height': 410, 'widthPercent': 0.45, 'rescaleHeight': False, 'trialN': 83, 'loaded': True, 'loadedTime': 3627, 'positionName': 'LEFT', 'positionCoords': [511.6, 335], 'bid': 6.16}, {'imgObject': {}, 'id': 'mashed potato', 'src': '/static/foodstim60/mashed potato.jpg', 'key': 'i', 'origWidth': 409, 'origHeight': 409, 'width': 409, 'height': 409, 'widthPercent': 0.45, 'rescaleHeight': False, 'trialN': 83, 'loaded': True, 'loadedTime': 3643, 'positionName': 'RIGHT', 'positionCoords': [998.4, 335.5], 'bid': 6.54}]",110398,1669830286417,bagel plain,mashed potato,6.16,6.54,0.3799999999999999,bagel plain,694,701,701,True,u,111600,1202,1669830287619,1202,HRV,HRV_0118,2022-11-30 17:46:59
84,"[{'imgObject': {}, 'id': 'salmon', 'src': '/static/foodstim60/salmon.jpg', 'key': 'u', 'origWidth': 410, 'origHeight': 409, 'width': 410, 'height': 409, 'widthPercent': 0.45, 'rescaleHeight': False, 'trialN': 84, 'loaded': True, 'loadedTime': 3664, 'positionName': 'LEFT', 'positionCoords': [511.6, 335.5], 'bid': 0.16}, {'imgObject': {}, 'id': 'seaweed', 'src': '/static/foodstim60/seaweed.jpg', 'key': 'i', 'origWidth': 410, 'origHeight': 410, 'width': 410, 'height': 410, 'widthPercent': 0.45, 'rescaleHeight': False, 'trialN': 84, 'loaded': True, 'loadedTime': 3675, 'positionName': 'RIGHT', 'positionCoords': [998.4, 335], 'bid': 0.15}]",111600,1669830287620,salmon,seaweed,0.16,0.15,-0.010000000000000009,seaweed,710,712,713,True,i,112819,1219,1669830288838,1218,HRV,HRV_0118,2022-11-30 17:46:59
85,"[{'imgObject': {}, 'id': 'ice cream sundae 002', 'src': '/static/foodstim60/ice cream sundae 002.jpg', 'key': 'u', 'origWidth': 409, 'origHeight': 409, 'width': 409, 'height': 409, 'widthPercent': 0.45, 'rescaleHeight': False, 'trialN': 85, 'loaded': True, 'loadedTime': 3740, 'positionName': 'LEFT', 'positionCoords': [512.6, 335.5], 'bid': 0.13}, {'imgObject': {}, 'id': 'yogurt no spoon', 'src': '/static/foodstim60/yogurt no spoon.jpg', 'key': 'i', 'origWidth': 411, 'origHeight': 410, 'width': 411, 'height': 410, 'widthPercent': 0.45, 'rescaleHeight': False, 'trialN': 85, 'loaded': True, 'loadedTime': 3683, 'positionName': 'RIGHT', 'positionCoords': [998.4, 335], 'bid': 0.1}]",112819,1669830288838,ice cream sundae 002,yogurt no spoon,0.13,0.1,-0.03,yogurt no spoon,882,885,885,True,i,114219,1400,1669830290238,1400,HRV,HRV_0118,2022-11-30 17:46:59
86,"[{'imgObject': {}, 'id': 'olives', 'src': '/static/foodstim60/olives.jpg', 'key': 'u', 'origWidth': 410, 'origHeight': 410, 'width': 410, 'height': 410, 'widthPercent': 0.45, 'rescaleHeight': False, 'trialN': 86, 'loaded': True, 'loadedTime': 3656, 'positionName': 'LEFT', 'positionCoords': [511.6, 335], 'bid': 0.58}, {'imgObject': {}, 'id': 'eggsalad', 'src': '/static/foodstim60/eggsalad.jpg', 'key': 'i', 'origWidth': 410, 'origHeight': 409, 'width': 410, 'height': 409, 'widthPercent': 0.45, 'rescaleHeight': False, 'trialN': 86, 'loaded': True, 'loadedTime': 3629, 'positionName': 'RIGHT', 'positionCoords': [998.4, 335.5], 'bid': 0.11}]",114219,1669830290238,olives,eggsalad,0.58,0.11,-0.47,eggsalad,794,809,809,True,i,115532,1313,1669830291551,1313,HRV,HRV_0118,2022-11-30 17:46:59
87,"[{'imgObject': {}, 'id': 'roastedpotatoes', 'src': '/static/foodstim60/roastedpotatoes.jpg', 'key': 'u', 'origWidth': 409, 'origHeight': 410, 'width': 409, 'height': 410, 'widthPercent': 0.45, 'rescaleHeight': False, 'trialN': 87, 'loaded': True, 'loadedTime': 3638, 'positionName': 'LEFT', 'positionCoords': [512.6, 335], 'bid': 9.23}, {'imgObject': {}, 'id': 'grilled chicken strips', 'src': '/static/foodstim60/grilled chicken strips.jpg', 'key': 'i', 'origWidth': 410, 'origHeight': 411, 'width': 410, 'height': 411, 'widthPercent': 0.45, 'rescaleHeight': False, 'trialN': 87, 'loaded': True, 'loadedTime': 3678, 'positionName': 'RIGHT', 'positionCoords': [998.4, 334.5], 'bid': 9.42}]",115532,1669830291551,roastedpotatoes,grilled chicken strips,9.23,9.42,0.1899999999999995,roastedpotatoes,841,844,843,True,u,116876,1344,1669830292895,1344,HRV,HRV_0118,2022-11-30 17:46:59
88,"[{'imgObject': {}, 'id': 'corn cob', 'src': '/static/foodstim60/corn cob.jpg', 'key': 'u', 'origWidth': 411, 'origHeight': 411, 'width': 411, 'height': 411, 'widthPercent': 0.45, 'rescaleHeight': False, 'trialN': 88, 'loaded': True, 'loadedTime': 3655, 'positionName': 'LEFT', 'positionCoords': [510.6, 334.5], 'bid': 5.58}, {'imgObject': {}, 'id': 'blackbeanswithrice', 'src': '/static/foodstim60/blackbeanswithrice.jpg', 'key': 'i', 'origWidth': 410, 'origHeight': 410, 'width': 410, 'height': 410, 'widthPercent': 0.45, 'rescaleHeight': False, 'trialN': 88, 'loaded': True, 'loadedTime': 3631, 'positionName': 'RIGHT', 'positionCoords': [998.4, 335], 'bid': 5.01}]",116876,1669830292895,corn cob,blackbeanswithrice,5.58,5.01,-0.5700000000000003,corn cob,699,714,714,True,u,118094,1218,1669830294113,1218,HRV,HRV_0118,2022-11-30 17:46:59
89,"[{'imgObject': {}, 'id': 'raspberries', 'src': '/static/foodstim60/raspberries.jpg', 'key': 'u', 'origWidth': 411, 'origHeight': 411, 'width': 411, 'height': 411, 'widthPercent': 0.45, 'rescaleHeight': False, 'trialN': 89, 'loaded': True, 'loadedTime': 3725, 'positionName': 'LEFT', 'positionCoords': [510.6, 334.5], 'bid': 0.89}, {'imgObject': {}, 'id': 'omelette', 'src': '/static/foodstim60/omelette.jpg', 'key': 'i', 'origWidth': 410, 'origHeight': 409, 'width': 410, 'height': 409, 'widthPercent': 0.45, 'rescaleHeight': False, 'trialN': 89, 'loaded': True, 'loadedTime': 3666, 'positionName': 'RIGHT', 'positionCoords': [998.4, 335.5], 'bid': 7.87}]",118094,1669830294113,raspberries,omelette,0.89,7.87,6.98,omelette,654,666,666,True,i,119265,1171,1669830295284,1171,HRV,HRV_0118,2022-11-30 17:46:59
90,"[{'imgObject': {}, 'id': 'eggs', 'src': '/static/foodstim60/eggs.jpg', 'key': 'u', 'origWidth': 409, 'origHeight': 409, 'width': 409, 'height': 409, 'widthPercent': 0.45, 'rescaleHeight': False, 'trialN': 90, 'loaded': True, 'loadedTime': 3737, 'positionName': 'LEFT', 'positionCoords': [512.6, 335.5], 'bid': 4.94}, {'imgObject': {}, 'id': 'mashed potato', 'src': '/static/foodstim60/mashed potato.jpg', 'key': 'i', 'origWidth': 409, 'origHeight': 409, 'width': 409, 'height': 409, 'widthPercent': 0.45, 'rescaleHeight': False, 'trialN': 90, 'loaded': True, 'loadedTime': 3643, 'positionName': 'RIGHT', 'positionCoords': [998.4, 335.5], 'bid': 6.54}]",125045,1669830301064,eggs,mashed potato,4.94,6.54,1.5999999999999996,mashed potato,1219,1230,1231,True,i,126783,1738,1669830302802,1738,HRV,HRV_0118,2022-11-30 17:46:59
91,"[{'imgObject': {}, 'id': 'baked potato', 'src': '/static/foodstim60/baked potato.jpg', 'key': 'u', 'origWidth': 409, 'origHeight': 410, 'width': 409, 'height': 410, 'widthPercent': 0.45, 'rescaleHeight': False, 'trialN': 91, 'loaded': True, 'loadedTime': 3632, 'positionName': 'LEFT', 'positionCoords': [512.6, 335], 'bid': 9.12}, {'imgObject': {}, 'id': 'mac & cheese', 'src': '/static/foodstim60/mac & cheese.jpg', 'key': 'i', 'origWidth': 410, 'origHeight': 410, 'width': 410, 'height': 410, 'widthPercent': 0.45, 'rescaleHeight': False, 'trialN': 91, 'loaded': True, 'loadedTime': 3690, 'positionName': 'RIGHT', 'positionCoords': [998.4, 335], 'bid': 7.4}]",126783,1669830302803,baked potato,mac & cheese,9.12,7.4,-1.7199999999999989,baked potato,684,683,685,True,u,127983,1200,1669830304002,1199,HRV,HRV_0118,2022-11-30 17:46:59
92,"[{'imgObject': {}, 'id': 'ice cream sundae 002', 'src': '/static/foodstim60/ice cream sundae 002.jpg', 'key': 'u', 'origWidth': 409, 'origHeight': 409, 'width': 409, 'height': 409, 'widthPercent': 0.45, 'rescaleHeight': False, 'trialN': 92, 'loaded': True, 'loadedTime': 3742, 'positionName': 'LEFT', 'positionCoords': [512.6, 335.5], 'bid': 0.13}, {'imgObject': {}, 'id': 'eggsalad', 'src': '/static/foodstim60/eggsalad.jpg', 'key': 'i', 'origWidth': 410, 'origHeight': 409, 'width': 410, 'height': 409, 'widthPercent': 0.45, 'rescaleHeight': False, 'trialN': 92, 'loaded': True, 'loadedTime': 3629, 'positionName': 'RIGHT', 'positionCoords': [998.4, 335.5], 'bid': 0.11}]",127983,1669830304002,ice cream sundae 002,eggsalad,0.13,0.11,-0.020000000000000004,eggsalad,671,677,677,True,i,129167,1184,1669830305186,1184,HRV,HRV_0118,2022-11-30 17:46:59
93,"[{'imgObject': {}, 'id': 'hashbrowns', 'src': '/static/foodstim60/hashbrowns.jpg', 'key': 'u', 'origWidth': 411, 'origHeight': 410, 'width': 411, 'height': 410, 'widthPercent': 0.45, 'rescaleHeight': False, 'trialN': 93, 'loaded': True, 'loadedTime': 3648, 'positionName': 'LEFT', 'positionCoords': [510.6, 335], 'bid': 0.16}, {'imgObject': {}, 'id': 'luckycharms', 'src': '/static/foodstim60/luckycharms.jpg', 'key': 'i', 'origWidth': 410, 'origHeight': 409, 'width': 410, 'height': 409, 'widthPercent': 0.45, 'rescaleHeight': False, 'trialN': 93, 'loaded': True, 'loadedTime': 3688, 'positionName': 'RIGHT', 'positionCoords': [998.4, 335.5], 'bid': 2.38}]",129167,1669830305186,hashbrowns,luckycharms,0.16,2.38,2.2199999999999998,luckycharms,722,730,730,True,i,130402,1235,1669830306421,1235,HRV,HRV_0118,2022-11-30 17:46:59
94,"[{'imgObject': {}, 'id': 'steak', 'src': '/static/foodstim60/steak.jpg', 'key': 'u', 'origWidth': 410, 'origHeight': 410, 'width': 410, 'height': 410, 'widthPercent': 0.45, 'rescaleHeight': False, 'trialN': 94, 'loaded': True, 'loadedTime': 3706, 'positionName': 'LEFT', 'positionCoords': [511.6, 335], 'bid': 6.5}, {'imgObject': {}, 'id': 'ice cream sundae 002', 'src': '/static/foodstim60/ice cream sundae 002.jpg', 'key': 'i', 'origWidth': 409, 'origHeight': 409, 'width': 409, 'height': 409, 'widthPercent': 0.45, 'rescaleHeight': False, 'trialN': 94, 'loaded': True, 'loadedTime': 3743, 'positionName': 'RIGHT', 'positionCoords': [998.4, 335.5], 'bid': 0.13}]",130402,1669830306421,steak,ice cream sundae 002,6.5,0.13,-6.37,steak,751,753,754,True,u,131665,1263,1669830307684,1263,HRV,HRV_0118,2022-11-30 17:46:59
95,"[{'imgObject': {}, 'id': 'pear', 'src': '/static/foodstim60/pear.jpg', 'key': 'u', 'origWidth': 411, 'origHeight': 410, 'width': 411, 'height': 410, 'widthPercent': 0.45, 'rescaleHeight': False, 'trialN': 95, 'loaded': True, 'loadedTime': 3673, 'positionName': 'LEFT', 'positionCoords': [510.6, 335], 'bid': 9.1}, {'imgObject': {}, 'id': 'baked potato', 'src': '/static/foodstim60/baked potato.jpg', 'key': 'i', 'origWidth': 409, 'origHeight': 410, 'width': 409, 'height': 410, 'widthPercent': 0.45, 'rescaleHeight': False, 'trialN': 95, 'loaded': True, 'loadedTime': 3632, 'positionName': 'RIGHT', 'positionCoords': [998.4, 335], 'bid': 9.12}]",131665,1669830307684,pear,baked potato,9.1,9.12,0.019999999999999574,baked potato,724,727,727,True,i,132900,1235,1669830308920,1236,HRV,HRV_0118,2022-11-30 17:46:59
96,"[{'imgObject': {}, 'id': 'salad w chicken', 'src': '/static/foodstim60/salad w chicken.jpg', 'key': 'u', 'origWidth': 411, 'origHeight': 411, 'width': 411, 'height': 411, 'widthPercent': 0.45, 'rescaleHeight': False, 'trialN': 96, 'loaded': True, 'loadedTime': 3670, 'positionName': 'LEFT', 'positionCoords': [510.6, 334.5], 'bid': 8.59}, {'imgObject': {}, 'id': 'luckycharms', 'src': '/static/foodstim60/luckycharms.jpg', 'key': 'i', 'origWidth': 410, 'origHeight': 409, 'width': 410, 'height': 409, 'widthPercent': 0.45, 'rescaleHeight': False, 'trialN': 96, 'loaded': True, 'loadedTime': 3688, 'positionName': 'RIGHT', 'positionCoords': [998.4, 335.5], 'bid': 2.38}]",132900,1669830308920,salad w chicken,luckycharms,8.59,2.38,-6.21,salad w chicken,692,706,707,True,u,134119,1219,1669830310138,1218,HRV,HRV_0118,2022-11-30 17:46:59
97,"[{'imgObject': {}, 'id': 'salmon', 'src': '/static/foodstim60/salmon.jpg', 'key': 'u', 'origWidth': 410, 'origHeight': 409, 'width': 410, 'height': 409, 'widthPercent': 0.45, 'rescaleHeight': False, 'trialN': 97, 'loaded': True, 'loadedTime': 3664, 'positionName': 'LEFT', 'positionCoords': [511.6, 335.5], 'bid': 0.16}, {'imgObject': {}, 'id': 'yogurt no spoon', 'src': '/static/foodstim60/yogurt no spoon.jpg', 'key': 'i', 'origWidth': 411, 'origHeight': 410, 'width': 411, 'height': 410, 'widthPercent': 0.45, 'rescaleHeight': False, 'trialN': 97, 'loaded': True, 'loadedTime': 3683, 'positionName': 'RIGHT', 'positionCoords': [998.4, 335], 'bid': 0.1}]",134119,1669830310138,salmon,yogurt no spoon,0.16,0.1,-0.06,yogurt no spoon,722,725,724,True,i,135351,1232,1669830311369,1231,HRV,HRV_0118,2022-11-30 17:46:59
98,"[{'imgObject': {}, 'id': 'sushi w_condiments', 'src': '/static/foodstim60/sushi w_condiments.jpg', 'key': 'u', 'origWidth': 410, 'origHeight': 410, 'width': 410, 'height': 410, 'widthPercent': 0.45, 'rescaleHeight': False, 'trialN': 98, 'loaded': True, 'loadedTime': 3650, 'positionName': 'LEFT', 'positionCoords': [511.6, 335], 'bid': 0.19}, {'imgObject': {}, 'id': 'lox', 'src': '/static/foodstim60/lox.jpg', 'key': 'i', 'origWidth': 410, 'origHeight': 411, 'width': 410, 'height': 411, 'widthPercent': 0.45, 'rescaleHeight': False, 'trialN': 98, 'loaded': True, 'loadedTime': 3653, 'positionName': 'RIGHT', 'positionCoords': [998.4, 334.5], 'bid': 0.1}]",135351,1669830311369,sushi w_condiments,lox,0.19,0.1,-0.09,sushi w_condiments,834,840,839,True,u,136700,1349,1669830312719,1350,HRV,HRV_0118,2022-11-30 17:46:59
99,"[{'imgObject': {}, 'id': 'avocado', 'src': '/static/foodstim60/avocado.jpg', 'key': 'u', 'origWidth': 409, 'origHeight': 409, 'width': 409, 'height': 409, 'widthPercent': 0.45, 'rescaleHeight': False, 'trialN': 99, 'loaded': True, 'loadedTime': 3627, 'positionName': 'LEFT', 'positionCoords': [512.6, 335.5], 'bid': 2.67}, {'imgObject': {}, 'id': 'blueberries', 'src': '/static/foodstim60/blueberries.jpg', 'key': 'i', 'origWidth': 411, 'origHeight': 411, 'width': 411, 'height': 411, 'widthPercent': 0.45, 'rescaleHeight': False, 'trialN': 99, 'loaded': True, 'loadedTime': 3654, 'positionName': 'RIGHT', 'positionCoords': [998.4, 334.5], 'bid': 5.94}]",136700,1669830312719,avocado,blueberries,2.67,5.94,3.2700000000000005,avocado,735,748,749,True,u,137953,1253,1669830313971,1252,HRV,HRV_0118,2022-11-30 17:46:59
100,"[{'imgObject': {}, 'id': 'apple slices', 'src': '/static/foodstim60/apple slices.jpg', 'key': 'u', 'origWidth': 409, 'origHeight': 410, 'width': 409, 'height': 410, 'widthPercent': 0.45, 'rescaleHeight': False, 'trialN': 100, 'loaded': True, 'loadedTime': 3634, 'positionName': 'LEFT', 'positionCoords': [512.6, 335], 'bid': 8.21}, {'imgObject': {}, 'id': 'burger', 'src': '/static/foodstim60/burger.jpg', 'key': 'i', 'origWidth': 409, 'origHeight': 409, 'width': 409, 'height': 409, 'widthPercent': 0.45, 'rescaleHeight': False, 'trialN': 100, 'loaded': True, 'loadedTime': 3640, 'positionName': 'RIGHT', 'positionCoords': [998.4, 335.5], 'bid': 9.39}]",137953,1669830313972,apple slices,burger,8.21,9.39,1.1799999999999997,burger,716,732,732,True,i,139198,1245,1669830315217,1245,HRV,HRV_0118,2022-11-30 17:46:59
101,"[{'imgObject': {}, 'id': 'popsicles', 'src': '/static/foodstim60/popsicles.jpg', 'key': 'u', 'origWidth': 410, 'origHeight': 410, 'width': 410, 'height': 410, 'widthPercent': 0.45, 'rescaleHeight': False, 'trialN': 101, 'loaded': True, 'loadedTime': 3692, 'positionName': 'LEFT', 'positionCoords': [511.6, 335], 'bid': 5.73}, {'imgObject': {}, 'id': 'raspberries', 'src': '/static/foodstim60/raspberries.jpg', 'key': 'i', 'origWidth': 411, 'origHeight': 411, 'width': 411, 'height': 411, 'widthPercent': 0.45, 'rescaleHeight': False, 'trialN': 101, 'loaded': True, 'loadedTime': 3725, 'positionName': 'RIGHT', 'positionCoords': [998.4, 334.5], 'bid': 0.89}]",139199,1669830315217,popsicles,raspberries,5.73,0.89,-4.840000000000001,popsicles,720,725,723,True,u,140435,1236,1669830316454,1237,HRV,HRV_0118,2022-11-30 17:46:59
102,"[{'imgObject': {}, 'id': 'fried eggs', 'src': '/static/foodstim60/fried eggs.jpg', 'key': 'u', 'origWidth': 410, 'origHeight': 410, 'width': 410, 'height': 410, 'widthPercent': 0.45, 'rescaleHeight': False, 'trialN': 102, 'loaded': True, 'loadedTime': 3625, 'positionName': 'LEFT', 'positionCoords': [511.6, 335], 'bid': 3.5700000000000003}, {'imgObject': {}, 'id': 'bagel plain', 'src': '/static/foodstim60/bagel plain.jpg', 'key': 'i', 'origWidth': 410, 'origHeight': 410, 'width': 410, 'height': 410, 'widthPercent': 0.45, 'rescaleHeight': False, 'trialN': 102, 'loaded': True, 'loadedTime': 3627, 'positionName': 'RIGHT', 'positionCoords': [998.4, 335], 'bid': 6.16}]",140435,1669830316454,fried eggs,bagel plain,3.5700000000000003,6.16,2.59,bagel plain,750,767,767,True,i,141715,1280,1669830317733,1279,HRV,HRV_0118,2022-11-30 17:46:59
103,"[{'imgObject': {}, 'id': 'seaweed', 'src': '/static/foodstim60/seaweed.jpg', 'key': 'u', 'origWidth': 410, 'origHeight': 410, 'width': 410, 'height': 410, 'widthPercent': 0.45, 'rescaleHeight': False, 'trialN': 103, 'loaded': True, 'loadedTime': 3675, 'positionName': 'LEFT', 'positionCoords': [511.6, 335], 'bid': 0.15}, {'imgObject': {}, 'id': 'granola w milk', 'src': '/static/foodstim60/granola w milk.jpg', 'key': 'i', 'origWidth': 410, 'origHeight': 410, 'width': 410, 'height': 410, 'widthPercent': 0.45, 'rescaleHeight': False, 'trialN': 103, 'loaded': True, 'loadedTime': 3685, 'positionName': 'RIGHT', 'positionCoords': [998.4, 335], 'bid': 6.95}]",141715,1669830317733,seaweed,granola w milk,0.15,6.95,6.8,granola w milk,908,923,922,True,i,143153,1438,1669830319172,1439,HRV,HRV_0118,2022-11-30 17:46:59
104,"[{'imgObject': {}, 'id': 'pear', 'src': '/static/foodstim60/pear.jpg', 'key': 'u', 'origWidth': 411, 'origHeight': 410, 'width': 411, 'height': 410, 'widthPercent': 0.45, 'rescaleHeight': False, 'trialN': 104, 'loaded': True, 'loadedTime': 3673, 'positionName': 'LEFT', 'positionCoords': [510.6, 335], 'bid': 9.1}, {'imgObject': {}, 'id': 'orange slices', 'src': '/static/foodstim60/orange slices.jpg', 'key': 'i', 'origWidth': 409, 'origHeight': 410, 'width': 409, 'height': 410, 'widthPercent': 0.45, 'rescaleHeight': False, 'trialN': 104, 'loaded': True, 'loadedTime': 3712, 'positionName': 'RIGHT', 'positionCoords': [998.4, 335], 'bid': 7.25}]",143153,1669830319172,pear,orange slices,9.1,7.25,-1.8499999999999996,pear,782,788,788,True,u,144450,1297,1669830320469,1297,HRV,HRV_0118,2022-11-30 17:46:59
105,"[{'imgObject': {}, 'id': 'banana', 'src': '/static/foodstim60/banana.jpg', 'key': 'u', 'origWidth': 410, 'origHeight': 410, 'width': 410, 'height': 410, 'widthPercent': 0.45, 'rescaleHeight': False, 'trialN': 105, 'loaded': True, 'loadedTime': 3639, 'positionName': 'LEFT', 'positionCoords': [511.6, 335], 'bid': 9}, {'imgObject': {}, 'id': 'mac & cheese', 'src': '/static/foodstim60/mac & cheese.jpg', 'key': 'i', 'origWidth': 410, 'origHeight': 410, 'width': 410, 'height': 410, 'widthPercent': 0.45, 'rescaleHeight': False, 'trialN': 105, 'loaded': True, 'loadedTime': 3690, 'positionName': 'RIGHT', 'positionCoords': [998.4, 335], 'bid': 7.4}]",144450,1669830320469,banana,mac & cheese,9.0,7.4,-1.5999999999999996,banana,689,705,705,True,u,145664,1214,1669830321683,1214,HRV,HRV_0118,2022-11-30 17:46:59
106,"[{'imgObject': {}, 'id': 'fruitsalad', 'src': '/static/foodstim60/fruitsalad.jpg', 'key': 'u', 'origWidth': 410, 'origHeight': 410, 'width': 410, 'height': 410, 'widthPercent': 0.45, 'rescaleHeight': False, 'trialN': 106, 'loaded': True, 'loadedTime': 3730, 'positionName': 'LEFT', 'positionCoords': [511.6, 335], 'bid': 2.6}, {'imgObject': {}, 'id': 'strawberries', 'src': '/static/foodstim60/strawberries.jpg', 'key': 'i', 'origWidth': 410, 'origHeight': 410, 'width': 410, 'height': 410, 'widthPercent': 0.45, 'rescaleHeight': False, 'trialN': 106, 'loaded': True, 'loadedTime': 3651, 'positionName': 'RIGHT', 'positionCoords': [998.4, 335], 'bid': 0.13}]",145664,1669830321683,fruitsalad,strawberries,2.6,0.13,-2.47,fruitsalad,974,991,991,True,u,147155,1491,1669830323173,1490,HRV,HRV_0118,2022-11-30 17:46:59
107,"[{'imgObject': {}, 'id': 'grilled chicken strips', 'src': '/static/foodstim60/grilled chicken strips.jpg', 'key': 'u', 'origWidth': 410, 'origHeight': 411, 'width': 410, 'height': 411, 'widthPercent': 0.45, 'rescaleHeight': False, 'trialN': 107, 'loaded': True, 'loadedTime': 3678, 'positionName': 'LEFT', 'positionCoords': [511.6, 334.5], 'bid': 9.42}, {'imgObject': {}, 'id': 'chickenfingers', 'src': '/static/foodstim60/chickenfingers.jpg', 'key': 'i', 'origWidth': 410, 'origHeight': 410, 'width': 410, 'height': 410, 'widthPercent': 0.45, 'rescaleHeight': False, 'trialN': 107, 'loaded': True, 'loadedTime': 3658, 'positionName': 'RIGHT', 'positionCoords': [998.4, 335], 'bid': 9.85}]",147155,1669830323173,grilled chicken strips,chickenfingers,9.42,9.85,0.4299999999999997,grilled chicken strips,701,715,715,True,u,148374,1219,1669830324393,1220,HRV,HRV_0118,2022-11-30 17:46:59
108,"[{'imgObject': {}, 'id': 'cherry tomato', 'src': '/static/foodstim60/cherry tomato.jpg', 'key': 'u', 'origWidth': 410, 'origHeight': 410, 'width': 410, 'height': 410, 'widthPercent': 0.45, 'rescaleHeight': False, 'trialN': 108, 'loaded': True, 'loadedTime': 3679, 'positionName': 'LEFT', 'positionCoords': [511.6, 335], 'bid': 0.64}, {'imgObject': {}, 'id': 'fruitsalad', 'src': '/static/foodstim60/fruitsalad.jpg', 'key': 'i', 'origWidth': 410, 'origHeight': 410, 'width': 410, 'height': 410, 'widthPercent': 0.45, 'rescaleHeight': False, 'trialN': 108, 'loaded': True, 'loadedTime': 3730, 'positionName': 'RIGHT', 'positionCoords': [998.4, 335], 'bid': 2.6}]",148374,1669830324393,cherry tomato,fruitsalad,0.64,2.6,1.96,cherry tomato,936,951,952,True,u,149830,1456,1669830325848,1455,HRV,HRV_0118,2022-11-30 17:46:59
109,"[{'imgObject': {}, 'id': 'blueberries', 'src': '/static/foodstim60/blueberries.jpg', 'key': 'u', 'origWidth': 411, 'origHeight': 411, 'width': 411, 'height': 411, 'widthPercent': 0.45, 'rescaleHeight': False, 'trialN': 109, 'loaded': True, 'loadedTime': 3654, 'positionName': 'LEFT', 'positionCoords': [510.6, 334.5], 'bid': 5.94}, {'imgObject': {}, 'id': 'bagel and cc', 'src': '/static/foodstim60/bagel and cc.jpg', 'key': 'i', 'origWidth': 410, 'origHeight': 410, 'width': 410, 'height': 410, 'widthPercent': 0.45, 'rescaleHeight': False, 'trialN': 109, 'loaded': True, 'loadedTime': 3661, 'positionName': 'RIGHT', 'positionCoords': [998.4, 335], 'bid': 5.97}]",149830,1669830325848,blueberries,bagel and cc,5.94,5.97,0.02999999999999936,blueberries,762,778,777,True,u,151110,1280,1669830327128,1280,HRV,HRV_0118,2022-11-30 17:46:59
110,"[{'imgObject': {}, 'id': 'bagel and cc', 'src': '/static/foodstim60/bagel and cc.jpg', 'key': 'u', 'origWidth': 410, 'origHeight': 410, 'width': 410, 'height': 410, 'widthPercent': 0.45, 'rescaleHeight': False, 'trialN': 110, 'loaded': True, 'loadedTime': 3661, 'positionName': 'LEFT', 'positionCoords': [511.6, 335], 'bid': 5.97}, {'imgObject': {}, 'id': 'Tribe humus pita', 'src': '/static/foodstim60/Tribe humus pita.jpg', 'key': 'i', 'origWidth': 411, 'origHeight': 411, 'width': 411, 'height': 411, 'widthPercent': 0.45, 'rescaleHeight': False, 'trialN': 110, 'loaded': True, 'loadedTime': 3667, 'positionName': 'RIGHT', 'positionCoords': [998.4, 334.5], 'bid': 3.23}]",151110,1669830327129,bagel and cc,Tribe humus pita,5.97,3.23,-2.7399999999999998,Tribe humus pita,918,932,932,True,i,152542,1432,1669830328562,1433,HRV,HRV_0118,2022-11-30 17:46:59
111,"[{'imgObject': {}, 'id': 'turkeysandwich', 'src': '/static/foodstim60/turkeysandwich.jpg', 'key': 'u', 'origWidth': 409, 'origHeight': 409, 'width': 409, 'height': 409, 'widthPercent': 0.45, 'rescaleHeight': False, 'trialN': 111, 'loaded': True, 'loadedTime': 3641, 'positionName': 'LEFT', 'positionCoords': [512.6, 335.5], 'bid': 9.08}, {'imgObject': {}, 'id': 'banana', 'src': '/static/foodstim60/banana.jpg', 'key': 'i', 'origWidth': 410, 'origHeight': 410, 'width': 410, 'height': 410, 'widthPercent': 0.45, 'rescaleHeight': False, 'trialN': 111, 'loaded': True, 'loadedTime': 3639, 'positionName': 'RIGHT', 'positionCoords': [998.4, 335], 'bid': 9}]",152542,1669830328562,turkeysandwich,banana,9.08,9.0,-0.08000000000000007,turkeysandwich,705,713,715,True,u,153760,1218,1669830329779,1217,HRV,HRV_0118,2022-11-30 17:46:59
112,"[{'imgObject': {}, 'id': 'cocktailshrimp', 'src': '/static/foodstim60/cocktailshrimp.jpg', 'key': 'u', 'origWidth': 410, 'origHeight': 410, 'width': 410, 'height': 410, 'widthPercent': 0.45, 'rescaleHeight': False, 'trialN': 112, 'loaded': True, 'loadedTime': 3709, 'positionName': 'LEFT', 'positionCoords': [511.6, 335], 'bid': 0.13}, {'imgObject': {}, 'id': 'strawberries', 'src': '/static/foodstim60/strawberries.jpg', 'key': 'i', 'origWidth': 410, 'origHeight': 410, 'width': 410, 'height': 410, 'widthPercent': 0.45, 'rescaleHeight': False, 'trialN': 112, 'loaded': True, 'loadedTime': 3651, 'positionName': 'RIGHT', 'positionCoords': [998.4, 335], 'bid': 0.13}]",153760,1669830329779,cocktailshrimp,strawberries,0.13,0.13,0.0,cocktailshrimp,941,955,955,True,u,155228,1468,1669830331246,1467,HRV,HRV_0118,2022-11-30 17:46:59
113,"[{'imgObject': {}, 'id': 'chicken nuggets2', 'src': '/static/foodstim60/chicken nuggets2.jpg', 'key': 'u', 'origWidth': 410, 'origHeight': 409, 'width': 410, 'height': 409, 'widthPercent': 0.45, 'rescaleHeight': False, 'trialN': 113, 'loaded': True, 'loadedTime': 3620, 'positionName': 'LEFT', 'positionCoords': [511.6, 335.5], 'bid': 7.85}, {'imgObject': {}, 'id': 'cherry tomato', 'src': '/static/foodstim60/cherry tomato.jpg', 'key': 'i', 'origWidth': 410, 'origHeight': 410, 'width': 410, 'height': 410, 'widthPercent': 0.45, 'rescaleHeight': False, 'trialN': 113, 'loaded': True, 'loadedTime': 3679, 'positionName': 'RIGHT', 'positionCoords': [998.4, 335], 'bid': 0.64}]",155228,1669830331246,chicken nuggets2,cherry tomato,7.85,0.64,-7.21,chicken nuggets2,708,723,722,True,u,156462,1234,1669830332481,1235,HRV,HRV_0118,2022-11-30 17:46:59
114,"[{'imgObject': {}, 'id': 'kiwi', 'src': '/static/foodstim60/kiwi.jpg', 'key': 'u', 'origWidth': 410, 'origHeight': 410, 'width': 410, 'height': 410, 'widthPercent': 0.45, 'rescaleHeight': False, 'trialN': 114, 'loaded': True, 'loadedTime': 3696, 'positionName': 'LEFT', 'positionCoords': [511.6, 335], 'bid': 0.51}, {'imgObject': {}, 'id': 'cocktailshrimp', 'src': '/static/foodstim60/cocktailshrimp.jpg', 'key': 'i', 'origWidth': 410, 'origHeight': 410, 'width': 410, 'height': 410, 'widthPercent': 0.45, 'rescaleHeight': False, 'trialN': 114, 'loaded': True, 'loadedTime': 3709, 'positionName': 'RIGHT', 'positionCoords': [998.4, 335], 'bid': 0.13}]",156462,1669830332481,kiwi,cocktailshrimp,0.51,0.13,-0.38,kiwi,786,790,790,True,u,157760,1298,1669830333780,1299,HRV,HRV_0118,2022-11-30 17:46:59
115,"[{'imgObject': {}, 'id': 'lox', 'src': '/static/foodstim60/lox.jpg', 'key': 'u', 'origWidth': 410, 'origHeight': 411, 'width': 410, 'height': 411, 'widthPercent': 0.45, 'rescaleHeight': False, 'trialN': 115, 'loaded': True, 'loadedTime': 3653, 'positionName': 'LEFT', 'positionCoords': [511.6, 334.5], 'bid': 0.1}, {'imgObject': {}, 'id': 'yogurt no spoon', 'src': '/static/foodstim60/yogurt no spoon.jpg', 'key': 'i', 'origWidth': 411, 'origHeight': 410, 'width': 411, 'height': 410, 'widthPercent': 0.45, 'rescaleHeight': False, 'trialN': 115, 'loaded': True, 'loadedTime': 3683, 'positionName': 'RIGHT', 'positionCoords': [998.4, 335], 'bid': 0.1}]",157761,1669830333780,lox,yogurt no spoon,0.1,0.1,0.0,yogurt no spoon,783,794,794,True,i,159055,1294,1669830335075,1295,HRV,HRV_0118,2022-11-30 17:46:59
116,"[{'imgObject': {}, 'id': 'luckycharms', 'src': '/static/foodstim60/luckycharms.jpg', 'key': 'u', 'origWidth': 410, 'origHeight': 409, 'width': 410, 'height': 409, 'widthPercent': 0.45, 'rescaleHeight': False, 'trialN': 116, 'loaded': True, 'loadedTime': 3688, 'positionName': 'LEFT', 'positionCoords': [511.6, 335.5], 'bid': 2.38}, {'imgObject': {}, 'id': 'ice cream sundae 002', 'src': '/static/foodstim60/ice cream sundae 002.jpg', 'key': 'i', 'origWidth': 409, 'origHeight': 409, 'width': 409, 'height': 409, 'widthPercent': 0.45, 'rescaleHeight': False, 'trialN': 116, 'loaded': True, 'loadedTime': 3743, 'positionName': 'RIGHT', 'positionCoords': [998.4, 335.5], 'bid': 0.13}]",159056,1669830335075,luckycharms,ice cream sundae 002,2.38,0.13,-2.25,luckycharms,816,824,824,True,u,160381,1325,1669830336400,1325,HRV,HRV_0118,2022-11-30 17:46:59
117,"[{'imgObject': {}, 'id': 'mango', 'src': '/static/foodstim60/mango.jpg', 'key': 'u', 'origWidth': 411, 'origHeight': 411, 'width': 411, 'height': 411, 'widthPercent': 0.45, 'rescaleHeight': False, 'trialN': 117, 'loaded': True, 'loadedTime': 3681, 'positionName': 'LEFT', 'positionCoords': [510.6, 334.5], 'bid': 1.15}, {'imgObject': {}, 'id': 'turkey sandwich', 'src': '/static/foodstim60/turkey sandwich.jpg', 'key': 'i', 'origWidth': 409, 'origHeight': 409, 'width': 409, 'height': 409, 'widthPercent': 0.45, 'rescaleHeight': False, 'trialN': 117, 'loaded': True, 'loadedTime': 3634, 'positionName': 'RIGHT', 'positionCoords': [998.4, 335.5], 'bid': 8.1}]",160381,1669830336400,mango,turkey sandwich,1.15,8.1,6.949999999999999,turkey sandwich,710,713,713,True,i,161601,1220,1669830337620,1220,HRV,HRV_0118,2022-11-30 17:46:59
118,"[{'imgObject': {}, 'id': 'sweetpotato', 'src': '/static/foodstim60/sweetpotato.jpg', 'key': 'u', 'origWidth': 410, 'origHeight': 410, 'width': 410, 'height': 410, 'widthPercent': 0.45, 'rescaleHeight': False, 'trialN': 118, 'loaded': True, 'loadedTime': 3623, 'positionName': 'LEFT', 'positionCoords': [511.6, 335], 'bid': 9.08}, {'imgObject': {}, 'id': 'cheerios', 'src': '/static/foodstim60/cheerios.jpg', 'key': 'i', 'origWidth': 409, 'origHeight': 410, 'width': 409, 'height': 410, 'widthPercent': 0.45, 'rescaleHeight': False, 'trialN': 118, 'loaded': True, 'loadedTime': 3622, 'positionName': 'RIGHT', 'positionCoords': [998.4, 335], 'bid': 7.76}]",161601,1669830337620,sweetpotato,cheerios,9.08,7.76,-1.3200000000000003,sweetpotato,741,751,752,True,u,162865,1264,1669830338883,1263,HRV,HRV_0118,2022-11-30 17:46:59
