success,trial_type,trial_index,time_elapsed,internal_node_id,Block,TrialNumber,TrialTime,trialTimeDiff,FPS_avg,FPS_med,FPS_mode,TrialDur,winResizeTime,rt,block,button_pressed,MotCoh,MotDir,ColCoh,Color,ChoiceKey,Choice,Accuracy,RT,nFrames,FPS,PPD,missTrial,missTrialMsg,onsetDelay,fullScreenExitTime,canvCenter,TrialType,Score,BlockTrial,stimulus,button_labels,exp,subjectId,date
True,fullscreen,0,8263,0.0-0.0,0.0,1.0,,,,,,,,,,,,,,,,,,,,,,,,,,,,,,,,HRV,HRV_0118,2022-11-30 18:15:13
,wl-check-fps,1,13315,0.0-1.0,0.0,2.0,"[22068.6, 22069, 22083.2, 22162.7, 22166.6, 22183.4, 22200.2, 22216.7, 22233.5, 22250, 22266.6, 22283.3, 22299.9, 22316.7, 22333.3, 22350.4, 22367, 22383.7, 22400.4, 22417.1, 22433.7, 22450.5, 22467.1, 22483.7, 22500.6, 22517.2, 22533.9, 22550.8, 22567.2, 22583.9, 22600.5, 22617.2, 22633.7, 22650.4, 22667.2, 22683.8, 22700.5, 22717.3, 22733.9, 22750.5, 22767.2, 22784.1, 22800.8, 22817.4, 22834, 22850.6, 22868.4, 22883.9, 22900.5, 22917.4, 22933.8, 22950.5, 22967.2, 22983.8, 23000.4, 23017.1, 23034.1, 23050.4, 23067, 23083.7, 23100.4, 23117.1, 23133.7, 23150.7, 23167.1, 23183.8, 23200.5, 23217, 23233.7, 23250.5, 23267, 23283.6, 23300.3, 23317, 23333.6, 23350.4, 23367, 23383.8, 23400.4, 23417.1, 23433.7, 23450.4, 23467.1, 23483.8, 23500.5, 23517.1, 23533.7, 23550.4, 23567.1, 23583.7, 23600.3, 23617, 23633.7, 23650.3, 23667, 23683.8, 23700.5, 23717.2, 23733.9, 23750.5, 23767.1, 23784, 23800.5, 23817.4, 23833.8, 23850.6, 23867.3, 23883.9, 23900.6, 23917.3, 23934, 23950.5, 23967.2, 23983.9, 24000.7, 24017.3, 24034.1, 24051, 24067.3, 24084.1, 24100.5, 24117.1, 24133.7, 24150.5, 24167, 24183.7, 24200.3, 24217, 24233.7, 24250.3, 24267, 24283.7, 24300.4, 24317.1, 24333.8, 24350.4, 24367.1, 24383.8, 24400.5, 24417, 24433.7, 24450.5, 24467.2, 24483.8, 24500.4, 24517.1, 24533.8, 24550.4, 24567.2, 24583.9, 24600.6, 24617.1, 24633.8, 24650.6, 24667.2, 24684, 24700.4, 24717.3, 24733.8, 24750.4, 24767.1, 24783.8, 24800.4, 24817, 24833.9, 24850.5, 24867.1, 24883.8, 24900.5, 24917.3, 24933.7, 24950.4, 24967.1, 24983.9, 25000.4, 25017.1, 25033.7, 25050.6, 25067.2, 25083.9, 25100.5, 25117.3, 25133.9, 25150.4, 25167.1, 25184.1, 25200.6, 25217.3, 25234, 25250.6, 25267.3, 25283.9, 25300.7, 25317.4, 25333.9, 25350.7, 25367.2, 25383.9, 25400.4, 25417.1, 25433.8, 25450.4, 25467, 25483.7, 25500.6, 25517.2, 25533.8, 25550.4, 25567, 25583.7, 25600.4, 25617.1, 25633.7, 25650.4, 25667, 25683.8, 25700.4, 25733.8, 25750.5, 25767.1, 25783.9, 25800.5, 25817.3, 25833.3, 25850, 25867.2, 25883.9, 25900.6, 25917.3, 25934, 25950.7, 25967.4, 25984, 26000.7, 26017.3, 26034, 26051.1, 26067.5, 26084, 26100.7, 26116.7, 26133.3, 26150.5, 26167.2, 26184.1, 26200.6, 26217.2, 26233.8, 26250.6, 26267.3, 26284, 26300.5, 26317.1, 26333.7, 26350, 26366.7, 26383.7, 26400.6, 26417, 26433.4, 26450, 26466.6, 26483.4, 26500.2, 26516.7, 26533.5, 26550.1, 26566.8, 26583.4, 26600.1, 26616.7, 26633.5, 26650.1, 26666.8, 26683.4, 26700.1, 26716.7, 26733.5, 26750.1, 26766.8, 26783.3, 26800.1, 26816.8, 26833.6, 26850, 26866.7, 26883.4, 26900.1, 26916.7, 26933.4, 26950, 26966.7, 26983.3, 27000, 27016.7, 27033.4, 27050.1, 27066.6, 27083.4, 27100]","[1.7, 0.4, 14.2, 79.5, 3.9, 16.8, 16.8, 16.5, 16.8, 16.5, 16.6, 16.7, 16.6, 16.8, 16.6, 17.1, 16.6, 16.7, 16.7, 16.7, 16.6, 16.8, 16.6, 16.6, 16.9, 16.6, 16.7, 16.9, 16.4, 16.7, 16.6, 16.7, 16.5, 16.7, 16.8, 16.6, 16.7, 16.8, 16.6, 16.6, 16.7, 16.9, 16.7, 16.6, 16.6, 16.6, 17.8, 15.5, 16.6, 16.9, 16.4, 16.7, 16.7, 16.6, 16.6, 16.7, 17, 16.3, 16.6, 16.7, 16.7, 16.7, 16.6, 17, 16.4, 16.7, 16.7, 16.5, 16.7, 16.8, 16.5, 16.6, 16.7, 16.7, 16.6, 16.8, 16.6, 16.8, 16.6, 16.7, 16.6, 16.7, 16.7, 16.7, 16.7, 16.6, 16.6, 16.7, 16.7, 16.6, 16.6, 16.7, 16.7, 16.6, 16.7, 16.8, 16.7, 16.7, 16.7, 16.6, 16.6, 16.9, 16.5, 16.9, 16.4, 16.8, 16.7, 16.6, 16.7, 16.7, 16.7, 16.5, 16.7, 16.7, 16.8, 16.6, 16.8, 16.9, 16.3, 16.8, 16.4, 16.6, 16.6, 16.8, 16.5, 16.7, 16.6, 16.7, 16.7, 16.6, 16.7, 16.7, 16.7, 16.7, 16.7, 16.6, 16.7, 16.7, 16.7, 16.5, 16.7, 16.8, 16.7, 16.6, 16.6, 16.7, 16.7, 16.6, 16.8, 16.7, 16.7, 16.5, 16.7, 16.8, 16.6, 16.8, 16.4, 16.9, 16.5, 16.6, 16.7, 16.7, 16.6, 16.6, 16.9, 16.6, 16.6, 16.7, 16.7, 16.8, 16.4, 16.7, 16.7, 16.8, 16.5, 16.7, 16.6, 16.9, 16.6, 16.7, 16.6, 16.8, 16.6, 16.5, 16.7, 17, 16.5, 16.7, 16.7, 16.6, 16.7, 16.6, 16.8, 16.7, 16.5, 16.8, 16.5, 16.7, 16.5, 16.7, 16.7, 16.6, 16.6, 16.7, 16.9, 16.6, 16.6, 16.6, 16.6, 16.7, 16.7, 16.7, 16.6, 16.7, 16.6, 16.8, 16.6, 33.4, 16.7, 16.6, 16.8, 16.6, 16.8, 16, 16.7, 17.2, 16.7, 16.7, 16.7, 16.7, 16.7, 16.7, 16.6, 16.7, 16.6, 16.7, 17.1, 16.4, 16.5, 16.7, 16, 16.6, 17.2, 16.7, 16.9, 16.5, 16.6, 16.6, 16.8, 16.7, 16.7, 16.5, 16.6, 16.6, 16.3, 16.7, 17, 16.9, 16.4, 16.4, 16.6, 16.6, 16.8, 16.8, 16.5, 16.8, 16.6, 16.7, 16.6, 16.7, 16.6, 16.8, 16.6, 16.7, 16.6, 16.7, 16.6, 16.8, 16.6, 16.7, 16.5, 16.8, 16.7, 16.8, 16.4, 16.7, 16.7, 16.7, 16.6, 16.7, 16.6, 16.7, 16.6, 16.7, 16.7, 16.7, 16.7, 16.5, 16.8, 16.6]",60.0,60.0,60.0,5049.8,[],,,,,,,,,,,,,,,,,,,,,,,,,HRV,HRV_0118,2022-11-30 18:15:13
,wl-html-keyboard-response,2,35417,0.0-2.0-0.0,0.0,3.0,,,,,,,,20098.20000001788,0.0,0,,,,,,,,,,,,,,,,,,,,,,HRV,HRV_0118,2022-11-30 18:15:13
,wl-rdm,3,41731,0.0-3.0-0.0,0.0,4.0,,,,,,,[],,,,0.0,0.0,87.9,0.0,u,0.0,True,747.2999999821186,45.0,60.0,40.0,False,,3000.0,[],"[960, 540]",ColorTask_Demo,,,,,HRV,HRV_0118,2022-11-30 18:15:13
,wl-rdm,4,46981,0.0-3.0-1.0,0.0,5.0,,,,,,,[],,,,0.0,0.0,87.9,1.0,i,1.0,True,1165.5999999940395,70.0,60.0,40.0,False,,2000.0,[],"[960, 540]",ColorTask_Demo,,,,,HRV,HRV_0118,2022-11-30 18:15:13
,wl-html-keyboard-response,5,53816,0.0-3.0-2.0,0.0,6.0,,,,,,,,4833.199999988079,0.0,1,,,,,,,,,,,,,,,,,,,,,,HRV,HRV_0118,2022-11-30 18:15:13
,wl-html-keyboard-response,6,61424,0.0-4.0-0.0,0.0,7.0,,,,,,,,5604.100000023842,0.0,0,,,,,,,,,,,,,,,,,,,,,,HRV,HRV_0118,2022-11-30 18:15:13
,wl-html-keyboard-response,7,75176,0.0-5.0-0.0,0.0,8.0,,,,,,,,11742.800000011921,0.0,0,,,,,,,,,,,,,,,,,,,,,,HRV,HRV_0118,2022-11-30 18:15:13
,wl-rdm,8,77231,0.0-6.0-0.0,0.0,9.0,,,,,,,[],,,,,,73.6,1.0,i,1.0,True,714.3000000119209,43.0,60.0,40.0,False,,274.63823626974045,[],"[960, 540]",ColorTask,1.0,1.0,,,HRV,HRV_0118,2022-11-30 18:15:13
,wl-rdm,9,79447,0.0-6.1-0.1,0.0,10.0,,,,,,,[],,,,,,53.2,0.0,i,1.0,False,887.5999999940395,54.0,60.0,40.0,False,,234.0019939979479,[],"[960, 540]",ColorTask,0.0,2.0,,,HRV,HRV_0118,2022-11-30 18:15:13
,wl-rdm,10,81614,0.0-6.2-0.2,0.0,11.0,,,,,,,[],,,,,,56.4,0.0,u,0.0,True,771.6999999880791,47.0,60.0,40.0,False,,332.7608594095673,[],"[960, 540]",ColorTask,1.0,3.0,,,HRV,HRV_0118,2022-11-30 18:15:13
,wl-rdm,11,83731,0.0-6.3-0.3,0.0,12.0,,,,,,,[],,,,,,73.6,0.0,u,0.0,True,655.5,40.0,60.0,40.0,False,,399.1195421606708,[],"[960, 540]",ColorTask,2.0,4.0,,,HRV,HRV_0118,2022-11-30 18:15:13
,wl-rdm,12,85764,0.0-6.4-0.4,0.0,13.0,,,,,,,[],,,,,,62.5,1.0,i,1.0,True,635.0999999940395,39.0,60.0,40.0,False,,317.2255357809131,[],"[960, 540]",ColorTask,3.0,5.0,,,HRV,HRV_0118,2022-11-30 18:15:13
,wl-rdm,13,87831,0.0-6.5-0.5,0.0,14.0,,,,,,,[],,,,,,56.4,1.0,i,1.0,True,659.2000000178814,40.0,60.0,40.0,False,,349.1352309167697,[],"[960, 540]",ColorTask,4.0,6.0,,,HRV,HRV_0118,2022-11-30 18:15:13
,wl-rdm,14,89747,0.0-6.6-0.6,0.0,15.0,,,,,,,[],,,,,,62.5,0.0,u,0.0,True,623.0,38.0,60.0,40.0,False,,216.0285500971851,[],"[960, 540]",ColorTask,5.0,7.0,,,HRV,HRV_0118,2022-11-30 18:15:13
,wl-rdm,15,91780,0.0-6.7-0.7,0.0,16.0,,,,,,,[],,,,,,50.0,1.0,i,1.0,True,735.6999999880791,45.0,60.0,40.0,False,,215.1358562087165,[],"[960, 540]",ColorTask,6.0,8.0,,,HRV,HRV_0118,2022-11-30 18:15:13
,wl-rdm,16,93780,0.0-6.8-0.8,0.0,17.0,,,,,,,[],,,,,,50.0,1.0,u,0.0,False,632.2999999821186,38.0,60.0,40.0,False,,300.99104595875286,[],"[960, 540]",ColorTask,5.0,9.0,,,HRV,HRV_0118,2022-11-30 18:15:13
,wl-rdm,17,95697,0.0-6.9-0.9,0.0,18.0,,,,,,,[],,,,,,53.2,0.0,u,0.0,True,529.2000000178814,32.0,60.0,40.0,False,,310.9996068022944,[],"[960, 540]",ColorTask,6.0,10.0,,,HRV,HRV_0118,2022-11-30 18:15:13
,wl-rdm,18,97647,0.0-6.10-0.10,0.0,19.0,,,,,,,[],,,,,,73.6,1.0,i,1.0,True,587.0999999940395,36.0,60.0,40.0,False,,273.32802398611267,[],"[960, 540]",ColorTask,7.0,11.0,,,HRV,HRV_0118,2022-11-30 18:15:13
,wl-rdm,19,99563,0.0-6.11-0.11,0.0,20.0,,,,,,,[],,,,,,50.0,0.0,u,0.0,True,623.9000000059605,38.0,60.0,40.0,False,,205.11173982098026,[],"[960, 540]",ColorTask,8.0,12.0,,,HRV,HRV_0118,2022-11-30 18:15:13
,wl-rdm,20,101547,0.0-6.12-0.12,0.0,21.0,,,,,,,[],,,,,,53.2,0.0,u,0.0,True,676.0,41.0,60.0,40.0,False,,219.3292255274579,[],"[960, 540]",ColorTask,9.0,13.0,,,HRV,HRV_0118,2022-11-30 18:15:13
,wl-rdm,21,103364,0.0-6.13-0.13,0.0,22.0,,,,,,,[],,,,,,50.0,1.0,u,0.0,False,518.5,32.0,60.0,40.0,False,,206.80034124207938,[],"[960, 540]",ColorTask,8.0,14.0,,,HRV,HRV_0118,2022-11-30 18:15:13
,wl-rdm,22,105447,0.0-6.14-0.14,0.0,23.0,,,,,,,[],,,,,,50.0,1.0,u,0.0,False,733.0999999940395,44.0,60.0,40.0,False,,266.9960286661694,[],"[960, 540]",ColorTask,7.0,15.0,,,HRV,HRV_0118,2022-11-30 18:15:13
,wl-rdm,23,107347,0.0-6.15-0.15,0.0,24.0,,,,,,,[],,,,,,87.9,0.0,u,0.0,True,594.2000000178814,36.0,60.0,40.0,False,,225.9944018079704,[],"[960, 540]",ColorTask,8.0,16.0,,,HRV,HRV_0118,2022-11-30 18:15:13
,wl-rdm,24,109614,0.0-6.16-0.16,0.0,25.0,,,,,,,[],,,,,,50.0,1.0,u,0.0,False,965.6999999880791,58.0,60.0,40.0,False,,227.12836223388592,[],"[960, 540]",ColorTask,7.0,17.0,,,HRV,HRV_0118,2022-11-30 18:15:13
,wl-rdm,25,111630,0.0-6.17-0.17,0.0,26.0,,,,,,,[],,,,,,50.0,0.0,i,1.0,False,706.0999999940395,43.0,60.0,40.0,False,,219.54234019484034,[],"[960, 540]",ColorTask,6.0,18.0,,,HRV,HRV_0118,2022-11-30 18:15:13
,wl-rdm,26,113480,0.0-6.18-0.18,0.0,27.0,,,,,,,[],,,,,,62.5,0.0,u,0.0,True,582.5,35.0,60.0,40.0,False,,214.03764696726586,[],"[960, 540]",ColorTask,7.0,19.0,,,HRV,HRV_0118,2022-11-30 18:15:13
,wl-rdm,27,115430,0.0-6.19-0.19,0.0,28.0,,,,,,,[],,,,,,87.9,1.0,i,1.0,True,590.5,36.0,60.0,40.0,False,,288.64903617417144,[],"[960, 540]",ColorTask,8.0,20.0,,,HRV,HRV_0118,2022-11-30 18:15:13
,wl-rdm,28,117480,0.0-6.20-0.20,0.0,29.0,,,,,,,[],,,,,,62.5,0.0,u,0.0,True,619.8000000119209,38.0,60.0,40.0,False,,341.838299011476,[],"[960, 540]",ColorTask,9.0,21.0,,,HRV,HRV_0118,2022-11-30 18:15:13
,wl-rdm,29,119463,0.0-6.21-0.21,0.0,30.0,,,,,,,[],,,,,,53.2,1.0,u,0.0,False,671.5,41.0,60.0,40.0,False,,227.81250065427582,[],"[960, 540]",ColorTask,8.0,22.0,,,HRV,HRV_0118,2022-11-30 18:15:13
,wl-rdm,30,121514,0.0-6.22-0.22,0.0,31.0,,,,,,,[],,,,,,53.2,1.0,i,1.0,True,662.5,40.0,60.0,40.0,False,,322.8763286251017,[],"[960, 540]",ColorTask,9.0,23.0,,,HRV,HRV_0118,2022-11-30 18:15:13
,wl-rdm,31,123414,0.0-6.23-0.23,0.0,32.0,,,,,,,[],,,,,,87.9,1.0,i,1.0,True,554.4000000357628,34.0,60.0,40.0,False,,258.1194999440751,[],"[960, 540]",ColorTask,10.0,24.0,,,HRV,HRV_0118,2022-11-30 18:15:13
,wl-rdm,32,125330,0.0-6.24-0.24,0.0,33.0,,,,,,,[],,,,,,50.0,0.0,u,0.0,True,606.7999999821186,37.0,60.0,40.0,False,,230.04991993158933,[],"[960, 540]",ColorTask,11.0,25.0,,,HRV,HRV_0118,2022-11-30 18:15:13
,wl-rdm,33,127430,0.0-6.25-0.25,0.0,34.0,,,,,,,[],,,,,,56.4,1.0,u,0.0,False,640.8000000119209,39.0,60.0,40.0,False,,385.4892239823612,[],"[960, 540]",ColorTask,10.0,26.0,,,HRV,HRV_0118,2022-11-30 18:15:13
,wl-rdm,34,129414,0.0-6.26-0.26,0.0,35.0,,,,,,,[],,,,,,62.5,0.0,i,1.0,False,627.4000000059605,38.0,60.0,40.0,False,,294.037608189338,[],"[960, 540]",ColorTask,9.0,27.0,,,HRV,HRV_0118,2022-11-30 18:15:13
,wl-rdm,35,131597,0.0-6.27-0.27,0.0,36.0,,,,,,,[],,,,,,56.4,1.0,u,0.0,False,705.0,43.0,60.0,40.0,False,,397.9623348906191,[],"[960, 540]",ColorTask,8.0,28.0,,,HRV,HRV_0118,2022-11-30 18:15:13
,wl-rdm,36,133580,0.0-6.28-0.28,0.0,37.0,,,,,,,[],,,,,,62.5,1.0,i,1.0,True,712.1999999880791,43.0,60.0,40.0,False,,203.17115849173564,[],"[960, 540]",ColorTask,9.0,29.0,,,HRV,HRV_0118,2022-11-30 18:15:13
,wl-rdm,37,135747,0.0-6.29-0.29,0.0,38.0,,,,,,,[],,,,,,50.0,0.0,i,1.0,False,752.4000000059605,46.0,60.0,40.0,False,,323.2086673399112,[],"[960, 540]",ColorTask,8.0,30.0,,,HRV,HRV_0118,2022-11-30 18:15:13
,wl-rdm,38,137864,0.0-6.30-0.30,0.0,39.0,,,,,,,[],,,,,,62.5,1.0,i,1.0,True,741.8000000119209,45.0,60.0,40.0,False,,316.16117843575216,[],"[960, 540]",ColorTask,9.0,31.0,,,HRV,HRV_0118,2022-11-30 18:15:13
,wl-rdm,39,139863,0.0-6.31-0.31,0.0,40.0,,,,,,,[],,,,,,53.2,1.0,u,0.0,False,565.9999999701977,34.0,60.0,40.0,False,,382.60755052838164,[],"[960, 540]",ColorTask,8.0,32.0,,,HRV,HRV_0118,2022-11-30 18:15:13
,wl-rdm,40,141980,0.0-6.32-0.32,0.0,41.0,,,,,,,[],,,,,,53.2,1.0,i,1.0,True,794.3000000119209,48.0,60.0,40.0,False,,235.6954079236441,[],"[960, 540]",ColorTask,9.0,33.0,,,HRV,HRV_0118,2022-11-30 18:15:13
,wl-rdm,41,144114,0.0-6.33-0.33,0.0,42.0,,,,,,,[],,,,,,50.0,0.0,u,0.0,True,751.2999999821186,46.0,60.0,40.0,False,,312.39013026314353,[],"[960, 540]",ColorTask,10.0,34.0,,,HRV,HRV_0118,2022-11-30 18:15:13
,wl-rdm,42,146130,0.0-6.34-0.34,0.0,43.0,,,,,,,[],,,,,,56.4,1.0,i,1.0,True,615.1999999880791,37.0,60.0,40.0,False,,345.04183642423175,[],"[960, 540]",ColorTask,11.0,35.0,,,HRV,HRV_0118,2022-11-30 18:15:13
,wl-rdm,43,148130,0.0-6.35-0.35,0.0,44.0,,,,,,,[],,,,,,73.6,1.0,i,1.0,True,601.3000000119209,37.0,60.0,40.0,False,,317.9180201831816,[],"[960, 540]",ColorTask,12.0,36.0,,,HRV,HRV_0118,2022-11-30 18:15:13
,wl-rdm,44,150214,0.0-6.36-0.36,0.0,45.0,,,,,,,[],,,,,,56.4,1.0,i,1.0,True,779.8999999761581,47.0,60.0,40.0,False,,234.98131584319668,[],"[960, 540]",ColorTask,13.0,37.0,,,HRV,HRV_0118,2022-11-30 18:15:13
,wl-rdm,45,152197,0.0-6.37-0.37,0.0,46.0,,,,,,,[],,,,,,73.6,1.0,i,1.0,True,659.5999999940395,40.0,60.0,40.0,False,,236.81021742181355,[],"[960, 540]",ColorTask,14.0,38.0,,,HRV,HRV_0118,2022-11-30 18:15:13
,wl-rdm,46,154130,0.0-6.38-0.38,0.0,47.0,,,,,,,[],,,,,,73.6,0.0,u,0.0,True,618.5,38.0,60.0,40.0,False,,239.64011017026678,[],"[960, 540]",ColorTask,15.0,39.0,,,HRV,HRV_0118,2022-11-30 18:15:13
,wl-rdm,47,156097,0.0-6.39-0.39,0.0,48.0,,,,,,,[],,,,,,87.9,1.0,i,1.0,True,581.7999999821186,35.0,60.0,40.0,False,,311.82393825963817,[],"[960, 540]",ColorTask,16.0,40.0,,,HRV,HRV_0118,2022-11-30 18:15:13
,wl-rdm,48,158114,0.0-6.40-0.40,0.0,49.0,,,,,,,[],,,,,,73.6,0.0,u,0.0,True,672.3000000119209,41.0,60.0,40.0,False,,251.62471914991173,[],"[960, 540]",ColorTask,17.0,41.0,,,HRV,HRV_0118,2022-11-30 18:15:13
,wl-rdm,49,160214,0.0-6.41-0.41,0.0,50.0,,,,,,,[],,,,,,50.0,0.0,i,1.0,False,706.5000000298023,43.0,60.0,40.0,False,,326.61647903005706,[],"[960, 540]",ColorTask,16.0,42.0,,,HRV,HRV_0118,2022-11-30 18:15:13
,wl-rdm,50,162280,0.0-6.42-0.42,0.0,51.0,,,,,,,[],,,,,,50.0,0.0,u,0.0,True,775.4000000059605,47.0,60.0,40.0,False,,214.95602439726446,[],"[960, 540]",ColorTask,17.0,43.0,,,HRV,HRV_0118,2022-11-30 18:15:13
,wl-rdm,51,164464,0.0-6.43-0.43,0.0,52.0,,,,,,,[],,,,,,56.4,1.0,i,1.0,True,775.4000000059605,47.0,60.0,40.0,False,,326.2317462046367,[],"[960, 540]",ColorTask,18.0,44.0,,,HRV,HRV_0118,2022-11-30 18:15:13
,wl-rdm,52,166347,0.0-6.44-0.44,0.0,53.0,,,,,,,[],,,,,,87.9,0.0,u,0.0,True,555.5,34.0,60.0,40.0,False,,254.81906438922198,[],"[960, 540]",ColorTask,19.0,45.0,,,HRV,HRV_0118,2022-11-30 18:15:13
,wl-rdm,53,168347,0.0-6.45-0.45,0.0,54.0,,,,,,,[],,,,,,73.6,0.0,u,0.0,True,574.4000000059605,35.0,60.0,40.0,False,,347.6170331027465,[],"[960, 540]",ColorTask,20.0,46.0,,,HRV,HRV_0118,2022-11-30 18:15:13
,wl-rdm,54,170397,0.0-6.46-0.46,0.0,55.0,,,,,,,[],,,,,,50.0,1.0,i,1.0,True,665.1999999880791,40.0,60.0,40.0,False,,332.2369571639317,[],"[960, 540]",ColorTask,21.0,47.0,,,HRV,HRV_0118,2022-11-30 18:15:13
,wl-rdm,55,172514,0.0-6.47-0.47,0.0,56.0,,,,,,,[],,,,,,50.0,1.0,u,0.0,False,815.8000000119209,49.0,60.0,40.0,False,,247.20695527508627,[],"[960, 540]",ColorTask,20.0,48.0,,,HRV,HRV_0118,2022-11-30 18:15:13
,wl-rdm,56,174747,0.0-6.48-0.48,0.0,57.0,,,,,,,[],,,,,,56.4,0.0,u,0.0,True,837.8000000119209,51.0,60.0,40.0,False,,309.5019795875044,[],"[960, 540]",ColorTask,21.0,49.0,,,HRV,HRV_0118,2022-11-30 18:15:13
,wl-rdm,57,176647,0.0-6.49-0.49,0.0,58.0,,,,,,,[],,,,,,87.9,1.0,i,1.0,True,574.8000000119209,35.0,60.0,40.0,False,,261.72535606022365,[],"[960, 540]",ColorTask,22.0,50.0,,,HRV,HRV_0118,2022-11-30 18:15:13
,wl-rdm,58,178564,0.0-6.50-0.50,0.0,59.0,,,,,,,[],,,,,,73.6,1.0,i,1.0,True,488.69999998807907,30.0,60.0,40.0,False,,333.89847029367036,[],"[960, 540]",ColorTask,23.0,51.0,,,HRV,HRV_0118,2022-11-30 18:15:13
,wl-rdm,59,180481,0.0-6.51-0.51,0.0,60.0,,,,,,,[],,,,,,56.4,0.0,u,0.0,True,530.0,32.0,60.0,40.0,False,,316.6281659081902,[],"[960, 540]",ColorTask,24.0,52.0,,,HRV,HRV_0118,2022-11-30 18:15:13
,wl-rdm,60,182448,0.0-6.52-0.52,0.0,61.0,,,,,,,[],,,,,,62.5,0.0,i,1.0,False,643.1999999880791,39.0,60.0,40.0,False,,261.88232543034684,[],"[960, 540]",ColorTask,23.0,53.0,,,HRV,HRV_0118,2022-11-30 18:15:13
,wl-rdm,61,184264,0.0-6.53-0.53,0.0,62.0,,,,,,,[],,,,,,87.9,0.0,u,0.0,True,502.30000001192093,31.0,60.0,40.0,False,,235.16972492387134,[],"[960, 540]",ColorTask,24.0,54.0,,,HRV,HRV_0118,2022-11-30 18:15:13
,wl-rdm,62,186231,0.0-6.54-0.54,0.0,63.0,,,,,,,[],,,,,,62.5,1.0,i,1.0,True,599.0000000298023,36.0,60.0,40.0,False,,288.4175282931021,[],"[960, 540]",ColorTask,25.0,55.0,,,HRV,HRV_0118,2022-11-30 18:15:13
,wl-rdm,63,188197,0.0-6.55-0.55,0.0,64.0,,,,,,,[],,,,,,53.2,1.0,u,0.0,False,595.2999999821186,36.0,60.0,40.0,False,,299.9332031440829,[],"[960, 540]",ColorTask,24.0,56.0,,,HRV,HRV_0118,2022-11-30 18:15:13
,wl-rdm,64,190064,0.0-6.56-0.56,0.0,65.0,,,,,,,[],,,,,,87.9,1.0,i,1.0,True,537.5999999940395,33.0,60.0,40.0,False,,265.11557737506485,[],"[960, 540]",ColorTask,25.0,57.0,,,HRV,HRV_0118,2022-11-30 18:15:13
,wl-rdm,65,191931,0.0-6.57-0.57,0.0,66.0,,,,,,,[],,,,,,50.0,1.0,u,0.0,False,524.9000000059605,32.0,60.0,40.0,False,,261.1822085761795,[],"[960, 540]",ColorTask,24.0,58.0,,,HRV,HRV_0118,2022-11-30 18:15:13
,wl-rdm,66,193831,0.0-6.58-0.58,0.0,67.0,,,,,,,[],,,,,,56.4,1.0,i,1.0,True,555.4000000059605,34.0,60.0,40.0,False,,266.3380038151871,[],"[960, 540]",ColorTask,25.0,59.0,,,HRV,HRV_0118,2022-11-30 18:15:13
,wl-rdm,67,195664,0.0-6.59-0.59,0.0,68.0,,,,,,,[],,,,,,87.9,1.0,i,1.0,True,537.0,33.0,60.0,40.0,False,,215.39263460831916,[],"[960, 540]",ColorTask,26.0,60.0,,,HRV,HRV_0118,2022-11-30 18:15:13
,wl-rdm,68,197814,0.0-6.60-0.60,0.0,69.0,,,,,,,[],,,,,,73.6,1.0,u,0.0,False,682.3000000119209,41.0,60.0,40.0,False,,385.0999428265734,[],"[960, 540]",ColorTask,25.0,61.0,,,HRV,HRV_0118,2022-11-30 18:15:13
,wl-rdm,69,199698,0.0-6.61-0.61,0.0,70.0,,,,,,,[],,,,,,73.6,0.0,u,0.0,True,574.6999999880791,35.0,60.0,40.0,False,,225.07017348428948,[],"[960, 540]",ColorTask,26.0,62.0,,,HRV,HRV_0118,2022-11-30 18:15:13
,wl-rdm,70,201864,0.0-6.62-0.62,0.0,71.0,,,,,,,[],,,,,,62.5,0.0,i,1.0,False,752.2000000178814,46.0,60.0,40.0,False,,317.76001266256543,[],"[960, 540]",ColorTask,25.0,63.0,,,HRV,HRV_0118,2022-11-30 18:15:13
,wl-rdm,71,203797,0.0-6.63-0.63,0.0,72.0,,,,,,,[],,,,,,73.6,1.0,i,1.0,True,515.6000000238419,31.0,60.0,40.0,False,,359.01713791789507,[],"[960, 540]",ColorTask,26.0,64.0,,,HRV,HRV_0118,2022-11-30 18:15:13
,wl-rdm,72,205714,0.0-6.64-0.64,0.0,73.0,,,,,,,[],,,,,,56.4,0.0,u,0.0,True,562.7999999821186,34.0,60.0,40.0,False,,278.9253773905839,[],"[960, 540]",ColorTask,27.0,65.0,,,HRV,HRV_0118,2022-11-30 18:15:13
,wl-rdm,73,207597,0.0-6.65-0.65,0.0,74.0,,,,,,,[],,,,,,50.0,0.0,u,0.0,True,571.5,35.0,60.0,40.0,False,,223.9335673542913,[],"[960, 540]",ColorTask,28.0,66.0,,,HRV,HRV_0118,2022-11-30 18:15:13
,wl-rdm,74,209464,0.0-6.66-0.66,0.0,75.0,,,,,,,[],,,,,,53.2,0.0,u,0.0,True,530.0999999940395,32.0,60.0,40.0,False,,252.70381057739849,[],"[960, 540]",ColorTask,29.0,67.0,,,HRV,HRV_0118,2022-11-30 18:15:13
,wl-rdm,75,211481,0.0-6.67-0.67,0.0,76.0,,,,,,,[],,,,,,56.4,0.0,u,0.0,True,643.5,39.0,60.0,40.0,False,,313.8324553265818,[],"[960, 540]",ColorTask,30.0,68.0,,,HRV,HRV_0118,2022-11-30 18:15:13
,wl-rdm,76,213464,0.0-6.68-0.68,0.0,77.0,,,,,,,[],,,,,,56.4,1.0,u,0.0,False,572.7000000178814,35.0,60.0,40.0,False,,322.0579197979323,[],"[960, 540]",ColorTask,29.0,69.0,,,HRV,HRV_0118,2022-11-30 18:15:13
,wl-rdm,77,215331,0.0-6.69-0.69,0.0,78.0,,,,,,,[],,,,,,87.9,0.0,u,0.0,True,498.59999999403954,30.0,60.0,40.0,False,,285.8160118425324,[],"[960, 540]",ColorTask,30.0,70.0,,,HRV,HRV_0118,2022-11-30 18:15:13
,wl-rdm,78,217097,0.0-6.70-0.70,0.0,79.0,,,,,,,[],,,,,,87.9,0.0,u,0.0,True,463.09999999403954,28.0,60.0,40.0,False,,217.7795562597206,[],"[960, 540]",ColorTask,31.0,71.0,,,HRV,HRV_0118,2022-11-30 18:15:13
,wl-rdm,79,219014,0.0-6.71-0.71,0.0,80.0,,,,,,,[],,,,,,56.4,0.0,u,0.0,True,600.0,36.0,60.0,40.0,False,,233.86337963659733,[],"[960, 540]",ColorTask,32.0,72.0,,,HRV,HRV_0118,2022-11-30 18:15:13
,wl-rdm,80,220881,0.0-6.72-0.72,0.0,81.0,,,,,,,[],,,,,,87.9,0.0,u,0.0,True,475.0,29.0,60.0,40.0,False,,324.0973182587228,[],"[960, 540]",ColorTask,33.0,73.0,,,HRV,HRV_0118,2022-11-30 18:15:13
,wl-rdm,81,222814,0.0-6.73-0.73,0.0,82.0,,,,,,,[],,,,,,56.4,0.0,u,0.0,True,549.6000000238419,33.0,60.0,40.0,False,,321.1251527668777,[],"[960, 540]",ColorTask,34.0,74.0,,,HRV,HRV_0118,2022-11-30 18:15:13
,wl-rdm,82,224781,0.0-6.74-0.74,0.0,83.0,,,,,,,[],,,,,,73.6,1.0,i,1.0,True,507.5,31.0,60.0,40.0,False,,382.0553576629078,[],"[960, 540]",ColorTask,35.0,75.0,,,HRV,HRV_0118,2022-11-30 18:15:13
,wl-rdm,83,226714,0.0-6.75-0.75,0.0,84.0,,,,,,,[],,,,,,62.5,1.0,u,0.0,False,548.8000000417233,33.0,60.0,40.0,False,,307.5910671867192,[],"[960, 540]",ColorTask,34.0,76.0,,,HRV,HRV_0118,2022-11-30 18:15:13
,wl-rdm,84,228481,0.0-6.76-0.76,0.0,85.0,,,,,,,[],,,,,,87.9,0.0,u,0.0,True,464.0,28.0,60.0,40.0,False,,226.33633792984,[],"[960, 540]",ColorTask,35.0,77.0,,,HRV,HRV_0118,2022-11-30 18:15:13
,wl-rdm,85,230514,0.0-6.77-0.77,0.0,86.0,,,,,,,[],,,,,,50.0,1.0,i,1.0,True,743.0,45.0,60.0,40.0,False,,200.49590168047445,[],"[960, 540]",ColorTask,36.0,78.0,,,HRV,HRV_0118,2022-11-30 18:15:13
,wl-rdm,86,232364,0.0-6.78-0.78,0.0,87.0,,,,,,,[],,,,,,73.6,0.0,u,0.0,True,513.0,31.0,60.0,40.0,False,,265.8908559887928,[],"[960, 540]",ColorTask,37.0,79.0,,,HRV,HRV_0118,2022-11-30 18:15:13
,wl-rdm,87,234381,0.0-6.79-0.79,0.0,88.0,,,,,,,[],,,,,,56.4,1.0,i,1.0,True,671.5,41.0,60.0,40.0,False,,266.31536181145157,[],"[960, 540]",ColorTask,38.0,80.0,,,HRV,HRV_0118,2022-11-30 18:15:13
,wl-rdm,88,236381,0.0-6.80-0.80,0.0,89.0,,,,,,,[],,,,,,62.5,0.0,u,0.0,True,595.0999999940395,36.0,60.0,40.0,False,,317.1331545240623,[],"[960, 540]",ColorTask,39.0,81.0,,,HRV,HRV_0118,2022-11-30 18:15:13
,wl-rdm,89,238281,0.0-6.81-0.81,0.0,90.0,,,,,,,[],,,,,,56.4,0.0,u,0.0,True,531.0999999940395,32.0,60.0,40.0,False,,311.41722882755266,[],"[960, 540]",ColorTask,40.0,82.0,,,HRV,HRV_0118,2022-11-30 18:15:13
,wl-rdm,90,240247,0.0-6.82-0.82,0.0,91.0,,,,,,,[],,,,,,62.5,1.0,i,1.0,True,611.1999999880791,37.0,60.0,40.0,False,,288.2582134739774,[],"[960, 540]",ColorTask,41.0,83.0,,,HRV,HRV_0118,2022-11-30 18:15:13
,wl-rdm,91,242164,0.0-6.83-0.83,0.0,92.0,,,,,,,[],,,,,,53.2,0.0,u,0.0,True,559.5,34.0,60.0,40.0,False,,269.4744127808374,[],"[960, 540]",ColorTask,42.0,84.0,,,HRV,HRV_0118,2022-11-30 18:15:13
,wl-rdm,92,243947,0.0-6.84-0.84,0.0,93.0,,,,,,,[],,,,,,53.2,0.0,u,0.0,True,495.7999999821186,30.0,60.0,40.0,False,,204.25809661809362,[],"[960, 540]",ColorTask,43.0,85.0,,,HRV,HRV_0118,2022-11-30 18:15:13
,wl-rdm,93,245716,0.0-6.85-0.85,0.0,94.0,,,,,,,[],,,,,,50.0,0.0,u,0.0,True,444.10000002384186,27.0,60.0,40.0,False,,245.6905157463992,[],"[960, 540]",ColorTask,44.0,86.0,,,HRV,HRV_0118,2022-11-30 18:15:13
,wl-rdm,94,247597,0.0-6.86-0.86,0.0,95.0,,,,,,,[],,,,,,62.5,1.0,u,0.0,False,569.3000000119209,35.0,60.0,40.0,False,,221.58606442394458,[],"[960, 540]",ColorTask,43.0,87.0,,,HRV,HRV_0118,2022-11-30 18:15:13
,wl-rdm,95,249531,0.0-6.87-0.87,0.0,96.0,,,,,,,[],,,,,,53.2,1.0,i,1.0,True,557.7999999821186,34.0,60.0,40.0,False,,289.239970721725,[],"[960, 540]",ColorTask,44.0,88.0,,,HRV,HRV_0118,2022-11-30 18:15:13
,wl-rdm,96,251414,0.0-6.88-0.88,0.0,97.0,,,,,,,[],,,,,,73.6,0.0,u,0.0,True,568.8000000119209,35.0,60.0,40.0,False,,230.66058390731894,[],"[960, 540]",ColorTask,45.0,89.0,,,HRV,HRV_0118,2022-11-30 18:15:13
,wl-rdm,97,253414,0.0-6.89-0.89,0.0,98.0,,,,,,,[],,,,,,56.4,0.0,u,0.0,True,560.8000000119209,34.0,60.0,40.0,False,,351.349423294545,[],"[960, 540]",ColorTask,46.0,90.0,,,HRV,HRV_0118,2022-11-30 18:15:13
,wl-rdm,98,255247,0.0-6.90-0.90,0.0,99.0,,,,,,,[],,,,,,73.6,0.0,u,0.0,True,480.69999998807907,29.0,60.0,40.0,False,,292.97650257909197,[],"[960, 540]",ColorTask,47.0,91.0,,,HRV,HRV_0118,2022-11-30 18:15:13
,wl-rdm,99,257064,0.0-6.91-0.91,0.0,100.0,,,,,,,[],,,,,,87.9,0.0,u,0.0,True,468.0,29.0,60.0,40.0,False,,253.51089259392515,[],"[960, 540]",ColorTask,48.0,92.0,,,HRV,HRV_0118,2022-11-30 18:15:13
,wl-rdm,100,258847,0.0-6.92-0.92,0.0,101.0,,,,,,,[],,,,,,62.5,1.0,i,1.0,True,510.30000001192093,31.0,60.0,40.0,False,,216.3521838776565,[],"[960, 540]",ColorTask,49.0,93.0,,,HRV,HRV_0118,2022-11-30 18:15:13
,wl-rdm,101,260947,0.0-6.93-0.93,0.0,102.0,,,,,,,[],,,,,,53.2,0.0,i,1.0,False,684.0999999940395,42.0,60.0,40.0,False,,327.8292877356123,[],"[960, 540]",ColorTask,48.0,94.0,,,HRV,HRV_0118,2022-11-30 18:15:13
,wl-rdm,102,262847,0.0-6.94-0.94,0.0,103.0,,,,,,,[],,,,,,53.2,1.0,u,0.0,False,536.4000000059605,33.0,60.0,40.0,False,,286.56212237559026,[],"[960, 540]",ColorTask,47.0,95.0,,,HRV,HRV_0118,2022-11-30 18:15:13
,wl-rdm,103,264797,0.0-6.95-0.95,0.0,104.0,,,,,,,[],,,,,,53.2,1.0,i,1.0,True,644.0999999940395,39.0,60.0,40.0,False,,229.63995081220804,[],"[960, 540]",ColorTask,48.0,96.0,,,HRV,HRV_0118,2022-11-30 18:15:13
,wl-rdm,104,266947,0.0-6.96-0.96,0.0,105.0,,,,,,,[],,,,,,62.5,1.0,u,0.0,False,801.1999999880791,49.0,60.0,40.0,False,,250.9002407373499,[],"[960, 540]",ColorTask,47.0,97.0,,,HRV,HRV_0118,2022-11-30 18:15:13
,wl-rdm,105,268997,0.0-6.97-0.97,0.0,106.0,,,,,,,[],,,,,,62.5,0.0,u,0.0,True,619.3000000119209,38.0,60.0,40.0,False,,345.34796173877714,[],"[960, 540]",ColorTask,48.0,98.0,,,HRV,HRV_0118,2022-11-30 18:15:13
,wl-rdm,106,270964,0.0-6.98-0.98,0.0,107.0,,,,,,,[],,,,,,73.6,0.0,u,0.0,True,554.2999999821186,34.0,60.0,40.0,False,,337.3858612580841,[],"[960, 540]",ColorTask,49.0,99.0,,,HRV,HRV_0118,2022-11-30 18:15:13
,wl-rdm,107,272964,0.0-6.99-0.99,0.0,108.0,,,,,,,[],,,,,,53.2,0.0,u,0.0,True,606.3000000119209,37.0,60.0,40.0,False,,310.28141547834525,[],"[960, 540]",ColorTask,50.0,100.0,,,HRV,HRV_0118,2022-11-30 18:15:13
,wl-rdm,108,274864,0.0-6.100-0.100,0.0,109.0,,,,,,,[],,,,,,87.9,1.0,i,1.0,True,542.0999999940395,33.0,60.0,40.0,False,,293.43976957330915,[],"[960, 540]",ColorTask,51.0,101.0,,,HRV,HRV_0118,2022-11-30 18:15:13
,wl-rdm,109,276714,0.0-6.101-0.101,0.0,110.0,,,,,,,[],,,,,,87.9,0.0,u,0.0,True,524.1999999880791,32.0,60.0,40.0,False,,235.45056720918828,[],"[960, 540]",ColorTask,52.0,102.0,,,HRV,HRV_0118,2022-11-30 18:15:13
,wl-rdm,110,278614,0.0-6.102-0.102,0.0,111.0,,,,,,,[],,,,,,62.5,0.0,u,0.0,True,559.2000000178814,34.0,60.0,40.0,False,,281.36130935037846,[],"[960, 540]",ColorTask,53.0,103.0,,,HRV,HRV_0118,2022-11-30 18:15:13
,wl-rdm,111,280381,0.0-6.103-0.103,0.0,112.0,,,,,,,[],,,,,,87.9,1.0,u,0.0,False,424.59999999403954,26.0,60.0,40.0,False,,278.9605365887852,[],"[960, 540]",ColorTask,52.0,104.0,,,HRV,HRV_0118,2022-11-30 18:15:13
,wl-rdm,112,282581,0.0-6.104-0.104,0.0,113.0,,,,,,,[],,,,,,53.2,1.0,u,0.0,False,725.3000000119209,44.0,60.0,40.0,False,,384.951051594198,[],"[960, 540]",ColorTask,51.0,105.0,,,HRV,HRV_0118,2022-11-30 18:15:13
,wl-rdm,113,284747,0.0-6.105-0.105,0.0,114.0,,,,,,,[],,,,,,73.6,1.0,i,1.0,True,775.4000000059605,47.0,60.0,40.0,False,,331.9016993334547,[],"[960, 540]",ColorTask,52.0,106.0,,,HRV,HRV_0118,2022-11-30 18:15:13
,wl-rdm,114,286647,0.0-6.106-0.106,0.0,115.0,,,,,,,[],,,,,,53.2,0.0,u,0.0,True,500.7000000178814,31.0,60.0,40.0,False,,304.7433781686892,[],"[960, 540]",ColorTask,53.0,107.0,,,HRV,HRV_0118,2022-11-30 18:15:13
,wl-rdm,115,288597,0.0-6.107-0.107,0.0,116.0,,,,,,,[],,,,,,87.9,1.0,i,1.0,True,581.5999999940395,35.0,60.0,40.0,False,,284.2535293931918,[],"[960, 540]",ColorTask,54.0,108.0,,,HRV,HRV_0118,2022-11-30 18:15:13
,wl-html-keyboard-response,116,297472,0.0-7.0-0.0,1.0,117.0,,,,,,,,6870.0,1.0,0,,,,,,,,,,,,,,,,,,,,,,HRV,HRV_0118,2022-11-30 18:15:13
,wl-rdm,117,299197,0.0-8.0-0.0,1.0,118.0,,,,,,,[],,,,,,56.4,1.0,i,1.0,True,452.30000001192093,28.0,60.0,40.0,False,,205.6250695784982,[],"[960, 540]",ColorTask,55.0,1.0,,,HRV,HRV_0118,2022-11-30 18:15:13
,wl-rdm,118,301264,0.0-8.1-0.1,1.0,119.0,,,,,,,[],,,,,,50.0,1.0,u,0.0,False,686.8000000119209,42.0,60.0,40.0,False,,292.29750227358716,[],"[960, 540]",ColorTask,54.0,2.0,,,HRV,HRV_0118,2022-11-30 18:15:13
,wl-rdm,119,303481,0.0-8.2-0.2,1.0,120.0,,,,,,,[],,,,,,53.2,0.0,i,1.0,False,782.0,47.0,60.0,40.0,False,,365.149849253939,[],"[960, 540]",ColorTask,53.0,3.0,,,HRV,HRV_0118,2022-11-30 18:15:13
,wl-rdm,120,305364,0.0-8.3-0.3,1.0,121.0,,,,,,,[],,,,,,73.6,0.0,u,0.0,True,557.0,34.0,60.0,40.0,False,,249.7223083336906,[],"[960, 540]",ColorTask,54.0,4.0,,,HRV,HRV_0118,2022-11-30 18:15:13
,wl-rdm,121,307281,0.0-8.4-0.4,1.0,122.0,,,,,,,[],,,,,,73.6,1.0,i,1.0,True,543.2999999821186,33.0,60.0,40.0,False,,293.41984279575684,[],"[960, 540]",ColorTask,55.0,5.0,,,HRV,HRV_0118,2022-11-30 18:15:13
,wl-rdm,122,309231,0.0-8.5-0.5,1.0,123.0,,,,,,,[],,,,,,53.2,0.0,u,0.0,True,623.0999999940395,38.0,60.0,40.0,False,,258.71363707600045,[],"[960, 540]",ColorTask,56.0,6.0,,,HRV,HRV_0118,2022-11-30 18:15:13
,wl-rdm,123,311297,0.0-8.6-0.6,1.0,124.0,,,,,,,[],,,,,,53.2,0.0,i,1.0,False,774.2999999821186,47.0,60.0,40.0,False,,208.83690282483502,[],"[960, 540]",ColorTask,55.0,7.0,,,HRV,HRV_0118,2022-11-30 18:15:13
,wl-rdm,124,313231,0.0-8.7-0.7,1.0,125.0,,,,,,,[],,,,,,56.4,0.0,u,0.0,True,499.09999999403954,30.0,60.0,40.0,False,,360.05551947655545,[],"[960, 540]",ColorTask,56.0,8.0,,,HRV,HRV_0118,2022-11-30 18:15:13
,wl-rdm,125,315447,0.0-8.8-0.8,1.0,126.0,,,,,,,[],,,,,,62.5,1.0,u,0.0,False,760.6000000238419,46.0,60.0,40.0,False,,386.8039808090422,[],"[960, 540]",ColorTask,55.0,9.0,,,HRV,HRV_0118,2022-11-30 18:15:13
,wl-rdm,126,317631,0.0-8.9-0.9,1.0,127.0,,,,,,,[],,,,,,56.4,1.0,u,0.0,False,821.7999999821186,50.0,60.0,40.0,False,,275.20739897613714,[],"[960, 540]",ColorTask,54.0,10.0,,,HRV,HRV_0118,2022-11-30 18:15:13
,wl-rdm,127,319964,0.0-8.10-0.10,1.0,128.0,,,,,,,[],,,,,,50.0,0.0,i,1.0,False,899.0,54.0,60.0,40.0,False,,381.03631415539166,[],"[960, 540]",ColorTask,53.0,11.0,,,HRV,HRV_0118,2022-11-30 18:15:13
,wl-rdm,128,322081,0.0-8.11-0.11,1.0,129.0,,,,,,,[],,,,,,56.4,0.0,u,0.0,True,744.0999999940395,45.0,60.0,40.0,False,,291.16489079039627,[],"[960, 540]",ColorTask,54.0,12.0,,,HRV,HRV_0118,2022-11-30 18:15:13
,wl-rdm,129,323964,0.0-8.12-0.12,1.0,130.0,,,,,,,[],,,,,,73.6,0.0,u,0.0,True,574.7000000178814,35.0,60.0,40.0,False,,249.21493584605403,[],"[960, 540]",ColorTask,55.0,13.0,,,HRV,HRV_0118,2022-11-30 18:15:13
,wl-rdm,130,326097,0.0-8.13-0.13,1.0,131.0,,,,,,,[],,,,,,56.4,1.0,u,0.0,False,775.1000000238419,47.0,60.0,40.0,False,,280.32721447322785,[],"[960, 540]",ColorTask,54.0,14.0,,,HRV,HRV_0118,2022-11-30 18:15:13
,wl-rdm,131,328064,0.0-8.14-0.14,1.0,132.0,,,,,,,[],,,,,,53.2,1.0,i,1.0,True,595.0,36.0,60.0,40.0,False,,307.9714829961858,[],"[960, 540]",ColorTask,55.0,15.0,,,HRV,HRV_0118,2022-11-30 18:15:13
,wl-rdm,132,329881,0.0-8.15-0.15,1.0,133.0,,,,,,,[],,,,,,87.9,0.0,u,0.0,True,537.4000000059605,33.0,60.0,40.0,False,,212.30633512734033,[],"[960, 540]",ColorTask,56.0,16.0,,,HRV,HRV_0118,2022-11-30 18:15:13
,wl-rdm,133,332247,0.0-8.16-0.16,1.0,134.0,,,,,,,[],,,,,,62.5,0.0,u,0.0,True,929.8000000119209,56.0,60.0,40.0,False,,358.42050686021406,[],"[960, 540]",ColorTask,57.0,17.0,,,HRV,HRV_0118,2022-11-30 18:15:13
,wl-rdm,134,334114,0.0-8.17-0.17,1.0,135.0,,,,,,,[],,,,,,73.6,0.0,u,0.0,True,538.7000000178814,33.0,60.0,40.0,False,,254.47594446156822,[],"[960, 540]",ColorTask,58.0,18.0,,,HRV,HRV_0118,2022-11-30 18:15:13
,wl-rdm,135,336181,0.0-8.18-0.18,1.0,136.0,,,,,,,[],,,,,,53.2,0.0,i,1.0,False,673.2999999821186,41.0,60.0,40.0,False,,300.8234601484781,[],"[960, 540]",ColorTask,57.0,19.0,,,HRV,HRV_0118,2022-11-30 18:15:13
,wl-rdm,136,338064,0.0-8.19-0.19,1.0,137.0,,,,,,,[],,,,,,87.9,0.0,u,0.0,True,587.9000000059605,36.0,60.0,40.0,False,,219.95436628258273,[],"[960, 540]",ColorTask,58.0,20.0,,,HRV,HRV_0118,2022-11-30 18:15:13
,wl-rdm,137,340181,0.0-8.20-0.20,1.0,138.0,,,,,,,[],,,,,,56.4,0.0,i,1.0,False,650.7999999821186,40.0,60.0,40.0,False,,375.02330474476673,[],"[960, 540]",ColorTask,57.0,21.0,,,HRV,HRV_0118,2022-11-30 18:15:13
,wl-rdm,138,342164,0.0-8.21-0.21,1.0,139.0,,,,,,,[],,,,,,50.0,0.0,u,0.0,True,607.4000000059605,37.0,60.0,40.0,False,,300.4883037169294,[],"[960, 540]",ColorTask,58.0,22.0,,,HRV,HRV_0118,2022-11-30 18:15:13
,wl-rdm,139,344231,0.0-8.22-0.22,1.0,140.0,,,,,,,[],,,,,,50.0,1.0,u,0.0,False,742.8000000119209,45.0,60.0,40.0,False,,243.6577270356877,[],"[960, 540]",ColorTask,57.0,23.0,,,HRV,HRV_0118,2022-11-30 18:15:13
,wl-rdm,140,346481,0.0-8.23-0.23,1.0,141.0,,,,,,,[],,,,,,56.4,1.0,u,0.0,False,897.3999999761581,54.0,60.0,40.0,False,,298.96578637467655,[],"[960, 540]",ColorTask,56.0,24.0,,,HRV,HRV_0118,2022-11-30 18:15:13
,wl-rdm,141,348597,0.0-8.24-0.24,1.0,142.0,,,,,,,[],,,,,,50.0,0.0,i,1.0,False,697.9000000059605,42.0,60.0,40.0,False,,355.21967349279555,[],"[960, 540]",ColorTask,55.0,25.0,,,HRV,HRV_0118,2022-11-30 18:15:13
,wl-rdm,142,350864,0.0-8.25-0.25,1.0,143.0,,,,,,,[],,,,,,53.2,1.0,u,0.0,False,881.6000000238419,53.0,60.0,40.0,False,,305.8087730845496,[],"[960, 540]",ColorTask,54.0,26.0,,,HRV,HRV_0118,2022-11-30 18:15:13
,wl-rdm,143,352814,0.0-8.26-0.26,1.0,144.0,,,,,,,[],,,,,,87.9,1.0,i,1.0,True,661.5999999940395,40.0,60.0,40.0,False,,233.18809376390644,[],"[960, 540]",ColorTask,55.0,27.0,,,HRV,HRV_0118,2022-11-30 18:15:13
,wl-rdm,144,354981,0.0-8.27-0.27,1.0,145.0,,,,,,,[],,,,,,62.5,1.0,i,1.0,True,767.6999999880791,47.0,60.0,40.0,False,,307.85745477535374,[],"[960, 540]",ColorTask,56.0,28.0,,,HRV,HRV_0118,2022-11-30 18:15:13
,wl-rdm,145,357047,0.0-8.28-0.28,1.0,146.0,,,,,,,[],,,,,,50.0,1.0,i,1.0,True,680.5,41.0,60.0,40.0,False,,318.24974848010305,[],"[960, 540]",ColorTask,57.0,29.0,,,HRV,HRV_0118,2022-11-30 18:15:13
,wl-rdm,146,359031,0.0-8.29-0.29,1.0,147.0,,,,,,,[],,,,,,50.0,1.0,u,0.0,False,582.2000000178814,35.0,60.0,40.0,False,,335.96665579400894,[],"[960, 540]",ColorTask,56.0,30.0,,,HRV,HRV_0118,2022-11-30 18:15:13
,wl-rdm,147,360981,0.0-8.30-0.30,1.0,148.0,,,,,,,[],,,,,,87.9,0.0,u,0.0,True,501.80000001192093,31.0,60.0,40.0,False,,360.16375505903505,[],"[960, 540]",ColorTask,57.0,31.0,,,HRV,HRV_0118,2022-11-30 18:15:13
,wl-rdm,148,362898,0.0-8.31-0.31,1.0,149.0,,,,,,,[],,,,,,87.9,1.0,i,1.0,True,492.69999998807907,30.0,60.0,40.0,False,,361.6135904830586,[],"[960, 540]",ColorTask,58.0,32.0,,,HRV,HRV_0118,2022-11-30 18:15:13
,wl-rdm,149,365148,0.0-8.32-0.32,1.0,150.0,,,,,,,[],,,,,,50.0,1.0,u,0.0,False,804.3000000119209,49.0,60.0,40.0,False,,357.4827338225064,[],"[960, 540]",ColorTask,57.0,33.0,,,HRV,HRV_0118,2022-11-30 18:15:13
,wl-rdm,150,366981,0.0-8.33-0.33,1.0,151.0,,,,,,,[],,,,,,87.9,1.0,i,1.0,True,469.09999999403954,29.0,60.0,40.0,False,,276.97313751313163,[],"[960, 540]",ColorTask,58.0,34.0,,,HRV,HRV_0118,2022-11-30 18:15:13
,wl-rdm,151,368981,0.0-8.34-0.34,1.0,152.0,,,,,,,[],,,,,,56.4,1.0,u,0.0,False,548.1999999880791,33.0,60.0,40.0,False,,389.69235873957314,[],"[960, 540]",ColorTask,57.0,35.0,,,HRV,HRV_0118,2022-11-30 18:15:13
,wl-rdm,152,371181,0.0-8.35-0.35,1.0,153.0,,,,,,,[],,,,,,53.2,0.0,i,1.0,False,764.9000000059605,46.0,60.0,40.0,False,,360.9673609572799,[],"[960, 540]",ColorTask,56.0,36.0,,,HRV,HRV_0118,2022-11-30 18:15:13
,wl-rdm,153,373248,0.0-8.36-0.36,1.0,154.0,,,,,,,[],,,,,,53.2,1.0,i,1.0,True,667.5999999940395,41.0,60.0,40.0,False,,309.2156686182501,[],"[960, 540]",ColorTask,57.0,37.0,,,HRV,HRV_0118,2022-11-30 18:15:13
,wl-rdm,154,375248,0.0-8.37-0.37,1.0,155.0,,,,,,,[],,,,,,50.0,1.0,i,1.0,True,713.0,43.0,60.0,40.0,False,,222.49198190074296,[],"[960, 540]",ColorTask,58.0,38.0,,,HRV,HRV_0118,2022-11-30 18:15:13
,wl-rdm,155,377098,0.0-8.38-0.38,1.0,156.0,,,,,,,[],,,,,,62.5,1.0,i,1.0,True,582.8999999761581,35.0,60.0,40.0,False,,204.4647744765602,[],"[960, 540]",ColorTask,59.0,39.0,,,HRV,HRV_0118,2022-11-30 18:15:13
,wl-rdm,156,379115,0.0-8.39-0.39,1.0,157.0,,,,,,,[],,,,,,53.2,1.0,i,1.0,True,685.0,42.0,60.0,40.0,False,,246.29204592988302,[],"[960, 540]",ColorTask,60.0,40.0,,,HRV,HRV_0118,2022-11-30 18:15:13
,wl-rdm,157,381098,0.0-8.40-0.40,1.0,158.0,,,,,,,[],,,,,,56.4,1.0,i,1.0,True,588.0999999940395,36.0,60.0,40.0,False,,300.64500730031756,[],"[960, 540]",ColorTask,61.0,41.0,,,HRV,HRV_0118,2022-11-30 18:15:13
,wl-rdm,158,383081,0.0-8.41-0.41,1.0,159.0,,,,,,,[],,,,,,87.9,0.0,u,0.0,True,689.5999999940395,42.0,60.0,40.0,False,,200.6097056908804,[],"[960, 540]",ColorTask,62.0,42.0,,,HRV,HRV_0118,2022-11-30 18:15:13
,wl-rdm,159,384931,0.0-8.42-0.42,1.0,160.0,,,,,,,[],,,,,,73.6,1.0,i,1.0,True,531.6999999880791,32.0,60.0,40.0,False,,251.02740034463523,[],"[960, 540]",ColorTask,63.0,43.0,,,HRV,HRV_0118,2022-11-30 18:15:13
,wl-rdm,160,387031,0.0-8.43-0.43,1.0,161.0,,,,,,,[],,,,,,62.5,0.0,i,1.0,False,755.9000000059605,46.0,60.0,40.0,False,,250.00754655329905,[],"[960, 540]",ColorTask,62.0,44.0,,,HRV,HRV_0118,2022-11-30 18:15:13
,wl-rdm,161,389015,0.0-8.44-0.44,1.0,162.0,,,,,,,[],,,,,,50.0,0.0,i,1.0,False,663.0,40.0,60.0,40.0,False,,253.99666125966738,[],"[960, 540]",ColorTask,61.0,45.0,,,HRV,HRV_0118,2022-11-30 18:15:13
,wl-rdm,162,390998,0.0-8.45-0.45,1.0,163.0,,,,,,,[],,,,,,87.9,1.0,i,1.0,True,526.4000000059605,32.0,60.0,40.0,False,,374.2462301472634,[],"[960, 540]",ColorTask,62.0,46.0,,,HRV,HRV_0118,2022-11-30 18:15:13
,wl-rdm,163,393115,0.0-8.46-0.46,1.0,164.0,,,,,,,[],,,,,,53.2,0.0,i,1.0,False,765.5999999940395,46.0,60.0,40.0,False,,288.9077742518814,[],"[960, 540]",ColorTask,61.0,47.0,,,HRV,HRV_0118,2022-11-30 18:15:13
,wl-rdm,164,395215,0.0-8.47-0.47,1.0,165.0,,,,,,,[],,,,,,87.9,0.0,u,0.0,True,645.4000000059605,39.0,60.0,40.0,False,,395.271886166868,[],"[960, 540]",ColorTask,62.0,48.0,,,HRV,HRV_0118,2022-11-30 18:15:13
,wl-rdm,165,397181,0.0-8.48-0.48,1.0,166.0,,,,,,,[],,,,,,73.6,1.0,i,1.0,True,603.0,37.0,60.0,40.0,False,,277.66446916437206,[],"[960, 540]",ColorTask,63.0,49.0,,,HRV,HRV_0118,2022-11-30 18:15:13
,wl-rdm,166,399315,0.0-8.49-0.49,1.0,167.0,,,,,,,[],,,,,,53.2,1.0,u,0.0,False,809.1999999880791,49.0,60.0,40.0,False,,240.66422080358643,[],"[960, 540]",ColorTask,62.0,50.0,,,HRV,HRV_0118,2022-11-30 18:15:13
,wl-rdm,167,401581,0.0-8.50-0.50,1.0,168.0,,,,,,,[],,,,,,53.2,0.0,i,1.0,False,964.7000000178814,58.0,60.0,40.0,False,,230.10148427281487,[],"[960, 540]",ColorTask,61.0,51.0,,,HRV,HRV_0118,2022-11-30 18:15:13
,wl-rdm,168,403798,0.0-8.51-0.51,1.0,169.0,,,,,,,[],,,,,,73.6,0.0,u,0.0,True,920.1000000238419,56.0,60.0,40.0,False,,201.04771128162238,[],"[960, 540]",ColorTask,62.0,52.0,,,HRV,HRV_0118,2022-11-30 18:15:13
,wl-rdm,169,405698,0.0-8.52-0.52,1.0,170.0,,,,,,,[],,,,,,73.6,0.0,u,0.0,True,450.69999998807907,28.0,60.0,40.0,False,,357.93440584573386,[],"[960, 540]",ColorTask,63.0,53.0,,,HRV,HRV_0118,2022-11-30 18:15:13
,wl-rdm,170,407965,0.0-8.53-0.53,1.0,171.0,,,,,,,[],,,,,,50.0,1.0,u,0.0,False,895.0999999940395,54.0,60.0,40.0,False,,313.55443692149174,[],"[960, 540]",ColorTask,62.0,54.0,,,HRV,HRV_0118,2022-11-30 18:15:13
,wl-rdm,171,409948,0.0-8.54-0.54,1.0,172.0,,,,,,,[],,,,,,62.5,1.0,i,1.0,True,608.0,37.0,60.0,40.0,False,,290.08018118706013,[],"[960, 540]",ColorTask,63.0,55.0,,,HRV,HRV_0118,2022-11-30 18:15:13
,wl-rdm,172,411798,0.0-8.55-0.55,1.0,173.0,,,,,,,[],,,,,,62.5,1.0,i,1.0,True,528.9000000059605,32.0,60.0,40.0,False,,242.8229864534688,[],"[960, 540]",ColorTask,64.0,56.0,,,HRV,HRV_0118,2022-11-30 18:15:13
,wl-rdm,173,413815,0.0-8.56-0.56,1.0,174.0,,,,,,,[],,,,,,62.5,0.0,u,0.0,True,625.0,38.0,60.0,40.0,False,,330.51033887522954,[],"[960, 540]",ColorTask,65.0,57.0,,,HRV,HRV_0118,2022-11-30 18:15:13
,wl-rdm,174,415881,0.0-8.57-0.57,1.0,175.0,,,,,,,[],,,,,,62.5,0.0,u,0.0,True,709.4000000059605,43.0,60.0,40.0,False,,271.0678012496801,[],"[960, 540]",ColorTask,66.0,58.0,,,HRV,HRV_0118,2022-11-30 18:15:13
,wl-rdm,175,417831,0.0-8.58-0.58,1.0,176.0,,,,,,,[],,,,,,73.6,1.0,i,1.0,True,639.1999999880791,39.0,60.0,40.0,False,,239.4764441665739,[],"[960, 540]",ColorTask,67.0,59.0,,,HRV,HRV_0118,2022-11-30 18:15:13
,wl-rdm,176,419932,0.0-8.59-0.59,1.0,177.0,,,,,,,[],,,,,,62.5,0.0,u,0.0,True,801.4000000059605,49.0,60.0,40.0,False,,231.90759416604664,[],"[960, 540]",ColorTask,68.0,60.0,,,HRV,HRV_0118,2022-11-30 18:15:13
,wl-rdm,177,422165,0.0-8.60-0.60,1.0,178.0,,,,,,,[],,,,,,53.2,1.0,i,1.0,True,799.1999999880791,48.0,60.0,40.0,False,,353.7956904521134,[],"[960, 540]",ColorTask,69.0,61.0,,,HRV,HRV_0118,2022-11-30 18:15:13
,wl-rdm,178,424081,0.0-8.61-0.61,1.0,179.0,,,,,,,[],,,,,,73.6,1.0,i,1.0,True,501.90000000596046,31.0,60.0,40.0,False,,341.51319049918385,[],"[960, 540]",ColorTask,70.0,62.0,,,HRV,HRV_0118,2022-11-30 18:15:13
,wl-rdm,179,426065,0.0-8.62-0.62,1.0,180.0,,,,,,,[],,,,,,73.6,0.0,u,0.0,True,553.8000000119209,34.0,60.0,40.0,False,,356.4340259388993,[],"[960, 540]",ColorTask,71.0,63.0,,,HRV,HRV_0118,2022-11-30 18:15:13
,wl-rdm,180,428748,0.0-8.63-0.63,1.0,181.0,,,,,,,[],,,,,,50.0,1.0,i,1.0,True,1310.9000000059605,79.0,60.0,40.0,False,,302.73738838088684,[],"[960, 540]",ColorTask,72.0,64.0,,,HRV,HRV_0118,2022-11-30 18:15:13
,wl-rdm,181,430931,0.0-8.64-0.64,1.0,182.0,,,,,,,[],,,,,,73.6,0.0,u,0.0,True,722.0999999940395,44.0,60.0,40.0,False,,368.8647660052229,[],"[960, 540]",ColorTask,73.0,65.0,,,HRV,HRV_0118,2022-11-30 18:15:13
,wl-rdm,182,432781,0.0-8.65-0.65,1.0,183.0,,,,,,,[],,,,,,87.9,0.0,u,0.0,True,525.2999999821186,32.0,60.0,40.0,False,,241.70558886695602,[],"[960, 540]",ColorTask,74.0,66.0,,,HRV,HRV_0118,2022-11-30 18:15:13
,wl-rdm,183,434631,0.0-8.66-0.66,1.0,184.0,,,,,,,[],,,,,,87.9,0.0,u,0.0,True,562.9000000059605,34.0,60.0,40.0,False,,215.27513302444208,[],"[960, 540]",ColorTask,75.0,67.0,,,HRV,HRV_0118,2022-11-30 18:15:13
,wl-rdm,184,436615,0.0-8.67-0.67,1.0,185.0,,,,,,,[],,,,,,73.6,1.0,i,1.0,True,581.2999999821186,35.0,60.0,40.0,False,,332.1470644831403,[],"[960, 540]",ColorTask,76.0,68.0,,,HRV,HRV_0118,2022-11-30 18:15:13
,wl-rdm,185,438781,0.0-8.68-0.68,1.0,186.0,,,,,,,[],,,,,,50.0,0.0,i,1.0,False,831.2000000178814,50.0,60.0,40.0,False,,280.8803085545504,[],"[960, 540]",ColorTask,75.0,69.0,,,HRV,HRV_0118,2022-11-30 18:15:13
,wl-rdm,186,440732,0.0-8.69-0.69,1.0,187.0,,,,,,,[],,,,,,73.6,1.0,i,1.0,True,517.4000000059605,32.0,60.0,40.0,False,,340.36826997137376,[],"[960, 540]",ColorTask,76.0,70.0,,,HRV,HRV_0118,2022-11-30 18:15:13
,wl-rdm,187,442781,0.0-8.70-0.70,1.0,188.0,,,,,,,[],,,,,,62.5,0.0,u,0.0,True,569.6000000238419,35.0,60.0,40.0,False,,392.64600979498687,[],"[960, 540]",ColorTask,77.0,71.0,,,HRV,HRV_0118,2022-11-30 18:15:13
,wl-rdm,188,444615,0.0-8.71-0.71,1.0,189.0,,,,,,,[],,,,,,50.0,0.0,i,1.0,False,501.0,31.0,60.0,40.0,False,,240.73993889081152,[],"[960, 540]",ColorTask,76.0,72.0,,,HRV,HRV_0118,2022-11-30 18:15:13
,wl-rdm,189,446415,0.0-8.72-0.72,1.0,190.0,,,,,,,[],,,,,,87.9,0.0,u,0.0,True,509.90000000596046,31.0,60.0,40.0,False,,211.39440939644905,[],"[960, 540]",ColorTask,77.0,73.0,,,HRV,HRV_0118,2022-11-30 18:15:13
,wl-rdm,190,448415,0.0-8.73-0.73,1.0,191.0,,,,,,,[],,,,,,56.4,1.0,i,1.0,True,700.8999999761581,43.0,60.0,40.0,False,,227.15355971288912,[],"[960, 540]",ColorTask,78.0,74.0,,,HRV,HRV_0118,2022-11-30 18:15:13
,wl-rdm,191,450348,0.0-8.74-0.74,1.0,192.0,,,,,,,[],,,,,,56.4,1.0,i,1.0,True,636.2000000178814,39.0,60.0,40.0,False,,201.85076579753547,[],"[960, 540]",ColorTask,79.0,75.0,,,HRV,HRV_0118,2022-11-30 18:15:13
,wl-rdm,192,452415,0.0-8.75-0.75,1.0,193.0,,,,,,,[],,,,,,62.5,1.0,i,1.0,True,644.0,39.0,60.0,40.0,False,,341.35432350905717,[],"[960, 540]",ColorTask,80.0,76.0,,,HRV,HRV_0118,2022-11-30 18:15:13
,wl-rdm,193,454715,0.0-8.76-0.76,1.0,194.0,,,,,,,[],,,,,,56.4,0.0,u,0.0,True,1025.9000000059605,62.0,60.0,40.0,False,,213.22906453187665,[],"[960, 540]",ColorTask,81.0,77.0,,,HRV,HRV_0118,2022-11-30 18:15:13
,wl-rdm,194,456781,0.0-8.77-0.77,1.0,195.0,,,,,,,[],,,,,,73.6,1.0,i,1.0,True,677.2000000178814,41.0,60.0,40.0,False,,302.16554631831167,[],"[960, 540]",ColorTask,82.0,78.0,,,HRV,HRV_0118,2022-11-30 18:15:13
,wl-rdm,195,459348,0.0-8.78-0.78,1.0,196.0,,,,,,,[],,,,,,62.5,1.0,i,1.0,True,1269.4000000059605,77.0,60.0,40.0,False,,206.1606589075338,[],"[960, 540]",ColorTask,83.0,79.0,,,HRV,HRV_0118,2022-11-30 18:15:13
,wl-rdm,196,461315,0.0-8.79-0.79,1.0,197.0,,,,,,,[],,,,,,73.6,0.0,u,0.0,True,571.8000000119209,35.0,60.0,40.0,False,,327.87852365279724,[],"[960, 540]",ColorTask,84.0,80.0,,,HRV,HRV_0118,2022-11-30 18:15:13
,wl-rdm,197,463781,0.0-8.80-0.80,1.0,198.0,,,,,,,[],,,,,,62.5,0.0,u,0.0,True,1002.7999999821186,61.0,60.0,40.0,False,,372.61472046993,[],"[960, 540]",ColorTask,85.0,81.0,,,HRV,HRV_0118,2022-11-30 18:15:13
,wl-rdm,198,465898,0.0-8.81-0.81,1.0,199.0,,,,,,,[],,,,,,62.5,0.0,u,0.0,True,786.2000000178814,48.0,60.0,40.0,False,,234.04290619469444,[],"[960, 540]",ColorTask,86.0,82.0,,,HRV,HRV_0118,2022-11-30 18:15:13
,wl-rdm,199,468298,0.0-8.82-0.82,1.0,200.0,,,,,,,[],,,,,,53.2,0.0,i,1.0,False,946.1999999880791,57.0,60.0,40.0,False,,399.1496435242538,[],"[960, 540]",ColorTask,85.0,83.0,,,HRV,HRV_0118,2022-11-30 18:15:13
,wl-rdm,200,470348,0.0-8.83-0.83,1.0,201.0,,,,,,,[],,,,,,62.5,1.0,i,1.0,True,660.8999999761581,40.0,60.0,40.0,False,,310.14390751378727,[],"[960, 540]",ColorTask,86.0,84.0,,,HRV,HRV_0118,2022-11-30 18:15:13
,wl-rdm,201,472248,0.0-8.84-0.84,1.0,202.0,,,,,,,[],,,,,,87.9,1.0,i,1.0,True,507.0000000298023,31.0,60.0,40.0,False,,302.4059156639976,[],"[960, 540]",ColorTask,87.0,85.0,,,HRV,HRV_0118,2022-11-30 18:15:13
,wl-rdm,202,474432,0.0-8.85-0.85,1.0,203.0,,,,,,,[],,,,,,53.2,0.0,u,0.0,True,828.8999999761581,50.0,60.0,40.0,False,,285.57030793377936,[],"[960, 540]",ColorTask,88.0,86.0,,,HRV,HRV_0118,2022-11-30 18:15:13
,wl-rdm,203,476631,0.0-8.86-0.86,1.0,204.0,,,,,,,[],,,,,,73.6,0.0,u,0.0,True,812.0999999940395,49.0,60.0,40.0,False,,314.5140755685049,[],"[960, 540]",ColorTask,89.0,87.0,,,HRV,HRV_0118,2022-11-30 18:15:13
,wl-rdm,204,478981,0.0-8.87-0.87,1.0,205.0,,,,,,,[],,,,,,62.5,0.0,u,0.0,True,989.0999999940395,60.0,60.0,40.0,False,,287.1090325558888,[],"[960, 540]",ColorTask,90.0,88.0,,,HRV,HRV_0118,2022-11-30 18:15:13
,wl-rdm,205,480998,0.0-8.88-0.88,1.0,206.0,,,,,,,[],,,,,,87.9,1.0,i,1.0,True,629.6999999880791,38.0,60.0,40.0,False,,302.2726278558405,[],"[960, 540]",ColorTask,91.0,89.0,,,HRV,HRV_0118,2022-11-30 18:15:13
,wl-rdm,206,482981,0.0-8.89-0.89,1.0,207.0,,,,,,,[],,,,,,56.4,0.0,u,0.0,True,699.0999999940395,42.0,60.0,40.0,False,,209.42737291851776,[],"[960, 540]",ColorTask,92.0,90.0,,,HRV,HRV_0118,2022-11-30 18:15:13
,wl-rdm,207,485264,0.0-8.90-0.90,1.0,208.0,,,,,,,[],,,,,,73.6,1.0,i,1.0,True,920.6000000238419,56.0,60.0,40.0,False,,274.27621644095905,[],"[960, 540]",ColorTask,93.0,91.0,,,HRV,HRV_0118,2022-11-30 18:15:13
,wl-rdm,208,487998,0.0-8.91-0.91,1.0,209.0,,,,,,,[],,,,,,56.4,0.0,u,0.0,True,1360.1000000238419,82.0,60.0,40.0,False,,301.7070425856532,[],"[960, 540]",ColorTask,94.0,92.0,,,HRV,HRV_0118,2022-11-30 18:15:13
,wl-rdm,209,490581,0.0-8.92-0.92,1.0,210.0,,,,,,,[],,,,,,56.4,1.0,i,1.0,True,1190.800000011921,72.0,60.0,40.0,False,,321.0362124048816,[],"[960, 540]",ColorTask,95.0,93.0,,,HRV,HRV_0118,2022-11-30 18:15:13
,wl-rdm,210,493114,0.0-8.93-0.93,1.0,211.0,,,,,,,[],,,,,,56.4,0.0,u,0.0,True,1210.0,73.0,60.0,40.0,False,,252.0426327912741,[],"[960, 540]",ColorTask,96.0,94.0,,,HRV,HRV_0118,2022-11-30 18:15:13
,wl-rdm,211,495698,0.0-8.94-0.94,1.0,212.0,,,,,,,[],,,,,,53.2,1.0,i,1.0,True,1122.9000000059605,68.0,60.0,40.0,False,,383.76326752402304,[],"[960, 540]",ColorTask,97.0,95.0,,,HRV,HRV_0118,2022-11-30 18:15:13
,wl-rdm,212,498481,0.0-8.95-0.95,1.0,213.0,,,,,,,[],,,,,,50.0,0.0,u,0.0,True,1352.0999999940395,82.0,60.0,40.0,False,,364.75167729132374,[],"[960, 540]",ColorTask,98.0,96.0,,,HRV,HRV_0118,2022-11-30 18:15:13
,wl-rdm,213,500698,0.0-8.96-0.96,1.0,214.0,,,,,,,[],,,,,,62.5,1.0,i,1.0,True,890.8000000119209,54.0,60.0,40.0,False,,237.8920267751841,[],"[960, 540]",ColorTask,99.0,97.0,,,HRV,HRV_0118,2022-11-30 18:15:13
,wl-rdm,214,503531,0.0-8.97-0.97,1.0,215.0,,,,,,,[],,,,,,56.4,0.0,i,1.0,False,1385.199999988079,84.0,60.0,40.0,False,,376.56842588744024,[],"[960, 540]",ColorTask,98.0,98.0,,,HRV,HRV_0118,2022-11-30 18:15:13
,wl-rdm,215,506315,0.0-8.98-0.98,1.0,216.0,,,,,,,[],,,,,,53.2,1.0,i,1.0,True,1431.1000000238419,86.0,60.0,40.0,False,,277.0076685441546,[],"[960, 540]",ColorTask,99.0,99.0,,,HRV,HRV_0118,2022-11-30 18:15:13
,wl-rdm,216,508481,0.0-8.99-0.99,1.0,217.0,,,,,,,[],,,,,,87.9,1.0,i,1.0,True,759.0,46.0,60.0,40.0,False,,322.46776295815073,[],"[960, 540]",ColorTask,100.0,100.0,,,HRV,HRV_0118,2022-11-30 18:15:13
,wl-rdm,217,510981,0.0-8.100-0.100,1.0,218.0,,,,,,,[],,,,,,50.0,1.0,u,0.0,False,1185.0,72.0,60.0,40.0,False,,223.58281839359861,[],"[960, 540]",ColorTask,99.0,101.0,,,HRV,HRV_0118,2022-11-30 18:15:13
,wl-rdm,218,513515,0.0-8.101-0.101,1.0,219.0,,,,,,,[],,,,,,50.0,0.0,u,0.0,True,1075.2999999821186,65.0,60.0,40.0,False,,386.0552681317495,[],"[960, 540]",ColorTask,100.0,102.0,,,HRV,HRV_0118,2022-11-30 18:15:13
,wl-rdm,219,516064,0.0-8.102-0.102,1.0,220.0,,,,,,,[],,,,,,56.4,0.0,u,0.0,True,1111.699999988079,67.0,60.0,40.0,False,,360.94690178315443,[],"[960, 540]",ColorTask,101.0,103.0,,,HRV,HRV_0118,2022-11-30 18:15:13
,wl-rdm,220,518348,0.0-8.103-0.103,1.0,221.0,,,,,,,[],,,,,,87.9,0.0,u,0.0,True,867.7000000178814,53.0,60.0,40.0,False,,318.68142547067924,[],"[960, 540]",ColorTask,102.0,104.0,,,HRV,HRV_0118,2022-11-30 18:15:13
,wl-rdm,221,520415,0.0-8.104-0.104,1.0,222.0,,,,,,,[],,,,,,87.9,1.0,i,1.0,True,679.2999999821186,41.0,60.0,40.0,False,,325.8867829826402,[],"[960, 540]",ColorTask,103.0,105.0,,,HRV,HRV_0118,2022-11-30 18:15:13
,wl-rdm,222,522781,0.0-8.105-0.105,1.0,223.0,,,,,,,[],,,,,,53.2,1.0,i,1.0,True,1023.0999999940395,62.0,60.0,40.0,False,,270.43273506703343,[],"[960, 540]",ColorTask,104.0,106.0,,,HRV,HRV_0118,2022-11-30 18:15:13
,wl-rdm,223,524631,0.0-8.106-0.106,1.0,224.0,,,,,,,[],,,,,,87.9,1.0,i,1.0,True,543.1999999880791,33.0,60.0,40.0,False,,235.76680477699864,[],"[960, 540]",ColorTask,105.0,107.0,,,HRV,HRV_0118,2022-11-30 18:15:13
,wl-rdm,224,527364,0.0-8.107-0.107,1.0,225.0,,,,,,,[],,,,,,50.0,0.0,u,0.0,True,1410.5,85.0,60.0,40.0,False,,254.2611653930989,[],"[960, 540]",ColorTask,106.0,108.0,,,HRV,HRV_0118,2022-11-30 18:15:13
,wl-html-button-response,225,531213,0.0-9.0-0.0,,,,,,,,,,3846.199999988079,,0,,,,,,,,,,,,,,,,,,,,<h3>End of this session. Thank you!</h3><br>,['Close window'],HRV,HRV_0118,2022-11-30 18:15:13
