success,trial_type,trial_index,time_elapsed,internal_node_id,missTrial,missTrialMsg,Block,TrialNumber,TrialTime,trialTimeDiff,FPS_avg,FPS_med,FPS_mode,TrialDur,winResizeTime,rt,block,button_pressed,MotCoh,MotDir,ColCoh,Color,ChoiceKey,Choice,Accuracy,RT,nFrames,FPS,PPD,onsetDelay,fullScreenExitTime,canvCenter,TrialType,Score,BlockTrial,stimulus,button_labels,exp,subjectId,date
True,fullscreen,0,76331,0.0-0.0,True,undefinedblurEvent ,0.0,0.0,,,,,,,,,,,,,,,,,,,,,,,,,,,,,,HRV,HRV_0157,2022-11-30 18:35:21
,wl-check-fps,1,81349,0.0-1.0,,,0.0,1.0,"[76715.7, 76724.7, 76741.5, 76758.3, 76775, 76791.1, 76807.9, 76826.5, 76857.8, 76874.3, 76891.6, 76907.5, 76924.4, 76940.9, 76957.8, 76974.6, 76991.2, 77008, 77025, 77041.3, 77058.3, 77075.1, 77091.7, 77108.1, 77124.9, 77141.6, 77157.7, 77174.4, 77191.2, 77208.3, 77224.8, 77241.4, 77258, 77275, 77291.6, 77308.2, 77324.5, 77341.6, 77358.3, 77375.1, 77392, 77407.8, 77425, 77441.7, 77458.4, 77474.9, 77491.5, 77507.9, 77524.9, 77541.6, 77558.1, 77575, 77594.4, 77608.2, 77625.5, 77641.6, 77658.2, 77674.9, 77691.1, 77708.2, 77724.9, 77741.6, 77758.4, 77774.5, 77791.4, 77807.9, 77824.8, 77841.5, 77858.1, 77874.9, 77891.6, 77908.3, 77924.9, 77941.2, 77958.2, 77974.5, 77991.3, 78007.8, 78024.6, 78041.2, 78058.1, 78074.6, 78091.3, 78108.3, 78124.8, 78141.6, 78158.3, 78174.6, 78191, 78207.6, 78224.1, 78241, 78257.5, 78274.6, 78291.6, 78307.8, 78324.8, 78341.4, 78357.6, 78374.5, 78392, 78408.2, 78424.9, 78441.5, 78458.1, 78474.8, 78491.5, 78508.3, 78524.8, 78541.3, 78558.1, 78574.5, 78592, 78610.6, 78624.5, 78641.2, 78658.3, 78674.7, 78691.4, 78708, 78724.8, 78741.4, 78758.1, 78774.7, 78791.4, 78808.1, 78824.8, 78841.4, 78858, 78874.7, 78891.5, 78907.7, 78924.8, 78941.4, 78958.1, 78974.6, 78991.4, 79007.8, 79024.6, 79041.3, 79058, 79074.6, 79091.1, 79108.2, 79124.4, 79141, 79157.7, 79174.7, 79191.4, 79208, 79224.9, 79241.5, 79257.9, 79274.7, 79291, 79307.2, 79324.5, 79341.3, 79358, 79374.4, 79391.7, 79408, 79424.4, 79441.3, 79457.9, 79474.6, 79491.3, 79510.8, 79524.6, 79541.3, 79558.1, 79574.7, 79591.4, 79608.5, 79624.7, 79641.2, 79657.9, 79674.6, 79691.3, 79708.1, 79724.5, 79741.4, 79757.8, 79774.7, 79791.2, 79807.9, 79824.5, 79841.4, 79857.9, 79874.3, 79891.4, 79908, 79924.8, 79941.2, 79957.9, 79974.6, 79991.3, 80007.9, 80024.5, 80041.1, 80057.8, 80074.5, 80091.3, 80107.9, 80124.7, 80141.3, 80157.9, 80174.2, 80191.2, 80207.8, 80224.6, 80240.9, 80257.5, 80274.6, 80291.2, 80307.9, 80324.6, 80341.3, 80357.5, 80374.2, 80391.9, 80408.2, 80424.6, 80441.2, 80457.9, 80474.9, 80491.5, 80508, 80524.9, 80541.3, 80557.8, 80574.7, 80591.3, 80611.6, 80628.1, 80641.7, 80657.9, 80674.6, 80691.5, 80708.2, 80724.6, 80741.6, 80759.1, 80774.7, 80790.9, 80807.9, 80824.6, 80840.8, 80857.9, 80874.7, 80891.5, 80908.1, 80924.9, 80941.6, 80958.2, 80974.6, 80991.5, 81008, 81024.5, 81041.5, 81057.7, 81074.4, 81090.9, 81107.5, 81124.4, 81141.1, 81157.4, 81174.1, 81190.7, 81207.2, 81224.1, 81240.9, 81257.7, 81274.4, 81291.1, 81307.7, 81324.5, 81341.1, 81357.6, 81374, 81391.1, 81407.7, 81424.4, 81441.3, 81457.8, 81474.4, 81491.1, 81507.7, 81524, 81540.7, 81557.4, 81574, 81591.2, 81607.9, 81623.8, 81640.4, 81657.2, 81674.2, 81690.9, 81707.7]","[2.1, 9, 16.8, 16.8, 16.7, 16.1, 16.8, 18.6, 31.3, 16.5, 17.3, 15.9, 16.9, 16.5, 16.9, 16.8, 16.6, 16.8, 17, 16.3, 17, 16.8, 16.6, 16.4, 16.8, 16.7, 16.1, 16.7, 16.8, 17.1, 16.5, 16.6, 16.6, 17, 16.6, 16.6, 16.3, 17.1, 16.7, 16.8, 16.9, 15.8, 17.2, 16.7, 16.7, 16.5, 16.6, 16.4, 17, 16.7, 16.5, 16.9, 19.4, 13.8, 17.3, 16.1, 16.6, 16.7, 16.2, 17.1, 16.7, 16.7, 16.8, 16.1, 16.9, 16.5, 16.9, 16.7, 16.6, 16.8, 16.7, 16.7, 16.6, 16.3, 17, 16.3, 16.8, 16.5, 16.8, 16.6, 16.9, 16.5, 16.7, 17, 16.5, 16.8, 16.7, 16.3, 16.4, 16.6, 16.5, 16.9, 16.5, 17.1, 17, 16.2, 17, 16.6, 16.2, 16.9, 17.5, 16.2, 16.7, 16.6, 16.6, 16.7, 16.7, 16.8, 16.5, 16.5, 16.8, 16.4, 17.5, 18.6, 13.9, 16.7, 17.1, 16.4, 16.7, 16.6, 16.8, 16.6, 16.7, 16.6, 16.7, 16.7, 16.7, 16.6, 16.6, 16.7, 16.8, 16.2, 17.1, 16.6, 16.7, 16.5, 16.8, 16.4, 16.8, 16.7, 16.7, 16.6, 16.5, 17.1, 16.2, 16.6, 16.7, 17, 16.7, 16.6, 16.9, 16.6, 16.4, 16.8, 16.3, 16.2, 17.3, 16.8, 16.7, 16.4, 17.3, 16.3, 16.4, 16.9, 16.6, 16.7, 16.7, 19.5, 13.8, 16.7, 16.8, 16.6, 16.7, 17.1, 16.2, 16.5, 16.7, 16.7, 16.7, 16.8, 16.4, 16.9, 16.4, 16.9, 16.5, 16.7, 16.6, 16.9, 16.5, 16.4, 17.1, 16.6, 16.8, 16.4, 16.7, 16.7, 16.7, 16.6, 16.6, 16.6, 16.7, 16.7, 16.8, 16.6, 16.8, 16.6, 16.6, 16.3, 17, 16.6, 16.8, 16.3, 16.6, 17.1, 16.6, 16.7, 16.7, 16.7, 16.2, 16.7, 17.7, 16.3, 16.4, 16.6, 16.7, 17, 16.6, 16.5, 16.9, 16.4, 16.5, 16.9, 16.6, 20.3, 16.5, 13.6, 16.2, 16.7, 16.9, 16.7, 16.4, 17, 17.5, 15.6, 16.2, 17, 16.7, 16.2, 17.1, 16.8, 16.8, 16.6, 16.8, 16.7, 16.6, 16.4, 16.9, 16.5, 16.5, 17, 16.2, 16.7, 16.5, 16.6, 16.9, 16.7, 16.3, 16.7, 16.6, 16.5, 16.9, 16.8, 16.8, 16.7, 16.7, 16.6, 16.8, 16.6, 16.5, 16.4, 17.1, 16.6, 16.7, 16.9, 16.5, 16.6, 16.7, 16.6, 16.3, 16.7, 16.7, 16.6, 17.2, 16.7, 15.9, 16.6, 16.8, 17, 16.7, 16.8]",60.0,60.0,60.0,5011.0,[],,,,,,,,,,,,,,,,,,,,,,,HRV,HRV_0157,2022-11-30 18:35:21
,wl-html-keyboard-response,2,92078,0.0-2.0-0.0,,,0.0,2.0,,,,,,,,8710.700000047684,0.0,0,,,,,,,,,,,,,,,,,,,,HRV,HRV_0157,2022-11-30 18:35:21
,wl-rdm,3,98994,0.0-3.0-0.0,False,,0.0,3.0,,,,,,,[],,,,0.0,0.0,87.9,0.0,u,0.0,True,1286.6999999284744,78.0,60.0,40.0,3000.0,[],"[768, 432]",ColorTask_Demo,,,,,HRV,HRV_0157,2022-11-30 18:35:21
,wl-rdm,4,103792,0.0-3.0-1.0,False,,0.0,4.0,,,,,,,[],,,,0.0,0.0,87.9,1.0,i,1.0,True,718.8999999761581,44.0,60.0,40.0,2000.0,[],"[768, 432]",ColorTask_Demo,,,,,HRV,HRV_0157,2022-11-30 18:35:21
,wl-html-keyboard-response,5,125829,0.0-3.0-2.0,,,0.0,5.0,,,,,,,,,0.0,0,,,,,,,,,,,,,,,,,,,,HRV,HRV_0157,2022-11-30 18:35:21
,wl-rdm,6,132006,0.0-3.1-0.1,False,,0.0,3.0,,,,,,,[],,,,0.0,0.0,87.9,0.0,u,0.0,True,570.2999999523163,35.0,60.0,40.0,3000.0,[],"[768, 432]",ColorTask_Demo,,,,,HRV,HRV_0157,2022-11-30 18:35:21
,wl-rdm,7,136689,0.0-3.1-1.1,False,,0.0,4.0,,,,,,,[],,,,0.0,0.0,87.9,1.0,i,1.0,True,592.6000000238419,36.0,60.0,40.0,2000.0,[],"[768, 432]",ColorTask_Demo,,,,,HRV,HRV_0157,2022-11-30 18:35:21
,wl-html-keyboard-response,8,143759,0.0-3.1-2.1,,,0.0,5.0,,,,,,,,,0.0,0,,,,,,,,,,,,,,,,,,,,HRV,HRV_0157,2022-11-30 18:35:21
,wl-rdm,9,150421,0.0-3.2-0.2,False,,0.0,3.0,,,,,,,[],,,,0.0,0.0,87.9,0.0,u,0.0,True,1068.2000000476837,65.0,60.0,40.0,3000.0,[],"[768, 432]",ColorTask_Demo,,,,,HRV,HRV_0157,2022-11-30 18:35:21
,wl-rdm,10,154937,0.0-3.2-1.2,False,,0.0,4.0,,,,,,,[],,,,0.0,0.0,87.9,1.0,i,1.0,True,421.89999985694885,26.0,60.0,40.0,2000.0,[],"[768, 432]",ColorTask_Demo,,,,,HRV,HRV_0157,2022-11-30 18:35:21
,wl-html-keyboard-response,11,160900,0.0-3.2-2.2,,,0.0,5.0,,,,,,,,3941.7000000476837,0.0,1,,,,,,,,,,,,,,,,,,,,HRV,HRV_0157,2022-11-30 18:35:21
,wl-html-keyboard-response,12,168794,0.0-4.0-0.0,,,0.0,6.0,,,,,,,,5884.200000047684,0.0,0,,,,,,,,,,,,,,,,,,,,HRV,HRV_0157,2022-11-30 18:35:21
,wl-html-keyboard-response,13,180670,0.0-5.0-0.0,,,0.0,7.0,,,,,,,,9866.199999928474,0.0,0,,,,,,,,,,,,,,,,,,,,HRV,HRV_0157,2022-11-30 18:35:21
,wl-rdm,14,183483,0.0-6.0-0.0,False,,0.0,8.0,,,,,,,[],,,,,,53.2,0.0,i,1.0,False,1475.1000000238419,89.0,60.0,40.0,250.57077824136545,[],"[768, 432]",ColorTask,-1.0,1.0,,,HRV,HRV_0157,2022-11-30 18:35:21
,wl-rdm,15,185701,0.0-6.1-0.1,False,,0.0,9.0,,,,,,,[],,,,,,50.0,0.0,i,1.0,False,922.3999998569489,56.0,60.0,40.0,207.03754565910182,[],"[768, 432]",ColorTask,-2.0,2.0,,,HRV,HRV_0157,2022-11-30 18:35:21
,wl-rdm,16,187800,0.0-6.2-0.2,False,,0.0,10.0,,,,,,,[],,,,,,87.9,1.0,i,1.0,True,688.8999999761581,42.0,60.0,40.0,335.03535305965704,[],"[768, 432]",ColorTask,-1.0,3.0,,,HRV,HRV_0157,2022-11-30 18:35:21
,wl-rdm,17,190149,0.0-6.3-0.3,False,,0.0,11.0,,,,,,,[],,,,,,53.2,1.0,i,1.0,True,1031.5,62.0,60.0,40.0,245.4748252352435,[],"[768, 432]",ColorTask,0.0,4.0,,,HRV,HRV_0157,2022-11-30 18:35:21
,wl-rdm,18,192200,0.0-6.4-0.4,False,,0.0,12.0,,,,,,,[],,,,,,73.6,0.0,u,0.0,True,768.6000000238419,47.0,60.0,40.0,207.74444347714692,[],"[768, 432]",ColorTask,1.0,5.0,,,HRV,HRV_0157,2022-11-30 18:35:21
,wl-rdm,19,195133,0.0-6.5-0.5,False,,0.0,13.0,,,,,,,[],,,,,,50.0,1.0,u,0.0,False,1647.3999999761581,99.0,60.0,40.0,215.68466279277405,[],"[768, 432]",ColorTask,0.0,6.0,,,HRV,HRV_0157,2022-11-30 18:35:21
,wl-rdm,20,197699,0.0-6.6-0.6,False,,0.0,14.0,,,,,,,[],,,,,,56.4,0.0,u,0.0,True,1192.0,72.0,60.0,40.0,292.17765779925526,[],"[768, 432]",ColorTask,1.0,7.0,,,HRV,HRV_0157,2022-11-30 18:35:21
,wl-rdm,21,199882,0.0-6.7-0.7,False,,0.0,15.0,,,,,,,[],,,,,,73.6,0.0,u,0.0,True,870.1000000238419,53.0,60.0,40.0,233.59075204492564,[],"[768, 432]",ColorTask,2.0,8.0,,,HRV,HRV_0157,2022-11-30 18:35:21
,wl-rdm,22,202465,0.0-6.8-0.8,False,,0.0,16.0,,,,,,,[],,,,,,62.5,0.0,u,0.0,True,1194.4000000953674,72.0,60.0,40.0,332.7064332159779,[],"[768, 432]",ColorTask,3.0,9.0,,,HRV,HRV_0157,2022-11-30 18:35:21
,wl-rdm,23,204815,0.0-6.9-0.9,False,,0.0,17.0,,,,,,,[],,,,,,53.2,0.0,i,1.0,False,987.5,60.0,60.0,40.0,292.4170601098782,[],"[768, 432]",ColorTask,2.0,10.0,,,HRV,HRV_0157,2022-11-30 18:35:21
,wl-rdm,24,208048,0.0-6.10-0.10,False,,0.0,18.0,,,,,,,[],,,,,,50.0,0.0,u,0.0,True,1913.799999833107,115.0,60.0,40.0,236.8230842227331,[],"[768, 432]",ColorTask,3.0,11.0,,,HRV,HRV_0157,2022-11-30 18:35:21
,wl-rdm,25,210764,0.0-6.11-0.11,False,,0.0,19.0,,,,,,,[],,,,,,50.0,1.0,i,1.0,True,1254.7000000476837,76.0,60.0,40.0,397.09167746193714,[],"[768, 432]",ColorTask,4.0,12.0,,,HRV,HRV_0157,2022-11-30 18:35:21
,wl-rdm,26,212764,0.0-6.12-0.12,False,,0.0,20.0,,,,,,,[],,,,,,62.5,1.0,i,1.0,True,668.5,41.0,60.0,40.0,248.68812965873775,[],"[768, 432]",ColorTask,5.0,13.0,,,HRV,HRV_0157,2022-11-30 18:35:21
,wl-rdm,27,214914,0.0-6.13-0.13,False,,0.0,21.0,,,,,,,[],,,,,,50.0,0.0,u,0.0,True,860.5999999046326,52.0,60.0,40.0,207.37161984718884,[],"[768, 432]",ColorTask,6.0,14.0,,,HRV,HRV_0157,2022-11-30 18:35:21
,wl-rdm,28,217097,0.0-6.14-0.14,False,,0.0,22.0,,,,,,,[],,,,,,73.6,0.0,u,0.0,True,793.7000000476837,48.0,60.0,40.0,290.65762957665726,[],"[768, 432]",ColorTask,7.0,15.0,,,HRV,HRV_0157,2022-11-30 18:35:21
,wl-rdm,29,219096,0.0-6.15-0.15,False,,0.0,23.0,,,,,,,[],,,,,,87.9,1.0,i,1.0,True,619.2000000476837,38.0,60.0,40.0,306.09858403377063,[],"[768, 432]",ColorTask,8.0,16.0,,,HRV,HRV_0157,2022-11-30 18:35:21
,wl-rdm,30,222263,0.0-6.16-0.16,False,,0.0,24.0,,,,,,,[],,,,,,56.4,1.0,i,1.0,True,1712.4000000953674,103.0,60.0,40.0,398.4028436540276,[],"[768, 432]",ColorTask,9.0,17.0,,,HRV,HRV_0157,2022-11-30 18:35:21
,wl-rdm,31,224412,0.0-6.17-0.17,False,,0.0,25.0,,,,,,,[],,,,,,62.5,0.0,u,0.0,True,805.1000001430511,49.0,60.0,40.0,257.67368856354244,[],"[768, 432]",ColorTask,10.0,18.0,,,HRV,HRV_0157,2022-11-30 18:35:21
,wl-rdm,32,226462,0.0-6.18-0.18,False,,0.0,26.0,,,,,,,[],,,,,,73.6,1.0,i,1.0,True,750.8000000715256,46.0,60.0,40.0,220.299775746073,[],"[768, 432]",ColorTask,11.0,19.0,,,HRV,HRV_0157,2022-11-30 18:35:21
,wl-rdm,33,228345,0.0-6.19-0.19,False,,0.0,27.0,,,,,,,[],,,,,,56.4,1.0,i,1.0,True,612.3999998569489,37.0,60.0,40.0,202.65539475116125,[],"[768, 432]",ColorTask,12.0,20.0,,,HRV,HRV_0157,2022-11-30 18:35:21
,wl-rdm,34,231811,0.0-6.20-0.20,False,,0.0,28.0,,,,,,,[],,,,,,53.2,0.0,u,0.0,True,2048.3000000715256,123.0,60.0,40.0,354.86448186292967,[],"[768, 432]",ColorTask,13.0,21.0,,,HRV,HRV_0157,2022-11-30 18:35:21
,wl-rdm,35,233794,0.0-6.21-0.21,False,,0.0,29.0,,,,,,,[],,,,,,73.6,0.0,u,0.0,True,696.6999999284744,42.0,60.0,40.0,202.52448157999368,[],"[768, 432]",ColorTask,14.0,22.0,,,HRV,HRV_0157,2022-11-30 18:35:21
,wl-rdm,36,235944,0.0-6.22-0.22,False,,0.0,30.0,,,,,,,[],,,,,,62.5,1.0,i,1.0,True,841.0999999046326,51.0,60.0,40.0,236.8920562473165,[],"[768, 432]",ColorTask,15.0,23.0,,,HRV,HRV_0157,2022-11-30 18:35:21
,wl-rdm,37,238544,0.0-6.23-0.23,False,,0.0,31.0,,,,,,,[],,,,,,62.5,0.0,u,0.0,True,1275.1000000238419,77.0,60.0,40.0,244.80682137111523,[],"[768, 432]",ColorTask,16.0,24.0,,,HRV,HRV_0157,2022-11-30 18:35:21
,wl-rdm,38,240744,0.0-6.24-0.24,False,,0.0,32.0,,,,,,,[],,,,,,87.9,0.0,u,0.0,True,741.2000000476837,45.0,60.0,40.0,377.47744813038554,[],"[768, 432]",ColorTask,17.0,25.0,,,HRV,HRV_0157,2022-11-30 18:35:21
,wl-rdm,39,243027,0.0-6.25-0.25,False,,0.0,33.0,,,,,,,[],,,,,,62.5,1.0,i,1.0,True,827.6999999284744,50.0,60.0,40.0,372.10785886506096,[],"[768, 432]",ColorTask,18.0,26.0,,,HRV,HRV_0157,2022-11-30 18:35:21
,wl-rdm,40,245127,0.0-6.26-0.26,False,,0.0,34.0,,,,,,,[],,,,,,50.0,1.0,u,0.0,False,669.0000001192093,41.0,60.0,40.0,333.17421496346316,[],"[768, 432]",ColorTask,17.0,27.0,,,HRV,HRV_0157,2022-11-30 18:35:21
,wl-rdm,41,247059,0.0-6.27-0.27,False,,0.0,35.0,,,,,,,[],,,,,,87.9,0.0,u,0.0,True,622.7999999523163,38.0,60.0,40.0,217.81612333813652,[],"[768, 432]",ColorTask,18.0,28.0,,,HRV,HRV_0157,2022-11-30 18:35:21
,wl-rdm,42,249160,0.0-6.28-0.28,False,,0.0,36.0,,,,,,,[],,,,,,73.6,1.0,i,1.0,True,656.2000000476837,40.0,60.0,40.0,359.80965751529754,[],"[768, 432]",ColorTask,19.0,29.0,,,HRV,HRV_0157,2022-11-30 18:35:21
,wl-rdm,43,251542,0.0-6.29-0.29,False,,0.0,37.0,,,,,,,[],,,,,,53.2,1.0,i,1.0,True,957.3000000715256,58.0,60.0,40.0,331.14527077905393,[],"[768, 432]",ColorTask,20.0,30.0,,,HRV,HRV_0157,2022-11-30 18:35:21
,wl-rdm,44,253559,0.0-6.30-0.30,False,,0.0,38.0,,,,,,,[],,,,,,73.6,1.0,i,1.0,True,603.4000000953674,37.0,60.0,40.0,347.9168307481077,[],"[768, 432]",ColorTask,21.0,31.0,,,HRV,HRV_0157,2022-11-30 18:35:21
,wl-rdm,45,255559,0.0-6.31-0.31,False,,0.0,39.0,,,,,,,[],,,,,,53.2,1.0,i,1.0,True,687.0,42.0,60.0,40.0,231.52056814988237,[],"[768, 432]",ColorTask,22.0,32.0,,,HRV,HRV_0157,2022-11-30 18:35:21
,wl-rdm,46,258358,0.0-6.32-0.32,False,,0.0,40.0,,,,,,,[],,,,,,56.4,0.0,i,1.0,False,1419.9000000953674,86.0,60.0,40.0,305.563734070662,[],"[768, 432]",ColorTask,21.0,33.0,,,HRV,HRV_0157,2022-11-30 18:35:21
,wl-rdm,47,260642,0.0-6.33-0.33,False,,0.0,41.0,,,,,,,[],,,,,,53.2,1.0,i,1.0,True,899.6000000238419,54.0,60.0,40.0,307.7994351010235,[],"[768, 432]",ColorTask,22.0,34.0,,,HRV,HRV_0157,2022-11-30 18:35:21
,wl-rdm,48,262858,0.0-6.34-0.34,False,,0.0,42.0,,,,,,,[],,,,,,62.5,0.0,u,0.0,True,807.7000000476837,49.0,60.0,40.0,316.9510596311685,[],"[768, 432]",ColorTask,23.0,35.0,,,HRV,HRV_0157,2022-11-30 18:35:21
,wl-rdm,49,264858,0.0-6.35-0.35,False,,0.0,43.0,,,,,,,[],,,,,,73.6,1.0,i,1.0,True,641.0999999046326,39.0,60.0,40.0,277.2191699058477,[],"[768, 432]",ColorTask,24.0,36.0,,,HRV,HRV_0157,2022-11-30 18:35:21
,wl-rdm,50,266907,0.0-6.36-0.36,False,,0.0,44.0,,,,,,,[],,,,,,62.5,1.0,i,1.0,True,623.1000000238419,38.0,60.0,40.0,365.43435287487455,[],"[768, 432]",ColorTask,25.0,37.0,,,HRV,HRV_0157,2022-11-30 18:35:21
,wl-rdm,51,269191,0.0-6.37-0.37,False,,0.0,45.0,,,,,,,[],,,,,,53.2,0.0,i,1.0,False,925.3999999761581,56.0,60.0,40.0,279.66818986601083,[],"[768, 432]",ColorTask,24.0,38.0,,,HRV,HRV_0157,2022-11-30 18:35:21
,wl-rdm,52,271740,0.0-6.38-0.38,False,,0.0,46.0,,,,,,,[],,,,,,50.0,0.0,i,1.0,False,1201.6000001430511,73.0,60.0,40.0,276.38742797696256,[],"[768, 432]",ColorTask,23.0,39.0,,,HRV,HRV_0157,2022-11-30 18:35:21
,wl-rdm,53,274606,0.0-6.39-0.39,False,,0.0,47.0,,,,,,,[],,,,,,62.5,0.0,u,0.0,True,1558.1999999284744,94.0,60.0,40.0,223.9107532241802,[],"[768, 432]",ColorTask,24.0,40.0,,,HRV,HRV_0157,2022-11-30 18:35:21
,wl-rdm,54,276972,0.0-6.40-0.40,False,,0.0,48.0,,,,,,,[],,,,,,73.6,0.0,u,0.0,True,916.0,55.0,60.0,40.0,376.8513641764125,[],"[768, 432]",ColorTask,25.0,41.0,,,HRV,HRV_0157,2022-11-30 18:35:21
,wl-rdm,55,278872,0.0-6.41-0.41,False,,0.0,49.0,,,,,,,[],,,,,,87.9,1.0,i,1.0,True,580.1000000238419,35.0,60.0,40.0,246.1946469912147,[],"[768, 432]",ColorTask,26.0,42.0,,,HRV,HRV_0157,2022-11-30 18:35:21
,wl-rdm,56,281222,0.0-6.42-0.42,False,,0.0,50.0,,,,,,,[],,,,,,56.4,1.0,i,1.0,True,1019.2999999523163,62.0,60.0,40.0,228.99826180584554,[],"[768, 432]",ColorTask,27.0,43.0,,,HRV,HRV_0157,2022-11-30 18:35:21
,wl-rdm,57,283772,0.0-6.43-0.43,False,,0.0,51.0,,,,,,,[],,,,,,56.4,0.0,i,1.0,False,1108.5,67.0,60.0,40.0,352.78004931461504,[],"[768, 432]",ColorTask,26.0,44.0,,,HRV,HRV_0157,2022-11-30 18:35:21
,wl-rdm,58,286404,0.0-6.44-0.44,False,,0.0,52.0,,,,,,,[],,,,,,62.5,0.0,u,0.0,True,1214.2999999523163,73.0,60.0,40.0,342.8753524909557,[],"[768, 432]",ColorTask,27.0,45.0,,,HRV,HRV_0157,2022-11-30 18:35:21
,wl-rdm,59,288722,0.0-6.45-0.45,False,,0.0,53.0,,,,,,,[],,,,,,62.5,0.0,u,0.0,True,918.6000000238419,56.0,60.0,40.0,303.71390199447745,[],"[768, 432]",ColorTask,28.0,46.0,,,HRV,HRV_0157,2022-11-30 18:35:21
,wl-rdm,60,290688,0.0-6.46-0.46,False,,0.0,54.0,,,,,,,[],,,,,,56.4,1.0,i,1.0,True,646.5000001192093,39.0,60.0,40.0,236.6973550521826,[],"[768, 432]",ColorTask,29.0,47.0,,,HRV,HRV_0157,2022-11-30 18:35:21
,wl-rdm,61,292688,0.0-6.47-0.47,False,,0.0,55.0,,,,,,,[],,,,,,53.2,1.0,i,1.0,True,568.8000000715256,35.0,60.0,40.0,348.47879927412515,[],"[768, 432]",ColorTask,30.0,48.0,,,HRV,HRV_0157,2022-11-30 18:35:21
,wl-rdm,62,294554,0.0-6.48-0.48,False,,0.0,56.0,,,,,,,[],,,,,,87.9,1.0,i,1.0,True,544.6999999284744,33.0,60.0,40.0,239.72236861606027,[],"[768, 432]",ColorTask,31.0,49.0,,,HRV,HRV_0157,2022-11-30 18:35:21
,wl-rdm,63,296570,0.0-6.49-0.49,False,,0.0,57.0,,,,,,,[],,,,,,87.9,0.0,u,0.0,True,609.4000000953674,37.0,60.0,40.0,324.12189491349017,[],"[768, 432]",ColorTask,32.0,50.0,,,HRV,HRV_0157,2022-11-30 18:35:21
,wl-rdm,64,299003,0.0-6.50-0.50,False,,0.0,58.0,,,,,,,[],,,,,,50.0,1.0,i,1.0,True,1035.5,63.0,60.0,40.0,303.1735906214021,[],"[768, 432]",ColorTask,33.0,51.0,,,HRV,HRV_0157,2022-11-30 18:35:21
,wl-rdm,65,301303,0.0-6.51-0.51,False,,0.0,59.0,,,,,,,[],,,,,,53.2,1.0,i,1.0,True,1002.7000000476837,61.0,60.0,40.0,225.5287720755436,[],"[768, 432]",ColorTask,34.0,52.0,,,HRV,HRV_0157,2022-11-30 18:35:21
,wl-rdm,66,303386,0.0-6.52-0.52,False,,0.0,60.0,,,,,,,[],,,,,,50.0,0.0,i,1.0,False,635.1999999284744,39.0,60.0,40.0,350.75438377662203,[],"[768, 432]",ColorTask,33.0,53.0,,,HRV,HRV_0157,2022-11-30 18:35:21
,wl-rdm,67,305370,0.0-6.53-0.53,False,,0.0,61.0,,,,,,,[],,,,,,56.4,1.0,i,1.0,True,644.8999998569489,39.0,60.0,40.0,239.68140129198645,[],"[768, 432]",ColorTask,34.0,54.0,,,HRV,HRV_0157,2022-11-30 18:35:21
,wl-rdm,68,307319,0.0-6.54-0.54,False,,0.0,62.0,,,,,,,[],,,,,,87.9,0.0,u,0.0,True,640.9000000953674,39.0,60.0,40.0,221.24925638480542,[],"[768, 432]",ColorTask,35.0,55.0,,,HRV,HRV_0157,2022-11-30 18:35:21
,wl-rdm,69,309253,0.0-6.55-0.55,False,,0.0,63.0,,,,,,,[],,,,,,87.9,1.0,i,1.0,True,581.1000000238419,35.0,60.0,40.0,286.4650983278923,[],"[768, 432]",ColorTask,36.0,56.0,,,HRV,HRV_0157,2022-11-30 18:35:21
,wl-rdm,70,312385,0.0-6.56-0.56,False,,0.0,64.0,,,,,,,[],,,,,,50.0,1.0,u,0.0,False,1823.8999999761581,110.0,60.0,40.0,224.94089285993968,[],"[768, 432]",ColorTask,35.0,57.0,,,HRV,HRV_0157,2022-11-30 18:35:21
,wl-rdm,71,314451,0.0-6.57-0.57,False,,0.0,65.0,,,,,,,[],,,,,,62.5,1.0,i,1.0,True,760.0,46.0,60.0,40.0,217.85079116420079,[],"[768, 432]",ColorTask,36.0,58.0,,,HRV,HRV_0157,2022-11-30 18:35:21
,wl-rdm,72,316468,0.0-6.58-0.58,False,,0.0,66.0,,,,,,,[],,,,,,73.6,1.0,i,1.0,True,615.1000000238419,37.0,60.0,40.0,345.1473834737614,[],"[768, 432]",ColorTask,37.0,59.0,,,HRV,HRV_0157,2022-11-30 18:35:21
,wl-rdm,73,318318,0.0-6.59-0.59,False,,0.0,67.0,,,,,,,[],,,,,,87.9,1.0,i,1.0,True,552.5,34.0,60.0,40.0,227.53444873145935,[],"[768, 432]",ColorTask,38.0,60.0,,,HRV,HRV_0157,2022-11-30 18:35:21
,wl-rdm,74,321101,0.0-6.60-0.60,False,,0.0,68.0,,,,,,,[],,,,,,53.2,0.0,u,0.0,True,1429.8000000715256,86.0,60.0,40.0,267.7642765419174,[],"[768, 432]",ColorTask,39.0,61.0,,,HRV,HRV_0157,2022-11-30 18:35:21
,wl-rdm,75,323134,0.0-6.61-0.61,False,,0.0,69.0,,,,,,,[],,,,,,53.2,1.0,i,1.0,True,552.3999999761581,34.0,60.0,40.0,385.691481973397,[],"[768, 432]",ColorTask,40.0,62.0,,,HRV,HRV_0157,2022-11-30 18:35:21
,wl-rdm,76,325051,0.0-6.62-0.62,False,,0.0,70.0,,,,,,,[],,,,,,50.0,0.0,i,1.0,False,632.1999999284744,38.0,60.0,40.0,227.8442621925072,[],"[768, 432]",ColorTask,39.0,63.0,,,HRV,HRV_0157,2022-11-30 18:35:21
,wl-rdm,77,327300,0.0-6.63-0.63,False,,0.0,71.0,,,,,,,[],,,,,,50.0,1.0,i,1.0,True,914.5,55.0,60.0,40.0,280.3082498376522,[],"[768, 432]",ColorTask,40.0,64.0,,,HRV,HRV_0157,2022-11-30 18:35:21
,wl-rdm,78,329117,0.0-6.64-0.64,False,,0.0,72.0,,,,,,,[],,,,,,56.4,0.0,i,1.0,False,521.6999999284744,32.0,60.0,40.0,225.93503838600384,[],"[768, 432]",ColorTask,39.0,65.0,,,HRV,HRV_0157,2022-11-30 18:35:21
,wl-rdm,79,331983,0.0-6.65-0.65,False,,0.0,73.0,,,,,,,[],,,,,,53.2,0.0,u,0.0,True,1561.8999999761581,94.0,60.0,40.0,239.58100804387288,[],"[768, 432]",ColorTask,40.0,66.0,,,HRV,HRV_0157,2022-11-30 18:35:21
,wl-rdm,80,335015,0.0-6.66-0.66,False,,0.0,74.0,,,,,,,[],,,,,,56.4,0.0,i,1.0,False,1670.2999999523163,101.0,60.0,40.0,275.3215039554392,[],"[768, 432]",ColorTask,39.0,67.0,,,HRV,HRV_0157,2022-11-30 18:35:21
,wl-rdm,81,337049,0.0-6.67-0.67,False,,0.0,75.0,,,,,,,[],,,,,,87.9,0.0,u,0.0,True,714.8999999761581,43.0,60.0,40.0,251.67372269803326,[],"[768, 432]",ColorTask,40.0,68.0,,,HRV,HRV_0157,2022-11-30 18:35:21
,wl-rdm,82,339416,0.0-6.68-0.68,False,,0.0,76.0,,,,,,,[],,,,,,56.4,1.0,i,1.0,True,1069.0,65.0,60.0,40.0,202.87227097413813,[],"[768, 432]",ColorTask,41.0,69.0,,,HRV,HRV_0157,2022-11-30 18:35:21
,wl-rdm,83,341494,0.0-6.69-0.69,False,,0.0,77.0,,,,,,,[],,,,,,87.9,0.0,u,0.0,True,669.8999999761581,41.0,60.0,40.0,348.6704142905611,[],"[768, 432]",ColorTask,42.0,70.0,,,HRV,HRV_0157,2022-11-30 18:35:21
,wl-rdm,84,343677,0.0-6.70-0.70,False,,0.0,78.0,,,,,,,[],,,,,,53.2,0.0,u,0.0,True,755.0,46.0,60.0,40.0,357.6326809659221,[],"[768, 432]",ColorTask,43.0,71.0,,,HRV,HRV_0157,2022-11-30 18:35:21
,wl-rdm,85,345660,0.0-6.71-0.71,False,,0.0,79.0,,,,,,,[],,,,,,73.6,0.0,u,0.0,True,669.5,41.0,60.0,40.0,221.87119476148828,[],"[768, 432]",ColorTask,44.0,72.0,,,HRV,HRV_0157,2022-11-30 18:35:21
,wl-rdm,86,348627,0.0-6.72-0.72,False,,0.0,80.0,,,,,,,[],,,,,,53.2,0.0,u,0.0,True,1619.6000000238419,98.0,60.0,40.0,263.9049036044462,[],"[768, 432]",ColorTask,45.0,73.0,,,HRV,HRV_0157,2022-11-30 18:35:21
,wl-rdm,87,351743,0.0-6.73-0.73,False,,0.0,81.0,,,,,,,[],,,,,,50.0,0.0,i,1.0,False,1692.4000000953674,102.0,60.0,40.0,333.93084012417324,[],"[768, 432]",ColorTask,44.0,74.0,,,HRV,HRV_0157,2022-11-30 18:35:21
,wl-rdm,88,353843,0.0-6.74-0.74,False,,0.0,82.0,,,,,,,[],,,,,,87.9,1.0,i,1.0,True,668.9000000953674,41.0,60.0,40.0,337.73923010936005,[],"[768, 432]",ColorTask,45.0,75.0,,,HRV,HRV_0157,2022-11-30 18:35:21
,wl-rdm,89,356093,0.0-6.75-0.75,False,,0.0,83.0,,,,,,,[],,,,,,87.9,0.0,u,0.0,True,816.3999999761581,49.0,60.0,40.0,378.82445539896753,[],"[768, 432]",ColorTask,46.0,76.0,,,HRV,HRV_0157,2022-11-30 18:35:21
,wl-rdm,90,358176,0.0-6.76-0.76,False,,0.0,84.0,,,,,,,[],,,,,,87.9,1.0,i,1.0,True,678.4999998807907,41.0,60.0,40.0,339.0138159610789,[],"[768, 432]",ColorTask,47.0,77.0,,,HRV,HRV_0157,2022-11-30 18:35:21
,wl-rdm,91,360125,0.0-6.77-0.77,False,,0.0,85.0,,,,,,,[],,,,,,87.9,0.0,u,0.0,True,549.6000000238419,33.0,60.0,40.0,326.03115338262455,[],"[768, 432]",ColorTask,48.0,78.0,,,HRV,HRV_0157,2022-11-30 18:35:21
,wl-rdm,92,362326,0.0-6.78-0.78,False,,0.0,86.0,,,,,,,[],,,,,,56.4,1.0,i,1.0,True,771.0999999046326,47.0,60.0,40.0,357.4219371814504,[],"[768, 432]",ColorTask,49.0,79.0,,,HRV,HRV_0157,2022-11-30 18:35:21
,wl-rdm,93,364608,0.0-6.79-0.79,False,,0.0,87.0,,,,,,,[],,,,,,56.4,0.0,u,0.0,True,909.2000000476837,55.0,60.0,40.0,294.4160478393625,[],"[768, 432]",ColorTask,50.0,80.0,,,HRV,HRV_0157,2022-11-30 18:35:21
,wl-rdm,94,366874,0.0-6.80-0.80,False,,0.0,88.0,,,,,,,[],,,,,,73.6,1.0,i,1.0,True,841.2999999523163,51.0,60.0,40.0,337.33086536042254,[],"[768, 432]",ColorTask,51.0,81.0,,,HRV,HRV_0157,2022-11-30 18:35:21
,wl-rdm,95,368758,0.0-6.81-0.81,False,,0.0,89.0,,,,,,,[],,,,,,87.9,0.0,u,0.0,True,555.9000000953674,34.0,60.0,40.0,257.17927850599744,[],"[768, 432]",ColorTask,52.0,82.0,,,HRV,HRV_0157,2022-11-30 18:35:21
,wl-rdm,96,371224,0.0-6.82-0.82,False,,0.0,90.0,,,,,,,[],,,,,,53.2,1.0,i,1.0,True,1176.4999998807907,71.0,60.0,40.0,215.02581197401724,[],"[768, 432]",ColorTask,53.0,83.0,,,HRV,HRV_0157,2022-11-30 18:35:21
,wl-rdm,97,373607,0.0-6.83-0.83,False,,0.0,91.0,,,,,,,[],,,,,,73.6,1.0,i,1.0,True,929.8000000715256,56.0,60.0,40.0,374.5958363002205,[],"[768, 432]",ColorTask,54.0,84.0,,,HRV,HRV_0157,2022-11-30 18:35:21
,wl-rdm,98,376240,0.0-6.84-0.84,False,,0.0,92.0,,,,,,,[],,,,,,62.5,0.0,u,0.0,True,1168.8999999761581,71.0,60.0,40.0,369.7097255050429,[],"[768, 432]",ColorTask,55.0,85.0,,,HRV,HRV_0157,2022-11-30 18:35:21
,wl-rdm,99,378157,0.0-6.85-0.85,False,,0.0,93.0,,,,,,,[],,,,,,73.6,1.0,i,1.0,True,466.2999999523163,28.0,60.0,40.0,377.4617931429138,[],"[768, 432]",ColorTask,56.0,86.0,,,HRV,HRV_0157,2022-11-30 18:35:21
,wl-rdm,100,380357,0.0-6.86-0.86,False,,0.0,94.0,,,,,,,[],,,,,,62.5,0.0,i,1.0,False,746.8999999761581,45.0,60.0,40.0,396.9957784567579,[],"[768, 432]",ColorTask,55.0,87.0,,,HRV,HRV_0157,2022-11-30 18:35:21
,wl-rdm,101,382406,0.0-6.87-0.87,False,,0.0,95.0,,,,,,,[],,,,,,62.5,1.0,i,1.0,True,636.6999999284744,39.0,60.0,40.0,289.98776315629,[],"[768, 432]",ColorTask,56.0,88.0,,,HRV,HRV_0157,2022-11-30 18:35:21
,wl-rdm,102,384556,0.0-6.88-0.88,False,,0.0,96.0,,,,,,,[],,,,,,73.6,0.0,u,0.0,True,675.2999999523163,41.0,60.0,40.0,390.9120235883069,[],"[768, 432]",ColorTask,57.0,89.0,,,HRV,HRV_0157,2022-11-30 18:35:21
,wl-rdm,103,386572,0.0-6.89-0.89,False,,0.0,97.0,,,,,,,[],,,,,,73.6,0.0,u,0.0,True,573.5999999046326,35.0,60.0,40.0,361.73956862475313,[],"[768, 432]",ColorTask,58.0,90.0,,,HRV,HRV_0157,2022-11-30 18:35:21
,wl-rdm,104,388589,0.0-6.90-0.90,False,,0.0,98.0,,,,,,,[],,,,,,56.4,0.0,i,1.0,False,717.2999999523163,44.0,60.0,40.0,202.3998093404184,[],"[768, 432]",ColorTask,57.0,91.0,,,HRV,HRV_0157,2022-11-30 18:35:21
,wl-rdm,105,390756,0.0-6.91-0.91,False,,0.0,99.0,,,,,,,[],,,,,,50.0,0.0,i,1.0,False,846.3999999761581,51.0,60.0,40.0,265.6476363274986,[],"[768, 432]",ColorTask,56.0,92.0,,,HRV,HRV_0157,2022-11-30 18:35:21
,wl-rdm,106,393488,0.0-6.92-0.92,False,,0.0,100.0,,,,,,,[],,,,,,56.4,1.0,i,1.0,True,1393.1000000238419,84.0,60.0,40.0,264.65999752721876,[],"[768, 432]",ColorTask,57.0,93.0,,,HRV,HRV_0157,2022-11-30 18:35:21
,wl-rdm,107,395838,0.0-6.93-0.93,False,,0.0,101.0,,,,,,,[],,,,,,62.5,1.0,i,1.0,True,939.6999999284744,57.0,60.0,40.0,329.5909726621559,[],"[768, 432]",ColorTask,58.0,94.0,,,HRV,HRV_0157,2022-11-30 18:35:21
,wl-rdm,108,399020,0.0-6.94-0.94,False,,0.0,102.0,,,,,,,[],,,,,,62.5,1.0,i,1.0,True,1792.1999999284744,108.0,60.0,40.0,301.54775886525533,[],"[768, 432]",ColorTask,59.0,95.0,,,HRV,HRV_0157,2022-11-30 18:35:21
,wl-rdm,109,401892,0.0-6.95-0.95,False,,0.0,103.0,,,,,,,[],,,,,,50.0,1.0,i,1.0,True,1486.1000000238419,90.0,60.0,40.0,299.1691871229568,[],"[768, 432]",ColorTask,60.0,96.0,,,HRV,HRV_0157,2022-11-30 18:35:21
,wl-rdm,110,405158,0.0-6.96-0.96,False,,0.0,104.0,,,,,,,[],,,,,,56.4,1.0,u,0.0,False,1902.9000000953674,115.0,60.0,40.0,276.1192253006273,[],"[768, 432]",ColorTask,59.0,97.0,,,HRV,HRV_0157,2022-11-30 18:35:21
,wl-rdm,111,408358,0.0-6.97-0.97,False,,0.0,105.0,,,,,,,[],,,,,,56.4,0.0,u,0.0,True,1807.5,109.0,60.0,40.0,323.0367838189501,[],"[768, 432]",ColorTask,60.0,98.0,,,HRV,HRV_0157,2022-11-30 18:35:21
,wl-rdm,112,411774,0.0-6.98-0.98,False,,0.0,106.0,,,,,,,[],,,,,,50.0,1.0,i,1.0,True,1992.2000000476837,120.0,60.0,40.0,357.02458255265043,[],"[768, 432]",ColorTask,61.0,99.0,,,HRV,HRV_0157,2022-11-30 18:35:21
,wl-rdm,113,413857,0.0-6.99-0.99,False,,0.0,107.0,,,,,,,[],,,,,,50.0,0.0,i,1.0,False,784.2999999523163,48.0,60.0,40.0,209.03361511220348,[],"[768, 432]",ColorTask,60.0,100.0,,,HRV,HRV_0157,2022-11-30 18:35:21
,wl-rdm,114,416390,0.0-6.100-0.100,False,,0.0,108.0,,,,,,,[],,,,,,50.0,1.0,i,1.0,True,1240.7000000476837,75.0,60.0,40.0,230.284420235722,[],"[768, 432]",ColorTask,61.0,101.0,,,HRV,HRV_0157,2022-11-30 18:35:21
,wl-rdm,115,418490,0.0-6.101-0.101,False,,0.0,109.0,,,,,,,[],,,,,,62.5,1.0,i,1.0,True,813.2999999523163,49.0,60.0,40.0,214.46992135477552,[],"[768, 432]",ColorTask,62.0,102.0,,,HRV,HRV_0157,2022-11-30 18:35:21
,wl-rdm,116,421989,0.0-6.102-0.102,False,,0.0,110.0,,,,,,,[],,,,,,53.2,1.0,u,0.0,False,2179.3000000715256,131.0,60.0,40.0,265.0549919073969,[],"[768, 432]",ColorTask,61.0,103.0,,,HRV,HRV_0157,2022-11-30 18:35:21
,wl-rdm,117,423939,0.0-6.103-0.103,False,,0.0,111.0,,,,,,,[],,,,,,73.6,1.0,i,1.0,True,631.1999999284744,38.0,60.0,40.0,248.0238984915692,[],"[768, 432]",ColorTask,62.0,104.0,,,HRV,HRV_0157,2022-11-30 18:35:21
,wl-rdm,118,425972,0.0-6.104-0.104,False,,0.0,112.0,,,,,,,[],,,,,,73.6,0.0,u,0.0,True,677.1999999284744,41.0,60.0,40.0,270.5591250157678,[],"[768, 432]",ColorTask,63.0,105.0,,,HRV,HRV_0157,2022-11-30 18:35:21
,wl-rdm,119,428306,0.0-6.105-0.105,False,,0.0,113.0,,,,,,,[],,,,,,56.4,0.0,i,1.0,False,1010.9000000953674,61.0,60.0,40.0,239.12214604648412,[],"[768, 432]",ColorTask,62.0,106.0,,,HRV,HRV_0157,2022-11-30 18:35:21
,wl-rdm,120,430655,0.0-6.106-0.106,False,,0.0,114.0,,,,,,,[],,,,,,53.2,0.0,i,1.0,False,896.0000001192093,54.0,60.0,40.0,375.3526622859071,[],"[768, 432]",ColorTask,61.0,107.0,,,HRV,HRV_0157,2022-11-30 18:35:21
,wl-rdm,121,432521,0.0-6.107-0.107,False,,0.0,115.0,,,,,,,[],,,,,,87.9,1.0,i,1.0,True,541.3999999761581,33.0,60.0,40.0,252.0205785032487,[],"[768, 432]",ColorTask,62.0,108.0,,,HRV,HRV_0157,2022-11-30 18:35:21
,wl-html-keyboard-response,122,439949,0.0-7.0-0.0,,,1.0,116.0,,,,,,,,5415.599999904633,1.0,0,,,,,,,,,,,,,,,,,,,,HRV,HRV_0157,2022-11-30 18:35:21
,wl-rdm,123,441987,0.0-8.0-0.0,False,,1.0,117.0,,,,,,,[],,,,,,50.0,0.0,i,1.0,False,735.0000001192093,45.0,60.0,40.0,212.62685026369766,[],"[768, 432]",ColorTask,61.0,1.0,,,HRV,HRV_0157,2022-11-30 18:35:21
,wl-rdm,124,443937,0.0-8.1-0.1,False,,1.0,118.0,,,,,,,[],,,,,,56.4,0.0,i,1.0,False,590.6000000238419,36.0,60.0,40.0,298.07190012533863,[],"[768, 432]",ColorTask,60.0,2.0,,,HRV,HRV_0157,2022-11-30 18:35:21
,wl-rdm,125,446570,0.0-8.2-0.2,False,,1.0,119.0,,,,,,,[],,,,,,50.0,0.0,u,0.0,True,1287.1000000238419,78.0,60.0,40.0,282.0131802358538,[],"[768, 432]",ColorTask,61.0,3.0,,,HRV,HRV_0157,2022-11-30 18:35:21
,wl-rdm,126,448787,0.0-8.3-0.3,False,,1.0,120.0,,,,,,,[],,,,,,73.6,0.0,u,0.0,True,766.6000000238419,46.0,60.0,40.0,377.2753636666056,[],"[768, 432]",ColorTask,62.0,4.0,,,HRV,HRV_0157,2022-11-30 18:35:21
,wl-rdm,127,450803,0.0-8.4-0.4,False,,1.0,121.0,,,,,,,[],,,,,,87.9,1.0,i,1.0,True,595.8999998569489,36.0,60.0,40.0,336.40438257309233,[],"[768, 432]",ColorTask,63.0,5.0,,,HRV,HRV_0157,2022-11-30 18:35:21
,wl-rdm,128,452719,0.0-8.5-0.5,False,,1.0,122.0,,,,,,,[],,,,,,53.2,1.0,i,1.0,True,572.0,35.0,60.0,40.0,255.98746419608446,[],"[768, 432]",ColorTask,64.0,6.0,,,HRV,HRV_0157,2022-11-30 18:35:21
,wl-rdm,129,454870,0.0-8.6-0.6,False,,1.0,123.0,,,,,,,[],,,,,,62.5,0.0,u,0.0,True,781.7999999523163,47.0,60.0,40.0,293.29029531980757,[],"[768, 432]",ColorTask,65.0,7.0,,,HRV,HRV_0157,2022-11-30 18:35:21
,wl-rdm,130,457052,0.0-8.7-0.7,False,,1.0,124.0,,,,,,,[],,,,,,50.0,1.0,i,1.0,True,823.7999999523163,50.0,60.0,40.0,292.11769248242564,[],"[768, 432]",ColorTask,66.0,8.0,,,HRV,HRV_0157,2022-11-30 18:35:21
,wl-rdm,131,458786,0.0-8.8-0.8,False,,1.0,125.0,,,,,,,[],,,,,,50.0,1.0,i,1.0,True,410.2000000476837,25.0,60.0,40.0,237.0119752983547,[],"[768, 432]",ColorTask,67.0,9.0,,,HRV,HRV_0157,2022-11-30 18:35:21
,wl-rdm,132,460735,0.0-8.9-0.9,False,,1.0,126.0,,,,,,,[],,,,,,87.9,0.0,u,0.0,True,610.6999999284744,37.0,60.0,40.0,234.49875026680644,[],"[768, 432]",ColorTask,68.0,10.0,,,HRV,HRV_0157,2022-11-30 18:35:21
,wl-rdm,133,463135,0.0-8.10-0.10,False,,1.0,127.0,,,,,,,[],,,,,,53.2,0.0,u,0.0,True,918.4999998807907,56.0,60.0,40.0,389.5919137571225,[],"[768, 432]",ColorTask,69.0,11.0,,,HRV,HRV_0157,2022-11-30 18:35:21
,wl-rdm,134,465201,0.0-8.11-0.11,False,,1.0,128.0,,,,,,,[],,,,,,62.5,1.0,i,1.0,True,604.9000000953674,37.0,60.0,40.0,377.79349011509976,[],"[768, 432]",ColorTask,70.0,12.0,,,HRV,HRV_0157,2022-11-30 18:35:21
,wl-rdm,135,467050,0.0-8.12-0.12,False,,1.0,129.0,,,,,,,[],,,,,,87.9,1.0,i,1.0,True,535.0,33.0,60.0,40.0,229.67525639599447,[],"[768, 432]",ColorTask,71.0,13.0,,,HRV,HRV_0157,2022-11-30 18:35:21
,wl-rdm,136,468901,0.0-8.13-0.13,False,,1.0,130.0,,,,,,,[],,,,,,87.9,0.0,u,0.0,True,433.0,26.0,60.0,40.0,338.24389859297185,[],"[768, 432]",ColorTask,72.0,14.0,,,HRV,HRV_0157,2022-11-30 18:35:21
,wl-rdm,137,470734,0.0-8.14-0.14,False,,1.0,131.0,,,,,,,[],,,,,,56.4,1.0,i,1.0,True,546.0,33.0,60.0,40.0,206.9278785103129,[],"[768, 432]",ColorTask,73.0,15.0,,,HRV,HRV_0157,2022-11-30 18:35:21
,wl-rdm,138,473416,0.0-8.15-0.15,False,,1.0,132.0,,,,,,,[],,,,,,56.4,0.0,u,0.0,True,1246.5000001192093,75.0,60.0,40.0,361.0068272086677,[],"[768, 432]",ColorTask,74.0,16.0,,,HRV,HRV_0157,2022-11-30 18:35:21
,wl-rdm,139,475816,0.0-8.16-0.16,False,,1.0,133.0,,,,,,,[],,,,,,50.0,0.0,u,0.0,True,988.8000000715256,60.0,60.0,40.0,346.7686422895233,[],"[768, 432]",ColorTask,75.0,17.0,,,HRV,HRV_0157,2022-11-30 18:35:21
,wl-rdm,140,478716,0.0-8.17-0.17,False,,1.0,134.0,,,,,,,[],,,,,,56.4,0.0,i,1.0,False,1606.5000001192093,97.0,60.0,40.0,232.27905431192468,[],"[768, 432]",ColorTask,74.0,18.0,,,HRV,HRV_0157,2022-11-30 18:35:21
,wl-rdm,141,480816,0.0-8.18-0.18,False,,1.0,135.0,,,,,,,[],,,,,,87.9,1.0,i,1.0,True,774.5,47.0,60.0,40.0,245.98633454562665,[],"[768, 432]",ColorTask,75.0,19.0,,,HRV,HRV_0157,2022-11-30 18:35:21
,wl-rdm,142,483199,0.0-8.19-0.19,False,,1.0,136.0,,,,,,,[],,,,,,53.2,0.0,i,1.0,False,1056.3000000715256,64.0,60.0,40.0,240.85156066617898,[],"[768, 432]",ColorTask,74.0,20.0,,,HRV,HRV_0157,2022-11-30 18:35:21
,wl-rdm,143,485281,0.0-8.20-0.20,False,,1.0,137.0,,,,,,,[],,,,,,56.4,1.0,i,1.0,True,625.5,38.0,60.0,40.0,380.6154220417329,[],"[768, 432]",ColorTask,75.0,21.0,,,HRV,HRV_0157,2022-11-30 18:35:21
,wl-rdm,144,487065,0.0-8.21-0.21,False,,1.0,138.0,,,,,,,[],,,,,,73.6,1.0,i,1.0,True,429.0,26.0,60.0,40.0,269.0737897689967,[],"[768, 432]",ColorTask,76.0,22.0,,,HRV,HRV_0157,2022-11-30 18:35:21
,wl-rdm,145,489515,0.0-8.22-0.22,False,,1.0,139.0,,,,,,,[],,,,,,50.0,0.0,i,1.0,False,1090.1000000238419,66.0,60.0,40.0,271.69720196634773,[],"[768, 432]",ColorTask,75.0,23.0,,,HRV,HRV_0157,2022-11-30 18:35:21
,wl-rdm,146,491431,0.0-8.23-0.23,False,,1.0,140.0,,,,,,,[],,,,,,50.0,1.0,i,1.0,True,598.2999999523163,36.0,60.0,40.0,238.72973006088282,[],"[768, 432]",ColorTask,76.0,24.0,,,HRV,HRV_0157,2022-11-30 18:35:21
,wl-rdm,147,494714,0.0-8.24-0.24,False,,1.0,141.0,,,,,,,[],,,,,,56.4,0.0,u,0.0,True,1831.6999999284744,110.0,60.0,40.0,398.19126025950857,[],"[768, 432]",ColorTask,77.0,25.0,,,HRV,HRV_0157,2022-11-30 18:35:21
,wl-rdm,148,496564,0.0-8.25-0.25,False,,1.0,142.0,,,,,,,[],,,,,,87.9,1.0,i,1.0,True,549.2000000476837,33.0,60.0,40.0,235.14433189626703,[],"[768, 432]",ColorTask,78.0,26.0,,,HRV,HRV_0157,2022-11-30 18:35:21
,wl-rdm,149,498947,0.0-8.26-0.26,False,,1.0,143.0,,,,,,,[],,,,,,56.4,1.0,i,1.0,True,1090.5,66.0,60.0,40.0,200.594979785516,[],"[768, 432]",ColorTask,79.0,27.0,,,HRV,HRV_0157,2022-11-30 18:35:21
,wl-rdm,150,500813,0.0-8.27-0.27,False,,1.0,144.0,,,,,,,[],,,,,,87.9,1.0,i,1.0,True,536.5,33.0,60.0,40.0,242.83097478938487,[],"[768, 432]",ColorTask,80.0,28.0,,,HRV,HRV_0157,2022-11-30 18:35:21
,wl-rdm,151,503613,0.0-8.28-0.28,False,,1.0,145.0,,,,,,,[],,,,,,53.2,1.0,i,1.0,True,1381.5999999046326,83.0,60.0,40.0,353.9634217223836,[],"[768, 432]",ColorTask,81.0,29.0,,,HRV,HRV_0157,2022-11-30 18:35:21
,wl-rdm,152,505796,0.0-8.29-0.29,False,,1.0,146.0,,,,,,,[],,,,,,62.5,0.0,i,1.0,False,848.3000000715256,51.0,60.0,40.0,272.9671868204772,[],"[768, 432]",ColorTask,80.0,30.0,,,HRV,HRV_0157,2022-11-30 18:35:21
,wl-rdm,153,509946,0.0-8.30-0.30,False,,1.0,147.0,,,,,,,[],,,,,,53.2,0.0,i,1.0,False,2838.600000023842,171.0,60.0,40.0,219.92180307971108,[],"[768, 432]",ColorTask,79.0,31.0,,,HRV,HRV_0157,2022-11-30 18:35:21
,wl-rdm,154,513279,0.0-8.31-0.31,False,,1.0,148.0,,,,,,,[],,,,,,53.2,0.0,i,1.0,False,2034.8999999761581,123.0,60.0,40.0,211.95380739712024,[],"[768, 432]",ColorTask,78.0,32.0,,,HRV,HRV_0157,2022-11-30 18:35:21
,wl-rdm,155,515428,0.0-8.32-0.32,False,,1.0,149.0,,,,,,,[],,,,,,87.9,0.0,u,0.0,True,714.7000000476837,43.0,60.0,40.0,361.81184089397755,[],"[768, 432]",ColorTask,79.0,33.0,,,HRV,HRV_0157,2022-11-30 18:35:21
,wl-rdm,156,517395,0.0-8.33-0.33,False,,1.0,150.0,,,,,,,[],,,,,,73.6,1.0,i,1.0,True,629.2999999523163,38.0,60.0,40.0,261.1079772763316,[],"[768, 432]",ColorTask,80.0,34.0,,,HRV,HRV_0157,2022-11-30 18:35:21
,wl-rdm,157,519411,0.0-8.34-0.34,False,,1.0,151.0,,,,,,,[],,,,,,73.6,0.0,u,0.0,True,698.0000001192093,42.0,60.0,40.0,220.74408554479737,[],"[768, 432]",ColorTask,81.0,35.0,,,HRV,HRV_0157,2022-11-30 18:35:21
,wl-rdm,158,522928,0.0-8.35-0.35,False,,1.0,152.0,,,,,,,[],,,,,,50.0,0.0,i,1.0,False,2112.5999999046326,127.0,60.0,40.0,328.28800450740164,[],"[768, 432]",ColorTask,80.0,36.0,,,HRV,HRV_0157,2022-11-30 18:35:21
,wl-rdm,159,524895,0.0-8.36-0.36,False,,1.0,153.0,,,,,,,[],,,,,,73.6,1.0,i,1.0,True,562.8000000715256,34.0,60.0,40.0,316.93794557507255,[],"[768, 432]",ColorTask,81.0,37.0,,,HRV,HRV_0157,2022-11-30 18:35:21
,wl-rdm,160,527111,0.0-8.37-0.37,False,,1.0,154.0,,,,,,,[],,,,,,56.4,1.0,u,0.0,False,856.0999999046326,52.0,60.0,40.0,281.12079461832616,[],"[768, 432]",ColorTask,80.0,38.0,,,HRV,HRV_0157,2022-11-30 18:35:21
,wl-rdm,161,529094,0.0-8.38-0.38,False,,1.0,155.0,,,,,,,[],,,,,,87.9,0.0,u,0.0,True,619.0,38.0,60.0,40.0,273.6306287692205,[],"[768, 432]",ColorTask,81.0,39.0,,,HRV,HRV_0157,2022-11-30 18:35:21
,wl-rdm,162,531161,0.0-8.39-0.39,False,,1.0,156.0,,,,,,,[],,,,,,56.4,1.0,u,0.0,False,710.3999998569489,43.0,60.0,40.0,294.8450975981778,[],"[768, 432]",ColorTask,80.0,40.0,,,HRV,HRV_0157,2022-11-30 18:35:21
,wl-rdm,163,533193,0.0-8.40-0.40,False,,1.0,157.0,,,,,,,[],,,,,,56.4,0.0,i,1.0,False,599.9000000953674,36.0,60.0,40.0,351.7968640567571,[],"[768, 432]",ColorTask,79.0,41.0,,,HRV,HRV_0157,2022-11-30 18:35:21
,wl-rdm,164,535244,0.0-8.41-0.41,False,,1.0,158.0,,,,,,,[],,,,,,50.0,1.0,i,1.0,True,666.1000000238419,40.0,60.0,40.0,305.36149868909837,[],"[768, 432]",ColorTask,80.0,42.0,,,HRV,HRV_0157,2022-11-30 18:35:21
,wl-rdm,165,537593,0.0-8.42-0.42,False,,1.0,159.0,,,,,,,[],,,,,,50.0,1.0,u,0.0,False,1031.1000000238419,62.0,60.0,40.0,263.28887416213865,[],"[768, 432]",ColorTask,79.0,43.0,,,HRV,HRV_0157,2022-11-30 18:35:21
,wl-rdm,166,540043,0.0-8.43-0.43,False,,1.0,160.0,,,,,,,[],,,,,,53.2,1.0,i,1.0,True,1176.1000000238419,71.0,60.0,40.0,201.47981561834928,[],"[768, 432]",ColorTask,80.0,44.0,,,HRV,HRV_0157,2022-11-30 18:35:21
,wl-rdm,167,542476,0.0-8.44-0.44,False,,1.0,161.0,,,,,,,[],,,,,,53.2,1.0,i,1.0,True,1059.0999999046326,64.0,60.0,40.0,289.3895177892348,[],"[768, 432]",ColorTask,81.0,45.0,,,HRV,HRV_0157,2022-11-30 18:35:21
,wl-rdm,168,544576,0.0-8.45-0.45,False,,1.0,162.0,,,,,,,[],,,,,,87.9,0.0,u,0.0,True,656.6000000238419,40.0,60.0,40.0,376.59742177814644,[],"[768, 432]",ColorTask,82.0,46.0,,,HRV,HRV_0157,2022-11-30 18:35:21
,wl-rdm,169,546593,0.0-8.46-0.46,False,,1.0,163.0,,,,,,,[],,,,,,73.6,0.0,u,0.0,True,667.1999998092651,41.0,60.0,40.0,260.04405181622025,[],"[768, 432]",ColorTask,83.0,47.0,,,HRV,HRV_0157,2022-11-30 18:35:21
,wl-rdm,170,548609,0.0-8.47-0.47,False,,1.0,164.0,,,,,,,[],,,,,,62.5,1.0,i,1.0,True,697.0,42.0,60.0,40.0,264.4911214621633,[],"[768, 432]",ColorTask,84.0,48.0,,,HRV,HRV_0157,2022-11-30 18:35:21
,wl-rdm,171,551242,0.0-8.48-0.48,False,,1.0,165.0,,,,,,,[],,,,,,53.2,1.0,i,1.0,True,1185.2000000476837,72.0,60.0,40.0,358.4979872372461,[],"[768, 432]",ColorTask,85.0,49.0,,,HRV,HRV_0157,2022-11-30 18:35:21
,wl-rdm,172,554675,0.0-8.49-0.49,False,,1.0,166.0,,,,,,,[],,,,,,56.4,0.0,u,0.0,True,2062.2999999523163,124.0,60.0,40.0,288.90971206180166,[],"[768, 432]",ColorTask,86.0,50.0,,,HRV,HRV_0157,2022-11-30 18:35:21
,wl-rdm,173,556925,0.0-8.50-0.50,False,,1.0,167.0,,,,,,,[],,,,,,73.6,0.0,u,0.0,True,898.799999833107,54.0,60.0,40.0,297.38689180754926,[],"[768, 432]",ColorTask,87.0,51.0,,,HRV,HRV_0157,2022-11-30 18:35:21
,wl-rdm,174,558857,0.0-8.51-0.51,False,,1.0,168.0,,,,,,,[],,,,,,73.6,0.0,i,1.0,False,505.2999999523163,31.0,60.0,40.0,365.0734104911244,[],"[768, 432]",ColorTask,86.0,52.0,,,HRV,HRV_0157,2022-11-30 18:35:21
,wl-rdm,175,560791,0.0-8.52-0.52,False,,1.0,169.0,,,,,,,[],,,,,,87.9,0.0,u,0.0,True,604.7000000476837,37.0,60.0,40.0,249.48835131044805,[],"[768, 432]",ColorTask,87.0,53.0,,,HRV,HRV_0157,2022-11-30 18:35:21
,wl-rdm,176,563340,0.0-8.53-0.53,False,,1.0,170.0,,,,,,,[],,,,,,50.0,1.0,u,0.0,False,1219.1000000238419,74.0,60.0,40.0,240.714591445164,[],"[768, 432]",ColorTask,86.0,54.0,,,HRV,HRV_0157,2022-11-30 18:35:21
,wl-rdm,177,565273,0.0-8.54-0.54,False,,1.0,171.0,,,,,,,[],,,,,,53.2,1.0,i,1.0,True,553.1999999284744,34.0,60.0,40.0,289.4547997617706,[],"[768, 432]",ColorTask,87.0,55.0,,,HRV,HRV_0157,2022-11-30 18:35:21
,wl-rdm,178,567207,0.0-8.55-0.55,False,,1.0,172.0,,,,,,,[],,,,,,87.9,0.0,u,0.0,True,594.3999999761581,36.0,60.0,40.0,269.87629473447,[],"[768, 432]",ColorTask,88.0,56.0,,,HRV,HRV_0157,2022-11-30 18:35:21
,wl-rdm,179,569223,0.0-8.56-0.56,False,,1.0,173.0,,,,,,,[],,,,,,73.6,0.0,u,0.0,True,607.8000000715256,37.0,60.0,40.0,332.21222784416955,[],"[768, 432]",ColorTask,89.0,57.0,,,HRV,HRV_0157,2022-11-30 18:35:21
,wl-rdm,180,571173,0.0-8.57-0.57,False,,1.0,174.0,,,,,,,[],,,,,,73.6,1.0,i,1.0,True,643.6999999284744,39.0,60.0,40.0,229.67439441983697,[],"[768, 432]",ColorTask,90.0,58.0,,,HRV,HRV_0157,2022-11-30 18:35:21
,wl-rdm,181,573172,0.0-8.58-0.58,False,,1.0,175.0,,,,,,,[],,,,,,53.2,0.0,u,0.0,True,657.1000000238419,40.0,60.0,40.0,274.2158700951823,[],"[768, 432]",ColorTask,91.0,59.0,,,HRV,HRV_0157,2022-11-30 18:35:21
,wl-rdm,182,575572,0.0-8.59-0.59,False,,1.0,176.0,,,,,,,[],,,,,,56.4,0.0,u,0.0,True,1027.1000000238419,62.0,60.0,40.0,311.88942247422983,[],"[768, 432]",ColorTask,92.0,60.0,,,HRV,HRV_0157,2022-11-30 18:35:21
,wl-rdm,183,577788,0.0-8.60-0.60,False,,1.0,177.0,,,,,,,[],,,,,,56.4,1.0,i,1.0,True,894.3000000715256,54.0,60.0,40.0,235.5421785579559,[],"[768, 432]",ColorTask,93.0,61.0,,,HRV,HRV_0157,2022-11-30 18:35:21
,wl-rdm,184,580088,0.0-8.61-0.61,False,,1.0,178.0,,,,,,,[],,,,,,50.0,1.0,u,0.0,False,881.5,53.0,60.0,40.0,362.4105379851913,[],"[768, 432]",ColorTask,92.0,62.0,,,HRV,HRV_0157,2022-11-30 18:35:21
,wl-rdm,185,582372,0.0-8.62-0.62,False,,1.0,179.0,,,,,,,[],,,,,,56.4,1.0,i,1.0,True,910.3000000715256,55.0,60.0,40.0,302.6265398483013,[],"[768, 432]",ColorTask,93.0,63.0,,,HRV,HRV_0157,2022-11-30 18:35:21
,wl-rdm,186,584771,0.0-8.63-0.63,False,,1.0,180.0,,,,,,,[],,,,,,53.2,0.0,i,1.0,False,958.9000000953674,58.0,60.0,40.0,363.0348554556703,[],"[768, 432]",ColorTask,92.0,64.0,,,HRV,HRV_0157,2022-11-30 18:35:21
,wl-rdm,187,586754,0.0-8.64-0.64,False,,1.0,181.0,,,,,,,[],,,,,,73.6,1.0,i,1.0,True,621.1000001430511,38.0,60.0,40.0,282.96820890354536,[],"[768, 432]",ColorTask,93.0,65.0,,,HRV,HRV_0157,2022-11-30 18:35:21
,wl-rdm,188,588971,0.0-8.65-0.65,False,,1.0,182.0,,,,,,,[],,,,,,73.6,1.0,i,1.0,True,821.0,50.0,60.0,40.0,330.8512313997123,[],"[768, 432]",ColorTask,94.0,66.0,,,HRV,HRV_0157,2022-11-30 18:35:21
,wl-rdm,189,591121,0.0-8.66-0.66,False,,1.0,183.0,,,,,,,[],,,,,,73.6,0.0,u,0.0,True,686.5000001192093,42.0,60.0,40.0,363.3633663134674,[],"[768, 432]",ColorTask,95.0,67.0,,,HRV,HRV_0157,2022-11-30 18:35:21
,wl-rdm,190,593170,0.0-8.67-0.67,False,,1.0,184.0,,,,,,,[],,,,,,87.9,1.0,i,1.0,True,569.2000000476837,35.0,60.0,40.0,393.4032923110244,[],"[768, 432]",ColorTask,96.0,68.0,,,HRV,HRV_0157,2022-11-30 18:35:21
,wl-rdm,191,595403,0.0-8.68-0.68,False,,1.0,185.0,,,,,,,[],,,,,,56.4,1.0,i,1.0,True,942.8999999761581,57.0,60.0,40.0,206.8053470707685,[],"[768, 432]",ColorTask,97.0,69.0,,,HRV,HRV_0157,2022-11-30 18:35:21
,wl-rdm,192,597287,0.0-8.69-0.69,False,,1.0,186.0,,,,,,,[],,,,,,73.6,1.0,i,1.0,True,588.6000000238419,36.0,60.0,40.0,212.96698388239514,[],"[768, 432]",ColorTask,98.0,70.0,,,HRV,HRV_0157,2022-11-30 18:35:21
,wl-rdm,193,599253,0.0-8.70-0.70,False,,1.0,187.0,,,,,,,[],,,,,,62.5,1.0,i,1.0,True,679.3000000715256,41.0,60.0,40.0,201.59045328936375,[],"[768, 432]",ColorTask,99.0,71.0,,,HRV,HRV_0157,2022-11-30 18:35:21
,wl-rdm,194,601370,0.0-8.71-0.71,False,,1.0,188.0,,,,,,,[],,,,,,53.2,0.0,i,1.0,False,837.3000000715256,51.0,60.0,40.0,211.74294893625768,[],"[768, 432]",ColorTask,98.0,72.0,,,HRV,HRV_0157,2022-11-30 18:35:21
,wl-rdm,195,603486,0.0-8.72-0.72,False,,1.0,189.0,,,,,,,[],,,,,,56.4,0.0,i,1.0,False,789.5999999046326,48.0,60.0,40.0,249.3910212783195,[],"[768, 432]",ColorTask,97.0,73.0,,,HRV,HRV_0157,2022-11-30 18:35:21
,wl-rdm,196,605586,0.0-8.73-0.73,False,,1.0,190.0,,,,,,,[],,,,,,50.0,1.0,i,1.0,True,688.7999999523163,42.0,60.0,40.0,338.6815796644593,[],"[768, 432]",ColorTask,98.0,74.0,,,HRV,HRV_0157,2022-11-30 18:35:21
,wl-rdm,197,607569,0.0-8.74-0.74,False,,1.0,191.0,,,,,,,[],,,,,,62.5,1.0,i,1.0,True,556.5,34.0,60.0,40.0,336.73914149397166,[],"[768, 432]",ColorTask,99.0,75.0,,,HRV,HRV_0157,2022-11-30 18:35:21
,wl-rdm,198,609918,0.0-8.75-0.75,False,,1.0,192.0,,,,,,,[],,,,,,62.5,1.0,i,1.0,True,1048.6000000238419,63.0,60.0,40.0,246.61797689714632,[],"[768, 432]",ColorTask,100.0,76.0,,,HRV,HRV_0157,2022-11-30 18:35:21
,wl-rdm,199,612168,0.0-8.76-0.76,False,,1.0,193.0,,,,,,,[],,,,,,62.5,0.0,u,0.0,True,790.2999999523163,48.0,60.0,40.0,385.0009526071401,[],"[768, 432]",ColorTask,101.0,77.0,,,HRV,HRV_0157,2022-11-30 18:35:21
,wl-rdm,200,614435,0.0-8.77-0.77,False,,1.0,194.0,,,,,,,[],,,,,,73.6,0.0,u,0.0,True,960.1000000238419,58.0,60.0,40.0,232.14075270098297,[],"[768, 432]",ColorTask,102.0,78.0,,,HRV,HRV_0157,2022-11-30 18:35:21
,wl-rdm,201,616951,0.0-8.78-0.78,False,,1.0,195.0,,,,,,,[],,,,,,62.5,0.0,u,0.0,True,1135.4000000953674,69.0,60.0,40.0,307.2734332064169,[],"[768, 432]",ColorTask,103.0,79.0,,,HRV,HRV_0157,2022-11-30 18:35:21
,wl-rdm,202,619101,0.0-8.79-0.79,False,,1.0,196.0,,,,,,,[],,,,,,62.5,1.0,i,1.0,True,745.7000000476837,45.0,60.0,40.0,318.8086363438191,[],"[768, 432]",ColorTask,104.0,80.0,,,HRV,HRV_0157,2022-11-30 18:35:21
,wl-rdm,203,621534,0.0-8.80-0.80,False,,1.0,197.0,,,,,,,[],,,,,,62.5,0.0,u,0.0,True,986.1000000238419,60.0,60.0,40.0,364.6166499502202,[],"[768, 432]",ColorTask,105.0,81.0,,,HRV,HRV_0157,2022-11-30 18:35:21
,wl-rdm,204,623583,0.0-8.81-0.81,False,,1.0,198.0,,,,,,,[],,,,,,73.6,1.0,i,1.0,True,695.1999999284744,42.0,60.0,40.0,287.82341373823436,[],"[768, 432]",ColorTask,106.0,82.0,,,HRV,HRV_0157,2022-11-30 18:35:21
,wl-rdm,205,625667,0.0-8.82-0.82,False,,1.0,199.0,,,,,,,[],,,,,,50.0,0.0,i,1.0,False,690.6000000238419,42.0,60.0,40.0,326.0562368384583,[],"[768, 432]",ColorTask,105.0,83.0,,,HRV,HRV_0157,2022-11-30 18:35:21
,wl-rdm,206,628233,0.0-8.83-0.83,False,,1.0,200.0,,,,,,,[],,,,,,53.2,1.0,i,1.0,True,1191.6999999284744,72.0,60.0,40.0,312.6571122301149,[],"[768, 432]",ColorTask,106.0,84.0,,,HRV,HRV_0157,2022-11-30 18:35:21
,wl-rdm,207,630583,0.0-8.84-0.84,False,,1.0,201.0,,,,,,,[],,,,,,53.2,0.0,i,1.0,False,1022.2999999523163,62.0,60.0,40.0,248.7441993625019,[],"[768, 432]",ColorTask,105.0,85.0,,,HRV,HRV_0157,2022-11-30 18:35:21
,wl-rdm,208,632666,0.0-8.85-0.85,False,,1.0,202.0,,,,,,,[],,,,,,87.9,1.0,i,1.0,True,641.7000000476837,39.0,60.0,40.0,367.87911594377556,[],"[768, 432]",ColorTask,106.0,86.0,,,HRV,HRV_0157,2022-11-30 18:35:21
,wl-rdm,209,635999,0.0-8.86-0.86,False,,1.0,203.0,,,,,,,[],,,,,,50.0,1.0,i,1.0,True,1949.0000001192093,117.0,60.0,40.0,324.2999985693602,[],"[768, 432]",ColorTask,107.0,87.0,,,HRV,HRV_0157,2022-11-30 18:35:21
,wl-rdm,210,638032,0.0-8.87-0.87,False,,1.0,204.0,,,,,,,[],,,,,,53.2,1.0,i,1.0,True,602.7000000476837,37.0,60.0,40.0,349.0842045437126,[],"[768, 432]",ColorTask,108.0,88.0,,,HRV,HRV_0157,2022-11-30 18:35:21
,wl-rdm,211,639965,0.0-8.88-0.88,False,,1.0,205.0,,,,,,,[],,,,,,53.2,0.0,i,1.0,False,624.2999999523163,38.0,60.0,40.0,237.34077442942257,[],"[768, 432]",ColorTask,107.0,89.0,,,HRV,HRV_0157,2022-11-30 18:35:21
,wl-rdm,212,642015,0.0-8.89-0.89,False,,1.0,206.0,,,,,,,[],,,,,,56.4,0.0,i,1.0,False,677.9000000953674,41.0,60.0,40.0,294.72356340015824,[],"[768, 432]",ColorTask,106.0,90.0,,,HRV,HRV_0157,2022-11-30 18:35:21
,wl-rdm,213,643881,0.0-8.90-0.90,False,,1.0,207.0,,,,,,,[],,,,,,62.5,1.0,i,1.0,True,585.5,36.0,60.0,40.0,207.54491211368085,[],"[768, 432]",ColorTask,107.0,91.0,,,HRV,HRV_0157,2022-11-30 18:35:21
,wl-rdm,214,646565,0.0-8.91-0.91,False,,1.0,208.0,,,,,,,[],,,,,,56.4,1.0,i,1.0,True,1277.6000000238419,77.0,60.0,40.0,343.5901740648418,[],"[768, 432]",ColorTask,108.0,92.0,,,HRV,HRV_0157,2022-11-30 18:35:21
,wl-rdm,215,648631,0.0-8.92-0.92,False,,1.0,209.0,,,,,,,[],,,,,,73.6,0.0,u,0.0,True,671.9000000953674,41.0,60.0,40.0,304.30328913263196,[],"[768, 432]",ColorTask,109.0,93.0,,,HRV,HRV_0157,2022-11-30 18:35:21
,wl-rdm,216,650697,0.0-8.93-0.93,False,,1.0,210.0,,,,,,,[],,,,,,87.9,0.0,u,0.0,True,668.8999999761581,41.0,60.0,40.0,313.468534022699,[],"[768, 432]",ColorTask,110.0,94.0,,,HRV,HRV_0157,2022-11-30 18:35:21
,wl-rdm,217,653097,0.0-8.94-0.94,False,,1.0,211.0,,,,,,,[],,,,,,53.2,1.0,u,0.0,False,1082.2999999523163,65.0,60.0,40.0,254.40775876465793,[],"[768, 432]",ColorTask,109.0,95.0,,,HRV,HRV_0157,2022-11-30 18:35:21
,wl-rdm,218,655747,0.0-8.95-0.95,False,,1.0,212.0,,,,,,,[],,,,,,50.0,0.0,i,1.0,False,1195.6000000238419,72.0,60.0,40.0,378.20128950293247,[],"[768, 432]",ColorTask,108.0,96.0,,,HRV,HRV_0157,2022-11-30 18:35:21
,wl-rdm,219,658197,0.0-8.96-0.96,False,,1.0,213.0,,,,,,,[],,,,,,62.5,1.0,i,1.0,True,1028.5000001192093,62.0,60.0,40.0,341.7772901321914,[],"[768, 432]",ColorTask,109.0,97.0,,,HRV,HRV_0157,2022-11-30 18:35:21
,wl-rdm,220,660663,0.0-8.97-0.97,False,,1.0,214.0,,,,,,,[],,,,,,62.5,0.0,u,0.0,True,1091.1000000238419,66.0,60.0,40.0,289.8829873433056,[],"[768, 432]",ColorTask,110.0,98.0,,,HRV,HRV_0157,2022-11-30 18:35:21
,wl-rdm,221,662896,0.0-8.98-0.98,False,,1.0,215.0,,,,,,,[],,,,,,62.5,0.0,u,0.0,True,865.5999999046326,52.0,60.0,40.0,316.2208359504732,[],"[768, 432]",ColorTask,111.0,99.0,,,HRV,HRV_0157,2022-11-30 18:35:21
,wl-rdm,222,664896,0.0-8.99-0.99,False,,1.0,216.0,,,,,,,[],,,,,,87.9,1.0,i,1.0,True,726.7000000476837,44.0,60.0,40.0,215.56329823355637,[],"[768, 432]",ColorTask,112.0,100.0,,,HRV,HRV_0157,2022-11-30 18:35:21
,wl-rdm,223,667079,0.0-8.100-0.100,False,,1.0,217.0,,,,,,,[],,,,,,62.5,0.0,u,0.0,True,795.2000000476837,48.0,60.0,40.0,325.4327980893662,[],"[768, 432]",ColorTask,113.0,101.0,,,HRV,HRV_0157,2022-11-30 18:35:21
,wl-rdm,224,669679,0.0-8.101-0.101,False,,1.0,218.0,,,,,,,[],,,,,,62.5,1.0,i,1.0,True,1180.8999999761581,71.0,60.0,40.0,355.52679149122184,[],"[768, 432]",ColorTask,114.0,102.0,,,HRV,HRV_0157,2022-11-30 18:35:21
,wl-rdm,225,672061,0.0-8.102-0.102,False,,1.0,219.0,,,,,,,[],,,,,,50.0,0.0,i,1.0,False,1010.7999999523163,61.0,60.0,40.0,294.48034897087143,[],"[768, 432]",ColorTask,113.0,103.0,,,HRV,HRV_0157,2022-11-30 18:35:21
,wl-rdm,226,673961,0.0-8.103-0.103,False,,1.0,220.0,,,,,,,[],,,,,,73.6,1.0,i,1.0,True,588.2000000476837,36.0,60.0,40.0,231.24289869668814,[],"[768, 432]",ColorTask,114.0,104.0,,,HRV,HRV_0157,2022-11-30 18:35:21
,wl-rdm,227,675961,0.0-8.104-0.104,False,,1.0,221.0,,,,,,,[],,,,,,87.9,0.0,u,0.0,True,694.7999999523163,42.0,60.0,40.0,217.5150001133403,[],"[768, 432]",ColorTask,115.0,105.0,,,HRV,HRV_0157,2022-11-30 18:35:21
,wl-rdm,228,679044,0.0-8.105-0.105,False,,1.0,222.0,,,,,,,[],,,,,,50.0,0.0,i,1.0,False,1720.7999999523163,104.0,60.0,40.0,279.0628166336785,[],"[768, 432]",ColorTask,114.0,106.0,,,HRV,HRV_0157,2022-11-30 18:35:21
,wl-rdm,229,681478,0.0-8.106-0.106,False,,1.0,223.0,,,,,,,[],,,,,,62.5,0.0,i,1.0,False,999.8999999761581,59.0,60.0,40.0,356.9612342520235,[],"[768, 432]",ColorTask,113.0,107.0,,,HRV,HRV_0157,2022-11-30 18:35:21
,wl-rdm,230,683410,0.0-8.107-0.107,False,,1.0,224.0,,,,,,,[],,,,,,87.9,1.0,i,1.0,True,618.7999999523163,38.0,60.0,40.0,241.1175124916802,[],"[768, 432]",ColorTask,114.0,108.0,,,HRV,HRV_0157,2022-11-30 18:35:21
,wl-html-button-response,231,685338,0.0-9.0-0.0,,,,,,,,,,,,1920.5999999046326,,0,,,,,,,,,,,,,,,,,,<h3>End of this session. Thank you!</h3><br>,['Close window'],HRV,HRV_0157,2022-11-30 18:35:21
