trialN,stimuli,trialStartTime,trialStartTime_UNIX,stimulus1,stimulus2,stimulus1Bid,stimulus2Bid,delta,selected,rt,rt_UNIX,rt_perfnow,receivedResponse,rsp,trialEndTime,trialDuration,trialEndTime_UNIX,trialDuration_UNIX,exp,subjectId,date
0,"[{'imgObject': {}, 'id': 'eggsalad', 'src': '/static/foodstim60/eggsalad.jpg', 'key': 'u', 'origWidth': 410, 'origHeight': 409, 'width': 410, 'height': 409, 'widthPercent': 0.45, 'rescaleHeight': False, 'trialN': 0, 'loaded': True, 'loadedTime': 2424.5, 'positionName': 'LEFT', 'positionCoords': [327.28, 227.5], 'bid': 0.36}, {'imgObject': {}, 'id': 'chickenfingers', 'src': '/static/foodstim60/chickenfingers.jpg', 'key': 'i', 'origWidth': 410, 'origHeight': 410, 'width': 410, 'height': 410, 'widthPercent': 0.45, 'rescaleHeight': False, 'trialN': 0, 'loaded': True, 'loadedTime': 2463, 'positionName': 'RIGHT', 'positionCoords': [798.72, 227], 'bid': 8.17}]",2831.4000000953674,1669831874030,eggsalad,chickenfingers,0.36,8.17,7.81,chickenfingers,755.6999999284744,756,755.8999999761581,True,i,4100.100000023842,1268.6999999284744,1669831875299,1269,HRV,HRV_0157,2022-11-30 18:16:02
1,"[{'imgObject': {}, 'id': 'cherry tomato', 'src': '/static/foodstim60/cherry tomato.jpg', 'key': 'u', 'origWidth': 410, 'origHeight': 410, 'width': 410, 'height': 410, 'widthPercent': 0.45, 'rescaleHeight': False, 'trialN': 1, 'loaded': True, 'loadedTime': 2469.3000000715256, 'positionName': 'LEFT', 'positionCoords': [327.28, 227], 'bid': 0.13}, {'imgObject': {}, 'id': 'rigatoni', 'src': '/static/foodstim60/rigatoni.jpg', 'key': 'i', 'origWidth': 411, 'origHeight': 411, 'width': 411, 'height': 411, 'widthPercent': 0.45, 'rescaleHeight': False, 'trialN': 1, 'loaded': True, 'loadedTime': 2472.8000000715256, 'positionName': 'RIGHT', 'positionCoords': [798.72, 226.5], 'bid': 0.16}]",4100.200000047684,1669831875299,cherry tomato,rigatoni,0.13,0.16,0.03,rigatoni,961.8999999761581,962,962.2000000476837,True,i,5575.200000047684,1475.0,1669831876774,1475,HRV,HRV_0157,2022-11-30 18:16:02
2,"[{'imgObject': {}, 'id': 'shreddedwheatwithmilk', 'src': '/static/foodstim60/shreddedwheatwithmilk.jpg', 'key': 'u', 'origWidth': 410, 'origHeight': 410, 'width': 410, 'height': 410, 'widthPercent': 0.45, 'rescaleHeight': False, 'trialN': 2, 'loaded': True, 'loadedTime': 2481, 'positionName': 'LEFT', 'positionCoords': [327.28, 227], 'bid': 5.07}, {'imgObject': {}, 'id': 'edamame', 'src': '/static/foodstim60/edamame.jpg', 'key': 'i', 'origWidth': 409, 'origHeight': 410, 'width': 409, 'height': 410, 'widthPercent': 0.45, 'rescaleHeight': False, 'trialN': 2, 'loaded': True, 'loadedTime': 2485.9000000953674, 'positionName': 'RIGHT', 'positionCoords': [798.72, 227], 'bid': 0.1}]",5575.400000095367,1669831876774,shreddedwheatwithmilk,edamame,5.07,0.1,-4.970000000000001,shreddedwheatwithmilk,952.3999999761581,953,952.6999999284744,True,u,7052.300000071526,1476.8999999761581,1669831878251,1477,HRV,HRV_0157,2022-11-30 18:16:02
3,"[{'imgObject': {}, 'id': 'cherry tomato', 'src': '/static/foodstim60/cherry tomato.jpg', 'key': 'u', 'origWidth': 410, 'origHeight': 410, 'width': 410, 'height': 410, 'widthPercent': 0.45, 'rescaleHeight': False, 'trialN': 3, 'loaded': True, 'loadedTime': 2470, 'positionName': 'LEFT', 'positionCoords': [327.28, 227], 'bid': 0.13}, {'imgObject': {}, 'id': 'mac & cheese', 'src': '/static/foodstim60/mac & cheese.jpg', 'key': 'i', 'origWidth': 410, 'origHeight': 410, 'width': 410, 'height': 410, 'widthPercent': 0.45, 'rescaleHeight': False, 'trialN': 3, 'loaded': True, 'loadedTime': 2487.8000000715256, 'positionName': 'RIGHT', 'positionCoords': [798.72, 227], 'bid': 1.27}]",7052.400000095367,1669831878251,cherry tomato,mac & cheese,0.13,1.27,1.1400000000000001,mac & cheese,763.0999999046326,763,763.3999999761581,True,i,8329.5,1277.0999999046326,1669831879528,1277,HRV,HRV_0157,2022-11-30 18:16:02
4,"[{'imgObject': {}, 'id': 'avocado', 'src': '/static/foodstim60/avocado.jpg', 'key': 'u', 'origWidth': 409, 'origHeight': 409, 'width': 409, 'height': 409, 'widthPercent': 0.45, 'rescaleHeight': False, 'trialN': 4, 'loaded': True, 'loadedTime': 2489.600000023842, 'positionName': 'LEFT', 'positionCoords': [328.28, 227.5], 'bid': 0.1}, {'imgObject': {}, 'id': 'eggs', 'src': '/static/foodstim60/eggs.jpg', 'key': 'i', 'origWidth': 409, 'origHeight': 409, 'width': 409, 'height': 409, 'widthPercent': 0.45, 'rescaleHeight': False, 'trialN': 4, 'loaded': True, 'loadedTime': 2491.8000000715256, 'positionName': 'RIGHT', 'positionCoords': [798.72, 227.5], 'bid': 0.54}]",8329.800000071526,1669831879528,avocado,eggs,0.1,0.54,0.44000000000000006,eggs,992.1000000238419,995,994.7999999523163,True,i,9852.300000071526,1522.5,1669831881051,1523,HRV,HRV_0157,2022-11-30 18:16:02
5,"[{'imgObject': {}, 'id': 'seaweed', 'src': '/static/foodstim60/seaweed.jpg', 'key': 'u', 'origWidth': 410, 'origHeight': 410, 'width': 410, 'height': 410, 'widthPercent': 0.45, 'rescaleHeight': False, 'trialN': 5, 'loaded': True, 'loadedTime': 2494.9000000953674, 'positionName': 'LEFT', 'positionCoords': [327.28, 227], 'bid': 0.13}, {'imgObject': {}, 'id': 'sweetpotato', 'src': '/static/foodstim60/sweetpotato.jpg', 'key': 'i', 'origWidth': 410, 'origHeight': 410, 'width': 410, 'height': 410, 'widthPercent': 0.45, 'rescaleHeight': False, 'trialN': 5, 'loaded': True, 'loadedTime': 2496.5, 'positionName': 'RIGHT', 'positionCoords': [798.72, 227], 'bid': 0.19}]",9852.400000095367,1669831881051,seaweed,sweetpotato,0.13,0.19,0.06,sweetpotato,858.5,859,859.1999999284744,True,i,11212.400000095367,1360.0,1669831882411,1360,HRV,HRV_0157,2022-11-30 18:16:02
6,"[{'imgObject': {}, 'id': 'cheerios', 'src': '/static/foodstim60/cheerios.jpg', 'key': 'u', 'origWidth': 409, 'origHeight': 410, 'width': 409, 'height': 410, 'widthPercent': 0.45, 'rescaleHeight': False, 'trialN': 6, 'loaded': True, 'loadedTime': 2512, 'positionName': 'LEFT', 'positionCoords': [328.28, 227], 'bid': 5.1000000000000005}, {'imgObject': {}, 'id': 'Grapes', 'src': '/static/foodstim60/Grapes.jpg', 'key': 'i', 'origWidth': 411, 'origHeight': 411, 'width': 411, 'height': 411, 'widthPercent': 0.45, 'rescaleHeight': False, 'trialN': 6, 'loaded': True, 'loadedTime': 2514.2000000476837, 'positionName': 'RIGHT', 'positionCoords': [798.72, 226.5], 'bid': 7.96}]",11212.400000095367,1669831882411,cheerios,Grapes,5.1000000000000005,7.96,2.8599999999999994,Grapes,685.7999999523163,686,686.3999999761581,True,i,12418.800000071526,1206.3999999761581,1669831883617,1206,HRV,HRV_0157,2022-11-30 18:16:02
7,"[{'imgObject': {}, 'id': 'Grapes', 'src': '/static/foodstim60/Grapes.jpg', 'key': 'u', 'origWidth': 411, 'origHeight': 411, 'width': 411, 'height': 411, 'widthPercent': 0.45, 'rescaleHeight': False, 'trialN': 7, 'loaded': True, 'loadedTime': 2553.3000000715256, 'positionName': 'LEFT', 'positionCoords': [326.28, 226.5], 'bid': 7.96}, {'imgObject': {}, 'id': 'blueberries', 'src': '/static/foodstim60/blueberries.jpg', 'key': 'i', 'origWidth': 411, 'origHeight': 411, 'width': 411, 'height': 411, 'widthPercent': 0.45, 'rescaleHeight': False, 'trialN': 7, 'loaded': True, 'loadedTime': 2562.7000000476837, 'positionName': 'RIGHT', 'positionCoords': [798.72, 226.5], 'bid': 7.81}]",12419.200000047684,1669831883618,Grapes,blueberries,7.96,7.81,-0.15000000000000036,Grapes,613.0,614,613.7000000476837,True,u,13553.300000071526,1134.1000000238419,1669831884752,1134,HRV,HRV_0157,2022-11-30 18:16:02
8,"[{'imgObject': {}, 'id': 'mashed potato', 'src': '/static/foodstim60/mashed potato.jpg', 'key': 'u', 'origWidth': 409, 'origHeight': 409, 'width': 409, 'height': 409, 'widthPercent': 0.45, 'rescaleHeight': False, 'trialN': 8, 'loaded': True, 'loadedTime': 2567.100000023842, 'positionName': 'LEFT', 'positionCoords': [328.28, 227.5], 'bid': 5.11}, {'imgObject': {}, 'id': 'cheerios', 'src': '/static/foodstim60/cheerios.jpg', 'key': 'i', 'origWidth': 409, 'origHeight': 410, 'width': 409, 'height': 410, 'widthPercent': 0.45, 'rescaleHeight': False, 'trialN': 8, 'loaded': True, 'loadedTime': 2496.8000000715256, 'positionName': 'RIGHT', 'positionCoords': [798.72, 227], 'bid': 5.1000000000000005}]",13553.600000023842,1669831884752,mashed potato,cheerios,5.11,5.1000000000000005,-0.009999999999999787,mashed potato,1085.2000000476837,1086,1085.8999999761581,True,u,15155.5,1601.8999999761581,1669831886354,1602,HRV,HRV_0157,2022-11-30 18:16:02
9,"[{'imgObject': {}, 'id': 'baked potato', 'src': '/static/foodstim60/baked potato.jpg', 'key': 'u', 'origWidth': 409, 'origHeight': 410, 'width': 409, 'height': 410, 'widthPercent': 0.45, 'rescaleHeight': False, 'trialN': 9, 'loaded': True, 'loadedTime': 2571.600000023842, 'positionName': 'LEFT', 'positionCoords': [328.28, 227], 'bid': 0.61}, {'imgObject': {}, 'id': 'strawberries', 'src': '/static/foodstim60/strawberries.jpg', 'key': 'i', 'origWidth': 410, 'origHeight': 410, 'width': 410, 'height': 410, 'widthPercent': 0.45, 'rescaleHeight': False, 'trialN': 9, 'loaded': True, 'loadedTime': 2577.4000000953674, 'positionName': 'RIGHT', 'positionCoords': [798.72, 227], 'bid': 8.28}]",15156.0,1669831886355,baked potato,strawberries,0.61,8.28,7.669999999999999,strawberries,854.1000000238419,854,854.8000000715256,True,i,16529.800000071526,1373.8000000715256,1669831887728,1373,HRV,HRV_0157,2022-11-30 18:16:02
10,"[{'imgObject': {}, 'id': 'Tribe humus pita', 'src': '/static/foodstim60/Tribe humus pita.jpg', 'key': 'u', 'origWidth': 411, 'origHeight': 411, 'width': 411, 'height': 411, 'widthPercent': 0.45, 'rescaleHeight': False, 'trialN': 10, 'loaded': True, 'loadedTime': 2600, 'positionName': 'LEFT', 'positionCoords': [326.28, 226.5], 'bid': 5.75}, {'imgObject': {}, 'id': 'bagel and cc', 'src': '/static/foodstim60/bagel and cc.jpg', 'key': 'i', 'origWidth': 410, 'origHeight': 410, 'width': 410, 'height': 410, 'widthPercent': 0.45, 'rescaleHeight': False, 'trialN': 10, 'loaded': True, 'loadedTime': 2479.100000023842, 'positionName': 'RIGHT', 'positionCoords': [798.72, 227], 'bid': 4.94}]",16530.0,1669831887728,Tribe humus pita,bagel and cc,5.75,4.94,-0.8099999999999996,Tribe humus pita,981.4000000953674,982,982.0,True,u,18029.700000047684,1499.7000000476837,1669831889228,1500,HRV,HRV_0157,2022-11-30 18:16:02
11,"[{'imgObject': {}, 'id': 'pear', 'src': '/static/foodstim60/pear.jpg', 'key': 'u', 'origWidth': 411, 'origHeight': 410, 'width': 411, 'height': 410, 'widthPercent': 0.45, 'rescaleHeight': False, 'trialN': 11, 'loaded': True, 'loadedTime': 2483.4000000953674, 'positionName': 'LEFT', 'positionCoords': [326.28, 227], 'bid': 7.91}, {'imgObject': {}, 'id': 'blueberries', 'src': '/static/foodstim60/blueberries.jpg', 'key': 'i', 'origWidth': 411, 'origHeight': 411, 'width': 411, 'height': 411, 'widthPercent': 0.45, 'rescaleHeight': False, 'trialN': 11, 'loaded': True, 'loadedTime': 2562.8000000715256, 'positionName': 'RIGHT', 'positionCoords': [798.72, 226.5], 'bid': 7.81}]",18030.100000023842,1669831889228,pear,blueberries,7.91,7.81,-0.10000000000000053,blueberries,989.5,990,990.1000000238419,True,i,19531.800000071526,1501.7000000476837,1669831890730,1502,HRV,HRV_0157,2022-11-30 18:16:02
12,"[{'imgObject': {}, 'id': 'pear', 'src': '/static/foodstim60/pear.jpg', 'key': 'u', 'origWidth': 411, 'origHeight': 410, 'width': 411, 'height': 410, 'widthPercent': 0.45, 'rescaleHeight': False, 'trialN': 12, 'loaded': True, 'loadedTime': 2483.3000000715256, 'positionName': 'LEFT', 'positionCoords': [326.28, 227], 'bid': 7.91}, {'imgObject': {}, 'id': 'sweetpotato', 'src': '/static/foodstim60/sweetpotato.jpg', 'key': 'i', 'origWidth': 410, 'origHeight': 410, 'width': 410, 'height': 410, 'widthPercent': 0.45, 'rescaleHeight': False, 'trialN': 12, 'loaded': True, 'loadedTime': 2495.5, 'positionName': 'RIGHT', 'positionCoords': [798.72, 227], 'bid': 0.19}]",19532.200000047684,1669831890730,pear,sweetpotato,7.91,0.19,-7.72,pear,731.7000000476837,733,732.2999999523163,True,u,20787.100000023842,1254.8999999761581,1669831891985,1255,HRV,HRV_0157,2022-11-30 18:16:02
13,"[{'imgObject': {}, 'id': 'rigatoni', 'src': '/static/foodstim60/rigatoni.jpg', 'key': 'u', 'origWidth': 411, 'origHeight': 411, 'width': 411, 'height': 411, 'widthPercent': 0.45, 'rescaleHeight': False, 'trialN': 13, 'loaded': True, 'loadedTime': 2472.3000000715256, 'positionName': 'LEFT', 'positionCoords': [326.28, 226.5], 'bid': 0.16}, {'imgObject': {}, 'id': 'cocktailshrimp', 'src': '/static/foodstim60/cocktailshrimp.jpg', 'key': 'i', 'origWidth': 410, 'origHeight': 410, 'width': 410, 'height': 410, 'widthPercent': 0.45, 'rescaleHeight': False, 'trialN': 13, 'loaded': True, 'loadedTime': 2491.7000000476837, 'positionName': 'RIGHT', 'positionCoords': [798.72, 227], 'bid': 0.01}]",20787.5,1669831891986,rigatoni,cocktailshrimp,0.16,0.01,-0.15,rigatoni,994.7000000476837,995,995.3000000715256,True,u,22289.300000071526,1501.8000000715256,1669831893488,1502,HRV,HRV_0157,2022-11-30 18:16:02
14,"[{'imgObject': {}, 'id': 'blackbeanswithrice', 'src': '/static/foodstim60/blackbeanswithrice.jpg', 'key': 'u', 'origWidth': 410, 'origHeight': 410, 'width': 410, 'height': 410, 'widthPercent': 0.45, 'rescaleHeight': False, 'trialN': 14, 'loaded': True, 'loadedTime': 2599.8000000715256, 'positionName': 'LEFT', 'positionCoords': [327.28, 227], 'bid': 0.41}, {'imgObject': {}, 'id': 'cocktailshrimp', 'src': '/static/foodstim60/cocktailshrimp.jpg', 'key': 'i', 'origWidth': 410, 'origHeight': 410, 'width': 410, 'height': 410, 'widthPercent': 0.45, 'rescaleHeight': False, 'trialN': 14, 'loaded': True, 'loadedTime': 2491.3000000715256, 'positionName': 'RIGHT', 'positionCoords': [798.72, 227], 'bid': 0.01}]",22289.5,1669831893488,blackbeanswithrice,cocktailshrimp,0.41,0.01,-0.39999999999999997,blackbeanswithrice,868.7000000476837,869,869.3000000715256,True,u,23665.100000023842,1375.6000000238419,1669831894863,1375,HRV,HRV_0157,2022-11-30 18:16:02
15,"[{'imgObject': {}, 'id': 'salad w chicken', 'src': '/static/foodstim60/salad w chicken.jpg', 'key': 'u', 'origWidth': 411, 'origHeight': 411, 'width': 411, 'height': 411, 'widthPercent': 0.45, 'rescaleHeight': False, 'trialN': 15, 'loaded': True, 'loadedTime': 2607.9000000953674, 'positionName': 'LEFT', 'positionCoords': [326.28, 226.5], 'bid': 8.33}, {'imgObject': {}, 'id': 'ice cream sundae 002', 'src': '/static/foodstim60/ice cream sundae 002.jpg', 'key': 'i', 'origWidth': 409, 'origHeight': 409, 'width': 409, 'height': 409, 'widthPercent': 0.45, 'rescaleHeight': False, 'trialN': 15, 'loaded': True, 'loadedTime': 2611.4000000953674, 'positionName': 'RIGHT', 'positionCoords': [798.72, 227.5], 'bid': 9.86}]",23665.300000071526,1669831894863,salad w chicken,ice cream sundae 002,8.33,9.86,1.5299999999999994,ice cream sundae 002,1150.8999999761581,1152,1151.5,True,i,25329.100000023842,1663.7999999523163,1669831896527,1664,HRV,HRV_0157,2022-11-30 18:16:02
16,"[{'imgObject': {}, 'id': 'orange slices', 'src': '/static/foodstim60/orange slices.jpg', 'key': 'u', 'origWidth': 409, 'origHeight': 410, 'width': 409, 'height': 410, 'widthPercent': 0.45, 'rescaleHeight': False, 'trialN': 16, 'loaded': True, 'loadedTime': 2612.100000023842, 'positionName': 'LEFT', 'positionCoords': [328.28, 227], 'bid': 9.3}, {'imgObject': {}, 'id': 'kiwi', 'src': '/static/foodstim60/kiwi.jpg', 'key': 'i', 'origWidth': 410, 'origHeight': 410, 'width': 410, 'height': 410, 'widthPercent': 0.45, 'rescaleHeight': False, 'trialN': 16, 'loaded': True, 'loadedTime': 2628, 'positionName': 'RIGHT', 'positionCoords': [798.72, 227], 'bid': 10}]",25329.5,1669831896528,orange slices,kiwi,9.3,10.0,0.6999999999999993,kiwi,830.5,831,831.1000000238419,True,i,26676.200000047684,1346.7000000476837,1669831897874,1346,HRV,HRV_0157,2022-11-30 18:16:02
17,"[{'imgObject': {}, 'id': 'cherries', 'src': '/static/foodstim60/cherries.jpg', 'key': 'u', 'origWidth': 410, 'origHeight': 411, 'width': 410, 'height': 411, 'widthPercent': 0.45, 'rescaleHeight': False, 'trialN': 17, 'loaded': True, 'loadedTime': 2639.5, 'positionName': 'LEFT', 'positionCoords': [327.28, 226.5], 'bid': 10}, {'imgObject': {}, 'id': 'banana', 'src': '/static/foodstim60/banana.jpg', 'key': 'i', 'origWidth': 410, 'origHeight': 410, 'width': 410, 'height': 410, 'widthPercent': 0.45, 'rescaleHeight': False, 'trialN': 17, 'loaded': True, 'loadedTime': 2642.8000000715256, 'positionName': 'RIGHT', 'positionCoords': [798.72, 227], 'bid': 9.63}]",26676.5,1669831897875,cherries,banana,10.0,9.63,-0.3699999999999992,cherries,1414.5,1415,1415.2000000476837,True,u,28605.400000095367,1928.9000000953674,1669831899804,1929,HRV,HRV_0157,2022-11-30 18:16:02
18,"[{'imgObject': {}, 'id': 'burrito', 'src': '/static/foodstim60/burrito.jpg', 'key': 'u', 'origWidth': 410, 'origHeight': 410, 'width': 410, 'height': 410, 'widthPercent': 0.45, 'rescaleHeight': False, 'trialN': 18, 'loaded': True, 'loadedTime': 2644.9000000953674, 'positionName': 'LEFT', 'positionCoords': [327.28, 227], 'bid': 0.75}, {'imgObject': {}, 'id': 'luckycharms', 'src': '/static/foodstim60/luckycharms.jpg', 'key': 'i', 'origWidth': 410, 'origHeight': 409, 'width': 410, 'height': 409, 'widthPercent': 0.45, 'rescaleHeight': False, 'trialN': 18, 'loaded': True, 'loadedTime': 2649.100000023842, 'positionName': 'RIGHT', 'positionCoords': [798.72, 227.5], 'bid': 5}]",28605.800000071526,1669831899804,burrito,luckycharms,0.75,5.0,4.25,luckycharms,812.8999999761581,813,813.1000000238419,True,i,29928.200000047684,1322.3999999761581,1669831901126,1322,HRV,HRV_0157,2022-11-30 18:16:02
19,"[{'imgObject': {}, 'id': 'fruitsalad', 'src': '/static/foodstim60/fruitsalad.jpg', 'key': 'u', 'origWidth': 410, 'origHeight': 410, 'width': 410, 'height': 410, 'widthPercent': 0.45, 'rescaleHeight': False, 'trialN': 19, 'loaded': True, 'loadedTime': 2665.3000000715256, 'positionName': 'LEFT', 'positionCoords': [327.28, 227], 'bid': 9.89}, {'imgObject': {}, 'id': 'steak', 'src': '/static/foodstim60/steak.jpg', 'key': 'i', 'origWidth': 410, 'origHeight': 410, 'width': 410, 'height': 410, 'widthPercent': 0.45, 'rescaleHeight': False, 'trialN': 19, 'loaded': True, 'loadedTime': 2665.9000000953674, 'positionName': 'RIGHT', 'positionCoords': [798.72, 227], 'bid': 9.93}]",29928.700000047684,1669831901127,fruitsalad,steak,9.89,9.93,0.03999999999999915,steak,921.2999999523163,922,922.0,True,i,31366.600000023842,1437.8999999761581,1669831902565,1438,HRV,HRV_0157,2022-11-30 18:16:02
20,"[{'imgObject': {}, 'id': 'turkey sandwich', 'src': '/static/foodstim60/turkey sandwich.jpg', 'key': 'u', 'origWidth': 409, 'origHeight': 409, 'width': 409, 'height': 409, 'widthPercent': 0.45, 'rescaleHeight': False, 'trialN': 20, 'loaded': True, 'loadedTime': 2686.9000000953674, 'positionName': 'LEFT', 'positionCoords': [328.28, 227.5], 'bid': 5.07}, {'imgObject': {}, 'id': 'shreddedwheatwithmilk', 'src': '/static/foodstim60/shreddedwheatwithmilk.jpg', 'key': 'i', 'origWidth': 410, 'origHeight': 410, 'width': 410, 'height': 410, 'widthPercent': 0.45, 'rescaleHeight': False, 'trialN': 20, 'loaded': True, 'loadedTime': 2479.7000000476837, 'positionName': 'RIGHT', 'positionCoords': [798.72, 227], 'bid': 5.07}]",31367.0,1669831902565,turkey sandwich,shreddedwheatwithmilk,5.07,5.07,0.0,shreddedwheatwithmilk,1183.0,1184,1183.9000000953674,True,i,33060.0,1693.0,1669831904258,1693,HRV,HRV_0157,2022-11-30 18:16:02
21,"[{'imgObject': {}, 'id': 'mac & cheese', 'src': '/static/foodstim60/mac & cheese.jpg', 'key': 'u', 'origWidth': 410, 'origHeight': 410, 'width': 410, 'height': 410, 'widthPercent': 0.45, 'rescaleHeight': False, 'trialN': 21, 'loaded': True, 'loadedTime': 2488.2000000476837, 'positionName': 'LEFT', 'positionCoords': [327.28, 227], 'bid': 1.27}, {'imgObject': {}, 'id': 'banana', 'src': '/static/foodstim60/banana.jpg', 'key': 'i', 'origWidth': 410, 'origHeight': 410, 'width': 410, 'height': 410, 'widthPercent': 0.45, 'rescaleHeight': False, 'trialN': 21, 'loaded': True, 'loadedTime': 2642.9000000953674, 'positionName': 'RIGHT', 'positionCoords': [798.72, 227], 'bid': 9.63}]",33060.300000071526,1669831904258,mac & cheese,banana,1.27,9.63,8.360000000000001,banana,696.3999999761581,697,696.7999999523163,True,i,34263.10000002384,1202.7999999523163,1669831905461,1203,HRV,HRV_0157,2022-11-30 18:16:02
22,"[{'imgObject': {}, 'id': 'veggieswithdip', 'src': '/static/foodstim60/veggieswithdip.jpg', 'key': 'u', 'origWidth': 409, 'origHeight': 409, 'width': 409, 'height': 409, 'widthPercent': 0.45, 'rescaleHeight': False, 'trialN': 22, 'loaded': True, 'loadedTime': 2703.3000000715256, 'positionName': 'LEFT', 'positionCoords': [328.28, 227.5], 'bid': 0.05}, {'imgObject': {}, 'id': 'lox', 'src': '/static/foodstim60/lox.jpg', 'key': 'i', 'origWidth': 410, 'origHeight': 411, 'width': 410, 'height': 411, 'widthPercent': 0.45, 'rescaleHeight': False, 'trialN': 22, 'loaded': True, 'loadedTime': 2713.100000023842, 'positionName': 'RIGHT', 'positionCoords': [798.72, 226.5], 'bid': 0.06}]",34263.40000009537,1669831905462,veggieswithdip,lox,0.05,0.06,0.009999999999999995,veggieswithdip,1534.1999999284744,1534,1534.8999999761581,True,u,36313.800000071526,2050.399999976158,1669831907512,2050,HRV,HRV_0157,2022-11-30 18:16:02
23,"[{'imgObject': {}, 'id': 'yogurt no spoon', 'src': '/static/foodstim60/yogurt no spoon.jpg', 'key': 'u', 'origWidth': 411, 'origHeight': 410, 'width': 411, 'height': 410, 'widthPercent': 0.45, 'rescaleHeight': False, 'trialN': 23, 'loaded': True, 'loadedTime': 2713.3000000715256, 'positionName': 'LEFT', 'positionCoords': [326.28, 227], 'bid': 4.9}, {'imgObject': {}, 'id': 'raisin bran w milk', 'src': '/static/foodstim60/raisin bran w milk.jpg', 'key': 'i', 'origWidth': 411, 'origHeight': 411, 'width': 411, 'height': 411, 'widthPercent': 0.45, 'rescaleHeight': False, 'trialN': 23, 'loaded': True, 'loadedTime': 2718.8000000715256, 'positionName': 'RIGHT', 'positionCoords': [798.72, 226.5], 'bid': 5.0200000000000005}]",36314.0,1669831907512,yogurt no spoon,raisin bran w milk,4.9,5.0200000000000005,0.1200000000000001,yogurt no spoon,1859.0,1860,1859.5,True,u,38676.10000002384,2362.100000023842,1669831909874,2362,HRV,HRV_0157,2022-11-30 18:16:02
24,"[{'imgObject': {}, 'id': 'froot loops w milk', 'src': '/static/foodstim60/froot loops w milk.jpg', 'key': 'u', 'origWidth': 410, 'origHeight': 410, 'width': 410, 'height': 410, 'widthPercent': 0.45, 'rescaleHeight': False, 'trialN': 24, 'loaded': True, 'loadedTime': 2722.3000000715256, 'positionName': 'LEFT', 'positionCoords': [327.28, 227], 'bid': 4.89}, {'imgObject': {}, 'id': 'granola w milk', 'src': '/static/foodstim60/granola w milk.jpg', 'key': 'i', 'origWidth': 410, 'origHeight': 410, 'width': 410, 'height': 410, 'widthPercent': 0.45, 'rescaleHeight': False, 'trialN': 24, 'loaded': True, 'loadedTime': 2725.2000000476837, 'positionName': 'RIGHT', 'positionCoords': [798.72, 227], 'bid': 5.01}]",38676.300000071526,1669831909874,froot loops w milk,granola w milk,4.89,5.01,0.1200000000000001,froot loops w milk,1016.6999999284744,1018,1017.2999999523163,True,u,40204.300000071526,1528.0,1669831911402,1528,HRV,HRV_0157,2022-11-30 18:16:02
25,"[{'imgObject': {}, 'id': 'burger', 'src': '/static/foodstim60/burger.jpg', 'key': 'u', 'origWidth': 409, 'origHeight': 409, 'width': 409, 'height': 409, 'widthPercent': 0.45, 'rescaleHeight': False, 'trialN': 25, 'loaded': True, 'loadedTime': 2727.8000000715256, 'positionName': 'LEFT', 'positionCoords': [328.28, 227.5], 'bid': 7.98}, {'imgObject': {}, 'id': 'pear', 'src': '/static/foodstim60/pear.jpg', 'key': 'i', 'origWidth': 411, 'origHeight': 410, 'width': 411, 'height': 410, 'widthPercent': 0.45, 'rescaleHeight': False, 'trialN': 25, 'loaded': True, 'loadedTime': 2483.600000023842, 'positionName': 'RIGHT', 'positionCoords': [798.72, 227], 'bid': 7.91}]",40204.60000002384,1669831911403,burger,pear,7.98,7.91,-0.07000000000000028,burger,882.2000000476837,883,882.8000000715256,True,u,41604.5,1399.8999999761581,1669831912803,1400,HRV,HRV_0157,2022-11-30 18:16:02
26,"[{'imgObject': {}, 'id': 'rigatoni', 'src': '/static/foodstim60/rigatoni.jpg', 'key': 'u', 'origWidth': 411, 'origHeight': 411, 'width': 411, 'height': 411, 'widthPercent': 0.45, 'rescaleHeight': False, 'trialN': 26, 'loaded': True, 'loadedTime': 2472.9000000953674, 'positionName': 'LEFT', 'positionCoords': [326.28, 226.5], 'bid': 0.16}, {'imgObject': {}, 'id': 'hashbrowns', 'src': '/static/foodstim60/hashbrowns.jpg', 'key': 'i', 'origWidth': 411, 'origHeight': 410, 'width': 411, 'height': 410, 'widthPercent': 0.45, 'rescaleHeight': False, 'trialN': 26, 'loaded': True, 'loadedTime': 2729.4000000953674, 'positionName': 'RIGHT', 'positionCoords': [798.72, 227], 'bid': 4.84}]",41604.800000071526,1669831912803,rigatoni,hashbrowns,0.16,4.84,4.68,hashbrowns,978.5,979,979.1999999284744,True,i,43094.800000071526,1490.0,1669831914293,1490,HRV,HRV_0157,2022-11-30 18:16:02
27,"[{'imgObject': {}, 'id': 'eggsalad', 'src': '/static/foodstim60/eggsalad.jpg', 'key': 'u', 'origWidth': 410, 'origHeight': 409, 'width': 410, 'height': 409, 'widthPercent': 0.45, 'rescaleHeight': False, 'trialN': 27, 'loaded': True, 'loadedTime': 2446.7000000476837, 'positionName': 'LEFT', 'positionCoords': [327.28, 227.5], 'bid': 0.36}, {'imgObject': {}, 'id': 'blackbeanswithrice', 'src': '/static/foodstim60/blackbeanswithrice.jpg', 'key': 'i', 'origWidth': 410, 'origHeight': 410, 'width': 410, 'height': 410, 'widthPercent': 0.45, 'rescaleHeight': False, 'trialN': 27, 'loaded': True, 'loadedTime': 2591.100000023842, 'positionName': 'RIGHT', 'positionCoords': [798.72, 227], 'bid': 0.41}]",43095.0,1669831914293,eggsalad,blackbeanswithrice,0.36,0.41,0.04999999999999999,blackbeanswithrice,1038.0,1039,1038.6000000238419,True,i,44649.90000009537,1554.9000000953674,1669831915848,1555,HRV,HRV_0157,2022-11-30 18:16:02
28,"[{'imgObject': {}, 'id': 'turkeysandwich', 'src': '/static/foodstim60/turkeysandwich.jpg', 'key': 'u', 'origWidth': 409, 'origHeight': 409, 'width': 409, 'height': 409, 'widthPercent': 0.45, 'rescaleHeight': False, 'trialN': 28, 'loaded': True, 'loadedTime': 2744.5, 'positionName': 'LEFT', 'positionCoords': [328.28, 227.5], 'bid': 4.98}, {'imgObject': {}, 'id': 'luckycharms', 'src': '/static/foodstim60/luckycharms.jpg', 'key': 'i', 'origWidth': 410, 'origHeight': 409, 'width': 410, 'height': 409, 'widthPercent': 0.45, 'rescaleHeight': False, 'trialN': 28, 'loaded': True, 'loadedTime': 2646.600000023842, 'positionName': 'RIGHT', 'positionCoords': [798.72, 227.5], 'bid': 5}]",44650.0,1669831915848,turkeysandwich,luckycharms,4.98,5.0,0.019999999999999574,turkeysandwich,2038.3000000715256,2039,2038.8000000715256,True,u,47203.10000002384,2553.100000023842,1669831918401,2553,HRV,HRV_0157,2022-11-30 18:16:02
29,"[{'imgObject': {}, 'id': 'burrito', 'src': '/static/foodstim60/burrito.jpg', 'key': 'u', 'origWidth': 410, 'origHeight': 410, 'width': 410, 'height': 410, 'widthPercent': 0.45, 'rescaleHeight': False, 'trialN': 29, 'loaded': True, 'loadedTime': 2645.5, 'positionName': 'LEFT', 'positionCoords': [327.28, 227], 'bid': 0.75}, {'imgObject': {}, 'id': 'grilled chicken strips', 'src': '/static/foodstim60/grilled chicken strips.jpg', 'key': 'i', 'origWidth': 410, 'origHeight': 411, 'width': 410, 'height': 411, 'widthPercent': 0.45, 'rescaleHeight': False, 'trialN': 29, 'loaded': True, 'loadedTime': 2746.100000023842, 'positionName': 'RIGHT', 'positionCoords': [798.72, 226.5], 'bid': 8.61}]",47203.5,1669831918402,burrito,grilled chicken strips,0.75,8.61,7.859999999999999,grilled chicken strips,763.6000000238419,764,764.2000000476837,True,i,48468.90000009537,1265.4000000953674,1669831919667,1265,HRV,HRV_0157,2022-11-30 18:16:02
30,"[{'imgObject': {}, 'id': 'olives', 'src': '/static/foodstim60/olives.jpg', 'key': 'u', 'origWidth': 410, 'origHeight': 410, 'width': 410, 'height': 410, 'widthPercent': 0.45, 'rescaleHeight': False, 'trialN': 30, 'loaded': True, 'loadedTime': 2749.3000000715256, 'positionName': 'LEFT', 'positionCoords': [327.28, 227], 'bid': 0.24}, {'imgObject': {}, 'id': 'Grapes', 'src': '/static/foodstim60/Grapes.jpg', 'key': 'i', 'origWidth': 411, 'origHeight': 411, 'width': 411, 'height': 411, 'widthPercent': 0.45, 'rescaleHeight': False, 'trialN': 30, 'loaded': True, 'loadedTime': 2553.100000023842, 'positionName': 'RIGHT', 'positionCoords': [798.72, 226.5], 'bid': 7.96}]",48469.10000002384,1669831919667,olives,Grapes,0.24,7.96,7.72,Grapes,633.8999999761581,635,634.3999999761581,True,i,49604.5,1135.3999999761581,1669831920803,1136,HRV,HRV_0157,2022-11-30 18:16:02
31,"[{'imgObject': {}, 'id': 'seaweed', 'src': '/static/foodstim60/seaweed.jpg', 'key': 'u', 'origWidth': 410, 'origHeight': 410, 'width': 410, 'height': 410, 'widthPercent': 0.45, 'rescaleHeight': False, 'trialN': 31, 'loaded': True, 'loadedTime': 2495.4000000953674, 'positionName': 'LEFT', 'positionCoords': [327.28, 227], 'bid': 0.13}, {'imgObject': {}, 'id': 'lox', 'src': '/static/foodstim60/lox.jpg', 'key': 'i', 'origWidth': 410, 'origHeight': 411, 'width': 410, 'height': 411, 'widthPercent': 0.45, 'rescaleHeight': False, 'trialN': 31, 'loaded': True, 'loadedTime': 2713.2000000476837, 'positionName': 'RIGHT', 'positionCoords': [798.72, 226.5], 'bid': 0.06}]",49604.60000002384,1669831920803,seaweed,lox,0.13,0.06,-0.07,seaweed,1342.2000000476837,1343,1342.8999999761581,True,u,51462.90000009537,1858.3000000715256,1669831922661,1858,HRV,HRV_0157,2022-11-30 18:16:02
32,"[{'imgObject': {}, 'id': 'omelette', 'src': '/static/foodstim60/omelette.jpg', 'key': 'u', 'origWidth': 410, 'origHeight': 409, 'width': 410, 'height': 409, 'widthPercent': 0.45, 'rescaleHeight': False, 'trialN': 32, 'loaded': True, 'loadedTime': 2756.3000000715256, 'positionName': 'LEFT', 'positionCoords': [327.28, 227.5], 'bid': 0.71}, {'imgObject': {}, 'id': 'fried eggs', 'src': '/static/foodstim60/fried eggs.jpg', 'key': 'i', 'origWidth': 410, 'origHeight': 410, 'width': 410, 'height': 410, 'widthPercent': 0.45, 'rescaleHeight': False, 'trialN': 32, 'loaded': True, 'loadedTime': 2759.100000023842, 'positionName': 'RIGHT', 'positionCoords': [798.72, 227], 'bid': 1.21}]",51463.200000047684,1669831922661,omelette,fried eggs,0.71,1.21,0.5,omelette,1547.2000000476837,1548,1547.3999999761581,True,u,53516.10000002384,2052.899999976158,1669831924714,2053,HRV,HRV_0157,2022-11-30 18:16:02
33,"[{'imgObject': {}, 'id': 'salad w chicken', 'src': '/static/foodstim60/salad w chicken.jpg', 'key': 'u', 'origWidth': 411, 'origHeight': 411, 'width': 411, 'height': 411, 'widthPercent': 0.45, 'rescaleHeight': False, 'trialN': 33, 'loaded': True, 'loadedTime': 2607.2000000476837, 'positionName': 'LEFT', 'positionCoords': [326.28, 226.5], 'bid': 8.33}, {'imgObject': {}, 'id': 'rigatoni and sauce', 'src': '/static/foodstim60/rigatoni and sauce.jpg', 'key': 'i', 'origWidth': 410, 'origHeight': 411, 'width': 410, 'height': 411, 'widthPercent': 0.45, 'rescaleHeight': False, 'trialN': 33, 'loaded': True, 'loadedTime': 2760.8000000715256, 'positionName': 'RIGHT', 'positionCoords': [798.72, 226.5], 'bid': 0.6900000000000001}]",53516.5,1669831924715,salad w chicken,rigatoni and sauce,8.33,0.6900000000000001,-7.64,salad w chicken,645.2000000476837,645,645.7000000476837,True,u,54683.200000047684,1166.7000000476837,1669831925881,1166,HRV,HRV_0157,2022-11-30 18:16:02
34,"[{'imgObject': {}, 'id': 'sweetpotato', 'src': '/static/foodstim60/sweetpotato.jpg', 'key': 'u', 'origWidth': 410, 'origHeight': 410, 'width': 410, 'height': 410, 'widthPercent': 0.45, 'rescaleHeight': False, 'trialN': 34, 'loaded': True, 'loadedTime': 2496.600000023842, 'positionName': 'LEFT', 'positionCoords': [327.28, 227], 'bid': 0.19}, {'imgObject': {}, 'id': 'froot loops w milk', 'src': '/static/foodstim60/froot loops w milk.jpg', 'key': 'i', 'origWidth': 410, 'origHeight': 410, 'width': 410, 'height': 410, 'widthPercent': 0.45, 'rescaleHeight': False, 'trialN': 34, 'loaded': True, 'loadedTime': 2721.3000000715256, 'positionName': 'RIGHT', 'positionCoords': [798.72, 227], 'bid': 4.89}]",54683.5,1669831925882,sweetpotato,froot loops w milk,0.19,4.89,4.699999999999999,froot loops w milk,995.2000000476837,996,995.9000000953674,True,i,56181.800000071526,1498.3000000715256,1669831927380,1498,HRV,HRV_0157,2022-11-30 18:16:02
35,"[{'imgObject': {}, 'id': 'avocado', 'src': '/static/foodstim60/avocado.jpg', 'key': 'u', 'origWidth': 409, 'origHeight': 409, 'width': 409, 'height': 409, 'widthPercent': 0.45, 'rescaleHeight': False, 'trialN': 35, 'loaded': True, 'loadedTime': 2488.3000000715256, 'positionName': 'LEFT', 'positionCoords': [328.28, 227.5], 'bid': 0.1}, {'imgObject': {}, 'id': 'sushi w_condiments', 'src': '/static/foodstim60/sushi w_condiments.jpg', 'key': 'i', 'origWidth': 410, 'origHeight': 410, 'width': 410, 'height': 410, 'widthPercent': 0.45, 'rescaleHeight': False, 'trialN': 35, 'loaded': True, 'loadedTime': 2763.8000000715256, 'positionName': 'RIGHT', 'positionCoords': [798.72, 227], 'bid': 0.03}]",56182.0,1669831927380,avocado,sushi w_condiments,0.1,0.03,-0.07,sushi w_condiments,580.8000000715256,582,581.4000000953674,True,i,57284.40000009537,1102.4000000953674,1669831928483,1103,HRV,HRV_0157,2022-11-30 18:16:02
36,"[{'imgObject': {}, 'id': 'turkeysandwich', 'src': '/static/foodstim60/turkeysandwich.jpg', 'key': 'u', 'origWidth': 409, 'origHeight': 409, 'width': 409, 'height': 409, 'widthPercent': 0.45, 'rescaleHeight': False, 'trialN': 36, 'loaded': True, 'loadedTime': 2729.600000023842, 'positionName': 'LEFT', 'positionCoords': [328.28, 227.5], 'bid': 4.98}, {'imgObject': {}, 'id': 'bagel and cc', 'src': '/static/foodstim60/bagel and cc.jpg', 'key': 'i', 'origWidth': 410, 'origHeight': 410, 'width': 410, 'height': 410, 'widthPercent': 0.45, 'rescaleHeight': False, 'trialN': 36, 'loaded': True, 'loadedTime': 2474.4000000953674, 'positionName': 'RIGHT', 'positionCoords': [798.72, 227], 'bid': 4.94}]",57284.700000047684,1669831928483,turkeysandwich,bagel and cc,4.98,4.94,-0.040000000000000036,bagel and cc,776.8999999761581,777,777.2000000476837,True,i,58572.800000071526,1288.1000000238419,1669831929771,1288,HRV,HRV_0157,2022-11-30 18:16:02
37,"[{'imgObject': {}, 'id': 'sweetpotato', 'src': '/static/foodstim60/sweetpotato.jpg', 'key': 'u', 'origWidth': 410, 'origHeight': 410, 'width': 410, 'height': 410, 'widthPercent': 0.45, 'rescaleHeight': False, 'trialN': 37, 'loaded': True, 'loadedTime': 2496.3000000715256, 'positionName': 'LEFT', 'positionCoords': [327.28, 227], 'bid': 0.19}, {'imgObject': {}, 'id': 'rigatoni', 'src': '/static/foodstim60/rigatoni.jpg', 'key': 'i', 'origWidth': 411, 'origHeight': 411, 'width': 411, 'height': 411, 'widthPercent': 0.45, 'rescaleHeight': False, 'trialN': 37, 'loaded': True, 'loadedTime': 2470.5, 'positionName': 'RIGHT', 'positionCoords': [798.72, 226.5], 'bid': 0.16}]",58573.10000002384,1669831929771,sweetpotato,rigatoni,0.19,0.16,-0.03,rigatoni,1238.6000000238419,1240,1239.5,True,i,60317.60000002384,1744.5,1669831931516,1745,HRV,HRV_0157,2022-11-30 18:16:02
38,"[{'imgObject': {}, 'id': 'popsicles', 'src': '/static/foodstim60/popsicles.jpg', 'key': 'u', 'origWidth': 410, 'origHeight': 410, 'width': 410, 'height': 410, 'widthPercent': 0.45, 'rescaleHeight': False, 'trialN': 38, 'loaded': True, 'loadedTime': 2830.5, 'positionName': 'LEFT', 'positionCoords': [327.28, 227], 'bid': 0.24}, {'imgObject': {}, 'id': 'blackbeanswithrice', 'src': '/static/foodstim60/blackbeanswithrice.jpg', 'key': 'i', 'origWidth': 410, 'origHeight': 410, 'width': 410, 'height': 410, 'widthPercent': 0.45, 'rescaleHeight': False, 'trialN': 38, 'loaded': True, 'loadedTime': 2591.5, 'positionName': 'RIGHT', 'positionCoords': [798.72, 227], 'bid': 0.41}]",60317.800000071526,1669831931516,popsicles,blackbeanswithrice,0.24,0.41,0.16999999999999998,blackbeanswithrice,851.1999999284744,851,851.5,True,i,61682.10000002384,1364.2999999523163,1669831932880,1364,HRV,HRV_0157,2022-11-30 18:16:02
39,"[{'imgObject': {}, 'id': 'luckycharms', 'src': '/static/foodstim60/luckycharms.jpg', 'key': 'u', 'origWidth': 410, 'origHeight': 409, 'width': 410, 'height': 409, 'widthPercent': 0.45, 'rescaleHeight': False, 'trialN': 39, 'loaded': True, 'loadedTime': 2650.3000000715256, 'positionName': 'LEFT', 'positionCoords': [327.28, 227.5], 'bid': 5}, {'imgObject': {}, 'id': 'sushi w_condiments', 'src': '/static/foodstim60/sushi w_condiments.jpg', 'key': 'i', 'origWidth': 410, 'origHeight': 410, 'width': 410, 'height': 410, 'widthPercent': 0.45, 'rescaleHeight': False, 'trialN': 39, 'loaded': True, 'loadedTime': 2764.7000000476837, 'positionName': 'RIGHT', 'positionCoords': [798.72, 227], 'bid': 0.03}]",61682.40000009537,1669831932881,luckycharms,sushi w_condiments,5.0,0.03,-4.97,luckycharms,917.1999999284744,917,917.6999999284744,True,u,63110.10000002384,1427.6999999284744,1669831934308,1427,HRV,HRV_0157,2022-11-30 18:16:02
40,"[{'imgObject': {}, 'id': 'turkey sandwich', 'src': '/static/foodstim60/turkey sandwich.jpg', 'key': 'u', 'origWidth': 409, 'origHeight': 409, 'width': 409, 'height': 409, 'widthPercent': 0.45, 'rescaleHeight': False, 'trialN': 40, 'loaded': True, 'loadedTime': 2685.9000000953674, 'positionName': 'LEFT', 'positionCoords': [328.28, 227.5], 'bid': 5.07}, {'imgObject': {}, 'id': 'turkeysandwich', 'src': '/static/foodstim60/turkeysandwich.jpg', 'key': 'i', 'origWidth': 409, 'origHeight': 409, 'width': 409, 'height': 409, 'widthPercent': 0.45, 'rescaleHeight': False, 'trialN': 40, 'loaded': True, 'loadedTime': 2744.4000000953674, 'positionName': 'RIGHT', 'positionCoords': [798.72, 227.5], 'bid': 4.98}]",63110.40000009537,1669831934309,turkey sandwich,turkeysandwich,5.07,4.98,-0.08999999999999986,turkeysandwich,1231.6999999284744,1232,1232.2999999523163,True,i,64856.60000002384,1746.1999999284744,1669831936055,1746,HRV,HRV_0157,2022-11-30 18:16:02
41,"[{'imgObject': {}, 'id': 'Tribe humus pita', 'src': '/static/foodstim60/Tribe humus pita.jpg', 'key': 'u', 'origWidth': 411, 'origHeight': 411, 'width': 411, 'height': 411, 'widthPercent': 0.45, 'rescaleHeight': False, 'trialN': 41, 'loaded': True, 'loadedTime': 2601.9000000953674, 'positionName': 'LEFT', 'positionCoords': [326.28, 226.5], 'bid': 5.75}, {'imgObject': {}, 'id': 'banana', 'src': '/static/foodstim60/banana.jpg', 'key': 'i', 'origWidth': 410, 'origHeight': 410, 'width': 410, 'height': 410, 'widthPercent': 0.45, 'rescaleHeight': False, 'trialN': 41, 'loaded': True, 'loadedTime': 2642.5, 'positionName': 'RIGHT', 'positionCoords': [798.72, 227], 'bid': 9.63}]",64856.800000071526,1669831936055,Tribe humus pita,banana,5.75,9.63,3.880000000000001,banana,783.7999999523163,784,784.2999999523163,True,i,66163.40000009537,1306.6000000238419,1669831937362,1307,HRV,HRV_0157,2022-11-30 18:16:02
42,"[{'imgObject': {}, 'id': 'corn cob', 'src': '/static/foodstim60/corn cob.jpg', 'key': 'u', 'origWidth': 411, 'origHeight': 411, 'width': 411, 'height': 411, 'widthPercent': 0.45, 'rescaleHeight': False, 'trialN': 42, 'loaded': True, 'loadedTime': 2767.5, 'positionName': 'LEFT', 'positionCoords': [326.28, 226.5], 'bid': 1.6}, {'imgObject': {}, 'id': 'cantaloupe', 'src': '/static/foodstim60/cantaloupe.jpg', 'key': 'i', 'origWidth': 409, 'origHeight': 409, 'width': 409, 'height': 409, 'widthPercent': 0.45, 'rescaleHeight': False, 'trialN': 42, 'loaded': True, 'loadedTime': 2770, 'positionName': 'RIGHT', 'positionCoords': [798.72, 227.5], 'bid': 9.68}]",66163.70000004768,1669831937362,corn cob,cantaloupe,1.6,9.68,8.08,cantaloupe,796.7999999523163,797,797.0,True,i,67469.10000002384,1305.3999999761581,1669831938667,1305,HRV,HRV_0157,2022-11-30 18:16:02
43,"[{'imgObject': {}, 'id': 'yogurt no spoon', 'src': '/static/foodstim60/yogurt no spoon.jpg', 'key': 'u', 'origWidth': 411, 'origHeight': 410, 'width': 411, 'height': 410, 'widthPercent': 0.45, 'rescaleHeight': False, 'trialN': 43, 'loaded': True, 'loadedTime': 2716.5, 'positionName': 'LEFT', 'positionCoords': [326.28, 227], 'bid': 4.9}, {'imgObject': {}, 'id': 'froot loops w milk', 'src': '/static/foodstim60/froot loops w milk.jpg', 'key': 'i', 'origWidth': 410, 'origHeight': 410, 'width': 410, 'height': 410, 'widthPercent': 0.45, 'rescaleHeight': False, 'trialN': 43, 'loaded': True, 'loadedTime': 2721.5, 'positionName': 'RIGHT', 'positionCoords': [798.72, 227], 'bid': 4.89}]",67469.40000009537,1669831938668,yogurt no spoon,froot loops w milk,4.9,4.89,-0.010000000000000675,yogurt no spoon,979.6999999284744,980,980.3999999761581,True,u,68957.90000009537,1488.5,1669831940156,1488,HRV,HRV_0157,2022-11-30 18:16:02
44,"[{'imgObject': {}, 'id': 'raspberries', 'src': '/static/foodstim60/raspberries.jpg', 'key': 'u', 'origWidth': 411, 'origHeight': 411, 'width': 411, 'height': 411, 'widthPercent': 0.45, 'rescaleHeight': False, 'trialN': 44, 'loaded': True, 'loadedTime': 2774, 'positionName': 'LEFT', 'positionCoords': [326.28, 226.5], 'bid': 8.24}, {'imgObject': {}, 'id': 'chickenfingers', 'src': '/static/foodstim60/chickenfingers.jpg', 'key': 'i', 'origWidth': 410, 'origHeight': 410, 'width': 410, 'height': 410, 'widthPercent': 0.45, 'rescaleHeight': False, 'trialN': 44, 'loaded': True, 'loadedTime': 2464.3000000715256, 'positionName': 'RIGHT', 'positionCoords': [798.72, 227], 'bid': 8.17}]",68958.30000007153,1669831940156,raspberries,chickenfingers,8.24,8.17,-0.07000000000000028,raspberries,665.2999999523163,666,665.6999999284744,True,u,70150.80000007153,1192.5,1669831941349,1193,HRV,HRV_0157,2022-11-30 18:16:02
45,"[{'imgObject': {}, 'id': 'bagel and cc', 'src': '/static/foodstim60/bagel and cc.jpg', 'key': 'u', 'origWidth': 410, 'origHeight': 410, 'width': 410, 'height': 410, 'widthPercent': 0.45, 'rescaleHeight': False, 'trialN': 45, 'loaded': True, 'loadedTime': 2477.100000023842, 'positionName': 'LEFT', 'positionCoords': [327.28, 227], 'bid': 4.94}, {'imgObject': {}, 'id': 'bagel plain', 'src': '/static/foodstim60/bagel plain.jpg', 'key': 'i', 'origWidth': 410, 'origHeight': 410, 'width': 410, 'height': 410, 'widthPercent': 0.45, 'rescaleHeight': False, 'trialN': 45, 'loaded': True, 'loadedTime': 2804.600000023842, 'positionName': 'RIGHT', 'positionCoords': [798.72, 227], 'bid': 4.98}]",70151.0,1669831941349,bagel and cc,bagel plain,4.94,4.98,0.040000000000000036,bagel and cc,684.1000000238419,685,684.6000000238419,True,u,71354.20000004768,1203.2000000476837,1669831942552,1203,HRV,HRV_0157,2022-11-30 18:16:02
46,"[{'imgObject': {}, 'id': 'blueberries', 'src': '/static/foodstim60/blueberries.jpg', 'key': 'u', 'origWidth': 411, 'origHeight': 411, 'width': 411, 'height': 411, 'widthPercent': 0.45, 'rescaleHeight': False, 'trialN': 46, 'loaded': True, 'loadedTime': 2553.5, 'positionName': 'LEFT', 'positionCoords': [326.28, 226.5], 'bid': 7.81}, {'imgObject': {}, 'id': 'apple slices', 'src': '/static/foodstim60/apple slices.jpg', 'key': 'i', 'origWidth': 409, 'origHeight': 410, 'width': 409, 'height': 410, 'widthPercent': 0.45, 'rescaleHeight': False, 'trialN': 46, 'loaded': True, 'loadedTime': 2806.100000023842, 'positionName': 'RIGHT', 'positionCoords': [798.72, 227], 'bid': 8.39}]",71354.30000007153,1669831942552,blueberries,apple slices,7.81,8.39,0.580000000000001,blueberries,994.8999999761581,996,995.1999999284744,True,u,72855.80000007153,1501.5,1669831944054,1502,HRV,HRV_0157,2022-11-30 18:16:02
47,"[{'imgObject': {}, 'id': 'salmon', 'src': '/static/foodstim60/salmon.jpg', 'key': 'u', 'origWidth': 410, 'origHeight': 409, 'width': 410, 'height': 409, 'widthPercent': 0.45, 'rescaleHeight': False, 'trialN': 47, 'loaded': True, 'loadedTime': 2806.8000000715256, 'positionName': 'LEFT', 'positionCoords': [327.28, 227.5], 'bid': 0.1}, {'imgObject': {}, 'id': 'avocado', 'src': '/static/foodstim60/avocado.jpg', 'key': 'i', 'origWidth': 409, 'origHeight': 409, 'width': 409, 'height': 409, 'widthPercent': 0.45, 'rescaleHeight': False, 'trialN': 47, 'loaded': True, 'loadedTime': 2489.5, 'positionName': 'RIGHT', 'positionCoords': [798.72, 227.5], 'bid': 0.1}]",72855.90000009537,1669831944054,salmon,avocado,0.1,0.1,0.0,salmon,1458.1999999284744,1459,1458.8999999761581,True,u,74838.10000002384,1982.1999999284744,1669831946036,1982,HRV,HRV_0157,2022-11-30 18:16:02
48,"[{'imgObject': {}, 'id': 'grilled chicken strips', 'src': '/static/foodstim60/grilled chicken strips.jpg', 'key': 'u', 'origWidth': 410, 'origHeight': 411, 'width': 410, 'height': 411, 'widthPercent': 0.45, 'rescaleHeight': False, 'trialN': 48, 'loaded': True, 'loadedTime': 2746.5, 'positionName': 'LEFT', 'positionCoords': [327.28, 226.5], 'bid': 8.61}, {'imgObject': {}, 'id': 'cheerios', 'src': '/static/foodstim60/cheerios.jpg', 'key': 'i', 'origWidth': 409, 'origHeight': 410, 'width': 409, 'height': 410, 'widthPercent': 0.45, 'rescaleHeight': False, 'trialN': 48, 'loaded': True, 'loadedTime': 2511.7000000476837, 'positionName': 'RIGHT', 'positionCoords': [798.72, 227], 'bid': 5.1000000000000005}]",74838.40000009537,1669831946037,grilled chicken strips,cheerios,8.61,5.1000000000000005,-3.509999999999999,grilled chicken strips,955.5999999046326,956,955.8999999761581,True,u,76301.40000009537,1463.0,1669831947500,1463,HRV,HRV_0157,2022-11-30 18:16:02
49,"[{'imgObject': {}, 'id': 'chicken nuggets2', 'src': '/static/foodstim60/chicken nuggets2.jpg', 'key': 'u', 'origWidth': 410, 'origHeight': 409, 'width': 410, 'height': 409, 'widthPercent': 0.45, 'rescaleHeight': False, 'trialN': 49, 'loaded': True, 'loadedTime': 2811.9000000953674, 'positionName': 'LEFT', 'positionCoords': [327.28, 227.5], 'bid': 8.25}, {'imgObject': {}, 'id': 'granola w milk', 'src': '/static/foodstim60/granola w milk.jpg', 'key': 'i', 'origWidth': 410, 'origHeight': 410, 'width': 410, 'height': 410, 'widthPercent': 0.45, 'rescaleHeight': False, 'trialN': 49, 'loaded': True, 'loadedTime': 2725.4000000953674, 'positionName': 'RIGHT', 'positionCoords': [798.72, 227], 'bid': 5.01}]",76301.5,1669831947500,chicken nuggets2,granola w milk,8.25,5.01,-3.24,chicken nuggets2,590.0,590,590.3000000715256,True,u,77413.30000007153,1111.8000000715256,1669831948612,1112,HRV,HRV_0157,2022-11-30 18:16:02
50,"[{'imgObject': {}, 'id': 'cherries', 'src': '/static/foodstim60/cherries.jpg', 'key': 'u', 'origWidth': 410, 'origHeight': 411, 'width': 410, 'height': 411, 'widthPercent': 0.45, 'rescaleHeight': False, 'trialN': 50, 'loaded': True, 'loadedTime': 2639.4000000953674, 'positionName': 'LEFT', 'positionCoords': [327.28, 226.5], 'bid': 10}, {'imgObject': {}, 'id': 'kiwi', 'src': '/static/foodstim60/kiwi.jpg', 'key': 'i', 'origWidth': 410, 'origHeight': 410, 'width': 410, 'height': 410, 'widthPercent': 0.45, 'rescaleHeight': False, 'trialN': 50, 'loaded': True, 'loadedTime': 2629.600000023842, 'positionName': 'RIGHT', 'positionCoords': [798.72, 227], 'bid': 10}]",77413.40000009537,1669831948612,cherries,kiwi,10.0,10.0,0.0,cherries,607.7999999523163,608,608.3999999761581,True,u,78529.90000009537,1116.5,1669831949729,1117,HRV,HRV_0157,2022-11-30 18:16:02
51,"[{'imgObject': {}, 'id': 'popsicles', 'src': '/static/foodstim60/popsicles.jpg', 'key': 'u', 'origWidth': 410, 'origHeight': 410, 'width': 410, 'height': 410, 'widthPercent': 0.45, 'rescaleHeight': False, 'trialN': 51, 'loaded': True, 'loadedTime': 2830.600000023842, 'positionName': 'LEFT', 'positionCoords': [327.28, 227], 'bid': 0.24}, {'imgObject': {}, 'id': 'rigatoni and sauce', 'src': '/static/foodstim60/rigatoni and sauce.jpg', 'key': 'i', 'origWidth': 410, 'origHeight': 411, 'width': 410, 'height': 411, 'widthPercent': 0.45, 'rescaleHeight': False, 'trialN': 51, 'loaded': True, 'loadedTime': 2761.2000000476837, 'positionName': 'RIGHT', 'positionCoords': [798.72, 226.5], 'bid': 0.6900000000000001}]",78530.20000004768,1669831949729,popsicles,rigatoni and sauce,0.24,0.6900000000000001,0.45000000000000007,rigatoni and sauce,821.6000000238419,822,822.2000000476837,True,i,79869.30000007153,1339.1000000238419,1669831951068,1339,HRV,HRV_0157,2022-11-30 18:16:02
52,"[{'imgObject': {}, 'id': 'baked potato', 'src': '/static/foodstim60/baked potato.jpg', 'key': 'u', 'origWidth': 409, 'origHeight': 410, 'width': 409, 'height': 410, 'widthPercent': 0.45, 'rescaleHeight': False, 'trialN': 52, 'loaded': True, 'loadedTime': 2573.4000000953674, 'positionName': 'LEFT', 'positionCoords': [328.28, 227], 'bid': 0.61}, {'imgObject': {}, 'id': 'cherry tomato', 'src': '/static/foodstim60/cherry tomato.jpg', 'key': 'i', 'origWidth': 410, 'origHeight': 410, 'width': 410, 'height': 410, 'widthPercent': 0.45, 'rescaleHeight': False, 'trialN': 52, 'loaded': True, 'loadedTime': 2468.7000000476837, 'positionName': 'RIGHT', 'positionCoords': [798.72, 227], 'bid': 0.13}]",79869.70000004768,1669831951068,baked potato,cherry tomato,0.61,0.13,-0.48,baked potato,843.7000000476837,844,843.8999999761581,True,u,81224.5,1354.7999999523163,1669831952423,1355,HRV,HRV_0157,2022-11-30 18:16:02
53,"[{'imgObject': {}, 'id': 'fried eggs', 'src': '/static/foodstim60/fried eggs.jpg', 'key': 'u', 'origWidth': 410, 'origHeight': 410, 'width': 410, 'height': 410, 'widthPercent': 0.45, 'rescaleHeight': False, 'trialN': 53, 'loaded': True, 'loadedTime': 2758.2000000476837, 'positionName': 'LEFT', 'positionCoords': [327.28, 227], 'bid': 1.21}, {'imgObject': {}, 'id': 'granola w milk', 'src': '/static/foodstim60/granola w milk.jpg', 'key': 'i', 'origWidth': 410, 'origHeight': 410, 'width': 410, 'height': 410, 'widthPercent': 0.45, 'rescaleHeight': False, 'trialN': 53, 'loaded': True, 'loadedTime': 2724.5, 'positionName': 'RIGHT', 'positionCoords': [798.72, 227], 'bid': 5.01}]",81224.80000007153,1669831952423,fried eggs,granola w milk,1.21,5.01,3.8,fried eggs,808.0,809,808.3999999761581,True,u,82544.5,1319.6999999284744,1669831953743,1320,HRV,HRV_0157,2022-11-30 18:16:02
54,"[{'imgObject': {}, 'id': 'baked potato', 'src': '/static/foodstim60/baked potato.jpg', 'key': 'u', 'origWidth': 409, 'origHeight': 410, 'width': 409, 'height': 410, 'widthPercent': 0.45, 'rescaleHeight': False, 'trialN': 54, 'loaded': True, 'loadedTime': 2570.5, 'positionName': 'LEFT', 'positionCoords': [328.28, 227], 'bid': 0.61}, {'imgObject': {}, 'id': 'rigatoni and sauce', 'src': '/static/foodstim60/rigatoni and sauce.jpg', 'key': 'i', 'origWidth': 410, 'origHeight': 411, 'width': 410, 'height': 411, 'widthPercent': 0.45, 'rescaleHeight': False, 'trialN': 54, 'loaded': True, 'loadedTime': 2761.100000023842, 'positionName': 'RIGHT', 'positionCoords': [798.72, 226.5], 'bid': 0.6900000000000001}]",82544.90000009537,1669831953743,baked potato,rigatoni and sauce,0.61,0.6900000000000001,0.08000000000000007,rigatoni and sauce,1353.2999999523163,1355,1354.0999999046326,True,i,84418.5,1873.5999999046326,1669831955617,1874,HRV,HRV_0157,2022-11-30 18:16:02
55,"[{'imgObject': {}, 'id': 'chicken nuggets2', 'src': '/static/foodstim60/chicken nuggets2.jpg', 'key': 'u', 'origWidth': 410, 'origHeight': 409, 'width': 410, 'height': 409, 'widthPercent': 0.45, 'rescaleHeight': False, 'trialN': 55, 'loaded': True, 'loadedTime': 2811.8000000715256, 'positionName': 'LEFT', 'positionCoords': [327.28, 227.5], 'bid': 8.25}, {'imgObject': {}, 'id': 'steak', 'src': '/static/foodstim60/steak.jpg', 'key': 'i', 'origWidth': 410, 'origHeight': 410, 'width': 410, 'height': 410, 'widthPercent': 0.45, 'rescaleHeight': False, 'trialN': 55, 'loaded': True, 'loadedTime': 2667.100000023842, 'positionName': 'RIGHT', 'positionCoords': [798.72, 227], 'bid': 9.93}]",84418.80000007153,1669831955617,chicken nuggets2,steak,8.25,9.93,1.6799999999999997,steak,869.2999999523163,870,869.7999999523163,True,i,85810.60000002384,1391.7999999523163,1669831957009,1392,HRV,HRV_0157,2022-11-30 18:16:02
56,"[{'imgObject': {}, 'id': 'lox', 'src': '/static/foodstim60/lox.jpg', 'key': 'u', 'origWidth': 410, 'origHeight': 411, 'width': 410, 'height': 411, 'widthPercent': 0.45, 'rescaleHeight': False, 'trialN': 56, 'loaded': True, 'loadedTime': 2705.2000000476837, 'positionName': 'LEFT', 'positionCoords': [327.28, 226.5], 'bid': 0.06}, {'imgObject': {}, 'id': 'baked potato', 'src': '/static/foodstim60/baked potato.jpg', 'key': 'i', 'origWidth': 409, 'origHeight': 410, 'width': 409, 'height': 410, 'widthPercent': 0.45, 'rescaleHeight': False, 'trialN': 56, 'loaded': True, 'loadedTime': 2569.9000000953674, 'positionName': 'RIGHT', 'positionCoords': [798.72, 227], 'bid': 0.61}]",85810.90000009537,1669831957010,lox,baked potato,0.06,0.61,0.55,baked potato,766.0,766,766.5999999046326,True,i,87091.60000002384,1280.6999999284744,1669831958290,1280,HRV,HRV_0157,2022-11-30 18:16:02
57,"[{'imgObject': {}, 'id': 'granola w milk', 'src': '/static/foodstim60/granola w milk.jpg', 'key': 'u', 'origWidth': 410, 'origHeight': 410, 'width': 410, 'height': 410, 'widthPercent': 0.45, 'rescaleHeight': False, 'trialN': 57, 'loaded': True, 'loadedTime': 2723, 'positionName': 'LEFT', 'positionCoords': [327.28, 227], 'bid': 5.01}, {'imgObject': {}, 'id': 'veggieswithdip', 'src': '/static/foodstim60/veggieswithdip.jpg', 'key': 'i', 'origWidth': 409, 'origHeight': 409, 'width': 409, 'height': 409, 'widthPercent': 0.45, 'rescaleHeight': False, 'trialN': 57, 'loaded': True, 'loadedTime': 2703.100000023842, 'positionName': 'RIGHT', 'positionCoords': [798.72, 227.5], 'bid': 0.05}]",87091.80000007153,1669831958290,granola w milk,veggieswithdip,5.01,0.05,-4.96,granola w milk,782.1999999284744,783,782.6000000238419,True,u,88397.30000007153,1305.5,1669831959596,1306,HRV,HRV_0157,2022-11-30 18:16:02
58,"[{'imgObject': {}, 'id': 'luckycharms', 'src': '/static/foodstim60/luckycharms.jpg', 'key': 'u', 'origWidth': 410, 'origHeight': 409, 'width': 410, 'height': 409, 'widthPercent': 0.45, 'rescaleHeight': False, 'trialN': 58, 'loaded': True, 'loadedTime': 2649.2000000476837, 'positionName': 'LEFT', 'positionCoords': [327.28, 227.5], 'bid': 5}, {'imgObject': {}, 'id': 'bagel plain', 'src': '/static/foodstim60/bagel plain.jpg', 'key': 'i', 'origWidth': 410, 'origHeight': 410, 'width': 410, 'height': 410, 'widthPercent': 0.45, 'rescaleHeight': False, 'trialN': 58, 'loaded': True, 'loadedTime': 2804.2000000476837, 'positionName': 'RIGHT', 'positionCoords': [798.72, 227], 'bid': 4.98}]",88397.70000004768,1669831959596,luckycharms,bagel plain,5.0,4.98,-0.019999999999999574,bagel plain,811.3999999761581,812,811.8999999761581,True,i,89716.20000004768,1318.5,1669831960915,1319,HRV,HRV_0157,2022-11-30 18:16:02
59,"[{'imgObject': {}, 'id': 'hashbrowns', 'src': '/static/foodstim60/hashbrowns.jpg', 'key': 'u', 'origWidth': 411, 'origHeight': 410, 'width': 411, 'height': 410, 'widthPercent': 0.45, 'rescaleHeight': False, 'trialN': 59, 'loaded': True, 'loadedTime': 2729.100000023842, 'positionName': 'LEFT', 'positionCoords': [326.28, 227], 'bid': 4.84}, {'imgObject': {}, 'id': 'luckycharms', 'src': '/static/foodstim60/luckycharms.jpg', 'key': 'i', 'origWidth': 410, 'origHeight': 409, 'width': 410, 'height': 409, 'widthPercent': 0.45, 'rescaleHeight': False, 'trialN': 59, 'loaded': True, 'loadedTime': 2649.8000000715256, 'positionName': 'RIGHT', 'positionCoords': [798.72, 227.5], 'bid': 5}]",89716.5,1669831960915,hashbrowns,luckycharms,4.84,5.0,0.16000000000000014,hashbrowns,813.9000000953674,815,814.3000000715256,True,u,91042.20000004768,1325.7000000476837,1669831962241,1326,HRV,HRV_0157,2022-11-30 18:16:02
60,"[{'imgObject': {}, 'id': 'steak', 'src': '/static/foodstim60/steak.jpg', 'key': 'u', 'origWidth': 410, 'origHeight': 410, 'width': 410, 'height': 410, 'widthPercent': 0.45, 'rescaleHeight': False, 'trialN': 60, 'loaded': True, 'loadedTime': 2667.4000000953674, 'positionName': 'LEFT', 'positionCoords': [327.28, 227], 'bid': 9.93}, {'imgObject': {}, 'id': 'grilled chicken strips', 'src': '/static/foodstim60/grilled chicken strips.jpg', 'key': 'i', 'origWidth': 410, 'origHeight': 411, 'width': 410, 'height': 411, 'widthPercent': 0.45, 'rescaleHeight': False, 'trialN': 60, 'loaded': True, 'loadedTime': 2746.4000000953674, 'positionName': 'RIGHT', 'positionCoords': [798.72, 226.5], 'bid': 8.61}]",91042.5,1669831962241,steak,grilled chicken strips,9.93,8.61,-1.3200000000000003,steak,591.1000000238419,592,591.4000000953674,True,u,92147.40000009537,1104.9000000953674,1669831963346,1105,HRV,HRV_0157,2022-11-30 18:16:02
61,"[{'imgObject': {}, 'id': 'avocado', 'src': '/static/foodstim60/avocado.jpg', 'key': 'u', 'origWidth': 409, 'origHeight': 409, 'width': 409, 'height': 409, 'widthPercent': 0.45, 'rescaleHeight': False, 'trialN': 61, 'loaded': True, 'loadedTime': 2489.3000000715256, 'positionName': 'LEFT', 'positionCoords': [328.28, 227.5], 'bid': 0.1}, {'imgObject': {}, 'id': 'mashed potato', 'src': '/static/foodstim60/mashed potato.jpg', 'key': 'i', 'origWidth': 409, 'origHeight': 409, 'width': 409, 'height': 409, 'widthPercent': 0.45, 'rescaleHeight': False, 'trialN': 61, 'loaded': True, 'loadedTime': 2563.600000023842, 'positionName': 'RIGHT', 'positionCoords': [798.72, 227.5], 'bid': 5.11}]",92147.60000002384,1669831963346,avocado,mashed potato,0.1,5.11,5.010000000000001,mashed potato,799.7000000476837,800,800.1000000238419,True,i,93452.90000009537,1305.3000000715256,1669831964652,1306,HRV,HRV_0157,2022-11-30 18:16:02
62,"[{'imgObject': {}, 'id': 'turkeysandwich', 'src': '/static/foodstim60/turkeysandwich.jpg', 'key': 'u', 'origWidth': 409, 'origHeight': 409, 'width': 409, 'height': 409, 'widthPercent': 0.45, 'rescaleHeight': False, 'trialN': 62, 'loaded': True, 'loadedTime': 2744.3000000715256, 'positionName': 'LEFT', 'positionCoords': [328.28, 227.5], 'bid': 4.98}, {'imgObject': {}, 'id': 'eggsalad', 'src': '/static/foodstim60/eggsalad.jpg', 'key': 'i', 'origWidth': 410, 'origHeight': 409, 'width': 410, 'height': 409, 'widthPercent': 0.45, 'rescaleHeight': False, 'trialN': 62, 'loaded': True, 'loadedTime': 2424.100000023842, 'positionName': 'RIGHT', 'positionCoords': [798.72, 227.5], 'bid': 0.36}]",93453.20000004768,1669831964652,turkeysandwich,eggsalad,4.98,0.36,-4.62,turkeysandwich,1049.5,1050,1050.0,True,u,95009.70000004768,1556.5,1669831966208,1556,HRV,HRV_0157,2022-11-30 18:16:02
63,"[{'imgObject': {}, 'id': 'fried eggs', 'src': '/static/foodstim60/fried eggs.jpg', 'key': 'u', 'origWidth': 410, 'origHeight': 410, 'width': 410, 'height': 410, 'widthPercent': 0.45, 'rescaleHeight': False, 'trialN': 63, 'loaded': True, 'loadedTime': 2756.8000000715256, 'positionName': 'LEFT', 'positionCoords': [327.28, 227], 'bid': 1.21}, {'imgObject': {}, 'id': 'mac & cheese', 'src': '/static/foodstim60/mac & cheese.jpg', 'key': 'i', 'origWidth': 410, 'origHeight': 410, 'width': 410, 'height': 410, 'widthPercent': 0.45, 'rescaleHeight': False, 'trialN': 63, 'loaded': True, 'loadedTime': 2487.5, 'positionName': 'RIGHT', 'positionCoords': [798.72, 227], 'bid': 1.27}]",95010.0,1669831966209,fried eggs,mac & cheese,1.21,1.27,0.06000000000000005,fried eggs,934.1000000238419,935,934.9000000953674,True,u,96458.5,1448.5,1669831967657,1448,HRV,HRV_0157,2022-11-30 18:16:02
64,"[{'imgObject': {}, 'id': 'hotdog w must', 'src': '/static/foodstim60/hotdog w must.jpg', 'key': 'u', 'origWidth': 409, 'origHeight': 409, 'width': 409, 'height': 409, 'widthPercent': 0.45, 'rescaleHeight': False, 'trialN': 64, 'loaded': True, 'loadedTime': 2812.8000000715256, 'positionName': 'LEFT', 'positionCoords': [328.28, 227.5], 'bid': 0.1}, {'imgObject': {}, 'id': 'turkey sandwich', 'src': '/static/foodstim60/turkey sandwich.jpg', 'key': 'i', 'origWidth': 409, 'origHeight': 409, 'width': 409, 'height': 409, 'widthPercent': 0.45, 'rescaleHeight': False, 'trialN': 64, 'loaded': True, 'loadedTime': 2684.2000000476837, 'positionName': 'RIGHT', 'positionCoords': [798.72, 227.5], 'bid': 5.07}]",96458.90000009537,1669831967657,hotdog w must,turkey sandwich,0.1,5.07,4.970000000000001,turkey sandwich,899.2999999523163,900,899.5,True,i,97865.10000002384,1406.1999999284744,1669831969064,1407,HRV,HRV_0157,2022-11-30 18:16:02
65,"[{'imgObject': {}, 'id': 'cherry tomato', 'src': '/static/foodstim60/cherry tomato.jpg', 'key': 'u', 'origWidth': 410, 'origHeight': 410, 'width': 410, 'height': 410, 'widthPercent': 0.45, 'rescaleHeight': False, 'trialN': 65, 'loaded': True, 'loadedTime': 2467.9000000953674, 'positionName': 'LEFT', 'positionCoords': [327.28, 227], 'bid': 0.13}, {'imgObject': {}, 'id': 'seaweed', 'src': '/static/foodstim60/seaweed.jpg', 'key': 'i', 'origWidth': 410, 'origHeight': 410, 'width': 410, 'height': 410, 'widthPercent': 0.45, 'rescaleHeight': False, 'trialN': 65, 'loaded': True, 'loadedTime': 2493.5, 'positionName': 'RIGHT', 'positionCoords': [798.72, 227], 'bid': 0.13}]",97865.5,1669831969064,cherry tomato,seaweed,0.13,0.13,0.0,seaweed,1958.1000000238419,1958,1958.3000000715256,True,i,100338.20000004768,2472.7000000476837,1669831971537,2473,HRV,HRV_0157,2022-11-30 18:16:02
66,"[{'imgObject': {}, 'id': 'bagel and cc', 'src': '/static/foodstim60/bagel and cc.jpg', 'key': 'u', 'origWidth': 410, 'origHeight': 410, 'width': 410, 'height': 410, 'widthPercent': 0.45, 'rescaleHeight': False, 'trialN': 66, 'loaded': True, 'loadedTime': 2476.3000000715256, 'positionName': 'LEFT', 'positionCoords': [327.28, 227], 'bid': 4.94}, {'imgObject': {}, 'id': 'popsicles', 'src': '/static/foodstim60/popsicles.jpg', 'key': 'i', 'origWidth': 410, 'origHeight': 410, 'width': 410, 'height': 410, 'widthPercent': 0.45, 'rescaleHeight': False, 'trialN': 66, 'loaded': True, 'loadedTime': 2830.3000000715256, 'positionName': 'RIGHT', 'positionCoords': [798.72, 227], 'bid': 0.24}]",100338.40000009537,1669831971537,bagel and cc,popsicles,4.94,0.24,-4.7,bagel and cc,621.7999999523163,622,622.0,True,u,101468.90000009537,1130.5,1669831972668,1131,HRV,HRV_0157,2022-11-30 18:16:02
67,"[{'imgObject': {}, 'id': 'banana', 'src': '/static/foodstim60/banana.jpg', 'key': 'u', 'origWidth': 410, 'origHeight': 410, 'width': 410, 'height': 410, 'widthPercent': 0.45, 'rescaleHeight': False, 'trialN': 67, 'loaded': True, 'loadedTime': 2642.7000000476837, 'positionName': 'LEFT', 'positionCoords': [327.28, 227], 'bid': 9.63}, {'imgObject': {}, 'id': 'orange slices', 'src': '/static/foodstim60/orange slices.jpg', 'key': 'i', 'origWidth': 409, 'origHeight': 410, 'width': 409, 'height': 410, 'widthPercent': 0.45, 'rescaleHeight': False, 'trialN': 67, 'loaded': True, 'loadedTime': 2614.100000023842, 'positionName': 'RIGHT', 'positionCoords': [798.72, 227], 'bid': 9.3}]",101469.10000002384,1669831972668,banana,orange slices,9.63,9.3,-0.33000000000000007,orange slices,1877.0,1877,1877.5,True,i,103873.70000004768,2404.600000023842,1669831975072,2404,HRV,HRV_0157,2022-11-30 18:16:02
68,"[{'imgObject': {}, 'id': 'Tribe humus pita', 'src': '/static/foodstim60/Tribe humus pita.jpg', 'key': 'u', 'origWidth': 411, 'origHeight': 411, 'width': 411, 'height': 411, 'widthPercent': 0.45, 'rescaleHeight': False, 'trialN': 68, 'loaded': True, 'loadedTime': 2604.100000023842, 'positionName': 'LEFT', 'positionCoords': [326.28, 226.5], 'bid': 5.75}, {'imgObject': {}, 'id': 'cheerios', 'src': '/static/foodstim60/cheerios.jpg', 'key': 'i', 'origWidth': 409, 'origHeight': 410, 'width': 409, 'height': 410, 'widthPercent': 0.45, 'rescaleHeight': False, 'trialN': 68, 'loaded': True, 'loadedTime': 2498.100000023842, 'positionName': 'RIGHT', 'positionCoords': [798.72, 227], 'bid': 5.1000000000000005}]",103873.90000009537,1669831975073,Tribe humus pita,cheerios,5.75,5.1000000000000005,-0.6499999999999995,Tribe humus pita,747.0999999046326,747,747.3999999761581,True,u,105139.0,1265.0999999046326,1669831976338,1265,HRV,HRV_0157,2022-11-30 18:16:02
69,"[{'imgObject': {}, 'id': 'froot loops w milk', 'src': '/static/foodstim60/froot loops w milk.jpg', 'key': 'u', 'origWidth': 410, 'origHeight': 410, 'width': 410, 'height': 410, 'widthPercent': 0.45, 'rescaleHeight': False, 'trialN': 69, 'loaded': True, 'loadedTime': 2721.7000000476837, 'positionName': 'LEFT', 'positionCoords': [327.28, 227], 'bid': 4.89}, {'imgObject': {}, 'id': 'fruitsalad', 'src': '/static/foodstim60/fruitsalad.jpg', 'key': 'i', 'origWidth': 410, 'origHeight': 410, 'width': 410, 'height': 410, 'widthPercent': 0.45, 'rescaleHeight': False, 'trialN': 69, 'loaded': True, 'loadedTime': 2652.4000000953674, 'positionName': 'RIGHT', 'positionCoords': [798.72, 227], 'bid': 9.89}]",105139.40000009537,1669831976338,froot loops w milk,fruitsalad,4.89,9.89,5.000000000000001,fruitsalad,779.5,780,779.7999999523163,True,i,106425.30000007153,1285.8999999761581,1669831977624,1286,HRV,HRV_0157,2022-11-30 18:16:02
70,"[{'imgObject': {}, 'id': 'rigatoni', 'src': '/static/foodstim60/rigatoni.jpg', 'key': 'u', 'origWidth': 411, 'origHeight': 411, 'width': 411, 'height': 411, 'widthPercent': 0.45, 'rescaleHeight': False, 'trialN': 70, 'loaded': True, 'loadedTime': 2473.5, 'positionName': 'LEFT', 'positionCoords': [326.28, 226.5], 'bid': 0.16}, {'imgObject': {}, 'id': 'edamame', 'src': '/static/foodstim60/edamame.jpg', 'key': 'i', 'origWidth': 409, 'origHeight': 410, 'width': 409, 'height': 410, 'widthPercent': 0.45, 'rescaleHeight': False, 'trialN': 70, 'loaded': True, 'loadedTime': 2485.8000000715256, 'positionName': 'RIGHT', 'positionCoords': [798.72, 227], 'bid': 0.1}]",106425.70000004768,1669831977624,rigatoni,edamame,0.16,0.1,-0.06,rigatoni,942.7000000476837,943,943.1000000238419,True,u,107891.20000004768,1465.5,1669831979090,1466,HRV,HRV_0157,2022-11-30 18:16:02
71,"[{'imgObject': {}, 'id': 'fried eggs', 'src': '/static/foodstim60/fried eggs.jpg', 'key': 'u', 'origWidth': 410, 'origHeight': 410, 'width': 410, 'height': 410, 'widthPercent': 0.45, 'rescaleHeight': False, 'trialN': 71, 'loaded': True, 'loadedTime': 2758.3000000715256, 'positionName': 'LEFT', 'positionCoords': [327.28, 227], 'bid': 1.21}, {'imgObject': {}, 'id': 'orange slices', 'src': '/static/foodstim60/orange slices.jpg', 'key': 'i', 'origWidth': 409, 'origHeight': 410, 'width': 409, 'height': 410, 'widthPercent': 0.45, 'rescaleHeight': False, 'trialN': 71, 'loaded': True, 'loadedTime': 2627.8000000715256, 'positionName': 'RIGHT', 'positionCoords': [798.72, 227], 'bid': 9.3}]",107891.30000007153,1669831979090,fried eggs,orange slices,1.21,9.3,8.09,orange slices,749.1999999284744,749,749.5,True,i,109154.0,1262.6999999284744,1669831980353,1263,HRV,HRV_0157,2022-11-30 18:16:02
72,"[{'imgObject': {}, 'id': 'olives', 'src': '/static/foodstim60/olives.jpg', 'key': 'u', 'origWidth': 410, 'origHeight': 410, 'width': 410, 'height': 410, 'widthPercent': 0.45, 'rescaleHeight': False, 'trialN': 72, 'loaded': True, 'loadedTime': 2749, 'positionName': 'LEFT', 'positionCoords': [327.28, 227], 'bid': 0.24}, {'imgObject': {}, 'id': 'veggieswithdip', 'src': '/static/foodstim60/veggieswithdip.jpg', 'key': 'i', 'origWidth': 409, 'origHeight': 409, 'width': 409, 'height': 409, 'widthPercent': 0.45, 'rescaleHeight': False, 'trialN': 72, 'loaded': True, 'loadedTime': 2688.7000000476837, 'positionName': 'RIGHT', 'positionCoords': [798.72, 227.5], 'bid': 0.05}]",109154.40000009537,1669831980353,olives,veggieswithdip,0.24,0.05,-0.19,veggieswithdip,1163.6999999284744,1164,1164.2999999523163,True,i,110836.70000004768,1682.2999999523163,1669831982035,1682,HRV,HRV_0157,2022-11-30 18:16:02
73,"[{'imgObject': {}, 'id': 'eggs', 'src': '/static/foodstim60/eggs.jpg', 'key': 'u', 'origWidth': 409, 'origHeight': 409, 'width': 409, 'height': 409, 'widthPercent': 0.45, 'rescaleHeight': False, 'trialN': 73, 'loaded': True, 'loadedTime': 2492.8000000715256, 'positionName': 'LEFT', 'positionCoords': [328.28, 227.5], 'bid': 0.54}, {'imgObject': {}, 'id': 'mac & cheese', 'src': '/static/foodstim60/mac & cheese.jpg', 'key': 'i', 'origWidth': 410, 'origHeight': 410, 'width': 410, 'height': 410, 'widthPercent': 0.45, 'rescaleHeight': False, 'trialN': 73, 'loaded': True, 'loadedTime': 2487.9000000953674, 'positionName': 'RIGHT', 'positionCoords': [798.72, 227], 'bid': 1.27}]",110837.10000002384,1669831982036,eggs,mac & cheese,0.54,1.27,0.73,mac & cheese,1289.6000000238419,1290,1290.7000000476837,True,i,112640.30000007153,1803.2000000476837,1669831983839,1803,HRV,HRV_0157,2022-11-30 18:16:02
74,"[{'imgObject': {}, 'id': 'shreddedwheatwithmilk', 'src': '/static/foodstim60/shreddedwheatwithmilk.jpg', 'key': 'u', 'origWidth': 410, 'origHeight': 410, 'width': 410, 'height': 410, 'widthPercent': 0.45, 'rescaleHeight': False, 'trialN': 74, 'loaded': True, 'loadedTime': 2481.2000000476837, 'positionName': 'LEFT', 'positionCoords': [327.28, 227], 'bid': 5.07}, {'imgObject': {}, 'id': 'salad w chicken', 'src': '/static/foodstim60/salad w chicken.jpg', 'key': 'i', 'origWidth': 411, 'origHeight': 411, 'width': 411, 'height': 411, 'widthPercent': 0.45, 'rescaleHeight': False, 'trialN': 74, 'loaded': True, 'loadedTime': 2607.9000000953674, 'positionName': 'RIGHT', 'positionCoords': [798.72, 226.5], 'bid': 8.33}]",112640.70000004768,1669831983839,shreddedwheatwithmilk,salad w chicken,5.07,8.33,3.26,salad w chicken,995.8999999761581,997,996.3999999761581,True,i,114159.0,1518.2999999523163,1669831985358,1519,HRV,HRV_0157,2022-11-30 18:16:02
75,"[{'imgObject': {}, 'id': 'chickenfingers', 'src': '/static/foodstim60/chickenfingers.jpg', 'key': 'u', 'origWidth': 410, 'origHeight': 410, 'width': 410, 'height': 410, 'widthPercent': 0.45, 'rescaleHeight': False, 'trialN': 75, 'loaded': True, 'loadedTime': 2462, 'positionName': 'LEFT', 'positionCoords': [327.28, 227], 'bid': 8.17}, {'imgObject': {}, 'id': 'cantaloupe', 'src': '/static/foodstim60/cantaloupe.jpg', 'key': 'i', 'origWidth': 409, 'origHeight': 409, 'width': 409, 'height': 409, 'widthPercent': 0.45, 'rescaleHeight': False, 'trialN': 75, 'loaded': True, 'loadedTime': 2772.3000000715256, 'positionName': 'RIGHT', 'positionCoords': [798.72, 227.5], 'bid': 9.68}]",114159.40000009537,1669831985358,chickenfingers,cantaloupe,8.17,9.68,1.5099999999999998,chickenfingers,960.2999999523163,961,961.0999999046326,True,u,115629.5,1470.0999999046326,1669831986828,1470,HRV,HRV_0157,2022-11-30 18:16:02
76,"[{'imgObject': {}, 'id': 'sweetpotato', 'src': '/static/foodstim60/sweetpotato.jpg', 'key': 'u', 'origWidth': 410, 'origHeight': 410, 'width': 410, 'height': 410, 'widthPercent': 0.45, 'rescaleHeight': False, 'trialN': 76, 'loaded': True, 'loadedTime': 2496.3000000715256, 'positionName': 'LEFT', 'positionCoords': [327.28, 227], 'bid': 0.19}, {'imgObject': {}, 'id': 'sushi w_condiments', 'src': '/static/foodstim60/sushi w_condiments.jpg', 'key': 'i', 'origWidth': 410, 'origHeight': 410, 'width': 410, 'height': 410, 'widthPercent': 0.45, 'rescaleHeight': False, 'trialN': 76, 'loaded': True, 'loadedTime': 2763.600000023842, 'positionName': 'RIGHT', 'positionCoords': [798.72, 227], 'bid': 0.03}]",115629.70000004768,1669831986828,sweetpotato,sushi w_condiments,0.19,0.03,-0.16,sweetpotato,1178.2999999523163,1179,1178.8999999761581,True,u,117319.30000007153,1689.6000000238419,1669831988518,1690,HRV,HRV_0157,2022-11-30 18:16:02
77,"[{'imgObject': {}, 'id': 'omelette', 'src': '/static/foodstim60/omelette.jpg', 'key': 'u', 'origWidth': 410, 'origHeight': 409, 'width': 410, 'height': 409, 'widthPercent': 0.45, 'rescaleHeight': False, 'trialN': 77, 'loaded': True, 'loadedTime': 2749.5, 'positionName': 'LEFT', 'positionCoords': [327.28, 227.5], 'bid': 0.71}, {'imgObject': {}, 'id': 'apple slices', 'src': '/static/foodstim60/apple slices.jpg', 'key': 'i', 'origWidth': 409, 'origHeight': 410, 'width': 409, 'height': 410, 'widthPercent': 0.45, 'rescaleHeight': False, 'trialN': 77, 'loaded': True, 'loadedTime': 2806.4000000953674, 'positionName': 'RIGHT', 'positionCoords': [798.72, 227], 'bid': 8.39}]",117319.60000002384,1669831988518,omelette,apple slices,0.71,8.39,7.680000000000001,apple slices,923.1000000238419,924,923.7000000476837,True,i,118758.30000007153,1438.7000000476837,1669831989957,1439,HRV,HRV_0157,2022-11-30 18:16:02
78,"[{'imgObject': {}, 'id': 'tacos', 'src': '/static/foodstim60/tacos.jpg', 'key': 'u', 'origWidth': 411, 'origHeight': 411, 'width': 411, 'height': 411, 'widthPercent': 0.45, 'rescaleHeight': False, 'trialN': 78, 'loaded': True, 'loadedTime': 2819.3000000715256, 'positionName': 'LEFT', 'positionCoords': [326.28, 226.5], 'bid': 8.24}, {'imgObject': {}, 'id': 'chicken nuggets2', 'src': '/static/foodstim60/chicken nuggets2.jpg', 'key': 'i', 'origWidth': 410, 'origHeight': 409, 'width': 410, 'height': 409, 'widthPercent': 0.45, 'rescaleHeight': False, 'trialN': 78, 'loaded': True, 'loadedTime': 2811.100000023842, 'positionName': 'RIGHT', 'positionCoords': [798.72, 227.5], 'bid': 8.25}]",118758.70000004768,1669831989957,tacos,chicken nuggets2,8.24,8.25,0.009999999999999787,chicken nuggets2,1212.7000000476837,1213,1213.0,True,i,120476.40000009537,1717.7000000476837,1669831991675,1718,HRV,HRV_0157,2022-11-30 18:16:02
79,"[{'imgObject': {}, 'id': 'ice cream sundae 002', 'src': '/static/foodstim60/ice cream sundae 002.jpg', 'key': 'u', 'origWidth': 409, 'origHeight': 409, 'width': 409, 'height': 409, 'widthPercent': 0.45, 'rescaleHeight': False, 'trialN': 79, 'loaded': True, 'loadedTime': 2610.2000000476837, 'positionName': 'LEFT', 'positionCoords': [328.28, 227.5], 'bid': 9.86}, {'imgObject': {}, 'id': 'blueberries', 'src': '/static/foodstim60/blueberries.jpg', 'key': 'i', 'origWidth': 411, 'origHeight': 411, 'width': 411, 'height': 411, 'widthPercent': 0.45, 'rescaleHeight': False, 'trialN': 79, 'loaded': True, 'loadedTime': 2562.9000000953674, 'positionName': 'RIGHT', 'positionCoords': [798.72, 226.5], 'bid': 7.81}]",120476.70000004768,1669831991675,ice cream sundae 002,blueberries,9.86,7.81,-2.05,ice cream sundae 002,726.7000000476837,728,727.2000000476837,True,u,121723.80000007153,1247.1000000238419,1669831992922,1247,HRV,HRV_0157,2022-11-30 18:16:02
80,"[{'imgObject': {}, 'id': 'cantaloupe', 'src': '/static/foodstim60/cantaloupe.jpg', 'key': 'u', 'origWidth': 409, 'origHeight': 409, 'width': 409, 'height': 409, 'widthPercent': 0.45, 'rescaleHeight': False, 'trialN': 80, 'loaded': True, 'loadedTime': 2770.2000000476837, 'positionName': 'LEFT', 'positionCoords': [328.28, 227.5], 'bid': 9.68}, {'imgObject': {}, 'id': 'mango', 'src': '/static/foodstim60/mango.jpg', 'key': 'i', 'origWidth': 411, 'origHeight': 411, 'width': 411, 'height': 411, 'widthPercent': 0.45, 'rescaleHeight': False, 'trialN': 80, 'loaded': True, 'loadedTime': 2819.9000000953674, 'positionName': 'RIGHT', 'positionCoords': [798.72, 226.5], 'bid': 6.25}]",121724.30000007153,1669831992923,cantaloupe,mango,9.68,6.25,-3.4299999999999997,cantaloupe,818.6999999284744,819,819.1999999284744,True,u,123060.5,1336.1999999284744,1669831994259,1336,HRV,HRV_0157,2022-11-30 18:16:02
81,"[{'imgObject': {}, 'id': 'blackbeanswithrice', 'src': '/static/foodstim60/blackbeanswithrice.jpg', 'key': 'u', 'origWidth': 410, 'origHeight': 410, 'width': 410, 'height': 410, 'widthPercent': 0.45, 'rescaleHeight': False, 'trialN': 81, 'loaded': True, 'loadedTime': 2598.4000000953674, 'positionName': 'LEFT', 'positionCoords': [327.28, 227], 'bid': 0.41}, {'imgObject': {}, 'id': 'raspberries', 'src': '/static/foodstim60/raspberries.jpg', 'key': 'i', 'origWidth': 411, 'origHeight': 411, 'width': 411, 'height': 411, 'widthPercent': 0.45, 'rescaleHeight': False, 'trialN': 81, 'loaded': True, 'loadedTime': 2773.8000000715256, 'positionName': 'RIGHT', 'positionCoords': [798.72, 226.5], 'bid': 8.24}]",123060.80000007153,1669831994259,blackbeanswithrice,raspberries,0.41,8.24,7.83,raspberries,1001.5,1002,1001.6999999284744,True,i,124567.90000009537,1507.1000000238419,1669831995767,1508,HRV,HRV_0157,2022-11-30 18:16:02
82,"[{'imgObject': {}, 'id': 'shreddedwheatwithmilk', 'src': '/static/foodstim60/shreddedwheatwithmilk.jpg', 'key': 'u', 'origWidth': 410, 'origHeight': 410, 'width': 410, 'height': 410, 'widthPercent': 0.45, 'rescaleHeight': False, 'trialN': 82, 'loaded': True, 'loadedTime': 2481.9000000953674, 'positionName': 'LEFT', 'positionCoords': [327.28, 227], 'bid': 5.07}, {'imgObject': {}, 'id': 'corn cob', 'src': '/static/foodstim60/corn cob.jpg', 'key': 'i', 'origWidth': 411, 'origHeight': 411, 'width': 411, 'height': 411, 'widthPercent': 0.45, 'rescaleHeight': False, 'trialN': 82, 'loaded': True, 'loadedTime': 2768.100000023842, 'positionName': 'RIGHT', 'positionCoords': [798.72, 226.5], 'bid': 1.6}]",124568.20000004768,1669831995767,shreddedwheatwithmilk,corn cob,5.07,1.6,-3.47,shreddedwheatwithmilk,941.3999999761581,942,941.8999999761581,True,u,126022.0,1453.7999999523163,1669831997221,1454,HRV,HRV_0157,2022-11-30 18:16:02
83,"[{'imgObject': {}, 'id': 'eggsalad', 'src': '/static/foodstim60/eggsalad.jpg', 'key': 'u', 'origWidth': 410, 'origHeight': 409, 'width': 410, 'height': 409, 'widthPercent': 0.45, 'rescaleHeight': False, 'trialN': 83, 'loaded': True, 'loadedTime': 2424.3000000715256, 'positionName': 'LEFT', 'positionCoords': [327.28, 227.5], 'bid': 0.36}, {'imgObject': {}, 'id': 'edamame', 'src': '/static/foodstim60/edamame.jpg', 'key': 'i', 'origWidth': 409, 'origHeight': 410, 'width': 409, 'height': 410, 'widthPercent': 0.45, 'rescaleHeight': False, 'trialN': 83, 'loaded': True, 'loadedTime': 2485.7000000476837, 'positionName': 'RIGHT', 'positionCoords': [798.72, 227], 'bid': 0.1}]",126022.30000007153,1669831997221,eggsalad,edamame,0.36,0.1,-0.26,eggsalad,2122.100000023842,2122,2122.399999976158,True,u,128673.40000009537,2651.100000023842,1669831999872,2651,HRV,HRV_0157,2022-11-30 18:16:02
84,"[{'imgObject': {}, 'id': 'cherry tomato', 'src': '/static/foodstim60/cherry tomato.jpg', 'key': 'u', 'origWidth': 410, 'origHeight': 410, 'width': 410, 'height': 410, 'widthPercent': 0.45, 'rescaleHeight': False, 'trialN': 84, 'loaded': True, 'loadedTime': 2465.100000023842, 'positionName': 'LEFT', 'positionCoords': [327.28, 227], 'bid': 0.13}, {'imgObject': {}, 'id': 'Tribe humus pita', 'src': '/static/foodstim60/Tribe humus pita.jpg', 'key': 'i', 'origWidth': 411, 'origHeight': 411, 'width': 411, 'height': 411, 'widthPercent': 0.45, 'rescaleHeight': False, 'trialN': 84, 'loaded': True, 'loadedTime': 2601.4000000953674, 'positionName': 'RIGHT', 'positionCoords': [798.72, 226.5], 'bid': 5.75}]",128673.80000007153,1669831999872,cherry tomato,Tribe humus pita,0.13,5.75,5.62,Tribe humus pita,790.8999999761581,792,791.1000000238419,True,i,129974.40000009537,1300.6000000238419,1669832001173,1301,HRV,HRV_0157,2022-11-30 18:16:02
85,"[{'imgObject': {}, 'id': 'fruitsalad', 'src': '/static/foodstim60/fruitsalad.jpg', 'key': 'u', 'origWidth': 410, 'origHeight': 410, 'width': 410, 'height': 410, 'widthPercent': 0.45, 'rescaleHeight': False, 'trialN': 85, 'loaded': True, 'loadedTime': 2650.9000000953674, 'positionName': 'LEFT', 'positionCoords': [327.28, 227], 'bid': 9.89}, {'imgObject': {}, 'id': 'tacos', 'src': '/static/foodstim60/tacos.jpg', 'key': 'i', 'origWidth': 411, 'origHeight': 411, 'width': 411, 'height': 411, 'widthPercent': 0.45, 'rescaleHeight': False, 'trialN': 85, 'loaded': True, 'loadedTime': 2818.100000023842, 'positionName': 'RIGHT', 'positionCoords': [798.72, 226.5], 'bid': 8.24}]",129974.70000004768,1669832001173,fruitsalad,tacos,9.89,8.24,-1.6500000000000004,fruitsalad,1762.7999999523163,1764,1763.2999999523163,True,u,132257.70000004768,2283.0,1669832003456,2283,HRV,HRV_0157,2022-11-30 18:16:02
86,"[{'imgObject': {}, 'id': 'cherries', 'src': '/static/foodstim60/cherries.jpg', 'key': 'u', 'origWidth': 410, 'origHeight': 411, 'width': 410, 'height': 411, 'widthPercent': 0.45, 'rescaleHeight': False, 'trialN': 86, 'loaded': True, 'loadedTime': 2637.2000000476837, 'positionName': 'LEFT', 'positionCoords': [327.28, 226.5], 'bid': 10}, {'imgObject': {}, 'id': 'steak', 'src': '/static/foodstim60/steak.jpg', 'key': 'i', 'origWidth': 410, 'origHeight': 410, 'width': 410, 'height': 410, 'widthPercent': 0.45, 'rescaleHeight': False, 'trialN': 86, 'loaded': True, 'loadedTime': 2684, 'positionName': 'RIGHT', 'positionCoords': [798.72, 227], 'bid': 9.93}]",132257.80000007153,1669832003456,cherries,steak,10.0,9.93,-0.07000000000000028,steak,750.0,751,750.2999999523163,True,i,133524.90000009537,1267.1000000238419,1669832004724,1268,HRV,HRV_0157,2022-11-30 18:16:02
87,"[{'imgObject': {}, 'id': 'seaweed', 'src': '/static/foodstim60/seaweed.jpg', 'key': 'u', 'origWidth': 410, 'origHeight': 410, 'width': 410, 'height': 410, 'widthPercent': 0.45, 'rescaleHeight': False, 'trialN': 87, 'loaded': True, 'loadedTime': 2495.100000023842, 'positionName': 'LEFT', 'positionCoords': [327.28, 227], 'bid': 0.13}, {'imgObject': {}, 'id': 'mango', 'src': '/static/foodstim60/mango.jpg', 'key': 'i', 'origWidth': 411, 'origHeight': 411, 'width': 411, 'height': 411, 'widthPercent': 0.45, 'rescaleHeight': False, 'trialN': 87, 'loaded': True, 'loadedTime': 2822.600000023842, 'positionName': 'RIGHT', 'positionCoords': [798.72, 226.5], 'bid': 6.25}]",133525.30000007153,1669832004724,seaweed,mango,0.13,6.25,6.12,mango,738.0,738,738.1999999284744,True,i,134774.90000009537,1249.6000000238419,1669832005974,1250,HRV,HRV_0157,2022-11-30 18:16:02
88,"[{'imgObject': {}, 'id': 'blueberries', 'src': '/static/foodstim60/blueberries.jpg', 'key': 'u', 'origWidth': 411, 'origHeight': 411, 'width': 411, 'height': 411, 'widthPercent': 0.45, 'rescaleHeight': False, 'trialN': 88, 'loaded': True, 'loadedTime': 2555.100000023842, 'positionName': 'LEFT', 'positionCoords': [326.28, 226.5], 'bid': 7.81}, {'imgObject': {}, 'id': 'tacos', 'src': '/static/foodstim60/tacos.jpg', 'key': 'i', 'origWidth': 411, 'origHeight': 411, 'width': 411, 'height': 411, 'widthPercent': 0.45, 'rescaleHeight': False, 'trialN': 88, 'loaded': True, 'loadedTime': 2819.7000000476837, 'positionName': 'RIGHT', 'positionCoords': [798.72, 226.5], 'bid': 8.24}]",134775.20000004768,1669832005974,blueberries,tacos,7.81,8.24,0.4300000000000006,tacos,1129.6000000238419,1130,1130.3999999761581,True,i,136416.60000002384,1641.3999999761581,1669832007615,1641,HRV,HRV_0157,2022-11-30 18:16:02
89,"[{'imgObject': {}, 'id': 'corn cob', 'src': '/static/foodstim60/corn cob.jpg', 'key': 'u', 'origWidth': 411, 'origHeight': 411, 'width': 411, 'height': 411, 'widthPercent': 0.45, 'rescaleHeight': False, 'trialN': 89, 'loaded': True, 'loadedTime': 2765, 'positionName': 'LEFT', 'positionCoords': [326.28, 226.5], 'bid': 1.6}, {'imgObject': {}, 'id': 'hashbrowns', 'src': '/static/foodstim60/hashbrowns.jpg', 'key': 'i', 'origWidth': 411, 'origHeight': 410, 'width': 411, 'height': 410, 'widthPercent': 0.45, 'rescaleHeight': False, 'trialN': 89, 'loaded': True, 'loadedTime': 2728.9000000953674, 'positionName': 'RIGHT', 'positionCoords': [798.72, 227], 'bid': 4.84}]",136416.90000009537,1669832007615,corn cob,hashbrowns,1.6,4.84,3.2399999999999998,hashbrowns,1584.2999999523163,1585,1584.5999999046326,True,i,138513.60000002384,2096.6999999284744,1669832009712,2097,HRV,HRV_0157,2022-11-30 18:16:02
90,"[{'imgObject': {}, 'id': 'popsicles', 'src': '/static/foodstim60/popsicles.jpg', 'key': 'u', 'origWidth': 410, 'origHeight': 410, 'width': 410, 'height': 410, 'widthPercent': 0.45, 'rescaleHeight': False, 'trialN': 90, 'loaded': True, 'loadedTime': 2829, 'positionName': 'LEFT', 'positionCoords': [327.28, 227], 'bid': 0.24}, {'imgObject': {}, 'id': 'burger', 'src': '/static/foodstim60/burger.jpg', 'key': 'i', 'origWidth': 409, 'origHeight': 409, 'width': 409, 'height': 409, 'widthPercent': 0.45, 'rescaleHeight': False, 'trialN': 90, 'loaded': True, 'loadedTime': 2727.2000000476837, 'positionName': 'RIGHT', 'positionCoords': [798.72, 227.5], 'bid': 7.98}]",141402.10000002384,1669832012601,popsicles,burger,0.24,7.98,7.74,burger,1210.1000000238419,1210,1210.6000000238419,True,i,143118.5,1716.3999999761581,1669832014317,1716,HRV,HRV_0157,2022-11-30 18:16:02
91,"[{'imgObject': {}, 'id': 'froot loops w milk', 'src': '/static/foodstim60/froot loops w milk.jpg', 'key': 'u', 'origWidth': 410, 'origHeight': 410, 'width': 410, 'height': 410, 'widthPercent': 0.45, 'rescaleHeight': False, 'trialN': 91, 'loaded': True, 'loadedTime': 2719.7000000476837, 'positionName': 'LEFT', 'positionCoords': [327.28, 227], 'bid': 4.89}, {'imgObject': {}, 'id': 'cheerios', 'src': '/static/foodstim60/cheerios.jpg', 'key': 'i', 'origWidth': 409, 'origHeight': 410, 'width': 409, 'height': 410, 'widthPercent': 0.45, 'rescaleHeight': False, 'trialN': 91, 'loaded': True, 'loadedTime': 2497.9000000953674, 'positionName': 'RIGHT', 'positionCoords': [798.72, 227], 'bid': 5.1000000000000005}]",143118.60000002384,1669832014317,froot loops w milk,cheerios,4.89,5.1000000000000005,0.21000000000000085,froot loops w milk,1087.7000000476837,1089,1088.3999999761581,True,u,144719.0,1600.3999999761581,1669832015918,1601,HRV,HRV_0157,2022-11-30 18:16:02
92,"[{'imgObject': {}, 'id': 'raisin bran w milk', 'src': '/static/foodstim60/raisin bran w milk.jpg', 'key': 'u', 'origWidth': 411, 'origHeight': 411, 'width': 411, 'height': 411, 'widthPercent': 0.45, 'rescaleHeight': False, 'trialN': 92, 'loaded': True, 'loadedTime': 2719.5, 'positionName': 'LEFT', 'positionCoords': [326.28, 226.5], 'bid': 5.0200000000000005}, {'imgObject': {}, 'id': 'strawberries', 'src': '/static/foodstim60/strawberries.jpg', 'key': 'i', 'origWidth': 410, 'origHeight': 410, 'width': 410, 'height': 410, 'widthPercent': 0.45, 'rescaleHeight': False, 'trialN': 92, 'loaded': True, 'loadedTime': 2589.7000000476837, 'positionName': 'RIGHT', 'positionCoords': [798.72, 227], 'bid': 8.28}]",144719.20000004768,1669832015918,raisin bran w milk,strawberries,5.0200000000000005,8.28,3.259999999999999,strawberries,877.0,877,877.7000000476837,True,i,146107.20000004768,1388.0,1669832017306,1388,HRV,HRV_0157,2022-11-30 18:16:02
93,"[{'imgObject': {}, 'id': 'olives', 'src': '/static/foodstim60/olives.jpg', 'key': 'u', 'origWidth': 410, 'origHeight': 410, 'width': 410, 'height': 410, 'widthPercent': 0.45, 'rescaleHeight': False, 'trialN': 93, 'loaded': True, 'loadedTime': 2749.4000000953674, 'positionName': 'LEFT', 'positionCoords': [327.28, 227], 'bid': 0.24}, {'imgObject': {}, 'id': 'baked potato', 'src': '/static/foodstim60/baked potato.jpg', 'key': 'i', 'origWidth': 409, 'origHeight': 410, 'width': 409, 'height': 410, 'widthPercent': 0.45, 'rescaleHeight': False, 'trialN': 93, 'loaded': True, 'loadedTime': 2567.8000000715256, 'positionName': 'RIGHT', 'positionCoords': [798.72, 227], 'bid': 0.61}]",146107.70000004768,1669832017306,olives,baked potato,0.24,0.61,0.37,baked potato,749.7000000476837,751,750.3999999761581,True,i,147367.10000002384,1259.3999999761581,1669832018566,1260,HRV,HRV_0157,2022-11-30 18:16:02
94,"[{'imgObject': {}, 'id': 'bagel plain', 'src': '/static/foodstim60/bagel plain.jpg', 'key': 'u', 'origWidth': 410, 'origHeight': 410, 'width': 410, 'height': 410, 'widthPercent': 0.45, 'rescaleHeight': False, 'trialN': 94, 'loaded': True, 'loadedTime': 2804.3000000715256, 'positionName': 'LEFT', 'positionCoords': [327.28, 227], 'bid': 4.98}, {'imgObject': {}, 'id': 'omelette', 'src': '/static/foodstim60/omelette.jpg', 'key': 'i', 'origWidth': 410, 'origHeight': 409, 'width': 410, 'height': 409, 'widthPercent': 0.45, 'rescaleHeight': False, 'trialN': 94, 'loaded': True, 'loadedTime': 2751.100000023842, 'positionName': 'RIGHT', 'positionCoords': [798.72, 227.5], 'bid': 0.71}]",147367.5,1669832018566,bagel plain,omelette,4.98,0.71,-4.2700000000000005,bagel plain,878.7000000476837,879,879.3000000715256,True,u,148762.30000007153,1394.8000000715256,1669832019961,1395,HRV,HRV_0157,2022-11-30 18:16:02
95,"[{'imgObject': {}, 'id': 'cocktailshrimp', 'src': '/static/foodstim60/cocktailshrimp.jpg', 'key': 'u', 'origWidth': 410, 'origHeight': 410, 'width': 410, 'height': 410, 'widthPercent': 0.45, 'rescaleHeight': False, 'trialN': 95, 'loaded': True, 'loadedTime': 2491.5, 'positionName': 'LEFT', 'positionCoords': [327.28, 227], 'bid': 0.01}, {'imgObject': {}, 'id': 'salmon', 'src': '/static/foodstim60/salmon.jpg', 'key': 'i', 'origWidth': 410, 'origHeight': 409, 'width': 410, 'height': 409, 'widthPercent': 0.45, 'rescaleHeight': False, 'trialN': 95, 'loaded': True, 'loadedTime': 2808.600000023842, 'positionName': 'RIGHT', 'positionCoords': [798.72, 227.5], 'bid': 0.1}]",148762.5,1669832019961,cocktailshrimp,salmon,0.01,0.1,0.09000000000000001,salmon,645.8000000715256,647,646.6000000238419,True,i,149925.5,1163.0,1669832021124,1163,HRV,HRV_0157,2022-11-30 18:16:02
96,"[{'imgObject': {}, 'id': 'mashed potato', 'src': '/static/foodstim60/mashed potato.jpg', 'key': 'u', 'origWidth': 409, 'origHeight': 409, 'width': 409, 'height': 409, 'widthPercent': 0.45, 'rescaleHeight': False, 'trialN': 96, 'loaded': True, 'loadedTime': 2564.9000000953674, 'positionName': 'LEFT', 'positionCoords': [328.28, 227.5], 'bid': 5.11}, {'imgObject': {}, 'id': 'yogurt no spoon', 'src': '/static/foodstim60/yogurt no spoon.jpg', 'key': 'i', 'origWidth': 411, 'origHeight': 410, 'width': 411, 'height': 410, 'widthPercent': 0.45, 'rescaleHeight': False, 'trialN': 96, 'loaded': True, 'loadedTime': 2716.3000000715256, 'positionName': 'RIGHT', 'positionCoords': [798.72, 227], 'bid': 4.9}]",149925.90000009537,1669832021124,mashed potato,yogurt no spoon,5.11,4.9,-0.20999999999999996,yogurt no spoon,992.1999999284744,993,992.8999999761581,True,i,151436.80000007153,1510.8999999761581,1669832022635,1511,HRV,HRV_0157,2022-11-30 18:16:02
97,"[{'imgObject': {}, 'id': 'veggieswithdip', 'src': '/static/foodstim60/veggieswithdip.jpg', 'key': 'u', 'origWidth': 409, 'origHeight': 409, 'width': 409, 'height': 409, 'widthPercent': 0.45, 'rescaleHeight': False, 'trialN': 97, 'loaded': True, 'loadedTime': 2703, 'positionName': 'LEFT', 'positionCoords': [328.28, 227.5], 'bid': 0.05}, {'imgObject': {}, 'id': 'cocktailshrimp', 'src': '/static/foodstim60/cocktailshrimp.jpg', 'key': 'i', 'origWidth': 410, 'origHeight': 410, 'width': 410, 'height': 410, 'widthPercent': 0.45, 'rescaleHeight': False, 'trialN': 97, 'loaded': True, 'loadedTime': 2490.100000023842, 'positionName': 'RIGHT', 'positionCoords': [798.72, 227], 'bid': 0.01}]",151437.30000007153,1669832022636,veggieswithdip,cocktailshrimp,0.05,0.01,-0.04,veggieswithdip,1277.5,1278,1277.6999999284744,True,u,153235.0,1797.6999999284744,1669832024434,1798,HRV,HRV_0157,2022-11-30 18:16:02
98,"[{'imgObject': {}, 'id': 'roastedpotatoes', 'src': '/static/foodstim60/roastedpotatoes.jpg', 'key': 'u', 'origWidth': 409, 'origHeight': 410, 'width': 409, 'height': 410, 'widthPercent': 0.45, 'rescaleHeight': False, 'trialN': 98, 'loaded': True, 'loadedTime': 2826.8000000715256, 'positionName': 'LEFT', 'positionCoords': [328.28, 227], 'bid': 0.46}, {'imgObject': {}, 'id': 'eggs', 'src': '/static/foodstim60/eggs.jpg', 'key': 'i', 'origWidth': 409, 'origHeight': 409, 'width': 409, 'height': 409, 'widthPercent': 0.45, 'rescaleHeight': False, 'trialN': 98, 'loaded': True, 'loadedTime': 2493.2000000476837, 'positionName': 'RIGHT', 'positionCoords': [798.72, 227.5], 'bid': 0.54}]",153235.20000004768,1669832024434,roastedpotatoes,eggs,0.46,0.54,0.08000000000000002,roastedpotatoes,1255.3999999761581,1256,1256.0,True,u,155001.5,1766.2999999523163,1669832026200,1766,HRV,HRV_0157,2022-11-30 18:16:02
99,"[{'imgObject': {}, 'id': 'mango', 'src': '/static/foodstim60/mango.jpg', 'key': 'u', 'origWidth': 411, 'origHeight': 411, 'width': 411, 'height': 411, 'widthPercent': 0.45, 'rescaleHeight': False, 'trialN': 99, 'loaded': True, 'loadedTime': 2823.4000000953674, 'positionName': 'LEFT', 'positionCoords': [326.28, 226.5], 'bid': 6.25}, {'imgObject': {}, 'id': 'Tribe humus pita', 'src': '/static/foodstim60/Tribe humus pita.jpg', 'key': 'i', 'origWidth': 411, 'origHeight': 411, 'width': 411, 'height': 411, 'widthPercent': 0.45, 'rescaleHeight': False, 'trialN': 99, 'loaded': True, 'loadedTime': 2602.9000000953674, 'positionName': 'RIGHT', 'positionCoords': [798.72, 226.5], 'bid': 5.75}]",155002.0,1669832026201,mango,Tribe humus pita,6.25,5.75,-0.5,mango,858.1000000238419,858,858.6000000238419,True,u,156366.70000004768,1364.7000000476837,1669832027565,1364,HRV,HRV_0157,2022-11-30 18:16:02
100,"[{'imgObject': {}, 'id': 'corn cob', 'src': '/static/foodstim60/corn cob.jpg', 'key': 'u', 'origWidth': 411, 'origHeight': 411, 'width': 411, 'height': 411, 'widthPercent': 0.45, 'rescaleHeight': False, 'trialN': 100, 'loaded': True, 'loadedTime': 2768.3000000715256, 'positionName': 'LEFT', 'positionCoords': [326.28, 226.5], 'bid': 1.6}, {'imgObject': {}, 'id': 'seaweed', 'src': '/static/foodstim60/seaweed.jpg', 'key': 'i', 'origWidth': 410, 'origHeight': 410, 'width': 410, 'height': 410, 'widthPercent': 0.45, 'rescaleHeight': False, 'trialN': 100, 'loaded': True, 'loadedTime': 2494.7000000476837, 'positionName': 'RIGHT', 'positionCoords': [798.72, 227], 'bid': 0.13}]",156366.80000007153,1669832027565,corn cob,seaweed,1.6,0.13,-1.4700000000000002,corn cob,946.7999999523163,948,947.5,True,u,157821.40000009537,1454.6000000238419,1669832029020,1455,HRV,HRV_0157,2022-11-30 18:16:02
101,"[{'imgObject': {}, 'id': 'Grapes', 'src': '/static/foodstim60/Grapes.jpg', 'key': 'u', 'origWidth': 411, 'origHeight': 411, 'width': 411, 'height': 411, 'widthPercent': 0.45, 'rescaleHeight': False, 'trialN': 101, 'loaded': True, 'loadedTime': 2552.7000000476837, 'positionName': 'LEFT', 'positionCoords': [326.28, 226.5], 'bid': 7.96}, {'imgObject': {}, 'id': 'burger', 'src': '/static/foodstim60/burger.jpg', 'key': 'i', 'origWidth': 409, 'origHeight': 409, 'width': 409, 'height': 409, 'widthPercent': 0.45, 'rescaleHeight': False, 'trialN': 101, 'loaded': True, 'loadedTime': 2727.7000000476837, 'positionName': 'RIGHT', 'positionCoords': [798.72, 227.5], 'bid': 7.98}]",157821.80000007153,1669832029020,Grapes,burger,7.96,7.98,0.020000000000000462,burger,763.5,765,764.2999999523163,True,i,159100.5,1278.6999999284744,1669832030299,1279,HRV,HRV_0157,2022-11-30 18:16:02
102,"[{'imgObject': {}, 'id': 'baked potato', 'src': '/static/foodstim60/baked potato.jpg', 'key': 'u', 'origWidth': 409, 'origHeight': 410, 'width': 409, 'height': 410, 'widthPercent': 0.45, 'rescaleHeight': False, 'trialN': 102, 'loaded': True, 'loadedTime': 2572.8000000715256, 'positionName': 'LEFT', 'positionCoords': [328.28, 227], 'bid': 0.61}, {'imgObject': {}, 'id': 'roastedpotatoes', 'src': '/static/foodstim60/roastedpotatoes.jpg', 'key': 'i', 'origWidth': 409, 'origHeight': 410, 'width': 409, 'height': 410, 'widthPercent': 0.45, 'rescaleHeight': False, 'trialN': 102, 'loaded': True, 'loadedTime': 2827.2000000476837, 'positionName': 'RIGHT', 'positionCoords': [798.72, 227], 'bid': 0.46}]",159100.90000009537,1669832030299,baked potato,roastedpotatoes,0.61,0.46,-0.14999999999999997,roastedpotatoes,1273.0999999046326,1274,1273.3999999761581,True,i,160883.80000007153,1782.8999999761581,1669832032082,1783,HRV,HRV_0157,2022-11-30 18:16:02
103,"[{'imgObject': {}, 'id': 'salmon', 'src': '/static/foodstim60/salmon.jpg', 'key': 'u', 'origWidth': 410, 'origHeight': 409, 'width': 410, 'height': 409, 'widthPercent': 0.45, 'rescaleHeight': False, 'trialN': 103, 'loaded': True, 'loadedTime': 2808.4000000953674, 'positionName': 'LEFT', 'positionCoords': [327.28, 227.5], 'bid': 0.1}, {'imgObject': {}, 'id': 'roastedpotatoes', 'src': '/static/foodstim60/roastedpotatoes.jpg', 'key': 'i', 'origWidth': 409, 'origHeight': 410, 'width': 409, 'height': 410, 'widthPercent': 0.45, 'rescaleHeight': False, 'trialN': 103, 'loaded': True, 'loadedTime': 2823.8000000715256, 'positionName': 'RIGHT', 'positionCoords': [798.72, 227], 'bid': 0.46}]",160884.10000002384,1669832032083,salmon,roastedpotatoes,0.1,0.46,0.36,roastedpotatoes,870.7000000476837,871,871.6000000238419,True,i,162267.30000007153,1383.2000000476837,1669832033466,1383,HRV,HRV_0157,2022-11-30 18:16:02
104,"[{'imgObject': {}, 'id': 'omelette', 'src': '/static/foodstim60/omelette.jpg', 'key': 'u', 'origWidth': 410, 'origHeight': 409, 'width': 410, 'height': 409, 'widthPercent': 0.45, 'rescaleHeight': False, 'trialN': 104, 'loaded': True, 'loadedTime': 2750.8000000715256, 'positionName': 'LEFT', 'positionCoords': [327.28, 227.5], 'bid': 0.71}, {'imgObject': {}, 'id': 'eggsalad', 'src': '/static/foodstim60/eggsalad.jpg', 'key': 'i', 'origWidth': 410, 'origHeight': 409, 'width': 410, 'height': 409, 'widthPercent': 0.45, 'rescaleHeight': False, 'trialN': 104, 'loaded': True, 'loadedTime': 2424, 'positionName': 'RIGHT', 'positionCoords': [798.72, 227.5], 'bid': 0.36}]",162267.70000004768,1669832033466,omelette,eggsalad,0.71,0.36,-0.35,omelette,851.1000000238419,852,851.5,True,u,163625.70000004768,1358.0,1669832034824,1358,HRV,HRV_0157,2022-11-30 18:16:02
105,"[{'imgObject': {}, 'id': 'bagel plain', 'src': '/static/foodstim60/bagel plain.jpg', 'key': 'u', 'origWidth': 410, 'origHeight': 410, 'width': 410, 'height': 410, 'widthPercent': 0.45, 'rescaleHeight': False, 'trialN': 105, 'loaded': True, 'loadedTime': 2804.4000000953674, 'positionName': 'LEFT', 'positionCoords': [327.28, 227], 'bid': 4.98}, {'imgObject': {}, 'id': 'corn cob', 'src': '/static/foodstim60/corn cob.jpg', 'key': 'i', 'origWidth': 411, 'origHeight': 411, 'width': 411, 'height': 411, 'widthPercent': 0.45, 'rescaleHeight': False, 'trialN': 105, 'loaded': True, 'loadedTime': 2766.4000000953674, 'positionName': 'RIGHT', 'positionCoords': [798.72, 226.5], 'bid': 1.6}]",163626.0,1669832034825,bagel plain,corn cob,4.98,1.6,-3.3800000000000003,bagel plain,989.2000000476837,989,989.8000000715256,True,u,165120.90000009537,1494.9000000953674,1669832036319,1494,HRV,HRV_0157,2022-11-30 18:16:02
106,"[{'imgObject': {}, 'id': 'raisin bran w milk', 'src': '/static/foodstim60/raisin bran w milk.jpg', 'key': 'u', 'origWidth': 411, 'origHeight': 411, 'width': 411, 'height': 411, 'widthPercent': 0.45, 'rescaleHeight': False, 'trialN': 106, 'loaded': True, 'loadedTime': 2717.600000023842, 'positionName': 'LEFT', 'positionCoords': [326.28, 226.5], 'bid': 5.0200000000000005}, {'imgObject': {}, 'id': 'turkey sandwich', 'src': '/static/foodstim60/turkey sandwich.jpg', 'key': 'i', 'origWidth': 409, 'origHeight': 409, 'width': 409, 'height': 409, 'widthPercent': 0.45, 'rescaleHeight': False, 'trialN': 106, 'loaded': True, 'loadedTime': 2686.8000000715256, 'positionName': 'RIGHT', 'positionCoords': [798.72, 227.5], 'bid': 5.07}]",165121.20000004768,1669832036320,raisin bran w milk,turkey sandwich,5.0200000000000005,5.07,0.04999999999999982,turkey sandwich,1225.6000000238419,1226,1226.2999999523163,True,i,166863.80000007153,1742.6000000238419,1669832038062,1742,HRV,HRV_0157,2022-11-30 18:16:02
107,"[{'imgObject': {}, 'id': 'sushi w_condiments', 'src': '/static/foodstim60/sushi w_condiments.jpg', 'key': 'u', 'origWidth': 410, 'origHeight': 410, 'width': 410, 'height': 410, 'widthPercent': 0.45, 'rescaleHeight': False, 'trialN': 107, 'loaded': True, 'loadedTime': 2764.9000000953674, 'positionName': 'LEFT', 'positionCoords': [327.28, 227], 'bid': 0.03}, {'imgObject': {}, 'id': 'cocktailshrimp', 'src': '/static/foodstim60/cocktailshrimp.jpg', 'key': 'i', 'origWidth': 410, 'origHeight': 410, 'width': 410, 'height': 410, 'widthPercent': 0.45, 'rescaleHeight': False, 'trialN': 107, 'loaded': True, 'loadedTime': 2491.100000023842, 'positionName': 'RIGHT', 'positionCoords': [798.72, 227], 'bid': 0.01}]",166864.20000004768,1669832038063,sushi w_condiments,cocktailshrimp,0.03,0.01,-0.019999999999999997,sushi w_condiments,1917.6000000238419,1918,1918.2999999523163,True,u,169294.10000002384,2429.899999976158,1669832040493,2430,HRV,HRV_0157,2022-11-30 18:16:02
108,"[{'imgObject': {}, 'id': 'tacos', 'src': '/static/foodstim60/tacos.jpg', 'key': 'u', 'origWidth': 411, 'origHeight': 411, 'width': 411, 'height': 411, 'widthPercent': 0.45, 'rescaleHeight': False, 'trialN': 108, 'loaded': True, 'loadedTime': 2819.4000000953674, 'positionName': 'LEFT', 'positionCoords': [326.28, 226.5], 'bid': 8.24}, {'imgObject': {}, 'id': 'luckycharms', 'src': '/static/foodstim60/luckycharms.jpg', 'key': 'i', 'origWidth': 410, 'origHeight': 409, 'width': 410, 'height': 409, 'widthPercent': 0.45, 'rescaleHeight': False, 'trialN': 108, 'loaded': True, 'loadedTime': 2650.600000023842, 'positionName': 'RIGHT', 'positionCoords': [798.72, 227.5], 'bid': 5}]",169294.40000009537,1669832040493,tacos,luckycharms,8.24,5.0,-3.24,tacos,855.8999999761581,857,856.6999999284744,True,u,170658.90000009537,1364.5,1669832041857,1364,HRV,HRV_0157,2022-11-30 18:16:02
