trialN,stimuli,trialStartTime,trialStartTime_UNIX,stimulus1,stimulus2,stimulus1Bid,stimulus2Bid,delta,selected,rt,rt_UNIX,rt_perfnow,receivedResponse,rsp,trialEndTime,trialDuration,trialEndTime_UNIX,trialDuration_UNIX,exp,subjectId,date
0,"[{'imgObject': {}, 'id': 'turkeysandwich', 'src': '/static/foodstim60/turkeysandwich.jpg', 'key': 'u', 'origWidth': 409, 'origHeight': 409, 'width': 409, 'height': 409, 'widthPercent': 0.45, 'rescaleHeight': False, 'trialN': 0, 'loaded': True, 'loadedTime': 3382.1999999284744, 'positionName': 'LEFT', 'positionCoords': [82.52, 83.5], 'bid': 7.03}, {'imgObject': {}, 'id': 'pear', 'src': '/static/foodstim60/pear.jpg', 'key': 'i', 'origWidth': 411, 'origHeight': 410, 'width': 411, 'height': 410, 'widthPercent': 0.45, 'rescaleHeight': False, 'trialN': 0, 'loaded': True, 'loadedTime': 3401.600000023842, 'positionName': 'RIGHT', 'positionCoords': [532.48, 83], 'bid': 6.28}]",3783.2999999523163,1669831274107,turkeysandwich,pear,7.03,6.28,-0.75,turkeysandwich,854.7000000476837,855,855.3999999761581,True,u,5149.600000023842,1366.3000000715256,1669831275473,1366,HRV,HRV_0168,2022-11-30 18:07:31
1,"[{'imgObject': {}, 'id': 'cantaloupe', 'src': '/static/foodstim60/cantaloupe.jpg', 'key': 'u', 'origWidth': 409, 'origHeight': 409, 'width': 409, 'height': 409, 'widthPercent': 0.45, 'rescaleHeight': False, 'trialN': 1, 'loaded': True, 'loadedTime': 3402.6999999284744, 'positionName': 'LEFT', 'positionCoords': [82.52, 83.5], 'bid': 0.39}, {'imgObject': {}, 'id': 'raspberries', 'src': '/static/foodstim60/raspberries.jpg', 'key': 'i', 'origWidth': 411, 'origHeight': 411, 'width': 411, 'height': 411, 'widthPercent': 0.45, 'rescaleHeight': False, 'trialN': 1, 'loaded': True, 'loadedTime': 3406.100000023842, 'positionName': 'RIGHT', 'positionCoords': [532.48, 82.5], 'bid': 0.25}]",5149.799999952316,1669831275474,cantaloupe,raspberries,0.39,0.25,-0.14,raspberries,831.0,831,831.3999999761581,True,i,6499.399999976158,1349.6000000238419,1669831276823,1349,HRV,HRV_0168,2022-11-30 18:07:31
2,"[{'imgObject': {}, 'id': 'burger', 'src': '/static/foodstim60/burger.jpg', 'key': 'u', 'origWidth': 409, 'origHeight': 409, 'width': 409, 'height': 409, 'widthPercent': 0.45, 'rescaleHeight': False, 'trialN': 2, 'loaded': True, 'loadedTime': 3411.600000023842, 'positionName': 'LEFT', 'positionCoords': [82.52, 83.5], 'bid': 7.44}, {'imgObject': {}, 'id': 'pear', 'src': '/static/foodstim60/pear.jpg', 'key': 'i', 'origWidth': 411, 'origHeight': 410, 'width': 411, 'height': 410, 'widthPercent': 0.45, 'rescaleHeight': False, 'trialN': 2, 'loaded': True, 'loadedTime': 3398.1999999284744, 'positionName': 'RIGHT', 'positionCoords': [532.48, 83], 'bid': 6.28}]",6499.600000023842,1669831276823,burger,pear,7.44,6.28,-1.1600000000000001,pear,1172.5,1173,1172.7999999523163,True,i,8192.899999976158,1693.2999999523163,1669831278517,1694,HRV,HRV_0168,2022-11-30 18:07:31
3,"[{'imgObject': {}, 'id': 'Grapes', 'src': '/static/foodstim60/Grapes.jpg', 'key': 'u', 'origWidth': 411, 'origHeight': 411, 'width': 411, 'height': 411, 'widthPercent': 0.45, 'rescaleHeight': False, 'trialN': 3, 'loaded': True, 'loadedTime': 3414.5, 'positionName': 'LEFT', 'positionCoords': [80.52, 82.5], 'bid': 8.06}, {'imgObject': {}, 'id': 'steak', 'src': '/static/foodstim60/steak.jpg', 'key': 'i', 'origWidth': 410, 'origHeight': 410, 'width': 410, 'height': 410, 'widthPercent': 0.45, 'rescaleHeight': False, 'trialN': 3, 'loaded': True, 'loadedTime': 3418.1999999284744, 'positionName': 'RIGHT', 'positionCoords': [532.48, 83], 'bid': 8.39}]",8193.100000023842,1669831278517,Grapes,steak,8.06,8.39,0.33000000000000007,steak,731.7999999523163,732,732.0999999046326,True,i,9433.5,1240.3999999761581,1669831279758,1241,HRV,HRV_0168,2022-11-30 18:07:31
4,"[{'imgObject': {}, 'id': 'pear', 'src': '/static/foodstim60/pear.jpg', 'key': 'u', 'origWidth': 411, 'origHeight': 410, 'width': 411, 'height': 410, 'widthPercent': 0.45, 'rescaleHeight': False, 'trialN': 4, 'loaded': True, 'loadedTime': 3398.899999976158, 'positionName': 'LEFT', 'positionCoords': [80.52, 83], 'bid': 6.28}, {'imgObject': {}, 'id': 'mango', 'src': '/static/foodstim60/mango.jpg', 'key': 'i', 'origWidth': 411, 'origHeight': 411, 'width': 411, 'height': 411, 'widthPercent': 0.45, 'rescaleHeight': False, 'trialN': 4, 'loaded': True, 'loadedTime': 3422.399999976158, 'positionName': 'RIGHT', 'positionCoords': [532.48, 82.5], 'bid': 0.23}]",9433.899999976158,1669831279758,pear,mango,6.28,0.23,-6.05,pear,836.8999999761581,838,837.2000000476837,True,u,10781.399999976158,1347.5,1669831281106,1348,HRV,HRV_0168,2022-11-30 18:07:31
5,"[{'imgObject': {}, 'id': 'luckycharms', 'src': '/static/foodstim60/luckycharms.jpg', 'key': 'u', 'origWidth': 410, 'origHeight': 409, 'width': 410, 'height': 409, 'widthPercent': 0.45, 'rescaleHeight': False, 'trialN': 5, 'loaded': True, 'loadedTime': 3426.6999999284744, 'positionName': 'LEFT', 'positionCoords': [81.52, 83.5], 'bid': 5.58}, {'imgObject': {}, 'id': 'cheerios', 'src': '/static/foodstim60/cheerios.jpg', 'key': 'i', 'origWidth': 409, 'origHeight': 410, 'width': 409, 'height': 410, 'widthPercent': 0.45, 'rescaleHeight': False, 'trialN': 5, 'loaded': True, 'loadedTime': 3434.600000023842, 'positionName': 'RIGHT', 'positionCoords': [532.48, 83], 'bid': 4.39}]",10781.699999928474,1669831281106,luckycharms,cheerios,5.58,4.39,-1.1900000000000004,luckycharms,844.0,845,844.4000000953674,True,u,12143.600000023842,1361.9000000953674,1669831282468,1362,HRV,HRV_0168,2022-11-30 18:07:31
6,"[{'imgObject': {}, 'id': 'blueberries', 'src': '/static/foodstim60/blueberries.jpg', 'key': 'u', 'origWidth': 411, 'origHeight': 411, 'width': 411, 'height': 411, 'widthPercent': 0.45, 'rescaleHeight': False, 'trialN': 6, 'loaded': True, 'loadedTime': 3437.7999999523163, 'positionName': 'LEFT', 'positionCoords': [80.52, 82.5], 'bid': 2.89}, {'imgObject': {}, 'id': 'eggsalad', 'src': '/static/foodstim60/eggsalad.jpg', 'key': 'i', 'origWidth': 410, 'origHeight': 409, 'width': 410, 'height': 409, 'widthPercent': 0.45, 'rescaleHeight': False, 'trialN': 6, 'loaded': True, 'loadedTime': 3438.6999999284744, 'positionName': 'RIGHT', 'positionCoords': [532.48, 83.5], 'bid': 0.72}]",12143.799999952316,1669831282468,blueberries,eggsalad,2.89,0.72,-2.17,eggsalad,1093.1000000238419,1094,1093.3999999761581,True,i,13742.199999928474,1598.3999999761581,1669831284067,1599,HRV,HRV_0168,2022-11-30 18:07:31
7,"[{'imgObject': {}, 'id': 'salmon', 'src': '/static/foodstim60/salmon.jpg', 'key': 'u', 'origWidth': 410, 'origHeight': 409, 'width': 410, 'height': 409, 'widthPercent': 0.45, 'rescaleHeight': False, 'trialN': 7, 'loaded': True, 'loadedTime': 3443.600000023842, 'positionName': 'LEFT', 'positionCoords': [81.52, 83.5], 'bid': 0.15}, {'imgObject': {}, 'id': 'raspberries', 'src': '/static/foodstim60/raspberries.jpg', 'key': 'i', 'origWidth': 411, 'origHeight': 411, 'width': 411, 'height': 411, 'widthPercent': 0.45, 'rescaleHeight': False, 'trialN': 7, 'loaded': True, 'loadedTime': 3408.100000023842, 'positionName': 'RIGHT', 'positionCoords': [532.48, 82.5], 'bid': 0.25}]",13742.5,1669831284067,salmon,raspberries,0.15,0.25,0.1,salmon,844.1999999284744,845,844.6000000238419,True,u,15087.399999976158,1344.8999999761581,1669831285412,1345,HRV,HRV_0168,2022-11-30 18:07:31
8,"[{'imgObject': {}, 'id': 'seaweed', 'src': '/static/foodstim60/seaweed.jpg', 'key': 'u', 'origWidth': 410, 'origHeight': 410, 'width': 410, 'height': 410, 'widthPercent': 0.45, 'rescaleHeight': False, 'trialN': 8, 'loaded': True, 'loadedTime': 3446.399999976158, 'positionName': 'LEFT', 'positionCoords': [81.52, 83], 'bid': 0.15}, {'imgObject': {}, 'id': 'apple slices', 'src': '/static/foodstim60/apple slices.jpg', 'key': 'i', 'origWidth': 409, 'origHeight': 410, 'width': 409, 'height': 410, 'widthPercent': 0.45, 'rescaleHeight': False, 'trialN': 8, 'loaded': True, 'loadedTime': 3451.7999999523163, 'positionName': 'RIGHT', 'positionCoords': [532.48, 83], 'bid': 5.01}]",15087.5,1669831285412,seaweed,apple slices,0.15,5.01,4.859999999999999,apple slices,866.3999999761581,867,866.6999999284744,True,i,16466.299999952316,1378.7999999523163,1669831286791,1379,HRV,HRV_0168,2022-11-30 18:07:31
9,"[{'imgObject': {}, 'id': 'ice cream sundae 002', 'src': '/static/foodstim60/ice cream sundae 002.jpg', 'key': 'u', 'origWidth': 409, 'origHeight': 409, 'width': 409, 'height': 409, 'widthPercent': 0.45, 'rescaleHeight': False, 'trialN': 9, 'loaded': True, 'loadedTime': 3472.1999999284744, 'positionName': 'LEFT', 'positionCoords': [82.52, 83.5], 'bid': 9.14}, {'imgObject': {}, 'id': 'bagel and cc', 'src': '/static/foodstim60/bagel and cc.jpg', 'key': 'i', 'origWidth': 410, 'origHeight': 410, 'width': 410, 'height': 410, 'widthPercent': 0.45, 'rescaleHeight': False, 'trialN': 9, 'loaded': True, 'loadedTime': 3476.399999976158, 'positionName': 'RIGHT', 'positionCoords': [532.48, 83], 'bid': 4.84}]",16466.600000023842,1669831286791,ice cream sundae 002,bagel and cc,9.14,4.84,-4.300000000000001,bagel and cc,746.7999999523163,747,747.0999999046326,True,i,17720.399999976158,1253.7999999523163,1669831288045,1254,HRV,HRV_0168,2022-11-30 18:07:31
10,"[{'imgObject': {}, 'id': 'steak', 'src': '/static/foodstim60/steak.jpg', 'key': 'u', 'origWidth': 410, 'origHeight': 410, 'width': 410, 'height': 410, 'widthPercent': 0.45, 'rescaleHeight': False, 'trialN': 10, 'loaded': True, 'loadedTime': 3415.600000023842, 'positionName': 'LEFT', 'positionCoords': [81.52, 83], 'bid': 8.39}, {'imgObject': {}, 'id': 'mac & cheese', 'src': '/static/foodstim60/mac & cheese.jpg', 'key': 'i', 'origWidth': 410, 'origHeight': 410, 'width': 410, 'height': 410, 'widthPercent': 0.45, 'rescaleHeight': False, 'trialN': 10, 'loaded': True, 'loadedTime': 3496.2999999523163, 'positionName': 'RIGHT', 'positionCoords': [532.48, 83], 'bid': 9.43}]",17720.600000023842,1669831288045,steak,mac & cheese,8.39,9.43,1.0399999999999991,mac & cheese,1131.0,1131,1131.2999999523163,True,i,19366.199999928474,1645.5999999046326,1669831289691,1646,HRV,HRV_0168,2022-11-30 18:07:31
11,"[{'imgObject': {}, 'id': 'shreddedwheatwithmilk', 'src': '/static/foodstim60/shreddedwheatwithmilk.jpg', 'key': 'u', 'origWidth': 410, 'origHeight': 410, 'width': 410, 'height': 410, 'widthPercent': 0.45, 'rescaleHeight': False, 'trialN': 11, 'loaded': True, 'loadedTime': 3500.5, 'positionName': 'LEFT', 'positionCoords': [81.52, 83], 'bid': 2.36}, {'imgObject': {}, 'id': 'chicken nuggets2', 'src': '/static/foodstim60/chicken nuggets2.jpg', 'key': 'i', 'origWidth': 410, 'origHeight': 409, 'width': 410, 'height': 409, 'widthPercent': 0.45, 'rescaleHeight': False, 'trialN': 11, 'loaded': True, 'loadedTime': 3507.399999976158, 'positionName': 'RIGHT', 'positionCoords': [532.48, 83.5], 'bid': 9.72}]",19366.5,1669831289691,shreddedwheatwithmilk,chicken nuggets2,2.36,9.72,7.360000000000001,chicken nuggets2,954.7999999523163,955,955.1999999284744,True,i,20838.600000023842,1472.1000000238419,1669831291163,1472,HRV,HRV_0168,2022-11-30 18:07:31
12,"[{'imgObject': {}, 'id': 'olives', 'src': '/static/foodstim60/olives.jpg', 'key': 'u', 'origWidth': 410, 'origHeight': 410, 'width': 410, 'height': 410, 'widthPercent': 0.45, 'rescaleHeight': False, 'trialN': 12, 'loaded': True, 'loadedTime': 3525, 'positionName': 'LEFT', 'positionCoords': [81.52, 83], 'bid': 0.11}, {'imgObject': {}, 'id': 'lox', 'src': '/static/foodstim60/lox.jpg', 'key': 'i', 'origWidth': 410, 'origHeight': 411, 'width': 410, 'height': 411, 'widthPercent': 0.45, 'rescaleHeight': False, 'trialN': 12, 'loaded': True, 'loadedTime': 3527.600000023842, 'positionName': 'RIGHT', 'positionCoords': [532.48, 82.5], 'bid': 0.09}]",20838.799999952316,1669831291163,olives,lox,0.11,0.09,-0.020000000000000004,olives,769.1000000238419,770,769.5,True,u,22118.199999928474,1279.3999999761581,1669831292443,1280,HRV,HRV_0168,2022-11-30 18:07:31
13,"[{'imgObject': {}, 'id': 'cocktailshrimp', 'src': '/static/foodstim60/cocktailshrimp.jpg', 'key': 'u', 'origWidth': 410, 'origHeight': 410, 'width': 410, 'height': 410, 'widthPercent': 0.45, 'rescaleHeight': False, 'trialN': 13, 'loaded': True, 'loadedTime': 3534.399999976158, 'positionName': 'LEFT', 'positionCoords': [81.52, 83], 'bid': 0.21}, {'imgObject': {}, 'id': 'raisin bran w milk', 'src': '/static/foodstim60/raisin bran w milk.jpg', 'key': 'i', 'origWidth': 411, 'origHeight': 411, 'width': 411, 'height': 411, 'widthPercent': 0.45, 'rescaleHeight': False, 'trialN': 13, 'loaded': True, 'loadedTime': 3552.1999999284744, 'positionName': 'RIGHT', 'positionCoords': [532.48, 82.5], 'bid': 0.52}]",22118.399999976158,1669831292443,cocktailshrimp,raisin bran w milk,0.21,0.52,0.31000000000000005,raisin bran w milk,1404.2999999523163,1405,1404.7000000476837,True,i,24038.100000023842,1919.7000000476837,1669831294363,1920,HRV,HRV_0168,2022-11-30 18:07:31
14,"[{'imgObject': {}, 'id': 'fruitsalad', 'src': '/static/foodstim60/fruitsalad.jpg', 'key': 'u', 'origWidth': 410, 'origHeight': 410, 'width': 410, 'height': 410, 'widthPercent': 0.45, 'rescaleHeight': False, 'trialN': 14, 'loaded': True, 'loadedTime': 3554.600000023842, 'positionName': 'LEFT', 'positionCoords': [81.52, 83], 'bid': 5.3100000000000005}, {'imgObject': {}, 'id': 'turkeysandwich', 'src': '/static/foodstim60/turkeysandwich.jpg', 'key': 'i', 'origWidth': 409, 'origHeight': 409, 'width': 409, 'height': 409, 'widthPercent': 0.45, 'rescaleHeight': False, 'trialN': 14, 'loaded': True, 'loadedTime': 3382.899999976158, 'positionName': 'RIGHT', 'positionCoords': [532.48, 83.5], 'bid': 7.03}]",24038.399999976158,1669831294363,fruitsalad,turkeysandwich,5.3100000000000005,7.03,1.7199999999999998,turkeysandwich,840.5,841,841.0,True,i,25384.600000023842,1346.2000000476837,1669831295709,1346,HRV,HRV_0168,2022-11-30 18:07:31
15,"[{'imgObject': {}, 'id': 'granola w milk', 'src': '/static/foodstim60/granola w milk.jpg', 'key': 'u', 'origWidth': 410, 'origHeight': 410, 'width': 410, 'height': 410, 'widthPercent': 0.45, 'rescaleHeight': False, 'trialN': 15, 'loaded': True, 'loadedTime': 3574.7999999523163, 'positionName': 'LEFT', 'positionCoords': [81.52, 83], 'bid': 0.13}, {'imgObject': {}, 'id': 'edamame', 'src': '/static/foodstim60/edamame.jpg', 'key': 'i', 'origWidth': 409, 'origHeight': 410, 'width': 409, 'height': 410, 'widthPercent': 0.45, 'rescaleHeight': False, 'trialN': 15, 'loaded': True, 'loadedTime': 3579.5, 'positionName': 'RIGHT', 'positionCoords': [532.48, 83], 'bid': 0.11}]",25384.799999952316,1669831295709,granola w milk,edamame,0.13,0.11,-0.020000000000000004,granola w milk,747.7000000476837,748,748.1000000238419,True,u,26645.100000023842,1260.3000000715256,1669831296970,1261,HRV,HRV_0168,2022-11-30 18:07:31
16,"[{'imgObject': {}, 'id': 'raisin bran w milk', 'src': '/static/foodstim60/raisin bran w milk.jpg', 'key': 'u', 'origWidth': 411, 'origHeight': 411, 'width': 411, 'height': 411, 'widthPercent': 0.45, 'rescaleHeight': False, 'trialN': 16, 'loaded': True, 'loadedTime': 3552.399999976158, 'positionName': 'LEFT', 'positionCoords': [80.52, 82.5], 'bid': 0.52}, {'imgObject': {}, 'id': 'tacos', 'src': '/static/foodstim60/tacos.jpg', 'key': 'i', 'origWidth': 411, 'origHeight': 411, 'width': 411, 'height': 411, 'widthPercent': 0.45, 'rescaleHeight': False, 'trialN': 16, 'loaded': True, 'loadedTime': 3598.6999999284744, 'positionName': 'RIGHT', 'positionCoords': [532.48, 82.5], 'bid': 8.1}]",26645.399999976158,1669831296970,raisin bran w milk,tacos,0.52,8.1,7.58,tacos,752.1000000238419,752,752.5,True,i,27903.100000023842,1257.7000000476837,1669831298228,1258,HRV,HRV_0168,2022-11-30 18:07:31
17,"[{'imgObject': {}, 'id': 'raisin bran w milk', 'src': '/static/foodstim60/raisin bran w milk.jpg', 'key': 'u', 'origWidth': 411, 'origHeight': 411, 'width': 411, 'height': 411, 'widthPercent': 0.45, 'rescaleHeight': False, 'trialN': 17, 'loaded': True, 'loadedTime': 3550, 'positionName': 'LEFT', 'positionCoords': [80.52, 82.5], 'bid': 0.52}, {'imgObject': {}, 'id': 'banana', 'src': '/static/foodstim60/banana.jpg', 'key': 'i', 'origWidth': 410, 'origHeight': 410, 'width': 410, 'height': 410, 'widthPercent': 0.45, 'rescaleHeight': False, 'trialN': 17, 'loaded': True, 'loadedTime': 3602.6999999284744, 'positionName': 'RIGHT', 'positionCoords': [532.48, 83], 'bid': 0.27}]",27903.199999928474,1669831298228,raisin bran w milk,banana,0.52,0.27,-0.25,banana,1027.3000000715256,1027,1027.7000000476837,True,i,29443.5,1540.3000000715256,1669831299768,1540,HRV,HRV_0168,2022-11-30 18:07:31
18,"[{'imgObject': {}, 'id': 'granola w milk', 'src': '/static/foodstim60/granola w milk.jpg', 'key': 'u', 'origWidth': 410, 'origHeight': 410, 'width': 410, 'height': 410, 'widthPercent': 0.45, 'rescaleHeight': False, 'trialN': 18, 'loaded': True, 'loadedTime': 3575.1999999284744, 'positionName': 'LEFT', 'positionCoords': [81.52, 83], 'bid': 0.13}, {'imgObject': {}, 'id': 'orange slices', 'src': '/static/foodstim60/orange slices.jpg', 'key': 'i', 'origWidth': 409, 'origHeight': 410, 'width': 409, 'height': 410, 'widthPercent': 0.45, 'rescaleHeight': False, 'trialN': 18, 'loaded': True, 'loadedTime': 3606.1999999284744, 'positionName': 'RIGHT', 'positionCoords': [532.48, 83], 'bid': 4.3100000000000005}]",29443.699999928474,1669831299768,granola w milk,orange slices,0.13,4.3100000000000005,4.180000000000001,orange slices,910.7000000476837,911,911.1000000238419,True,i,30875.899999976158,1432.2000000476837,1669831301200,1432,HRV,HRV_0168,2022-11-30 18:07:31
19,"[{'imgObject': {}, 'id': 'Grapes', 'src': '/static/foodstim60/Grapes.jpg', 'key': 'u', 'origWidth': 411, 'origHeight': 411, 'width': 411, 'height': 411, 'widthPercent': 0.45, 'rescaleHeight': False, 'trialN': 19, 'loaded': True, 'loadedTime': 3415.100000023842, 'positionName': 'LEFT', 'positionCoords': [80.52, 82.5], 'bid': 8.06}, {'imgObject': {}, 'id': 'tacos', 'src': '/static/foodstim60/tacos.jpg', 'key': 'i', 'origWidth': 411, 'origHeight': 411, 'width': 411, 'height': 411, 'widthPercent': 0.45, 'rescaleHeight': False, 'trialN': 19, 'loaded': True, 'loadedTime': 3579.899999976158, 'positionName': 'RIGHT', 'positionCoords': [532.48, 82.5], 'bid': 8.1}]",30875.899999976158,1669831301200,Grapes,tacos,8.06,8.1,0.03999999999999915,tacos,825.7000000476837,826,826.0,True,i,32206.899999976158,1331.0,1669831302531,1331,HRV,HRV_0168,2022-11-30 18:07:31
20,"[{'imgObject': {}, 'id': 'cheerios', 'src': '/static/foodstim60/cheerios.jpg', 'key': 'u', 'origWidth': 409, 'origHeight': 410, 'width': 409, 'height': 410, 'widthPercent': 0.45, 'rescaleHeight': False, 'trialN': 20, 'loaded': True, 'loadedTime': 3434.7999999523163, 'positionName': 'LEFT', 'positionCoords': [82.52, 83], 'bid': 4.39}, {'imgObject': {}, 'id': 'apple slices', 'src': '/static/foodstim60/apple slices.jpg', 'key': 'i', 'origWidth': 409, 'origHeight': 410, 'width': 409, 'height': 410, 'widthPercent': 0.45, 'rescaleHeight': False, 'trialN': 20, 'loaded': True, 'loadedTime': 3451.399999976158, 'positionName': 'RIGHT', 'positionCoords': [532.48, 83], 'bid': 5.01}]",32207.100000023842,1669831302532,cheerios,apple slices,4.39,5.01,0.6200000000000001,cheerios,716.6999999284744,717,716.8999999761581,True,u,33428.60000002384,1221.5,1669831303753,1221,HRV,HRV_0168,2022-11-30 18:07:31
21,"[{'imgObject': {}, 'id': 'shreddedwheatwithmilk', 'src': '/static/foodstim60/shreddedwheatwithmilk.jpg', 'key': 'u', 'origWidth': 410, 'origHeight': 410, 'width': 410, 'height': 410, 'widthPercent': 0.45, 'rescaleHeight': False, 'trialN': 21, 'loaded': True, 'loadedTime': 3503, 'positionName': 'LEFT', 'positionCoords': [81.52, 83], 'bid': 2.36}, {'imgObject': {}, 'id': 'fried eggs', 'src': '/static/foodstim60/fried eggs.jpg', 'key': 'i', 'origWidth': 410, 'origHeight': 410, 'width': 410, 'height': 410, 'widthPercent': 0.45, 'rescaleHeight': False, 'trialN': 21, 'loaded': True, 'loadedTime': 3608.1999999284744, 'positionName': 'RIGHT', 'positionCoords': [532.48, 83], 'bid': 0.21}]",33428.89999997616,1669831303753,shreddedwheatwithmilk,fried eggs,2.36,0.21,-2.15,shreddedwheatwithmilk,891.2000000476837,892,891.6000000238419,True,u,34838.799999952316,1409.8999999761581,1669831305163,1410,HRV,HRV_0168,2022-11-30 18:07:31
22,"[{'imgObject': {}, 'id': 'tacos', 'src': '/static/foodstim60/tacos.jpg', 'key': 'u', 'origWidth': 411, 'origHeight': 411, 'width': 411, 'height': 411, 'widthPercent': 0.45, 'rescaleHeight': False, 'trialN': 22, 'loaded': True, 'loadedTime': 3582.7999999523163, 'positionName': 'LEFT', 'positionCoords': [80.52, 82.5], 'bid': 8.1}, {'imgObject': {}, 'id': 'yogurt no spoon', 'src': '/static/foodstim60/yogurt no spoon.jpg', 'key': 'i', 'origWidth': 411, 'origHeight': 410, 'width': 411, 'height': 410, 'widthPercent': 0.45, 'rescaleHeight': False, 'trialN': 22, 'loaded': True, 'loadedTime': 3610.600000023842, 'positionName': 'RIGHT', 'positionCoords': [532.48, 83], 'bid': 4.16}]",34839.10000002384,1669831305164,tacos,yogurt no spoon,8.1,4.16,-3.9399999999999995,tacos,785.3999999761581,785,785.7999999523163,True,u,36143.5,1304.3999999761581,1669831306468,1304,HRV,HRV_0168,2022-11-30 18:07:31
23,"[{'imgObject': {}, 'id': 'avocado', 'src': '/static/foodstim60/avocado.jpg', 'key': 'u', 'origWidth': 409, 'origHeight': 409, 'width': 409, 'height': 409, 'widthPercent': 0.45, 'rescaleHeight': False, 'trialN': 23, 'loaded': True, 'loadedTime': 3626.7999999523163, 'positionName': 'LEFT', 'positionCoords': [82.52, 83.5], 'bid': 0.15}, {'imgObject': {}, 'id': 'blackbeanswithrice', 'src': '/static/foodstim60/blackbeanswithrice.jpg', 'key': 'i', 'origWidth': 410, 'origHeight': 410, 'width': 410, 'height': 410, 'widthPercent': 0.45, 'rescaleHeight': False, 'trialN': 23, 'loaded': True, 'loadedTime': 3631.5, 'positionName': 'RIGHT', 'positionCoords': [532.48, 83], 'bid': 0.11}]",36143.89999997616,1669831306468,avocado,blackbeanswithrice,0.15,0.11,-0.039999999999999994,avocado,986.8999999761581,988,987.2999999523163,True,u,37647.0,1503.1000000238419,1669831307972,1504,HRV,HRV_0168,2022-11-30 18:07:31
24,"[{'imgObject': {}, 'id': 'chicken nuggets2', 'src': '/static/foodstim60/chicken nuggets2.jpg', 'key': 'u', 'origWidth': 410, 'origHeight': 409, 'width': 410, 'height': 409, 'widthPercent': 0.45, 'rescaleHeight': False, 'trialN': 24, 'loaded': True, 'loadedTime': 3506.600000023842, 'positionName': 'LEFT', 'positionCoords': [81.52, 83.5], 'bid': 9.72}, {'imgObject': {}, 'id': 'strawberries', 'src': '/static/foodstim60/strawberries.jpg', 'key': 'i', 'origWidth': 410, 'origHeight': 410, 'width': 410, 'height': 410, 'widthPercent': 0.45, 'rescaleHeight': False, 'trialN': 24, 'loaded': True, 'loadedTime': 3636.5, 'positionName': 'RIGHT', 'positionCoords': [532.48, 83], 'bid': 8.75}]",37647.39999997616,1669831307972,chicken nuggets2,strawberries,9.72,8.75,-0.9700000000000006,chicken nuggets2,673.2000000476837,673,673.6000000238419,True,u,38833.199999928474,1185.7999999523163,1669831309158,1186,HRV,HRV_0168,2022-11-30 18:07:31
25,"[{'imgObject': {}, 'id': 'mashed potato', 'src': '/static/foodstim60/mashed potato.jpg', 'key': 'u', 'origWidth': 409, 'origHeight': 409, 'width': 409, 'height': 409, 'widthPercent': 0.45, 'rescaleHeight': False, 'trialN': 25, 'loaded': True, 'loadedTime': 3638.899999976158, 'positionName': 'LEFT', 'positionCoords': [82.52, 83.5], 'bid': 3.28}, {'imgObject': {}, 'id': 'blackbeanswithrice', 'src': '/static/foodstim60/blackbeanswithrice.jpg', 'key': 'i', 'origWidth': 410, 'origHeight': 410, 'width': 410, 'height': 410, 'widthPercent': 0.45, 'rescaleHeight': False, 'trialN': 25, 'loaded': True, 'loadedTime': 3632.2999999523163, 'positionName': 'RIGHT', 'positionCoords': [532.48, 83], 'bid': 0.11}]",38833.5,1669831309158,mashed potato,blackbeanswithrice,3.28,0.11,-3.17,mashed potato,911.6999999284744,912,912.1000000238419,True,u,40263.60000002384,1430.1000000238419,1669831310588,1430,HRV,HRV_0168,2022-11-30 18:07:31
26,"[{'imgObject': {}, 'id': 'fried eggs', 'src': '/static/foodstim60/fried eggs.jpg', 'key': 'u', 'origWidth': 410, 'origHeight': 410, 'width': 410, 'height': 410, 'widthPercent': 0.45, 'rescaleHeight': False, 'trialN': 26, 'loaded': True, 'loadedTime': 3607.899999976158, 'positionName': 'LEFT', 'positionCoords': [81.52, 83], 'bid': 0.21}, {'imgObject': {}, 'id': 'cantaloupe', 'src': '/static/foodstim60/cantaloupe.jpg', 'key': 'i', 'origWidth': 409, 'origHeight': 409, 'width': 409, 'height': 409, 'widthPercent': 0.45, 'rescaleHeight': False, 'trialN': 26, 'loaded': True, 'loadedTime': 3404.399999976158, 'positionName': 'RIGHT', 'positionCoords': [532.48, 83.5], 'bid': 0.39}]",40263.799999952316,1669831310588,fried eggs,cantaloupe,0.21,0.39,0.18000000000000002,fried eggs,1023.1000000238419,1024,1023.5,True,u,41804.299999952316,1540.5,1669831312129,1541,HRV,HRV_0168,2022-11-30 18:07:31
27,"[{'imgObject': {}, 'id': 'cherry tomato', 'src': '/static/foodstim60/cherry tomato.jpg', 'key': 'u', 'origWidth': 410, 'origHeight': 410, 'width': 410, 'height': 410, 'widthPercent': 0.45, 'rescaleHeight': False, 'trialN': 27, 'loaded': True, 'loadedTime': 3653.5, 'positionName': 'LEFT', 'positionCoords': [81.52, 83], 'bid': 0.19}, {'imgObject': {}, 'id': 'kiwi', 'src': '/static/foodstim60/kiwi.jpg', 'key': 'i', 'origWidth': 410, 'origHeight': 410, 'width': 410, 'height': 410, 'widthPercent': 0.45, 'rescaleHeight': False, 'trialN': 27, 'loaded': True, 'loadedTime': 3654.5, 'positionName': 'RIGHT', 'positionCoords': [532.48, 83], 'bid': 0.19}]",41804.60000002384,1669831312129,cherry tomato,kiwi,0.19,0.19,0.0,kiwi,831.5,832,831.8999999761581,True,i,43146.699999928474,1342.0999999046326,1669831313471,1342,HRV,HRV_0168,2022-11-30 18:07:31
28,"[{'imgObject': {}, 'id': 'strawberries', 'src': '/static/foodstim60/strawberries.jpg', 'key': 'u', 'origWidth': 410, 'origHeight': 410, 'width': 410, 'height': 410, 'widthPercent': 0.45, 'rescaleHeight': False, 'trialN': 28, 'loaded': True, 'loadedTime': 3634.2999999523163, 'positionName': 'LEFT', 'positionCoords': [81.52, 83], 'bid': 8.75}, {'imgObject': {}, 'id': 'cheerios', 'src': '/static/foodstim60/cheerios.jpg', 'key': 'i', 'origWidth': 409, 'origHeight': 410, 'width': 409, 'height': 410, 'widthPercent': 0.45, 'rescaleHeight': False, 'trialN': 28, 'loaded': True, 'loadedTime': 3435.100000023842, 'positionName': 'RIGHT', 'positionCoords': [532.48, 83], 'bid': 4.39}]",43146.89999997616,1669831313471,strawberries,cheerios,8.75,4.39,-4.36,strawberries,772.5,773,772.8999999761581,True,u,44430.39999997616,1283.5,1669831314755,1284,HRV,HRV_0168,2022-11-30 18:07:31
29,"[{'imgObject': {}, 'id': 'strawberries', 'src': '/static/foodstim60/strawberries.jpg', 'key': 'u', 'origWidth': 410, 'origHeight': 410, 'width': 410, 'height': 410, 'widthPercent': 0.45, 'rescaleHeight': False, 'trialN': 29, 'loaded': True, 'loadedTime': 3636.6999999284744, 'positionName': 'LEFT', 'positionCoords': [81.52, 83], 'bid': 8.75}, {'imgObject': {}, 'id': 'steak', 'src': '/static/foodstim60/steak.jpg', 'key': 'i', 'origWidth': 410, 'origHeight': 410, 'width': 410, 'height': 410, 'widthPercent': 0.45, 'rescaleHeight': False, 'trialN': 29, 'loaded': True, 'loadedTime': 3419, 'positionName': 'RIGHT', 'positionCoords': [532.48, 83], 'bid': 8.39}]",44430.60000002384,1669831314755,strawberries,steak,8.75,8.39,-0.35999999999999943,steak,700.3999999761581,701,700.7999999523163,True,i,45637.199999928474,1206.5999999046326,1669831315962,1207,HRV,HRV_0168,2022-11-30 18:07:31
30,"[{'imgObject': {}, 'id': 'ice cream sundae 002', 'src': '/static/foodstim60/ice cream sundae 002.jpg', 'key': 'u', 'origWidth': 409, 'origHeight': 409, 'width': 409, 'height': 409, 'widthPercent': 0.45, 'rescaleHeight': False, 'trialN': 30, 'loaded': True, 'loadedTime': 3452.100000023842, 'positionName': 'LEFT', 'positionCoords': [82.52, 83.5], 'bid': 9.14}, {'imgObject': {}, 'id': 'grilled chicken strips', 'src': '/static/foodstim60/grilled chicken strips.jpg', 'key': 'i', 'origWidth': 410, 'origHeight': 411, 'width': 410, 'height': 411, 'widthPercent': 0.45, 'rescaleHeight': False, 'trialN': 30, 'loaded': True, 'loadedTime': 3660.2999999523163, 'positionName': 'RIGHT', 'positionCoords': [532.48, 82.5], 'bid': 9.27}]",45637.699999928474,1669831315962,ice cream sundae 002,grilled chicken strips,9.14,9.27,0.129999999999999,ice cream sundae 002,756.0,757,756.5,True,u,46907.799999952316,1270.1000000238419,1669831317232,1270,HRV,HRV_0168,2022-11-30 18:07:31
31,"[{'imgObject': {}, 'id': 'apple slices', 'src': '/static/foodstim60/apple slices.jpg', 'key': 'u', 'origWidth': 409, 'origHeight': 410, 'width': 409, 'height': 410, 'widthPercent': 0.45, 'rescaleHeight': False, 'trialN': 31, 'loaded': True, 'loadedTime': 3447.100000023842, 'positionName': 'LEFT', 'positionCoords': [82.52, 83], 'bid': 5.01}, {'imgObject': {}, 'id': 'pear', 'src': '/static/foodstim60/pear.jpg', 'key': 'i', 'origWidth': 411, 'origHeight': 410, 'width': 411, 'height': 410, 'widthPercent': 0.45, 'rescaleHeight': False, 'trialN': 31, 'loaded': True, 'loadedTime': 3396.5, 'positionName': 'RIGHT', 'positionCoords': [532.48, 83], 'bid': 6.28}]",46908.10000002384,1669831317233,apple slices,pear,5.01,6.28,1.2700000000000005,pear,905.7999999523163,906,906.1999999284744,True,i,48317.39999997616,1409.2999999523163,1669831318642,1409,HRV,HRV_0168,2022-11-30 18:07:31
32,"[{'imgObject': {}, 'id': 'yogurt no spoon', 'src': '/static/foodstim60/yogurt no spoon.jpg', 'key': 'u', 'origWidth': 411, 'origHeight': 410, 'width': 411, 'height': 410, 'widthPercent': 0.45, 'rescaleHeight': False, 'trialN': 32, 'loaded': True, 'loadedTime': 3610.2999999523163, 'positionName': 'LEFT', 'positionCoords': [80.52, 83], 'bid': 4.16}, {'imgObject': {}, 'id': 'popsicles', 'src': '/static/foodstim60/popsicles.jpg', 'key': 'i', 'origWidth': 410, 'origHeight': 410, 'width': 410, 'height': 410, 'widthPercent': 0.45, 'rescaleHeight': False, 'trialN': 32, 'loaded': True, 'loadedTime': 3775.6999999284744, 'positionName': 'RIGHT', 'positionCoords': [532.48, 83], 'bid': 0.97}]",48317.699999928474,1669831318642,yogurt no spoon,popsicles,4.16,0.97,-3.1900000000000004,yogurt no spoon,1095.4000000953674,1096,1095.8000000715256,True,u,49917.199999928474,1599.5,1669831320242,1600,HRV,HRV_0168,2022-11-30 18:07:31
33,"[{'imgObject': {}, 'id': 'olives', 'src': '/static/foodstim60/olives.jpg', 'key': 'u', 'origWidth': 410, 'origHeight': 410, 'width': 410, 'height': 410, 'widthPercent': 0.45, 'rescaleHeight': False, 'trialN': 33, 'loaded': True, 'loadedTime': 3524.600000023842, 'positionName': 'LEFT', 'positionCoords': [81.52, 83], 'bid': 0.11}, {'imgObject': {}, 'id': 'baked potato', 'src': '/static/foodstim60/baked potato.jpg', 'key': 'i', 'origWidth': 409, 'origHeight': 410, 'width': 409, 'height': 410, 'widthPercent': 0.45, 'rescaleHeight': False, 'trialN': 33, 'loaded': True, 'loadedTime': 3686.600000023842, 'positionName': 'RIGHT', 'positionCoords': [532.48, 83], 'bid': 3.45}]",49917.39999997616,1669831320242,olives,baked potato,0.11,3.45,3.3400000000000003,baked potato,833.2000000476837,834,833.7000000476837,True,i,51257.10000002384,1339.7000000476837,1669831321582,1340,HRV,HRV_0168,2022-11-30 18:07:31
34,"[{'imgObject': {}, 'id': 'blackbeanswithrice', 'src': '/static/foodstim60/blackbeanswithrice.jpg', 'key': 'u', 'origWidth': 410, 'origHeight': 410, 'width': 410, 'height': 410, 'widthPercent': 0.45, 'rescaleHeight': False, 'trialN': 34, 'loaded': True, 'loadedTime': 3628.7999999523163, 'positionName': 'LEFT', 'positionCoords': [81.52, 83], 'bid': 0.11}, {'imgObject': {}, 'id': 'raspberries', 'src': '/static/foodstim60/raspberries.jpg', 'key': 'i', 'origWidth': 411, 'origHeight': 411, 'width': 411, 'height': 411, 'widthPercent': 0.45, 'rescaleHeight': False, 'trialN': 34, 'loaded': True, 'loadedTime': 3407.6999999284744, 'positionName': 'RIGHT', 'positionCoords': [532.48, 82.5], 'bid': 0.25}]",51257.199999928474,1669831321582,blackbeanswithrice,raspberries,0.11,0.25,0.14,raspberries,779.8000000715256,780,780.2000000476837,True,i,52552.799999952316,1295.6000000238419,1669831322877,1295,HRV,HRV_0168,2022-11-30 18:07:31
35,"[{'imgObject': {}, 'id': 'mango', 'src': '/static/foodstim60/mango.jpg', 'key': 'u', 'origWidth': 411, 'origHeight': 411, 'width': 411, 'height': 411, 'widthPercent': 0.45, 'rescaleHeight': False, 'trialN': 35, 'loaded': True, 'loadedTime': 3422.600000023842, 'positionName': 'LEFT', 'positionCoords': [80.52, 82.5], 'bid': 0.23}, {'imgObject': {}, 'id': 'cherries', 'src': '/static/foodstim60/cherries.jpg', 'key': 'i', 'origWidth': 410, 'origHeight': 411, 'width': 410, 'height': 411, 'widthPercent': 0.45, 'rescaleHeight': False, 'trialN': 35, 'loaded': True, 'loadedTime': 3689.899999976158, 'positionName': 'RIGHT', 'positionCoords': [532.48, 82.5], 'bid': 0.23}]",52553.0,1669831322878,mango,cherries,0.23,0.23,0.0,mango,1585.5,1585,1586.0,True,u,54658.199999928474,2105.1999999284744,1669831324983,2105,HRV,HRV_0168,2022-11-30 18:07:31
36,"[{'imgObject': {}, 'id': 'mashed potato', 'src': '/static/foodstim60/mashed potato.jpg', 'key': 'u', 'origWidth': 409, 'origHeight': 409, 'width': 409, 'height': 409, 'widthPercent': 0.45, 'rescaleHeight': False, 'trialN': 36, 'loaded': True, 'loadedTime': 3638.7999999523163, 'positionName': 'LEFT', 'positionCoords': [82.52, 83.5], 'bid': 3.28}, {'imgObject': {}, 'id': 'blueberries', 'src': '/static/foodstim60/blueberries.jpg', 'key': 'i', 'origWidth': 411, 'origHeight': 411, 'width': 411, 'height': 411, 'widthPercent': 0.45, 'rescaleHeight': False, 'trialN': 36, 'loaded': True, 'loadedTime': 3436.899999976158, 'positionName': 'RIGHT', 'positionCoords': [532.48, 82.5], 'bid': 2.89}]",54658.5,1669831324983,mashed potato,blueberries,3.28,2.89,-0.3899999999999997,mashed potato,1196.8999999761581,1197,1197.1999999284744,True,u,56376.60000002384,1718.1000000238419,1669831326701,1718,HRV,HRV_0168,2022-11-30 18:07:31
37,"[{'imgObject': {}, 'id': 'veggieswithdip', 'src': '/static/foodstim60/veggieswithdip.jpg', 'key': 'u', 'origWidth': 409, 'origHeight': 409, 'width': 409, 'height': 409, 'widthPercent': 0.45, 'rescaleHeight': False, 'trialN': 37, 'loaded': True, 'loadedTime': 3693.100000023842, 'positionName': 'LEFT', 'positionCoords': [82.52, 83.5], 'bid': 0.19}, {'imgObject': {}, 'id': 'lox', 'src': '/static/foodstim60/lox.jpg', 'key': 'i', 'origWidth': 410, 'origHeight': 411, 'width': 410, 'height': 411, 'widthPercent': 0.45, 'rescaleHeight': False, 'trialN': 37, 'loaded': True, 'loadedTime': 3527.7999999523163, 'positionName': 'RIGHT', 'positionCoords': [532.48, 82.5], 'bid': 0.09}]",56376.699999928474,1669831326701,veggieswithdip,lox,0.19,0.09,-0.1,veggieswithdip,843.9000000953674,844,844.3000000715256,True,u,57728.299999952316,1351.6000000238419,1669831328053,1352,HRV,HRV_0168,2022-11-30 18:07:31
38,"[{'imgObject': {}, 'id': 'hotdog w must', 'src': '/static/foodstim60/hotdog w must.jpg', 'key': 'u', 'origWidth': 409, 'origHeight': 409, 'width': 409, 'height': 409, 'widthPercent': 0.45, 'rescaleHeight': False, 'trialN': 38, 'loaded': True, 'loadedTime': 3693.5, 'positionName': 'LEFT', 'positionCoords': [82.52, 83.5], 'bid': 5.5600000000000005}, {'imgObject': {}, 'id': 'cherry tomato', 'src': '/static/foodstim60/cherry tomato.jpg', 'key': 'i', 'origWidth': 410, 'origHeight': 410, 'width': 410, 'height': 410, 'widthPercent': 0.45, 'rescaleHeight': False, 'trialN': 38, 'loaded': True, 'loadedTime': 3654.100000023842, 'positionName': 'RIGHT', 'positionCoords': [532.48, 83], 'bid': 0.19}]",57728.60000002384,1669831328053,hotdog w must,cherry tomato,5.5600000000000005,0.19,-5.37,hotdog w must,771.2999999523163,772,771.8999999761581,True,u,59007.699999928474,1279.0999999046326,1669831329332,1279,HRV,HRV_0168,2022-11-30 18:07:31
39,"[{'imgObject': {}, 'id': 'fried eggs', 'src': '/static/foodstim60/fried eggs.jpg', 'key': 'u', 'origWidth': 410, 'origHeight': 410, 'width': 410, 'height': 410, 'widthPercent': 0.45, 'rescaleHeight': False, 'trialN': 39, 'loaded': True, 'loadedTime': 3608.399999976158, 'positionName': 'LEFT', 'positionCoords': [81.52, 83], 'bid': 0.21}, {'imgObject': {}, 'id': 'mango', 'src': '/static/foodstim60/mango.jpg', 'key': 'i', 'origWidth': 411, 'origHeight': 411, 'width': 411, 'height': 411, 'widthPercent': 0.45, 'rescaleHeight': False, 'trialN': 39, 'loaded': True, 'loadedTime': 3421.600000023842, 'positionName': 'RIGHT', 'positionCoords': [532.48, 82.5], 'bid': 0.23}]",59007.89999997616,1669831329332,fried eggs,mango,0.21,0.23,0.020000000000000018,fried eggs,928.6000000238419,929,929.0,True,u,60447.10000002384,1439.2000000476837,1669831330772,1440,HRV,HRV_0168,2022-11-30 18:07:31
40,"[{'imgObject': {}, 'id': 'hashbrowns', 'src': '/static/foodstim60/hashbrowns.jpg', 'key': 'u', 'origWidth': 411, 'origHeight': 410, 'width': 411, 'height': 410, 'widthPercent': 0.45, 'rescaleHeight': False, 'trialN': 40, 'loaded': True, 'loadedTime': 3713.7999999523163, 'positionName': 'LEFT', 'positionCoords': [80.52, 83], 'bid': 1.73}, {'imgObject': {}, 'id': 'mashed potato', 'src': '/static/foodstim60/mashed potato.jpg', 'key': 'i', 'origWidth': 409, 'origHeight': 409, 'width': 409, 'height': 409, 'widthPercent': 0.45, 'rescaleHeight': False, 'trialN': 40, 'loaded': True, 'loadedTime': 3650.7999999523163, 'positionName': 'RIGHT', 'positionCoords': [532.48, 83.5], 'bid': 3.28}]",60447.299999952316,1669831330772,hashbrowns,mashed potato,1.73,3.28,1.5499999999999998,mashed potato,782.6000000238419,783,783.1000000238419,True,i,61743.299999952316,1296.0,1669831332068,1296,HRV,HRV_0168,2022-11-30 18:07:31
41,"[{'imgObject': {}, 'id': 'eggsalad', 'src': '/static/foodstim60/eggsalad.jpg', 'key': 'u', 'origWidth': 410, 'origHeight': 409, 'width': 410, 'height': 409, 'widthPercent': 0.45, 'rescaleHeight': False, 'trialN': 41, 'loaded': True, 'loadedTime': 3441, 'positionName': 'LEFT', 'positionCoords': [81.52, 83.5], 'bid': 0.72}, {'imgObject': {}, 'id': 'steak', 'src': '/static/foodstim60/steak.jpg', 'key': 'i', 'origWidth': 410, 'origHeight': 410, 'width': 410, 'height': 410, 'widthPercent': 0.45, 'rescaleHeight': False, 'trialN': 41, 'loaded': True, 'loadedTime': 3417.899999976158, 'positionName': 'RIGHT', 'positionCoords': [532.48, 83], 'bid': 8.39}]",61743.60000002384,1669831332068,eggsalad,steak,0.72,8.39,7.670000000000001,steak,822.0,822,822.2999999523163,True,i,63072.39999997616,1328.7999999523163,1669831333397,1329,HRV,HRV_0168,2022-11-30 18:07:31
42,"[{'imgObject': {}, 'id': 'avocado', 'src': '/static/foodstim60/avocado.jpg', 'key': 'u', 'origWidth': 409, 'origHeight': 409, 'width': 409, 'height': 409, 'widthPercent': 0.45, 'rescaleHeight': False, 'trialN': 42, 'loaded': True, 'loadedTime': 3626.2999999523163, 'positionName': 'LEFT', 'positionCoords': [82.52, 83.5], 'bid': 0.15}, {'imgObject': {}, 'id': 'granola w milk', 'src': '/static/foodstim60/granola w milk.jpg', 'key': 'i', 'origWidth': 410, 'origHeight': 410, 'width': 410, 'height': 410, 'widthPercent': 0.45, 'rescaleHeight': False, 'trialN': 42, 'loaded': True, 'loadedTime': 3576, 'positionName': 'RIGHT', 'positionCoords': [532.48, 83], 'bid': 0.13}]",63072.60000002384,1669831333397,avocado,granola w milk,0.15,0.13,-0.01999999999999999,granola w milk,1045.0,1045,1045.2999999523163,True,i,64633.39999997616,1560.7999999523163,1669831334958,1561,HRV,HRV_0168,2022-11-30 18:07:31
43,"[{'imgObject': {}, 'id': 'burger', 'src': '/static/foodstim60/burger.jpg', 'key': 'u', 'origWidth': 409, 'origHeight': 409, 'width': 409, 'height': 409, 'widthPercent': 0.45, 'rescaleHeight': False, 'trialN': 43, 'loaded': True, 'loadedTime': 3411.7999999523163, 'positionName': 'LEFT', 'positionCoords': [82.52, 83.5], 'bid': 7.44}, {'imgObject': {}, 'id': 'raspberries', 'src': '/static/foodstim60/raspberries.jpg', 'key': 'i', 'origWidth': 411, 'origHeight': 411, 'width': 411, 'height': 411, 'widthPercent': 0.45, 'rescaleHeight': False, 'trialN': 43, 'loaded': True, 'loadedTime': 3408.399999976158, 'positionName': 'RIGHT', 'positionCoords': [532.48, 82.5], 'bid': 0.25}]",64633.60000002384,1669831334958,burger,raspberries,7.44,0.25,-7.19,burger,830.2999999523163,831,830.5999999046326,True,u,65983.29999995232,1349.6999999284744,1669831336308,1350,HRV,HRV_0168,2022-11-30 18:07:31
44,"[{'imgObject': {}, 'id': 'turkeysandwich', 'src': '/static/foodstim60/turkeysandwich.jpg', 'key': 'u', 'origWidth': 409, 'origHeight': 409, 'width': 409, 'height': 409, 'widthPercent': 0.45, 'rescaleHeight': False, 'trialN': 44, 'loaded': True, 'loadedTime': 3381.899999976158, 'positionName': 'LEFT', 'positionCoords': [82.52, 83.5], 'bid': 7.03}, {'imgObject': {}, 'id': 'turkey sandwich', 'src': '/static/foodstim60/turkey sandwich.jpg', 'key': 'i', 'origWidth': 409, 'origHeight': 409, 'width': 409, 'height': 409, 'widthPercent': 0.45, 'rescaleHeight': False, 'trialN': 44, 'loaded': True, 'loadedTime': 3716.7999999523163, 'positionName': 'RIGHT', 'positionCoords': [532.48, 83.5], 'bid': 9.41}]",65983.5,1669831336308,turkeysandwich,turkey sandwich,7.03,9.41,2.38,turkey sandwich,734.6000000238419,735,735.1999999284744,True,i,67225.5,1242.0,1669831337550,1242,HRV,HRV_0168,2022-11-30 18:07:31
45,"[{'imgObject': {}, 'id': 'chickenfingers', 'src': '/static/foodstim60/chickenfingers.jpg', 'key': 'u', 'origWidth': 410, 'origHeight': 410, 'width': 410, 'height': 410, 'widthPercent': 0.45, 'rescaleHeight': False, 'trialN': 45, 'loaded': True, 'loadedTime': 3719.6999999284744, 'positionName': 'LEFT', 'positionCoords': [81.52, 83], 'bid': 9.84}, {'imgObject': {}, 'id': 'pear', 'src': '/static/foodstim60/pear.jpg', 'key': 'i', 'origWidth': 411, 'origHeight': 410, 'width': 411, 'height': 410, 'widthPercent': 0.45, 'rescaleHeight': False, 'trialN': 45, 'loaded': True, 'loadedTime': 3398.600000023842, 'positionName': 'RIGHT', 'positionCoords': [532.48, 83], 'bid': 6.28}]",67225.60000002384,1669831337550,chickenfingers,pear,9.84,6.28,-3.5599999999999996,chickenfingers,682.5,683,682.8999999761581,True,u,68423.69999992847,1198.0999999046326,1669831338748,1198,HRV,HRV_0168,2022-11-30 18:07:31
46,"[{'imgObject': {}, 'id': 'rigatoni', 'src': '/static/foodstim60/rigatoni.jpg', 'key': 'u', 'origWidth': 411, 'origHeight': 411, 'width': 411, 'height': 411, 'widthPercent': 0.45, 'rescaleHeight': False, 'trialN': 46, 'loaded': True, 'loadedTime': 3722, 'positionName': 'LEFT', 'positionCoords': [80.52, 82.5], 'bid': 2.89}, {'imgObject': {}, 'id': 'mango', 'src': '/static/foodstim60/mango.jpg', 'key': 'i', 'origWidth': 411, 'origHeight': 411, 'width': 411, 'height': 411, 'widthPercent': 0.45, 'rescaleHeight': False, 'trialN': 46, 'loaded': True, 'loadedTime': 3422, 'positionName': 'RIGHT', 'positionCoords': [532.48, 82.5], 'bid': 0.23}]",68423.89999997616,1669831338748,rigatoni,mango,2.89,0.23,-2.66,rigatoni,705.1000000238419,706,705.3999999761581,True,u,69643.60000002384,1219.7000000476837,1669831339968,1220,HRV,HRV_0168,2022-11-30 18:07:31
47,"[{'imgObject': {}, 'id': 'sweetpotato', 'src': '/static/foodstim60/sweetpotato.jpg', 'key': 'u', 'origWidth': 410, 'origHeight': 410, 'width': 410, 'height': 410, 'widthPercent': 0.45, 'rescaleHeight': False, 'trialN': 47, 'loaded': True, 'loadedTime': 3726.100000023842, 'positionName': 'LEFT', 'positionCoords': [81.52, 83], 'bid': 0.8}, {'imgObject': {}, 'id': 'avocado', 'src': '/static/foodstim60/avocado.jpg', 'key': 'i', 'origWidth': 409, 'origHeight': 409, 'width': 409, 'height': 409, 'widthPercent': 0.45, 'rescaleHeight': False, 'trialN': 47, 'loaded': True, 'loadedTime': 3624.7999999523163, 'positionName': 'RIGHT', 'positionCoords': [532.48, 83.5], 'bid': 0.15}]",69643.69999992847,1669831339968,sweetpotato,avocado,0.8,0.15,-0.65,sweetpotato,1011.4000000953674,1012,1011.7000000476837,True,u,71158.5,1514.8000000715256,1669831341483,1515,HRV,HRV_0168,2022-11-30 18:07:31
48,"[{'imgObject': {}, 'id': 'eggs', 'src': '/static/foodstim60/eggs.jpg', 'key': 'u', 'origWidth': 409, 'origHeight': 409, 'width': 409, 'height': 409, 'widthPercent': 0.45, 'rescaleHeight': False, 'trialN': 48, 'loaded': True, 'loadedTime': 3740, 'positionName': 'LEFT', 'positionCoords': [82.52, 83.5], 'bid': 0.91}, {'imgObject': {}, 'id': 'seaweed', 'src': '/static/foodstim60/seaweed.jpg', 'key': 'i', 'origWidth': 410, 'origHeight': 410, 'width': 410, 'height': 410, 'widthPercent': 0.45, 'rescaleHeight': False, 'trialN': 48, 'loaded': True, 'loadedTime': 3446, 'positionName': 'RIGHT', 'positionCoords': [532.48, 83], 'bid': 0.15}]",71158.79999995232,1669831341483,eggs,seaweed,0.91,0.15,-0.76,eggs,860.6000000238419,861,860.8999999761581,True,u,72524.29999995232,1365.5,1669831342849,1366,HRV,HRV_0168,2022-11-30 18:07:31
49,"[{'imgObject': {}, 'id': 'eggsalad', 'src': '/static/foodstim60/eggsalad.jpg', 'key': 'u', 'origWidth': 410, 'origHeight': 409, 'width': 410, 'height': 409, 'widthPercent': 0.45, 'rescaleHeight': False, 'trialN': 49, 'loaded': True, 'loadedTime': 3440.2999999523163, 'positionName': 'LEFT', 'positionCoords': [81.52, 83.5], 'bid': 0.72}, {'imgObject': {}, 'id': 'bagel plain', 'src': '/static/foodstim60/bagel plain.jpg', 'key': 'i', 'origWidth': 410, 'origHeight': 410, 'width': 410, 'height': 410, 'widthPercent': 0.45, 'rescaleHeight': False, 'trialN': 49, 'loaded': True, 'loadedTime': 3746.5, 'positionName': 'RIGHT', 'positionCoords': [532.48, 83], 'bid': 0.78}]",72524.29999995232,1669831342849,eggsalad,bagel plain,0.72,0.78,0.06000000000000005,eggsalad,1001.8999999761581,1002,1002.3000000715256,True,u,74033.39999997616,1509.1000000238419,1669831344358,1509,HRV,HRV_0168,2022-11-30 18:07:31
50,"[{'imgObject': {}, 'id': 'granola w milk', 'src': '/static/foodstim60/granola w milk.jpg', 'key': 'u', 'origWidth': 410, 'origHeight': 410, 'width': 410, 'height': 410, 'widthPercent': 0.45, 'rescaleHeight': False, 'trialN': 50, 'loaded': True, 'loadedTime': 3575.6999999284744, 'positionName': 'LEFT', 'positionCoords': [81.52, 83], 'bid': 0.13}, {'imgObject': {}, 'id': 'cherries', 'src': '/static/foodstim60/cherries.jpg', 'key': 'i', 'origWidth': 410, 'origHeight': 411, 'width': 410, 'height': 411, 'widthPercent': 0.45, 'rescaleHeight': False, 'trialN': 50, 'loaded': True, 'loadedTime': 3690.100000023842, 'positionName': 'RIGHT', 'positionCoords': [532.48, 82.5], 'bid': 0.23}]",74033.60000002384,1669831344358,granola w milk,cherries,0.13,0.23,0.1,cherries,1045.2999999523163,1046,1045.6999999284744,True,i,75592.5,1558.8999999761581,1669831345917,1559,HRV,HRV_0168,2022-11-30 18:07:31
51,"[{'imgObject': {}, 'id': 'froot loops w milk', 'src': '/static/foodstim60/froot loops w milk.jpg', 'key': 'u', 'origWidth': 410, 'origHeight': 410, 'width': 410, 'height': 410, 'widthPercent': 0.45, 'rescaleHeight': False, 'trialN': 51, 'loaded': True, 'loadedTime': 3749.6999999284744, 'positionName': 'LEFT', 'positionCoords': [81.52, 83], 'bid': 5.3500000000000005}, {'imgObject': {}, 'id': 'veggieswithdip', 'src': '/static/foodstim60/veggieswithdip.jpg', 'key': 'i', 'origWidth': 409, 'origHeight': 409, 'width': 409, 'height': 409, 'widthPercent': 0.45, 'rescaleHeight': False, 'trialN': 51, 'loaded': True, 'loadedTime': 3692.100000023842, 'positionName': 'RIGHT', 'positionCoords': [532.48, 83.5], 'bid': 0.19}]",75592.69999992847,1669831345917,froot loops w milk,veggieswithdip,5.3500000000000005,0.19,-5.16,froot loops w milk,937.5,938,937.9000000953674,True,u,77037.0,1444.3000000715256,1669831347361,1444,HRV,HRV_0168,2022-11-30 18:07:31
52,"[{'imgObject': {}, 'id': 'salmon', 'src': '/static/foodstim60/salmon.jpg', 'key': 'u', 'origWidth': 410, 'origHeight': 409, 'width': 410, 'height': 409, 'widthPercent': 0.45, 'rescaleHeight': False, 'trialN': 52, 'loaded': True, 'loadedTime': 3441.1999999284744, 'positionName': 'LEFT', 'positionCoords': [81.52, 83.5], 'bid': 0.15}, {'imgObject': {}, 'id': 'edamame', 'src': '/static/foodstim60/edamame.jpg', 'key': 'i', 'origWidth': 409, 'origHeight': 410, 'width': 409, 'height': 410, 'widthPercent': 0.45, 'rescaleHeight': False, 'trialN': 52, 'loaded': True, 'loadedTime': 3577.600000023842, 'positionName': 'RIGHT', 'positionCoords': [532.48, 83], 'bid': 0.11}]",77037.19999992847,1669831347362,salmon,edamame,0.15,0.11,-0.039999999999999994,salmon,1098.3000000715256,1098,1098.7000000476837,True,u,78653.29999995232,1616.1000000238419,1669831348978,1616,HRV,HRV_0168,2022-11-30 18:07:31
53,"[{'imgObject': {}, 'id': 'chicken nuggets2', 'src': '/static/foodstim60/chicken nuggets2.jpg', 'key': 'u', 'origWidth': 410, 'origHeight': 409, 'width': 410, 'height': 409, 'widthPercent': 0.45, 'rescaleHeight': False, 'trialN': 53, 'loaded': True, 'loadedTime': 3506.2999999523163, 'positionName': 'LEFT', 'positionCoords': [81.52, 83.5], 'bid': 9.72}, {'imgObject': {}, 'id': 'salad w chicken', 'src': '/static/foodstim60/salad w chicken.jpg', 'key': 'i', 'origWidth': 411, 'origHeight': 411, 'width': 411, 'height': 411, 'widthPercent': 0.45, 'rescaleHeight': False, 'trialN': 53, 'loaded': True, 'loadedTime': 3753.899999976158, 'positionName': 'RIGHT', 'positionCoords': [532.48, 82.5], 'bid': 7.67}]",78653.60000002384,1669831348978,chicken nuggets2,salad w chicken,9.72,7.67,-2.0500000000000007,chicken nuggets2,701.7999999523163,702,702.1999999284744,True,u,79864.10000002384,1210.5,1669831350189,1211,HRV,HRV_0168,2022-11-30 18:07:31
54,"[{'imgObject': {}, 'id': 'tacos', 'src': '/static/foodstim60/tacos.jpg', 'key': 'u', 'origWidth': 411, 'origHeight': 411, 'width': 411, 'height': 411, 'widthPercent': 0.45, 'rescaleHeight': False, 'trialN': 54, 'loaded': True, 'loadedTime': 3582.5, 'positionName': 'LEFT', 'positionCoords': [80.52, 82.5], 'bid': 8.1}, {'imgObject': {}, 'id': 'chickenfingers', 'src': '/static/foodstim60/chickenfingers.jpg', 'key': 'i', 'origWidth': 410, 'origHeight': 410, 'width': 410, 'height': 410, 'widthPercent': 0.45, 'rescaleHeight': False, 'trialN': 54, 'loaded': True, 'loadedTime': 3720.1999999284744, 'positionName': 'RIGHT', 'positionCoords': [532.48, 83], 'bid': 9.84}]",79864.19999992847,1669831350189,tacos,chickenfingers,8.1,9.84,1.7400000000000002,chickenfingers,763.7000000476837,764,764.3000000715256,True,i,81133.19999992847,1269.0,1669831351458,1269,HRV,HRV_0168,2022-11-30 18:07:31
55,"[{'imgObject': {}, 'id': 'fried eggs', 'src': '/static/foodstim60/fried eggs.jpg', 'key': 'u', 'origWidth': 410, 'origHeight': 410, 'width': 410, 'height': 410, 'widthPercent': 0.45, 'rescaleHeight': False, 'trialN': 55, 'loaded': True, 'loadedTime': 3606.6999999284744, 'positionName': 'LEFT', 'positionCoords': [81.52, 83], 'bid': 0.21}, {'imgObject': {}, 'id': 'olives', 'src': '/static/foodstim60/olives.jpg', 'key': 'i', 'origWidth': 410, 'origHeight': 410, 'width': 410, 'height': 410, 'widthPercent': 0.45, 'rescaleHeight': False, 'trialN': 55, 'loaded': True, 'loadedTime': 3507.7999999523163, 'positionName': 'RIGHT', 'positionCoords': [532.48, 83], 'bid': 0.11}]",81133.39999997616,1669831351458,fried eggs,olives,0.21,0.11,-0.09999999999999999,fried eggs,687.8999999761581,688,688.2999999523163,True,u,82336.39999997616,1203.0,1669831352661,1203,HRV,HRV_0168,2022-11-30 18:07:31
56,"[{'imgObject': {}, 'id': 'yogurt no spoon', 'src': '/static/foodstim60/yogurt no spoon.jpg', 'key': 'u', 'origWidth': 411, 'origHeight': 410, 'width': 411, 'height': 410, 'widthPercent': 0.45, 'rescaleHeight': False, 'trialN': 56, 'loaded': True, 'loadedTime': 3609.100000023842, 'positionName': 'LEFT', 'positionCoords': [80.52, 83], 'bid': 4.16}, {'imgObject': {}, 'id': 'edamame', 'src': '/static/foodstim60/edamame.jpg', 'key': 'i', 'origWidth': 409, 'origHeight': 410, 'width': 409, 'height': 410, 'widthPercent': 0.45, 'rescaleHeight': False, 'trialN': 56, 'loaded': True, 'loadedTime': 3576.100000023842, 'positionName': 'RIGHT', 'positionCoords': [532.48, 83], 'bid': 0.11}]",82336.60000002384,1669831352661,yogurt no spoon,edamame,4.16,0.11,-4.05,yogurt no spoon,792.7999999523163,793,793.1999999284744,True,u,83637.10000002384,1300.5,1669831353962,1301,HRV,HRV_0168,2022-11-30 18:07:31
57,"[{'imgObject': {}, 'id': 'shreddedwheatwithmilk', 'src': '/static/foodstim60/shreddedwheatwithmilk.jpg', 'key': 'u', 'origWidth': 410, 'origHeight': 410, 'width': 410, 'height': 410, 'widthPercent': 0.45, 'rescaleHeight': False, 'trialN': 57, 'loaded': True, 'loadedTime': 3502.5, 'positionName': 'LEFT', 'positionCoords': [81.52, 83], 'bid': 2.36}, {'imgObject': {}, 'id': 'hashbrowns', 'src': '/static/foodstim60/hashbrowns.jpg', 'key': 'i', 'origWidth': 411, 'origHeight': 410, 'width': 411, 'height': 410, 'widthPercent': 0.45, 'rescaleHeight': False, 'trialN': 57, 'loaded': True, 'loadedTime': 3712.899999976158, 'positionName': 'RIGHT', 'positionCoords': [532.48, 83], 'bid': 1.73}]",83637.29999995232,1669831353962,shreddedwheatwithmilk,hashbrowns,2.36,1.73,-0.6299999999999999,shreddedwheatwithmilk,843.8999999761581,844,844.3999999761581,True,u,85002.5,1365.2000000476837,1669831355327,1365,HRV,HRV_0168,2022-11-30 18:07:31
58,"[{'imgObject': {}, 'id': 'mashed potato', 'src': '/static/foodstim60/mashed potato.jpg', 'key': 'u', 'origWidth': 409, 'origHeight': 409, 'width': 409, 'height': 409, 'widthPercent': 0.45, 'rescaleHeight': False, 'trialN': 58, 'loaded': True, 'loadedTime': 3639, 'positionName': 'LEFT', 'positionCoords': [82.52, 83.5], 'bid': 3.28}, {'imgObject': {}, 'id': 'bagel plain', 'src': '/static/foodstim60/bagel plain.jpg', 'key': 'i', 'origWidth': 410, 'origHeight': 410, 'width': 410, 'height': 410, 'widthPercent': 0.45, 'rescaleHeight': False, 'trialN': 58, 'loaded': True, 'loadedTime': 3740.7999999523163, 'positionName': 'RIGHT', 'positionCoords': [532.48, 83], 'bid': 0.78}]",85002.69999992847,1669831355327,mashed potato,bagel plain,3.28,0.78,-2.5,mashed potato,900.3000000715256,901,900.6000000238419,True,u,86413.60000002384,1410.9000000953674,1669831356738,1411,HRV,HRV_0168,2022-11-30 18:07:31
59,"[{'imgObject': {}, 'id': 'seaweed', 'src': '/static/foodstim60/seaweed.jpg', 'key': 'u', 'origWidth': 410, 'origHeight': 410, 'width': 410, 'height': 410, 'widthPercent': 0.45, 'rescaleHeight': False, 'trialN': 59, 'loaded': True, 'loadedTime': 3446.6999999284744, 'positionName': 'LEFT', 'positionCoords': [81.52, 83], 'bid': 0.15}, {'imgObject': {}, 'id': 'veggieswithdip', 'src': '/static/foodstim60/veggieswithdip.jpg', 'key': 'i', 'origWidth': 409, 'origHeight': 409, 'width': 409, 'height': 409, 'widthPercent': 0.45, 'rescaleHeight': False, 'trialN': 59, 'loaded': True, 'loadedTime': 3690.2999999523163, 'positionName': 'RIGHT', 'positionCoords': [532.48, 83.5], 'bid': 0.19}]",86413.79999995232,1669831356738,seaweed,veggieswithdip,0.15,0.19,0.04000000000000001,veggieswithdip,984.1000000238419,985,984.6000000238419,True,i,87907.60000002384,1493.8000000715256,1669831358232,1494,HRV,HRV_0168,2022-11-30 18:07:31
60,"[{'imgObject': {}, 'id': 'veggieswithdip', 'src': '/static/foodstim60/veggieswithdip.jpg', 'key': 'u', 'origWidth': 409, 'origHeight': 409, 'width': 409, 'height': 409, 'widthPercent': 0.45, 'rescaleHeight': False, 'trialN': 60, 'loaded': True, 'loadedTime': 3693.399999976158, 'positionName': 'LEFT', 'positionCoords': [82.52, 83.5], 'bid': 0.19}, {'imgObject': {}, 'id': 'edamame', 'src': '/static/foodstim60/edamame.jpg', 'key': 'i', 'origWidth': 409, 'origHeight': 410, 'width': 409, 'height': 410, 'widthPercent': 0.45, 'rescaleHeight': False, 'trialN': 60, 'loaded': True, 'loadedTime': 3577.899999976158, 'positionName': 'RIGHT', 'positionCoords': [532.48, 83], 'bid': 0.11}]",87907.89999997616,1669831358232,veggieswithdip,edamame,0.19,0.11,-0.08,veggieswithdip,762.0,763,762.2999999523163,True,u,89182.60000002384,1274.7000000476837,1669831359507,1275,HRV,HRV_0168,2022-11-30 18:07:31
61,"[{'imgObject': {}, 'id': 'rigatoni and sauce', 'src': '/static/foodstim60/rigatoni and sauce.jpg', 'key': 'u', 'origWidth': 410, 'origHeight': 411, 'width': 410, 'height': 411, 'widthPercent': 0.45, 'rescaleHeight': False, 'trialN': 61, 'loaded': True, 'loadedTime': 3757.2999999523163, 'positionName': 'LEFT', 'positionCoords': [81.52, 82.5], 'bid': 9.76}, {'imgObject': {}, 'id': 'Grapes', 'src': '/static/foodstim60/Grapes.jpg', 'key': 'i', 'origWidth': 411, 'origHeight': 411, 'width': 411, 'height': 411, 'widthPercent': 0.45, 'rescaleHeight': False, 'trialN': 61, 'loaded': True, 'loadedTime': 3414.7999999523163, 'positionName': 'RIGHT', 'positionCoords': [532.48, 82.5], 'bid': 8.06}]",89182.79999995232,1669831359507,rigatoni and sauce,Grapes,9.76,8.06,-1.6999999999999993,rigatoni and sauce,718.0,719,718.3000000715256,True,u,90412.29999995232,1229.5,1669831360737,1230,HRV,HRV_0168,2022-11-30 18:07:31
62,"[{'imgObject': {}, 'id': 'cantaloupe', 'src': '/static/foodstim60/cantaloupe.jpg', 'key': 'u', 'origWidth': 409, 'origHeight': 409, 'width': 409, 'height': 409, 'widthPercent': 0.45, 'rescaleHeight': False, 'trialN': 62, 'loaded': True, 'loadedTime': 3405, 'positionName': 'LEFT', 'positionCoords': [82.52, 83.5], 'bid': 0.39}, {'imgObject': {}, 'id': 'Grapes', 'src': '/static/foodstim60/Grapes.jpg', 'key': 'i', 'origWidth': 411, 'origHeight': 411, 'width': 411, 'height': 411, 'widthPercent': 0.45, 'rescaleHeight': False, 'trialN': 62, 'loaded': True, 'loadedTime': 3412.600000023842, 'positionName': 'RIGHT', 'positionCoords': [532.48, 82.5], 'bid': 8.06}]",90412.69999992847,1669831360737,cantaloupe,Grapes,0.39,8.06,7.670000000000001,Grapes,923.5,924,923.9000000953674,True,i,91847.10000002384,1434.4000000953674,1669831362172,1435,HRV,HRV_0168,2022-11-30 18:07:31
63,"[{'imgObject': {}, 'id': 'cherry tomato', 'src': '/static/foodstim60/cherry tomato.jpg', 'key': 'u', 'origWidth': 410, 'origHeight': 410, 'width': 410, 'height': 410, 'widthPercent': 0.45, 'rescaleHeight': False, 'trialN': 63, 'loaded': True, 'loadedTime': 3654, 'positionName': 'LEFT', 'positionCoords': [81.52, 83], 'bid': 0.19}, {'imgObject': {}, 'id': 'blackbeanswithrice', 'src': '/static/foodstim60/blackbeanswithrice.jpg', 'key': 'i', 'origWidth': 410, 'origHeight': 410, 'width': 410, 'height': 410, 'widthPercent': 0.45, 'rescaleHeight': False, 'trialN': 63, 'loaded': True, 'loadedTime': 3633.399999976158, 'positionName': 'RIGHT', 'positionCoords': [532.48, 83], 'bid': 0.11}]",91847.29999995232,1669831362172,cherry tomato,blackbeanswithrice,0.19,0.11,-0.08,cherry tomato,875.0,875,875.3999999761581,True,u,93242.79999995232,1395.5,1669831363567,1395,HRV,HRV_0168,2022-11-30 18:07:31
64,"[{'imgObject': {}, 'id': 'salad w chicken', 'src': '/static/foodstim60/salad w chicken.jpg', 'key': 'u', 'origWidth': 411, 'origHeight': 411, 'width': 411, 'height': 411, 'widthPercent': 0.45, 'rescaleHeight': False, 'trialN': 64, 'loaded': True, 'loadedTime': 3755.100000023842, 'positionName': 'LEFT', 'positionCoords': [80.52, 82.5], 'bid': 7.67}, {'imgObject': {}, 'id': 'burger', 'src': '/static/foodstim60/burger.jpg', 'key': 'i', 'origWidth': 409, 'origHeight': 409, 'width': 409, 'height': 409, 'widthPercent': 0.45, 'rescaleHeight': False, 'trialN': 64, 'loaded': True, 'loadedTime': 3411.899999976158, 'positionName': 'RIGHT', 'positionCoords': [532.48, 83.5], 'bid': 7.44}]",93243.0,1669831363567,salad w chicken,burger,7.67,7.44,-0.22999999999999954,salad w chicken,1089.6999999284744,1091,1090.1000000238419,True,u,94846.79999995232,1603.7999999523163,1669831365171,1604,HRV,HRV_0168,2022-11-30 18:07:31
65,"[{'imgObject': {}, 'id': 'kiwi', 'src': '/static/foodstim60/kiwi.jpg', 'key': 'u', 'origWidth': 410, 'origHeight': 410, 'width': 410, 'height': 410, 'widthPercent': 0.45, 'rescaleHeight': False, 'trialN': 65, 'loaded': True, 'loadedTime': 3655.899999976158, 'positionName': 'LEFT', 'positionCoords': [81.52, 83], 'bid': 0.19}, {'imgObject': {}, 'id': 'popsicles', 'src': '/static/foodstim60/popsicles.jpg', 'key': 'i', 'origWidth': 410, 'origHeight': 410, 'width': 410, 'height': 410, 'widthPercent': 0.45, 'rescaleHeight': False, 'trialN': 65, 'loaded': True, 'loadedTime': 3779.5, 'positionName': 'RIGHT', 'positionCoords': [532.48, 83], 'bid': 0.97}]",94846.89999997616,1669831365171,kiwi,popsicles,0.19,0.97,0.78,popsicles,1728.2999999523163,1729,1728.6000000238419,True,i,97087.19999992847,2240.2999999523163,1669831367412,2241,HRV,HRV_0168,2022-11-30 18:07:31
66,"[{'imgObject': {}, 'id': 'burger', 'src': '/static/foodstim60/burger.jpg', 'key': 'u', 'origWidth': 409, 'origHeight': 409, 'width': 409, 'height': 409, 'widthPercent': 0.45, 'rescaleHeight': False, 'trialN': 66, 'loaded': True, 'loadedTime': 3412.1999999284744, 'positionName': 'LEFT', 'positionCoords': [82.52, 83.5], 'bid': 7.44}, {'imgObject': {}, 'id': 'mashed potato', 'src': '/static/foodstim60/mashed potato.jpg', 'key': 'i', 'origWidth': 409, 'origHeight': 409, 'width': 409, 'height': 409, 'widthPercent': 0.45, 'rescaleHeight': False, 'trialN': 66, 'loaded': True, 'loadedTime': 3637.100000023842, 'positionName': 'RIGHT', 'positionCoords': [532.48, 83.5], 'bid': 3.28}]",97087.5,1669831367412,burger,mashed potato,7.44,3.28,-4.16,burger,1331.0,1331,1331.3999999761581,True,u,98937.10000002384,1849.6000000238419,1669831369262,1850,HRV,HRV_0168,2022-11-30 18:07:31
67,"[{'imgObject': {}, 'id': 'rigatoni and sauce', 'src': '/static/foodstim60/rigatoni and sauce.jpg', 'key': 'u', 'origWidth': 410, 'origHeight': 411, 'width': 410, 'height': 411, 'widthPercent': 0.45, 'rescaleHeight': False, 'trialN': 67, 'loaded': True, 'loadedTime': 3755.5, 'positionName': 'LEFT', 'positionCoords': [81.52, 82.5], 'bid': 9.76}, {'imgObject': {}, 'id': 'roastedpotatoes', 'src': '/static/foodstim60/roastedpotatoes.jpg', 'key': 'i', 'origWidth': 409, 'origHeight': 410, 'width': 409, 'height': 410, 'widthPercent': 0.45, 'rescaleHeight': False, 'trialN': 67, 'loaded': True, 'loadedTime': 3760.399999976158, 'positionName': 'RIGHT', 'positionCoords': [532.48, 83], 'bid': 5.58}]",98937.19999992847,1669831369262,rigatoni and sauce,roastedpotatoes,9.76,5.58,-4.18,rigatoni and sauce,701.0,701,701.3000000715256,True,u,100143.5,1206.3000000715256,1669831370468,1206,HRV,HRV_0168,2022-11-30 18:07:31
68,"[{'imgObject': {}, 'id': 'cantaloupe', 'src': '/static/foodstim60/cantaloupe.jpg', 'key': 'u', 'origWidth': 409, 'origHeight': 409, 'width': 409, 'height': 409, 'widthPercent': 0.45, 'rescaleHeight': False, 'trialN': 68, 'loaded': True, 'loadedTime': 3405.600000023842, 'positionName': 'LEFT', 'positionCoords': [82.52, 83.5], 'bid': 0.39}, {'imgObject': {}, 'id': 'raisin bran w milk', 'src': '/static/foodstim60/raisin bran w milk.jpg', 'key': 'i', 'origWidth': 411, 'origHeight': 411, 'width': 411, 'height': 411, 'widthPercent': 0.45, 'rescaleHeight': False, 'trialN': 68, 'loaded': True, 'loadedTime': 3552.2999999523163, 'positionName': 'RIGHT', 'positionCoords': [532.48, 82.5], 'bid': 0.52}]",100143.69999992847,1669831370468,cantaloupe,raisin bran w milk,0.39,0.52,0.13,cantaloupe,893.4000000953674,894,893.8000000715256,True,u,101543.5,1399.8000000715256,1669831371868,1400,HRV,HRV_0168,2022-11-30 18:07:31
69,"[{'imgObject': {}, 'id': 'mango', 'src': '/static/foodstim60/mango.jpg', 'key': 'u', 'origWidth': 411, 'origHeight': 411, 'width': 411, 'height': 411, 'widthPercent': 0.45, 'rescaleHeight': False, 'trialN': 69, 'loaded': True, 'loadedTime': 3423, 'positionName': 'LEFT', 'positionCoords': [80.52, 82.5], 'bid': 0.23}, {'imgObject': {}, 'id': 'eggsalad', 'src': '/static/foodstim60/eggsalad.jpg', 'key': 'i', 'origWidth': 410, 'origHeight': 409, 'width': 410, 'height': 409, 'widthPercent': 0.45, 'rescaleHeight': False, 'trialN': 69, 'loaded': True, 'loadedTime': 3440.600000023842, 'positionName': 'RIGHT', 'positionCoords': [532.48, 83.5], 'bid': 0.72}]",101543.69999992847,1669831371868,mango,eggsalad,0.23,0.72,0.49,eggsalad,862.9000000953674,863,863.3000000715256,True,i,102913.79999995232,1370.1000000238419,1669831373238,1370,HRV,HRV_0168,2022-11-30 18:07:31
70,"[{'imgObject': {}, 'id': 'cocktailshrimp', 'src': '/static/foodstim60/cocktailshrimp.jpg', 'key': 'u', 'origWidth': 410, 'origHeight': 410, 'width': 410, 'height': 410, 'widthPercent': 0.45, 'rescaleHeight': False, 'trialN': 70, 'loaded': True, 'loadedTime': 3549.6999999284744, 'positionName': 'LEFT', 'positionCoords': [81.52, 83], 'bid': 0.21}, {'imgObject': {}, 'id': 'roastedpotatoes', 'src': '/static/foodstim60/roastedpotatoes.jpg', 'key': 'i', 'origWidth': 409, 'origHeight': 410, 'width': 409, 'height': 410, 'widthPercent': 0.45, 'rescaleHeight': False, 'trialN': 70, 'loaded': True, 'loadedTime': 3758.5, 'positionName': 'RIGHT', 'positionCoords': [532.48, 83], 'bid': 5.58}]",102914.0,1669831373238,cocktailshrimp,roastedpotatoes,0.21,5.58,5.37,roastedpotatoes,852.5,853,852.8999999761581,True,i,104277.29999995232,1363.2999999523163,1669831374602,1364,HRV,HRV_0168,2022-11-30 18:07:31
71,"[{'imgObject': {}, 'id': 'baked potato', 'src': '/static/foodstim60/baked potato.jpg', 'key': 'u', 'origWidth': 409, 'origHeight': 410, 'width': 409, 'height': 410, 'widthPercent': 0.45, 'rescaleHeight': False, 'trialN': 71, 'loaded': True, 'loadedTime': 3686.7999999523163, 'positionName': 'LEFT', 'positionCoords': [82.52, 83], 'bid': 3.45}, {'imgObject': {}, 'id': 'Tribe humus pita', 'src': '/static/foodstim60/Tribe humus pita.jpg', 'key': 'i', 'origWidth': 411, 'origHeight': 411, 'width': 411, 'height': 411, 'widthPercent': 0.45, 'rescaleHeight': False, 'trialN': 71, 'loaded': True, 'loadedTime': 3763.399999976158, 'positionName': 'RIGHT', 'positionCoords': [532.48, 82.5], 'bid': 3.59}]",104277.39999997616,1669831374602,baked potato,Tribe humus pita,3.45,3.59,0.13999999999999968,Tribe humus pita,1143.0,1143,1143.2999999523163,True,i,105936.89999997616,1659.5,1669831376261,1659,HRV,HRV_0168,2022-11-30 18:07:31
72,"[{'imgObject': {}, 'id': 'popsicles', 'src': '/static/foodstim60/popsicles.jpg', 'key': 'u', 'origWidth': 410, 'origHeight': 410, 'width': 410, 'height': 410, 'widthPercent': 0.45, 'rescaleHeight': False, 'trialN': 72, 'loaded': True, 'loadedTime': 3782, 'positionName': 'LEFT', 'positionCoords': [81.52, 83], 'bid': 0.97}, {'imgObject': {}, 'id': 'omelette', 'src': '/static/foodstim60/omelette.jpg', 'key': 'i', 'origWidth': 410, 'origHeight': 409, 'width': 410, 'height': 409, 'widthPercent': 0.45, 'rescaleHeight': False, 'trialN': 72, 'loaded': True, 'loadedTime': 3764.1999999284744, 'positionName': 'RIGHT', 'positionCoords': [532.48, 83.5], 'bid': 2.22}]",105937.10000002384,1669831376262,popsicles,omelette,0.97,2.22,1.2500000000000002,omelette,1076.6999999284744,1077,1077.0999999046326,True,i,107517.39999997616,1580.2999999523163,1669831377842,1580,HRV,HRV_0168,2022-11-30 18:07:31
73,"[{'imgObject': {}, 'id': 'chickenfingers', 'src': '/static/foodstim60/chickenfingers.jpg', 'key': 'u', 'origWidth': 410, 'origHeight': 410, 'width': 410, 'height': 410, 'widthPercent': 0.45, 'rescaleHeight': False, 'trialN': 73, 'loaded': True, 'loadedTime': 3719.7999999523163, 'positionName': 'LEFT', 'positionCoords': [81.52, 83], 'bid': 9.84}, {'imgObject': {}, 'id': 'grilled chicken strips', 'src': '/static/foodstim60/grilled chicken strips.jpg', 'key': 'i', 'origWidth': 410, 'origHeight': 411, 'width': 410, 'height': 411, 'widthPercent': 0.45, 'rescaleHeight': False, 'trialN': 73, 'loaded': True, 'loadedTime': 3661.1999999284744, 'positionName': 'RIGHT', 'positionCoords': [532.48, 82.5], 'bid': 9.27}]",107517.5,1669831377842,chickenfingers,grilled chicken strips,9.84,9.27,-0.5700000000000003,grilled chicken strips,799.3999999761581,800,799.8999999761581,True,i,108832.89999997616,1315.3999999761581,1669831379157,1315,HRV,HRV_0168,2022-11-30 18:07:31
74,"[{'imgObject': {}, 'id': 'turkey sandwich', 'src': '/static/foodstim60/turkey sandwich.jpg', 'key': 'u', 'origWidth': 409, 'origHeight': 409, 'width': 409, 'height': 409, 'widthPercent': 0.45, 'rescaleHeight': False, 'trialN': 74, 'loaded': True, 'loadedTime': 3716.100000023842, 'positionName': 'LEFT', 'positionCoords': [82.52, 83.5], 'bid': 9.41}, {'imgObject': {}, 'id': 'froot loops w milk', 'src': '/static/foodstim60/froot loops w milk.jpg', 'key': 'i', 'origWidth': 410, 'origHeight': 410, 'width': 410, 'height': 410, 'widthPercent': 0.45, 'rescaleHeight': False, 'trialN': 74, 'loaded': True, 'loadedTime': 3750.100000023842, 'positionName': 'RIGHT', 'positionCoords': [532.48, 83], 'bid': 5.3500000000000005}]",108833.0,1669831379157,turkey sandwich,froot loops w milk,9.41,5.3500000000000005,-4.06,turkey sandwich,1117.1999999284744,1118,1117.6000000238419,True,u,110463.39999997616,1630.3999999761581,1669831380788,1631,HRV,HRV_0168,2022-11-30 18:07:31
75,"[{'imgObject': {}, 'id': 'mac & cheese', 'src': '/static/foodstim60/mac & cheese.jpg', 'key': 'u', 'origWidth': 410, 'origHeight': 410, 'width': 410, 'height': 410, 'widthPercent': 0.45, 'rescaleHeight': False, 'trialN': 75, 'loaded': True, 'loadedTime': 3477, 'positionName': 'LEFT', 'positionCoords': [81.52, 83], 'bid': 9.43}, {'imgObject': {}, 'id': 'omelette', 'src': '/static/foodstim60/omelette.jpg', 'key': 'i', 'origWidth': 410, 'origHeight': 409, 'width': 410, 'height': 409, 'widthPercent': 0.45, 'rescaleHeight': False, 'trialN': 75, 'loaded': True, 'loadedTime': 3766.100000023842, 'positionName': 'RIGHT', 'positionCoords': [532.48, 83.5], 'bid': 2.22}]",110463.60000002384,1669831380788,mac & cheese,omelette,9.43,2.22,-7.209999999999999,mac & cheese,754.8999999761581,755,755.1999999284744,True,u,111738.19999992847,1274.5999999046326,1669831382063,1275,HRV,HRV_0168,2022-11-30 18:07:31
76,"[{'imgObject': {}, 'id': 'hotdog w must', 'src': '/static/foodstim60/hotdog w must.jpg', 'key': 'u', 'origWidth': 409, 'origHeight': 409, 'width': 409, 'height': 409, 'widthPercent': 0.45, 'rescaleHeight': False, 'trialN': 76, 'loaded': True, 'loadedTime': 3695.7999999523163, 'positionName': 'LEFT', 'positionCoords': [82.52, 83.5], 'bid': 5.5600000000000005}, {'imgObject': {}, 'id': 'roastedpotatoes', 'src': '/static/foodstim60/roastedpotatoes.jpg', 'key': 'i', 'origWidth': 409, 'origHeight': 410, 'width': 409, 'height': 410, 'widthPercent': 0.45, 'rescaleHeight': False, 'trialN': 76, 'loaded': True, 'loadedTime': 3760.100000023842, 'positionName': 'RIGHT', 'positionCoords': [532.48, 83], 'bid': 5.58}]",111738.5,1669831382063,hotdog w must,roastedpotatoes,5.5600000000000005,5.58,0.019999999999999574,hotdog w must,1230.7999999523163,1231,1231.1999999284744,True,u,113487.0,1748.5,1669831383811,1748,HRV,HRV_0168,2022-11-30 18:07:31
77,"[{'imgObject': {}, 'id': 'blueberries', 'src': '/static/foodstim60/blueberries.jpg', 'key': 'u', 'origWidth': 411, 'origHeight': 411, 'width': 411, 'height': 411, 'widthPercent': 0.45, 'rescaleHeight': False, 'trialN': 77, 'loaded': True, 'loadedTime': 3437.600000023842, 'positionName': 'LEFT', 'positionCoords': [80.52, 82.5], 'bid': 2.89}, {'imgObject': {}, 'id': 'corn cob', 'src': '/static/foodstim60/corn cob.jpg', 'key': 'i', 'origWidth': 411, 'origHeight': 411, 'width': 411, 'height': 411, 'widthPercent': 0.45, 'rescaleHeight': False, 'trialN': 77, 'loaded': True, 'loadedTime': 3768.899999976158, 'positionName': 'RIGHT', 'positionCoords': [532.48, 82.5], 'bid': 2.65}]",113487.19999992847,1669831383812,blueberries,corn cob,2.89,2.65,-0.2400000000000002,corn cob,922.6000000238419,923,923.0,True,i,114926.60000002384,1439.4000000953674,1669831385251,1439,HRV,HRV_0168,2022-11-30 18:07:31
78,"[{'imgObject': {}, 'id': 'luckycharms', 'src': '/static/foodstim60/luckycharms.jpg', 'key': 'u', 'origWidth': 410, 'origHeight': 409, 'width': 410, 'height': 409, 'widthPercent': 0.45, 'rescaleHeight': False, 'trialN': 78, 'loaded': True, 'loadedTime': 3423.2999999523163, 'positionName': 'LEFT', 'positionCoords': [81.52, 83.5], 'bid': 5.58}, {'imgObject': {}, 'id': 'froot loops w milk', 'src': '/static/foodstim60/froot loops w milk.jpg', 'key': 'i', 'origWidth': 410, 'origHeight': 410, 'width': 410, 'height': 410, 'widthPercent': 0.45, 'rescaleHeight': False, 'trialN': 78, 'loaded': True, 'loadedTime': 3747.899999976158, 'positionName': 'RIGHT', 'positionCoords': [532.48, 83], 'bid': 5.3500000000000005}]",114926.89999997616,1669831385251,luckycharms,froot loops w milk,5.58,5.3500000000000005,-0.22999999999999954,froot loops w milk,1023.3999999761581,1024,1023.7000000476837,True,i,116462.69999992847,1535.7999999523163,1669831386787,1536,HRV,HRV_0168,2022-11-30 18:07:31
79,"[{'imgObject': {}, 'id': 'corn cob', 'src': '/static/foodstim60/corn cob.jpg', 'key': 'u', 'origWidth': 411, 'origHeight': 411, 'width': 411, 'height': 411, 'widthPercent': 0.45, 'rescaleHeight': False, 'trialN': 79, 'loaded': True, 'loadedTime': 3768.1999999284744, 'positionName': 'LEFT', 'positionCoords': [80.52, 82.5], 'bid': 2.65}, {'imgObject': {}, 'id': 'apple slices', 'src': '/static/foodstim60/apple slices.jpg', 'key': 'i', 'origWidth': 409, 'origHeight': 410, 'width': 409, 'height': 410, 'widthPercent': 0.45, 'rescaleHeight': False, 'trialN': 79, 'loaded': True, 'loadedTime': 3451.600000023842, 'positionName': 'RIGHT', 'positionCoords': [532.48, 83], 'bid': 5.01}]",116462.89999997616,1669831386787,corn cob,apple slices,2.65,5.01,2.36,apple slices,1113.1000000238419,1114,1113.5,True,i,118094.10000002384,1631.2000000476837,1669831388419,1632,HRV,HRV_0168,2022-11-30 18:07:31
80,"[{'imgObject': {}, 'id': 'salad w chicken', 'src': '/static/foodstim60/salad w chicken.jpg', 'key': 'u', 'origWidth': 411, 'origHeight': 411, 'width': 411, 'height': 411, 'widthPercent': 0.45, 'rescaleHeight': False, 'trialN': 80, 'loaded': True, 'loadedTime': 3751.6999999284744, 'positionName': 'LEFT', 'positionCoords': [80.52, 82.5], 'bid': 7.67}, {'imgObject': {}, 'id': 'turkeysandwich', 'src': '/static/foodstim60/turkeysandwich.jpg', 'key': 'i', 'origWidth': 409, 'origHeight': 409, 'width': 409, 'height': 409, 'widthPercent': 0.45, 'rescaleHeight': False, 'trialN': 80, 'loaded': True, 'loadedTime': 3383.1999999284744, 'positionName': 'RIGHT', 'positionCoords': [532.48, 83.5], 'bid': 7.03}]",118094.39999997616,1669831388419,salad w chicken,turkeysandwich,7.67,7.03,-0.6399999999999997,salad w chicken,1058.5,1059,1059.0,True,u,119672.69999992847,1578.2999999523163,1669831389997,1578,HRV,HRV_0168,2022-11-30 18:07:31
81,"[{'imgObject': {}, 'id': 'olives', 'src': '/static/foodstim60/olives.jpg', 'key': 'u', 'origWidth': 410, 'origHeight': 410, 'width': 410, 'height': 410, 'widthPercent': 0.45, 'rescaleHeight': False, 'trialN': 81, 'loaded': True, 'loadedTime': 3524.399999976158, 'positionName': 'LEFT', 'positionCoords': [81.52, 83], 'bid': 0.11}, {'imgObject': {}, 'id': 'banana', 'src': '/static/foodstim60/banana.jpg', 'key': 'i', 'origWidth': 410, 'origHeight': 410, 'width': 410, 'height': 410, 'widthPercent': 0.45, 'rescaleHeight': False, 'trialN': 81, 'loaded': True, 'loadedTime': 3602.899999976158, 'positionName': 'RIGHT', 'positionCoords': [532.48, 83], 'bid': 0.27}]",119673.0,1669831389997,olives,banana,0.11,0.27,0.16000000000000003,banana,992.5,993,992.8999999761581,True,i,121173.60000002384,1500.6000000238419,1669831391498,1501,HRV,HRV_0168,2022-11-30 18:07:31
82,"[{'imgObject': {}, 'id': 'yogurt no spoon', 'src': '/static/foodstim60/yogurt no spoon.jpg', 'key': 'u', 'origWidth': 411, 'origHeight': 410, 'width': 411, 'height': 410, 'widthPercent': 0.45, 'rescaleHeight': False, 'trialN': 82, 'loaded': True, 'loadedTime': 3610.1999999284744, 'positionName': 'LEFT', 'positionCoords': [80.52, 83], 'bid': 4.16}, {'imgObject': {}, 'id': 'orange slices', 'src': '/static/foodstim60/orange slices.jpg', 'key': 'i', 'origWidth': 409, 'origHeight': 410, 'width': 409, 'height': 410, 'widthPercent': 0.45, 'rescaleHeight': False, 'trialN': 82, 'loaded': True, 'loadedTime': 3606.399999976158, 'positionName': 'RIGHT', 'positionCoords': [532.48, 83], 'bid': 4.3100000000000005}]",121173.79999995232,1669831391498,yogurt no spoon,orange slices,4.16,4.3100000000000005,0.15000000000000036,orange slices,1251.6000000238419,1252,1251.8999999761581,True,i,122938.0,1764.2000000476837,1669831393262,1764,HRV,HRV_0168,2022-11-30 18:07:31
83,"[{'imgObject': {}, 'id': 'cherry tomato', 'src': '/static/foodstim60/cherry tomato.jpg', 'key': 'u', 'origWidth': 410, 'origHeight': 410, 'width': 410, 'height': 410, 'widthPercent': 0.45, 'rescaleHeight': False, 'trialN': 83, 'loaded': True, 'loadedTime': 3653, 'positionName': 'LEFT', 'positionCoords': [81.52, 83], 'bid': 0.19}, {'imgObject': {}, 'id': 'veggieswithdip', 'src': '/static/foodstim60/veggieswithdip.jpg', 'key': 'i', 'origWidth': 409, 'origHeight': 409, 'width': 409, 'height': 409, 'widthPercent': 0.45, 'rescaleHeight': False, 'trialN': 83, 'loaded': True, 'loadedTime': 3692.600000023842, 'positionName': 'RIGHT', 'positionCoords': [532.48, 83.5], 'bid': 0.19}]",122938.19999992847,1669831393263,cherry tomato,veggieswithdip,0.19,0.19,0.0,veggieswithdip,996.5,997,996.9000000953674,True,i,124446.29999995232,1508.1000000238419,1669831394771,1508,HRV,HRV_0168,2022-11-30 18:07:31
84,"[{'imgObject': {}, 'id': 'cheerios', 'src': '/static/foodstim60/cheerios.jpg', 'key': 'u', 'origWidth': 409, 'origHeight': 410, 'width': 409, 'height': 410, 'widthPercent': 0.45, 'rescaleHeight': False, 'trialN': 84, 'loaded': True, 'loadedTime': 3431.5, 'positionName': 'LEFT', 'positionCoords': [82.52, 83], 'bid': 4.39}, {'imgObject': {}, 'id': 'salmon', 'src': '/static/foodstim60/salmon.jpg', 'key': 'i', 'origWidth': 410, 'origHeight': 409, 'width': 410, 'height': 409, 'widthPercent': 0.45, 'rescaleHeight': False, 'trialN': 84, 'loaded': True, 'loadedTime': 3443.1999999284744, 'positionName': 'RIGHT', 'positionCoords': [532.48, 83.5], 'bid': 0.15}]",124446.60000002384,1669831394771,cheerios,salmon,4.39,0.15,-4.239999999999999,cheerios,944.0,945,944.3999999761581,True,u,125897.0,1450.3999999761581,1669831396221,1450,HRV,HRV_0168,2022-11-30 18:07:31
85,"[{'imgObject': {}, 'id': 'rigatoni', 'src': '/static/foodstim60/rigatoni.jpg', 'key': 'u', 'origWidth': 411, 'origHeight': 411, 'width': 411, 'height': 411, 'widthPercent': 0.45, 'rescaleHeight': False, 'trialN': 85, 'loaded': True, 'loadedTime': 3723.6999999284744, 'positionName': 'LEFT', 'positionCoords': [80.52, 82.5], 'bid': 2.89}, {'imgObject': {}, 'id': 'corn cob', 'src': '/static/foodstim60/corn cob.jpg', 'key': 'i', 'origWidth': 411, 'origHeight': 411, 'width': 411, 'height': 411, 'widthPercent': 0.45, 'rescaleHeight': False, 'trialN': 85, 'loaded': True, 'loadedTime': 3769, 'positionName': 'RIGHT', 'positionCoords': [532.48, 82.5], 'bid': 2.65}]",125897.19999992847,1669831396222,rigatoni,corn cob,2.89,2.65,-0.2400000000000002,corn cob,1017.9000000953674,1018,1018.3000000715256,True,i,127433.69999992847,1536.5,1669831397758,1536,HRV,HRV_0168,2022-11-30 18:07:31
86,"[{'imgObject': {}, 'id': 'Grapes', 'src': '/static/foodstim60/Grapes.jpg', 'key': 'u', 'origWidth': 411, 'origHeight': 411, 'width': 411, 'height': 411, 'widthPercent': 0.45, 'rescaleHeight': False, 'trialN': 86, 'loaded': True, 'loadedTime': 3414.1999999284744, 'positionName': 'LEFT', 'positionCoords': [80.52, 82.5], 'bid': 8.06}, {'imgObject': {}, 'id': 'Tribe humus pita', 'src': '/static/foodstim60/Tribe humus pita.jpg', 'key': 'i', 'origWidth': 411, 'origHeight': 411, 'width': 411, 'height': 411, 'widthPercent': 0.45, 'rescaleHeight': False, 'trialN': 86, 'loaded': True, 'loadedTime': 3763.7999999523163, 'positionName': 'RIGHT', 'positionCoords': [532.48, 82.5], 'bid': 3.59}]",127433.89999997616,1669831397758,Grapes,Tribe humus pita,8.06,3.59,-4.470000000000001,Grapes,930.2999999523163,931,930.7000000476837,True,u,128874.29999995232,1440.3999999761581,1669831399199,1441,HRV,HRV_0168,2022-11-30 18:07:31
87,"[{'imgObject': {}, 'id': 'turkeysandwich', 'src': '/static/foodstim60/turkeysandwich.jpg', 'key': 'u', 'origWidth': 409, 'origHeight': 409, 'width': 409, 'height': 409, 'widthPercent': 0.45, 'rescaleHeight': False, 'trialN': 87, 'loaded': True, 'loadedTime': 3291.1999999284744, 'positionName': 'LEFT', 'positionCoords': [82.52, 83.5], 'bid': 7.03}, {'imgObject': {}, 'id': 'cherries', 'src': '/static/foodstim60/cherries.jpg', 'key': 'i', 'origWidth': 410, 'origHeight': 411, 'width': 410, 'height': 411, 'widthPercent': 0.45, 'rescaleHeight': False, 'trialN': 87, 'loaded': True, 'loadedTime': 3687.1999999284744, 'positionName': 'RIGHT', 'positionCoords': [532.48, 82.5], 'bid': 0.23}]",128874.60000002384,1669831399199,turkeysandwich,cherries,7.03,0.23,-6.8,turkeysandwich,824.6999999284744,824,825.0,True,u,130213.5,1338.8999999761581,1669831400537,1338,HRV,HRV_0168,2022-11-30 18:07:31
88,"[{'imgObject': {}, 'id': 'omelette', 'src': '/static/foodstim60/omelette.jpg', 'key': 'u', 'origWidth': 410, 'origHeight': 409, 'width': 410, 'height': 409, 'widthPercent': 0.45, 'rescaleHeight': False, 'trialN': 88, 'loaded': True, 'loadedTime': 3766.2999999523163, 'positionName': 'LEFT', 'positionCoords': [81.52, 83.5], 'bid': 2.22}, {'imgObject': {}, 'id': 'cherry tomato', 'src': '/static/foodstim60/cherry tomato.jpg', 'key': 'i', 'origWidth': 410, 'origHeight': 410, 'width': 410, 'height': 410, 'widthPercent': 0.45, 'rescaleHeight': False, 'trialN': 88, 'loaded': True, 'loadedTime': 3651.2999999523163, 'positionName': 'RIGHT', 'positionCoords': [532.48, 83], 'bid': 0.19}]",130213.69999992847,1669831400537,omelette,cherry tomato,2.22,0.19,-2.0300000000000002,omelette,853.3000000715256,854,854.0,True,u,131571.5,1357.8000000715256,1669831401895,1358,HRV,HRV_0168,2022-11-30 18:07:31
89,"[{'imgObject': {}, 'id': 'ice cream sundae 002', 'src': '/static/foodstim60/ice cream sundae 002.jpg', 'key': 'u', 'origWidth': 409, 'origHeight': 409, 'width': 409, 'height': 409, 'widthPercent': 0.45, 'rescaleHeight': False, 'trialN': 89, 'loaded': True, 'loadedTime': 3455.2999999523163, 'positionName': 'LEFT', 'positionCoords': [82.52, 83.5], 'bid': 9.14}, {'imgObject': {}, 'id': 'burrito', 'src': '/static/foodstim60/burrito.jpg', 'key': 'i', 'origWidth': 410, 'origHeight': 410, 'width': 410, 'height': 410, 'widthPercent': 0.45, 'rescaleHeight': False, 'trialN': 89, 'loaded': True, 'loadedTime': 3771.7999999523163, 'positionName': 'RIGHT', 'positionCoords': [532.48, 83], 'bid': 9.37}]",131571.79999995232,1669831401896,ice cream sundae 002,burrito,9.14,9.37,0.22999999999999865,burrito,687.8999999761581,688,688.2000000476837,True,i,132765.39999997616,1193.6000000238419,1669831403089,1193,HRV,HRV_0168,2022-11-30 18:07:31
90,"[{'imgObject': {}, 'id': 'tacos', 'src': '/static/foodstim60/tacos.jpg', 'key': 'u', 'origWidth': 411, 'origHeight': 411, 'width': 411, 'height': 411, 'widthPercent': 0.45, 'rescaleHeight': False, 'trialN': 90, 'loaded': True, 'loadedTime': 3582.1999999284744, 'positionName': 'LEFT', 'positionCoords': [80.52, 82.5], 'bid': 8.1}, {'imgObject': {}, 'id': 'turkey sandwich', 'src': '/static/foodstim60/turkey sandwich.jpg', 'key': 'i', 'origWidth': 409, 'origHeight': 409, 'width': 409, 'height': 409, 'widthPercent': 0.45, 'rescaleHeight': False, 'trialN': 90, 'loaded': True, 'loadedTime': 3717.1999999284744, 'positionName': 'RIGHT', 'positionCoords': [532.48, 83.5], 'bid': 9.41}]",248298.5,1669831518623,tacos,turkey sandwich,8.1,9.41,1.3100000000000005,tacos,1285.6999999284744,1286,1286.1999999284744,True,u,250103.29999995232,1804.7999999523163,1669831520428,1805,HRV,HRV_0168,2022-11-30 18:07:31
91,"[{'imgObject': {}, 'id': 'popsicles', 'src': '/static/foodstim60/popsicles.jpg', 'key': 'u', 'origWidth': 410, 'origHeight': 410, 'width': 410, 'height': 410, 'widthPercent': 0.45, 'rescaleHeight': False, 'trialN': 91, 'loaded': True, 'loadedTime': 3780.600000023842, 'positionName': 'LEFT', 'positionCoords': [81.52, 83], 'bid': 0.97}, {'imgObject': {}, 'id': 'burrito', 'src': '/static/foodstim60/burrito.jpg', 'key': 'i', 'origWidth': 410, 'origHeight': 410, 'width': 410, 'height': 410, 'widthPercent': 0.45, 'rescaleHeight': False, 'trialN': 91, 'loaded': True, 'loadedTime': 3771, 'positionName': 'RIGHT', 'positionCoords': [532.48, 83], 'bid': 9.37}]",250103.29999995232,1669831520428,popsicles,burrito,0.97,9.37,8.399999999999999,burrito,634.8999999761581,635,635.2000000476837,True,i,251254.10000002384,1150.8000000715256,1669831521579,1151,HRV,HRV_0168,2022-11-30 18:07:31
92,"[{'imgObject': {}, 'id': 'banana', 'src': '/static/foodstim60/banana.jpg', 'key': 'u', 'origWidth': 410, 'origHeight': 410, 'width': 410, 'height': 410, 'widthPercent': 0.45, 'rescaleHeight': False, 'trialN': 92, 'loaded': True, 'loadedTime': 3603.100000023842, 'positionName': 'LEFT', 'positionCoords': [81.52, 83], 'bid': 0.27}, {'imgObject': {}, 'id': 'raspberries', 'src': '/static/foodstim60/raspberries.jpg', 'key': 'i', 'origWidth': 411, 'origHeight': 411, 'width': 411, 'height': 411, 'widthPercent': 0.45, 'rescaleHeight': False, 'trialN': 92, 'loaded': True, 'loadedTime': 3408.7999999523163, 'positionName': 'RIGHT', 'positionCoords': [532.48, 82.5], 'bid': 0.25}]",251254.19999992847,1669831521579,banana,raspberries,0.27,0.25,-0.020000000000000018,banana,1336.8000000715256,1337,1337.0,True,u,253093.0,1838.8000000715256,1669831523417,1838,HRV,HRV_0168,2022-11-30 18:07:31
93,"[{'imgObject': {}, 'id': 'bagel plain', 'src': '/static/foodstim60/bagel plain.jpg', 'key': 'u', 'origWidth': 410, 'origHeight': 410, 'width': 410, 'height': 410, 'widthPercent': 0.45, 'rescaleHeight': False, 'trialN': 93, 'loaded': True, 'loadedTime': 3747.600000023842, 'positionName': 'LEFT', 'positionCoords': [81.52, 83], 'bid': 0.78}, {'imgObject': {}, 'id': 'cherries', 'src': '/static/foodstim60/cherries.jpg', 'key': 'i', 'origWidth': 410, 'origHeight': 411, 'width': 410, 'height': 411, 'widthPercent': 0.45, 'rescaleHeight': False, 'trialN': 93, 'loaded': True, 'loadedTime': 3688.899999976158, 'positionName': 'RIGHT', 'positionCoords': [532.48, 82.5], 'bid': 0.23}]",253093.19999992847,1669831523418,bagel plain,cherries,0.78,0.23,-0.55,bagel plain,887.7000000476837,888,887.9000000953674,True,u,254497.10000002384,1403.9000000953674,1669831524822,1404,HRV,HRV_0168,2022-11-30 18:07:31
94,"[{'imgObject': {}, 'id': 'fruitsalad', 'src': '/static/foodstim60/fruitsalad.jpg', 'key': 'u', 'origWidth': 410, 'origHeight': 410, 'width': 410, 'height': 410, 'widthPercent': 0.45, 'rescaleHeight': False, 'trialN': 94, 'loaded': True, 'loadedTime': 3555, 'positionName': 'LEFT', 'positionCoords': [81.52, 83], 'bid': 5.3100000000000005}, {'imgObject': {}, 'id': 'rigatoni', 'src': '/static/foodstim60/rigatoni.jpg', 'key': 'i', 'origWidth': 411, 'origHeight': 411, 'width': 411, 'height': 411, 'widthPercent': 0.45, 'rescaleHeight': False, 'trialN': 94, 'loaded': True, 'loadedTime': 3723, 'positionName': 'RIGHT', 'positionCoords': [532.48, 82.5], 'bid': 2.89}]",254497.39999997616,1669831524822,fruitsalad,rigatoni,5.3100000000000005,2.89,-2.4200000000000004,fruitsalad,1010.2999999523163,1010,1010.7000000476837,True,u,256027.39999997616,1530.0,1669831526352,1530,HRV,HRV_0168,2022-11-30 18:07:31
95,"[{'imgObject': {}, 'id': 'yogurt no spoon', 'src': '/static/foodstim60/yogurt no spoon.jpg', 'key': 'u', 'origWidth': 411, 'origHeight': 410, 'width': 411, 'height': 410, 'widthPercent': 0.45, 'rescaleHeight': False, 'trialN': 95, 'loaded': True, 'loadedTime': 3610.7999999523163, 'positionName': 'LEFT', 'positionCoords': [80.52, 83], 'bid': 4.16}, {'imgObject': {}, 'id': 'corn cob', 'src': '/static/foodstim60/corn cob.jpg', 'key': 'i', 'origWidth': 411, 'origHeight': 411, 'width': 411, 'height': 411, 'widthPercent': 0.45, 'rescaleHeight': False, 'trialN': 95, 'loaded': True, 'loadedTime': 3769.1999999284744, 'positionName': 'RIGHT', 'positionCoords': [532.48, 82.5], 'bid': 2.65}]",256027.69999992847,1669831526352,yogurt no spoon,corn cob,4.16,2.65,-1.5100000000000002,yogurt no spoon,779.4000000953674,780,779.8000000715256,True,u,257319.5,1291.8000000715256,1669831527644,1292,HRV,HRV_0168,2022-11-30 18:07:31
96,"[{'imgObject': {}, 'id': 'hashbrowns', 'src': '/static/foodstim60/hashbrowns.jpg', 'key': 'u', 'origWidth': 411, 'origHeight': 410, 'width': 411, 'height': 410, 'widthPercent': 0.45, 'rescaleHeight': False, 'trialN': 96, 'loaded': True, 'loadedTime': 3713.100000023842, 'positionName': 'LEFT', 'positionCoords': [80.52, 83], 'bid': 1.73}, {'imgObject': {}, 'id': 'turkey sandwich', 'src': '/static/foodstim60/turkey sandwich.jpg', 'key': 'i', 'origWidth': 409, 'origHeight': 409, 'width': 409, 'height': 409, 'widthPercent': 0.45, 'rescaleHeight': False, 'trialN': 96, 'loaded': True, 'loadedTime': 3717, 'positionName': 'RIGHT', 'positionCoords': [532.48, 83.5], 'bid': 9.41}]",257319.69999992847,1669831527644,hashbrowns,turkey sandwich,1.73,9.41,7.68,turkey sandwich,702.4000000953674,703,702.6000000238419,True,i,258526.0,1206.3000000715256,1669831528850,1206,HRV,HRV_0168,2022-11-30 18:07:31
97,"[{'imgObject': {}, 'id': 'Grapes', 'src': '/static/foodstim60/Grapes.jpg', 'key': 'u', 'origWidth': 411, 'origHeight': 411, 'width': 411, 'height': 411, 'widthPercent': 0.45, 'rescaleHeight': False, 'trialN': 97, 'loaded': True, 'loadedTime': 3413.7999999523163, 'positionName': 'LEFT', 'positionCoords': [80.52, 82.5], 'bid': 8.06}, {'imgObject': {}, 'id': 'burrito', 'src': '/static/foodstim60/burrito.jpg', 'key': 'i', 'origWidth': 410, 'origHeight': 410, 'width': 410, 'height': 410, 'widthPercent': 0.45, 'rescaleHeight': False, 'trialN': 97, 'loaded': True, 'loadedTime': 3771.399999976158, 'positionName': 'RIGHT', 'positionCoords': [532.48, 83], 'bid': 9.37}]",258526.29999995232,1669831528851,Grapes,burrito,8.06,9.37,1.3099999999999987,burrito,683.3000000715256,683,683.5,True,i,259723.10000002384,1196.8000000715256,1669831530048,1197,HRV,HRV_0168,2022-11-30 18:07:31
98,"[{'imgObject': {}, 'id': 'hotdog w must', 'src': '/static/foodstim60/hotdog w must.jpg', 'key': 'u', 'origWidth': 409, 'origHeight': 409, 'width': 409, 'height': 409, 'widthPercent': 0.45, 'rescaleHeight': False, 'trialN': 98, 'loaded': True, 'loadedTime': 3695.399999976158, 'positionName': 'LEFT', 'positionCoords': [82.52, 83.5], 'bid': 5.5600000000000005}, {'imgObject': {}, 'id': 'froot loops w milk', 'src': '/static/foodstim60/froot loops w milk.jpg', 'key': 'i', 'origWidth': 410, 'origHeight': 410, 'width': 410, 'height': 410, 'widthPercent': 0.45, 'rescaleHeight': False, 'trialN': 98, 'loaded': True, 'loadedTime': 3751.2999999523163, 'positionName': 'RIGHT', 'positionCoords': [532.48, 83], 'bid': 5.3500000000000005}]",259723.5,1669831530048,hotdog w must,froot loops w milk,5.5600000000000005,5.3500000000000005,-0.20999999999999996,hotdog w must,709.3999999761581,710,709.7999999523163,True,u,260947.39999997616,1223.8999999761581,1669831531272,1224,HRV,HRV_0168,2022-11-30 18:07:31
99,"[{'imgObject': {}, 'id': 'salad w chicken', 'src': '/static/foodstim60/salad w chicken.jpg', 'key': 'u', 'origWidth': 411, 'origHeight': 411, 'width': 411, 'height': 411, 'widthPercent': 0.45, 'rescaleHeight': False, 'trialN': 99, 'loaded': True, 'loadedTime': 3754.899999976158, 'positionName': 'LEFT', 'positionCoords': [80.52, 82.5], 'bid': 7.67}, {'imgObject': {}, 'id': 'baked potato', 'src': '/static/foodstim60/baked potato.jpg', 'key': 'i', 'origWidth': 409, 'origHeight': 410, 'width': 409, 'height': 410, 'widthPercent': 0.45, 'rescaleHeight': False, 'trialN': 99, 'loaded': True, 'loadedTime': 3685.5, 'positionName': 'RIGHT', 'positionCoords': [532.48, 83], 'bid': 3.45}]",260947.79999995232,1669831531272,salad w chicken,baked potato,7.67,3.45,-4.22,salad w chicken,925.3999999761581,926,925.7000000476837,True,u,262383.5,1435.7000000476837,1669831532708,1436,HRV,HRV_0168,2022-11-30 18:07:31
100,"[{'imgObject': {}, 'id': 'banana', 'src': '/static/foodstim60/banana.jpg', 'key': 'u', 'origWidth': 410, 'origHeight': 410, 'width': 410, 'height': 410, 'widthPercent': 0.45, 'rescaleHeight': False, 'trialN': 100, 'loaded': True, 'loadedTime': 3603, 'positionName': 'LEFT', 'positionCoords': [81.52, 83], 'bid': 0.27}, {'imgObject': {}, 'id': 'avocado', 'src': '/static/foodstim60/avocado.jpg', 'key': 'i', 'origWidth': 409, 'origHeight': 409, 'width': 409, 'height': 409, 'widthPercent': 0.45, 'rescaleHeight': False, 'trialN': 100, 'loaded': True, 'loadedTime': 3627.6999999284744, 'positionName': 'RIGHT', 'positionCoords': [532.48, 83.5], 'bid': 0.15}]",262383.7999999523,1669831532708,banana,avocado,0.27,0.15,-0.12000000000000002,banana,826.2000000476837,827,826.6000000238419,True,u,263722.6999999285,1338.8999999761581,1669831534047,1339,HRV,HRV_0168,2022-11-30 18:07:31
101,"[{'imgObject': {}, 'id': 'mac & cheese', 'src': '/static/foodstim60/mac & cheese.jpg', 'key': 'u', 'origWidth': 410, 'origHeight': 410, 'width': 410, 'height': 410, 'widthPercent': 0.45, 'rescaleHeight': False, 'trialN': 101, 'loaded': True, 'loadedTime': 3498.100000023842, 'positionName': 'LEFT', 'positionCoords': [81.52, 83], 'bid': 9.43}, {'imgObject': {}, 'id': 'burger', 'src': '/static/foodstim60/burger.jpg', 'key': 'i', 'origWidth': 409, 'origHeight': 409, 'width': 409, 'height': 409, 'widthPercent': 0.45, 'rescaleHeight': False, 'trialN': 101, 'loaded': True, 'loadedTime': 3409.7999999523163, 'positionName': 'RIGHT', 'positionCoords': [532.48, 83.5], 'bid': 7.44}]",263723.0,1669831534047,mac & cheese,burger,9.43,7.44,-1.9899999999999993,mac & cheese,1023.5,1024,1024.0,True,u,265262.89999997616,1539.8999999761581,1669831535587,1540,HRV,HRV_0168,2022-11-30 18:07:31
102,"[{'imgObject': {}, 'id': 'corn cob', 'src': '/static/foodstim60/corn cob.jpg', 'key': 'u', 'origWidth': 411, 'origHeight': 411, 'width': 411, 'height': 411, 'widthPercent': 0.45, 'rescaleHeight': False, 'trialN': 102, 'loaded': True, 'loadedTime': 3766.600000023842, 'positionName': 'LEFT', 'positionCoords': [80.52, 82.5], 'bid': 2.65}, {'imgObject': {}, 'id': 'rigatoni and sauce', 'src': '/static/foodstim60/rigatoni and sauce.jpg', 'key': 'i', 'origWidth': 410, 'origHeight': 411, 'width': 410, 'height': 411, 'widthPercent': 0.45, 'rescaleHeight': False, 'trialN': 102, 'loaded': True, 'loadedTime': 3757.6999999284744, 'positionName': 'RIGHT', 'positionCoords': [532.48, 82.5], 'bid': 9.76}]",265263.10000002384,1669831535588,corn cob,rigatoni and sauce,2.65,9.76,7.109999999999999,rigatoni and sauce,774.5999999046326,774,775.0,True,i,266547.2999999523,1284.1999999284744,1669831536872,1284,HRV,HRV_0168,2022-11-30 18:07:31
103,"[{'imgObject': {}, 'id': 'baked potato', 'src': '/static/foodstim60/baked potato.jpg', 'key': 'u', 'origWidth': 409, 'origHeight': 410, 'width': 409, 'height': 410, 'widthPercent': 0.45, 'rescaleHeight': False, 'trialN': 103, 'loaded': True, 'loadedTime': 3684, 'positionName': 'LEFT', 'positionCoords': [82.52, 83], 'bid': 3.45}, {'imgObject': {}, 'id': 'sweetpotato', 'src': '/static/foodstim60/sweetpotato.jpg', 'key': 'i', 'origWidth': 410, 'origHeight': 410, 'width': 410, 'height': 410, 'widthPercent': 0.45, 'rescaleHeight': False, 'trialN': 103, 'loaded': True, 'loadedTime': 3727, 'positionName': 'RIGHT', 'positionCoords': [532.48, 83], 'bid': 0.8}]",266547.60000002384,1669831536872,baked potato,sweetpotato,3.45,0.8,-2.6500000000000004,baked potato,1346.6999999284744,1347,1347.0999999046326,True,u,268404.2999999523,1856.6999999284744,1669831538729,1857,HRV,HRV_0168,2022-11-30 18:07:31
104,"[{'imgObject': {}, 'id': 'lox', 'src': '/static/foodstim60/lox.jpg', 'key': 'u', 'origWidth': 410, 'origHeight': 411, 'width': 410, 'height': 411, 'widthPercent': 0.45, 'rescaleHeight': False, 'trialN': 104, 'loaded': True, 'loadedTime': 3525.399999976158, 'positionName': 'LEFT', 'positionCoords': [81.52, 82.5], 'bid': 0.09}, {'imgObject': {}, 'id': 'blackbeanswithrice', 'src': '/static/foodstim60/blackbeanswithrice.jpg', 'key': 'i', 'origWidth': 410, 'origHeight': 410, 'width': 410, 'height': 410, 'widthPercent': 0.45, 'rescaleHeight': False, 'trialN': 104, 'loaded': True, 'loadedTime': 3633.7999999523163, 'positionName': 'RIGHT', 'positionCoords': [532.48, 83], 'bid': 0.11}]",268404.39999997616,1669831538729,lox,blackbeanswithrice,0.09,0.11,0.020000000000000004,blackbeanswithrice,743.7000000476837,744,744.0,True,i,269663.39999997616,1259.0,1669831539988,1259,HRV,HRV_0168,2022-11-30 18:07:31
105,"[{'imgObject': {}, 'id': 'bagel and cc', 'src': '/static/foodstim60/bagel and cc.jpg', 'key': 'u', 'origWidth': 410, 'origHeight': 410, 'width': 410, 'height': 410, 'widthPercent': 0.45, 'rescaleHeight': False, 'trialN': 105, 'loaded': True, 'loadedTime': 3476.1999999284744, 'positionName': 'LEFT', 'positionCoords': [81.52, 83], 'bid': 4.84}, {'imgObject': {}, 'id': 'roastedpotatoes', 'src': '/static/foodstim60/roastedpotatoes.jpg', 'key': 'i', 'origWidth': 409, 'origHeight': 410, 'width': 409, 'height': 410, 'widthPercent': 0.45, 'rescaleHeight': False, 'trialN': 105, 'loaded': True, 'loadedTime': 3761.100000023842, 'positionName': 'RIGHT', 'positionCoords': [532.48, 83], 'bid': 5.58}]",269663.60000002384,1669831539988,bagel and cc,roastedpotatoes,4.84,5.58,0.7400000000000002,bagel and cc,904.8999999761581,905,905.2999999523163,True,u,271084.0,1420.3999999761581,1669831541408,1420,HRV,HRV_0168,2022-11-30 18:07:31
106,"[{'imgObject': {}, 'id': 'fried eggs', 'src': '/static/foodstim60/fried eggs.jpg', 'key': 'u', 'origWidth': 410, 'origHeight': 410, 'width': 410, 'height': 410, 'widthPercent': 0.45, 'rescaleHeight': False, 'trialN': 106, 'loaded': True, 'loadedTime': 3608.7999999523163, 'positionName': 'LEFT', 'positionCoords': [81.52, 83], 'bid': 0.21}, {'imgObject': {}, 'id': 'cocktailshrimp', 'src': '/static/foodstim60/cocktailshrimp.jpg', 'key': 'i', 'origWidth': 410, 'origHeight': 410, 'width': 410, 'height': 410, 'widthPercent': 0.45, 'rescaleHeight': False, 'trialN': 106, 'loaded': True, 'loadedTime': 3529.5, 'positionName': 'RIGHT', 'positionCoords': [532.48, 83], 'bid': 0.21}]",271084.1999999285,1669831541409,fried eggs,cocktailshrimp,0.21,0.21,0.0,fried eggs,890.4000000953674,890,890.8000000715256,True,u,272486.5,1402.3000000715256,1669831542811,1402,HRV,HRV_0168,2022-11-30 18:07:31
107,"[{'imgObject': {}, 'id': 'kiwi', 'src': '/static/foodstim60/kiwi.jpg', 'key': 'u', 'origWidth': 410, 'origHeight': 410, 'width': 410, 'height': 410, 'widthPercent': 0.45, 'rescaleHeight': False, 'trialN': 107, 'loaded': True, 'loadedTime': 3656.2999999523163, 'positionName': 'LEFT', 'positionCoords': [81.52, 83], 'bid': 0.19}, {'imgObject': {}, 'id': 'sushi w_condiments', 'src': '/static/foodstim60/sushi w_condiments.jpg', 'key': 'i', 'origWidth': 410, 'origHeight': 410, 'width': 410, 'height': 410, 'widthPercent': 0.45, 'rescaleHeight': False, 'trialN': 107, 'loaded': True, 'loadedTime': 3774.2999999523163, 'positionName': 'RIGHT', 'positionCoords': [532.48, 83], 'bid': 0.11}]",272486.7999999523,1669831542811,kiwi,sushi w_condiments,0.19,0.11,-0.08,kiwi,869.3999999761581,870,869.8000000715256,True,u,273863.60000002384,1376.8000000715256,1669831544188,1377,HRV,HRV_0168,2022-11-30 18:07:31
108,"[{'imgObject': {}, 'id': 'bagel plain', 'src': '/static/foodstim60/bagel plain.jpg', 'key': 'u', 'origWidth': 410, 'origHeight': 410, 'width': 410, 'height': 410, 'widthPercent': 0.45, 'rescaleHeight': False, 'trialN': 108, 'loaded': True, 'loadedTime': 3744.899999976158, 'positionName': 'LEFT', 'positionCoords': [81.52, 83], 'bid': 0.78}, {'imgObject': {}, 'id': 'strawberries', 'src': '/static/foodstim60/strawberries.jpg', 'key': 'i', 'origWidth': 410, 'origHeight': 410, 'width': 410, 'height': 410, 'widthPercent': 0.45, 'rescaleHeight': False, 'trialN': 108, 'loaded': True, 'loadedTime': 3635.5, 'positionName': 'RIGHT', 'positionCoords': [532.48, 83], 'bid': 8.75}]",273863.7999999523,1669831544188,bagel plain,strawberries,0.78,8.75,7.97,strawberries,1014.0,1015,1014.3000000715256,True,i,275387.6999999285,1523.8999999761581,1669831545712,1524,HRV,HRV_0168,2022-11-30 18:07:31
