success,trial_type,trial_index,time_elapsed,internal_node_id,Block,TrialNumber,TrialTime,trialTimeDiff,FPS_avg,FPS_med,FPS_mode,TrialDur,winResizeTime,rt,block,button_pressed,MotCoh,MotDir,ColCoh,Color,ChoiceKey,Choice,Accuracy,RT,nFrames,FPS,PPD,missTrial,missTrialMsg,onsetDelay,fullScreenExitTime,canvCenter,TrialType,Score,BlockTrial,stimulus,button_labels,exp,subjectId,date
True,fullscreen,0,2406,0.0-0.0,0.0,1.0,,,,,,,,,,,,,,,,,,,,,,,,,,,,,,,,HRV,HRV_0168,2022-11-30 18:38:18
,wl-check-fps,1,7399,0.0-1.0,0.0,2.0,"[2826.9, 2836.2, 2852.8, 2869.5, 2886.9, 2902.8, 2919.9, 2936.2, 2952.8, 2969.4, 2986.5, 3002.7, 3019.4, 3036, 3052.8, 3069.4, 3085.9, 3102.5, 3119.2, 3135.9, 3152.6, 3169.2, 3185.8, 3202.5, 3219.1, 3235.8, 3252.5, 3269.1, 3286, 3302.4, 3319, 3335.7, 3352.3, 3369, 3385.6, 3402.3, 3419, 3435.6, 3452.3, 3468.9, 3485.6, 3502.2, 3518.9, 3535.5, 3552.1, 3568.9, 3585.5, 3602.1, 3618.8, 3635.4, 3652.1, 3668.8, 3685.5, 3702, 3718.9, 3735.3, 3752, 3768.7, 3785.3, 3802, 3818.6, 3835.2, 3851.9, 3868.6, 3885.2, 3902, 3918.5, 3935.2, 3951.8, 3968.5, 3985.1, 4001.8, 4018.5, 4035.1, 4051.8, 4068.4, 4085.1, 4101.7, 4118.3, 4135, 4151.7, 4168.3, 4185.1, 4201.7, 4218.4, 4234.9, 4251.7, 4268.2, 4284.9, 4301.6, 4318.3, 4337, 4351.5, 4368.1, 4384.8, 4401.5, 4418.1, 4434.8, 4451.4, 4468, 4484.7, 4501.3, 4517.9, 4534.7, 4551.3, 4567.9, 4584.6, 4601.3, 4617.9, 4634.5, 4651.2, 4668.4, 4684.6, 4701.2, 4717.8, 4734.5, 4751.1, 4767.8, 4784.6, 4801.1, 4817.7, 4834.4, 4851, 4867.7, 4884.4, 4901.3, 4917.6, 4934.3, 4950.9, 4967.6, 4984.2, 5001, 5017.6, 5034.2, 5050.9, 5067.5, 5084.2, 5100.8, 5117.5, 5134.1, 5150.9, 5167.5, 5184.1, 5200.8, 5217.4, 5234.1, 5250.7, 5267.4, 5284, 5300.6, 5317.3, 5333.9, 5350.7, 5367.3, 5383.9, 5400.6, 5417.2, 5433.8, 5450.6, 5467.2, 5483.8, 5500.5, 5517.1, 5533.8, 5550.4, 5567.1, 5583.8, 5600.4, 5617.1, 5633.7, 5650.3, 5667, 5683.7, 5700.3, 5716.9, 5733.5, 5750.3, 5766.9, 5783.5, 5800.2, 5816.9, 5833.5, 5850.1, 5866.8, 5883.5, 5900.1, 5916.8, 5933.4, 5950.1, 5966.9, 5983.4, 6000.1, 6016.7, 6033.4, 6050, 6066.7, 6083.4, 6100, 6116.6, 6133.2, 6149.9, 6166.7, 6183.3, 6199.9, 6216.6, 6233.2, 6249.8, 6266.6, 6283.1, 6300, 6316.7, 6333.1, 6350, 6366.5, 6383.1, 6399.9, 6416.3, 6433, 6449.6, 6466.6, 6483, 6499.8, 6516.3, 6533, 6549.6, 6566.4, 6582.9, 6599.5, 6616.3, 6632.9, 6649.6, 6666.3, 6682.9, 6699.5, 6716.6, 6732.8, 6749.4, 6766.2, 6782.7, 6799.4, 6816, 6832.7, 6849.4, 6866, 6882.7, 6899.4, 6916.4, 6932.6, 6949.3, 6966, 6982.5, 6999.3, 7016.3, 7032.6, 7049.3, 7065.8, 7082.6, 7099.2, 7115.8, 7132.5, 7149.2, 7165.7, 7182.4, 7199.3, 7215.9, 7232.6, 7249.1, 7266, 7282.6, 7299.1, 7315.8, 7332.4, 7349.1, 7365.7, 7382.4, 7399, 7415.6, 7432.3, 7449, 7465.6, 7482.3, 7498.9, 7515.6, 7532.2, 7549, 7565.6, 7582.2, 7598.8, 7615.5, 7632.1, 7648.9, 7665.7, 7682.1, 7698.7, 7715.6, 7732.1, 7748.7, 7765.3, 7781.9, 7798.7]","[1.6, 9.3, 16.6, 16.7, 17.4, 15.9, 17.1, 16.3, 16.6, 16.6, 17.1, 16.2, 16.7, 16.6, 16.8, 16.6, 16.5, 16.6, 16.7, 16.7, 16.7, 16.6, 16.6, 16.7, 16.6, 16.7, 16.7, 16.6, 16.9, 16.4, 16.6, 16.7, 16.6, 16.7, 16.6, 16.7, 16.7, 16.6, 16.7, 16.6, 16.7, 16.6, 16.7, 16.6, 16.6, 16.8, 16.6, 16.6, 16.7, 16.6, 16.7, 16.7, 16.7, 16.5, 16.9, 16.4, 16.7, 16.7, 16.6, 16.7, 16.6, 16.6, 16.7, 16.7, 16.6, 16.8, 16.5, 16.7, 16.6, 16.7, 16.6, 16.7, 16.7, 16.6, 16.7, 16.6, 16.7, 16.6, 16.6, 16.7, 16.7, 16.6, 16.8, 16.6, 16.7, 16.5, 16.8, 16.5, 16.7, 16.7, 16.7, 18.7, 14.5, 16.6, 16.7, 16.7, 16.6, 16.7, 16.6, 16.6, 16.7, 16.6, 16.6, 16.8, 16.6, 16.6, 16.7, 16.7, 16.6, 16.6, 16.7, 17.2, 16.2, 16.6, 16.6, 16.7, 16.6, 16.7, 16.8, 16.5, 16.6, 16.7, 16.6, 16.7, 16.7, 16.9, 16.3, 16.7, 16.6, 16.7, 16.6, 16.8, 16.6, 16.6, 16.7, 16.6, 16.7, 16.6, 16.7, 16.6, 16.8, 16.6, 16.6, 16.7, 16.6, 16.7, 16.6, 16.7, 16.6, 16.6, 16.7, 16.6, 16.8, 16.6, 16.6, 16.7, 16.6, 16.6, 16.8, 16.6, 16.6, 16.7, 16.6, 16.7, 16.6, 16.7, 16.7, 16.6, 16.7, 16.6, 16.6, 16.7, 16.7, 16.6, 16.6, 16.6, 16.8, 16.6, 16.6, 16.7, 16.7, 16.6, 16.6, 16.7, 16.7, 16.6, 16.7, 16.6, 16.7, 16.8, 16.5, 16.7, 16.6, 16.7, 16.6, 16.7, 16.7, 16.6, 16.6, 16.6, 16.7, 16.8, 16.6, 16.6, 16.7, 16.6, 16.6, 16.8, 16.5, 16.9, 16.7, 16.4, 16.9, 16.5, 16.6, 16.8, 16.4, 16.7, 16.6, 17, 16.4, 16.8, 16.5, 16.7, 16.6, 16.8, 16.5, 16.6, 16.8, 16.6, 16.7, 16.7, 16.6, 16.6, 17.1, 16.2, 16.6, 16.8, 16.5, 16.7, 16.6, 16.7, 16.7, 16.6, 16.7, 16.7, 17, 16.2, 16.7, 16.7, 16.5, 16.8, 17, 16.3, 16.7, 16.5, 16.8, 16.6, 16.6, 16.7, 16.7, 16.5, 16.7, 16.9, 16.6, 16.7, 16.5, 16.9, 16.6, 16.5, 16.7, 16.6, 16.7, 16.6, 16.7, 16.6, 16.6, 16.7, 16.7, 16.6, 16.7, 16.6, 16.7, 16.6, 16.8, 16.6, 16.6, 16.6, 16.7, 16.6, 16.8, 16.8, 16.4, 16.6, 16.9, 16.5, 16.6, 16.6, 16.6, 16.8]",60.0,60.0,60.0,4990.0,[],,,,,,,,,,,,,,,,,,,,,,,,,HRV,HRV_0168,2022-11-30 18:38:18
,wl-html-keyboard-response,2,24125,0.0-2.0-0.0,0.0,3.0,,,,,,,,14720.299999952316,0.0,0,,,,,,,,,,,,,,,,,,,,,,HRV,HRV_0168,2022-11-30 18:38:18
,wl-rdm,3,31195,0.0-3.0-0.0,0.0,4.0,,,,,,,[],,,,0.0,0.0,87.9,0.0,u,0.0,True,1477.8000000715256,89.0,60.0,40.0,False,,3000.0,[],"[512, 288]",ColorTask_Demo,,,,,HRV,HRV_0168,2022-11-30 18:38:18
,wl-rdm,4,35890,0.0-3.0-1.0,0.0,5.0,,,,,,,[],,,,0.0,0.0,87.9,1.0,i,1.0,True,604.3999999761581,37.0,60.0,40.0,False,,2000.0,[],"[512, 288]",ColorTask_Demo,,,,,HRV,HRV_0168,2022-11-30 18:38:18
,wl-html-keyboard-response,5,42933,0.0-3.0-2.0,0.0,6.0,,,,,,,,5033.299999952316,0.0,1,,,,,,,,,,,,,,,,,,,,,,HRV,HRV_0168,2022-11-30 18:38:18
,wl-html-keyboard-response,6,53485,0.0-4.0-0.0,0.0,7.0,,,,,,,,8543.0,0.0,0,,,,,,,,,,,,,,,,,,,,,,HRV,HRV_0168,2022-11-30 18:38:18
,wl-html-keyboard-response,7,83916,0.0-5.0-0.0,0.0,8.0,,,,,,,,28422.699999928474,0.0,0,,,,,,,,,,,,,,,,,,,,,,HRV,HRV_0168,2022-11-30 18:38:18
,wl-rdm,8,87861,0.0-6.0-0.0,0.0,9.0,,,,,,,[],,,,,,50.0,0.0,u,0.0,True,2651.7000000476837,160.0,60.0,40.0,False,,210.96445968813524,[],"[512, 288]",ColorTask,1.0,1.0,,,HRV,HRV_0168,2022-11-30 18:38:18
,wl-rdm,9,90059,0.0-6.1-0.1,0.0,10.0,,,,,,,[],,,,,,73.6,1.0,i,1.0,True,913.2999999523163,55.0,60.0,40.0,False,,216.1339459192247,[],"[512, 288]",ColorTask,2.0,2.0,,,HRV,HRV_0168,2022-11-30 18:38:18
,wl-rdm,10,92224,0.0-6.2-0.2,0.0,11.0,,,,,,,[],,,,,,87.9,0.0,u,0.0,True,778.8999999761581,47.0,60.0,40.0,False,,301.4107432572316,[],"[512, 288]",ColorTask,3.0,3.0,,,HRV,HRV_0168,2022-11-30 18:38:18
,wl-rdm,11,94388,0.0-6.3-0.3,0.0,12.0,,,,,,,[],,,,,,50.0,1.0,u,0.0,False,810.5,49.0,60.0,40.0,False,,275.3127563676113,[],"[512, 288]",ColorTask,2.0,4.0,,,HRV,HRV_0168,2022-11-30 18:38:18
,wl-rdm,12,96886,0.0-6.4-0.4,0.0,13.0,,,,,,,[],,,,,,56.4,0.0,u,0.0,True,1114.1000000238419,67.0,60.0,40.0,False,,309.6487692474351,[],"[512, 288]",ColorTask,3.0,5.0,,,HRV,HRV_0168,2022-11-30 18:38:18
,wl-rdm,13,99317,0.0-6.5-0.5,0.0,14.0,,,,,,,[],,,,,,53.2,1.0,i,1.0,True,1128.8999999761581,68.0,60.0,40.0,False,,227.90786445523054,[],"[512, 288]",ColorTask,4.0,6.0,,,HRV,HRV_0168,2022-11-30 18:38:18
,wl-rdm,14,101566,0.0-6.6-0.6,0.0,15.0,,,,,,,[],,,,,,73.6,0.0,u,0.0,True,853.1999999284744,52.0,60.0,40.0,False,,303.68378330325584,[],"[512, 288]",ColorTask,5.0,7.0,,,HRV,HRV_0168,2022-11-30 18:38:18
,wl-rdm,15,103714,0.0-6.7-0.7,0.0,16.0,,,,,,,[],,,,,,62.5,0.0,u,0.0,True,773.1000000238419,47.0,60.0,40.0,False,,298.67717354331523,[],"[512, 288]",ColorTask,6.0,8.0,,,HRV,HRV_0168,2022-11-30 18:38:18
,wl-rdm,16,107194,0.0-6.8-0.8,0.0,17.0,,,,,,,[],,,,,,56.4,1.0,i,1.0,True,2073.1999999284744,125.0,60.0,40.0,False,,323.4605664598983,[],"[512, 288]",ColorTask,7.0,9.0,,,HRV,HRV_0168,2022-11-30 18:38:18
,wl-rdm,17,110191,0.0-6.9-0.9,0.0,18.0,,,,,,,[],,,,,,56.4,1.0,i,1.0,True,1669.7999999523163,101.0,60.0,40.0,False,,245.31294780263812,[],"[512, 288]",ColorTask,8.0,10.0,,,HRV,HRV_0168,2022-11-30 18:38:18
,wl-rdm,18,112357,0.0-6.10-0.10,0.0,19.0,,,,,,,[],,,,,,87.9,1.0,i,1.0,True,837.8999999761581,51.0,60.0,40.0,False,,248.80701012019193,[],"[512, 288]",ColorTask,9.0,11.0,,,HRV,HRV_0168,2022-11-30 18:38:18
,wl-rdm,19,114971,0.0-6.11-0.11,0.0,20.0,,,,,,,[],,,,,,56.4,1.0,i,1.0,True,1163.8999999761581,70.0,60.0,40.0,False,,373.43866367810347,[],"[512, 288]",ColorTask,10.0,12.0,,,HRV,HRV_0168,2022-11-30 18:38:18
,wl-rdm,20,117885,0.0-6.12-0.12,0.0,21.0,,,,,,,[],,,,,,50.0,0.0,i,1.0,False,1558.5,94.0,60.0,40.0,False,,283.0152448277283,[],"[512, 288]",ColorTask,9.0,13.0,,,HRV,HRV_0168,2022-11-30 18:38:18
,wl-rdm,21,120816,0.0-6.13-0.13,0.0,22.0,,,,,,,[],,,,,,56.4,1.0,i,1.0,True,1600.6000000238419,97.0,60.0,40.0,False,,239.53481800038765,[],"[512, 288]",ColorTask,10.0,14.0,,,HRV,HRV_0168,2022-11-30 18:38:18
,wl-rdm,22,123880,0.0-6.14-0.14,0.0,23.0,,,,,,,[],,,,,,53.2,1.0,u,0.0,False,1719.8000000715256,104.0,60.0,40.0,False,,264.01220231701126,[],"[512, 288]",ColorTask,9.0,15.0,,,HRV,HRV_0168,2022-11-30 18:38:18
,wl-rdm,23,127743,0.0-6.15-0.15,0.0,24.0,,,,,,,[],,,,,,53.2,1.0,u,0.0,False,2571.8000000715256,155.0,60.0,40.0,False,,211.23468477756444,[],"[512, 288]",ColorTask,8.0,16.0,,,HRV,HRV_0168,2022-11-30 18:38:18
,wl-rdm,24,130041,0.0-6.16-0.16,0.0,25.0,,,,,,,[],,,,,,87.9,1.0,i,1.0,True,861.7999999523163,52.0,60.0,40.0,False,,353.9931148459505,[],"[512, 288]",ColorTask,9.0,17.0,,,HRV,HRV_0168,2022-11-30 18:38:18
,wl-rdm,25,133738,0.0-6.17-0.17,0.0,26.0,,,,,,,[],,,,,,53.2,0.0,u,0.0,True,2311.100000023842,139.0,60.0,40.0,False,,309.01062674943347,[],"[512, 288]",ColorTask,10.0,18.0,,,HRV,HRV_0168,2022-11-30 18:38:18
,wl-rdm,26,136336,0.0-6.18-0.18,0.0,27.0,,,,,,,[],,,,,,62.5,1.0,i,1.0,True,1121.2999999523163,68.0,60.0,40.0,False,,398.8811861088177,[],"[512, 288]",ColorTask,11.0,19.0,,,HRV,HRV_0168,2022-11-30 18:38:18
,wl-rdm,27,138750,0.0-6.19-0.19,0.0,28.0,,,,,,,[],,,,,,53.2,1.0,u,0.0,False,1128.3999999761581,68.0,60.0,40.0,False,,200.78806602870372,[],"[512, 288]",ColorTask,10.0,20.0,,,HRV,HRV_0168,2022-11-30 18:38:18
,wl-rdm,28,141364,0.0-6.20-0.20,0.0,29.0,,,,,,,[],,,,,,73.6,0.0,u,0.0,True,1152.4000000953674,70.0,60.0,40.0,False,,367.65226601828704,[],"[512, 288]",ColorTask,11.0,21.0,,,HRV,HRV_0168,2022-11-30 18:38:18
,wl-rdm,29,143646,0.0-6.21-0.21,0.0,30.0,,,,,,,[],,,,,,50.0,1.0,i,1.0,True,923.6999999284744,55.0,60.0,40.0,False,,280.5665189839708,[],"[512, 288]",ColorTask,12.0,22.0,,,HRV,HRV_0168,2022-11-30 18:38:18
,wl-rdm,30,145877,0.0-6.22-0.22,0.0,31.0,,,,,,,[],,,,,,62.5,0.0,i,1.0,False,924.3999999761581,56.0,60.0,40.0,False,,226.96634813383793,[],"[512, 288]",ColorTask,11.0,23.0,,,HRV,HRV_0168,2022-11-30 18:38:18
,wl-rdm,31,147992,0.0-6.23-0.23,0.0,32.0,,,,,,,[],,,,,,73.6,1.0,i,1.0,True,753.1000000238419,46.0,60.0,40.0,False,,272.0704332543197,[],"[512, 288]",ColorTask,12.0,24.0,,,HRV,HRV_0168,2022-11-30 18:38:18
,wl-rdm,32,150273,0.0-6.24-0.24,0.0,33.0,,,,,,,[],,,,,,56.4,1.0,i,1.0,True,901.6000000238419,55.0,60.0,40.0,False,,298.70690133633394,[],"[512, 288]",ColorTask,13.0,25.0,,,HRV,HRV_0168,2022-11-30 18:38:18
,wl-rdm,33,152438,0.0-6.25-0.25,0.0,34.0,,,,,,,[],,,,,,50.0,1.0,u,0.0,False,763.7000000476837,46.0,60.0,40.0,False,,324.3500952311212,[],"[512, 288]",ColorTask,12.0,26.0,,,HRV,HRV_0168,2022-11-30 18:38:18
,wl-rdm,34,154686,0.0-6.26-0.26,0.0,35.0,,,,,,,[],,,,,,62.5,1.0,i,1.0,True,903.4000000953674,55.0,60.0,40.0,False,,252.83442888812647,[],"[512, 288]",ColorTask,13.0,27.0,,,HRV,HRV_0168,2022-11-30 18:38:18
,wl-rdm,35,156768,0.0-6.27-0.27,0.0,36.0,,,,,,,[],,,,,,73.6,1.0,i,1.0,True,697.7000000476837,42.0,60.0,40.0,False,,311.80906147805064,[],"[512, 288]",ColorTask,14.0,28.0,,,HRV,HRV_0168,2022-11-30 18:38:18
,wl-rdm,36,159615,0.0-6.28-0.28,0.0,37.0,,,,,,,[],,,,,,62.5,0.0,u,0.0,True,1368.3999999761581,83.0,60.0,40.0,False,,385.18587845991664,[],"[512, 288]",ColorTask,15.0,29.0,,,HRV,HRV_0168,2022-11-30 18:38:18
,wl-rdm,37,162030,0.0-6.29-0.29,0.0,38.0,,,,,,,[],,,,,,62.5,1.0,i,1.0,True,1102.7999999523163,67.0,60.0,40.0,False,,225.67471571641497,[],"[512, 288]",ColorTask,16.0,30.0,,,HRV,HRV_0168,2022-11-30 18:38:18
,wl-rdm,38,164677,0.0-6.30-0.30,0.0,39.0,,,,,,,[],,,,,,53.2,0.0,i,1.0,False,1344.0999999046326,81.0,60.0,40.0,False,,232.16812407157664,[],"[512, 288]",ColorTask,15.0,31.0,,,HRV,HRV_0168,2022-11-30 18:38:18
,wl-rdm,39,167075,0.0-6.31-0.31,0.0,40.0,,,,,,,[],,,,,,53.2,1.0,i,1.0,True,1087.8000000715256,66.0,60.0,40.0,False,,221.41311846216573,[],"[512, 288]",ColorTask,16.0,32.0,,,HRV,HRV_0168,2022-11-30 18:38:18
,wl-rdm,40,169590,0.0-6.32-0.32,0.0,41.0,,,,,,,[],,,,,,56.4,1.0,i,1.0,True,1140.5,69.0,60.0,40.0,False,,290.21156137480466,[],"[512, 288]",ColorTask,17.0,33.0,,,HRV,HRV_0168,2022-11-30 18:38:18
,wl-rdm,41,172321,0.0-6.33-0.33,0.0,42.0,,,,,,,[],,,,,,56.4,0.0,u,0.0,True,1258.0,76.0,60.0,40.0,False,,395.235048226728,[],"[512, 288]",ColorTask,18.0,34.0,,,HRV,HRV_0168,2022-11-30 18:38:18
,wl-rdm,42,175002,0.0-6.34-0.34,0.0,43.0,,,,,,,[],,,,,,62.5,0.0,u,0.0,True,1209.0999999046326,73.0,60.0,40.0,False,,394.34657975115203,[],"[512, 288]",ColorTask,19.0,35.0,,,HRV,HRV_0168,2022-11-30 18:38:18
,wl-rdm,43,177316,0.0-6.35-0.35,0.0,44.0,,,,,,,[],,,,,,62.5,0.0,u,0.0,True,1002.0,61.0,60.0,40.0,False,,221.14931991241275,[],"[512, 288]",ColorTask,20.0,36.0,,,HRV,HRV_0168,2022-11-30 18:38:18
,wl-rdm,44,180447,0.0-6.36-0.36,0.0,45.0,,,,,,,[],,,,,,50.0,1.0,u,0.0,False,1736.5,105.0,60.0,40.0,False,,305.60213194563767,[],"[512, 288]",ColorTask,19.0,37.0,,,HRV,HRV_0168,2022-11-30 18:38:18
,wl-rdm,45,182479,0.0-6.37-0.37,0.0,46.0,,,,,,,[],,,,,,62.5,1.0,i,1.0,True,728.6000000238419,44.0,60.0,40.0,False,,232.97888776606703,[],"[512, 288]",ColorTask,20.0,38.0,,,HRV,HRV_0168,2022-11-30 18:38:18
,wl-rdm,46,184427,0.0-6.38-0.38,0.0,47.0,,,,,,,[],,,,,,73.6,0.0,u,0.0,True,615.6000000238419,37.0,60.0,40.0,False,,255.37629931832984,[],"[512, 288]",ColorTask,21.0,39.0,,,HRV,HRV_0168,2022-11-30 18:38:18
,wl-rdm,47,186558,0.0-6.39-0.39,0.0,48.0,,,,,,,[],,,,,,53.2,0.0,i,1.0,False,742.8999999761581,45.0,60.0,40.0,False,,313.7991116583541,[],"[512, 288]",ColorTask,20.0,40.0,,,HRV,HRV_0168,2022-11-30 18:38:18
,wl-rdm,48,189223,0.0-6.40-0.40,0.0,49.0,,,,,,,[],,,,,,53.2,0.0,u,0.0,True,1325.5,80.0,60.0,40.0,False,,260.89439224572646,[],"[512, 288]",ColorTask,21.0,41.0,,,HRV,HRV_0168,2022-11-30 18:38:18
,wl-rdm,49,192187,0.0-6.41-0.41,0.0,50.0,,,,,,,[],,,,,,53.2,1.0,i,1.0,True,1523.3000000715256,92.0,60.0,40.0,False,,364.32178156181794,[],"[512, 288]",ColorTask,22.0,42.0,,,HRV,HRV_0168,2022-11-30 18:38:18
,wl-rdm,50,194668,0.0-6.42-0.42,0.0,51.0,,,,,,,[],,,,,,56.4,0.0,i,1.0,False,1131.7999999523163,68.0,60.0,40.0,False,,266.5659050017838,[],"[512, 288]",ColorTask,21.0,43.0,,,HRV,HRV_0168,2022-11-30 18:38:18
,wl-rdm,51,197316,0.0-6.43-0.43,0.0,52.0,,,,,,,[],,,,,,50.0,1.0,i,1.0,True,1255.3999999761581,76.0,60.0,40.0,False,,311.27412049058273,[],"[512, 288]",ColorTask,22.0,44.0,,,HRV,HRV_0168,2022-11-30 18:38:18
,wl-rdm,52,199614,0.0-6.44-0.44,0.0,53.0,,,,,,,[],,,,,,53.2,1.0,i,1.0,True,1005.0000001192093,61.0,60.0,40.0,False,,206.4749802946062,[],"[512, 288]",ColorTask,23.0,45.0,,,HRV,HRV_0168,2022-11-30 18:38:18
,wl-rdm,53,201712,0.0-6.45-0.45,0.0,54.0,,,,,,,[],,,,,,87.9,1.0,i,1.0,True,686.5,42.0,60.0,40.0,False,,330.1765066188779,[],"[512, 288]",ColorTask,24.0,46.0,,,HRV,HRV_0168,2022-11-30 18:38:18
,wl-rdm,54,204326,0.0-6.46-0.46,0.0,55.0,,,,,,,[],,,,,,50.0,1.0,u,0.0,False,1273.0,77.0,60.0,40.0,False,,255.99608138761891,[],"[512, 288]",ColorTask,23.0,47.0,,,HRV,HRV_0168,2022-11-30 18:38:18
,wl-rdm,55,207207,0.0-6.47-0.47,0.0,56.0,,,,,,,[],,,,,,87.9,0.0,u,0.0,True,1568.3999999761581,95.0,60.0,40.0,False,,223.1367108756645,[],"[512, 288]",ColorTask,24.0,48.0,,,HRV,HRV_0168,2022-11-30 18:38:18
,wl-rdm,56,210088,0.0-6.48-0.48,0.0,57.0,,,,,,,[],,,,,,56.4,0.0,i,1.0,False,1545.3999999761581,93.0,60.0,40.0,False,,260.10514908846113,[],"[512, 288]",ColorTask,23.0,49.0,,,HRV,HRV_0168,2022-11-30 18:38:18
,wl-rdm,57,212502,0.0-6.49-0.49,0.0,58.0,,,,,,,[],,,,,,87.9,0.0,u,0.0,True,1088.6999998092651,66.0,60.0,40.0,False,,237.31237336293555,[],"[512, 288]",ColorTask,24.0,50.0,,,HRV,HRV_0168,2022-11-30 18:38:18
,wl-rdm,58,215217,0.0-6.50-0.50,0.0,59.0,,,,,,,[],,,,,,62.5,1.0,i,1.0,True,1318.0,80.0,60.0,40.0,False,,305.2048277260869,[],"[512, 288]",ColorTask,25.0,51.0,,,HRV,HRV_0168,2022-11-30 18:38:18
,wl-rdm,59,218098,0.0-6.51-0.51,0.0,60.0,,,,,,,[],,,,,,87.9,0.0,u,0.0,True,1465.3999998569489,88.0,60.0,40.0,False,,338.2313651209058,[],"[512, 288]",ColorTask,26.0,52.0,,,HRV,HRV_0168,2022-11-30 18:38:18
,wl-rdm,60,221744,0.0-6.52-0.52,0.0,61.0,,,,,,,[],,,,,,50.0,1.0,u,0.0,False,2185.5,132.0,60.0,40.0,False,,378.10892946339743,[],"[512, 288]",ColorTask,25.0,53.0,,,HRV,HRV_0168,2022-11-30 18:38:18
,wl-rdm,61,224275,0.0-6.53-0.53,0.0,62.0,,,,,,,[],,,,,,56.4,0.0,i,1.0,False,1221.3999999761581,74.0,60.0,40.0,False,,220.24161699588697,[],"[512, 288]",ColorTask,24.0,54.0,,,HRV,HRV_0168,2022-11-30 18:38:18
,wl-rdm,62,227006,0.0-6.54-0.54,0.0,63.0,,,,,,,[],,,,,,73.6,1.0,i,1.0,True,1426.1999999284744,86.0,60.0,40.0,False,,219.86644969262397,[],"[512, 288]",ColorTask,25.0,55.0,,,HRV,HRV_0168,2022-11-30 18:38:18
,wl-rdm,63,229388,0.0-6.55-0.55,0.0,64.0,,,,,,,[],,,,,,73.6,1.0,i,1.0,True,908.2999999523163,55.0,60.0,40.0,False,,389.03418193530393,[],"[512, 288]",ColorTask,26.0,56.0,,,HRV,HRV_0168,2022-11-30 18:38:18
,wl-rdm,64,232785,0.0-6.56-0.56,0.0,65.0,,,,,,,[],,,,,,62.5,0.0,u,0.0,True,1972.5,119.0,60.0,40.0,False,,345.6254078722058,[],"[512, 288]",ColorTask,27.0,57.0,,,HRV,HRV_0168,2022-11-30 18:38:18
,wl-rdm,65,236332,0.0-6.57-0.57,0.0,66.0,,,,,,,[],,,,,,50.0,0.0,i,1.0,False,2172.600000023842,131.0,60.0,40.0,False,,295.4347600495395,[],"[512, 288]",ColorTask,26.0,58.0,,,HRV,HRV_0168,2022-11-30 18:38:18
,wl-rdm,66,239096,0.0-6.58-0.58,0.0,67.0,,,,,,,[],,,,,,56.4,0.0,u,0.0,True,1481.5000001192093,89.0,60.0,40.0,False,,208.586497233135,[],"[512, 288]",ColorTask,27.0,59.0,,,HRV,HRV_0168,2022-11-30 18:38:18
,wl-rdm,67,241511,0.0-6.59-0.59,0.0,68.0,,,,,,,[],,,,,,50.0,0.0,i,1.0,False,1052.1000000238419,64.0,60.0,40.0,False,,276.2759208603786,[],"[512, 288]",ColorTask,26.0,60.0,,,HRV,HRV_0168,2022-11-30 18:38:18
,wl-rdm,68,243675,0.0-6.60-0.60,0.0,69.0,,,,,,,[],,,,,,87.9,1.0,i,1.0,True,821.3999999761581,50.0,60.0,40.0,False,,253.47874060368665,[],"[512, 288]",ColorTask,27.0,61.0,,,HRV,HRV_0168,2022-11-30 18:38:18
,wl-rdm,69,245990,0.0-6.61-0.61,0.0,70.0,,,,,,,[],,,,,,53.2,0.0,i,1.0,False,870.1000000238419,53.0,60.0,40.0,False,,350.84719918090747,[],"[512, 288]",ColorTask,26.0,62.0,,,HRV,HRV_0168,2022-11-30 18:38:18
,wl-rdm,70,248539,0.0-6.62-0.62,0.0,71.0,,,,,,,[],,,,,,62.5,0.0,u,0.0,True,1237.6999999284744,75.0,60.0,40.0,False,,228.16329344202444,[],"[512, 288]",ColorTask,27.0,63.0,,,HRV,HRV_0168,2022-11-30 18:38:18
,wl-rdm,71,252967,0.0-6.63-0.63,0.0,71.0,,,,,,,[],,,,,,53.2,1.0,,,,,179.0,60.0,40.0,True,RT_timeout ,318.1817666955217,[],"[512, 288]",ColorTask,26.0,64.0,,,HRV,HRV_0168,2022-11-30 18:38:18
,wl-rdm,72,255748,0.0-6.64-0.64,0.0,72.0,,,,,,,[],,,,,,73.6,0.0,u,0.0,True,1398.5,84.0,60.0,40.0,False,,305.87999276449807,[],"[512, 288]",ColorTask,27.0,65.0,,,HRV,HRV_0168,2022-11-30 18:38:18
,wl-rdm,73,257896,0.0-6.65-0.65,0.0,73.0,,,,,,,[],,,,,,87.9,0.0,u,0.0,True,785.5,48.0,60.0,40.0,False,,271.29503379383,[],"[512, 288]",ColorTask,28.0,66.0,,,HRV,HRV_0168,2022-11-30 18:38:18
,wl-rdm,74,260044,0.0-6.66-0.66,0.0,74.0,,,,,,,[],,,,,,53.2,1.0,u,0.0,False,861.5999999046326,52.0,60.0,40.0,False,,214.0740366795936,[],"[512, 288]",ColorTask,27.0,67.0,,,HRV,HRV_0168,2022-11-30 18:38:18
,wl-rdm,75,262359,0.0-6.67-0.67,0.0,75.0,,,,,,,[],,,,,,56.4,0.0,u,0.0,True,1018.3000000715256,62.0,60.0,40.0,False,,200.626754134765,[],"[512, 288]",ColorTask,28.0,68.0,,,HRV,HRV_0168,2022-11-30 18:38:18
,wl-rdm,76,264540,0.0-6.68-0.68,0.0,76.0,,,,,,,[],,,,,,53.2,0.0,i,1.0,False,868.6000000238419,53.0,60.0,40.0,False,,224.8691127335997,[],"[512, 288]",ColorTask,27.0,69.0,,,HRV,HRV_0168,2022-11-30 18:38:18
,wl-rdm,77,267654,0.0-6.69-0.69,0.0,77.0,,,,,,,[],,,,,,50.0,0.0,i,1.0,False,1806.0,109.0,60.0,40.0,False,,221.23196559680193,[],"[512, 288]",ColorTask,26.0,70.0,,,HRV,HRV_0168,2022-11-30 18:38:18
,wl-rdm,78,270185,0.0-6.70-0.70,0.0,78.0,,,,,,,[],,,,,,62.5,1.0,i,1.0,True,1236.8999999761581,75.0,60.0,40.0,False,,209.51992449665974,[],"[512, 288]",ColorTask,27.0,71.0,,,HRV,HRV_0168,2022-11-30 18:38:18
,wl-rdm,79,272883,0.0-6.71-0.71,0.0,79.0,,,,,,,[],,,,,,62.5,0.0,u,0.0,True,1307.0999999046326,79.0,60.0,40.0,False,,314.3129420418481,[],"[512, 288]",ColorTask,28.0,72.0,,,HRV,HRV_0168,2022-11-30 18:38:18
,wl-rdm,80,275214,0.0-6.72-0.72,0.0,80.0,,,,,,,[],,,,,,73.6,0.0,u,0.0,True,877.1999998092651,53.0,60.0,40.0,False,,372.4312259977591,[],"[512, 288]",ColorTask,29.0,73.0,,,HRV,HRV_0168,2022-11-30 18:38:18
,wl-rdm,81,277812,0.0-6.73-0.73,0.0,81.0,,,,,,,[],,,,,,73.6,0.0,u,0.0,True,1217.3999999761581,74.0,60.0,40.0,False,,299.3801085740756,[],"[512, 288]",ColorTask,30.0,74.0,,,HRV,HRV_0168,2022-11-30 18:38:18
,wl-rdm,82,280210,0.0-6.74-0.74,0.0,82.0,,,,,,,[],,,,,,73.6,1.0,i,1.0,True,1003.8999999761581,61.0,60.0,40.0,False,,313.8279666468523,[],"[512, 288]",ColorTask,31.0,75.0,,,HRV,HRV_0168,2022-11-30 18:38:18
,wl-rdm,83,283690,0.0-6.75-0.75,0.0,83.0,,,,,,,[],,,,,,53.2,1.0,i,1.0,True,2161.7000000476837,130.0,60.0,40.0,False,,240.45991070862632,[],"[512, 288]",ColorTask,32.0,76.0,,,HRV,HRV_0168,2022-11-30 18:38:18
,wl-rdm,84,285888,0.0-6.76-0.76,0.0,84.0,,,,,,,[],,,,,,62.5,1.0,u,0.0,False,875.0999999046326,53.0,60.0,40.0,False,,233.3689210251273,[],"[512, 288]",ColorTask,31.0,77.0,,,HRV,HRV_0168,2022-11-30 18:38:18
,wl-rdm,85,288070,0.0-6.77-0.77,0.0,85.0,,,,,,,[],,,,,,87.9,1.0,i,1.0,True,812.1000000238419,49.0,60.0,40.0,False,,296.58050022342434,[],"[512, 288]",ColorTask,32.0,78.0,,,HRV,HRV_0168,2022-11-30 18:38:18
,wl-rdm,86,291034,0.0-6.78-0.78,0.0,86.0,,,,,,,[],,,,,,50.0,0.0,i,1.0,False,1657.7000000476837,100.0,60.0,40.0,False,,217.58744428436782,[],"[512, 288]",ColorTask,31.0,79.0,,,HRV,HRV_0168,2022-11-30 18:38:18
,wl-rdm,87,293681,0.0-6.79-0.79,0.0,87.0,,,,,,,[],,,,,,56.4,0.0,i,1.0,False,1327.3999999761581,80.0,60.0,40.0,False,,249.15842666787833,[],"[512, 288]",ColorTask,30.0,80.0,,,HRV,HRV_0168,2022-11-30 18:38:18
,wl-rdm,88,296179,0.0-6.80-0.80,0.0,88.0,,,,,,,[],,,,,,73.6,1.0,i,1.0,True,1026.4000000953674,62.0,60.0,40.0,False,,388.3722925383016,[],"[512, 288]",ColorTask,31.0,81.0,,,HRV,HRV_0168,2022-11-30 18:38:18
,wl-rdm,89,299010,0.0-6.81-0.81,0.0,89.0,,,,,,,[],,,,,,62.5,1.0,i,1.0,True,1441.9999998807907,87.0,60.0,40.0,False,,307.1861832552636,[],"[512, 288]",ColorTask,32.0,82.0,,,HRV,HRV_0168,2022-11-30 18:38:18
,wl-rdm,90,301341,0.0-6.82-0.82,0.0,90.0,,,,,,,[],,,,,,87.9,1.0,i,1.0,True,1018.2000000476837,62.0,60.0,40.0,False,,223.93501415552078,[],"[512, 288]",ColorTask,33.0,83.0,,,HRV,HRV_0168,2022-11-30 18:38:18
,wl-rdm,91,303923,0.0-6.83-0.83,0.0,91.0,,,,,,,[],,,,,,56.4,0.0,u,0.0,True,1274.8999999761581,77.0,60.0,40.0,False,,219.10154693105264,[],"[512, 288]",ColorTask,34.0,84.0,,,HRV,HRV_0168,2022-11-30 18:38:18
,wl-rdm,92,308419,0.0-6.84-0.84,0.0,91.0,,,,,,,[],,,,,,56.4,1.0,,,,,179.0,60.0,40.0,True,RT_timeout ,398.2499514237476,[],"[512, 288]",ColorTask,33.0,85.0,,,HRV,HRV_0168,2022-11-30 18:38:18
,wl-rdm,93,309884,0.0-6.85-0.85,0.0,91.0,,,,,,,[],,,,,,73.6,1.0,u,0.0,False,94.29999995231628,6.0,60.0,40.0,True,too_early ,291.3083283460903,[],"[512, 288]",ColorTask,32.0,86.0,,,HRV,HRV_0168,2022-11-30 18:38:18
,wl-rdm,94,312448,0.0-6.86-0.86,0.0,92.0,,,,,,,[],,,,,,87.9,0.0,u,0.0,True,1270.1000000238419,77.0,60.0,40.0,False,,204.6221118768254,[],"[512, 288]",ColorTask,33.0,87.0,,,HRV,HRV_0168,2022-11-30 18:38:18
,wl-rdm,95,315795,0.0-6.87-0.87,0.0,93.0,,,,,,,[],,,,,,50.0,1.0,u,0.0,False,1968.0999999046326,119.0,60.0,40.0,False,,299.52244811101383,[],"[512, 288]",ColorTask,32.0,88.0,,,HRV,HRV_0168,2022-11-30 18:38:18
,wl-rdm,96,318060,0.0-6.88-0.88,0.0,94.0,,,,,,,[],,,,,,73.6,0.0,u,0.0,True,868.5,53.0,60.0,40.0,False,,305.843192376036,[],"[512, 288]",ColorTask,33.0,89.0,,,HRV,HRV_0168,2022-11-30 18:38:18
,wl-rdm,97,320925,0.0-6.89-0.89,0.0,95.0,,,,,,,[],,,,,,50.0,0.0,i,1.0,False,1402.2000000476837,85.0,60.0,40.0,False,,382.87774115526304,[],"[512, 288]",ColorTask,32.0,90.0,,,HRV,HRV_0168,2022-11-30 18:38:18
,wl-rdm,98,323089,0.0-6.90-0.90,0.0,96.0,,,,,,,[],,,,,,87.9,1.0,i,1.0,True,769.6000000238419,47.0,60.0,40.0,False,,309.00864754527083,[],"[512, 288]",ColorTask,33.0,91.0,,,HRV,HRV_0168,2022-11-30 18:38:18
,wl-rdm,99,326403,0.0-6.91-0.91,0.0,97.0,,,,,,,[],,,,,,50.0,0.0,i,1.0,False,2003.8999999761581,121.0,60.0,40.0,False,,217.25928741901302,[],"[512, 288]",ColorTask,32.0,92.0,,,HRV,HRV_0168,2022-11-30 18:38:18
,wl-rdm,100,328684,0.0-6.92-0.92,0.0,98.0,,,,,,,[],,,,,,56.4,1.0,i,1.0,True,971.1999999284744,59.0,60.0,40.0,False,,220.94989722169052,[],"[512, 288]",ColorTask,33.0,93.0,,,HRV,HRV_0168,2022-11-30 18:38:18
,wl-rdm,101,330733,0.0-6.93-0.93,0.0,99.0,,,,,,,[],,,,,,87.9,1.0,i,1.0,True,754.6000000238419,46.0,60.0,40.0,False,,201.64503688552315,[],"[512, 288]",ColorTask,34.0,94.0,,,HRV,HRV_0168,2022-11-30 18:38:18
,wl-rdm,102,332914,0.0-6.94-0.94,0.0,100.0,,,,,,,[],,,,,,73.6,1.0,i,1.0,True,701.6000000238419,43.0,60.0,40.0,False,,390.98639932567636,[],"[512, 288]",ColorTask,35.0,95.0,,,HRV,HRV_0168,2022-11-30 18:38:18
,wl-rdm,103,335262,0.0-6.95-0.95,0.0,101.0,,,,,,,[],,,,,,53.2,0.0,u,0.0,True,980.1000000238419,59.0,60.0,40.0,False,,289.23028765574537,[],"[512, 288]",ColorTask,36.0,96.0,,,HRV,HRV_0168,2022-11-30 18:38:18
,wl-rdm,104,338276,0.0-6.96-0.96,0.0,102.0,,,,,,,[],,,,,,62.5,0.0,i,1.0,False,1695.0000001192093,102.0,60.0,40.0,False,,239.19593461145783,[],"[512, 288]",ColorTask,35.0,97.0,,,HRV,HRV_0168,2022-11-30 18:38:18
,wl-rdm,105,340607,0.0-6.97-0.97,0.0,103.0,,,,,,,[],,,,,,56.4,1.0,i,1.0,True,863.5,52.0,60.0,40.0,False,,389.5461466661567,[],"[512, 288]",ColorTask,36.0,98.0,,,HRV,HRV_0168,2022-11-30 18:38:18
,wl-rdm,106,343272,0.0-6.98-0.98,0.0,104.0,,,,,,,[],,,,,,50.0,1.0,u,0.0,False,1365.6000000238419,82.0,60.0,40.0,False,,225.0777039651596,[],"[512, 288]",ColorTask,35.0,99.0,,,HRV,HRV_0168,2022-11-30 18:38:18
,wl-rdm,107,345320,0.0-6.99-0.99,0.0,105.0,,,,,,,[],,,,,,87.9,0.0,u,0.0,True,743.7000000476837,45.0,60.0,40.0,False,,232.728948464285,[],"[512, 288]",ColorTask,36.0,100.0,,,HRV,HRV_0168,2022-11-30 18:38:18
,wl-rdm,108,348867,0.0-6.100-0.100,0.0,106.0,,,,,,,[],,,,,,53.2,0.0,u,0.0,True,2137.9999998807907,129.0,60.0,40.0,False,,331.77028531397843,[],"[512, 288]",ColorTask,37.0,101.0,,,HRV,HRV_0168,2022-11-30 18:38:18
,wl-rdm,109,351148,0.0-6.101-0.101,0.0,107.0,,,,,,,[],,,,,,87.9,0.0,u,0.0,True,846.6000000238419,51.0,60.0,40.0,False,,360.74132547285103,[],"[512, 288]",ColorTask,38.0,102.0,,,HRV,HRV_0168,2022-11-30 18:38:18
,wl-rdm,110,354195,0.0-6.102-0.102,0.0,108.0,,,,,,,[],,,,,,53.2,0.0,u,0.0,True,1622.0,98.0,60.0,40.0,False,,348.25641102424566,[],"[512, 288]",ColorTask,39.0,103.0,,,HRV,HRV_0168,2022-11-30 18:38:18
,wl-rdm,111,356859,0.0-6.103-0.103,0.0,109.0,,,,,,,[],,,,,,73.6,0.0,u,0.0,True,1248.5,75.0,60.0,40.0,False,,340.00618347401337,[],"[512, 288]",ColorTask,40.0,104.0,,,HRV,HRV_0168,2022-11-30 18:38:18
,wl-rdm,112,359041,0.0-6.104-0.104,0.0,110.0,,,,,,,[],,,,,,87.9,1.0,i,1.0,True,705.2000000476837,43.0,60.0,40.0,False,,390.9356263110626,[],"[512, 288]",ColorTask,41.0,105.0,,,HRV,HRV_0168,2022-11-30 18:38:18
,wl-rdm,113,361322,0.0-6.105-0.105,0.0,111.0,,,,,,,[],,,,,,73.6,0.0,u,0.0,True,831.0999999046326,50.0,60.0,40.0,False,,380.6141448793685,[],"[512, 288]",ColorTask,42.0,106.0,,,HRV,HRV_0168,2022-11-30 18:38:18
,wl-rdm,114,363570,0.0-6.106-0.106,0.0,112.0,,,,,,,[],,,,,,62.5,1.0,i,1.0,True,879.6000000238419,53.0,60.0,40.0,False,,287.0471852341118,[],"[512, 288]",ColorTask,43.0,107.0,,,HRV,HRV_0168,2022-11-30 18:38:18
,wl-rdm,115,367167,0.0-6.107-0.107,0.0,113.0,,,,,,,[],,,,,,73.6,1.0,i,1.0,True,2174.100000023842,131.0,60.0,40.0,False,,344.6426676145031,[],"[512, 288]",ColorTask,44.0,108.0,,,HRV,HRV_0168,2022-11-30 18:38:18
,wl-rdm,116,369332,0.0-6.108-0.108,0.0,114.0,,,,,,,[],,,,,,87.9,0.0,u,0.0,True,819.5,50.0,60.0,40.0,False,,261.75462245709195,[],"[512, 288]",ColorTask,45.0,109.0,,,HRV,HRV_0168,2022-11-30 18:38:18
,wl-rdm,117,372546,0.0-6.109-0.109,0.0,115.0,,,,,,,[],,,,,,50.0,0.0,u,0.0,True,1834.3999999761581,111.0,60.0,40.0,False,,294.5745967976306,[],"[512, 288]",ColorTask,46.0,110.0,,,HRV,HRV_0168,2022-11-30 18:38:18
,wl-rdm,118,375027,0.0-6.110-0.110,0.0,116.0,,,,,,,[],,,,,,56.4,1.0,i,1.0,True,1118.1999999284744,68.0,60.0,40.0,False,,271.3753270326461,[],"[512, 288]",ColorTask,47.0,111.0,,,HRV,HRV_0168,2022-11-30 18:38:18
,wl-html-keyboard-response,119,501886,0.0-7.0-0.0,1.0,117.0,,,,,,,,124851.40000009537,1.0,0,,,,,,,,,,,,,,,,,,,,,,HRV,HRV_0168,2022-11-30 18:38:18
,wl-rdm,120,504148,0.0-8.0-0.0,1.0,118.0,,,,,,,[],,,,,,87.9,0.0,u,0.0,True,915.1999999284744,55.0,60.0,40.0,False,,276.20853883943676,[],"[512, 288]",ColorTask,48.0,1.0,,,HRV,HRV_0168,2022-11-30 18:38:18
,wl-rdm,121,506279,0.0-8.1-0.1,1.0,119.0,,,,,,,[],,,,,,87.9,0.0,u,0.0,True,754.6000000238419,46.0,60.0,40.0,False,,294.2301095773615,[],"[512, 288]",ColorTask,49.0,2.0,,,HRV,HRV_0168,2022-11-30 18:38:18
,wl-rdm,122,508244,0.0-8.2-0.2,1.0,120.0,,,,,,,[],,,,,,62.5,1.0,i,1.0,True,648.8999999761581,39.0,60.0,40.0,False,,243.26336085269656,[],"[512, 288]",ColorTask,50.0,3.0,,,HRV,HRV_0168,2022-11-30 18:38:18
,wl-rdm,123,510226,0.0-8.3-0.3,1.0,121.0,,,,,,,[],,,,,,87.9,1.0,i,1.0,True,607.6000000238419,37.0,60.0,40.0,False,,290.2387909937006,[],"[512, 288]",ColorTask,51.0,4.0,,,HRV,HRV_0168,2022-11-30 18:38:18
,wl-rdm,124,512241,0.0-8.4-0.4,1.0,122.0,,,,,,,[],,,,,,73.6,1.0,i,1.0,True,720.6000000238419,44.0,60.0,40.0,False,,214.6623798466851,[],"[512, 288]",ColorTask,52.0,5.0,,,HRV,HRV_0168,2022-11-30 18:38:18
,wl-rdm,125,515372,0.0-8.5-0.5,1.0,123.0,,,,,,,[],,,,,,53.2,0.0,u,0.0,True,1793.2999999523163,108.0,60.0,40.0,False,,263.83820272881246,[],"[512, 288]",ColorTask,53.0,6.0,,,HRV,HRV_0168,2022-11-30 18:38:18
,wl-rdm,126,518369,0.0-8.6-0.6,1.0,124.0,,,,,,,[],,,,,,53.2,0.0,u,0.0,True,1700.1999999284744,103.0,60.0,40.0,False,,204.17832444912912,[],"[512, 288]",ColorTask,54.0,7.0,,,HRV,HRV_0168,2022-11-30 18:38:18
,wl-rdm,127,521699,0.0-8.7-0.7,1.0,125.0,,,,,,,[],,,,,,53.2,1.0,i,1.0,True,1950.0,118.0,60.0,40.0,False,,293.24934411729475,[],"[512, 288]",ColorTask,55.0,8.0,,,HRV,HRV_0168,2022-11-30 18:38:18
,wl-rdm,128,524863,0.0-8.8-0.8,1.0,126.0,,,,,,,[],,,,,,50.0,1.0,u,0.0,False,1787.8000000715256,108.0,60.0,40.0,False,,284.65560712838874,[],"[512, 288]",ColorTask,54.0,9.0,,,HRV,HRV_0168,2022-11-30 18:38:18
,wl-rdm,129,527228,0.0-8.9-0.9,1.0,127.0,,,,,,,[],,,,,,62.5,1.0,i,1.0,True,1005.6999999284744,61.0,60.0,40.0,False,,270.02611843950126,[],"[512, 288]",ColorTask,55.0,10.0,,,HRV,HRV_0168,2022-11-30 18:38:18
,wl-rdm,130,529776,0.0-8.10-0.10,1.0,128.0,,,,,,,[],,,,,,50.0,1.0,i,1.0,True,1211.3999999761581,73.0,60.0,40.0,False,,252.52034142533202,[],"[512, 288]",ColorTask,56.0,11.0,,,HRV,HRV_0168,2022-11-30 18:38:18
,wl-rdm,131,532323,0.0-8.11-0.11,1.0,129.0,,,,,,,[],,,,,,50.0,1.0,u,0.0,False,1257.2000000476837,76.0,60.0,40.0,False,,214.2053196848257,[],"[512, 288]",ColorTask,55.0,12.0,,,HRV,HRV_0168,2022-11-30 18:38:18
,wl-rdm,132,534472,0.0-8.12-0.12,1.0,130.0,,,,,,,[],,,,,,73.6,1.0,i,1.0,True,680.2000000476837,41.0,60.0,40.0,False,,389.0761684794244,[],"[512, 288]",ColorTask,56.0,13.0,,,HRV,HRV_0168,2022-11-30 18:38:18
,wl-rdm,133,536520,0.0-8.13-0.13,1.0,131.0,,,,,,,[],,,,,,87.9,1.0,i,1.0,True,697.9000000953674,42.0,60.0,40.0,False,,271.3919240383129,[],"[512, 288]",ColorTask,57.0,14.0,,,HRV,HRV_0168,2022-11-30 18:38:18
,wl-rdm,134,538651,0.0-8.14-0.14,1.0,132.0,,,,,,,[],,,,,,50.0,1.0,u,0.0,False,769.2000000476837,47.0,60.0,40.0,False,,270.3161943609834,[],"[512, 288]",ColorTask,56.0,15.0,,,HRV,HRV_0168,2022-11-30 18:38:18
,wl-rdm,135,541099,0.0-8.15-0.15,1.0,133.0,,,,,,,[],,,,,,50.0,0.0,u,0.0,True,1154.6999999284744,70.0,60.0,40.0,False,,202.53658570613925,[],"[512, 288]",ColorTask,57.0,16.0,,,HRV,HRV_0168,2022-11-30 18:38:18
,wl-rdm,136,543780,0.0-8.16-0.16,1.0,134.0,,,,,,,[],,,,,,62.5,0.0,u,0.0,True,1326.2999999523163,80.0,60.0,40.0,False,,272.7107953200376,[],"[512, 288]",ColorTask,58.0,17.0,,,HRV,HRV_0168,2022-11-30 18:38:18
,wl-rdm,137,546061,0.0-8.17-0.17,1.0,135.0,,,,,,,[],,,,,,62.5,1.0,i,1.0,True,902.7000000476837,55.0,60.0,40.0,False,,288.55871034560084,[],"[512, 288]",ColorTask,59.0,18.0,,,HRV,HRV_0168,2022-11-30 18:38:18
,wl-rdm,138,548809,0.0-8.18-0.18,1.0,136.0,,,,,,,[],,,,,,56.4,1.0,u,0.0,False,1421.8999999761581,86.0,60.0,40.0,False,,246.69736826749357,[],"[512, 288]",ColorTask,58.0,19.0,,,HRV,HRV_0168,2022-11-30 18:38:18
,wl-rdm,139,551007,0.0-8.19-0.19,1.0,137.0,,,,,,,[],,,,,,73.6,0.0,u,0.0,True,846.4999998807907,51.0,60.0,40.0,False,,278.2135133579095,[],"[512, 288]",ColorTask,59.0,20.0,,,HRV,HRV_0168,2022-11-30 18:38:18
,wl-rdm,140,553771,0.0-8.20-0.20,1.0,138.0,,,,,,,[],,,,,,53.2,1.0,i,1.0,True,1419.4999998807907,86.0,60.0,40.0,False,,262.2954612999924,[],"[512, 288]",ColorTask,60.0,21.0,,,HRV,HRV_0168,2022-11-30 18:38:18
,wl-rdm,141,555786,0.0-8.21-0.21,1.0,139.0,,,,,,,[],,,,,,87.9,1.0,i,1.0,True,722.6999999284744,44.0,60.0,40.0,False,,210.58015326740377,[],"[512, 288]",ColorTask,61.0,22.0,,,HRV,HRV_0168,2022-11-30 18:38:18
,wl-rdm,142,558367,0.0-8.22-0.22,1.0,140.0,,,,,,,[],,,,,,62.5,0.0,u,0.0,True,1251.5999999046326,76.0,60.0,40.0,False,,242.36901620527757,[],"[512, 288]",ColorTask,62.0,23.0,,,HRV,HRV_0168,2022-11-30 18:38:18
,wl-rdm,143,560632,0.0-8.23-0.23,1.0,141.0,,,,,,,[],,,,,,56.4,0.0,u,0.0,True,954.5999999046326,58.0,60.0,40.0,False,,228.56940450843612,[],"[512, 288]",ColorTask,63.0,24.0,,,HRV,HRV_0168,2022-11-30 18:38:18
,wl-rdm,144,562813,0.0-8.24-0.24,1.0,142.0,,,,,,,[],,,,,,56.4,1.0,i,1.0,True,834.1000000238419,51.0,60.0,40.0,False,,259.0045267208337,[],"[512, 288]",ColorTask,64.0,25.0,,,HRV,HRV_0168,2022-11-30 18:38:18
,wl-rdm,145,564995,0.0-8.25-0.25,1.0,143.0,,,,,,,[],,,,,,87.9,0.0,u,0.0,True,821.5,50.0,60.0,40.0,False,,282.55723756447827,[],"[512, 288]",ColorTask,65.0,26.0,,,HRV,HRV_0168,2022-11-30 18:38:18
,wl-rdm,146,567026,0.0-8.26-0.26,1.0,144.0,,,,,,,[],,,,,,56.4,0.0,u,0.0,True,711.5,43.0,60.0,40.0,False,,247.70146018462768,[],"[512, 288]",ColorTask,66.0,27.0,,,HRV,HRV_0168,2022-11-30 18:38:18
,wl-rdm,147,569041,0.0-8.27-0.27,1.0,145.0,,,,,,,[],,,,,,73.6,1.0,i,1.0,True,700.5,43.0,60.0,40.0,False,,221.3398315698142,[],"[512, 288]",ColorTask,67.0,28.0,,,HRV,HRV_0168,2022-11-30 18:38:18
,wl-rdm,148,571056,0.0-8.28-0.28,1.0,146.0,,,,,,,[],,,,,,62.5,1.0,i,1.0,True,674.5,41.0,60.0,40.0,False,,249.98480442935247,[],"[512, 288]",ColorTask,68.0,29.0,,,HRV,HRV_0168,2022-11-30 18:38:18
,wl-rdm,149,573537,0.0-8.29-0.29,1.0,147.0,,,,,,,[],,,,,,53.2,0.0,i,1.0,False,1194.7999999523163,72.0,60.0,40.0,False,,202.22523291437378,[],"[512, 288]",ColorTask,67.0,30.0,,,HRV,HRV_0168,2022-11-30 18:38:18
,wl-rdm,150,575719,0.0-8.30-0.30,1.0,148.0,,,,,,,[],,,,,,56.4,1.0,u,0.0,False,831.0,50.0,60.0,40.0,False,,269.91035687223257,[],"[512, 288]",ColorTask,66.0,31.0,,,HRV,HRV_0168,2022-11-30 18:38:18
,wl-rdm,151,577934,0.0-8.31-0.31,1.0,149.0,,,,,,,[],,,,,,62.5,0.0,u,0.0,True,745.3999999761581,45.0,60.0,40.0,False,,393.50032422395054,[],"[512, 288]",ColorTask,67.0,32.0,,,HRV,HRV_0168,2022-11-30 18:38:18
,wl-rdm,152,580082,0.0-8.32-0.32,1.0,150.0,,,,,,,[],,,,,,50.0,0.0,i,1.0,False,819.6999999284744,50.0,60.0,40.0,False,,244.10367874176293,[],"[512, 288]",ColorTask,66.0,33.0,,,HRV,HRV_0168,2022-11-30 18:38:18
,wl-rdm,153,582313,0.0-8.33-0.33,1.0,151.0,,,,,,,[],,,,,,53.2,1.0,i,1.0,True,836.2000000476837,51.0,60.0,40.0,False,,308.8672067725437,[],"[512, 288]",ColorTask,67.0,34.0,,,HRV,HRV_0168,2022-11-30 18:38:18
,wl-rdm,154,584411,0.0-8.34-0.34,1.0,152.0,,,,,,,[],,,,,,87.9,0.0,u,0.0,True,721.5,44.0,60.0,40.0,False,,286.5768440492882,[],"[512, 288]",ColorTask,68.0,35.0,,,HRV,HRV_0168,2022-11-30 18:38:18
,wl-rdm,155,587409,0.0-8.35-0.35,1.0,153.0,,,,,,,[],,,,,,56.4,1.0,i,1.0,True,1650.6000000238419,100.0,60.0,40.0,False,,252.06356614004798,[],"[512, 288]",ColorTask,69.0,36.0,,,HRV,HRV_0168,2022-11-30 18:38:18
,wl-rdm,156,589956,0.0-8.36-0.36,1.0,154.0,,,,,,,[],,,,,,53.2,0.0,u,0.0,True,1077.0,65.0,60.0,40.0,False,,390.4893428662298,[],"[512, 288]",ColorTask,70.0,37.0,,,HRV,HRV_0168,2022-11-30 18:38:18
,wl-rdm,157,592254,0.0-8.37-0.37,1.0,155.0,,,,,,,[],,,,,,50.0,0.0,i,1.0,False,842.5,51.0,60.0,40.0,False,,380.5186911289426,[],"[512, 288]",ColorTask,69.0,38.0,,,HRV,HRV_0168,2022-11-30 18:38:18
,wl-rdm,158,594652,0.0-8.38-0.38,1.0,156.0,,,,,,,[],,,,,,56.4,0.0,u,0.0,True,1017.0,62.0,60.0,40.0,False,,284.7236326800952,[],"[512, 288]",ColorTask,70.0,39.0,,,HRV,HRV_0168,2022-11-30 18:38:18
,wl-rdm,159,596634,0.0-8.39-0.39,1.0,157.0,,,,,,,[],,,,,,87.9,1.0,i,1.0,True,650.6000000238419,40.0,60.0,40.0,False,,236.9557190993217,[],"[512, 288]",ColorTask,71.0,40.0,,,HRV,HRV_0168,2022-11-30 18:38:18
,wl-rdm,160,598999,0.0-8.40-0.40,1.0,158.0,,,,,,,[],,,,,,62.5,0.0,u,0.0,True,977.3999999761581,59.0,60.0,40.0,False,,302.9563992348907,[],"[512, 288]",ColorTask,72.0,41.0,,,HRV,HRV_0168,2022-11-30 18:38:18
,wl-rdm,161,601346,0.0-8.41-0.41,1.0,159.0,,,,,,,[],,,,,,87.9,0.0,u,0.0,True,1016.8999998569489,62.0,60.0,40.0,False,,238.43891002560306,[],"[512, 288]",ColorTask,73.0,42.0,,,HRV,HRV_0168,2022-11-30 18:38:18
,wl-rdm,162,604394,0.0-8.42-0.42,1.0,160.0,,,,,,,[],,,,,,53.2,0.0,u,0.0,True,1643.7999999523163,99.0,60.0,40.0,False,,328.1284015626634,[],"[512, 288]",ColorTask,74.0,43.0,,,HRV,HRV_0168,2022-11-30 18:38:18
,wl-rdm,163,606375,0.0-8.43-0.43,1.0,161.0,,,,,,,[],,,,,,87.9,1.0,i,1.0,True,664.7999999523163,40.0,60.0,40.0,False,,246.92706493991918,[],"[512, 288]",ColorTask,75.0,44.0,,,HRV,HRV_0168,2022-11-30 18:38:18
,wl-rdm,164,608524,0.0-8.44-0.44,1.0,162.0,,,,,,,[],,,,,,87.9,1.0,i,1.0,True,731.5,44.0,60.0,40.0,False,,347.2686903599528,[],"[512, 288]",ColorTask,76.0,45.0,,,HRV,HRV_0168,2022-11-30 18:38:18
,wl-rdm,165,610588,0.0-8.45-0.45,1.0,163.0,,,,,,,[],,,,,,53.2,0.0,u,0.0,True,777.3000000715256,47.0,60.0,40.0,False,,215.35899828094009,[],"[512, 288]",ColorTask,77.0,46.0,,,HRV,HRV_0168,2022-11-30 18:38:18
,wl-rdm,166,612870,0.0-8.46-0.46,1.0,164.0,,,,,,,[],,,,,,50.0,1.0,u,0.0,False,946.7000000476837,57.0,60.0,40.0,False,,265.7967603601903,[],"[512, 288]",ColorTask,76.0,47.0,,,HRV,HRV_0168,2022-11-30 18:38:18
,wl-rdm,167,615884,0.0-8.47-0.47,1.0,165.0,,,,,,,[],,,,,,56.4,1.0,i,1.0,True,1595.0999999046326,96.0,60.0,40.0,False,,336.2293914730818,[],"[512, 288]",ColorTask,77.0,48.0,,,HRV,HRV_0168,2022-11-30 18:38:18
,wl-rdm,168,618581,0.0-8.48-0.48,1.0,166.0,,,,,,,[],,,,,,56.4,0.0,u,0.0,True,1333.7999999523163,81.0,60.0,40.0,False,,274.628975720745,[],"[512, 288]",ColorTask,78.0,49.0,,,HRV,HRV_0168,2022-11-30 18:38:18
,wl-rdm,169,621779,0.0-8.49-0.49,1.0,167.0,,,,,,,[],,,,,,73.6,1.0,i,1.0,True,1871.3000000715256,113.0,60.0,40.0,False,,236.00145290407622,[],"[512, 288]",ColorTask,79.0,50.0,,,HRV,HRV_0168,2022-11-30 18:38:18
,wl-rdm,170,624276,0.0-8.50-0.50,1.0,168.0,,,,,,,[],,,,,,53.2,1.0,u,0.0,False,1214.5,73.0,60.0,40.0,False,,213.96758913651047,[],"[512, 288]",ColorTask,78.0,51.0,,,HRV,HRV_0168,2022-11-30 18:38:18
,wl-rdm,171,626475,0.0-8.51-0.51,1.0,169.0,,,,,,,[],,,,,,50.0,0.0,u,0.0,True,838.2999999523163,51.0,60.0,40.0,False,,281.2641383715919,[],"[512, 288]",ColorTask,79.0,52.0,,,HRV,HRV_0168,2022-11-30 18:38:18
,wl-rdm,172,628756,0.0-8.52-0.52,1.0,170.0,,,,,,,[],,,,,,73.6,0.0,u,0.0,True,978.6000000238419,59.0,60.0,40.0,False,,229.5660871801323,[],"[512, 288]",ColorTask,80.0,53.0,,,HRV,HRV_0168,2022-11-30 18:38:18
,wl-rdm,173,630887,0.0-8.53-0.53,1.0,171.0,,,,,,,[],,,,,,73.6,1.0,i,1.0,True,764.3999999761581,46.0,60.0,40.0,False,,284.63792631292665,[],"[512, 288]",ColorTask,81.0,54.0,,,HRV,HRV_0168,2022-11-30 18:38:18
,wl-rdm,174,633269,0.0-8.54-0.54,1.0,172.0,,,,,,,[],,,,,,62.5,0.0,u,0.0,True,1013.3000000715256,61.0,60.0,40.0,False,,297.5318662958888,[],"[512, 288]",ColorTask,82.0,55.0,,,HRV,HRV_0168,2022-11-30 18:38:18
,wl-rdm,175,636682,0.0-8.55-0.55,1.0,173.0,,,,,,,[],,,,,,50.0,1.0,i,1.0,True,2110.399999976158,127.0,60.0,40.0,False,,218.93524669248853,[],"[512, 288]",ColorTask,83.0,56.0,,,HRV,HRV_0168,2022-11-30 18:38:18
,wl-rdm,176,639347,0.0-8.56-0.56,1.0,174.0,,,,,,,[],,,,,,73.6,1.0,i,1.0,True,1325.2999999523163,80.0,60.0,40.0,False,,256.0995597906969,[],"[512, 288]",ColorTask,84.0,57.0,,,HRV,HRV_0168,2022-11-30 18:38:18
,wl-rdm,177,641645,0.0-8.57-0.57,1.0,175.0,,,,,,,[],,,,,,50.0,0.0,i,1.0,False,835.0000001192093,51.0,60.0,40.0,False,,376.2247174798289,[],"[512, 288]",ColorTask,83.0,58.0,,,HRV,HRV_0168,2022-11-30 18:38:18
,wl-rdm,178,644942,0.0-8.58-0.58,1.0,176.0,,,,,,,[],,,,,,50.0,1.0,i,1.0,True,1968.5,119.0,60.0,40.0,False,,239.45000639680006,[],"[512, 288]",ColorTask,84.0,59.0,,,HRV,HRV_0168,2022-11-30 18:38:18
,wl-rdm,179,647057,0.0-8.59-0.59,1.0,177.0,,,,,,,[],,,,,,56.4,0.0,u,0.0,True,787.5,48.0,60.0,40.0,False,,239.61698051326437,[],"[512, 288]",ColorTask,85.0,60.0,,,HRV,HRV_0168,2022-11-30 18:38:18
,wl-rdm,180,649521,0.0-8.60-0.60,1.0,178.0,,,,,,,[],,,,,,53.2,1.0,u,0.0,False,1155.8000000715256,70.0,60.0,40.0,False,,219.88709250348322,[],"[512, 288]",ColorTask,84.0,61.0,,,HRV,HRV_0168,2022-11-30 18:38:18
,wl-rdm,181,652301,0.0-8.61-0.61,1.0,179.0,,,,,,,[],,,,,,50.0,1.0,u,0.0,False,1431.3999999761581,86.0,60.0,40.0,False,,281.99223678729334,[],"[512, 288]",ColorTask,83.0,62.0,,,HRV,HRV_0168,2022-11-30 18:38:18
,wl-rdm,182,655432,0.0-8.62-0.62,1.0,180.0,,,,,,,[],,,,,,56.4,1.0,u,0.0,False,1669.1000000238419,101.0,60.0,40.0,False,,367.1378191425616,[],"[512, 288]",ColorTask,82.0,63.0,,,HRV,HRV_0168,2022-11-30 18:38:18
,wl-rdm,183,658213,0.0-8.63-0.63,1.0,181.0,,,,,,,[],,,,,,62.5,1.0,i,1.0,True,1390.2999999523163,84.0,60.0,40.0,False,,315.13974455522253,[],"[512, 288]",ColorTask,83.0,64.0,,,HRV,HRV_0168,2022-11-30 18:38:18
,wl-rdm,184,660594,0.0-8.64-0.64,1.0,182.0,,,,,,,[],,,,,,73.6,0.0,u,0.0,True,984.2999999523163,60.0,60.0,40.0,False,,312.46570148312213,[],"[512, 288]",ColorTask,84.0,65.0,,,HRV,HRV_0168,2022-11-30 18:38:18
,wl-rdm,185,662992,0.0-8.65-0.65,1.0,183.0,,,,,,,[],,,,,,73.6,0.0,u,0.0,True,922.799999833107,56.0,60.0,40.0,False,,393.11181638244045,[],"[512, 288]",ColorTask,85.0,66.0,,,HRV,HRV_0168,2022-11-30 18:38:18
,wl-rdm,186,665406,0.0-8.66-0.66,1.0,184.0,,,,,,,[],,,,,,53.2,1.0,i,1.0,True,972.5999999046326,59.0,60.0,40.0,False,,358.4733030342726,[],"[512, 288]",ColorTask,86.0,67.0,,,HRV,HRV_0168,2022-11-30 18:38:18
,wl-rdm,187,667572,0.0-8.67-0.67,1.0,185.0,,,,,,,[],,,,,,87.9,1.0,i,1.0,True,825.4000000953674,50.0,60.0,40.0,False,,261.79899140698564,[],"[512, 288]",ColorTask,87.0,68.0,,,HRV,HRV_0168,2022-11-30 18:38:18
,wl-rdm,188,671418,0.0-8.68-0.68,1.0,186.0,,,,,,,[],,,,,,62.5,0.0,i,1.0,False,2425.7999999523163,146.0,60.0,40.0,False,,350.13335700897176,[],"[512, 288]",ColorTask,86.0,69.0,,,HRV,HRV_0168,2022-11-30 18:38:18
,wl-rdm,189,673616,0.0-8.69-0.69,1.0,187.0,,,,,,,[],,,,,,56.4,1.0,i,1.0,True,914.0,55.0,60.0,40.0,False,,211.69536177573752,[],"[512, 288]",ColorTask,87.0,70.0,,,HRV,HRV_0168,2022-11-30 18:38:18
,wl-rdm,190,675731,0.0-8.70-0.70,1.0,188.0,,,,,,,[],,,,,,73.6,1.0,i,1.0,True,810.2000000476837,49.0,60.0,40.0,False,,232.1137851697797,[],"[512, 288]",ColorTask,88.0,71.0,,,HRV,HRV_0168,2022-11-30 18:38:18
,wl-rdm,191,678029,0.0-8.71-0.71,1.0,189.0,,,,,,,[],,,,,,87.9,0.0,u,0.0,True,838.6999999284744,51.0,60.0,40.0,False,,374.10697173991286,[],"[512, 288]",ColorTask,89.0,72.0,,,HRV,HRV_0168,2022-11-30 18:38:18
,wl-rdm,192,680210,0.0-8.72-0.72,1.0,190.0,,,,,,,[],,,,,,50.0,0.0,u,0.0,True,776.3999999761581,47.0,60.0,40.0,False,,324.8878753556683,[],"[512, 288]",ColorTask,90.0,73.0,,,HRV,HRV_0168,2022-11-30 18:38:18
,wl-rdm,193,682408,0.0-8.73-0.73,1.0,191.0,,,,,,,[],,,,,,73.6,0.0,u,0.0,True,892.6999999284744,54.0,60.0,40.0,False,,217.14119581851588,[],"[512, 288]",ColorTask,91.0,74.0,,,HRV,HRV_0168,2022-11-30 18:38:18
,wl-rdm,194,684939,0.0-8.74-0.74,1.0,192.0,,,,,,,[],,,,,,87.9,1.0,i,1.0,True,1108.3000000715256,67.0,60.0,40.0,False,,334.38409494604366,[],"[512, 288]",ColorTask,92.0,75.0,,,HRV,HRV_0168,2022-11-30 18:38:18
,wl-rdm,195,687537,0.0-8.75-0.75,1.0,193.0,,,,,,,[],,,,,,53.2,1.0,i,1.0,True,1258.6000000238419,76.0,60.0,40.0,False,,253.73923838805624,[],"[512, 288]",ColorTask,93.0,76.0,,,HRV,HRV_0168,2022-11-30 18:38:18
,wl-rdm,196,689635,0.0-8.76-0.76,1.0,194.0,,,,,,,[],,,,,,87.9,0.0,u,0.0,True,778.5,47.0,60.0,40.0,False,,235.07931714045634,[],"[512, 288]",ColorTask,94.0,77.0,,,HRV,HRV_0168,2022-11-30 18:38:18
,wl-rdm,197,692383,0.0-8.77-0.77,1.0,195.0,,,,,,,[],,,,,,56.4,0.0,u,0.0,True,1317.0,80.0,60.0,40.0,False,,337.4795395438905,[],"[512, 288]",ColorTask,95.0,78.0,,,HRV,HRV_0168,2022-11-30 18:38:18
,wl-rdm,198,694498,0.0-8.78-0.78,1.0,196.0,,,,,,,[],,,,,,73.6,1.0,i,1.0,True,820.3999999761581,50.0,60.0,40.0,False,,214.69601925872942,[],"[512, 288]",ColorTask,96.0,79.0,,,HRV,HRV_0168,2022-11-30 18:38:18
,wl-rdm,199,698261,0.0-8.79-0.79,1.0,197.0,,,,,,,[],,,,,,62.5,1.0,i,1.0,True,2474.899999976158,149.0,60.0,40.0,False,,213.3434442004607,[],"[512, 288]",ColorTask,97.0,80.0,,,HRV,HRV_0168,2022-11-30 18:38:18
,wl-rdm,200,700526,0.0-8.80-0.80,1.0,198.0,,,,,,,[],,,,,,87.9,1.0,i,1.0,True,904.2999999523163,55.0,60.0,40.0,False,,267.7821035876214,[],"[512, 288]",ColorTask,98.0,81.0,,,HRV,HRV_0168,2022-11-30 18:38:18
,wl-rdm,201,702990,0.0-8.81-0.81,1.0,199.0,,,,,,,[],,,,,,62.5,0.0,u,0.0,True,1004.3000000715256,61.0,60.0,40.0,False,,370.3819775804785,[],"[512, 288]",ColorTask,99.0,82.0,,,HRV,HRV_0168,2022-11-30 18:38:18
,wl-rdm,202,705488,0.0-8.82-0.82,1.0,200.0,,,,,,,[],,,,,,73.6,1.0,i,1.0,True,1198.5,72.0,60.0,40.0,False,,232.69344137711633,[],"[512, 288]",ColorTask,100.0,83.0,,,HRV,HRV_0168,2022-11-30 18:38:18
,wl-rdm,203,708502,0.0-8.83-0.83,1.0,201.0,,,,,,,[],,,,,,50.0,0.0,u,0.0,True,1573.3999999761581,95.0,60.0,40.0,False,,353.77528120566785,[],"[512, 288]",ColorTask,101.0,84.0,,,HRV,HRV_0168,2022-11-30 18:38:18
,wl-rdm,204,710784,0.0-8.84-0.84,1.0,202.0,,,,,,,[],,,,,,62.5,1.0,i,1.0,True,988.3999999761581,60.0,60.0,40.0,False,,208.01722469537106,[],"[512, 288]",ColorTask,102.0,85.0,,,HRV,HRV_0168,2022-11-30 18:38:18
,wl-rdm,205,713131,0.0-8.85-0.85,1.0,203.0,,,,,,,[],,,,,,56.4,0.0,u,0.0,True,916.0000001192093,55.0,60.0,40.0,False,,354.3541899333467,[],"[512, 288]",ColorTask,103.0,86.0,,,HRV,HRV_0168,2022-11-30 18:38:18
,wl-rdm,206,715379,0.0-8.86-0.86,1.0,204.0,,,,,,,[],,,,,,73.6,0.0,u,0.0,True,947.6000000238419,57.0,60.0,40.0,False,,230.07808501879012,[],"[512, 288]",ColorTask,104.0,87.0,,,HRV,HRV_0168,2022-11-30 18:38:18
,wl-rdm,207,718344,0.0-8.87-0.87,1.0,205.0,,,,,,,[],,,,,,87.9,0.0,u,0.0,True,1675.6000000238419,101.0,60.0,40.0,False,,216.15195250850866,[],"[512, 288]",ColorTask,105.0,88.0,,,HRV,HRV_0168,2022-11-30 18:38:18
,wl-rdm,208,720625,0.0-8.88-0.88,1.0,206.0,,,,,,,[],,,,,,73.6,0.0,u,0.0,True,854.6999999284744,52.0,60.0,40.0,False,,337.30756526493553,[],"[512, 288]",ColorTask,106.0,89.0,,,HRV,HRV_0168,2022-11-30 18:38:18
,wl-rdm,209,723073,0.0-8.89-0.89,1.0,207.0,,,,,,,[],,,,,,56.4,0.0,u,0.0,True,990.5,60.0,60.0,40.0,False,,370.1338316231641,[],"[512, 288]",ColorTask,107.0,90.0,,,HRV,HRV_0168,2022-11-30 18:38:18
,wl-rdm,210,725654,0.0-8.90-0.90,1.0,208.0,,,,,,,[],,,,,,73.6,0.0,u,0.0,True,1175.5,71.0,60.0,40.0,False,,326.22389485000247,[],"[512, 288]",ColorTask,108.0,91.0,,,HRV,HRV_0168,2022-11-30 18:38:18
,wl-rdm,211,727902,0.0-8.91-0.91,1.0,209.0,,,,,,,[],,,,,,62.5,0.0,u,0.0,True,942.2000000476837,57.0,60.0,40.0,False,,226.52299006645077,[],"[512, 288]",ColorTask,109.0,92.0,,,HRV,HRV_0168,2022-11-30 18:38:18
,wl-rdm,212,730150,0.0-8.92-0.92,1.0,210.0,,,,,,,[],,,,,,62.5,0.0,u,0.0,True,853.2999999523163,52.0,60.0,40.0,False,,305.1053216653545,[],"[512, 288]",ColorTask,110.0,93.0,,,HRV,HRV_0168,2022-11-30 18:38:18
,wl-rdm,213,732814,0.0-8.93-0.93,1.0,211.0,,,,,,,[],,,,,,53.2,1.0,u,0.0,False,1355.7999999523163,82.0,60.0,40.0,False,,216.34418353619628,[],"[512, 288]",ColorTask,109.0,94.0,,,HRV,HRV_0168,2022-11-30 18:38:18
,wl-rdm,214,735129,0.0-8.94-0.94,1.0,212.0,,,,,,,[],,,,,,53.2,0.0,u,0.0,True,954.5000001192093,58.0,60.0,40.0,False,,277.1642082072914,[],"[512, 288]",ColorTask,110.0,95.0,,,HRV,HRV_0168,2022-11-30 18:38:18
,wl-rdm,215,739492,0.0-8.95-0.95,1.0,212.0,,,,,,,[],,,,,,87.9,0.0,u,,,3089.9000000953674,179.0,60.0,40.0,True,RT_timeout ,259.7520420460895,[],"[512, 288]",ColorTask,109.0,96.0,,,HRV,HRV_0168,2022-11-30 18:38:18
,wl-rdm,216,742373,0.0-8.96-0.96,1.0,213.0,,,,,,,[],,,,,,50.0,0.0,i,1.0,False,1509.3999999761581,91.0,60.0,40.0,False,,298.1431757092451,[],"[512, 288]",ColorTask,108.0,97.0,,,HRV,HRV_0168,2022-11-30 18:38:18
,wl-rdm,217,746069,0.0-8.97-0.97,1.0,214.0,,,,,,,[],,,,,,62.5,1.0,u,0.0,False,2243.399999976158,135.0,60.0,40.0,False,,373.49761589236186,[],"[512, 288]",ColorTask,107.0,98.0,,,HRV,HRV_0168,2022-11-30 18:38:18
,wl-rdm,218,748267,0.0-8.98-0.98,1.0,215.0,,,,,,,[],,,,,,87.9,0.0,u,0.0,True,891.4000000953674,54.0,60.0,40.0,False,,228.36702645400237,[],"[512, 288]",ColorTask,108.0,99.0,,,HRV,HRV_0168,2022-11-30 18:38:18
,wl-rdm,219,752147,0.0-8.99-0.99,1.0,216.0,,,,,,,[],,,,,,53.2,1.0,i,1.0,True,2573.1999999284744,155.0,60.0,40.0,False,,229.3338749281198,[],"[512, 288]",ColorTask,109.0,100.0,,,HRV,HRV_0168,2022-11-30 18:38:18
,wl-rdm,220,754678,0.0-8.100-0.100,1.0,217.0,,,,,,,[],,,,,,56.4,0.0,u,0.0,True,1164.8000000715256,70.0,60.0,40.0,False,,291.95045508768305,[],"[512, 288]",ColorTask,110.0,101.0,,,HRV,HRV_0168,2022-11-30 18:38:18
,wl-rdm,221,756993,0.0-8.101-0.101,1.0,218.0,,,,,,,[],,,,,,62.5,1.0,i,1.0,True,961.2999999523163,58.0,60.0,40.0,False,,268.4022079985664,[],"[512, 288]",ColorTask,111.0,102.0,,,HRV,HRV_0168,2022-11-30 18:38:18
,wl-rdm,222,759774,0.0-8.102-0.102,1.0,219.0,,,,,,,[],,,,,,53.2,0.0,i,1.0,False,1421.2999999523163,86.0,60.0,40.0,False,,276.90603037022385,[],"[512, 288]",ColorTask,110.0,103.0,,,HRV,HRV_0168,2022-11-30 18:38:18
,wl-rdm,223,762189,0.0-8.103-0.103,1.0,220.0,,,,,,,[],,,,,,50.0,0.0,u,0.0,True,1045.6999999284744,63.0,60.0,40.0,False,,288.784625239571,[],"[512, 288]",ColorTask,111.0,104.0,,,HRV,HRV_0168,2022-11-30 18:38:18
,wl-rdm,224,766618,0.0-8.104-0.104,1.0,220.0,,,,,,,[],,,,,,56.4,1.0,,,,,179.0,60.0,40.0,True,RT_timeout ,325.6777470409485,[],"[512, 288]",ColorTask,110.0,105.0,,,HRV,HRV_0168,2022-11-30 18:38:18
,wl-rdm,225,769915,0.0-8.105-0.105,1.0,221.0,,,,,,,[],,,,,,53.2,0.0,i,1.0,False,1873.1000000238419,113.0,60.0,40.0,False,,336.1494689560458,[],"[512, 288]",ColorTask,109.0,106.0,,,HRV,HRV_0168,2022-11-30 18:38:18
,wl-rdm,226,772346,0.0-8.106-0.106,1.0,222.0,,,,,,,[],,,,,,50.0,1.0,u,0.0,False,1059.0,64.0,60.0,40.0,False,,286.5808366143858,[],"[512, 288]",ColorTask,108.0,107.0,,,HRV,HRV_0168,2022-11-30 18:38:18
,wl-rdm,227,774445,0.0-8.107-0.107,1.0,223.0,,,,,,,[],,,,,,56.4,1.0,i,1.0,True,795.5,48.0,60.0,40.0,False,,228.72736763117788,[],"[512, 288]",ColorTask,109.0,108.0,,,HRV,HRV_0168,2022-11-30 18:38:18
,wl-rdm,228,776509,0.0-8.108-0.108,1.0,224.0,,,,,,,[],,,,,,73.6,0.0,u,0.0,True,782.1000000238419,47.0,60.0,40.0,False,,215.77095313216145,[],"[512, 288]",ColorTask,110.0,109.0,,,HRV,HRV_0168,2022-11-30 18:38:18
,wl-rdm,229,779340,0.0-8.109-0.109,1.0,225.0,,,,,,,[],,,,,,56.4,1.0,i,1.0,True,1453.6000000238419,88.0,60.0,40.0,False,,292.44171780796563,[],"[512, 288]",ColorTask,111.0,110.0,,,HRV,HRV_0168,2022-11-30 18:38:18
,wl-html-button-response,230,781744,0.0-9.0-0.0,,,,,,,,,,2398.5,,0,,,,,,,,,,,,,,,,,,,,<h3>End of this session. Thank you!</h3><br>,['Close window'],HRV,HRV_0168,2022-11-30 18:38:18
