trialN,stimuli,question,trialStartTime,trialStartTime_UNIX,stimulus1,rt,receivedResponse,rating,trialEndTime,trialDuration,stimulus1Loaded,exp,subjectId,date
0,"[{'imgObject': {}, 'id': 'burger', 'src': '/static/foodstim60/burger.jpg', 'key': 'NaN', 'origWidth': 409, 'origHeight': 409, 'width': 374.40000000000003, 'height': 374.40000000000003, 'widthPercent': 0.8, 'rescaleHeight': True, 'trialN': 0, 'loaded': True, 'loadedTime': 2218.3000000715256, 'positionName': 'CENTER', 'positionCoords': [325, 101]}]",Rate how much you want to eat this food from 0 (least) to 10 (most).,2838.0,1669830949245,burger,4541.200000047684,True,4.98,7379.200000047684,4541.200000047684,True,HRV,HRV_0168,2022-11-30 17:58:04
1,"[{'imgObject': {}, 'id': 'raspberries', 'src': '/static/foodstim60/raspberries.jpg', 'key': 'NaN', 'origWidth': 411, 'origHeight': 411, 'width': 374.40000000000003, 'height': 374.40000000000003, 'widthPercent': 0.8, 'rescaleHeight': True, 'trialN': 1, 'loaded': True, 'loadedTime': 2234.5, 'positionName': 'CENTER', 'positionCoords': [325, 101]}]",Rate how much you want to eat this food from 0 (least) to 10 (most).,7382.600000023842,1669830953790,raspberries,2442.5,True,0.6,9825.100000023842,2442.5,True,HRV,HRV_0168,2022-11-30 17:58:04
2,"[{'imgObject': {}, 'id': 'raisin bran w milk', 'src': '/static/foodstim60/raisin bran w milk.jpg', 'key': 'NaN', 'origWidth': 411, 'origHeight': 411, 'width': 374.40000000000003, 'height': 374.40000000000003, 'widthPercent': 0.8, 'rescaleHeight': True, 'trialN': 2, 'loaded': True, 'loadedTime': 2245.2000000476837, 'positionName': 'CENTER', 'positionCoords': [325, 101]}]",Rate how much you want to eat this food from 0 (least) to 10 (most).,9826.399999976158,1669830956234,raisin bran w milk,1872.8000000715256,True,0.03,11699.200000047684,1872.8000000715256,True,HRV,HRV_0168,2022-11-30 17:58:04
3,"[{'imgObject': {}, 'id': 'turkey sandwich', 'src': '/static/foodstim60/turkey sandwich.jpg', 'key': 'NaN', 'origWidth': 409, 'origHeight': 409, 'width': 374.40000000000003, 'height': 374.40000000000003, 'widthPercent': 0.8, 'rescaleHeight': True, 'trialN': 3, 'loaded': True, 'loadedTime': 2232.5, 'positionName': 'CENTER', 'positionCoords': [325, 101]}]",Rate how much you want to eat this food from 0 (least) to 10 (most).,11700.300000071526,1669830958107,turkey sandwich,2428.899999976158,True,9.58,14129.200000047684,2428.899999976158,True,HRV,HRV_0168,2022-11-30 17:58:04
4,"[{'imgObject': {}, 'id': 'granola w milk', 'src': '/static/foodstim60/granola w milk.jpg', 'key': 'NaN', 'origWidth': 410, 'origHeight': 410, 'width': 374.40000000000003, 'height': 374.40000000000003, 'widthPercent': 0.8, 'rescaleHeight': True, 'trialN': 4, 'loaded': True, 'loadedTime': 2238.7000000476837, 'positionName': 'CENTER', 'positionCoords': [325, 101]}]",Rate how much you want to eat this food from 0 (least) to 10 (most).,14130.300000071526,1669830960537,granola w milk,1686.7999999523163,True,0.03,15817.100000023842,1686.7999999523163,True,HRV,HRV_0168,2022-11-30 17:58:04
5,"[{'imgObject': {}, 'id': 'edamame', 'src': '/static/foodstim60/edamame.jpg', 'key': 'NaN', 'origWidth': 409, 'origHeight': 410, 'width': 373.4868292682927, 'height': 374.40000000000003, 'widthPercent': 0.8, 'rescaleHeight': True, 'trialN': 5, 'loaded': True, 'loadedTime': 2248.8000000715256, 'positionName': 'CENTER', 'positionCoords': [325.5, 101]}]",Rate how much you want to eat this food from 0 (least) to 10 (most).,15818.300000071526,1669830962225,edamame,1278.7999999523163,True,0.13,17097.100000023842,1278.7999999523163,True,HRV,HRV_0168,2022-11-30 17:58:04
6,"[{'imgObject': {}, 'id': 'pear', 'src': '/static/foodstim60/pear.jpg', 'key': 'NaN', 'origWidth': 411, 'origHeight': 410, 'width': 375.3131707317074, 'height': 374.40000000000003, 'widthPercent': 0.8, 'rescaleHeight': True, 'trialN': 6, 'loaded': True, 'loadedTime': 2267.8000000715256, 'positionName': 'CENTER', 'positionCoords': [324.5, 101]}]",Rate how much you want to eat this food from 0 (least) to 10 (most).,17098.300000071526,1669830963505,pear,2600.899999976158,True,6.99,19699.200000047684,2600.899999976158,True,HRV,HRV_0168,2022-11-30 17:58:04
7,"[{'imgObject': {}, 'id': 'strawberries', 'src': '/static/foodstim60/strawberries.jpg', 'key': 'NaN', 'origWidth': 410, 'origHeight': 410, 'width': 374.40000000000003, 'height': 374.40000000000003, 'widthPercent': 0.8, 'rescaleHeight': True, 'trialN': 7, 'loaded': True, 'loadedTime': 2283.600000023842, 'positionName': 'CENTER', 'positionCoords': [325, 101]}]",Rate how much you want to eat this food from 0 (least) to 10 (most).,19700.300000071526,1669830966107,strawberries,1936.8999999761581,True,9.17,21637.200000047684,1936.8999999761581,True,HRV,HRV_0168,2022-11-30 17:58:04
8,"[{'imgObject': {}, 'id': 'bagel plain', 'src': '/static/foodstim60/bagel plain.jpg', 'key': 'NaN', 'origWidth': 410, 'origHeight': 410, 'width': 374.40000000000003, 'height': 374.40000000000003, 'widthPercent': 0.8, 'rescaleHeight': True, 'trialN': 8, 'loaded': True, 'loadedTime': 2289.899999976158, 'positionName': 'CENTER', 'positionCoords': [325, 101]}]",Rate how much you want to eat this food from 0 (least) to 10 (most).,21638.399999976158,1669830968046,bagel plain,1974.8000000715256,True,0.64,23613.200000047684,1974.8000000715256,True,HRV,HRV_0168,2022-11-30 17:58:04
9,"[{'imgObject': {}, 'id': 'cantaloupe', 'src': '/static/foodstim60/cantaloupe.jpg', 'key': 'NaN', 'origWidth': 409, 'origHeight': 409, 'width': 374.40000000000003, 'height': 374.40000000000003, 'widthPercent': 0.8, 'rescaleHeight': True, 'trialN': 9, 'loaded': True, 'loadedTime': 2327.3000000715256, 'positionName': 'CENTER', 'positionCoords': [325, 101]}]",Rate how much you want to eat this food from 0 (least) to 10 (most).,23614.700000047684,1669830970022,cantaloupe,2052.399999976158,True,0.11,25667.100000023842,2052.399999976158,True,HRV,HRV_0168,2022-11-30 17:58:04
10,"[{'imgObject': {}, 'id': 'mac & cheese', 'src': '/static/foodstim60/mac & cheese.jpg', 'key': 'NaN', 'origWidth': 410, 'origHeight': 410, 'width': 374.40000000000003, 'height': 374.40000000000003, 'widthPercent': 0.8, 'rescaleHeight': True, 'trialN': 10, 'loaded': True, 'loadedTime': 2323.5, 'positionName': 'CENTER', 'positionCoords': [325, 101]}]",Rate how much you want to eat this food from 0 (least) to 10 (most).,25668.600000023842,1669830972076,mac & cheese,3640.600000023842,True,9.64,29309.200000047684,3640.600000023842,True,HRV,HRV_0168,2022-11-30 17:58:04
11,"[{'imgObject': {}, 'id': 'eggsalad', 'src': '/static/foodstim60/eggsalad.jpg', 'key': 'NaN', 'origWidth': 410, 'origHeight': 409, 'width': 375.3154034229829, 'height': 374.40000000000003, 'widthPercent': 0.8, 'rescaleHeight': True, 'trialN': 11, 'loaded': True, 'loadedTime': 2335.2000000476837, 'positionName': 'CENTER', 'positionCoords': [324.5, 101]}]",Rate how much you want to eat this food from 0 (least) to 10 (most).,29311.0,1669830975718,eggsalad,2014.1000000238419,True,0.72,31325.100000023842,2014.1000000238419,True,HRV,HRV_0168,2022-11-30 17:58:04
12,"[{'imgObject': {}, 'id': 'corn cob', 'src': '/static/foodstim60/corn cob.jpg', 'key': 'NaN', 'origWidth': 411, 'origHeight': 411, 'width': 374.40000000000003, 'height': 374.40000000000003, 'widthPercent': 0.8, 'rescaleHeight': True, 'trialN': 12, 'loaded': True, 'loadedTime': 2345.100000023842, 'positionName': 'CENTER', 'positionCoords': [325, 101]}]",Rate how much you want to eat this food from 0 (least) to 10 (most).,31326.700000047684,1669830977734,corn cob,1576.3999999761581,True,1.01,32903.10000002384,1576.3999999761581,True,HRV,HRV_0168,2022-11-30 17:58:04
13,"[{'imgObject': {}, 'id': 'bagel and cc', 'src': '/static/foodstim60/bagel and cc.jpg', 'key': 'NaN', 'origWidth': 410, 'origHeight': 410, 'width': 374.40000000000003, 'height': 374.40000000000003, 'widthPercent': 0.8, 'rescaleHeight': True, 'trialN': 13, 'loaded': True, 'loadedTime': 2358.3000000715256, 'positionName': 'CENTER', 'positionCoords': [325, 101]}]",Rate how much you want to eat this food from 0 (least) to 10 (most).,32904.60000002384,1669830979313,bagel and cc,2598.5,True,4.84,35503.10000002384,2598.5,True,HRV,HRV_0168,2022-11-30 17:58:04
14,"[{'imgObject': {}, 'id': 'kiwi', 'src': '/static/foodstim60/kiwi.jpg', 'key': 'NaN', 'origWidth': 410, 'origHeight': 410, 'width': 374.40000000000003, 'height': 374.40000000000003, 'widthPercent': 0.8, 'rescaleHeight': True, 'trialN': 14, 'loaded': True, 'loadedTime': 2366.7000000476837, 'positionName': 'CENTER', 'positionCoords': [325, 101]}]",Rate how much you want to eat this food from 0 (least) to 10 (most).,35505.10000002384,1669830981913,kiwi,1812.0,True,0.05,37317.10000002384,1812.0,True,HRV,HRV_0168,2022-11-30 17:58:04
15,"[{'imgObject': {}, 'id': 'baked potato', 'src': '/static/foodstim60/baked potato.jpg', 'key': 'NaN', 'origWidth': 409, 'origHeight': 410, 'width': 373.4868292682927, 'height': 374.40000000000003, 'widthPercent': 0.8, 'rescaleHeight': True, 'trialN': 15, 'loaded': True, 'loadedTime': 2414.399999976158, 'positionName': 'CENTER', 'positionCoords': [325.5, 101]}]",Rate how much you want to eat this food from 0 (least) to 10 (most).,37318.800000071526,1669830983727,baked potato,1606.2999999523163,True,1.19,38925.10000002384,1606.2999999523163,True,HRV,HRV_0168,2022-11-30 17:58:04
16,"[{'imgObject': {}, 'id': 'rigatoni and sauce', 'src': '/static/foodstim60/rigatoni and sauce.jpg', 'key': 'NaN', 'origWidth': 410, 'origHeight': 411, 'width': 373.48905109489056, 'height': 374.40000000000003, 'widthPercent': 0.8, 'rescaleHeight': True, 'trialN': 16, 'loaded': True, 'loadedTime': 2408.8000000715256, 'positionName': 'CENTER', 'positionCoords': [325.5, 101]}]",Rate how much you want to eat this food from 0 (least) to 10 (most).,38926.300000071526,1669830985334,rigatoni and sauce,2202.7999999523163,True,9.58,41129.10000002384,2202.7999999523163,True,HRV,HRV_0168,2022-11-30 17:58:04
17,"[{'imgObject': {}, 'id': 'turkeysandwich', 'src': '/static/foodstim60/turkeysandwich.jpg', 'key': 'NaN', 'origWidth': 409, 'origHeight': 409, 'width': 374.40000000000003, 'height': 374.40000000000003, 'widthPercent': 0.8, 'rescaleHeight': True, 'trialN': 17, 'loaded': True, 'loadedTime': 2418.600000023842, 'positionName': 'CENTER', 'positionCoords': [325, 101]}]",Rate how much you want to eat this food from 0 (least) to 10 (most).,41130.200000047684,1669830987538,turkeysandwich,1450.8999999761581,True,7.57,42581.10000002384,1450.8999999761581,True,HRV,HRV_0168,2022-11-30 17:58:04
18,"[{'imgObject': {}, 'id': 'omelette', 'src': '/static/foodstim60/omelette.jpg', 'key': 'NaN', 'origWidth': 410, 'origHeight': 409, 'width': 375.3154034229829, 'height': 374.40000000000003, 'widthPercent': 0.8, 'rescaleHeight': True, 'trialN': 18, 'loaded': True, 'loadedTime': 2421, 'positionName': 'CENTER', 'positionCoords': [324.5, 101]}]",Rate how much you want to eat this food from 0 (least) to 10 (most).,42582.39999997616,1669830988990,omelette,2202.8000000715256,True,4.96,44785.200000047684,2202.8000000715256,True,HRV,HRV_0168,2022-11-30 17:58:04
19,"[{'imgObject': {}, 'id': 'fruitsalad', 'src': '/static/foodstim60/fruitsalad.jpg', 'key': 'NaN', 'origWidth': 410, 'origHeight': 410, 'width': 374.40000000000003, 'height': 374.40000000000003, 'widthPercent': 0.8, 'rescaleHeight': True, 'trialN': 19, 'loaded': True, 'loadedTime': 2426.399999976158, 'positionName': 'CENTER', 'positionCoords': [325, 101]}]",Rate how much you want to eat this food from 0 (least) to 10 (most).,44786.39999997616,1669830991194,fruitsalad,1945.0,True,6.83,46731.39999997616,1945.0,True,HRV,HRV_0168,2022-11-30 17:58:04
20,"[{'imgObject': {}, 'id': 'eggs', 'src': '/static/foodstim60/eggs.jpg', 'key': 'NaN', 'origWidth': 409, 'origHeight': 409, 'width': 374.40000000000003, 'height': 374.40000000000003, 'widthPercent': 0.8, 'rescaleHeight': True, 'trialN': 20, 'loaded': True, 'loadedTime': 2432.899999976158, 'positionName': 'CENTER', 'positionCoords': [325, 101]}]",Rate how much you want to eat this food from 0 (least) to 10 (most).,46732.800000071526,1669830993141,eggs,2006.2999999523163,True,0.6,48739.10000002384,2006.2999999523163,True,HRV,HRV_0168,2022-11-30 17:58:04
21,"[{'imgObject': {}, 'id': 'blueberries', 'src': '/static/foodstim60/blueberries.jpg', 'key': 'NaN', 'origWidth': 411, 'origHeight': 411, 'width': 374.40000000000003, 'height': 374.40000000000003, 'widthPercent': 0.8, 'rescaleHeight': True, 'trialN': 21, 'loaded': True, 'loadedTime': 2452.100000023842, 'positionName': 'CENTER', 'positionCoords': [325, 101]}]",Rate how much you want to eat this food from 0 (least) to 10 (most).,48740.39999997616,1669830995148,blueberries,1614.7000000476837,True,2.38,50355.10000002384,1614.7000000476837,True,HRV,HRV_0168,2022-11-30 17:58:04
22,"[{'imgObject': {}, 'id': 'rigatoni', 'src': '/static/foodstim60/rigatoni.jpg', 'key': 'NaN', 'origWidth': 411, 'origHeight': 411, 'width': 374.40000000000003, 'height': 374.40000000000003, 'widthPercent': 0.8, 'rescaleHeight': True, 'trialN': 22, 'loaded': True, 'loadedTime': 2483.399999976158, 'positionName': 'CENTER', 'positionCoords': [325, 101]}]",Rate how much you want to eat this food from 0 (least) to 10 (most).,50356.60000002384,1669830996764,rigatoni,2382.5,True,3.18,52739.10000002384,2382.5,True,HRV,HRV_0168,2022-11-30 17:58:04
23,"[{'imgObject': {}, 'id': 'salmon', 'src': '/static/foodstim60/salmon.jpg', 'key': 'NaN', 'origWidth': 410, 'origHeight': 409, 'width': 375.3154034229829, 'height': 374.40000000000003, 'widthPercent': 0.8, 'rescaleHeight': True, 'trialN': 23, 'loaded': True, 'loadedTime': 2461.600000023842, 'positionName': 'CENTER', 'positionCoords': [324.5, 101]}]",Rate how much you want to eat this food from 0 (least) to 10 (most).,52740.39999997616,1669830999148,salmon,2528.600000023842,True,0.21,55269.0,2528.600000023842,True,HRV,HRV_0168,2022-11-30 17:58:04
24,"[{'imgObject': {}, 'id': 'olives', 'src': '/static/foodstim60/olives.jpg', 'key': 'NaN', 'origWidth': 410, 'origHeight': 410, 'width': 374.40000000000003, 'height': 374.40000000000003, 'widthPercent': 0.8, 'rescaleHeight': True, 'trialN': 24, 'loaded': True, 'loadedTime': 2487.399999976158, 'positionName': 'CENTER', 'positionCoords': [325, 101]}]",Rate how much you want to eat this food from 0 (least) to 10 (most).,55270.5,1669831001678,olives,2374.600000023842,True,0.01,57645.10000002384,2374.600000023842,True,HRV,HRV_0168,2022-11-30 17:58:04
25,"[{'imgObject': {}, 'id': 'hotdog w must', 'src': '/static/foodstim60/hotdog w must.jpg', 'key': 'NaN', 'origWidth': 409, 'origHeight': 409, 'width': 374.40000000000003, 'height': 374.40000000000003, 'widthPercent': 0.8, 'rescaleHeight': True, 'trialN': 25, 'loaded': True, 'loadedTime': 2495.2000000476837, 'positionName': 'CENTER', 'positionCoords': [325, 101]}]",Rate how much you want to eat this food from 0 (least) to 10 (most).,57646.60000002384,1669831004054,hotdog w must,3342.5,True,5.39,60989.10000002384,3342.5,True,HRV,HRV_0168,2022-11-30 17:58:04
26,"[{'imgObject': {}, 'id': 'roastedpotatoes', 'src': '/static/foodstim60/roastedpotatoes.jpg', 'key': 'NaN', 'origWidth': 409, 'origHeight': 410, 'width': 373.4868292682927, 'height': 374.40000000000003, 'widthPercent': 0.8, 'rescaleHeight': True, 'trialN': 26, 'loaded': True, 'loadedTime': 2492.600000023842, 'positionName': 'CENTER', 'positionCoords': [325.5, 101]}]",Rate how much you want to eat this food from 0 (least) to 10 (most).,60990.5,1669831007398,roastedpotatoes,1864.5,True,6.26,62855.0,1864.5,True,HRV,HRV_0168,2022-11-30 17:58:04
27,"[{'imgObject': {}, 'id': 'mashed potato', 'src': '/static/foodstim60/mashed potato.jpg', 'key': 'NaN', 'origWidth': 409, 'origHeight': 409, 'width': 374.40000000000003, 'height': 374.40000000000003, 'widthPercent': 0.8, 'rescaleHeight': True, 'trialN': 27, 'loaded': True, 'loadedTime': 2505.899999976158, 'positionName': 'CENTER', 'positionCoords': [325, 101]}]",Rate how much you want to eat this food from 0 (least) to 10 (most).,62856.700000047684,1669831009265,mashed potato,1616.2999999523163,True,4.21,64473.0,1616.2999999523163,True,HRV,HRV_0168,2022-11-30 17:58:04
28,"[{'imgObject': {}, 'id': 'sushi w_condiments', 'src': '/static/foodstim60/sushi w_condiments.jpg', 'key': 'NaN', 'origWidth': 410, 'origHeight': 410, 'width': 374.40000000000003, 'height': 374.40000000000003, 'widthPercent': 0.8, 'rescaleHeight': True, 'trialN': 28, 'loaded': True, 'loadedTime': 2523.7000000476837, 'positionName': 'CENTER', 'positionCoords': [325, 101]}]",Rate how much you want to eat this food from 0 (least) to 10 (most).,64474.5,1669831010882,sushi w_condiments,1670.6000000238419,True,0.07,66145.10000002384,1670.6000000238419,True,HRV,HRV_0168,2022-11-30 17:58:04
29,"[{'imgObject': {}, 'id': 'luckycharms', 'src': '/static/foodstim60/luckycharms.jpg', 'key': 'NaN', 'origWidth': 410, 'origHeight': 409, 'width': 375.3154034229829, 'height': 374.40000000000003, 'widthPercent': 0.8, 'rescaleHeight': True, 'trialN': 29, 'loaded': True, 'loadedTime': 2544.100000023842, 'positionName': 'CENTER', 'positionCoords': [324.5, 101]}]",Rate how much you want to eat this food from 0 (least) to 10 (most).,66146.60000002384,1669831012555,luckycharms,2458.5,True,3.71,68605.10000002384,2458.5,True,HRV,HRV_0168,2022-11-30 17:58:04
30,"[{'imgObject': {}, 'id': 'blackbeanswithrice', 'src': '/static/foodstim60/blackbeanswithrice.jpg', 'key': 'NaN', 'origWidth': 410, 'origHeight': 410, 'width': 374.40000000000003, 'height': 374.40000000000003, 'widthPercent': 0.8, 'rescaleHeight': True, 'trialN': 30, 'loaded': True, 'loadedTime': 2535.100000023842, 'positionName': 'CENTER', 'positionCoords': [325, 101]}]",Rate how much you want to eat this food from 0 (least) to 10 (most).,68606.89999997616,1669831015015,blackbeanswithrice,2702.2000000476837,True,0.05,71309.10000002384,2702.2000000476837,True,HRV,HRV_0168,2022-11-30 17:58:04
31,"[{'imgObject': {}, 'id': 'grilled chicken strips', 'src': '/static/foodstim60/grilled chicken strips.jpg', 'key': 'NaN', 'origWidth': 410, 'origHeight': 411, 'width': 373.48905109489056, 'height': 374.40000000000003, 'widthPercent': 0.8, 'rescaleHeight': True, 'trialN': 31, 'loaded': True, 'loadedTime': 2555, 'positionName': 'CENTER', 'positionCoords': [325.5, 101]}]",Rate how much you want to eat this food from 0 (least) to 10 (most).,71310.70000004768,1669831017719,grilled chicken strips,2028.2999999523163,True,9.88,73339.0,2028.2999999523163,True,HRV,HRV_0168,2022-11-30 17:58:04
32,"[{'imgObject': {}, 'id': 'Grapes', 'src': '/static/foodstim60/Grapes.jpg', 'key': 'NaN', 'origWidth': 411, 'origHeight': 411, 'width': 374.40000000000003, 'height': 374.40000000000003, 'widthPercent': 0.8, 'rescaleHeight': True, 'trialN': 32, 'loaded': True, 'loadedTime': 2553.399999976158, 'positionName': 'CENTER', 'positionCoords': [325, 101]}]",Rate how much you want to eat this food from 0 (least) to 10 (most).,73340.20000004768,1669831019748,Grapes,1670.8999999761581,True,8.45,75011.10000002384,1670.8999999761581,True,HRV,HRV_0168,2022-11-30 17:58:04
33,"[{'imgObject': {}, 'id': 'Tribe humus pita', 'src': '/static/foodstim60/Tribe humus pita.jpg', 'key': 'NaN', 'origWidth': 411, 'origHeight': 411, 'width': 374.40000000000003, 'height': 374.40000000000003, 'widthPercent': 0.8, 'rescaleHeight': True, 'trialN': 33, 'loaded': True, 'loadedTime': 2573.2000000476837, 'positionName': 'CENTER', 'positionCoords': [325, 101]}]",Rate how much you want to eat this food from 0 (least) to 10 (most).,75012.10000002384,1669831021420,Tribe humus pita,2874.899999976158,True,3.84,77887.0,2874.899999976158,True,HRV,HRV_0168,2022-11-30 17:58:04
34,"[{'imgObject': {}, 'id': 'cherries', 'src': '/static/foodstim60/cherries.jpg', 'key': 'NaN', 'origWidth': 410, 'origHeight': 411, 'width': 373.48905109489056, 'height': 374.40000000000003, 'widthPercent': 0.8, 'rescaleHeight': True, 'trialN': 34, 'loaded': True, 'loadedTime': 2579.7000000476837, 'positionName': 'CENTER', 'positionCoords': [325.5, 101]}]",Rate how much you want to eat this food from 0 (least) to 10 (most).,77888.10000002384,1669831024296,cherries,3060.899999976158,True,0.11,80949.0,3060.899999976158,True,HRV,HRV_0168,2022-11-30 17:58:04
35,"[{'imgObject': {}, 'id': 'froot loops w milk', 'src': '/static/foodstim60/froot loops w milk.jpg', 'key': 'NaN', 'origWidth': 410, 'origHeight': 410, 'width': 374.40000000000003, 'height': 374.40000000000003, 'widthPercent': 0.8, 'rescaleHeight': True, 'trialN': 35, 'loaded': True, 'loadedTime': 2600.3000000715256, 'positionName': 'CENTER', 'positionCoords': [325, 101]}]",Rate how much you want to eat this food from 0 (least) to 10 (most).,80950.20000004768,1669831027358,froot loops w milk,2052.899999976158,True,6.15,83003.10000002384,2052.899999976158,True,HRV,HRV_0168,2022-11-30 17:58:04
36,"[{'imgObject': {}, 'id': 'mango', 'src': '/static/foodstim60/mango.jpg', 'key': 'NaN', 'origWidth': 411, 'origHeight': 411, 'width': 374.40000000000003, 'height': 374.40000000000003, 'widthPercent': 0.8, 'rescaleHeight': True, 'trialN': 36, 'loaded': True, 'loadedTime': 2606.100000023842, 'positionName': 'CENTER', 'positionCoords': [325, 101]}]",Rate how much you want to eat this food from 0 (least) to 10 (most).,83004.39999997616,1669831029412,mango,3318.8000000715256,True,0.07,86323.20000004768,3318.8000000715256,True,HRV,HRV_0168,2022-11-30 17:58:04
37,"[{'imgObject': {}, 'id': 'ice cream sundae 002', 'src': '/static/foodstim60/ice cream sundae 002.jpg', 'key': 'NaN', 'origWidth': 409, 'origHeight': 409, 'width': 374.40000000000003, 'height': 374.40000000000003, 'widthPercent': 0.8, 'rescaleHeight': True, 'trialN': 37, 'loaded': True, 'loadedTime': 2609.600000023842, 'positionName': 'CENTER', 'positionCoords': [325, 101]}]",Rate how much you want to eat this food from 0 (least) to 10 (most).,86325.30000007153,1669831032733,ice cream sundae 002,2569.6999999284744,True,8.9,88895.0,2569.6999999284744,True,HRV,HRV_0168,2022-11-30 17:58:04
38,"[{'imgObject': {}, 'id': 'lox', 'src': '/static/foodstim60/lox.jpg', 'key': 'NaN', 'origWidth': 410, 'origHeight': 411, 'width': 373.48905109489056, 'height': 374.40000000000003, 'widthPercent': 0.8, 'rescaleHeight': True, 'trialN': 38, 'loaded': True, 'loadedTime': 2616.3000000715256, 'positionName': 'CENTER', 'positionCoords': [325.5, 101]}]",Rate how much you want to eat this food from 0 (least) to 10 (most).,88896.39999997616,1669831035304,lox,2146.7000000476837,True,0.03,91043.10000002384,2146.7000000476837,True,HRV,HRV_0168,2022-11-30 17:58:04
39,"[{'imgObject': {}, 'id': 'cheerios', 'src': '/static/foodstim60/cheerios.jpg', 'key': 'NaN', 'origWidth': 409, 'origHeight': 410, 'width': 373.4868292682927, 'height': 374.40000000000003, 'widthPercent': 0.8, 'rescaleHeight': True, 'trialN': 39, 'loaded': True, 'loadedTime': 2628.7000000476837, 'positionName': 'CENTER', 'positionCoords': [325.5, 101]}]",Rate how much you want to eat this food from 0 (least) to 10 (most).,91044.70000004768,1669831037453,cheerios,1864.2999999523163,True,4.23,92909.0,1864.2999999523163,True,HRV,HRV_0168,2022-11-30 17:58:04
40,"[{'imgObject': {}, 'id': 'chickenfingers', 'src': '/static/foodstim60/chickenfingers.jpg', 'key': 'NaN', 'origWidth': 410, 'origHeight': 410, 'width': 374.40000000000003, 'height': 374.40000000000003, 'widthPercent': 0.8, 'rescaleHeight': True, 'trialN': 40, 'loaded': True, 'loadedTime': 2623.7000000476837, 'positionName': 'CENTER', 'positionCoords': [325, 101]}]",Rate how much you want to eat this food from 0 (least) to 10 (most).,92910.5,1669831039318,chickenfingers,1820.5,True,9.94,94731.0,1820.5,True,HRV,HRV_0168,2022-11-30 17:58:04
41,"[{'imgObject': {}, 'id': 'popsicles', 'src': '/static/foodstim60/popsicles.jpg', 'key': 'NaN', 'origWidth': 410, 'origHeight': 410, 'width': 374.40000000000003, 'height': 374.40000000000003, 'widthPercent': 0.8, 'rescaleHeight': True, 'trialN': 41, 'loaded': True, 'loadedTime': 2687, 'positionName': 'CENTER', 'positionCoords': [325, 101]}]",Rate how much you want to eat this food from 0 (least) to 10 (most).,94732.60000002384,1669831041140,popsicles,1998.3999999761581,True,0.21,96731.0,1998.3999999761581,True,HRV,HRV_0168,2022-11-30 17:58:04
42,"[{'imgObject': {}, 'id': 'chicken nuggets2', 'src': '/static/foodstim60/chicken nuggets2.jpg', 'key': 'NaN', 'origWidth': 410, 'origHeight': 409, 'width': 375.3154034229829, 'height': 374.40000000000003, 'widthPercent': 0.8, 'rescaleHeight': True, 'trialN': 42, 'loaded': True, 'loadedTime': 2658.899999976158, 'positionName': 'CENTER', 'positionCoords': [324.5, 101]}]",Rate how much you want to eat this food from 0 (least) to 10 (most).,96732.5,1669831043140,chicken nuggets2,2606.5,True,9.88,99339.0,2606.5,True,HRV,HRV_0168,2022-11-30 17:58:04
43,"[{'imgObject': {}, 'id': 'apple slices', 'src': '/static/foodstim60/apple slices.jpg', 'key': 'NaN', 'origWidth': 409, 'origHeight': 410, 'width': 373.4868292682927, 'height': 374.40000000000003, 'widthPercent': 0.8, 'rescaleHeight': True, 'trialN': 43, 'loaded': True, 'loadedTime': 2651.2000000476837, 'positionName': 'CENTER', 'positionCoords': [325.5, 101]}]",Rate how much you want to eat this food from 0 (least) to 10 (most).,99340.70000004768,1669831045748,apple slices,1670.2999999523163,True,5.21,101011.0,1670.2999999523163,True,HRV,HRV_0168,2022-11-30 17:58:04
44,"[{'imgObject': {}, 'id': 'tacos', 'src': '/static/foodstim60/tacos.jpg', 'key': 'NaN', 'origWidth': 411, 'origHeight': 411, 'width': 374.40000000000003, 'height': 374.40000000000003, 'widthPercent': 0.8, 'rescaleHeight': True, 'trialN': 44, 'loaded': True, 'loadedTime': 2694, 'positionName': 'CENTER', 'positionCoords': [325, 101]}]",Rate how much you want to eat this food from 0 (least) to 10 (most).,101012.0,1669831047419,tacos,3413.0,True,6.32,104425.0,3413.0,True,HRV,HRV_0168,2022-11-30 17:58:04
45,"[{'imgObject': {}, 'id': 'banana', 'src': '/static/foodstim60/banana.jpg', 'key': 'NaN', 'origWidth': 410, 'origHeight': 410, 'width': 374.40000000000003, 'height': 374.40000000000003, 'widthPercent': 0.8, 'rescaleHeight': True, 'trialN': 45, 'loaded': True, 'loadedTime': 2696, 'positionName': 'CENTER', 'positionCoords': [325, 101]}]",Rate how much you want to eat this food from 0 (least) to 10 (most).,104426.10000002384,1669831050833,banana,1960.7999999523163,True,0.15,106386.89999997616,1960.7999999523163,True,HRV,HRV_0168,2022-11-30 17:58:04
46,"[{'imgObject': {}, 'id': 'cocktailshrimp', 'src': '/static/foodstim60/cocktailshrimp.jpg', 'key': 'NaN', 'origWidth': 410, 'origHeight': 410, 'width': 374.40000000000003, 'height': 374.40000000000003, 'widthPercent': 0.8, 'rescaleHeight': True, 'trialN': 46, 'loaded': True, 'loadedTime': 2700, 'positionName': 'CENTER', 'positionCoords': [325, 101]}]",Rate how much you want to eat this food from 0 (least) to 10 (most).,106388.10000002384,1669831052795,cocktailshrimp,1225.0,True,0.17,107613.10000002384,1225.0,True,HRV,HRV_0168,2022-11-30 17:58:04
47,"[{'imgObject': {}, 'id': 'fried eggs', 'src': '/static/foodstim60/fried eggs.jpg', 'key': 'NaN', 'origWidth': 410, 'origHeight': 410, 'width': 374.40000000000003, 'height': 374.40000000000003, 'widthPercent': 0.8, 'rescaleHeight': True, 'trialN': 47, 'loaded': True, 'loadedTime': 2722.7000000476837, 'positionName': 'CENTER', 'positionCoords': [325, 101]}]",Rate how much you want to eat this food from 0 (least) to 10 (most).,107614.20000004768,1669831054021,fried eggs,2630.7999999523163,True,0.11,110245.0,2630.7999999523163,True,HRV,HRV_0168,2022-11-30 17:58:04
48,"[{'imgObject': {}, 'id': 'burrito', 'src': '/static/foodstim60/burrito.jpg', 'key': 'NaN', 'origWidth': 410, 'origHeight': 410, 'width': 374.40000000000003, 'height': 374.40000000000003, 'widthPercent': 0.8, 'rescaleHeight': True, 'trialN': 48, 'loaded': True, 'loadedTime': 2730.100000023842, 'positionName': 'CENTER', 'positionCoords': [325, 101]}]",Rate how much you want to eat this food from 0 (least) to 10 (most).,110246.30000007153,1669831056653,burrito,2436.6999999284744,True,7.71,112683.0,2436.6999999284744,True,HRV,HRV_0168,2022-11-30 17:58:04
49,"[{'imgObject': {}, 'id': 'cherry tomato', 'src': '/static/foodstim60/cherry tomato.jpg', 'key': 'NaN', 'origWidth': 410, 'origHeight': 410, 'width': 374.40000000000003, 'height': 374.40000000000003, 'widthPercent': 0.8, 'rescaleHeight': True, 'trialN': 49, 'loaded': True, 'loadedTime': 2734.399999976158, 'positionName': 'CENTER', 'positionCoords': [325, 101]}]",Rate how much you want to eat this food from 0 (least) to 10 (most).,112684.20000004768,1669831059091,cherry tomato,1888.7999999523163,True,0.07,114573.0,1888.7999999523163,True,HRV,HRV_0168,2022-11-30 17:58:04
50,"[{'imgObject': {}, 'id': 'salad w chicken', 'src': '/static/foodstim60/salad w chicken.jpg', 'key': 'NaN', 'origWidth': 411, 'origHeight': 411, 'width': 374.40000000000003, 'height': 374.40000000000003, 'widthPercent': 0.8, 'rescaleHeight': True, 'trialN': 50, 'loaded': True, 'loadedTime': 2758.600000023842, 'positionName': 'CENTER', 'positionCoords': [325, 101]}]",Rate how much you want to eat this food from 0 (least) to 10 (most).,114574.30000007153,1669831060981,salad w chicken,1990.6999999284744,True,7.65,116565.0,1990.6999999284744,True,HRV,HRV_0168,2022-11-30 17:58:04
51,"[{'imgObject': {}, 'id': 'shreddedwheatwithmilk', 'src': '/static/foodstim60/shreddedwheatwithmilk.jpg', 'key': 'NaN', 'origWidth': 410, 'origHeight': 410, 'width': 374.40000000000003, 'height': 374.40000000000003, 'widthPercent': 0.8, 'rescaleHeight': True, 'trialN': 51, 'loaded': True, 'loadedTime': 2752.3000000715256, 'positionName': 'CENTER', 'positionCoords': [325, 101]}]",Rate how much you want to eat this food from 0 (least) to 10 (most).,116566.30000007153,1669831062974,shreddedwheatwithmilk,1468.6999999284744,True,2.48,118035.0,1468.6999999284744,True,HRV,HRV_0168,2022-11-30 17:58:04
52,"[{'imgObject': {}, 'id': 'avocado', 'src': '/static/foodstim60/avocado.jpg', 'key': 'NaN', 'origWidth': 409, 'origHeight': 409, 'width': 374.40000000000003, 'height': 374.40000000000003, 'widthPercent': 0.8, 'rescaleHeight': True, 'trialN': 52, 'loaded': True, 'loadedTime': 2762.8000000715256, 'positionName': 'CENTER', 'positionCoords': [325, 101]}]",Rate how much you want to eat this food from 0 (least) to 10 (most).,118036.30000007153,1669831064443,avocado,2638.6999999284744,True,0.11,120675.0,2638.6999999284744,True,HRV,HRV_0168,2022-11-30 17:58:04
53,"[{'imgObject': {}, 'id': 'veggieswithdip', 'src': '/static/foodstim60/veggieswithdip.jpg', 'key': 'NaN', 'origWidth': 409, 'origHeight': 409, 'width': 374.40000000000003, 'height': 374.40000000000003, 'widthPercent': 0.8, 'rescaleHeight': True, 'trialN': 53, 'loaded': True, 'loadedTime': 2786.5, 'positionName': 'CENTER', 'positionCoords': [325, 101]}]",Rate how much you want to eat this food from 0 (least) to 10 (most).,120676.70000004768,1669831067084,veggieswithdip,2068.2999999523163,True,0.15,122745.0,2068.2999999523163,True,HRV,HRV_0168,2022-11-30 17:58:04
54,"[{'imgObject': {}, 'id': 'sweetpotato', 'src': '/static/foodstim60/sweetpotato.jpg', 'key': 'NaN', 'origWidth': 410, 'origHeight': 410, 'width': 374.40000000000003, 'height': 374.40000000000003, 'widthPercent': 0.8, 'rescaleHeight': True, 'trialN': 54, 'loaded': True, 'loadedTime': 2790.100000023842, 'positionName': 'CENTER', 'positionCoords': [325, 101]}]",Rate how much you want to eat this food from 0 (least) to 10 (most).,122746.30000007153,1669831069153,sweetpotato,1890.6999999284744,True,0.31,124637.0,1890.6999999284744,True,HRV,HRV_0168,2022-11-30 17:58:04
55,"[{'imgObject': {}, 'id': 'orange slices', 'src': '/static/foodstim60/orange slices.jpg', 'key': 'NaN', 'origWidth': 409, 'origHeight': 410, 'width': 373.4868292682927, 'height': 374.40000000000003, 'widthPercent': 0.8, 'rescaleHeight': True, 'trialN': 55, 'loaded': True, 'loadedTime': 2794.2000000476837, 'positionName': 'CENTER', 'positionCoords': [325.5, 101]}]",Rate how much you want to eat this food from 0 (least) to 10 (most).,124638.10000002384,1669831071045,orange slices,1622.8999999761581,True,4.17,126261.0,1622.8999999761581,True,HRV,HRV_0168,2022-11-30 17:58:04
56,"[{'imgObject': {}, 'id': 'seaweed', 'src': '/static/foodstim60/seaweed.jpg', 'key': 'NaN', 'origWidth': 410, 'origHeight': 410, 'width': 374.40000000000003, 'height': 374.40000000000003, 'widthPercent': 0.8, 'rescaleHeight': True, 'trialN': 56, 'loaded': True, 'loadedTime': 2802.3000000715256, 'positionName': 'CENTER', 'positionCoords': [325, 101]}]",Rate how much you want to eat this food from 0 (least) to 10 (most).,126262.0,1669831072669,seaweed,2218.899999976158,True,0.03,128480.89999997616,2218.899999976158,True,HRV,HRV_0168,2022-11-30 17:58:04
57,"[{'imgObject': {}, 'id': 'yogurt no spoon', 'src': '/static/foodstim60/yogurt no spoon.jpg', 'key': 'NaN', 'origWidth': 411, 'origHeight': 410, 'width': 375.3131707317074, 'height': 374.40000000000003, 'widthPercent': 0.8, 'rescaleHeight': True, 'trialN': 57, 'loaded': True, 'loadedTime': 2808.7000000476837, 'positionName': 'CENTER', 'positionCoords': [324.5, 101]}]",Rate how much you want to eat this food from 0 (least) to 10 (most).,128482.10000002384,1669831074889,yogurt no spoon,2606.7999999523163,True,4.12,131088.89999997616,2606.7999999523163,True,HRV,HRV_0168,2022-11-30 17:58:04
58,"[{'imgObject': {}, 'id': 'steak', 'src': '/static/foodstim60/steak.jpg', 'key': 'NaN', 'origWidth': 410, 'origHeight': 410, 'width': 374.40000000000003, 'height': 374.40000000000003, 'widthPercent': 0.8, 'rescaleHeight': True, 'trialN': 58, 'loaded': True, 'loadedTime': 2827.399999976158, 'positionName': 'CENTER', 'positionCoords': [325, 101]}]",Rate how much you want to eat this food from 0 (least) to 10 (most).,131090.10000002384,1669831077497,steak,2654.7999999523163,True,9.450000000000001,133744.89999997616,2654.7999999523163,True,HRV,HRV_0168,2022-11-30 17:58:04
59,"[{'imgObject': {}, 'id': 'hashbrowns', 'src': '/static/foodstim60/hashbrowns.jpg', 'key': 'NaN', 'origWidth': 411, 'origHeight': 410, 'width': 375.3131707317074, 'height': 374.40000000000003, 'widthPercent': 0.8, 'rescaleHeight': True, 'trialN': 59, 'loaded': True, 'loadedTime': 2837.100000023842, 'positionName': 'CENTER', 'positionCoords': [324.5, 101]}]",Rate how much you want to eat this food from 0 (least) to 10 (most).,133746.0,1669831080153,hashbrowns,2969.0,True,2.69,136715.0,2969.0,True,HRV,HRV_0168,2022-11-30 17:58:04
