trialN,stimuli,trialStartTime,trialStartTime_UNIX,stimulus1,stimulus2,stimulus1Bid,stimulus2Bid,delta,selected,rsp,rt,rt_UNIX,receivedResponse,trialEndTime,trialDuration,trialEndTime_UNIX,trialDuration_UNIX,rt_perfnow,exp,subjectId,date
0,"[{'imgObject': {}, 'id': 'apple slices', 'src': '/static/foodstim60/apple slices.jpg', 'key': 'u', 'origWidth': 409, 'origHeight': 410, 'width': 409, 'height': 410, 'widthPercent': 0.45, 'rescaleHeight': False, 'trialN': 0, 'loaded': True, 'loadedTime': 26537.5, 'positionName': 'LEFT', 'positionCoords': [359, 245], 'bid': 5.5600000000000005}, {'imgObject': {}, 'id': 'Grapes', 'src': '/static/foodstim60/Grapes.jpg', 'key': 'i', 'origWidth': 411, 'origHeight': 411, 'width': 411, 'height': 411, 'widthPercent': 0.45, 'rescaleHeight': False, 'trialN': 0, 'loaded': True, 'loadedTime': 26570.099999999627, 'positionName': 'RIGHT', 'positionCoords': [832, 244.5], 'bid': 5.33}]",29602.099999999627,1669829937479,apple slices,Grapes,5.5600000000000005,5.33,-0.23000000000000043,NaN,NaN,NaN,NaN,False,33690.0,4087.9000000003725,1669829941567,4088,,HRV,HRV_0084,2022-11-30 17:42:50
1,"[{'imgObject': {}, 'id': 'burrito', 'src': '/static/foodstim60/burrito.jpg', 'key': 'u', 'origWidth': 410, 'origHeight': 410, 'width': 410, 'height': 410, 'widthPercent': 0.45, 'rescaleHeight': False, 'trialN': 1, 'loaded': True, 'loadedTime': 26762.200000000186, 'positionName': 'LEFT', 'positionCoords': [358, 245], 'bid': 0.87}, {'imgObject': {}, 'id': 'Tribe humus pita', 'src': '/static/foodstim60/Tribe humus pita.jpg', 'key': 'i', 'origWidth': 411, 'origHeight': 411, 'width': 411, 'height': 411, 'widthPercent': 0.45, 'rescaleHeight': False, 'trialN': 1, 'loaded': True, 'loadedTime': 26628.200000000186, 'positionName': 'RIGHT', 'positionCoords': [832, 244.5], 'bid': 1}]",33690.200000000186,1669829941567,burrito,Tribe humus pita,0.87,1.0,0.13,Tribe humus pita,i,1165.699999999255,1167,True,35377.799999999814,1687.5999999996275,1669829943255,1688,1166.199999999255,HRV,HRV_0084,2022-11-30 17:42:50
2,"[{'imgObject': {}, 'id': 'luckycharms', 'src': '/static/foodstim60/luckycharms.jpg', 'key': 'u', 'origWidth': 410, 'origHeight': 409, 'width': 410, 'height': 409, 'widthPercent': 0.45, 'rescaleHeight': False, 'trialN': 2, 'loaded': True, 'loadedTime': 26695.39999999944, 'positionName': 'LEFT', 'positionCoords': [358, 245.5], 'bid': 0.76}, {'imgObject': {}, 'id': 'edamame', 'src': '/static/foodstim60/edamame.jpg', 'key': 'i', 'origWidth': 409, 'origHeight': 410, 'width': 409, 'height': 410, 'widthPercent': 0.45, 'rescaleHeight': False, 'trialN': 2, 'loaded': True, 'loadedTime': 26814.599999999627, 'positionName': 'RIGHT', 'positionCoords': [832, 245], 'bid': 3.0700000000000003}]",35378.200000000186,1669829943255,luckycharms,edamame,0.76,3.0700000000000003,2.3100000000000005,edamame,i,925.5,926,True,36815.09999999963,1436.8999999994412,1669829944692,1437,926.0,HRV,HRV_0084,2022-11-30 17:42:50
3,"[{'imgObject': {}, 'id': 'bagel plain', 'src': '/static/foodstim60/bagel plain.jpg', 'key': 'u', 'origWidth': 410, 'origHeight': 410, 'width': 410, 'height': 410, 'widthPercent': 0.45, 'rescaleHeight': False, 'trialN': 3, 'loaded': True, 'loadedTime': 27042.299999999814, 'positionName': 'LEFT', 'positionCoords': [358, 245], 'bid': 6.47}, {'imgObject': {}, 'id': 'chickenfingers', 'src': '/static/foodstim60/chickenfingers.jpg', 'key': 'i', 'origWidth': 410, 'origHeight': 410, 'width': 410, 'height': 410, 'widthPercent': 0.45, 'rescaleHeight': False, 'trialN': 3, 'loaded': True, 'loadedTime': 26913.099999999627, 'positionName': 'RIGHT', 'positionCoords': [832, 245], 'bid': 7.12}]",36815.39999999944,1669829944693,bagel plain,chickenfingers,6.47,7.12,0.6500000000000004,chickenfingers,i,824.2000000001863,824,True,38386.5,1571.1000000005588,1669829946264,1571,824.8000000007451,HRV,HRV_0084,2022-11-30 17:42:50
4,"[{'imgObject': {}, 'id': 'rigatoni and sauce', 'src': '/static/foodstim60/rigatoni and sauce.jpg', 'key': 'u', 'origWidth': 410, 'origHeight': 411, 'width': 410, 'height': 411, 'widthPercent': 0.45, 'rescaleHeight': False, 'trialN': 4, 'loaded': True, 'loadedTime': 27047.799999999814, 'positionName': 'LEFT', 'positionCoords': [358, 244.5], 'bid': 2.31}, {'imgObject': {}, 'id': 'mac & cheese', 'src': '/static/foodstim60/mac & cheese.jpg', 'key': 'i', 'origWidth': 410, 'origHeight': 410, 'width': 410, 'height': 410, 'widthPercent': 0.45, 'rescaleHeight': False, 'trialN': 4, 'loaded': True, 'loadedTime': 26972.599999999627, 'positionName': 'RIGHT', 'positionCoords': [832, 245], 'bid': 2.43}]",38387.39999999944,1669829946265,rigatoni and sauce,mac & cheese,2.31,2.43,0.1200000000000001,mac & cheese,i,1180.1000000005588,1180,True,40088.0,1700.6000000005588,1669829947965,1700,1180.6000000005588,HRV,HRV_0084,2022-11-30 17:42:50
5,"[{'imgObject': {}, 'id': 'lox', 'src': '/static/foodstim60/lox.jpg', 'key': 'u', 'origWidth': 410, 'origHeight': 411, 'width': 410, 'height': 411, 'widthPercent': 0.45, 'rescaleHeight': False, 'trialN': 5, 'loaded': True, 'loadedTime': 27045, 'positionName': 'LEFT', 'positionCoords': [358, 244.5], 'bid': 2.63}, {'imgObject': {}, 'id': 'turkeysandwich', 'src': '/static/foodstim60/turkeysandwich.jpg', 'key': 'i', 'origWidth': 409, 'origHeight': 409, 'width': 409, 'height': 409, 'widthPercent': 0.45, 'rescaleHeight': False, 'trialN': 5, 'loaded': True, 'loadedTime': 27036.099999999627, 'positionName': 'RIGHT', 'positionCoords': [832, 245.5], 'bid': 4.0200000000000005}]",40088.299999999814,1669829947966,lox,turkeysandwich,2.63,4.0200000000000005,1.3900000000000006,lox,u,1023.2000000001863,1024,True,41622.700000000186,1534.4000000003725,1669829949500,1534,1024.2999999998137,HRV,HRV_0084,2022-11-30 17:42:50
6,"[{'imgObject': {}, 'id': 'rigatoni', 'src': '/static/foodstim60/rigatoni.jpg', 'key': 'u', 'origWidth': 411, 'origHeight': 411, 'width': 411, 'height': 411, 'widthPercent': 0.45, 'rescaleHeight': False, 'trialN': 6, 'loaded': True, 'loadedTime': 27550.89999999944, 'positionName': 'LEFT', 'positionCoords': [357, 244.5], 'bid': 2.75}, {'imgObject': {}, 'id': 'hotdog w must', 'src': '/static/foodstim60/hotdog w must.jpg', 'key': 'i', 'origWidth': 409, 'origHeight': 409, 'width': 409, 'height': 409, 'widthPercent': 0.45, 'rescaleHeight': False, 'trialN': 6, 'loaded': True, 'loadedTime': 27172, 'positionName': 'RIGHT', 'positionCoords': [832, 245.5], 'bid': 0.75}]",41623.09999999963,1669829949500,rigatoni,hotdog w must,2.75,0.75,-2.0,hotdog w must,i,872.6000000005588,873,True,43018.39999999944,1395.2999999998137,1669829950895,1395,873.1000000005588,HRV,HRV_0084,2022-11-30 17:42:50
7,"[{'imgObject': {}, 'id': 'fruitsalad', 'src': '/static/foodstim60/fruitsalad.jpg', 'key': 'u', 'origWidth': 410, 'origHeight': 410, 'width': 410, 'height': 410, 'widthPercent': 0.45, 'rescaleHeight': False, 'trialN': 7, 'loaded': True, 'loadedTime': 27232.799999999814, 'positionName': 'LEFT', 'positionCoords': [358, 245], 'bid': 3.37}, {'imgObject': {}, 'id': 'baked potato', 'src': '/static/foodstim60/baked potato.jpg', 'key': 'i', 'origWidth': 409, 'origHeight': 410, 'width': 409, 'height': 410, 'widthPercent': 0.45, 'rescaleHeight': False, 'trialN': 7, 'loaded': True, 'loadedTime': 27413.700000000186, 'positionName': 'RIGHT', 'positionCoords': [832, 245], 'bid': 2.08}]",43018.59999999963,1669829950895,fruitsalad,baked potato,3.37,2.08,-1.29,fruitsalad,u,1053.1000000005588,1054,True,44580.299999999814,1561.7000000001863,1669829952457,1562,1053.6000000005588,HRV,HRV_0084,2022-11-30 17:42:50
8,"[{'imgObject': {}, 'id': 'corn cob', 'src': '/static/foodstim60/corn cob.jpg', 'key': 'u', 'origWidth': 411, 'origHeight': 411, 'width': 411, 'height': 411, 'widthPercent': 0.45, 'rescaleHeight': False, 'trialN': 8, 'loaded': True, 'loadedTime': 27415.89999999944, 'positionName': 'LEFT', 'positionCoords': [357, 244.5], 'bid': 1.66}, {'imgObject': {}, 'id': 'mango', 'src': '/static/foodstim60/mango.jpg', 'key': 'i', 'origWidth': 411, 'origHeight': 411, 'width': 411, 'height': 411, 'widthPercent': 0.45, 'rescaleHeight': False, 'trialN': 8, 'loaded': True, 'loadedTime': 27554.099999999627, 'positionName': 'RIGHT', 'positionCoords': [832, 244.5], 'bid': 1.68}]",44580.5,1669829952457,corn cob,mango,1.66,1.68,0.020000000000000018,corn cob,u,843.2000000001863,844,True,45938.0,1357.5,1669829953815,1358,843.7000000001863,HRV,HRV_0084,2022-11-30 17:42:50
9,"[{'imgObject': {}, 'id': 'seaweed', 'src': '/static/foodstim60/seaweed.jpg', 'key': 'u', 'origWidth': 410, 'origHeight': 410, 'width': 410, 'height': 410, 'widthPercent': 0.45, 'rescaleHeight': False, 'trialN': 9, 'loaded': True, 'loadedTime': 27621.799999999814, 'positionName': 'LEFT', 'positionCoords': [358, 245], 'bid': 0.76}, {'imgObject': {}, 'id': 'corn cob', 'src': '/static/foodstim60/corn cob.jpg', 'key': 'i', 'origWidth': 411, 'origHeight': 411, 'width': 411, 'height': 411, 'widthPercent': 0.45, 'rescaleHeight': False, 'trialN': 9, 'loaded': True, 'loadedTime': 27489.599999999627, 'positionName': 'RIGHT', 'positionCoords': [832, 244.5], 'bid': 1.66}]",45938.299999999814,1669829953815,seaweed,corn cob,0.76,1.66,0.8999999999999999,corn cob,i,1013.2999999998137,1014,True,47473.0,1534.7000000001863,1669829955350,1535,1014.2000000001863,HRV,HRV_0084,2022-11-30 17:42:50
10,"[{'imgObject': {}, 'id': 'yogurt no spoon', 'src': '/static/foodstim60/yogurt no spoon.jpg', 'key': 'u', 'origWidth': 411, 'origHeight': 410, 'width': 411, 'height': 410, 'widthPercent': 0.45, 'rescaleHeight': False, 'trialN': 10, 'loaded': True, 'loadedTime': 27735.799999999814, 'positionName': 'LEFT', 'positionCoords': [357, 245], 'bid': 1}, {'imgObject': {}, 'id': 'burger', 'src': '/static/foodstim60/burger.jpg', 'key': 'i', 'origWidth': 409, 'origHeight': 409, 'width': 409, 'height': 409, 'widthPercent': 0.45, 'rescaleHeight': False, 'trialN': 10, 'loaded': True, 'loadedTime': 27736.299999999814, 'positionName': 'RIGHT', 'positionCoords': [832, 245.5], 'bid': 1.52}]",47473.200000000186,1669829955350,yogurt no spoon,burger,1.0,1.52,0.52,burger,i,830.5,831,True,48814.59999999963,1341.3999999994412,1669829956691,1341,830.8999999994412,HRV,HRV_0084,2022-11-30 17:42:50
11,"[{'imgObject': {}, 'id': 'grilled chicken strips', 'src': '/static/foodstim60/grilled chicken strips.jpg', 'key': 'u', 'origWidth': 410, 'origHeight': 411, 'width': 410, 'height': 411, 'widthPercent': 0.45, 'rescaleHeight': False, 'trialN': 11, 'loaded': True, 'loadedTime': 27799.39999999944, 'positionName': 'LEFT', 'positionCoords': [358, 244.5], 'bid': 8.6}, {'imgObject': {}, 'id': 'lox', 'src': '/static/foodstim60/lox.jpg', 'key': 'i', 'origWidth': 410, 'origHeight': 411, 'width': 410, 'height': 411, 'widthPercent': 0.45, 'rescaleHeight': False, 'trialN': 11, 'loaded': True, 'loadedTime': 27045.799999999814, 'positionName': 'RIGHT', 'positionCoords': [832, 244.5], 'bid': 2.63}]",48814.799999999814,1669829956692,grilled chicken strips,lox,8.6,2.63,-5.97,grilled chicken strips,u,624.7999999998137,625,True,49954.799999999814,1140.0,1669829957832,1140,625.2999999998137,HRV,HRV_0084,2022-11-30 17:42:50
12,"[{'imgObject': {}, 'id': 'burger', 'src': '/static/foodstim60/burger.jpg', 'key': 'u', 'origWidth': 409, 'origHeight': 409, 'width': 409, 'height': 409, 'widthPercent': 0.45, 'rescaleHeight': False, 'trialN': 12, 'loaded': True, 'loadedTime': 27797.299999999814, 'positionName': 'LEFT', 'positionCoords': [359, 245.5], 'bid': 1.52}, {'imgObject': {}, 'id': 'sushi w_condiments', 'src': '/static/foodstim60/sushi w_condiments.jpg', 'key': 'i', 'origWidth': 410, 'origHeight': 410, 'width': 410, 'height': 410, 'widthPercent': 0.45, 'rescaleHeight': False, 'trialN': 12, 'loaded': True, 'loadedTime': 27861.099999999627, 'positionName': 'RIGHT', 'positionCoords': [832, 245], 'bid': 1.57}]",49955.0,1669829957832,burger,sushi w_condiments,1.52,1.57,0.050000000000000044,burger,u,700.5,701,True,51174.200000000186,1219.2000000001863,1669829959051,1219,701.0,HRV,HRV_0084,2022-11-30 17:42:50
13,"[{'imgObject': {}, 'id': 'grilled chicken strips', 'src': '/static/foodstim60/grilled chicken strips.jpg', 'key': 'u', 'origWidth': 410, 'origHeight': 411, 'width': 410, 'height': 411, 'widthPercent': 0.45, 'rescaleHeight': False, 'trialN': 13, 'loaded': True, 'loadedTime': 27797.799999999814, 'positionName': 'LEFT', 'positionCoords': [358, 244.5], 'bid': 8.6}, {'imgObject': {}, 'id': 'cocktailshrimp', 'src': '/static/foodstim60/cocktailshrimp.jpg', 'key': 'i', 'origWidth': 410, 'origHeight': 410, 'width': 410, 'height': 410, 'widthPercent': 0.45, 'rescaleHeight': False, 'trialN': 13, 'loaded': True, 'loadedTime': 28090.5, 'positionName': 'RIGHT', 'positionCoords': [832, 245], 'bid': 7.85}]",51174.59999999963,1669829959051,grilled chicken strips,cocktailshrimp,8.6,7.85,-0.75,grilled chicken strips,u,657.1000000005588,658,True,52338.299999999814,1163.7000000001863,1669829960215,1164,657.6000000005588,HRV,HRV_0084,2022-11-30 17:42:50
14,"[{'imgObject': {}, 'id': 'roastedpotatoes', 'src': '/static/foodstim60/roastedpotatoes.jpg', 'key': 'u', 'origWidth': 409, 'origHeight': 410, 'width': 409, 'height': 410, 'widthPercent': 0.45, 'rescaleHeight': False, 'trialN': 14, 'loaded': True, 'loadedTime': 28096.39999999944, 'positionName': 'LEFT', 'positionCoords': [359, 245], 'bid': 5.3500000000000005}, {'imgObject': {}, 'id': 'cocktailshrimp', 'src': '/static/foodstim60/cocktailshrimp.jpg', 'key': 'i', 'origWidth': 410, 'origHeight': 410, 'width': 410, 'height': 410, 'widthPercent': 0.45, 'rescaleHeight': False, 'trialN': 14, 'loaded': True, 'loadedTime': 28093.700000000186, 'positionName': 'RIGHT', 'positionCoords': [832, 245], 'bid': 7.85}]",52338.59999999963,1669829960215,roastedpotatoes,cocktailshrimp,5.3500000000000005,7.85,2.499999999999999,roastedpotatoes,u,564.7999999998137,566,True,53424.200000000186,1085.6000000005588,1669829961301,1086,565.2999999998137,HRV,HRV_0084,2022-11-30 17:42:50
15,"[{'imgObject': {}, 'id': 'eggsalad', 'src': '/static/foodstim60/eggsalad.jpg', 'key': 'u', 'origWidth': 410, 'origHeight': 409, 'width': 410, 'height': 409, 'widthPercent': 0.45, 'rescaleHeight': False, 'trialN': 15, 'loaded': True, 'loadedTime': 27921.099999999627, 'positionName': 'LEFT', 'positionCoords': [358, 245.5], 'bid': 1.9}, {'imgObject': {}, 'id': 'yogurt no spoon', 'src': '/static/foodstim60/yogurt no spoon.jpg', 'key': 'i', 'origWidth': 411, 'origHeight': 410, 'width': 411, 'height': 410, 'widthPercent': 0.45, 'rescaleHeight': False, 'trialN': 15, 'loaded': True, 'loadedTime': 27686.700000000186, 'positionName': 'RIGHT', 'positionCoords': [832, 245], 'bid': 1}]",53424.5,1669829961301,eggsalad,yogurt no spoon,1.9,1.0,-0.8999999999999999,eggsalad,u,1255.2000000001863,1256,True,55189.89999999944,1765.3999999994412,1669829963067,1766,1255.7000000001863,HRV,HRV_0084,2022-11-30 17:42:50
16,"[{'imgObject': {}, 'id': 'granola w milk', 'src': '/static/foodstim60/granola w milk.jpg', 'key': 'u', 'origWidth': 410, 'origHeight': 410, 'width': 410, 'height': 410, 'widthPercent': 0.45, 'rescaleHeight': False, 'trialN': 16, 'loaded': True, 'loadedTime': 27992.700000000186, 'positionName': 'LEFT', 'positionCoords': [358, 245], 'bid': 3.44}, {'imgObject': {}, 'id': 'omelette', 'src': '/static/foodstim60/omelette.jpg', 'key': 'i', 'origWidth': 410, 'origHeight': 409, 'width': 410, 'height': 409, 'widthPercent': 0.45, 'rescaleHeight': False, 'trialN': 16, 'loaded': True, 'loadedTime': 28099.700000000186, 'positionName': 'RIGHT', 'positionCoords': [832, 245.5], 'bid': 6.97}]",55190.200000000186,1669829963067,granola w milk,omelette,3.44,6.97,3.53,granola w milk,u,769.1999999992549,770,True,56471.299999999814,1281.0999999996275,1669829964348,1281,769.6999999992549,HRV,HRV_0084,2022-11-30 17:42:50
17,"[{'imgObject': {}, 'id': 'chicken nuggets2', 'src': '/static/foodstim60/chicken nuggets2.jpg', 'key': 'u', 'origWidth': 410, 'origHeight': 409, 'width': 410, 'height': 409, 'widthPercent': 0.45, 'rescaleHeight': False, 'trialN': 17, 'loaded': True, 'loadedTime': 27993, 'positionName': 'LEFT', 'positionCoords': [358, 245.5], 'bid': 3.6}, {'imgObject': {}, 'id': 'yogurt no spoon', 'src': '/static/foodstim60/yogurt no spoon.jpg', 'key': 'i', 'origWidth': 411, 'origHeight': 410, 'width': 411, 'height': 410, 'widthPercent': 0.45, 'rescaleHeight': False, 'trialN': 17, 'loaded': True, 'loadedTime': 27735.5, 'positionName': 'RIGHT', 'positionCoords': [832, 245], 'bid': 1}]",56471.59999999963,1669829964348,chicken nuggets2,yogurt no spoon,3.6,1.0,-2.6,yogurt no spoon,i,1063.9000000003725,1065,True,58054.5,1582.9000000003725,1669829965931,1583,1064.4000000003725,HRV,HRV_0084,2022-11-30 17:42:50
18,"[{'imgObject': {}, 'id': 'fried eggs', 'src': '/static/foodstim60/fried eggs.jpg', 'key': 'u', 'origWidth': 410, 'origHeight': 410, 'width': 410, 'height': 410, 'widthPercent': 0.45, 'rescaleHeight': False, 'trialN': 18, 'loaded': True, 'loadedTime': 28131.39999999944, 'positionName': 'LEFT', 'positionCoords': [358, 245], 'bid': 6.3100000000000005}, {'imgObject': {}, 'id': 'burger', 'src': '/static/foodstim60/burger.jpg', 'key': 'i', 'origWidth': 409, 'origHeight': 409, 'width': 409, 'height': 409, 'widthPercent': 0.45, 'rescaleHeight': False, 'trialN': 18, 'loaded': True, 'loadedTime': 27738.39999999944, 'positionName': 'RIGHT', 'positionCoords': [832, 245.5], 'bid': 1.52}]",58054.89999999944,1669829965932,fried eggs,burger,6.3100000000000005,1.52,-4.790000000000001,fried eggs,u,792.6000000005588,793,True,59362.59999999963,1307.7000000001863,1669829967239,1307,793.1000000005588,HRV,HRV_0084,2022-11-30 17:42:50
19,"[{'imgObject': {}, 'id': 'rigatoni and sauce', 'src': '/static/foodstim60/rigatoni and sauce.jpg', 'key': 'u', 'origWidth': 410, 'origHeight': 411, 'width': 410, 'height': 411, 'widthPercent': 0.45, 'rescaleHeight': False, 'trialN': 19, 'loaded': True, 'loadedTime': 27050.200000000186, 'positionName': 'LEFT', 'positionCoords': [358, 244.5], 'bid': 2.31}, {'imgObject': {}, 'id': 'baked potato', 'src': '/static/foodstim60/baked potato.jpg', 'key': 'i', 'origWidth': 409, 'origHeight': 410, 'width': 409, 'height': 410, 'widthPercent': 0.45, 'rescaleHeight': False, 'trialN': 19, 'loaded': True, 'loadedTime': 27413.39999999944, 'positionName': 'RIGHT', 'positionCoords': [832, 245], 'bid': 2.08}]",59362.89999999944,1669829967240,rigatoni and sauce,baked potato,2.31,2.08,-0.22999999999999998,baked potato,i,676.6000000005588,677,True,60548.89999999944,1186.0,1669829968426,1186,677.1000000005588,HRV,HRV_0084,2022-11-30 17:42:50
20,"[{'imgObject': {}, 'id': 'ice cream sundae 002', 'src': '/static/foodstim60/ice cream sundae 002.jpg', 'key': 'u', 'origWidth': 409, 'origHeight': 409, 'width': 409, 'height': 409, 'widthPercent': 0.45, 'rescaleHeight': False, 'trialN': 20, 'loaded': True, 'loadedTime': 28200.700000000186, 'positionName': 'LEFT', 'positionCoords': [359, 245.5], 'bid': 4.05}, {'imgObject': {}, 'id': 'Grapes', 'src': '/static/foodstim60/Grapes.jpg', 'key': 'i', 'origWidth': 411, 'origHeight': 411, 'width': 411, 'height': 411, 'widthPercent': 0.45, 'rescaleHeight': False, 'trialN': 20, 'loaded': True, 'loadedTime': 26572.799999999814, 'positionName': 'RIGHT', 'positionCoords': [832, 244.5], 'bid': 5.33}]",60549.200000000186,1669829968426,ice cream sundae 002,Grapes,4.05,5.33,1.2800000000000002,Grapes,i,1002.2999999998137,1003,True,62073.0,1523.7999999998137,1669829969950,1524,1003.0,HRV,HRV_0084,2022-11-30 17:42:50
21,"[{'imgObject': {}, 'id': 'hashbrowns', 'src': '/static/foodstim60/hashbrowns.jpg', 'key': 'u', 'origWidth': 411, 'origHeight': 410, 'width': 411, 'height': 410, 'widthPercent': 0.45, 'rescaleHeight': False, 'trialN': 21, 'loaded': True, 'loadedTime': 28197.099999999627, 'positionName': 'LEFT', 'positionCoords': [357, 245], 'bid': 3.68}, {'imgObject': {}, 'id': 'turkeysandwich', 'src': '/static/foodstim60/turkeysandwich.jpg', 'key': 'i', 'origWidth': 409, 'origHeight': 409, 'width': 409, 'height': 409, 'widthPercent': 0.45, 'rescaleHeight': False, 'trialN': 21, 'loaded': True, 'loadedTime': 27034, 'positionName': 'RIGHT', 'positionCoords': [832, 245.5], 'bid': 4.0200000000000005}]",62073.200000000186,1669829969950,hashbrowns,turkeysandwich,3.68,4.0200000000000005,0.3400000000000003,turkeysandwich,i,750.1999999992549,751,True,63331.59999999963,1258.3999999994412,1669829971208,1258,750.5999999996275,HRV,HRV_0084,2022-11-30 17:42:50
22,"[{'imgObject': {}, 'id': 'rigatoni and sauce', 'src': '/static/foodstim60/rigatoni and sauce.jpg', 'key': 'u', 'origWidth': 410, 'origHeight': 411, 'width': 410, 'height': 411, 'widthPercent': 0.45, 'rescaleHeight': False, 'trialN': 22, 'loaded': True, 'loadedTime': 27051, 'positionName': 'LEFT', 'positionCoords': [358, 244.5], 'bid': 2.31}, {'imgObject': {}, 'id': 'salmon', 'src': '/static/foodstim60/salmon.jpg', 'key': 'i', 'origWidth': 410, 'origHeight': 409, 'width': 410, 'height': 409, 'widthPercent': 0.45, 'rescaleHeight': False, 'trialN': 22, 'loaded': True, 'loadedTime': 28198.799999999814, 'positionName': 'RIGHT', 'positionCoords': [832, 245.5], 'bid': 7.72}]",63331.799999999814,1669829971209,rigatoni and sauce,salmon,2.31,7.72,5.41,salmon,i,803.5,804,True,64642.200000000186,1310.4000000003725,1669829972519,1310,804.0999999996275,HRV,HRV_0084,2022-11-30 17:42:50
23,"[{'imgObject': {}, 'id': 'eggsalad', 'src': '/static/foodstim60/eggsalad.jpg', 'key': 'u', 'origWidth': 410, 'origHeight': 409, 'width': 410, 'height': 409, 'widthPercent': 0.45, 'rescaleHeight': False, 'trialN': 23, 'loaded': True, 'loadedTime': 27921.700000000186, 'positionName': 'LEFT', 'positionCoords': [358, 245.5], 'bid': 1.9}, {'imgObject': {}, 'id': 'chickenfingers', 'src': '/static/foodstim60/chickenfingers.jpg', 'key': 'i', 'origWidth': 410, 'origHeight': 410, 'width': 410, 'height': 410, 'widthPercent': 0.45, 'rescaleHeight': False, 'trialN': 23, 'loaded': True, 'loadedTime': 26917, 'positionName': 'RIGHT', 'positionCoords': [832, 245], 'bid': 7.12}]",64642.5,1669829972519,eggsalad,chickenfingers,1.9,7.12,5.220000000000001,chickenfingers,i,885,886,True,66038.5,1396.0,1669829973915,1396,885.5,HRV,HRV_0084,2022-11-30 17:42:50
24,"[{'imgObject': {}, 'id': 'strawberries', 'src': '/static/foodstim60/strawberries.jpg', 'key': 'u', 'origWidth': 410, 'origHeight': 410, 'width': 410, 'height': 410, 'widthPercent': 0.45, 'rescaleHeight': False, 'trialN': 24, 'loaded': True, 'loadedTime': 28269.39999999944, 'positionName': 'LEFT', 'positionCoords': [358, 245], 'bid': 6.07}, {'imgObject': {}, 'id': 'raspberries', 'src': '/static/foodstim60/raspberries.jpg', 'key': 'i', 'origWidth': 411, 'origHeight': 411, 'width': 411, 'height': 411, 'widthPercent': 0.45, 'rescaleHeight': False, 'trialN': 24, 'loaded': True, 'loadedTime': 28274.5, 'positionName': 'RIGHT', 'positionCoords': [832, 244.5], 'bid': 7.71}]",66038.89999999944,1669829973916,strawberries,raspberries,6.07,7.71,1.6399999999999997,raspberries,i,1024.5,1025,True,67571.79999999981,1532.9000000003725,1669829975448,1532,1025.4000000003725,HRV,HRV_0084,2022-11-30 17:42:50
25,"[{'imgObject': {}, 'id': 'turkeysandwich', 'src': '/static/foodstim60/turkeysandwich.jpg', 'key': 'u', 'origWidth': 409, 'origHeight': 409, 'width': 409, 'height': 409, 'widthPercent': 0.45, 'rescaleHeight': False, 'trialN': 25, 'loaded': True, 'loadedTime': 27036.599999999627, 'positionName': 'LEFT', 'positionCoords': [359, 245.5], 'bid': 4.0200000000000005}, {'imgObject': {}, 'id': 'pear', 'src': '/static/foodstim60/pear.jpg', 'key': 'i', 'origWidth': 411, 'origHeight': 410, 'width': 411, 'height': 410, 'widthPercent': 0.45, 'rescaleHeight': False, 'trialN': 25, 'loaded': True, 'loadedTime': 28277.599999999627, 'positionName': 'RIGHT', 'positionCoords': [832, 245], 'bid': 7.57}]",67572.0,1669829975449,turkeysandwich,pear,4.0200000000000005,7.57,3.55,turkeysandwich,u,643.3999999994412,644,True,68721.79999999981,1149.7999999998137,1669829976599,1150,643.8999999994412,HRV,HRV_0084,2022-11-30 17:42:50
26,"[{'imgObject': {}, 'id': 'ice cream sundae 002', 'src': '/static/foodstim60/ice cream sundae 002.jpg', 'key': 'u', 'origWidth': 409, 'origHeight': 409, 'width': 409, 'height': 409, 'widthPercent': 0.45, 'rescaleHeight': False, 'trialN': 26, 'loaded': True, 'loadedTime': 28202.299999999814, 'positionName': 'LEFT', 'positionCoords': [359, 245.5], 'bid': 4.05}, {'imgObject': {}, 'id': 'roastedpotatoes', 'src': '/static/foodstim60/roastedpotatoes.jpg', 'key': 'i', 'origWidth': 409, 'origHeight': 410, 'width': 409, 'height': 410, 'widthPercent': 0.45, 'rescaleHeight': False, 'trialN': 26, 'loaded': True, 'loadedTime': 28095.799999999814, 'positionName': 'RIGHT', 'positionCoords': [832, 245], 'bid': 5.3500000000000005}]",68722.20000000019,1669829976599,ice cream sundae 002,roastedpotatoes,4.05,5.3500000000000005,1.3000000000000007,roastedpotatoes,i,717.0999999996275,718,True,69955.29999999981,1233.0999999996275,1669829977832,1233,717.5999999996275,HRV,HRV_0084,2022-11-30 17:42:50
27,"[{'imgObject': {}, 'id': 'turkey sandwich', 'src': '/static/foodstim60/turkey sandwich.jpg', 'key': 'u', 'origWidth': 409, 'origHeight': 409, 'width': 409, 'height': 409, 'widthPercent': 0.45, 'rescaleHeight': False, 'trialN': 27, 'loaded': True, 'loadedTime': 28281, 'positionName': 'LEFT', 'positionCoords': [359, 245.5], 'bid': 3.18}, {'imgObject': {}, 'id': 'mac & cheese', 'src': '/static/foodstim60/mac & cheese.jpg', 'key': 'i', 'origWidth': 410, 'origHeight': 410, 'width': 410, 'height': 410, 'widthPercent': 0.45, 'rescaleHeight': False, 'trialN': 27, 'loaded': True, 'loadedTime': 27033.099999999627, 'positionName': 'RIGHT', 'positionCoords': [832, 245], 'bid': 2.43}]",69955.39999999944,1669829977832,turkey sandwich,mac & cheese,3.18,2.43,-0.75,turkey sandwich,u,747.9000000003725,748,True,71221.5,1266.1000000005588,1669829979098,1266,748.3000000007451,HRV,HRV_0084,2022-11-30 17:42:50
28,"[{'imgObject': {}, 'id': 'steak', 'src': '/static/foodstim60/steak.jpg', 'key': 'u', 'origWidth': 410, 'origHeight': 410, 'width': 410, 'height': 410, 'widthPercent': 0.45, 'rescaleHeight': False, 'trialN': 28, 'loaded': True, 'loadedTime': 28281.599999999627, 'positionName': 'LEFT', 'positionCoords': [358, 245], 'bid': 7.51}, {'imgObject': {}, 'id': 'cantaloupe', 'src': '/static/foodstim60/cantaloupe.jpg', 'key': 'i', 'origWidth': 409, 'origHeight': 409, 'width': 409, 'height': 409, 'widthPercent': 0.45, 'rescaleHeight': False, 'trialN': 28, 'loaded': True, 'loadedTime': 28296.5, 'positionName': 'RIGHT', 'positionCoords': [832, 245.5], 'bid': 7.45}]",71221.89999999944,1669829979099,steak,cantaloupe,7.51,7.45,-0.05999999999999961,steak,u,1057.4000000003725,1058,True,72796.89999999944,1575.0,1669829980674,1575,1057.9000000003725,HRV,HRV_0084,2022-11-30 17:42:50
29,"[{'imgObject': {}, 'id': 'hotdog w must', 'src': '/static/foodstim60/hotdog w must.jpg', 'key': 'u', 'origWidth': 409, 'origHeight': 409, 'width': 409, 'height': 409, 'widthPercent': 0.45, 'rescaleHeight': False, 'trialN': 29, 'loaded': True, 'loadedTime': 27171.799999999814, 'positionName': 'LEFT', 'positionCoords': [359, 245.5], 'bid': 0.75}, {'imgObject': {}, 'id': 'Tribe humus pita', 'src': '/static/foodstim60/Tribe humus pita.jpg', 'key': 'i', 'origWidth': 411, 'origHeight': 411, 'width': 411, 'height': 411, 'widthPercent': 0.45, 'rescaleHeight': False, 'trialN': 29, 'loaded': True, 'loadedTime': 26578.099999999627, 'positionName': 'RIGHT', 'positionCoords': [832, 244.5], 'bid': 1}]",72797.29999999981,1669829980674,hotdog w must,Tribe humus pita,0.75,1.0,0.25,Tribe humus pita,i,706.2000000001863,707,True,74021.39999999944,1224.0999999996275,1669829981898,1224,706.7000000001863,HRV,HRV_0084,2022-11-30 17:42:50
30,"[{'imgObject': {}, 'id': 'hotdog w must', 'src': '/static/foodstim60/hotdog w must.jpg', 'key': 'u', 'origWidth': 409, 'origHeight': 409, 'width': 409, 'height': 409, 'widthPercent': 0.45, 'rescaleHeight': False, 'trialN': 30, 'loaded': True, 'loadedTime': 27069.799999999814, 'positionName': 'LEFT', 'positionCoords': [359, 245.5], 'bid': 0.75}, {'imgObject': {}, 'id': 'seaweed', 'src': '/static/foodstim60/seaweed.jpg', 'key': 'i', 'origWidth': 410, 'origHeight': 410, 'width': 410, 'height': 410, 'widthPercent': 0.45, 'rescaleHeight': False, 'trialN': 30, 'loaded': True, 'loadedTime': 27684.299999999814, 'positionName': 'RIGHT', 'positionCoords': [832, 245], 'bid': 0.76}]",74021.70000000019,1669829981898,hotdog w must,seaweed,0.75,0.76,0.010000000000000009,hotdog w must,u,905.5999999996275,907,True,75440.5,1418.7999999998137,1669829983317,1419,906.0999999996275,HRV,HRV_0084,2022-11-30 17:42:50
31,"[{'imgObject': {}, 'id': 'mango', 'src': '/static/foodstim60/mango.jpg', 'key': 'u', 'origWidth': 411, 'origHeight': 411, 'width': 411, 'height': 411, 'widthPercent': 0.45, 'rescaleHeight': False, 'trialN': 31, 'loaded': True, 'loadedTime': 27554.5, 'positionName': 'LEFT', 'positionCoords': [357, 244.5], 'bid': 1.68}, {'imgObject': {}, 'id': 'shreddedwheatwithmilk', 'src': '/static/foodstim60/shreddedwheatwithmilk.jpg', 'key': 'i', 'origWidth': 410, 'origHeight': 410, 'width': 410, 'height': 410, 'widthPercent': 0.45, 'rescaleHeight': False, 'trialN': 31, 'loaded': True, 'loadedTime': 28330.39999999944, 'positionName': 'RIGHT', 'positionCoords': [832, 245], 'bid': 1.31}]",75440.70000000019,1669829983318,mango,shreddedwheatwithmilk,1.68,1.31,-0.3699999999999999,shreddedwheatwithmilk,i,694.7999999998137,695,True,76657.5,1216.7999999998137,1669829984534,1216,695.1999999992549,HRV,HRV_0084,2022-11-30 17:42:50
32,"[{'imgObject': {}, 'id': 'salmon', 'src': '/static/foodstim60/salmon.jpg', 'key': 'u', 'origWidth': 410, 'origHeight': 409, 'width': 410, 'height': 409, 'widthPercent': 0.45, 'rescaleHeight': False, 'trialN': 32, 'loaded': True, 'loadedTime': 28198.89999999944, 'positionName': 'LEFT', 'positionCoords': [358, 245.5], 'bid': 7.72}, {'imgObject': {}, 'id': 'fried eggs', 'src': '/static/foodstim60/fried eggs.jpg', 'key': 'i', 'origWidth': 410, 'origHeight': 410, 'width': 410, 'height': 410, 'widthPercent': 0.45, 'rescaleHeight': False, 'trialN': 32, 'loaded': True, 'loadedTime': 28131.599999999627, 'positionName': 'RIGHT', 'positionCoords': [832, 245], 'bid': 6.3100000000000005}]",76657.79999999981,1669829984535,salmon,fried eggs,7.72,6.3100000000000005,-1.4099999999999993,fried eggs,i,685.5,686,True,77855.20000000019,1197.4000000003725,1669829985732,1197,686.0,HRV,HRV_0084,2022-11-30 17:42:50
33,"[{'imgObject': {}, 'id': 'rigatoni and sauce', 'src': '/static/foodstim60/rigatoni and sauce.jpg', 'key': 'u', 'origWidth': 410, 'origHeight': 411, 'width': 410, 'height': 411, 'widthPercent': 0.45, 'rescaleHeight': False, 'trialN': 33, 'loaded': True, 'loadedTime': 27049.299999999814, 'positionName': 'LEFT', 'positionCoords': [358, 244.5], 'bid': 2.31}, {'imgObject': {}, 'id': 'chicken nuggets2', 'src': '/static/foodstim60/chicken nuggets2.jpg', 'key': 'i', 'origWidth': 410, 'origHeight': 409, 'width': 410, 'height': 409, 'widthPercent': 0.45, 'rescaleHeight': False, 'trialN': 33, 'loaded': True, 'loadedTime': 27994.89999999944, 'positionName': 'RIGHT', 'positionCoords': [832, 245.5], 'bid': 3.6}]",77855.39999999944,1669829985732,rigatoni and sauce,chicken nuggets2,2.31,3.6,1.29,chicken nuggets2,i,727.8000000007451,728,True,79096.5,1241.1000000005588,1669829986973,1241,728.3000000007451,HRV,HRV_0084,2022-11-30 17:42:50
34,"[{'imgObject': {}, 'id': 'turkey sandwich', 'src': '/static/foodstim60/turkey sandwich.jpg', 'key': 'u', 'origWidth': 409, 'origHeight': 409, 'width': 409, 'height': 409, 'widthPercent': 0.45, 'rescaleHeight': False, 'trialN': 34, 'loaded': True, 'loadedTime': 28281.200000000186, 'positionName': 'LEFT', 'positionCoords': [359, 245.5], 'bid': 3.18}, {'imgObject': {}, 'id': 'granola w milk', 'src': '/static/foodstim60/granola w milk.jpg', 'key': 'i', 'origWidth': 410, 'origHeight': 410, 'width': 410, 'height': 410, 'widthPercent': 0.45, 'rescaleHeight': False, 'trialN': 34, 'loaded': True, 'loadedTime': 27990.39999999944, 'positionName': 'RIGHT', 'positionCoords': [832, 245], 'bid': 3.44}]",79096.89999999944,1669829986974,turkey sandwich,granola w milk,3.18,3.44,0.2599999999999998,turkey sandwich,u,678.3000000007451,678,True,80289.09999999963,1192.2000000001863,1669829988166,1192,678.7000000001863,HRV,HRV_0084,2022-11-30 17:42:50
35,"[{'imgObject': {}, 'id': 'olives', 'src': '/static/foodstim60/olives.jpg', 'key': 'u', 'origWidth': 410, 'origHeight': 410, 'width': 410, 'height': 410, 'widthPercent': 0.45, 'rescaleHeight': False, 'trialN': 35, 'loaded': True, 'loadedTime': 28404.200000000186, 'positionName': 'LEFT', 'positionCoords': [358, 245], 'bid': 1.01}, {'imgObject': {}, 'id': 'corn cob', 'src': '/static/foodstim60/corn cob.jpg', 'key': 'i', 'origWidth': 411, 'origHeight': 411, 'width': 411, 'height': 411, 'widthPercent': 0.45, 'rescaleHeight': False, 'trialN': 35, 'loaded': True, 'loadedTime': 27414, 'positionName': 'RIGHT', 'positionCoords': [832, 244.5], 'bid': 1.66}]",80289.20000000019,1669829988166,olives,corn cob,1.01,1.66,0.6499999999999999,corn cob,i,725.8999999994412,727,True,81522.79999999981,1233.5999999996275,1669829989400,1234,726.8999999994412,HRV,HRV_0084,2022-11-30 17:42:50
36,"[{'imgObject': {}, 'id': 'orange slices', 'src': '/static/foodstim60/orange slices.jpg', 'key': 'u', 'origWidth': 409, 'origHeight': 410, 'width': 409, 'height': 410, 'widthPercent': 0.45, 'rescaleHeight': False, 'trialN': 36, 'loaded': True, 'loadedTime': 28431.299999999814, 'positionName': 'LEFT', 'positionCoords': [359, 245], 'bid': 0.33}, {'imgObject': {}, 'id': 'salad w chicken', 'src': '/static/foodstim60/salad w chicken.jpg', 'key': 'i', 'origWidth': 411, 'origHeight': 411, 'width': 411, 'height': 411, 'widthPercent': 0.45, 'rescaleHeight': False, 'trialN': 36, 'loaded': True, 'loadedTime': 28435.799999999814, 'positionName': 'RIGHT', 'positionCoords': [832, 244.5], 'bid': 2.67}]",81523.09999999963,1669829989400,orange slices,salad w chicken,0.33,2.67,2.34,salad w chicken,i,796.1000000005588,796,True,82829.0,1305.9000000003725,1669829990706,1306,796.6000000005588,HRV,HRV_0084,2022-11-30 17:42:50
37,"[{'imgObject': {}, 'id': 'mac & cheese', 'src': '/static/foodstim60/mac & cheese.jpg', 'key': 'u', 'origWidth': 410, 'origHeight': 410, 'width': 410, 'height': 410, 'widthPercent': 0.45, 'rescaleHeight': False, 'trialN': 37, 'loaded': True, 'loadedTime': 27021.099999999627, 'positionName': 'LEFT', 'positionCoords': [358, 245], 'bid': 2.43}, {'imgObject': {}, 'id': 'cocktailshrimp', 'src': '/static/foodstim60/cocktailshrimp.jpg', 'key': 'i', 'origWidth': 410, 'origHeight': 410, 'width': 410, 'height': 410, 'widthPercent': 0.45, 'rescaleHeight': False, 'trialN': 37, 'loaded': True, 'loadedTime': 28094.39999999944, 'positionName': 'RIGHT', 'positionCoords': [832, 245], 'bid': 7.85}]",82829.29999999981,1669829990706,mac & cheese,cocktailshrimp,2.43,7.85,5.42,cocktailshrimp,i,777.9000000003725,778,True,84121.09999999963,1291.7999999998137,1669829991998,1292,778.4000000003725,HRV,HRV_0084,2022-11-30 17:42:50
38,"[{'imgObject': {}, 'id': 'salmon', 'src': '/static/foodstim60/salmon.jpg', 'key': 'u', 'origWidth': 410, 'origHeight': 409, 'width': 410, 'height': 409, 'widthPercent': 0.45, 'rescaleHeight': False, 'trialN': 38, 'loaded': True, 'loadedTime': 28199.099999999627, 'positionName': 'LEFT', 'positionCoords': [358, 245.5], 'bid': 7.72}, {'imgObject': {}, 'id': 'cocktailshrimp', 'src': '/static/foodstim60/cocktailshrimp.jpg', 'key': 'i', 'origWidth': 410, 'origHeight': 410, 'width': 410, 'height': 410, 'widthPercent': 0.45, 'rescaleHeight': False, 'trialN': 38, 'loaded': True, 'loadedTime': 28091.700000000186, 'positionName': 'RIGHT', 'positionCoords': [832, 245], 'bid': 7.85}]",84121.39999999944,1669829991998,salmon,cocktailshrimp,7.72,7.85,0.1299999999999999,salmon,u,693.9000000003725,695,True,85329.70000000019,1208.300000000745,1669829993206,1208,694.3000000007451,HRV,HRV_0084,2022-11-30 17:42:50
39,"[{'imgObject': {}, 'id': 'mango', 'src': '/static/foodstim60/mango.jpg', 'key': 'u', 'origWidth': 411, 'origHeight': 411, 'width': 411, 'height': 411, 'widthPercent': 0.45, 'rescaleHeight': False, 'trialN': 39, 'loaded': True, 'loadedTime': 27553.799999999814, 'positionName': 'LEFT', 'positionCoords': [357, 244.5], 'bid': 1.68}, {'imgObject': {}, 'id': 'avocado', 'src': '/static/foodstim60/avocado.jpg', 'key': 'i', 'origWidth': 409, 'origHeight': 409, 'width': 409, 'height': 409, 'widthPercent': 0.45, 'rescaleHeight': False, 'trialN': 39, 'loaded': True, 'loadedTime': 28436, 'positionName': 'RIGHT', 'positionCoords': [832, 245.5], 'bid': 0.8}]",85330.09999999963,1669829993207,mango,avocado,1.68,0.8,-0.8799999999999999,mango,u,717,717,True,86563.70000000019,1233.6000000005588,1669829994440,1233,717.5,HRV,HRV_0084,2022-11-30 17:42:50
40,"[{'imgObject': {}, 'id': 'rigatoni', 'src': '/static/foodstim60/rigatoni.jpg', 'key': 'u', 'origWidth': 411, 'origHeight': 411, 'width': 411, 'height': 411, 'widthPercent': 0.45, 'rescaleHeight': False, 'trialN': 40, 'loaded': True, 'loadedTime': 27552.299999999814, 'positionName': 'LEFT', 'positionCoords': [357, 244.5], 'bid': 2.75}, {'imgObject': {}, 'id': 'fried eggs', 'src': '/static/foodstim60/fried eggs.jpg', 'key': 'i', 'origWidth': 410, 'origHeight': 410, 'width': 410, 'height': 410, 'widthPercent': 0.45, 'rescaleHeight': False, 'trialN': 40, 'loaded': True, 'loadedTime': 28130.799999999814, 'positionName': 'RIGHT', 'positionCoords': [832, 245], 'bid': 6.3100000000000005}]",86564.0,1669829994441,rigatoni,fried eggs,2.75,6.3100000000000005,3.5600000000000005,rigatoni,u,651.2999999998137,652,True,87722.0,1158.0,1669829995599,1158,651.7999999998137,HRV,HRV_0084,2022-11-30 17:42:50
41,"[{'imgObject': {}, 'id': 'cocktailshrimp', 'src': '/static/foodstim60/cocktailshrimp.jpg', 'key': 'u', 'origWidth': 410, 'origHeight': 410, 'width': 410, 'height': 410, 'widthPercent': 0.45, 'rescaleHeight': False, 'trialN': 41, 'loaded': True, 'loadedTime': 28094.299999999814, 'positionName': 'LEFT', 'positionCoords': [358, 245], 'bid': 7.85}, {'imgObject': {}, 'id': 'chickenfingers', 'src': '/static/foodstim60/chickenfingers.jpg', 'key': 'i', 'origWidth': 410, 'origHeight': 410, 'width': 410, 'height': 410, 'widthPercent': 0.45, 'rescaleHeight': False, 'trialN': 41, 'loaded': True, 'loadedTime': 26915.599999999627, 'positionName': 'RIGHT', 'positionCoords': [832, 245], 'bid': 7.12}]",87722.29999999981,1669829995599,cocktailshrimp,chickenfingers,7.85,7.12,-0.7299999999999995,cocktailshrimp,u,756.9000000003725,757,True,88987.20000000019,1264.9000000003725,1669829996864,1265,757.2000000001863,HRV,HRV_0084,2022-11-30 17:42:50
42,"[{'imgObject': {}, 'id': 'apple slices', 'src': '/static/foodstim60/apple slices.jpg', 'key': 'u', 'origWidth': 409, 'origHeight': 410, 'width': 409, 'height': 410, 'widthPercent': 0.45, 'rescaleHeight': False, 'trialN': 42, 'loaded': True, 'loadedTime': 26487.5, 'positionName': 'LEFT', 'positionCoords': [359, 245], 'bid': 5.5600000000000005}, {'imgObject': {}, 'id': 'shreddedwheatwithmilk', 'src': '/static/foodstim60/shreddedwheatwithmilk.jpg', 'key': 'i', 'origWidth': 410, 'origHeight': 410, 'width': 410, 'height': 410, 'widthPercent': 0.45, 'rescaleHeight': False, 'trialN': 42, 'loaded': True, 'loadedTime': 28342.200000000186, 'positionName': 'RIGHT', 'positionCoords': [832, 245], 'bid': 1.31}]",88987.5,1669829996864,apple slices,shreddedwheatwithmilk,5.5600000000000005,1.31,-4.25,apple slices,u,899.7999999998137,901,True,90404.59999999963,1417.0999999996275,1669829998281,1417,900.2999999998137,HRV,HRV_0084,2022-11-30 17:42:50
43,"[{'imgObject': {}, 'id': 'shreddedwheatwithmilk', 'src': '/static/foodstim60/shreddedwheatwithmilk.jpg', 'key': 'u', 'origWidth': 410, 'origHeight': 410, 'width': 410, 'height': 410, 'widthPercent': 0.45, 'rescaleHeight': False, 'trialN': 43, 'loaded': True, 'loadedTime': 28341.89999999944, 'positionName': 'LEFT', 'positionCoords': [358, 245], 'bid': 1.31}, {'imgObject': {}, 'id': 'cherry tomato', 'src': '/static/foodstim60/cherry tomato.jpg', 'key': 'i', 'origWidth': 410, 'origHeight': 410, 'width': 410, 'height': 410, 'widthPercent': 0.45, 'rescaleHeight': False, 'trialN': 43, 'loaded': True, 'loadedTime': 28478.89999999944, 'positionName': 'RIGHT', 'positionCoords': [832, 245], 'bid': 1.47}]",90404.89999999944,1669829998282,shreddedwheatwithmilk,cherry tomato,1.31,1.47,0.15999999999999992,shreddedwheatwithmilk,u,826.5,827,True,91738.20000000019,1333.300000000745,1669829999615,1333,827.0,HRV,HRV_0084,2022-11-30 17:42:50
44,"[{'imgObject': {}, 'id': 'fruitsalad', 'src': '/static/foodstim60/fruitsalad.jpg', 'key': 'u', 'origWidth': 410, 'origHeight': 410, 'width': 410, 'height': 410, 'widthPercent': 0.45, 'rescaleHeight': False, 'trialN': 44, 'loaded': True, 'loadedTime': 27230.700000000186, 'positionName': 'LEFT', 'positionCoords': [358, 245], 'bid': 3.37}, {'imgObject': {}, 'id': 'avocado', 'src': '/static/foodstim60/avocado.jpg', 'key': 'i', 'origWidth': 409, 'origHeight': 409, 'width': 409, 'height': 409, 'widthPercent': 0.45, 'rescaleHeight': False, 'trialN': 44, 'loaded': True, 'loadedTime': 28466.599999999627, 'positionName': 'RIGHT', 'positionCoords': [832, 245.5], 'bid': 0.8}]",91738.59999999963,1669829999615,fruitsalad,avocado,3.37,0.8,-2.5700000000000003,fruitsalad,u,692.6000000005588,693,True,92940.29999999981,1201.7000000001863,1669830000817,1202,693.0,HRV,HRV_0084,2022-11-30 17:42:50
45,"[{'imgObject': {}, 'id': 'hotdog w must', 'src': '/static/foodstim60/hotdog w must.jpg', 'key': 'u', 'origWidth': 409, 'origHeight': 409, 'width': 409, 'height': 409, 'widthPercent': 0.45, 'rescaleHeight': False, 'trialN': 45, 'loaded': True, 'loadedTime': 27169.89999999944, 'positionName': 'LEFT', 'positionCoords': [359, 245.5], 'bid': 0.75}, {'imgObject': {}, 'id': 'mashed potato', 'src': '/static/foodstim60/mashed potato.jpg', 'key': 'i', 'origWidth': 409, 'origHeight': 409, 'width': 409, 'height': 409, 'widthPercent': 0.45, 'rescaleHeight': False, 'trialN': 45, 'loaded': True, 'loadedTime': 28480.700000000186, 'positionName': 'RIGHT', 'positionCoords': [832, 245.5], 'bid': 1.26}]",92940.59999999963,1669830000817,hotdog w must,mashed potato,0.75,1.26,0.51,mashed potato,i,810.5,811,True,94271.39999999944,1330.7999999998137,1669830002148,1331,810.9000000003725,HRV,HRV_0084,2022-11-30 17:42:50
46,"[{'imgObject': {}, 'id': 'blueberries', 'src': '/static/foodstim60/blueberries.jpg', 'key': 'u', 'origWidth': 411, 'origHeight': 411, 'width': 411, 'height': 411, 'widthPercent': 0.45, 'rescaleHeight': False, 'trialN': 46, 'loaded': True, 'loadedTime': 28428.89999999944, 'positionName': 'LEFT', 'positionCoords': [357, 244.5], 'bid': 6.0600000000000005}, {'imgObject': {}, 'id': 'sweetpotato', 'src': '/static/foodstim60/sweetpotato.jpg', 'key': 'i', 'origWidth': 410, 'origHeight': 410, 'width': 410, 'height': 410, 'widthPercent': 0.45, 'rescaleHeight': False, 'trialN': 46, 'loaded': True, 'loadedTime': 28573.200000000186, 'positionName': 'RIGHT', 'positionCoords': [832, 245], 'bid': 4.01}]",94271.59999999963,1669830002148,blueberries,sweetpotato,6.0600000000000005,4.01,-2.0500000000000007,blueberries,u,815.6000000005588,816,True,95604.39999999944,1332.7999999998137,1669830003481,1333,816.1000000005588,HRV,HRV_0084,2022-11-30 17:42:50
47,"[{'imgObject': {}, 'id': 'kiwi', 'src': '/static/foodstim60/kiwi.jpg', 'key': 'u', 'origWidth': 410, 'origHeight': 410, 'width': 410, 'height': 410, 'widthPercent': 0.45, 'rescaleHeight': False, 'trialN': 47, 'loaded': True, 'loadedTime': 28579.5, 'positionName': 'LEFT', 'positionCoords': [358, 245], 'bid': 2.05}, {'imgObject': {}, 'id': 'eggsalad', 'src': '/static/foodstim60/eggsalad.jpg', 'key': 'i', 'origWidth': 410, 'origHeight': 409, 'width': 410, 'height': 409, 'widthPercent': 0.45, 'rescaleHeight': False, 'trialN': 47, 'loaded': True, 'loadedTime': 27921.200000000186, 'positionName': 'RIGHT', 'positionCoords': [832, 245.5], 'bid': 1.9}]",95604.59999999963,1669830003481,kiwi,eggsalad,2.05,1.9,-0.1499999999999999,kiwi,u,658.6000000005588,660,True,96782.20000000019,1177.6000000005588,1669830004659,1178,659.2000000001863,HRV,HRV_0084,2022-11-30 17:42:50
48,"[{'imgObject': {}, 'id': 'turkey sandwich', 'src': '/static/foodstim60/turkey sandwich.jpg', 'key': 'u', 'origWidth': 409, 'origHeight': 409, 'width': 409, 'height': 409, 'widthPercent': 0.45, 'rescaleHeight': False, 'trialN': 48, 'loaded': True, 'loadedTime': 28280.39999999944, 'positionName': 'LEFT', 'positionCoords': [359, 245.5], 'bid': 3.18}, {'imgObject': {}, 'id': 'kiwi', 'src': '/static/foodstim60/kiwi.jpg', 'key': 'i', 'origWidth': 410, 'origHeight': 410, 'width': 410, 'height': 410, 'widthPercent': 0.45, 'rescaleHeight': False, 'trialN': 48, 'loaded': True, 'loadedTime': 28579.200000000186, 'positionName': 'RIGHT', 'positionCoords': [832, 245], 'bid': 2.05}]",96782.39999999944,1669830004659,turkey sandwich,kiwi,3.18,2.05,-1.1300000000000003,turkey sandwich,u,696.8000000007451,698,True,97997.09999999963,1214.7000000001863,1669830005874,1215,698.0,HRV,HRV_0084,2022-11-30 17:42:50
49,"[{'imgObject': {}, 'id': 'corn cob', 'src': '/static/foodstim60/corn cob.jpg', 'key': 'u', 'origWidth': 411, 'origHeight': 411, 'width': 411, 'height': 411, 'widthPercent': 0.45, 'rescaleHeight': False, 'trialN': 49, 'loaded': True, 'loadedTime': 27490.200000000186, 'positionName': 'LEFT', 'positionCoords': [357, 244.5], 'bid': 1.66}, {'imgObject': {}, 'id': 'burger', 'src': '/static/foodstim60/burger.jpg', 'key': 'i', 'origWidth': 409, 'origHeight': 409, 'width': 409, 'height': 409, 'widthPercent': 0.45, 'rescaleHeight': False, 'trialN': 49, 'loaded': True, 'loadedTime': 27737.700000000186, 'positionName': 'RIGHT', 'positionCoords': [832, 245.5], 'bid': 1.52}]",97997.29999999981,1669830005874,corn cob,burger,1.66,1.52,-0.1399999999999999,burger,i,617.7999999998137,618,True,99127.0,1129.7000000001863,1669830007004,1130,618.2999999998137,HRV,HRV_0084,2022-11-30 17:42:50
50,"[{'imgObject': {}, 'id': 'froot loops w milk', 'src': '/static/foodstim60/froot loops w milk.jpg', 'key': 'u', 'origWidth': 410, 'origHeight': 410, 'width': 410, 'height': 410, 'widthPercent': 0.45, 'rescaleHeight': False, 'trialN': 50, 'loaded': True, 'loadedTime': 28579.799999999814, 'positionName': 'LEFT', 'positionCoords': [358, 245], 'bid': 1.05}, {'imgObject': {}, 'id': 'olives', 'src': '/static/foodstim60/olives.jpg', 'key': 'i', 'origWidth': 410, 'origHeight': 410, 'width': 410, 'height': 410, 'widthPercent': 0.45, 'rescaleHeight': False, 'trialN': 50, 'loaded': True, 'loadedTime': 28404.299999999814, 'positionName': 'RIGHT', 'positionCoords': [832, 245], 'bid': 1.01}]",99127.29999999981,1669830007004,froot loops w milk,olives,1.05,1.01,-0.040000000000000036,froot loops w milk,u,647.7999999998137,648,True,100287.79999999981,1160.5,1669830008164,1160,648.2999999998137,HRV,HRV_0084,2022-11-30 17:42:50
51,"[{'imgObject': {}, 'id': 'bagel and cc', 'src': '/static/foodstim60/bagel and cc.jpg', 'key': 'u', 'origWidth': 410, 'origHeight': 410, 'width': 410, 'height': 410, 'widthPercent': 0.45, 'rescaleHeight': False, 'trialN': 51, 'loaded': True, 'loadedTime': 28783, 'positionName': 'LEFT', 'positionCoords': [358, 245], 'bid': 6.32}, {'imgObject': {}, 'id': 'fried eggs', 'src': '/static/foodstim60/fried eggs.jpg', 'key': 'i', 'origWidth': 410, 'origHeight': 410, 'width': 410, 'height': 410, 'widthPercent': 0.45, 'rescaleHeight': False, 'trialN': 51, 'loaded': True, 'loadedTime': 28131.200000000186, 'positionName': 'RIGHT', 'positionCoords': [832, 245], 'bid': 6.3100000000000005}]",100287.89999999944,1669830008165,bagel and cc,fried eggs,6.32,6.3100000000000005,-0.009999999999999787,fried eggs,i,727.1000000005588,727,True,101537.09999999963,1249.2000000001863,1669830009414,1249,727.6000000005588,HRV,HRV_0084,2022-11-30 17:42:50
52,"[{'imgObject': {}, 'id': 'popsicles', 'src': '/static/foodstim60/popsicles.jpg', 'key': 'u', 'origWidth': 410, 'origHeight': 410, 'width': 410, 'height': 410, 'widthPercent': 0.45, 'rescaleHeight': False, 'trialN': 52, 'loaded': True, 'loadedTime': 29079.799999999814, 'positionName': 'LEFT', 'positionCoords': [358, 245], 'bid': 1.05}, {'imgObject': {}, 'id': 'olives', 'src': '/static/foodstim60/olives.jpg', 'key': 'i', 'origWidth': 410, 'origHeight': 410, 'width': 410, 'height': 410, 'widthPercent': 0.45, 'rescaleHeight': False, 'trialN': 52, 'loaded': True, 'loadedTime': 28425, 'positionName': 'RIGHT', 'positionCoords': [832, 245], 'bid': 1.01}]",101537.39999999944,1669830009414,popsicles,olives,1.05,1.01,-0.040000000000000036,olives,i,773.7000000001863,777,True,102829.20000000019,1291.800000000745,1669830010707,1293,776.6000000005588,HRV,HRV_0084,2022-11-30 17:42:50
53,"[{'imgObject': {}, 'id': 'granola w milk', 'src': '/static/foodstim60/granola w milk.jpg', 'key': 'u', 'origWidth': 410, 'origHeight': 410, 'width': 410, 'height': 410, 'widthPercent': 0.45, 'rescaleHeight': False, 'trialN': 53, 'loaded': True, 'loadedTime': 27992, 'positionName': 'LEFT', 'positionCoords': [358, 245], 'bid': 3.44}, {'imgObject': {}, 'id': 'fruitsalad', 'src': '/static/foodstim60/fruitsalad.jpg', 'key': 'i', 'origWidth': 410, 'origHeight': 410, 'width': 410, 'height': 410, 'widthPercent': 0.45, 'rescaleHeight': False, 'trialN': 53, 'loaded': True, 'loadedTime': 27232.599999999627, 'positionName': 'RIGHT', 'positionCoords': [832, 245], 'bid': 3.37}]",102829.70000000019,1669830010707,granola w milk,fruitsalad,3.44,3.37,-0.06999999999999984,granola w milk,u,697.5,698,True,104038.29999999981,1208.5999999996275,1669830011915,1208,697.8999999994412,HRV,HRV_0084,2022-11-30 17:42:50
54,"[{'imgObject': {}, 'id': 'bagel plain', 'src': '/static/foodstim60/bagel plain.jpg', 'key': 'u', 'origWidth': 410, 'origHeight': 410, 'width': 410, 'height': 410, 'widthPercent': 0.45, 'rescaleHeight': False, 'trialN': 54, 'loaded': True, 'loadedTime': 27040.299999999814, 'positionName': 'LEFT', 'positionCoords': [358, 245], 'bid': 6.47}, {'imgObject': {}, 'id': 'mango', 'src': '/static/foodstim60/mango.jpg', 'key': 'i', 'origWidth': 411, 'origHeight': 411, 'width': 411, 'height': 411, 'widthPercent': 0.45, 'rescaleHeight': False, 'trialN': 54, 'loaded': True, 'loadedTime': 27552.700000000186, 'positionName': 'RIGHT', 'positionCoords': [832, 244.5], 'bid': 1.68}]",104038.5,1669830011916,bagel plain,mango,6.47,1.68,-4.79,bagel plain,u,728.5,729,True,105283.29999999981,1244.7999999998137,1669830013161,1245,729.0,HRV,HRV_0084,2022-11-30 17:42:50
55,"[{'imgObject': {}, 'id': 'veggieswithdip', 'src': '/static/foodstim60/veggieswithdip.jpg', 'key': 'u', 'origWidth': 409, 'origHeight': 409, 'width': 409, 'height': 409, 'widthPercent': 0.45, 'rescaleHeight': False, 'trialN': 55, 'loaded': True, 'loadedTime': 29022.799999999814, 'positionName': 'LEFT', 'positionCoords': [359, 245.5], 'bid': 1.38}, {'imgObject': {}, 'id': 'avocado', 'src': '/static/foodstim60/avocado.jpg', 'key': 'i', 'origWidth': 409, 'origHeight': 409, 'width': 409, 'height': 409, 'widthPercent': 0.45, 'rescaleHeight': False, 'trialN': 55, 'loaded': True, 'loadedTime': 28466.799999999814, 'positionName': 'RIGHT', 'positionCoords': [832, 245.5], 'bid': 0.8}]",105283.39999999944,1669830013161,veggieswithdip,avocado,1.38,0.8,-0.5799999999999998,veggieswithdip,u,763.6000000005588,764,True,106564.09999999963,1280.7000000001863,1669830014441,1280,764.1000000005588,HRV,HRV_0084,2022-11-30 17:42:50
56,"[{'imgObject': {}, 'id': 'edamame', 'src': '/static/foodstim60/edamame.jpg', 'key': 'u', 'origWidth': 409, 'origHeight': 410, 'width': 409, 'height': 410, 'widthPercent': 0.45, 'rescaleHeight': False, 'trialN': 56, 'loaded': True, 'loadedTime': 26813.200000000186, 'positionName': 'LEFT', 'positionCoords': [359, 245], 'bid': 3.0700000000000003}, {'imgObject': {}, 'id': 'bagel and cc', 'src': '/static/foodstim60/bagel and cc.jpg', 'key': 'i', 'origWidth': 410, 'origHeight': 410, 'width': 410, 'height': 410, 'widthPercent': 0.45, 'rescaleHeight': False, 'trialN': 56, 'loaded': True, 'loadedTime': 28782.700000000186, 'positionName': 'RIGHT', 'positionCoords': [832, 245], 'bid': 6.32}]",106565.20000000019,1669830014442,edamame,bagel and cc,3.0700000000000003,6.32,3.25,edamame,u,697.7999999998137,699,True,107771.39999999944,1206.199999999255,1669830015649,1207,698.2999999998137,HRV,HRV_0084,2022-11-30 17:42:50
57,"[{'imgObject': {}, 'id': 'shreddedwheatwithmilk', 'src': '/static/foodstim60/shreddedwheatwithmilk.jpg', 'key': 'u', 'origWidth': 410, 'origHeight': 410, 'width': 410, 'height': 410, 'widthPercent': 0.45, 'rescaleHeight': False, 'trialN': 57, 'loaded': True, 'loadedTime': 28342.39999999944, 'positionName': 'LEFT', 'positionCoords': [358, 245], 'bid': 1.31}, {'imgObject': {}, 'id': 'raisin bran w milk', 'src': '/static/foodstim60/raisin bran w milk.jpg', 'key': 'i', 'origWidth': 411, 'origHeight': 411, 'width': 411, 'height': 411, 'widthPercent': 0.45, 'rescaleHeight': False, 'trialN': 57, 'loaded': True, 'loadedTime': 29077.599999999627, 'positionName': 'RIGHT', 'positionCoords': [832, 244.5], 'bid': 2.47}]",107771.79999999981,1669830015649,shreddedwheatwithmilk,raisin bran w milk,1.31,2.47,1.1600000000000001,raisin bran w milk,i,763.5,764,True,109048.5,1276.7000000001863,1669830016926,1277,763.9000000003725,HRV,HRV_0084,2022-11-30 17:42:50
58,"[{'imgObject': {}, 'id': 'granola w milk', 'src': '/static/foodstim60/granola w milk.jpg', 'key': 'u', 'origWidth': 410, 'origHeight': 410, 'width': 410, 'height': 410, 'widthPercent': 0.45, 'rescaleHeight': False, 'trialN': 58, 'loaded': True, 'loadedTime': 27921.799999999814, 'positionName': 'LEFT', 'positionCoords': [358, 245], 'bid': 3.44}, {'imgObject': {}, 'id': 'eggs', 'src': '/static/foodstim60/eggs.jpg', 'key': 'i', 'origWidth': 409, 'origHeight': 409, 'width': 409, 'height': 409, 'widthPercent': 0.45, 'rescaleHeight': False, 'trialN': 58, 'loaded': True, 'loadedTime': 29379.200000000186, 'positionName': 'RIGHT', 'positionCoords': [832, 245.5], 'bid': 2.13}]",109048.79999999981,1669830016926,granola w milk,eggs,3.44,2.13,-1.31,eggs,i,726.2000000001863,727,True,110287.70000000019,1238.9000000003725,1669830018165,1239,726.7000000001863,HRV,HRV_0084,2022-11-30 17:42:50
59,"[{'imgObject': {}, 'id': 'baked potato', 'src': '/static/foodstim60/baked potato.jpg', 'key': 'u', 'origWidth': 409, 'origHeight': 410, 'width': 409, 'height': 410, 'widthPercent': 0.45, 'rescaleHeight': False, 'trialN': 59, 'loaded': True, 'loadedTime': 27283.200000000186, 'positionName': 'LEFT', 'positionCoords': [359, 245], 'bid': 2.08}, {'imgObject': {}, 'id': 'pear', 'src': '/static/foodstim60/pear.jpg', 'key': 'i', 'origWidth': 411, 'origHeight': 410, 'width': 411, 'height': 410, 'widthPercent': 0.45, 'rescaleHeight': False, 'trialN': 59, 'loaded': True, 'loadedTime': 28276.599999999627, 'positionName': 'RIGHT', 'positionCoords': [832, 245], 'bid': 7.57}]",110287.89999999944,1669830018165,baked potato,pear,2.08,7.57,5.49,baked potato,u,767,768,True,111570.89999999944,1283.0,1669830019448,1283,767.5,HRV,HRV_0084,2022-11-30 17:42:50
60,"[{'imgObject': {}, 'id': 'steak', 'src': '/static/foodstim60/steak.jpg', 'key': 'u', 'origWidth': 410, 'origHeight': 410, 'width': 410, 'height': 410, 'widthPercent': 0.45, 'rescaleHeight': False, 'trialN': 60, 'loaded': True, 'loadedTime': 28293.599999999627, 'positionName': 'LEFT', 'positionCoords': [358, 245], 'bid': 7.51}, {'imgObject': {}, 'id': 'apple slices', 'src': '/static/foodstim60/apple slices.jpg', 'key': 'i', 'origWidth': 409, 'origHeight': 410, 'width': 409, 'height': 410, 'widthPercent': 0.45, 'rescaleHeight': False, 'trialN': 60, 'loaded': True, 'loadedTime': 26487.799999999814, 'positionName': 'RIGHT', 'positionCoords': [832, 245], 'bid': 5.5600000000000005}]",111571.20000000019,1669830019448,steak,apple slices,7.51,5.5600000000000005,-1.9499999999999993,steak,u,651.7999999998137,653,True,112735.79999999981,1164.5999999996275,1669830020613,1165,652.2999999998137,HRV,HRV_0084,2022-11-30 17:42:50
61,"[{'imgObject': {}, 'id': 'eggsalad', 'src': '/static/foodstim60/eggsalad.jpg', 'key': 'u', 'origWidth': 410, 'origHeight': 409, 'width': 410, 'height': 409, 'widthPercent': 0.45, 'rescaleHeight': False, 'trialN': 61, 'loaded': True, 'loadedTime': 27919.700000000186, 'positionName': 'LEFT', 'positionCoords': [358, 245.5], 'bid': 1.9}, {'imgObject': {}, 'id': 'blackbeanswithrice', 'src': '/static/foodstim60/blackbeanswithrice.jpg', 'key': 'i', 'origWidth': 410, 'origHeight': 410, 'width': 410, 'height': 410, 'widthPercent': 0.45, 'rescaleHeight': False, 'trialN': 61, 'loaded': True, 'loadedTime': 29325.89999999944, 'positionName': 'RIGHT', 'positionCoords': [832, 245], 'bid': 1.77}]",112736.39999999944,1669830020614,eggsalad,blackbeanswithrice,1.9,1.77,-0.1299999999999999,eggsalad,u,662.7000000001863,663,True,113921.0,1184.6000000005588,1669830021798,1184,663.3000000007451,HRV,HRV_0084,2022-11-30 17:42:50
62,"[{'imgObject': {}, 'id': 'cherries', 'src': '/static/foodstim60/cherries.jpg', 'key': 'u', 'origWidth': 410, 'origHeight': 411, 'width': 410, 'height': 411, 'widthPercent': 0.45, 'rescaleHeight': False, 'trialN': 62, 'loaded': True, 'loadedTime': 29123.099999999627, 'positionName': 'LEFT', 'positionCoords': [358, 244.5], 'bid': 1.31}, {'imgObject': {}, 'id': 'veggieswithdip', 'src': '/static/foodstim60/veggieswithdip.jpg', 'key': 'i', 'origWidth': 409, 'origHeight': 409, 'width': 409, 'height': 409, 'widthPercent': 0.45, 'rescaleHeight': False, 'trialN': 62, 'loaded': True, 'loadedTime': 28995.39999999944, 'positionName': 'RIGHT', 'positionCoords': [832, 245.5], 'bid': 1.38}]",113921.39999999944,1669830021799,cherries,veggieswithdip,1.31,1.38,0.06999999999999984,cherries,u,741.5,742,True,115173.89999999944,1252.5,1669830023051,1252,742.3000000007451,HRV,HRV_0084,2022-11-30 17:42:50
63,"[{'imgObject': {}, 'id': 'mashed potato', 'src': '/static/foodstim60/mashed potato.jpg', 'key': 'u', 'origWidth': 409, 'origHeight': 409, 'width': 409, 'height': 409, 'widthPercent': 0.45, 'rescaleHeight': False, 'trialN': 63, 'loaded': True, 'loadedTime': 28482.200000000186, 'positionName': 'LEFT', 'positionCoords': [359, 245.5], 'bid': 1.26}, {'imgObject': {}, 'id': 'burrito', 'src': '/static/foodstim60/burrito.jpg', 'key': 'i', 'origWidth': 410, 'origHeight': 410, 'width': 410, 'height': 410, 'widthPercent': 0.45, 'rescaleHeight': False, 'trialN': 63, 'loaded': True, 'loadedTime': 26812.700000000186, 'positionName': 'RIGHT', 'positionCoords': [832, 245], 'bid': 0.87}]",115174.29999999981,1669830023052,mashed potato,burrito,1.26,0.87,-0.39,burrito,i,664.7000000001863,665,True,116354.89999999944,1180.5999999996275,1669830024232,1180,665.2000000001863,HRV,HRV_0084,2022-11-30 17:42:50
64,"[{'imgObject': {}, 'id': 'turkeysandwich', 'src': '/static/foodstim60/turkeysandwich.jpg', 'key': 'u', 'origWidth': 409, 'origHeight': 409, 'width': 409, 'height': 409, 'widthPercent': 0.45, 'rescaleHeight': False, 'trialN': 64, 'loaded': True, 'loadedTime': 27037.39999999944, 'positionName': 'LEFT', 'positionCoords': [359, 245.5], 'bid': 4.0200000000000005}, {'imgObject': {}, 'id': 'popsicles', 'src': '/static/foodstim60/popsicles.jpg', 'key': 'i', 'origWidth': 410, 'origHeight': 410, 'width': 410, 'height': 410, 'widthPercent': 0.45, 'rescaleHeight': False, 'trialN': 64, 'loaded': True, 'loadedTime': 29079.39999999944, 'positionName': 'RIGHT', 'positionCoords': [832, 245], 'bid': 1.05}]",116355.20000000019,1669830024232,turkeysandwich,popsicles,4.0200000000000005,1.05,-2.9700000000000006,turkeysandwich,u,763.6999999992549,765,True,117637.89999999944,1282.699999999255,1669830025515,1283,764.1999999992549,HRV,HRV_0084,2022-11-30 17:42:50
65,"[{'imgObject': {}, 'id': 'grilled chicken strips', 'src': '/static/foodstim60/grilled chicken strips.jpg', 'key': 'u', 'origWidth': 410, 'origHeight': 411, 'width': 410, 'height': 411, 'widthPercent': 0.45, 'rescaleHeight': False, 'trialN': 65, 'loaded': True, 'loadedTime': 27799.5, 'positionName': 'LEFT', 'positionCoords': [358, 244.5], 'bid': 8.6}, {'imgObject': {}, 'id': 'tacos', 'src': '/static/foodstim60/tacos.jpg', 'key': 'i', 'origWidth': 411, 'origHeight': 411, 'width': 411, 'height': 411, 'widthPercent': 0.45, 'rescaleHeight': False, 'trialN': 65, 'loaded': True, 'loadedTime': 29440.799999999814, 'positionName': 'RIGHT', 'positionCoords': [832, 244.5], 'bid': 7.87}]",117638.20000000019,1669830025515,grilled chicken strips,tacos,8.6,7.87,-0.7299999999999995,grilled chicken strips,u,600.8999999994412,602,True,118760.39999999944,1122.199999999255,1669830026638,1123,601.3999999994412,HRV,HRV_0084,2022-11-30 17:42:50
66,"[{'imgObject': {}, 'id': 'Grapes', 'src': '/static/foodstim60/Grapes.jpg', 'key': 'u', 'origWidth': 411, 'origHeight': 411, 'width': 411, 'height': 411, 'widthPercent': 0.45, 'rescaleHeight': False, 'trialN': 66, 'loaded': True, 'loadedTime': 26574.299999999814, 'positionName': 'LEFT', 'positionCoords': [357, 244.5], 'bid': 5.33}, {'imgObject': {}, 'id': 'salmon', 'src': '/static/foodstim60/salmon.jpg', 'key': 'i', 'origWidth': 410, 'origHeight': 409, 'width': 410, 'height': 409, 'widthPercent': 0.45, 'rescaleHeight': False, 'trialN': 66, 'loaded': True, 'loadedTime': 28198.599999999627, 'positionName': 'RIGHT', 'positionCoords': [832, 245.5], 'bid': 7.72}]",118760.70000000019,1669830026638,Grapes,salmon,5.33,7.72,2.3899999999999997,Grapes,u,782.3999999994412,783,True,120054.09999999963,1293.3999999994412,1669830027931,1293,782.8999999994412,HRV,HRV_0084,2022-11-30 17:42:50
67,"[{'imgObject': {}, 'id': 'banana', 'src': '/static/foodstim60/banana.jpg', 'key': 'u', 'origWidth': 410, 'origHeight': 410, 'width': 410, 'height': 410, 'widthPercent': 0.45, 'rescaleHeight': False, 'trialN': 67, 'loaded': True, 'loadedTime': 29442.700000000186, 'positionName': 'LEFT', 'positionCoords': [358, 245], 'bid': 6.45}, {'imgObject': {}, 'id': 'omelette', 'src': '/static/foodstim60/omelette.jpg', 'key': 'i', 'origWidth': 410, 'origHeight': 409, 'width': 410, 'height': 409, 'widthPercent': 0.45, 'rescaleHeight': False, 'trialN': 67, 'loaded': True, 'loadedTime': 28099.89999999944, 'positionName': 'RIGHT', 'positionCoords': [832, 245.5], 'bid': 6.97}]",120054.5,1669830027932,banana,omelette,6.45,6.97,0.5199999999999996,banana,u,680.5999999996275,681,True,121251.5,1197.0,1669830029129,1197,681.0999999996275,HRV,HRV_0084,2022-11-30 17:42:50
68,"[{'imgObject': {}, 'id': 'veggieswithdip', 'src': '/static/foodstim60/veggieswithdip.jpg', 'key': 'u', 'origWidth': 409, 'origHeight': 409, 'width': 409, 'height': 409, 'widthPercent': 0.45, 'rescaleHeight': False, 'trialN': 68, 'loaded': True, 'loadedTime': 29021.299999999814, 'positionName': 'LEFT', 'positionCoords': [359, 245.5], 'bid': 1.38}, {'imgObject': {}, 'id': 'lox', 'src': '/static/foodstim60/lox.jpg', 'key': 'i', 'origWidth': 410, 'origHeight': 411, 'width': 410, 'height': 411, 'widthPercent': 0.45, 'rescaleHeight': False, 'trialN': 68, 'loaded': True, 'loadedTime': 27045.299999999814, 'positionName': 'RIGHT', 'positionCoords': [832, 244.5], 'bid': 2.63}]",121251.79999999981,1669830029129,veggieswithdip,lox,1.38,2.63,1.25,lox,i,779.0999999996275,780,True,122548.39999999944,1296.5999999996275,1669830030426,1297,779.5999999996275,HRV,HRV_0084,2022-11-30 17:42:50
69,"[{'imgObject': {}, 'id': 'banana', 'src': '/static/foodstim60/banana.jpg', 'key': 'u', 'origWidth': 410, 'origHeight': 410, 'width': 410, 'height': 410, 'widthPercent': 0.45, 'rescaleHeight': False, 'trialN': 69, 'loaded': True, 'loadedTime': 29441.299999999814, 'positionName': 'LEFT', 'positionCoords': [358, 245], 'bid': 6.45}, {'imgObject': {}, 'id': 'tacos', 'src': '/static/foodstim60/tacos.jpg', 'key': 'i', 'origWidth': 411, 'origHeight': 411, 'width': 411, 'height': 411, 'widthPercent': 0.45, 'rescaleHeight': False, 'trialN': 69, 'loaded': True, 'loadedTime': 29440.5, 'positionName': 'RIGHT', 'positionCoords': [832, 244.5], 'bid': 7.87}]",122548.70000000019,1669830030426,banana,tacos,6.45,7.87,1.42,tacos,i,866.1999999992549,867,True,123936.39999999944,1387.699999999255,1669830031814,1388,866.6999999992549,HRV,HRV_0084,2022-11-30 17:42:50
70,"[{'imgObject': {}, 'id': 'steak', 'src': '/static/foodstim60/steak.jpg', 'key': 'u', 'origWidth': 410, 'origHeight': 410, 'width': 410, 'height': 410, 'widthPercent': 0.45, 'rescaleHeight': False, 'trialN': 70, 'loaded': True, 'loadedTime': 28294.89999999944, 'positionName': 'LEFT', 'positionCoords': [358, 245], 'bid': 7.51}, {'imgObject': {}, 'id': 'grilled chicken strips', 'src': '/static/foodstim60/grilled chicken strips.jpg', 'key': 'i', 'origWidth': 410, 'origHeight': 411, 'width': 410, 'height': 411, 'widthPercent': 0.45, 'rescaleHeight': False, 'trialN': 70, 'loaded': True, 'loadedTime': 27799.200000000186, 'positionName': 'RIGHT', 'positionCoords': [832, 244.5], 'bid': 8.6}]",123936.70000000019,1669830031814,steak,grilled chicken strips,7.51,8.6,1.0899999999999999,grilled chicken strips,i,886.1999999992549,887,True,125329.89999999944,1393.199999999255,1669830033207,1393,886.6999999992549,HRV,HRV_0084,2022-11-30 17:42:50
71,"[{'imgObject': {}, 'id': 'cantaloupe', 'src': '/static/foodstim60/cantaloupe.jpg', 'key': 'u', 'origWidth': 409, 'origHeight': 409, 'width': 409, 'height': 409, 'widthPercent': 0.45, 'rescaleHeight': False, 'trialN': 71, 'loaded': True, 'loadedTime': 28296.599999999627, 'positionName': 'LEFT', 'positionCoords': [359, 245.5], 'bid': 7.45}, {'imgObject': {}, 'id': 'tacos', 'src': '/static/foodstim60/tacos.jpg', 'key': 'i', 'origWidth': 411, 'origHeight': 411, 'width': 411, 'height': 411, 'widthPercent': 0.45, 'rescaleHeight': False, 'trialN': 71, 'loaded': True, 'loadedTime': 29440.299999999814, 'positionName': 'RIGHT', 'positionCoords': [832, 244.5], 'bid': 7.87}]",125330.20000000019,1669830033207,cantaloupe,tacos,7.45,7.87,0.41999999999999993,tacos,i,764.5999999996275,766,True,126610.89999999944,1280.699999999255,1669830034488,1281,765.0999999996275,HRV,HRV_0084,2022-11-30 17:42:50
72,"[{'imgObject': {}, 'id': 'raspberries', 'src': '/static/foodstim60/raspberries.jpg', 'key': 'u', 'origWidth': 411, 'origHeight': 411, 'width': 411, 'height': 411, 'widthPercent': 0.45, 'rescaleHeight': False, 'trialN': 72, 'loaded': True, 'loadedTime': 28274.599999999627, 'positionName': 'LEFT', 'positionCoords': [357, 244.5], 'bid': 7.71}, {'imgObject': {}, 'id': 'ice cream sundae 002', 'src': '/static/foodstim60/ice cream sundae 002.jpg', 'key': 'i', 'origWidth': 409, 'origHeight': 409, 'width': 409, 'height': 409, 'widthPercent': 0.45, 'rescaleHeight': False, 'trialN': 72, 'loaded': True, 'loadedTime': 28202, 'positionName': 'RIGHT', 'positionCoords': [832, 245.5], 'bid': 4.05}]",126611.20000000019,1669830034489,raspberries,ice cream sundae 002,7.71,4.05,-3.66,raspberries,u,699.5999999996275,704,True,127822.5,1211.2999999998137,1669830035700,1211,704.0999999996275,HRV,HRV_0084,2022-11-30 17:42:50
73,"[{'imgObject': {}, 'id': 'steak', 'src': '/static/foodstim60/steak.jpg', 'key': 'u', 'origWidth': 410, 'origHeight': 410, 'width': 410, 'height': 410, 'widthPercent': 0.45, 'rescaleHeight': False, 'trialN': 73, 'loaded': True, 'loadedTime': 28293.799999999814, 'positionName': 'LEFT', 'positionCoords': [358, 245], 'bid': 7.51}, {'imgObject': {}, 'id': 'sweetpotato', 'src': '/static/foodstim60/sweetpotato.jpg', 'key': 'i', 'origWidth': 410, 'origHeight': 410, 'width': 410, 'height': 410, 'widthPercent': 0.45, 'rescaleHeight': False, 'trialN': 73, 'loaded': True, 'loadedTime': 28573.5, 'positionName': 'RIGHT', 'positionCoords': [832, 245], 'bid': 4.01}]",127822.70000000019,1669830035700,steak,sweetpotato,7.51,4.01,-3.5,steak,u,688.0999999996275,689,True,129032.20000000019,1209.5,1669830036909,1209,688.6999999992549,HRV,HRV_0084,2022-11-30 17:42:50
74,"[{'imgObject': {}, 'id': 'eggs', 'src': '/static/foodstim60/eggs.jpg', 'key': 'u', 'origWidth': 409, 'origHeight': 409, 'width': 409, 'height': 409, 'widthPercent': 0.45, 'rescaleHeight': False, 'trialN': 74, 'loaded': True, 'loadedTime': 29377.700000000186, 'positionName': 'LEFT', 'positionCoords': [359, 245.5], 'bid': 2.13}, {'imgObject': {}, 'id': 'froot loops w milk', 'src': '/static/foodstim60/froot loops w milk.jpg', 'key': 'i', 'origWidth': 410, 'origHeight': 410, 'width': 410, 'height': 410, 'widthPercent': 0.45, 'rescaleHeight': False, 'trialN': 74, 'loaded': True, 'loadedTime': 28582.5, 'positionName': 'RIGHT', 'positionCoords': [832, 245], 'bid': 1.05}]",129032.5,1669830036910,eggs,froot loops w milk,2.13,1.05,-1.0799999999999998,eggs,u,630.3999999994412,631,True,130171.09999999963,1138.5999999996275,1669830038048,1138,630.8999999994412,HRV,HRV_0084,2022-11-30 17:42:50
75,"[{'imgObject': {}, 'id': 'chickenfingers', 'src': '/static/foodstim60/chickenfingers.jpg', 'key': 'u', 'origWidth': 410, 'origHeight': 410, 'width': 410, 'height': 410, 'widthPercent': 0.45, 'rescaleHeight': False, 'trialN': 75, 'loaded': True, 'loadedTime': 26916.200000000186, 'positionName': 'LEFT', 'positionCoords': [358, 245], 'bid': 7.12}, {'imgObject': {}, 'id': 'Grapes', 'src': '/static/foodstim60/Grapes.jpg', 'key': 'i', 'origWidth': 411, 'origHeight': 411, 'width': 411, 'height': 411, 'widthPercent': 0.45, 'rescaleHeight': False, 'trialN': 75, 'loaded': True, 'loadedTime': 26573, 'positionName': 'RIGHT', 'positionCoords': [832, 244.5], 'bid': 5.33}]",130171.5,1669830038049,chickenfingers,Grapes,7.12,5.33,-1.79,chickenfingers,u,539.2000000001863,539,True,131220.09999999963,1048.5999999996275,1669830039097,1048,539.7000000001863,HRV,HRV_0084,2022-11-30 17:42:50
76,"[{'imgObject': {}, 'id': 'shreddedwheatwithmilk', 'src': '/static/foodstim60/shreddedwheatwithmilk.jpg', 'key': 'u', 'origWidth': 410, 'origHeight': 410, 'width': 410, 'height': 410, 'widthPercent': 0.45, 'rescaleHeight': False, 'trialN': 76, 'loaded': True, 'loadedTime': 28341.39999999944, 'positionName': 'LEFT', 'positionCoords': [358, 245], 'bid': 1.31}, {'imgObject': {}, 'id': 'seaweed', 'src': '/static/foodstim60/seaweed.jpg', 'key': 'i', 'origWidth': 410, 'origHeight': 410, 'width': 410, 'height': 410, 'widthPercent': 0.45, 'rescaleHeight': False, 'trialN': 76, 'loaded': True, 'loadedTime': 27622.099999999627, 'positionName': 'RIGHT', 'positionCoords': [832, 245], 'bid': 0.76}]",131220.2000000002,1669830039098,shreddedwheatwithmilk,seaweed,1.31,0.76,-0.55,seaweed,i,690.5999999996275,691,True,132421.0,1200.7999999998137,1669830040298,1200,691.0999999996275,HRV,HRV_0084,2022-11-30 17:42:50
77,"[{'imgObject': {}, 'id': 'raspberries', 'src': '/static/foodstim60/raspberries.jpg', 'key': 'u', 'origWidth': 411, 'origHeight': 411, 'width': 411, 'height': 411, 'widthPercent': 0.45, 'rescaleHeight': False, 'trialN': 77, 'loaded': True, 'loadedTime': 28271.299999999814, 'positionName': 'LEFT', 'positionCoords': [357, 244.5], 'bid': 7.71}, {'imgObject': {}, 'id': 'pear', 'src': '/static/foodstim60/pear.jpg', 'key': 'i', 'origWidth': 411, 'origHeight': 410, 'width': 411, 'height': 410, 'widthPercent': 0.45, 'rescaleHeight': False, 'trialN': 77, 'loaded': True, 'loadedTime': 28276.799999999814, 'positionName': 'RIGHT', 'positionCoords': [832, 245], 'bid': 7.57}]",132421.2999999998,1669830040299,raspberries,pear,7.71,7.57,-0.13999999999999968,raspberries,u,577.4000000003725,578,True,133520.39999999944,1099.0999999996275,1669830041398,1099,578.0,HRV,HRV_0084,2022-11-30 17:42:50
78,"[{'imgObject': {}, 'id': 'kiwi', 'src': '/static/foodstim60/kiwi.jpg', 'key': 'u', 'origWidth': 410, 'origHeight': 410, 'width': 410, 'height': 410, 'widthPercent': 0.45, 'rescaleHeight': False, 'trialN': 78, 'loaded': True, 'loadedTime': 28579.700000000186, 'positionName': 'LEFT', 'positionCoords': [358, 245], 'bid': 2.05}, {'imgObject': {}, 'id': 'steak', 'src': '/static/foodstim60/steak.jpg', 'key': 'i', 'origWidth': 410, 'origHeight': 410, 'width': 410, 'height': 410, 'widthPercent': 0.45, 'rescaleHeight': False, 'trialN': 78, 'loaded': True, 'loadedTime': 28294.5, 'positionName': 'RIGHT', 'positionCoords': [832, 245], 'bid': 7.51}]",133520.7000000002,1669830041398,kiwi,steak,2.05,7.51,5.46,steak,i,742.0999999996275,743,True,134783.59999999963,1262.8999999994412,1669830042661,1263,742.7999999998137,HRV,HRV_0084,2022-11-30 17:42:50
79,"[{'imgObject': {}, 'id': 'hashbrowns', 'src': '/static/foodstim60/hashbrowns.jpg', 'key': 'u', 'origWidth': 411, 'origHeight': 410, 'width': 411, 'height': 410, 'widthPercent': 0.45, 'rescaleHeight': False, 'trialN': 79, 'loaded': True, 'loadedTime': 28197.200000000186, 'positionName': 'LEFT', 'positionCoords': [357, 245], 'bid': 3.68}, {'imgObject': {}, 'id': 'chicken nuggets2', 'src': '/static/foodstim60/chicken nuggets2.jpg', 'key': 'i', 'origWidth': 410, 'origHeight': 409, 'width': 410, 'height': 409, 'widthPercent': 0.45, 'rescaleHeight': False, 'trialN': 79, 'loaded': True, 'loadedTime': 28058.89999999944, 'positionName': 'RIGHT', 'positionCoords': [832, 245.5], 'bid': 3.6}]",134783.7999999998,1669830042661,hashbrowns,chicken nuggets2,3.68,3.6,-0.08000000000000007,hashbrowns,u,831.0999999996275,832,True,136137.7000000002,1353.9000000003725,1669830044015,1354,831.5999999996275,HRV,HRV_0084,2022-11-30 17:42:50
80,"[{'imgObject': {}, 'id': 'eggsalad', 'src': '/static/foodstim60/eggsalad.jpg', 'key': 'u', 'origWidth': 410, 'origHeight': 409, 'width': 410, 'height': 409, 'widthPercent': 0.45, 'rescaleHeight': False, 'trialN': 80, 'loaded': True, 'loadedTime': 27921.39999999944, 'positionName': 'LEFT', 'positionCoords': [358, 245.5], 'bid': 1.9}, {'imgObject': {}, 'id': 'cherry tomato', 'src': '/static/foodstim60/cherry tomato.jpg', 'key': 'i', 'origWidth': 410, 'origHeight': 410, 'width': 410, 'height': 410, 'widthPercent': 0.45, 'rescaleHeight': False, 'trialN': 80, 'loaded': True, 'loadedTime': 28479.099999999627, 'positionName': 'RIGHT', 'positionCoords': [832, 245], 'bid': 1.47}]",136137.7999999998,1669830044015,eggsalad,cherry tomato,1.9,1.47,-0.42999999999999994,eggsalad,u,749,750,True,137408.2000000002,1270.4000000003725,1669830045285,1270,749.5,HRV,HRV_0084,2022-11-30 17:42:50
81,"[{'imgObject': {}, 'id': 'orange slices', 'src': '/static/foodstim60/orange slices.jpg', 'key': 'u', 'origWidth': 409, 'origHeight': 410, 'width': 409, 'height': 410, 'widthPercent': 0.45, 'rescaleHeight': False, 'trialN': 81, 'loaded': True, 'loadedTime': 28432.89999999944, 'positionName': 'LEFT', 'positionCoords': [359, 245], 'bid': 0.33}, {'imgObject': {}, 'id': 'luckycharms', 'src': '/static/foodstim60/luckycharms.jpg', 'key': 'i', 'origWidth': 410, 'origHeight': 409, 'width': 410, 'height': 409, 'widthPercent': 0.45, 'rescaleHeight': False, 'trialN': 81, 'loaded': True, 'loadedTime': 26695.099999999627, 'positionName': 'RIGHT', 'positionCoords': [832, 245.5], 'bid': 0.76}]",137408.5,1669830045286,orange slices,luckycharms,0.33,0.76,0.43,luckycharms,i,726.2999999998137,727,True,138647.2999999998,1238.7999999998137,1669830046525,1239,726.7999999998137,HRV,HRV_0084,2022-11-30 17:42:50
82,"[{'imgObject': {}, 'id': 'strawberries', 'src': '/static/foodstim60/strawberries.jpg', 'key': 'u', 'origWidth': 410, 'origHeight': 410, 'width': 410, 'height': 410, 'widthPercent': 0.45, 'rescaleHeight': False, 'trialN': 82, 'loaded': True, 'loadedTime': 28270, 'positionName': 'LEFT', 'positionCoords': [358, 245], 'bid': 6.07}, {'imgObject': {}, 'id': 'blueberries', 'src': '/static/foodstim60/blueberries.jpg', 'key': 'i', 'origWidth': 411, 'origHeight': 411, 'width': 411, 'height': 411, 'widthPercent': 0.45, 'rescaleHeight': False, 'trialN': 82, 'loaded': True, 'loadedTime': 28429.299999999814, 'positionName': 'RIGHT', 'positionCoords': [832, 244.5], 'bid': 6.0600000000000005}]",138647.7000000002,1669830046525,strawberries,blueberries,6.07,6.0600000000000005,-0.009999999999999787,blueberries,i,799,799,True,139954.5,1306.7999999998137,1669830047832,1307,799.5,HRV,HRV_0084,2022-11-30 17:42:50
83,"[{'imgObject': {}, 'id': 'chickenfingers', 'src': '/static/foodstim60/chickenfingers.jpg', 'key': 'u', 'origWidth': 410, 'origHeight': 410, 'width': 410, 'height': 410, 'widthPercent': 0.45, 'rescaleHeight': False, 'trialN': 83, 'loaded': True, 'loadedTime': 26916.39999999944, 'positionName': 'LEFT', 'positionCoords': [358, 245], 'bid': 7.12}, {'imgObject': {}, 'id': 'omelette', 'src': '/static/foodstim60/omelette.jpg', 'key': 'i', 'origWidth': 410, 'origHeight': 409, 'width': 410, 'height': 409, 'widthPercent': 0.45, 'rescaleHeight': False, 'trialN': 83, 'loaded': True, 'loadedTime': 28099, 'positionName': 'RIGHT', 'positionCoords': [832, 245.5], 'bid': 6.97}]",139954.89999999944,1669830047832,chickenfingers,omelette,7.12,6.97,-0.15000000000000036,chickenfingers,u,628,629,True,141095.5,1140.6000000005588,1669830048973,1141,628.9000000003725,HRV,HRV_0084,2022-11-30 17:42:50
84,"[{'imgObject': {}, 'id': 'cherries', 'src': '/static/foodstim60/cherries.jpg', 'key': 'u', 'origWidth': 410, 'origHeight': 411, 'width': 410, 'height': 411, 'widthPercent': 0.45, 'rescaleHeight': False, 'trialN': 84, 'loaded': True, 'loadedTime': 29126.099999999627, 'positionName': 'LEFT', 'positionCoords': [358, 244.5], 'bid': 1.31}, {'imgObject': {}, 'id': 'mac & cheese', 'src': '/static/foodstim60/mac & cheese.jpg', 'key': 'i', 'origWidth': 410, 'origHeight': 410, 'width': 410, 'height': 410, 'widthPercent': 0.45, 'rescaleHeight': False, 'trialN': 84, 'loaded': True, 'loadedTime': 26972.299999999814, 'positionName': 'RIGHT', 'positionCoords': [832, 245], 'bid': 2.43}]",141095.7999999998,1669830048973,cherries,mac & cheese,1.31,2.43,1.12,cherries,u,799,800,True,142404.39999999944,1308.5999999996275,1669830050282,1309,799.5,HRV,HRV_0084,2022-11-30 17:42:50
85,"[{'imgObject': {}, 'id': 'raisin bran w milk', 'src': '/static/foodstim60/raisin bran w milk.jpg', 'key': 'u', 'origWidth': 411, 'origHeight': 411, 'width': 411, 'height': 411, 'widthPercent': 0.45, 'rescaleHeight': False, 'trialN': 85, 'loaded': True, 'loadedTime': 29076.89999999944, 'positionName': 'LEFT', 'positionCoords': [357, 244.5], 'bid': 2.47}, {'imgObject': {}, 'id': 'fruitsalad', 'src': '/static/foodstim60/fruitsalad.jpg', 'key': 'i', 'origWidth': 410, 'origHeight': 410, 'width': 410, 'height': 410, 'widthPercent': 0.45, 'rescaleHeight': False, 'trialN': 85, 'loaded': True, 'loadedTime': 27232.099999999627, 'positionName': 'RIGHT', 'positionCoords': [832, 245], 'bid': 3.37}]",142404.59999999963,1669830050282,raisin bran w milk,fruitsalad,2.47,3.37,0.8999999999999999,raisin bran w milk,u,961.9000000003725,964,True,143888.0,1483.4000000003725,1669830051765,1483,964.2999999998137,HRV,HRV_0084,2022-11-30 17:42:50
86,"[{'imgObject': {}, 'id': 'eggs', 'src': '/static/foodstim60/eggs.jpg', 'key': 'u', 'origWidth': 409, 'origHeight': 409, 'width': 409, 'height': 409, 'widthPercent': 0.45, 'rescaleHeight': False, 'trialN': 86, 'loaded': True, 'loadedTime': 29379.5, 'positionName': 'LEFT', 'positionCoords': [359, 245.5], 'bid': 2.13}, {'imgObject': {}, 'id': 'rigatoni', 'src': '/static/foodstim60/rigatoni.jpg', 'key': 'i', 'origWidth': 411, 'origHeight': 411, 'width': 411, 'height': 411, 'widthPercent': 0.45, 'rescaleHeight': False, 'trialN': 86, 'loaded': True, 'loadedTime': 27551.299999999814, 'positionName': 'RIGHT', 'positionCoords': [832, 244.5], 'bid': 2.75}]",143888.39999999944,1669830051766,eggs,rigatoni,2.13,2.75,0.6200000000000001,eggs,u,622.2000000001863,624,True,145043.09999999963,1154.7000000001863,1669830052920,1154,624.5,HRV,HRV_0084,2022-11-30 17:42:50
87,"[{'imgObject': {}, 'id': 'mango', 'src': '/static/foodstim60/mango.jpg', 'key': 'u', 'origWidth': 411, 'origHeight': 411, 'width': 411, 'height': 411, 'widthPercent': 0.45, 'rescaleHeight': False, 'trialN': 87, 'loaded': True, 'loadedTime': 27614.799999999814, 'positionName': 'LEFT', 'positionCoords': [357, 244.5], 'bid': 1.68}, {'imgObject': {}, 'id': 'popsicles', 'src': '/static/foodstim60/popsicles.jpg', 'key': 'i', 'origWidth': 410, 'origHeight': 410, 'width': 410, 'height': 410, 'widthPercent': 0.45, 'rescaleHeight': False, 'trialN': 87, 'loaded': True, 'loadedTime': 29078.200000000186, 'positionName': 'RIGHT', 'positionCoords': [832, 245], 'bid': 1.05}]",145043.2999999998,1669830052921,mango,popsicles,1.68,1.05,-0.6299999999999999,mango,u,907.5,908,True,146485.7999999998,1442.5,1669830054363,1442,907.9000000003725,HRV,HRV_0084,2022-11-30 17:42:50
88,"[{'imgObject': {}, 'id': 'mashed potato', 'src': '/static/foodstim60/mashed potato.jpg', 'key': 'u', 'origWidth': 409, 'origHeight': 409, 'width': 409, 'height': 409, 'widthPercent': 0.45, 'rescaleHeight': False, 'trialN': 88, 'loaded': True, 'loadedTime': 28482, 'positionName': 'LEFT', 'positionCoords': [359, 245.5], 'bid': 1.26}, {'imgObject': {}, 'id': 'rigatoni and sauce', 'src': '/static/foodstim60/rigatoni and sauce.jpg', 'key': 'i', 'origWidth': 410, 'origHeight': 411, 'width': 410, 'height': 411, 'widthPercent': 0.45, 'rescaleHeight': False, 'trialN': 88, 'loaded': True, 'loadedTime': 27050.700000000186, 'positionName': 'RIGHT', 'positionCoords': [832, 244.5], 'bid': 2.31}]",146486.0,1669830054363,mashed potato,rigatoni and sauce,1.26,2.31,1.05,rigatoni and sauce,i,656.7000000001863,657,True,147653.59999999963,1167.5999999996275,1669830055531,1168,657.0999999996275,HRV,HRV_0084,2022-11-30 17:42:50
89,"[{'imgObject': {}, 'id': 'cheerios', 'src': '/static/foodstim60/cheerios.jpg', 'key': 'u', 'origWidth': 409, 'origHeight': 410, 'width': 409, 'height': 410, 'widthPercent': 0.45, 'rescaleHeight': False, 'trialN': 89, 'loaded': True, 'loadedTime': 29573.39999999944, 'positionName': 'LEFT', 'positionCoords': [359, 245], 'bid': 2.01}, {'imgObject': {}, 'id': 'kiwi', 'src': '/static/foodstim60/kiwi.jpg', 'key': 'i', 'origWidth': 410, 'origHeight': 410, 'width': 410, 'height': 410, 'widthPercent': 0.45, 'rescaleHeight': False, 'trialN': 89, 'loaded': True, 'loadedTime': 28576.39999999944, 'positionName': 'RIGHT', 'positionCoords': [832, 245], 'bid': 2.05}]",147653.89999999944,1669830055531,cheerios,kiwi,2.01,2.05,0.040000000000000036,cheerios,u,656.8000000007451,657,True,148828.7000000002,1174.800000000745,1669830056706,1175,657.2000000001863,HRV,HRV_0084,2022-11-30 17:42:50
90,"[{'imgObject': {}, 'id': 'yogurt no spoon', 'src': '/static/foodstim60/yogurt no spoon.jpg', 'key': 'u', 'origWidth': 411, 'origHeight': 410, 'width': 411, 'height': 410, 'widthPercent': 0.45, 'rescaleHeight': False, 'trialN': 90, 'loaded': True, 'loadedTime': 27685.299999999814, 'positionName': 'LEFT', 'positionCoords': [357, 245], 'bid': 1}, {'imgObject': {}, 'id': 'orange slices', 'src': '/static/foodstim60/orange slices.jpg', 'key': 'i', 'origWidth': 409, 'origHeight': 410, 'width': 409, 'height': 410, 'widthPercent': 0.45, 'rescaleHeight': False, 'trialN': 90, 'loaded': True, 'loadedTime': 28429.599999999627, 'positionName': 'RIGHT', 'positionCoords': [832, 245], 'bid': 0.33}]",153072.89999999944,1669830060950,yogurt no spoon,orange slices,1.0,0.33,-0.6699999999999999,yogurt no spoon,u,1653.6000000005588,1655,True,155235.2000000002,2162.300000000745,1669830063113,2163,1654.300000000745,HRV,HRV_0084,2022-11-30 17:42:50
91,"[{'imgObject': {}, 'id': 'olives', 'src': '/static/foodstim60/olives.jpg', 'key': 'u', 'origWidth': 410, 'origHeight': 410, 'width': 410, 'height': 410, 'widthPercent': 0.45, 'rescaleHeight': False, 'trialN': 91, 'loaded': True, 'loadedTime': 28402.799999999814, 'positionName': 'LEFT', 'positionCoords': [358, 245], 'bid': 1.01}, {'imgObject': {}, 'id': 'kiwi', 'src': '/static/foodstim60/kiwi.jpg', 'key': 'i', 'origWidth': 410, 'origHeight': 410, 'width': 410, 'height': 410, 'widthPercent': 0.45, 'rescaleHeight': False, 'trialN': 91, 'loaded': True, 'loadedTime': 28579.39999999944, 'positionName': 'RIGHT', 'positionCoords': [832, 245], 'bid': 2.05}]",155235.59999999963,1669830063113,olives,kiwi,1.01,2.05,1.0399999999999998,kiwi,i,882.9000000003725,885,True,156641.2000000002,1405.6000000005588,1669830064518,1405,885.1000000005588,HRV,HRV_0084,2022-11-30 17:42:50
92,"[{'imgObject': {}, 'id': 'orange slices', 'src': '/static/foodstim60/orange slices.jpg', 'key': 'u', 'origWidth': 409, 'origHeight': 410, 'width': 409, 'height': 410, 'widthPercent': 0.45, 'rescaleHeight': False, 'trialN': 92, 'loaded': True, 'loadedTime': 28432.099999999627, 'positionName': 'LEFT', 'positionCoords': [359, 245], 'bid': 0.33}, {'imgObject': {}, 'id': 'froot loops w milk', 'src': '/static/foodstim60/froot loops w milk.jpg', 'key': 'i', 'origWidth': 410, 'origHeight': 410, 'width': 410, 'height': 410, 'widthPercent': 0.45, 'rescaleHeight': False, 'trialN': 92, 'loaded': True, 'loadedTime': 28582.599999999627, 'positionName': 'RIGHT', 'positionCoords': [832, 245], 'bid': 1.05}]",156641.5,1669830064519,orange slices,froot loops w milk,0.33,1.05,0.72,froot loops w milk,i,749,750,True,157903.59999999963,1262.0999999996275,1669830065781,1262,749.7000000001863,HRV,HRV_0084,2022-11-30 17:42:50
93,"[{'imgObject': {}, 'id': 'luckycharms', 'src': '/static/foodstim60/luckycharms.jpg', 'key': 'u', 'origWidth': 410, 'origHeight': 409, 'width': 410, 'height': 409, 'widthPercent': 0.45, 'rescaleHeight': False, 'trialN': 93, 'loaded': True, 'loadedTime': 26630, 'positionName': 'LEFT', 'positionCoords': [358, 245.5], 'bid': 0.76}, {'imgObject': {}, 'id': 'seaweed', 'src': '/static/foodstim60/seaweed.jpg', 'key': 'i', 'origWidth': 410, 'origHeight': 410, 'width': 410, 'height': 410, 'widthPercent': 0.45, 'rescaleHeight': False, 'trialN': 93, 'loaded': True, 'loadedTime': 27618.39999999944, 'positionName': 'RIGHT', 'positionCoords': [832, 245], 'bid': 0.76}]",157903.89999999944,1669830065781,luckycharms,seaweed,0.76,0.76,0.0,luckycharms,u,822.6000000005588,823,True,159236.5,1332.6000000005588,1669830067114,1333,823.3000000007451,HRV,HRV_0084,2022-11-30 17:42:50
94,"[{'imgObject': {}, 'id': 'bagel and cc', 'src': '/static/foodstim60/bagel and cc.jpg', 'key': 'u', 'origWidth': 410, 'origHeight': 410, 'width': 410, 'height': 410, 'widthPercent': 0.45, 'rescaleHeight': False, 'trialN': 94, 'loaded': True, 'loadedTime': 28782.39999999944, 'positionName': 'LEFT', 'positionCoords': [358, 245], 'bid': 6.32}, {'imgObject': {}, 'id': 'cocktailshrimp', 'src': '/static/foodstim60/cocktailshrimp.jpg', 'key': 'i', 'origWidth': 410, 'origHeight': 410, 'width': 410, 'height': 410, 'widthPercent': 0.45, 'rescaleHeight': False, 'trialN': 94, 'loaded': True, 'loadedTime': 28093.39999999944, 'positionName': 'RIGHT', 'positionCoords': [832, 245], 'bid': 7.85}]",159236.7000000002,1669830067114,bagel and cc,cocktailshrimp,6.32,7.85,1.5299999999999994,cocktailshrimp,i,713.7999999998137,714,True,160470.5,1233.7999999998137,1669830068348,1234,714.2999999998137,HRV,HRV_0084,2022-11-30 17:42:50
95,"[{'imgObject': {}, 'id': 'mac & cheese', 'src': '/static/foodstim60/mac & cheese.jpg', 'key': 'u', 'origWidth': 410, 'origHeight': 410, 'width': 410, 'height': 410, 'widthPercent': 0.45, 'rescaleHeight': False, 'trialN': 95, 'loaded': True, 'loadedTime': 26970.700000000186, 'positionName': 'LEFT', 'positionCoords': [358, 245], 'bid': 2.43}, {'imgObject': {}, 'id': 'eggs', 'src': '/static/foodstim60/eggs.jpg', 'key': 'i', 'origWidth': 409, 'origHeight': 409, 'width': 409, 'height': 409, 'widthPercent': 0.45, 'rescaleHeight': False, 'trialN': 95, 'loaded': True, 'loadedTime': 29379.099999999627, 'positionName': 'RIGHT', 'positionCoords': [832, 245.5], 'bid': 2.13}]",160470.59999999963,1669830068348,mac & cheese,eggs,2.43,2.13,-0.30000000000000027,eggs,i,824,824,True,161803.7000000002,1333.1000000005588,1669830069681,1333,824.6000000005588,HRV,HRV_0084,2022-11-30 17:42:50
96,"[{'imgObject': {}, 'id': 'blackbeanswithrice', 'src': '/static/foodstim60/blackbeanswithrice.jpg', 'key': 'u', 'origWidth': 410, 'origHeight': 410, 'width': 410, 'height': 410, 'widthPercent': 0.45, 'rescaleHeight': False, 'trialN': 96, 'loaded': True, 'loadedTime': 29326, 'positionName': 'LEFT', 'positionCoords': [358, 245], 'bid': 1.77}, {'imgObject': {}, 'id': 'burrito', 'src': '/static/foodstim60/burrito.jpg', 'key': 'i', 'origWidth': 410, 'origHeight': 410, 'width': 410, 'height': 410, 'widthPercent': 0.45, 'rescaleHeight': False, 'trialN': 96, 'loaded': True, 'loadedTime': 26760.39999999944, 'positionName': 'RIGHT', 'positionCoords': [832, 245], 'bid': 0.87}]",161804.09999999963,1669830069681,blackbeanswithrice,burrito,1.77,0.87,-0.9,blackbeanswithrice,u,674.2999999998137,675,True,162988.2999999998,1184.2000000001863,1669830070865,1184,675.1000000005588,HRV,HRV_0084,2022-11-30 17:42:50
97,"[{'imgObject': {}, 'id': 'grilled chicken strips', 'src': '/static/foodstim60/grilled chicken strips.jpg', 'key': 'u', 'origWidth': 410, 'origHeight': 411, 'width': 410, 'height': 411, 'widthPercent': 0.45, 'rescaleHeight': False, 'trialN': 97, 'loaded': True, 'loadedTime': 27859.200000000186, 'positionName': 'LEFT', 'positionCoords': [358, 244.5], 'bid': 8.6}, {'imgObject': {}, 'id': 'blueberries', 'src': '/static/foodstim60/blueberries.jpg', 'key': 'i', 'origWidth': 411, 'origHeight': 411, 'width': 411, 'height': 411, 'widthPercent': 0.45, 'rescaleHeight': False, 'trialN': 97, 'loaded': True, 'loadedTime': 28429.39999999944, 'positionName': 'RIGHT', 'positionCoords': [832, 244.5], 'bid': 6.0600000000000005}]",162988.5,1669830070865,grilled chicken strips,blueberries,8.6,6.0600000000000005,-2.539999999999999,grilled chicken strips,u,586.2000000001863,587,True,164087.2000000002,1098.7000000001863,1669830071964,1099,586.7000000001863,HRV,HRV_0084,2022-11-30 17:42:50
98,"[{'imgObject': {}, 'id': 'cherries', 'src': '/static/foodstim60/cherries.jpg', 'key': 'u', 'origWidth': 410, 'origHeight': 411, 'width': 410, 'height': 411, 'widthPercent': 0.45, 'rescaleHeight': False, 'trialN': 98, 'loaded': True, 'loadedTime': 29125.39999999944, 'positionName': 'LEFT', 'positionCoords': [358, 244.5], 'bid': 1.31}, {'imgObject': {}, 'id': 'roastedpotatoes', 'src': '/static/foodstim60/roastedpotatoes.jpg', 'key': 'i', 'origWidth': 409, 'origHeight': 410, 'width': 409, 'height': 410, 'widthPercent': 0.45, 'rescaleHeight': False, 'trialN': 98, 'loaded': True, 'loadedTime': 28096.599999999627, 'positionName': 'RIGHT', 'positionCoords': [832, 245], 'bid': 5.3500000000000005}]",164087.5,1669830071965,cherries,roastedpotatoes,1.31,5.3500000000000005,4.040000000000001,roastedpotatoes,i,799.0999999996275,799,True,165407.59999999963,1320.0999999996275,1669830073285,1320,799.5999999996275,HRV,HRV_0084,2022-11-30 17:42:50
99,"[{'imgObject': {}, 'id': 'blueberries', 'src': '/static/foodstim60/blueberries.jpg', 'key': 'u', 'origWidth': 411, 'origHeight': 411, 'width': 411, 'height': 411, 'widthPercent': 0.45, 'rescaleHeight': False, 'trialN': 99, 'loaded': True, 'loadedTime': 28427.099999999627, 'positionName': 'LEFT', 'positionCoords': [357, 244.5], 'bid': 6.0600000000000005}, {'imgObject': {}, 'id': 'pear', 'src': '/static/foodstim60/pear.jpg', 'key': 'i', 'origWidth': 411, 'origHeight': 410, 'width': 411, 'height': 410, 'widthPercent': 0.45, 'rescaleHeight': False, 'trialN': 99, 'loaded': True, 'loadedTime': 28274.89999999944, 'positionName': 'RIGHT', 'positionCoords': [832, 245], 'bid': 7.57}]",165407.89999999944,1669830073285,blueberries,pear,6.0600000000000005,7.57,1.5099999999999998,blueberries,u,550.5,551,True,166471.89999999944,1064.0,1669830074349,1064,551.3000000007451,HRV,HRV_0084,2022-11-30 17:42:50
100,"[{'imgObject': {}, 'id': 'burrito', 'src': '/static/foodstim60/burrito.jpg', 'key': 'u', 'origWidth': 410, 'origHeight': 410, 'width': 410, 'height': 410, 'widthPercent': 0.45, 'rescaleHeight': False, 'trialN': 100, 'loaded': True, 'loadedTime': 26762.39999999944, 'positionName': 'LEFT', 'positionCoords': [358, 245], 'bid': 0.87}, {'imgObject': {}, 'id': 'avocado', 'src': '/static/foodstim60/avocado.jpg', 'key': 'i', 'origWidth': 409, 'origHeight': 409, 'width': 409, 'height': 409, 'widthPercent': 0.45, 'rescaleHeight': False, 'trialN': 100, 'loaded': True, 'loadedTime': 28466.5, 'positionName': 'RIGHT', 'positionCoords': [832, 245.5], 'bid': 0.8}]",166472.09999999963,1669830074349,burrito,avocado,0.87,0.8,-0.06999999999999995,avocado,i,638.5,639,True,167620.2999999998,1148.2000000001863,1669830075497,1148,639.0,HRV,HRV_0084,2022-11-30 17:42:50
101,"[{'imgObject': {}, 'id': 'baked potato', 'src': '/static/foodstim60/baked potato.jpg', 'key': 'u', 'origWidth': 409, 'origHeight': 410, 'width': 409, 'height': 410, 'widthPercent': 0.45, 'rescaleHeight': False, 'trialN': 101, 'loaded': True, 'loadedTime': 27283, 'positionName': 'LEFT', 'positionCoords': [359, 245], 'bid': 2.08}, {'imgObject': {}, 'id': 'eggs', 'src': '/static/foodstim60/eggs.jpg', 'key': 'i', 'origWidth': 409, 'origHeight': 409, 'width': 409, 'height': 409, 'widthPercent': 0.45, 'rescaleHeight': False, 'trialN': 101, 'loaded': True, 'loadedTime': 29379.299999999814, 'positionName': 'RIGHT', 'positionCoords': [832, 245.5], 'bid': 2.13}]",167620.59999999963,1669830075498,baked potato,eggs,2.08,2.13,0.04999999999999982,eggs,i,610.1000000005588,610,True,168750.7000000002,1130.1000000005588,1669830076628,1130,610.6000000005588,HRV,HRV_0084,2022-11-30 17:42:50
102,"[{'imgObject': {}, 'id': 'ice cream sundae 002', 'src': '/static/foodstim60/ice cream sundae 002.jpg', 'key': 'u', 'origWidth': 409, 'origHeight': 409, 'width': 409, 'height': 409, 'widthPercent': 0.45, 'rescaleHeight': False, 'trialN': 102, 'loaded': True, 'loadedTime': 28202.5, 'positionName': 'LEFT', 'positionCoords': [359, 245.5], 'bid': 4.05}, {'imgObject': {}, 'id': 'fried eggs', 'src': '/static/foodstim60/fried eggs.jpg', 'key': 'i', 'origWidth': 410, 'origHeight': 410, 'width': 410, 'height': 410, 'widthPercent': 0.45, 'rescaleHeight': False, 'trialN': 102, 'loaded': True, 'loadedTime': 28100.200000000186, 'positionName': 'RIGHT', 'positionCoords': [832, 245], 'bid': 6.3100000000000005}]",168751.0,1669830076628,ice cream sundae 002,fried eggs,4.05,6.3100000000000005,2.2600000000000007,fried eggs,i,663.3999999994412,664,True,169937.39999999944,1186.3999999994412,1669830077814,1186,663.8999999994412,HRV,HRV_0084,2022-11-30 17:42:50
103,"[{'imgObject': {}, 'id': 'hashbrowns', 'src': '/static/foodstim60/hashbrowns.jpg', 'key': 'u', 'origWidth': 411, 'origHeight': 410, 'width': 411, 'height': 410, 'widthPercent': 0.45, 'rescaleHeight': False, 'trialN': 103, 'loaded': True, 'loadedTime': 28131.89999999944, 'positionName': 'LEFT', 'positionCoords': [357, 245], 'bid': 3.68}, {'imgObject': {}, 'id': 'cantaloupe', 'src': '/static/foodstim60/cantaloupe.jpg', 'key': 'i', 'origWidth': 409, 'origHeight': 409, 'width': 409, 'height': 409, 'widthPercent': 0.45, 'rescaleHeight': False, 'trialN': 103, 'loaded': True, 'loadedTime': 28295.099999999627, 'positionName': 'RIGHT', 'positionCoords': [832, 245.5], 'bid': 7.45}]",169937.59999999963,1669830077815,hashbrowns,cantaloupe,3.68,7.45,3.77,cantaloupe,i,836.9000000003725,837,True,171282.7000000002,1345.1000000005588,1669830079160,1345,837.4000000003725,HRV,HRV_0084,2022-11-30 17:42:50
104,"[{'imgObject': {}, 'id': 'cherry tomato', 'src': '/static/foodstim60/cherry tomato.jpg', 'key': 'u', 'origWidth': 410, 'origHeight': 410, 'width': 410, 'height': 410, 'widthPercent': 0.45, 'rescaleHeight': False, 'trialN': 104, 'loaded': True, 'loadedTime': 28477.099999999627, 'positionName': 'LEFT', 'positionCoords': [358, 245], 'bid': 1.47}, {'imgObject': {}, 'id': 'orange slices', 'src': '/static/foodstim60/orange slices.jpg', 'key': 'i', 'origWidth': 409, 'origHeight': 410, 'width': 409, 'height': 410, 'widthPercent': 0.45, 'rescaleHeight': False, 'trialN': 104, 'loaded': True, 'loadedTime': 28432.5, 'positionName': 'RIGHT', 'positionCoords': [832, 245], 'bid': 0.33}]",171283.0,1669830079160,cherry tomato,orange slices,1.47,0.33,-1.14,cherry tomato,u,739.5,740,True,172531.7999999998,1248.7999999998137,1669830080409,1249,739.8999999994412,HRV,HRV_0084,2022-11-30 17:42:50
105,"[{'imgObject': {}, 'id': 'cheerios', 'src': '/static/foodstim60/cheerios.jpg', 'key': 'u', 'origWidth': 409, 'origHeight': 410, 'width': 409, 'height': 410, 'widthPercent': 0.45, 'rescaleHeight': False, 'trialN': 105, 'loaded': True, 'loadedTime': 29573.200000000186, 'positionName': 'LEFT', 'positionCoords': [359, 245], 'bid': 2.01}, {'imgObject': {}, 'id': 'blackbeanswithrice', 'src': '/static/foodstim60/blackbeanswithrice.jpg', 'key': 'i', 'origWidth': 410, 'origHeight': 410, 'width': 410, 'height': 410, 'widthPercent': 0.45, 'rescaleHeight': False, 'trialN': 105, 'loaded': True, 'loadedTime': 29326.299999999814, 'positionName': 'RIGHT', 'positionCoords': [832, 245], 'bid': 1.77}]",172532.09999999963,1669830080409,cheerios,blackbeanswithrice,2.01,1.77,-0.23999999999999977,cheerios,u,618.2999999998137,619,True,173670.2999999998,1138.2000000001863,1669830081547,1138,618.9000000003725,HRV,HRV_0084,2022-11-30 17:42:50
106,"[{'imgObject': {}, 'id': 'cherries', 'src': '/static/foodstim60/cherries.jpg', 'key': 'u', 'origWidth': 410, 'origHeight': 411, 'width': 410, 'height': 411, 'widthPercent': 0.45, 'rescaleHeight': False, 'trialN': 106, 'loaded': True, 'loadedTime': 29126.299999999814, 'positionName': 'LEFT', 'positionCoords': [358, 244.5], 'bid': 1.31}, {'imgObject': {}, 'id': 'luckycharms', 'src': '/static/foodstim60/luckycharms.jpg', 'key': 'i', 'origWidth': 410, 'origHeight': 409, 'width': 410, 'height': 409, 'widthPercent': 0.45, 'rescaleHeight': False, 'trialN': 106, 'loaded': True, 'loadedTime': 26694, 'positionName': 'RIGHT', 'positionCoords': [832, 245.5], 'bid': 0.76}]",173670.7000000002,1669830081548,cherries,luckycharms,1.31,0.76,-0.55,luckycharms,i,551.8999999994412,552,True,174735.7000000002,1065.0,1669830082613,1065,552.2999999998137,HRV,HRV_0084,2022-11-30 17:42:50
107,"[{'imgObject': {}, 'id': 'tacos', 'src': '/static/foodstim60/tacos.jpg', 'key': 'u', 'origWidth': 411, 'origHeight': 411, 'width': 411, 'height': 411, 'widthPercent': 0.45, 'rescaleHeight': False, 'trialN': 107, 'loaded': True, 'loadedTime': 29438.599999999627, 'positionName': 'LEFT', 'positionCoords': [357, 244.5], 'bid': 7.87}, {'imgObject': {}, 'id': 'salmon', 'src': '/static/foodstim60/salmon.jpg', 'key': 'i', 'origWidth': 410, 'origHeight': 409, 'width': 410, 'height': 409, 'widthPercent': 0.45, 'rescaleHeight': False, 'trialN': 107, 'loaded': True, 'loadedTime': 28197.39999999944, 'positionName': 'RIGHT', 'positionCoords': [832, 245.5], 'bid': 7.72}]",174735.89999999944,1669830082613,tacos,salmon,7.87,7.72,-0.15000000000000036,salmon,i,638.6000000005588,639,True,175886.89999999944,1151.0,1669830083764,1151,639.1000000005588,HRV,HRV_0084,2022-11-30 17:42:50
108,"[{'imgObject': {}, 'id': 'salad w chicken', 'src': '/static/foodstim60/salad w chicken.jpg', 'key': 'u', 'origWidth': 411, 'origHeight': 411, 'width': 411, 'height': 411, 'widthPercent': 0.45, 'rescaleHeight': False, 'trialN': 108, 'loaded': True, 'loadedTime': 28435.39999999944, 'positionName': 'LEFT', 'positionCoords': [357, 244.5], 'bid': 2.67}, {'imgObject': {}, 'id': 'strawberries', 'src': '/static/foodstim60/strawberries.jpg', 'key': 'i', 'origWidth': 410, 'origHeight': 410, 'width': 410, 'height': 410, 'widthPercent': 0.45, 'rescaleHeight': False, 'trialN': 108, 'loaded': True, 'loadedTime': 28202.700000000186, 'positionName': 'RIGHT', 'positionCoords': [832, 245], 'bid': 6.07}]",175887.2000000002,1669830083764,salad w chicken,strawberries,2.67,6.07,3.4000000000000004,salad w chicken,u,775.2999999998137,776,True,177174.2000000002,1287.0,1669830085051,1287,775.6999999992549,HRV,HRV_0084,2022-11-30 17:42:50
