success,trial_type,trial_index,time_elapsed,internal_node_id,Block,TrialNumber,TrialTime,trialTimeDiff,FPS_avg,FPS_med,FPS_mode,TrialDur,winResizeTime,rt,block,button_pressed,MotCoh,MotDir,ColCoh,Color,ChoiceKey,Choice,Accuracy,RT,nFrames,FPS,PPD,missTrial,missTrialMsg,onsetDelay,fullScreenExitTime,canvCenter,TrialType,Score,BlockTrial,stimulus,button_labels,exp,subjectId,date
True,fullscreen,0,6714,0.0-0.0,0.0,1.0,,,,,,,,,,,,,,,,,,,,,,,,,,,,,,,,HRV,HRV_0084,2022-11-30 18:05:55
,wl-check-fps,1,12183,0.0-1.0,0.0,2.0,"[14471.8, 14484.5, 14925.1, 14929.4, 14934.3, 14950.1, 14967.1, 14983, 14999.8, 15016.3, 15033.2, 15050.4, 15070.7, 15085.4, 15100.4, 15116.9, 15133.8, 15149.9, 15172.2, 15185.3, 15200.4, 15216.7, 15242.4, 15250.5, 15267.8, 15283.4, 15302.3, 15316.5, 15335.3, 15350.4, 15367.2, 15383.4, 15400.3, 15416.6, 15433.4, 15454.1, 15467.1, 15483.9, 15500.5, 15516.4, 15533, 15549.8, 15566.6, 15583.3, 15600.3, 15617, 15635.9, 15650.1, 15666.8, 15683.9, 15700.6, 15717.2, 15733.7, 15750, 15766.7, 15783.3, 15800.1, 15816.5, 15832.9, 15849.8, 15866.3, 15883.1, 15899.8, 15916.2, 15933.1, 15949.6, 15966.8, 15983.1, 15999.6, 16017.1, 16033, 16049.7, 16071, 16084.1, 16100, 16117.3, 16132.9, 16149.6, 16166.3, 16183, 16199.7, 16216.3, 16233.1, 16249.6, 16266.2, 16283, 16299.8, 16316.6, 16333.5, 16349.6, 16366.3, 16386.6, 16399.9, 16416.2, 16432.5, 16449.7, 16472.8, 16482.9, 16499.5, 16517, 16533.2, 16549.5, 16566.5, 16582.8, 16600.1, 16616.3, 16632.4, 16649.6, 16666.4, 16683, 16699.7, 16720.7, 16732.9, 16749.7, 16766.5, 16788.4, 16800.8, 16817.1, 16834, 16850, 16866.3, 16883, 16899.7, 16916.2, 16933, 16949.2, 16966.3, 16983, 16999.5, 17021.3, 17033.4, 17049.7, 17071, 17083, 17100.5, 17120.8, 17133, 17149.9, 17166.5, 17186.8, 17200.1, 17216.6, 17232.9, 17254.2, 17266.3, 17282.9, 17299.8, 17316.4, 17333.6, 17350.6, 17372.3, 17383.5, 17399.5, 17417.3, 17433.3, 17449.6, 17466.4, 17483, 17499.8, 17516.2, 17532.9, 17549.6, 17566.4, 17584.6, 17601, 17618.4, 17643.2, 17650.9, 17665.9, 17682.8, 17700, 17717, 17732.8, 17749.2, 17766.1, 17782.9, 17799.6, 17816.4, 17833, 17849.7, 17866.7, 17882.9, 17900.1, 17919.9, 17932.9, 17949.6, 17966.2, 17982.9, 17999.6, 18016.2, 18032.9, 18049.6, 18066.9, 18083.1, 18100.5, 18119.2, 18137.2, 18155.9, 18167.7, 18184.2, 18200.9, 18217.5, 18232.8, 18250.3, 18266.4, 18283.6, 18300.9, 18316.4, 18333.8, 18350.9, 18367.9, 18382.7, 18399.6, 18416.5, 18433.7, 18450.5, 18467.2, 18483.8, 18500.2, 18517.2, 18533.8, 18550.3, 18567.2, 18583.8, 18601.2, 18616.2, 18633.1, 18649.9, 18667, 18684.3, 18701.4, 18716.2, 18733.5, 18750.8, 18769.3, 18784.6, 18800.8, 18816, 18832.6, 18850.6, 18866.2, 18883.4, 18899.4, 18916.5, 18932.6, 18949.2, 18966.7, 18982.7, 18999.2, 19016.1, 19032.7, 19049.2, 19066.9, 19082.5, 19100, 19117.1, 19132.6, 19150.2, 19167.2, 19182.7, 19199.5, 19215.9, 19232.7, 19250.4, 19266.1, 19282.7, 19299.2, 19318.2, 19332.7, 19349.6, 19366, 19382.6, 19399.4, 19416.1, 19432.7, 19449.2, 19467.8, 19484.9, 19500.7, 19518.4, 19533.7, 19550.3, 19565.9, 19588, 19599.3, 19616, 19633.4, 19649.4, 19666, 19682.6, 19699.2, 19716.9, 19732.6, 19750, 19767.1, 19782.6, 19800.1, 19816.1, 19832.6, 19850.1]","[70.7, 12.7, 440.6, 4.3, 4.9, 15.8, 17, 15.9, 16.8, 16.5, 16.9, 17.2, 20.3, 14.7, 15, 16.5, 16.9, 16.1, 22.3, 13.1, 15.1, 16.3, 25.7, 8.1, 17.3, 15.6, 18.9, 14.2, 18.8, 15.1, 16.8, 16.2, 16.9, 16.3, 16.8, 20.7, 13, 16.8, 16.6, 15.9, 16.6, 16.8, 16.8, 16.7, 17, 16.7, 18.9, 14.2, 16.7, 17.1, 16.7, 16.6, 16.5, 16.3, 16.7, 16.6, 16.8, 16.4, 16.4, 16.9, 16.5, 16.8, 16.7, 16.4, 16.9, 16.5, 17.2, 16.3, 16.5, 17.5, 15.9, 16.7, 21.3, 13.1, 15.9, 17.3, 15.6, 16.7, 16.7, 16.7, 16.7, 16.6, 16.8, 16.5, 16.6, 16.8, 16.8, 16.8, 16.9, 16.1, 16.7, 20.3, 13.3, 16.3, 16.3, 17.2, 23.1, 10.1, 16.6, 17.5, 16.2, 16.3, 17, 16.3, 17.3, 16.2, 16.1, 17.2, 16.8, 16.6, 16.7, 21, 12.2, 16.8, 16.8, 21.9, 12.4, 16.3, 16.9, 16, 16.3, 16.7, 16.7, 16.5, 16.8, 16.2, 17.1, 16.7, 16.5, 21.8, 12.1, 16.3, 21.3, 12, 17.5, 20.3, 12.2, 16.9, 16.6, 20.3, 13.3, 16.5, 16.3, 21.3, 12.1, 16.6, 16.9, 16.6, 17.2, 17, 21.7, 11.2, 16, 17.8, 16, 16.3, 16.8, 16.6, 16.8, 16.4, 16.7, 16.7, 16.8, 18.2, 16.4, 17.4, 24.8, 7.7, 15, 16.9, 17.2, 17, 15.8, 16.4, 16.9, 16.8, 16.7, 16.8, 16.6, 16.7, 17, 16.2, 17.2, 19.8, 13, 16.7, 16.6, 16.7, 16.7, 16.6, 16.7, 16.7, 17.3, 16.2, 17.4, 18.7, 18, 18.7, 11.8, 16.5, 16.7, 16.6, 15.3, 17.5, 16.1, 17.2, 17.3, 15.5, 17.4, 17.1, 17, 14.8, 16.9, 16.9, 17.2, 16.8, 16.7, 16.6, 16.4, 17, 16.6, 16.5, 16.9, 16.6, 17.4, 15, 16.9, 16.8, 17.1, 17.3, 17.1, 14.8, 17.3, 17.3, 18.5, 15.3, 16.2, 15.2, 16.6, 18, 15.6, 17.2, 16, 17.1, 16.1, 16.6, 17.5, 16, 16.5, 16.9, 16.6, 16.5, 17.7, 15.6, 17.5, 17.1, 15.5, 17.6, 17, 15.5, 16.8, 16.4, 16.8, 17.7, 15.7, 16.6, 16.5, 19, 14.5, 16.9, 16.4, 16.6, 16.8, 16.7, 16.6, 16.5, 18.6, 17.1, 15.8, 17.7, 15.3, 16.6, 15.6, 22.1, 11.3, 16.7, 17.4, 16, 16.6, 16.6, 16.6, 17.7, 15.7, 17.4, 17.1, 15.5, 17.5, 16, 16.5, 17.5]",55.0,52.0,60.0,5464.9,[],,,,,,,,,,,,,,,,,,,,,,,,,HRV,HRV_0084,2022-11-30 18:05:55
,wl-html-keyboard-response,2,28300,0.0-2.0-0.0,0.0,3.0,,,,,,,,14107.100000000559,0.0,0,,,,,,,,,,,,,,,,,,,,,,HRV,HRV_0084,2022-11-30 18:05:55
,wl-rdm,3,35016,0.0-3.0-0.0,0.0,4.0,,,,,,,[],,,,0.0,0.0,87.9,0.0,u,0.0,True,1051.699999999255,63.0,60.0,40.0,False,,3000.0,[],"[800, 450]",ColorTask_Demo,,,,,HRV,HRV_0084,2022-11-30 18:05:55
,wl-rdm,4,42420,0.0-3.0-1.0,0.0,5.0,,,,,,,[],,,,0.0,0.0,87.9,1.0,i,1.0,True,1789.199999999255,108.0,60.0,40.0,False,too_early ,2000.0,[],"[800, 450]",ColorTask_Demo,,,,,HRV,HRV_0084,2022-11-30 18:05:55
,wl-html-keyboard-response,5,46946,0.0-3.0-2.0,0.0,6.0,,,,,,,,2519.7999999998137,0.0,1,,,,,,,,,,,,,,,,,,,,,,HRV,HRV_0084,2022-11-30 18:05:55
,wl-html-keyboard-response,6,58762,0.0-4.0-0.0,0.0,7.0,,,,,,,,9810.200000000186,0.0,0,,,,,,,,,,,,,,,,,,,,,,HRV,HRV_0084,2022-11-30 18:05:55
,wl-html-keyboard-response,7,67874,0.0-5.0-0.0,0.0,8.0,,,,,,,,7105.799999999814,0.0,0,,,,,,,,,,,,,,,,,,,,,,HRV,HRV_0084,2022-11-30 18:05:55
,wl-rdm,8,70115,0.0-6.0-0.0,0.0,9.0,,,,,,,[],,,,,,87.9,0.0,u,0.0,True,926.5,56.0,60.0,40.0,False,,233.5981864245847,[],"[800, 450]",ColorTask,1.0,1.0,,,HRV,HRV_0084,2022-11-30 18:05:55
,wl-rdm,9,72265,0.0-6.1-0.1,0.0,10.0,,,,,,,[],,,,,,50.0,1.0,i,1.0,True,828.1000000005588,50.0,60.0,40.0,False,,245.90502377440578,[],"[800, 450]",ColorTask,2.0,2.0,,,HRV,HRV_0084,2022-11-30 18:05:55
,wl-rdm,10,74315,0.0-6.2-0.2,0.0,11.0,,,,,,,[],,,,,,56.4,0.0,u,0.0,True,668.2000000001863,40.0,60.0,40.0,False,,311.9059709034513,[],"[800, 450]",ColorTask,3.0,3.0,,,HRV,HRV_0084,2022-11-30 18:05:55
,wl-rdm,11,76367,0.0-6.3-0.3,0.0,12.0,,,,,,,[],,,,,,53.2,1.0,i,1.0,True,724.6999999992549,44.0,60.0,40.0,False,,241.37421187372067,[],"[800, 450]",ColorTask,4.0,4.0,,,HRV,HRV_0084,2022-11-30 18:05:55
,wl-rdm,12,78199,0.0-6.4-0.4,0.0,13.0,,,,,,,[],,,,,,87.9,1.0,i,1.0,True,548.2999999998137,33.0,60.0,40.0,False,,215.63235414403982,[],"[800, 450]",ColorTask,5.0,5.0,,,HRV,HRV_0084,2022-11-30 18:05:55
,wl-rdm,13,79915,0.0-6.5-0.5,0.0,14.0,,,,,,,[],,,,,,50.0,0.0,i,1.0,False,426.59999999962747,26.0,60.0,40.0,False,,205.47576359038234,[],"[800, 450]",ColorTask,4.0,6.0,,,HRV,HRV_0084,2022-11-30 18:05:55
,wl-rdm,14,81867,0.0-6.6-0.6,0.0,15.0,,,,,,,[],,,,,,56.4,0.0,i,1.0,False,653.2000000001863,40.0,60.0,40.0,False,,224.9935119259935,[],"[800, 450]",ColorTask,3.0,7.0,,,HRV,HRV_0084,2022-11-30 18:05:55
,wl-rdm,15,83698,0.0-6.7-0.7,0.0,16.0,,,,,,,[],,,,,,56.4,1.0,i,1.0,True,543.1999999992549,33.0,60.0,40.0,False,,222.2117511544293,[],"[800, 450]",ColorTask,4.0,8.0,,,HRV,HRV_0084,2022-11-30 18:05:55
,wl-rdm,16,85515,0.0-6.8-0.8,0.0,17.0,,,,,,,[],,,,,,50.0,1.0,u,0.0,False,542.5,33.0,60.0,40.0,False,,203.80133654077025,[],"[800, 450]",ColorTask,3.0,9.0,,,HRV,HRV_0084,2022-11-30 18:05:55
,wl-rdm,17,87482,0.0-6.9-0.9,0.0,18.0,,,,,,,[],,,,,,53.2,1.0,i,1.0,True,590.0999999996275,36.0,60.0,40.0,False,,316.6741054975265,[],"[800, 450]",ColorTask,4.0,10.0,,,HRV,HRV_0084,2022-11-30 18:05:55
,wl-rdm,18,89348,0.0-6.10-0.10,0.0,19.0,,,,,,,[],,,,,,73.6,1.0,i,1.0,True,508.09999999962747,31.0,60.0,40.0,False,,283.057425959751,[],"[800, 450]",ColorTask,5.0,11.0,,,HRV,HRV_0084,2022-11-30 18:05:55
,wl-rdm,19,91248,0.0-6.11-0.11,0.0,20.0,,,,,,,[],,,,,,87.9,0.0,u,0.0,True,470.5,29.0,60.0,40.0,False,,338.3561862543438,[],"[800, 450]",ColorTask,6.0,12.0,,,HRV,HRV_0084,2022-11-30 18:05:55
,wl-rdm,20,93131,0.0-6.12-0.12,0.0,21.0,,,,,,,[],,,,,,50.0,0.0,i,1.0,False,586.0,35.0,60.0,40.0,False,,221.12966432724167,[],"[800, 450]",ColorTask,5.0,13.0,,,HRV,HRV_0084,2022-11-30 18:05:55
,wl-rdm,21,95031,0.0-6.13-0.13,0.0,22.0,,,,,,,[],,,,,,53.2,1.0,i,1.0,True,546.1000000005588,33.0,60.0,40.0,False,,290.5214686867202,[],"[800, 450]",ColorTask,6.0,14.0,,,HRV,HRV_0084,2022-11-30 18:05:55
,wl-rdm,22,97014,0.0-6.14-0.14,0.0,23.0,,,,,,,[],,,,,,87.9,0.0,u,0.0,True,580.0,35.0,60.0,40.0,False,,327.04149323502367,[],"[800, 450]",ColorTask,7.0,15.0,,,HRV,HRV_0084,2022-11-30 18:05:55
,wl-rdm,23,98732,0.0-6.15-0.15,0.0,24.0,,,,,,,[],,,,,,73.6,0.0,u,0.0,True,442.0,27.0,60.0,40.0,False,,209.18470774663865,[],"[800, 450]",ColorTask,8.0,16.0,,,HRV,HRV_0084,2022-11-30 18:05:55
,wl-rdm,24,100714,0.0-6.16-0.16,0.0,25.0,,,,,,,[],,,,,,53.2,0.0,u,0.0,True,569.6999999992549,35.0,60.0,40.0,False,,323.87411776515523,[],"[800, 450]",ColorTask,9.0,17.0,,,HRV,HRV_0084,2022-11-30 18:05:55
,wl-rdm,25,102581,0.0-6.17-0.17,0.0,26.0,,,,,,,[],,,,,,56.4,1.0,i,1.0,True,572.8999999994412,35.0,60.0,40.0,False,,230.22425224493276,[],"[800, 450]",ColorTask,10.0,18.0,,,HRV,HRV_0084,2022-11-30 18:05:55
,wl-rdm,26,104564,0.0-6.18-0.18,0.0,27.0,,,,,,,[],,,,,,56.4,1.0,i,1.0,True,590.2999999998137,36.0,60.0,40.0,False,,315.7856584586033,[],"[800, 450]",ColorTask,11.0,19.0,,,HRV,HRV_0084,2022-11-30 18:05:55
,wl-rdm,27,106581,0.0-6.19-0.19,0.0,28.0,,,,,,,[],,,,,,62.5,1.0,u,0.0,False,598.2000000001863,36.0,60.0,40.0,False,,344.61941936067814,[],"[800, 450]",ColorTask,10.0,20.0,,,HRV,HRV_0084,2022-11-30 18:05:55
,wl-rdm,28,108664,0.0-6.20-0.20,0.0,29.0,,,,,,,[],,,,,,53.2,1.0,u,0.0,False,719.5999999996275,44.0,60.0,40.0,False,,278.7753371684081,[],"[800, 450]",ColorTask,9.0,21.0,,,HRV,HRV_0084,2022-11-30 18:05:55
,wl-rdm,29,110564,0.0-6.21-0.21,0.0,30.0,,,,,,,[],,,,,,87.9,0.0,u,0.0,True,563.4000000003725,34.0,60.0,40.0,False,,280.23325906358855,[],"[800, 450]",ColorTask,10.0,22.0,,,HRV,HRV_0084,2022-11-30 18:05:55
,wl-rdm,30,112565,0.0-6.22-0.22,0.0,31.0,,,,,,,[],,,,,,87.9,0.0,u,0.0,True,580.1999999992549,35.0,60.0,40.0,False,,337.96893344293215,[],"[800, 450]",ColorTask,11.0,23.0,,,HRV,HRV_0084,2022-11-30 18:05:55
,wl-rdm,31,114648,0.0-6.23-0.23,0.0,32.0,,,,,,,[],,,,,,50.0,0.0,i,1.0,False,645.6000000005588,39.0,60.0,40.0,False,,360.33590628117327,[],"[800, 450]",ColorTask,10.0,24.0,,,HRV,HRV_0084,2022-11-30 18:05:55
,wl-rdm,32,116680,0.0-6.24-0.24,0.0,33.0,,,,,,,[],,,,,,50.0,1.0,u,0.0,False,702.9000000003725,43.0,60.0,40.0,False,,246.27305295887788,[],"[800, 450]",ColorTask,9.0,25.0,,,HRV,HRV_0084,2022-11-30 18:05:55
,wl-rdm,33,118614,0.0-6.25-0.25,0.0,34.0,,,,,,,[],,,,,,73.6,1.0,i,1.0,True,596.9000000003725,36.0,60.0,40.0,False,,258.4493650065499,[],"[800, 450]",ColorTask,10.0,26.0,,,HRV,HRV_0084,2022-11-30 18:05:55
,wl-rdm,34,120514,0.0-6.26-0.26,0.0,35.0,,,,,,,[],,,,,,56.4,0.0,i,1.0,False,535.0,32.0,60.0,40.0,False,,293.76650910795354,[],"[800, 450]",ColorTask,9.0,27.0,,,HRV,HRV_0084,2022-11-30 18:05:55
,wl-rdm,35,122465,0.0-6.27-0.27,0.0,36.0,,,,,,,[],,,,,,73.6,0.0,i,1.0,False,628.3999999994412,37.0,60.0,40.0,False,,263.5538990823651,[],"[800, 450]",ColorTask,8.0,28.0,,,HRV,HRV_0084,2022-11-30 18:05:55
,wl-rdm,36,124530,0.0-6.28-0.28,0.0,37.0,,,,,,,[],,,,,,50.0,0.0,u,0.0,True,659.2000000001863,40.0,60.0,40.0,False,,319.22302958450734,[],"[800, 450]",ColorTask,9.0,29.0,,,HRV,HRV_0084,2022-11-30 18:05:55
,wl-rdm,37,126497,0.0-6.29-0.29,0.0,38.0,,,,,,,[],,,,,,87.9,0.0,u,0.0,True,559.5000000009313,34.0,60.0,40.0,False,,335.0880055191319,[],"[800, 450]",ColorTask,10.0,30.0,,,HRV,HRV_0084,2022-11-30 18:05:55
,wl-rdm,38,128514,0.0-6.30-0.30,0.0,39.0,,,,,,,[],,,,,,53.2,1.0,i,1.0,True,617.7000000001863,37.0,60.0,40.0,False,,326.8716981799684,[],"[800, 450]",ColorTask,11.0,31.0,,,HRV,HRV_0084,2022-11-30 18:05:55
,wl-rdm,39,130519,0.0-6.31-0.31,0.0,40.0,,,,,,,[],,,,,,56.4,0.0,i,1.0,False,520.9000000003725,32.0,60.0,40.0,False,,395.156587483461,[],"[800, 450]",ColorTask,10.0,32.0,,,HRV,HRV_0084,2022-11-30 18:05:55
,wl-rdm,40,132364,0.0-6.32-0.32,0.0,41.0,,,,,,,[],,,,,,50.0,1.0,u,0.0,False,548.9000000003725,33.0,60.0,40.0,False,,220.59158228812632,[],"[800, 450]",ColorTask,9.0,33.0,,,HRV,HRV_0084,2022-11-30 18:05:55
,wl-rdm,41,134230,0.0-6.33-0.33,0.0,42.0,,,,,,,[],,,,,,62.5,1.0,u,0.0,False,572.0,35.0,60.0,40.0,False,,202.05250322772025,[],"[800, 450]",ColorTask,8.0,34.0,,,HRV,HRV_0084,2022-11-30 18:05:55
,wl-rdm,42,136104,0.0-6.34-0.34,0.0,43.0,,,,,,,[],,,,,,53.2,0.0,i,1.0,False,549.0,33.0,60.0,40.0,False,,267.92189276521384,[],"[800, 450]",ColorTask,7.0,35.0,,,HRV,HRV_0084,2022-11-30 18:05:55
,wl-rdm,43,138130,0.0-6.35-0.35,0.0,44.0,,,,,,,[],,,,,,73.6,0.0,u,0.0,True,616.5999999996275,37.0,60.0,40.0,False,,333.46063096060504,[],"[800, 450]",ColorTask,8.0,36.0,,,HRV,HRV_0084,2022-11-30 18:05:55
,wl-rdm,44,139997,0.0-6.36-0.36,0.0,45.0,,,,,,,[],,,,,,73.6,0.0,u,0.0,True,506.5,31.0,60.0,40.0,False,,272.83991603913387,[],"[800, 450]",ColorTask,9.0,37.0,,,HRV,HRV_0084,2022-11-30 18:05:55
,wl-rdm,45,141931,0.0-6.37-0.37,0.0,46.0,,,,,,,[],,,,,,87.9,1.0,i,1.0,True,503.80000000074506,30.0,60.0,40.0,False,,362.36161501381906,[],"[800, 450]",ColorTask,10.0,38.0,,,HRV,HRV_0084,2022-11-30 18:05:55
,wl-rdm,46,143930,0.0-6.38-0.38,0.0,47.0,,,,,,,[],,,,,,56.4,0.0,u,0.0,True,600.7000000001863,36.0,60.0,40.0,False,,317.54804573141195,[],"[800, 450]",ColorTask,11.0,39.0,,,HRV,HRV_0084,2022-11-30 18:05:55
,wl-rdm,47,145897,0.0-6.39-0.39,0.0,48.0,,,,,,,[],,,,,,50.0,1.0,i,1.0,True,602.5,36.0,60.0,40.0,False,,296.0107929451144,[],"[800, 450]",ColorTask,12.0,40.0,,,HRV,HRV_0084,2022-11-30 18:05:55
,wl-rdm,48,147814,0.0-6.40-0.40,0.0,49.0,,,,,,,[],,,,,,73.6,0.0,u,0.0,True,597.0,36.0,60.0,40.0,False,,241.6716691310885,[],"[800, 450]",ColorTask,13.0,41.0,,,HRV,HRV_0084,2022-11-30 18:05:55
,wl-rdm,49,149713,0.0-6.41-0.41,0.0,50.0,,,,,,,[],,,,,,50.0,0.0,i,1.0,False,542.8000000007451,33.0,60.0,40.0,False,,283.3608202422863,[],"[800, 450]",ColorTask,12.0,42.0,,,HRV,HRV_0084,2022-11-30 18:05:55
,wl-rdm,50,151530,0.0-6.42-0.42,0.0,51.0,,,,,,,[],,,,,,50.0,1.0,u,0.0,False,342.29999999981374,21.0,60.0,40.0,False,,394.84397648477454,[],"[800, 450]",ColorTask,11.0,43.0,,,HRV,HRV_0084,2022-11-30 18:05:55
,wl-rdm,51,153514,0.0-6.43-0.43,0.0,52.0,,,,,,,[],,,,,,62.5,1.0,u,0.0,False,668.7000000001863,40.0,60.0,40.0,False,,236.75908298799374,[],"[800, 450]",ColorTask,10.0,44.0,,,HRV,HRV_0084,2022-11-30 18:05:55
,wl-rdm,52,155314,0.0-6.44-0.44,0.0,53.0,,,,,,,[],,,,,,62.5,0.0,u,0.0,True,525.7999999998137,32.0,60.0,40.0,False,,211.56915532438833,[],"[800, 450]",ColorTask,11.0,45.0,,,HRV,HRV_0084,2022-11-30 18:05:55
,wl-rdm,53,157164,0.0-6.45-0.45,0.0,54.0,,,,,,,[],,,,,,73.6,1.0,i,1.0,True,565.2000000001863,34.0,60.0,40.0,False,,210.97590355210582,[],"[800, 450]",ColorTask,12.0,46.0,,,HRV,HRV_0084,2022-11-30 18:05:55
,wl-rdm,54,159181,0.0-6.46-0.46,0.0,55.0,,,,,,,[],,,,,,50.0,0.0,i,1.0,False,573.8000000007451,35.0,60.0,40.0,False,,366.6523201305186,[],"[800, 450]",ColorTask,11.0,47.0,,,HRV,HRV_0084,2022-11-30 18:05:55
,wl-rdm,55,161080,0.0-6.47-0.47,0.0,56.0,,,,,,,[],,,,,,62.5,0.0,u,0.0,True,477.59999999962747,29.0,60.0,40.0,False,,346.6835288308557,[],"[800, 450]",ColorTask,12.0,48.0,,,HRV,HRV_0084,2022-11-30 18:05:55
,wl-rdm,56,163047,0.0-6.48-0.48,0.0,57.0,,,,,,,[],,,,,,73.6,0.0,u,0.0,True,595.8999999994412,36.0,60.0,40.0,False,,286.0333159035169,[],"[800, 450]",ColorTask,13.0,49.0,,,HRV,HRV_0084,2022-11-30 18:05:55
,wl-rdm,57,165030,0.0-6.49-0.49,0.0,58.0,,,,,,,[],,,,,,73.6,0.0,u,0.0,True,554.7999999998137,34.0,60.0,40.0,False,,335.6650089249463,[],"[800, 450]",ColorTask,14.0,50.0,,,HRV,HRV_0084,2022-11-30 18:05:55
,wl-rdm,58,167249,0.0-6.50-0.50,0.0,59.0,,,,,,,[],,,,,,73.6,1.0,i,1.0,True,888.0,54.0,60.0,40.0,False,,238.46350169115294,[],"[800, 450]",ColorTask,15.0,51.0,,,HRV,HRV_0084,2022-11-30 18:05:55
,wl-rdm,59,169165,0.0-6.51-0.51,0.0,60.0,,,,,,,[],,,,,,50.0,1.0,i,1.0,True,590.5,36.0,60.0,40.0,False,,247.44528513423288,[],"[800, 450]",ColorTask,16.0,52.0,,,HRV,HRV_0084,2022-11-30 18:05:55
,wl-rdm,60,171097,0.0-6.52-0.52,0.0,61.0,,,,,,,[],,,,,,56.4,1.0,i,1.0,True,634.4000000003725,37.0,60.0,40.0,False,,228.5285693646444,[],"[800, 450]",ColorTask,17.0,53.0,,,HRV,HRV_0084,2022-11-30 18:05:55
,wl-rdm,61,172880,0.0-6.53-0.53,0.0,62.0,,,,,,,[],,,,,,87.9,1.0,i,1.0,True,484.79999999981374,29.0,60.0,40.0,False,,216.9039129042443,[],"[800, 450]",ColorTask,18.0,54.0,,,HRV,HRV_0084,2022-11-30 18:05:55
,wl-rdm,62,174765,0.0-6.54-0.54,0.0,63.0,,,,,,,[],,,,,,62.5,0.0,u,0.0,True,579.7000000011176,35.0,60.0,40.0,False,,221.48593022915043,[],"[800, 450]",ColorTask,19.0,55.0,,,HRV,HRV_0084,2022-11-30 18:05:55
,wl-rdm,63,176764,0.0-6.55-0.55,0.0,64.0,,,,,,,[],,,,,,87.9,1.0,i,1.0,True,647.7000000001863,39.0,60.0,40.0,False,,279.90508955548734,[],"[800, 450]",ColorTask,20.0,56.0,,,HRV,HRV_0084,2022-11-30 18:05:55
,wl-rdm,64,178619,0.0-6.56-0.56,0.0,65.0,,,,,,,[],,,,,,62.5,1.0,u,0.0,False,495.5,30.0,60.0,40.0,False,,291.0709685448804,[],"[800, 450]",ColorTask,19.0,57.0,,,HRV,HRV_0084,2022-11-30 18:05:55
,wl-rdm,65,180480,0.0-6.57-0.57,0.0,66.0,,,,,,,[],,,,,,87.9,1.0,i,1.0,True,535.7000000011176,33.0,60.0,40.0,False,,239.3635542265332,[],"[800, 450]",ColorTask,20.0,58.0,,,HRV,HRV_0084,2022-11-30 18:05:55
,wl-rdm,66,182330,0.0-6.58-0.58,0.0,67.0,,,,,,,[],,,,,,53.2,1.0,i,1.0,True,450.70000000018626,27.0,60.0,40.0,False,,320.19702945174583,[],"[800, 450]",ColorTask,21.0,59.0,,,HRV,HRV_0084,2022-11-30 18:05:55
,wl-rdm,67,184197,0.0-6.59-0.59,0.0,68.0,,,,,,,[],,,,,,62.5,1.0,i,1.0,True,502.6000000005588,31.0,60.0,40.0,False,,284.88923180799526,[],"[800, 450]",ColorTask,22.0,60.0,,,HRV,HRV_0084,2022-11-30 18:05:55
,wl-rdm,68,186080,0.0-6.60-0.60,0.0,69.0,,,,,,,[],,,,,,62.5,0.0,i,1.0,False,520.4000000003725,32.0,60.0,40.0,False,,294.71725996195266,[],"[800, 450]",ColorTask,21.0,61.0,,,HRV,HRV_0084,2022-11-30 18:05:55
,wl-rdm,69,188196,0.0-6.61-0.61,0.0,70.0,,,,,,,[],,,,,,56.4,0.0,i,1.0,False,673.0,41.0,60.0,40.0,False,,364.16556463015627,[],"[800, 450]",ColorTask,20.0,62.0,,,HRV,HRV_0084,2022-11-30 18:05:55
,wl-rdm,70,190230,0.0-6.62-0.62,0.0,71.0,,,,,,,[],,,,,,53.2,0.0,i,1.0,False,579.5,35.0,60.0,40.0,False,,377.83624753437823,[],"[800, 450]",ColorTask,19.0,63.0,,,HRV,HRV_0084,2022-11-30 18:05:55
,wl-rdm,71,192147,0.0-6.63-0.63,0.0,72.0,,,,,,,[],,,,,,53.2,0.0,i,1.0,False,500.0,30.0,60.0,40.0,False,,344.12295869082425,[],"[800, 450]",ColorTask,18.0,64.0,,,HRV,HRV_0084,2022-11-30 18:05:55
,wl-rdm,72,194046,0.0-6.64-0.64,0.0,73.0,,,,,,,[],,,,,,62.5,0.0,u,0.0,True,595.8999999994412,36.0,60.0,40.0,False,,200.84758317976934,[],"[800, 450]",ColorTask,19.0,65.0,,,HRV,HRV_0084,2022-11-30 18:05:55
,wl-rdm,73,195949,0.0-6.65-0.65,0.0,74.0,,,,,,,[],,,,,,56.4,0.0,u,0.0,True,575.7999999998137,35.0,60.0,40.0,False,,248.32252126265794,[],"[800, 450]",ColorTask,20.0,66.0,,,HRV,HRV_0084,2022-11-30 18:05:55
,wl-rdm,74,197913,0.0-6.66-0.66,0.0,75.0,,,,,,,[],,,,,,53.2,0.0,u,0.0,True,593.5,36.0,60.0,40.0,False,,287.9387879583008,[],"[800, 450]",ColorTask,21.0,67.0,,,HRV,HRV_0084,2022-11-30 18:05:55
,wl-rdm,75,199913,0.0-6.67-0.67,0.0,76.0,,,,,,,[],,,,,,87.9,0.0,u,0.0,True,702.7000000001863,43.0,60.0,40.0,False,,215.2687469599705,[],"[800, 450]",ColorTask,22.0,68.0,,,HRV,HRV_0084,2022-11-30 18:05:55
,wl-rdm,76,201796,0.0-6.68-0.68,0.0,77.0,,,,,,,[],,,,,,87.9,1.0,i,1.0,True,613.5,37.0,60.0,40.0,False,,212.2899623808211,[],"[800, 450]",ColorTask,23.0,69.0,,,HRV,HRV_0084,2022-11-30 18:05:55
,wl-rdm,77,203880,0.0-6.69-0.69,0.0,78.0,,,,,,,[],,,,,,62.5,0.0,u,0.0,True,603.0,37.0,60.0,40.0,False,,387.429861003537,[],"[800, 450]",ColorTask,24.0,70.0,,,HRV,HRV_0084,2022-11-30 18:05:55
,wl-rdm,78,205796,0.0-6.70-0.70,0.0,79.0,,,,,,,[],,,,,,73.6,0.0,u,0.0,True,636.5,39.0,60.0,40.0,False,,217.29381029924235,[],"[800, 450]",ColorTask,25.0,71.0,,,HRV,HRV_0084,2022-11-30 18:05:55
,wl-rdm,79,207696,0.0-6.71-0.71,0.0,80.0,,,,,,,[],,,,,,53.2,0.0,u,0.0,True,570.0,35.0,60.0,40.0,False,,261.99179162576615,[],"[800, 450]",ColorTask,26.0,72.0,,,HRV,HRV_0084,2022-11-30 18:05:55
,wl-rdm,80,209732,0.0-6.72-0.72,0.0,81.0,,,,,,,[],,,,,,50.0,0.0,u,0.0,True,635.0,38.0,60.0,40.0,False,,315.9211905161382,[],"[800, 450]",ColorTask,27.0,73.0,,,HRV,HRV_0084,2022-11-30 18:05:55
,wl-rdm,81,211697,0.0-6.73-0.73,0.0,82.0,,,,,,,[],,,,,,50.0,0.0,u,0.0,True,596.7999999998137,36.0,60.0,40.0,False,,289.3119771472874,[],"[800, 450]",ColorTask,28.0,74.0,,,HRV,HRV_0084,2022-11-30 18:05:55
,wl-rdm,82,213613,0.0-6.74-0.74,0.0,83.0,,,,,,,[],,,,,,53.2,1.0,i,1.0,True,577.9000000003725,35.0,60.0,40.0,False,,264.5941058205332,[],"[800, 450]",ColorTask,29.0,75.0,,,HRV,HRV_0084,2022-11-30 18:05:55
,wl-rdm,83,215663,0.0-6.75-0.75,0.0,84.0,,,,,,,[],,,,,,62.5,1.0,i,1.0,True,618.2000000001863,38.0,60.0,40.0,False,,361.2201078182306,[],"[800, 450]",ColorTask,30.0,76.0,,,HRV,HRV_0084,2022-11-30 18:05:55
,wl-rdm,84,217699,0.0-6.76-0.76,0.0,85.0,,,,,,,[],,,,,,50.0,1.0,i,1.0,True,687.4999999990687,42.0,60.0,40.0,False,,270.25177293153456,[],"[800, 450]",ColorTask,31.0,77.0,,,HRV,HRV_0084,2022-11-30 18:05:55
,wl-rdm,85,219746,0.0-6.77-0.77,0.0,86.0,,,,,,,[],,,,,,53.2,0.0,i,1.0,False,600.2999999998137,36.0,60.0,40.0,False,,369.8723269197895,[],"[800, 450]",ColorTask,30.0,78.0,,,HRV,HRV_0084,2022-11-30 18:05:55
,wl-rdm,86,221663,0.0-6.78-0.78,0.0,87.0,,,,,,,[],,,,,,73.6,1.0,i,1.0,True,603.2999999998137,37.0,60.0,40.0,False,,249.78463771170425,[],"[800, 450]",ColorTask,31.0,79.0,,,HRV,HRV_0084,2022-11-30 18:05:55
,wl-rdm,87,223680,0.0-6.79-0.79,0.0,88.0,,,,,,,[],,,,,,53.2,1.0,u,0.0,False,553.8999999994412,34.0,60.0,40.0,False,,387.75600928559226,[],"[800, 450]",ColorTask,30.0,80.0,,,HRV,HRV_0084,2022-11-30 18:05:55
,wl-rdm,88,225680,0.0-6.80-0.80,0.0,89.0,,,,,,,[],,,,,,73.6,0.0,u,0.0,True,560.1000000005588,34.0,60.0,40.0,False,,369.76711769419126,[],"[800, 450]",ColorTask,31.0,81.0,,,HRV,HRV_0084,2022-11-30 18:05:55
,wl-rdm,89,227813,0.0-6.81-0.81,0.0,90.0,,,,,,,[],,,,,,56.4,0.0,i,1.0,False,713.5,43.0,60.0,40.0,False,,341.03423785252045,[],"[800, 450]",ColorTask,30.0,82.0,,,HRV,HRV_0084,2022-11-30 18:05:55
,wl-rdm,90,229730,0.0-6.82-0.82,0.0,91.0,,,,,,,[],,,,,,56.4,1.0,i,1.0,True,550.6999999992549,33.0,60.0,40.0,False,,293.4774801544304,[],"[800, 450]",ColorTask,31.0,83.0,,,HRV,HRV_0084,2022-11-30 18:05:55
,wl-rdm,91,231813,0.0-6.83-0.83,0.0,92.0,,,,,,,[],,,,,,50.0,0.0,u,0.0,True,646.2000000001863,39.0,60.0,40.0,False,,357.20579060463166,[],"[800, 450]",ColorTask,32.0,84.0,,,HRV,HRV_0084,2022-11-30 18:05:55
,wl-rdm,92,233729,0.0-6.84-0.84,0.0,93.0,,,,,,,[],,,,,,87.9,0.0,u,0.0,True,609.3999999994412,37.0,60.0,40.0,False,,247.40333806996512,[],"[800, 450]",ColorTask,33.0,85.0,,,HRV,HRV_0084,2022-11-30 18:05:55
,wl-rdm,93,235646,0.0-6.85-0.85,0.0,94.0,,,,,,,[],,,,,,56.4,1.0,i,1.0,True,588.2000000001863,36.0,60.0,40.0,False,,236.43315686554925,[],"[800, 450]",ColorTask,34.0,86.0,,,HRV,HRV_0084,2022-11-30 18:05:55
,wl-rdm,94,237713,0.0-6.86-0.86,0.0,95.0,,,,,,,[],,,,,,73.6,1.0,u,0.0,False,639.0999999996275,39.0,60.0,40.0,False,,339.17734561438544,[],"[800, 450]",ColorTask,33.0,87.0,,,HRV,HRV_0084,2022-11-30 18:05:55
,wl-rdm,95,239685,0.0-6.87-0.87,0.0,96.0,,,,,,,[],,,,,,87.9,1.0,i,1.0,True,593.7999999998137,36.0,60.0,40.0,False,,313.3825990355174,[],"[800, 450]",ColorTask,34.0,88.0,,,HRV,HRV_0084,2022-11-30 18:05:55
,wl-rdm,96,241946,0.0-6.88-0.88,0.0,97.0,,,,,,,[],,,,,,53.2,1.0,u,0.0,False,875.0,53.0,60.0,40.0,False,,301.4162448332207,[],"[800, 450]",ColorTask,33.0,89.0,,,HRV,HRV_0084,2022-11-30 18:05:55
,wl-rdm,97,243880,0.0-6.89-0.89,0.0,98.0,,,,,,,[],,,,,,62.5,0.0,i,1.0,False,627.1000000005588,38.0,60.0,40.0,False,,248.85992850974367,[],"[800, 450]",ColorTask,32.0,90.0,,,HRV,HRV_0084,2022-11-30 18:05:55
,wl-rdm,98,245862,0.0-6.90-0.90,0.0,99.0,,,,,,,[],,,,,,62.5,0.0,u,0.0,True,642.5,39.0,60.0,40.0,False,,264.77425290168026,[],"[800, 450]",ColorTask,33.0,91.0,,,HRV,HRV_0084,2022-11-30 18:05:55
,wl-rdm,99,248029,0.0-6.91-0.91,0.0,100.0,,,,,,,[],,,,,,56.4,1.0,i,1.0,True,862.5,52.0,60.0,40.0,False,,233.22740005964542,[],"[800, 450]",ColorTask,34.0,92.0,,,HRV,HRV_0084,2022-11-30 18:05:55
,wl-rdm,100,250046,0.0-6.92-0.92,0.0,101.0,,,,,,,[],,,,,,62.5,1.0,i,1.0,True,742.5,45.0,60.0,40.0,False,,211.30604686697615,[],"[800, 450]",ColorTask,35.0,93.0,,,HRV,HRV_0084,2022-11-30 18:05:55
,wl-rdm,101,252113,0.0-6.93-0.93,0.0,102.0,,,,,,,[],,,,,,62.5,1.0,i,1.0,True,603.9999999990687,37.0,60.0,40.0,False,,377.146692892481,[],"[800, 450]",ColorTask,36.0,94.0,,,HRV,HRV_0084,2022-11-30 18:05:55
,wl-rdm,102,254179,0.0-6.94-0.94,0.0,103.0,,,,,,,[],,,,,,50.0,1.0,u,0.0,False,764.5,46.0,60.0,40.0,False,,239.1713248227026,[],"[800, 450]",ColorTask,35.0,95.0,,,HRV,HRV_0084,2022-11-30 18:05:55
,wl-rdm,103,256329,0.0-6.95-0.95,0.0,104.0,,,,,,,[],,,,,,87.9,1.0,i,1.0,True,669.1000000005588,41.0,60.0,40.0,False,,388.547194050015,[],"[800, 450]",ColorTask,36.0,96.0,,,HRV,HRV_0084,2022-11-30 18:05:55
,wl-rdm,104,258313,0.0-6.96-0.96,0.0,105.0,,,,,,,[],,,,,,56.4,1.0,i,1.0,True,651.2999999988824,39.0,60.0,40.0,False,,252.0946086074287,[],"[800, 450]",ColorTask,37.0,97.0,,,HRV,HRV_0084,2022-11-30 18:05:55
,wl-rdm,105,260313,0.0-6.97-0.97,0.0,106.0,,,,,,,[],,,,,,62.5,0.0,u,0.0,True,668.0999999996275,40.0,60.0,40.0,False,,258.86569736356677,[],"[800, 450]",ColorTask,38.0,98.0,,,HRV,HRV_0084,2022-11-30 18:05:55
,wl-rdm,106,262129,0.0-6.98-0.98,0.0,107.0,,,,,,,[],,,,,,53.2,0.0,i,1.0,False,542.0000000009313,33.0,60.0,40.0,False,,208.0657499968193,[],"[800, 450]",ColorTask,37.0,99.0,,,HRV,HRV_0084,2022-11-30 18:05:55
,wl-rdm,107,264063,0.0-6.99-0.99,0.0,108.0,,,,,,,[],,,,,,73.6,1.0,i,1.0,True,569.2000000001863,35.0,60.0,40.0,False,,292.82179363688687,[],"[800, 450]",ColorTask,38.0,100.0,,,HRV,HRV_0084,2022-11-30 18:05:55
,wl-rdm,108,266079,0.0-6.100-0.100,0.0,109.0,,,,,,,[],,,,,,56.4,0.0,u,0.0,True,660.2999999998137,40.0,60.0,40.0,False,,277.61045866859587,[],"[800, 450]",ColorTask,39.0,101.0,,,HRV,HRV_0084,2022-11-30 18:05:55
,wl-rdm,109,268013,0.0-6.101-0.101,0.0,110.0,,,,,,,[],,,,,,87.9,1.0,i,1.0,True,529.2999999998137,32.0,60.0,40.0,False,,318.3454690437435,[],"[800, 450]",ColorTask,40.0,102.0,,,HRV,HRV_0084,2022-11-30 18:05:55
,wl-rdm,110,269846,0.0-6.102-0.102,0.0,111.0,,,,,,,[],,,,,,73.6,1.0,i,1.0,True,503.69999999925494,31.0,60.0,40.0,False,,254.32912563294397,[],"[800, 450]",ColorTask,41.0,103.0,,,HRV,HRV_0084,2022-11-30 18:05:55
,wl-rdm,111,271629,0.0-6.103-0.103,0.0,112.0,,,,,,,[],,,,,,62.5,1.0,i,1.0,True,429.59999999962747,26.0,60.0,40.0,False,,278.2894058453356,[],"[800, 450]",ColorTask,42.0,104.0,,,HRV,HRV_0084,2022-11-30 18:05:55
,wl-rdm,112,273446,0.0-6.104-0.104,0.0,113.0,,,,,,,[],,,,,,53.2,0.0,u,0.0,True,451.2000000011176,28.0,60.0,40.0,False,,269.1781291226693,[],"[800, 450]",ColorTask,43.0,105.0,,,HRV,HRV_0084,2022-11-30 18:05:55
,wl-rdm,113,275362,0.0-6.105-0.105,0.0,114.0,,,,,,,[],,,,,,56.4,1.0,i,1.0,True,514.8999999994412,31.0,60.0,40.0,False,,341.21168200837457,[],"[800, 450]",ColorTask,44.0,106.0,,,HRV,HRV_0084,2022-11-30 18:05:55
,wl-rdm,114,277162,0.0-6.106-0.106,0.0,115.0,,,,,,,[],,,,,,87.9,0.0,u,0.0,True,493.8999999994412,30.0,60.0,40.0,False,,233.2164390168682,[],"[800, 450]",ColorTask,45.0,107.0,,,HRV,HRV_0084,2022-11-30 18:05:55
,wl-rdm,115,279033,0.0-6.107-0.107,0.0,116.0,,,,,,,[],,,,,,73.6,1.0,i,1.0,True,528.5999999996275,32.0,60.0,40.0,False,,276.2558517727719,[],"[800, 450]",ColorTask,46.0,108.0,,,HRV,HRV_0084,2022-11-30 18:05:55
,wl-html-keyboard-response,116,286793,0.0-7.0-0.0,1.0,117.0,,,,,,,,5749.5,1.0,0,,,,,,,,,,,,,,,,,,,,,,HRV,HRV_0084,2022-11-30 18:05:55
,wl-rdm,117,288746,0.0-8.0-0.0,1.0,118.0,,,,,,,[],,,,,,56.4,1.0,i,1.0,True,641.6000000005588,39.0,60.0,40.0,False,,231.87510352572087,[],"[800, 450]",ColorTask,47.0,1.0,,,HRV,HRV_0084,2022-11-30 18:05:55
,wl-rdm,118,290496,0.0-8.1-0.1,1.0,119.0,,,,,,,[],,,,,,87.9,1.0,i,1.0,True,426.5,26.0,60.0,40.0,False,,238.23660454621375,[],"[800, 450]",ColorTask,48.0,2.0,,,HRV,HRV_0084,2022-11-30 18:05:55
,wl-rdm,119,292346,0.0-8.2-0.2,1.0,120.0,,,,,,,[],,,,,,87.9,0.0,u,0.0,True,483.19999999925494,29.0,60.0,40.0,False,,286.31906977098237,[],"[800, 450]",ColorTask,49.0,3.0,,,HRV,HRV_0084,2022-11-30 18:05:55
,wl-rdm,120,294179,0.0-8.3-0.3,1.0,121.0,,,,,,,[],,,,,,56.4,0.0,i,1.0,False,506.8999999994412,31.0,60.0,40.0,False,,250.26283426719243,[],"[800, 450]",ColorTask,48.0,4.0,,,HRV,HRV_0084,2022-11-30 18:05:55
,wl-rdm,121,295945,0.0-8.4-0.4,1.0,122.0,,,,,,,[],,,,,,53.2,0.0,i,1.0,False,482.20000000018626,29.0,60.0,40.0,False,,231.8613894074484,[],"[800, 450]",ColorTask,47.0,5.0,,,HRV,HRV_0084,2022-11-30 18:05:55
,wl-rdm,122,297762,0.0-8.5-0.5,1.0,123.0,,,,,,,[],,,,,,87.9,0.0,u,0.0,True,456.8999999994412,28.0,60.0,40.0,False,,289.83229698444586,[],"[800, 450]",ColorTask,48.0,6.0,,,HRV,HRV_0084,2022-11-30 18:05:55
,wl-rdm,123,299530,0.0-8.6-0.6,1.0,124.0,,,,,,,[],,,,,,73.6,1.0,i,1.0,True,459.20000000018626,28.0,60.0,40.0,False,,238.889421607969,[],"[800, 450]",ColorTask,49.0,7.0,,,HRV,HRV_0084,2022-11-30 18:05:55
,wl-rdm,124,301429,0.0-8.7-0.7,1.0,125.0,,,,,,,[],,,,,,53.2,1.0,i,1.0,True,487.70000000018626,30.0,60.0,40.0,False,,340.5480185949481,[],"[800, 450]",ColorTask,50.0,8.0,,,HRV,HRV_0084,2022-11-30 18:05:55
,wl-rdm,125,303362,0.0-8.8-0.8,1.0,126.0,,,,,,,[],,,,,,73.6,0.0,u,0.0,True,515.6999999992549,31.0,60.0,40.0,False,,336.8521006831995,[],"[800, 450]",ColorTask,51.0,9.0,,,HRV,HRV_0084,2022-11-30 18:05:55
,wl-rdm,126,305279,0.0-8.9-0.9,1.0,127.0,,,,,,,[],,,,,,87.9,1.0,i,1.0,True,498.59999999962747,31.0,60.0,40.0,False,,317.40706609096515,[],"[800, 450]",ColorTask,52.0,10.0,,,HRV,HRV_0084,2022-11-30 18:05:55
,wl-rdm,127,306962,0.0-8.10-0.10,1.0,128.0,,,,,,,[],,,,,,87.9,1.0,i,1.0,True,414.69999999925494,25.0,60.0,40.0,False,,214.74652904801968,[],"[800, 450]",ColorTask,53.0,11.0,,,HRV,HRV_0084,2022-11-30 18:05:55
,wl-rdm,128,308845,0.0-8.11-0.11,1.0,129.0,,,,,,,[],,,,,,50.0,0.0,u,0.0,True,471.29999999981374,28.0,60.0,40.0,False,,334.5496428065418,[],"[800, 450]",ColorTask,54.0,12.0,,,HRV,HRV_0084,2022-11-30 18:05:55
,wl-rdm,129,310529,0.0-8.12-0.12,1.0,130.0,,,,,,,[],,,,,,73.6,0.0,i,1.0,False,391.8999999994412,24.0,60.0,40.0,False,,232.63122093168923,[],"[800, 450]",ColorTask,53.0,13.0,,,HRV,HRV_0084,2022-11-30 18:05:55
,wl-rdm,130,312364,0.0-8.13-0.13,1.0,131.0,,,,,,,[],,,,,,62.5,1.0,u,0.0,False,431.1000000005588,26.0,60.0,40.0,False,,327.41204936573683,[],"[800, 450]",ColorTask,52.0,14.0,,,HRV,HRV_0084,2022-11-30 18:05:55
,wl-rdm,131,314179,0.0-8.14-0.14,1.0,132.0,,,,,,,[],,,,,,73.6,1.0,i,1.0,True,481.40000000037253,29.0,60.0,40.0,False,,256.69245314985307,[],"[800, 450]",ColorTask,53.0,15.0,,,HRV,HRV_0084,2022-11-30 18:05:55
,wl-rdm,132,315946,0.0-8.15-0.15,1.0,133.0,,,,,,,[],,,,,,56.4,0.0,i,1.0,False,416.4999999990687,25.0,60.0,40.0,False,,274.3191708805966,[],"[800, 450]",ColorTask,52.0,16.0,,,HRV,HRV_0084,2022-11-30 18:05:55
,wl-rdm,133,317764,0.0-8.16-0.16,1.0,134.0,,,,,,,[],,,,,,73.6,1.0,i,1.0,True,448.0,27.0,60.0,40.0,False,,316.45893986729993,[],"[800, 450]",ColorTask,53.0,17.0,,,HRV,HRV_0084,2022-11-30 18:05:55
,wl-rdm,134,319529,0.0-8.17-0.17,1.0,135.0,,,,,,,[],,,,,,50.0,0.0,u,0.0,True,465.30000000074506,28.0,60.0,40.0,False,,222.19979078637127,[],"[800, 450]",ColorTask,54.0,18.0,,,HRV,HRV_0084,2022-11-30 18:05:55
,wl-rdm,135,321281,0.0-8.18-0.18,1.0,136.0,,,,,,,[],,,,,,56.4,1.0,i,1.0,True,442.9999999990687,27.0,60.0,40.0,False,,229.08382942676343,[],"[800, 450]",ColorTask,55.0,19.0,,,HRV,HRV_0084,2022-11-30 18:05:55
,wl-rdm,136,323162,0.0-8.19-0.19,1.0,137.0,,,,,,,[],,,,,,56.4,1.0,u,0.0,False,508.20000000018626,31.0,60.0,40.0,False,,288.7299630115075,[],"[800, 450]",ColorTask,54.0,20.0,,,HRV,HRV_0084,2022-11-30 18:05:55
,wl-rdm,137,324962,0.0-8.20-0.20,1.0,138.0,,,,,,,[],,,,,,50.0,1.0,i,1.0,True,340.20000000018626,21.0,60.0,40.0,False,,397.10211105818695,[],"[800, 450]",ColorTask,55.0,21.0,,,HRV,HRV_0084,2022-11-30 18:05:55
,wl-rdm,138,326679,0.0-8.21-0.21,1.0,139.0,,,,,,,[],,,,,,56.4,1.0,i,1.0,True,427.80000000074506,26.0,60.0,40.0,False,,201.7486144048185,[],"[800, 450]",ColorTask,56.0,22.0,,,HRV,HRV_0084,2022-11-30 18:05:55
,wl-rdm,139,328512,0.0-8.22-0.22,1.0,140.0,,,,,,,[],,,,,,56.4,0.0,i,1.0,False,492.19999999925494,30.0,60.0,40.0,False,,252.52081946607598,[],"[800, 450]",ColorTask,55.0,23.0,,,HRV,HRV_0084,2022-11-30 18:05:55
,wl-rdm,140,330278,0.0-8.23-0.23,1.0,141.0,,,,,,,[],,,,,,50.0,1.0,i,1.0,True,460.80000000074506,28.0,60.0,40.0,False,,226.39510697673245,[],"[800, 450]",ColorTask,56.0,24.0,,,HRV,HRV_0084,2022-11-30 18:05:55
,wl-rdm,141,332045,0.0-8.24-0.24,1.0,142.0,,,,,,,[],,,,,,62.5,1.0,u,0.0,False,428.29999999981374,26.0,60.0,40.0,False,,276.41240305070505,[],"[800, 450]",ColorTask,55.0,25.0,,,HRV,HRV_0084,2022-11-30 18:05:55
,wl-rdm,142,333845,0.0-8.25-0.25,1.0,143.0,,,,,,,[],,,,,,87.9,0.0,u,0.0,True,443.6000000005588,27.0,60.0,40.0,False,,291.8979450100346,[],"[800, 450]",ColorTask,56.0,26.0,,,HRV,HRV_0084,2022-11-30 18:05:55
,wl-rdm,143,335728,0.0-8.26-0.26,1.0,144.0,,,,,,,[],,,,,,53.2,0.0,u,0.0,True,469.19999999925494,28.0,60.0,40.0,False,,333.81731303762604,[],"[800, 450]",ColorTask,57.0,27.0,,,HRV,HRV_0084,2022-11-30 18:05:55
,wl-rdm,144,337733,0.0-8.27-0.27,1.0,145.0,,,,,,,[],,,,,,73.6,1.0,i,1.0,True,550.3000000007451,33.0,60.0,40.0,False,,376.1392636867488,[],"[800, 450]",ColorTask,58.0,28.0,,,HRV,HRV_0084,2022-11-30 18:05:55
,wl-rdm,145,339563,0.0-8.28-0.28,1.0,146.0,,,,,,,[],,,,,,56.4,0.0,i,1.0,False,378.69999999925494,22.0,60.0,40.0,False,,388.7135810139297,[],"[800, 450]",ColorTask,57.0,29.0,,,HRV,HRV_0084,2022-11-30 18:05:55
,wl-rdm,146,341479,0.0-8.29-0.29,1.0,147.0,,,,,,,[],,,,,,62.5,1.0,i,1.0,True,611.1000000005588,37.0,60.0,40.0,False,,222.84828959042517,[],"[800, 450]",ColorTask,58.0,30.0,,,HRV,HRV_0084,2022-11-30 18:05:55
,wl-rdm,147,343212,0.0-8.30-0.30,1.0,148.0,,,,,,,[],,,,,,73.6,1.0,i,1.0,True,429.20000000018626,26.0,60.0,40.0,False,,236.12978520961434,[],"[800, 450]",ColorTask,59.0,31.0,,,HRV,HRV_0084,2022-11-30 18:05:55
,wl-rdm,148,344945,0.0-8.31-0.31,1.0,149.0,,,,,,,[],,,,,,53.2,0.0,u,0.0,True,403.4999999990687,24.0,60.0,40.0,False,,264.1103085917715,[],"[800, 450]",ColorTask,60.0,32.0,,,HRV,HRV_0084,2022-11-30 18:05:55
,wl-rdm,149,346762,0.0-8.32-0.32,1.0,150.0,,,,,,,[],,,,,,56.4,1.0,u,0.0,False,424.29999999981374,26.0,60.0,40.0,False,,326.4050994278662,[],"[800, 450]",ColorTask,59.0,33.0,,,HRV,HRV_0084,2022-11-30 18:05:55
,wl-rdm,150,348462,0.0-8.33-0.33,1.0,151.0,,,,,,,[],,,,,,53.2,1.0,u,0.0,False,377.5000000009313,23.0,60.0,40.0,False,,242.31518104994444,[],"[800, 450]",ColorTask,58.0,34.0,,,HRV,HRV_0084,2022-11-30 18:05:55
,wl-rdm,151,350228,0.0-8.34-0.34,1.0,152.0,,,,,,,[],,,,,,50.0,0.0,i,1.0,False,487.80000000074506,29.0,60.0,40.0,False,,213.43988519347366,[],"[800, 450]",ColorTask,57.0,35.0,,,HRV,HRV_0084,2022-11-30 18:05:55
,wl-rdm,152,352154,0.0-8.35-0.35,1.0,153.0,,,,,,,[],,,,,,56.4,0.0,u,0.0,True,584.5,33.0,60.0,40.0,False,,255.0279033025683,[],"[800, 450]",ColorTask,58.0,36.0,,,HRV,HRV_0084,2022-11-30 18:05:55
,wl-rdm,153,353912,0.0-8.36-0.36,1.0,154.0,,,,,,,[],,,,,,73.6,0.0,u,0.0,True,450.9999999990687,27.0,60.0,40.0,False,,241.46154571002074,[],"[800, 450]",ColorTask,59.0,37.0,,,HRV,HRV_0084,2022-11-30 18:05:55
,wl-rdm,154,355745,0.0-8.37-0.37,1.0,155.0,,,,,,,[],,,,,,50.0,1.0,i,1.0,True,506.0,31.0,60.0,40.0,False,,255.5465957929364,[],"[800, 450]",ColorTask,60.0,38.0,,,HRV,HRV_0084,2022-11-30 18:05:55
,wl-rdm,155,357531,0.0-8.38-0.38,1.0,156.0,,,,,,,[],,,,,,53.2,0.0,i,1.0,False,443.0,27.0,60.0,40.0,False,,234.96645316382038,[],"[800, 450]",ColorTask,59.0,39.0,,,HRV,HRV_0084,2022-11-30 18:05:55
,wl-rdm,156,359345,0.0-8.39-0.39,1.0,157.0,,,,,,,[],,,,,,87.9,1.0,i,1.0,True,465.30000000074506,28.0,60.0,40.0,False,,284.3132351632781,[],"[800, 450]",ColorTask,60.0,40.0,,,HRV,HRV_0084,2022-11-30 18:05:55
,wl-rdm,157,361162,0.0-8.40-0.40,1.0,158.0,,,,,,,[],,,,,,53.2,1.0,i,1.0,True,441.29999999981374,27.0,60.0,40.0,False,,294.1412630267781,[],"[800, 450]",ColorTask,61.0,41.0,,,HRV,HRV_0084,2022-11-30 18:05:55
,wl-rdm,158,363095,0.0-8.41-0.41,1.0,159.0,,,,,,,[],,,,,,53.2,0.0,i,1.0,False,477.0000000009313,29.0,60.0,40.0,False,,376.5429793535651,[],"[800, 450]",ColorTask,60.0,42.0,,,HRV,HRV_0084,2022-11-30 18:05:55
,wl-rdm,159,364964,0.0-8.42-0.42,1.0,160.0,,,,,,,[],,,,,,50.0,0.0,i,1.0,False,478.5000000009313,29.0,60.0,40.0,False,,323.66564446786475,[],"[800, 450]",ColorTask,59.0,43.0,,,HRV,HRV_0084,2022-11-30 18:05:55
,wl-rdm,160,366928,0.0-8.43-0.43,1.0,161.0,,,,,,,[],,,,,,62.5,0.0,i,1.0,False,550.5999999996275,33.0,60.0,40.0,False,,336.6210180223809,[],"[800, 450]",ColorTask,58.0,44.0,,,HRV,HRV_0084,2022-11-30 18:05:55
,wl-rdm,161,368811,0.0-8.44-0.44,1.0,162.0,,,,,,,[],,,,,,62.5,1.0,u,0.0,False,538.8999999994412,33.0,60.0,40.0,False,,258.8577892446964,[],"[800, 450]",ColorTask,57.0,45.0,,,HRV,HRV_0084,2022-11-30 18:05:55
,wl-rdm,162,370698,0.0-8.45-0.45,1.0,163.0,,,,,,,[],,,,,,53.2,1.0,i,1.0,True,520.0999999996275,32.0,60.0,40.0,False,,268.6859297489757,[],"[800, 450]",ColorTask,58.0,46.0,,,HRV,HRV_0084,2022-11-30 18:05:55
,wl-rdm,163,372561,0.0-8.46-0.46,1.0,164.0,,,,,,,[],,,,,,73.6,1.0,i,1.0,True,532.0999999996275,32.0,60.0,40.0,False,,251.9472605669773,[],"[800, 450]",ColorTask,59.0,47.0,,,HRV,HRV_0084,2022-11-30 18:05:55
,wl-rdm,164,374495,0.0-8.47-0.47,1.0,165.0,,,,,,,[],,,,,,53.2,1.0,u,0.0,False,619.4000000003725,38.0,60.0,40.0,False,,219.2078634256078,[],"[800, 450]",ColorTask,58.0,48.0,,,HRV,HRV_0084,2022-11-30 18:05:55
,wl-rdm,165,376345,0.0-8.48-0.48,1.0,166.0,,,,,,,[],,,,,,73.6,0.0,u,0.0,True,536.0999999996275,32.0,60.0,40.0,False,,237.51999019055268,[],"[800, 450]",ColorTask,59.0,49.0,,,HRV,HRV_0084,2022-11-30 18:05:55
,wl-rdm,166,378212,0.0-8.49-0.49,1.0,167.0,,,,,,,[],,,,,,50.0,1.0,i,1.0,True,522.1000000005588,32.0,60.0,40.0,False,,263.0736640715568,[],"[800, 450]",ColorTask,60.0,50.0,,,HRV,HRV_0084,2022-11-30 18:05:55
,wl-rdm,167,380061,0.0-8.50-0.50,1.0,168.0,,,,,,,[],,,,,,62.5,1.0,i,1.0,True,545.0,33.0,60.0,40.0,False,,220.714224286448,[],"[800, 450]",ColorTask,61.0,51.0,,,HRV,HRV_0084,2022-11-30 18:05:55
,wl-rdm,168,381809,0.0-8.51-0.51,1.0,169.0,,,,,,,[],,,,,,53.2,1.0,i,1.0,True,430.29999999981374,26.0,60.0,40.0,False,,231.57504345491637,[],"[800, 450]",ColorTask,62.0,52.0,,,HRV,HRV_0084,2022-11-30 18:05:55
,wl-rdm,169,383761,0.0-8.52-0.52,1.0,170.0,,,,,,,[],,,,,,73.6,0.0,u,0.0,True,474.59999999962747,29.0,60.0,40.0,False,,394.19999071424826,[],"[800, 450]",ColorTask,63.0,53.0,,,HRV,HRV_0084,2022-11-30 18:05:55
,wl-rdm,170,385479,0.0-8.53-0.53,1.0,171.0,,,,,,,[],,,,,,73.6,0.0,u,0.0,True,419.69999999925494,26.0,60.0,40.0,False,,224.50236804901166,[],"[800, 450]",ColorTask,64.0,54.0,,,HRV,HRV_0084,2022-11-30 18:05:55
,wl-rdm,171,387380,0.0-8.54-0.54,1.0,172.0,,,,,,,[],,,,,,87.9,0.0,u,0.0,True,457.29999999981374,28.0,60.0,40.0,False,,362.9803252958615,[],"[800, 450]",ColorTask,65.0,55.0,,,HRV,HRV_0084,2022-11-30 18:05:55
,wl-rdm,172,389145,0.0-8.55-0.55,1.0,173.0,,,,,,,[],,,,,,87.9,0.0,u,0.0,True,433.5,26.0,60.0,40.0,False,,261.0962691727888,[],"[800, 450]",ColorTask,66.0,56.0,,,HRV,HRV_0084,2022-11-30 18:05:55
,wl-rdm,173,390961,0.0-8.56-0.56,1.0,174.0,,,,,,,[],,,,,,73.6,1.0,i,1.0,True,498.7999999988824,30.0,60.0,40.0,False,,240.42209320949604,[],"[800, 450]",ColorTask,67.0,57.0,,,HRV,HRV_0084,2022-11-30 18:05:55
,wl-rdm,174,392829,0.0-8.57-0.57,1.0,175.0,,,,,,,[],,,,,,56.4,0.0,i,1.0,False,490.40000000037253,30.0,60.0,40.0,False,,282.48829143689613,[],"[800, 450]",ColorTask,66.0,58.0,,,HRV,HRV_0084,2022-11-30 18:05:55
,wl-rdm,175,394711,0.0-8.58-0.58,1.0,176.0,,,,,,,[],,,,,,73.6,1.0,i,1.0,True,551.3000000007451,33.0,60.0,40.0,False,,261.4630902414691,[],"[800, 450]",ColorTask,67.0,59.0,,,HRV,HRV_0084,2022-11-30 18:05:55
,wl-rdm,176,396611,0.0-8.59-0.59,1.0,177.0,,,,,,,[],,,,,,87.9,0.0,i,1.0,False,462.79999999981374,28.0,60.0,40.0,False,,361.14530346287836,[],"[800, 450]",ColorTask,66.0,60.0,,,HRV,HRV_0084,2022-11-30 18:05:55
,wl-rdm,177,398512,0.0-8.60-0.60,1.0,178.0,,,,,,,[],,,,,,56.4,0.0,i,1.0,False,585.3999999994412,36.0,60.0,40.0,False,,229.54558153174986,[],"[800, 450]",ColorTask,65.0,61.0,,,HRV,HRV_0084,2022-11-30 18:05:55
,wl-rdm,178,400629,0.0-8.61-0.61,1.0,179.0,,,,,,,[],,,,,,50.0,1.0,u,0.0,False,679.5999999996275,41.0,60.0,40.0,False,,350.594655895103,[],"[800, 450]",ColorTask,64.0,62.0,,,HRV,HRV_0084,2022-11-30 18:05:55
,wl-rdm,179,402612,0.0-8.62-0.62,1.0,180.0,,,,,,,[],,,,,,62.5,0.0,u,0.0,True,546.7000000001863,33.0,60.0,40.0,False,,354.1249831290128,[],"[800, 450]",ColorTask,65.0,63.0,,,HRV,HRV_0084,2022-11-30 18:05:55
,wl-rdm,180,404395,0.0-8.63-0.63,1.0,181.0,,,,,,,[],,,,,,53.2,0.0,i,1.0,False,455.90000000037253,28.0,60.0,40.0,False,,263.2650360057602,[],"[800, 450]",ColorTask,64.0,64.0,,,HRV,HRV_0084,2022-11-30 18:05:55
,wl-rdm,181,406429,0.0-8.64-0.64,1.0,182.0,,,,,,,[],,,,,,62.5,0.0,i,1.0,False,706.4000000003725,42.0,60.0,40.0,False,,241.59298990628275,[],"[800, 450]",ColorTask,63.0,65.0,,,HRV,HRV_0084,2022-11-30 18:05:55
,wl-rdm,182,408328,0.0-8.65-0.65,1.0,183.0,,,,,,,[],,,,,,53.2,0.0,u,0.0,True,600.4000000013039,36.0,60.0,40.0,False,,231.50497035157508,[],"[800, 450]",ColorTask,64.0,66.0,,,HRV,HRV_0084,2022-11-30 18:05:55
,wl-rdm,183,410278,0.0-8.66-0.66,1.0,184.0,,,,,,,[],,,,,,56.4,1.0,u,0.0,False,611.0,37.0,60.0,40.0,False,,258.415943360275,[],"[800, 450]",ColorTask,63.0,67.0,,,HRV,HRV_0084,2022-11-30 18:05:55
,wl-rdm,184,412328,0.0-8.67-0.67,1.0,185.0,,,,,,,[],,,,,,62.5,1.0,i,1.0,True,640.9000000003725,40.0,60.0,40.0,False,,339.2681993440738,[],"[800, 450]",ColorTask,64.0,68.0,,,HRV,HRV_0084,2022-11-30 18:05:55
,wl-rdm,185,414228,0.0-8.68-0.68,1.0,186.0,,,,,,,[],,,,,,87.9,0.0,i,1.0,False,462.29999999981374,27.0,60.0,40.0,False,,372.1801642576536,[],"[800, 450]",ColorTask,63.0,69.0,,,HRV,HRV_0084,2022-11-30 18:05:55
,wl-rdm,186,416178,0.0-8.69-0.69,1.0,187.0,,,,,,,[],,,,,,50.0,1.0,i,1.0,True,496.79999999981374,30.0,60.0,40.0,False,,393.25538253058676,[],"[800, 450]",ColorTask,64.0,70.0,,,HRV,HRV_0084,2022-11-30 18:05:55
,wl-rdm,187,418314,0.0-8.70-0.70,1.0,188.0,,,,,,,[],,,,,,62.5,0.0,i,1.0,False,676.4999999990687,41.0,60.0,40.0,False,,370.56010604162884,[],"[800, 450]",ColorTask,63.0,71.0,,,HRV,HRV_0084,2022-11-30 18:05:55
,wl-rdm,188,420251,0.0-8.71-0.71,1.0,189.0,,,,,,,[],,,,,,87.9,1.0,i,1.0,True,545.2000000001863,33.0,60.0,40.0,False,,326.7814559477993,[],"[800, 450]",ColorTask,64.0,72.0,,,HRV,HRV_0084,2022-11-30 18:05:55
,wl-rdm,189,422012,0.0-8.72-0.72,1.0,190.0,,,,,,,[],,,,,,62.5,0.0,u,0.0,True,406.79999999981374,24.0,60.0,40.0,False,,288.9370766267378,[],"[800, 450]",ColorTask,65.0,73.0,,,HRV,HRV_0084,2022-11-30 18:05:55
,wl-rdm,190,423946,0.0-8.73-0.73,1.0,191.0,,,,,,,[],,,,,,87.9,1.0,i,1.0,True,517.1000000005588,31.0,60.0,40.0,False,,346.6835992740009,[],"[800, 450]",ColorTask,66.0,74.0,,,HRV,HRV_0084,2022-11-30 18:05:55
,wl-rdm,191,425850,0.0-8.74-0.74,1.0,192.0,,,,,,,[],,,,,,56.4,1.0,i,1.0,True,462.30000000074506,28.0,60.0,40.0,False,,352.4951348178643,[],"[800, 450]",ColorTask,67.0,75.0,,,HRV,HRV_0084,2022-11-30 18:05:55
,wl-rdm,192,427762,0.0-8.75-0.75,1.0,193.0,,,,,,,[],,,,,,73.6,0.0,u,0.0,True,624.0,38.0,60.0,40.0,False,,209.88604646786496,[],"[800, 450]",ColorTask,68.0,76.0,,,HRV,HRV_0084,2022-11-30 18:05:55
,wl-rdm,193,429595,0.0-8.76-0.76,1.0,194.0,,,,,,,[],,,,,,87.9,1.0,i,1.0,True,513.9000000003725,31.0,60.0,40.0,False,,241.26756402599133,[],"[800, 450]",ColorTask,69.0,77.0,,,HRV,HRV_0084,2022-11-30 18:05:55
,wl-rdm,194,431345,0.0-8.77-0.77,1.0,195.0,,,,,,,[],,,,,,53.2,1.0,i,1.0,True,452.19999999925494,27.0,60.0,40.0,False,,228.16425480861074,[],"[800, 450]",ColorTask,70.0,78.0,,,HRV,HRV_0084,2022-11-30 18:05:55
,wl-rdm,195,433212,0.0-8.78-0.78,1.0,196.0,,,,,,,[],,,,,,87.9,1.0,u,0.0,False,443.19999999925494,27.0,60.0,40.0,False,,366.84067712584334,[],"[800, 450]",ColorTask,69.0,79.0,,,HRV,HRV_0084,2022-11-30 18:05:55
,wl-rdm,196,435045,0.0-8.79-0.79,1.0,197.0,,,,,,,[],,,,,,56.4,1.0,i,1.0,True,521.6000000005588,32.0,60.0,40.0,False,,229.8295259017019,[],"[800, 450]",ColorTask,70.0,80.0,,,HRV,HRV_0084,2022-11-30 18:05:55
,wl-rdm,197,436845,0.0-8.80-0.80,1.0,198.0,,,,,,,[],,,,,,87.9,0.0,u,0.0,True,495.29999999981374,30.0,60.0,40.0,False,,221.7787989041674,[],"[800, 450]",ColorTask,71.0,81.0,,,HRV,HRV_0084,2022-11-30 18:05:55
,wl-rdm,198,438713,0.0-8.81-0.81,1.0,199.0,,,,,,,[],,,,,,62.5,1.0,i,1.0,True,588.3000000007451,35.0,60.0,40.0,False,,204.28399555257033,[],"[800, 450]",ColorTask,72.0,82.0,,,HRV,HRV_0084,2022-11-30 18:05:55
,wl-rdm,199,440662,0.0-8.82-0.82,1.0,200.0,,,,,,,[],,,,,,53.2,1.0,u,0.0,False,592.2000000011176,36.0,60.0,40.0,False,,200.83614200766243,[],"[800, 450]",ColorTask,71.0,83.0,,,HRV,HRV_0084,2022-11-30 18:05:55
,wl-rdm,200,442512,0.0-8.83-0.83,1.0,201.0,,,,,,,[],,,,,,50.0,0.0,i,1.0,False,417.8999999985099,25.0,60.0,40.0,False,,356.9054656362505,[],"[800, 450]",ColorTask,70.0,84.0,,,HRV,HRV_0084,2022-11-30 18:05:55
,wl-rdm,201,444345,0.0-8.84-0.84,1.0,202.0,,,,,,,[],,,,,,73.6,0.0,i,1.0,False,475.5,29.0,60.0,40.0,False,,281.4951546373172,[],"[800, 450]",ColorTask,69.0,85.0,,,HRV,HRV_0084,2022-11-30 18:05:55
,wl-rdm,202,446211,0.0-8.85-0.85,1.0,203.0,,,,,,,[],,,,,,73.6,0.0,u,0.0,True,517.1999999992549,32.0,60.0,40.0,False,,254.5727553512435,[],"[800, 450]",ColorTask,70.0,86.0,,,HRV,HRV_0084,2022-11-30 18:05:55
,wl-rdm,203,448128,0.0-8.86-0.86,1.0,204.0,,,,,,,[],,,,,,87.9,0.0,u,0.0,True,442.79999999981374,27.0,60.0,40.0,False,,387.65132621348033,[],"[800, 450]",ColorTask,71.0,87.0,,,HRV,HRV_0084,2022-11-30 18:05:55
,wl-rdm,204,449945,0.0-8.87-0.87,1.0,205.0,,,,,,,[],,,,,,53.2,0.0,i,1.0,False,525.1999999992549,32.0,60.0,40.0,False,,209.74139969178665,[],"[800, 450]",ColorTask,70.0,88.0,,,HRV,HRV_0084,2022-11-30 18:05:55
,wl-rdm,205,451828,0.0-8.88-0.88,1.0,206.0,,,,,,,[],,,,,,50.0,1.0,i,1.0,True,562.7000000001863,34.0,60.0,40.0,False,,235.73251201190797,[],"[800, 450]",ColorTask,71.0,89.0,,,HRV,HRV_0084,2022-11-30 18:05:55
,wl-rdm,206,453778,0.0-8.89-0.89,1.0,207.0,,,,,,,[],,,,,,56.4,1.0,i,1.0,True,520.5000000009313,32.0,60.0,40.0,False,,356.63870496102953,[],"[800, 450]",ColorTask,72.0,90.0,,,HRV,HRV_0084,2022-11-30 18:05:55
,wl-rdm,207,455778,0.0-8.90-0.90,1.0,208.0,,,,,,,[],,,,,,62.5,0.0,u,0.0,True,523.4999999990687,32.0,60.0,40.0,False,,392.05394623769723,[],"[800, 450]",ColorTask,73.0,91.0,,,HRV,HRV_0084,2022-11-30 18:05:55
,wl-rdm,208,457628,0.0-8.91-0.91,1.0,209.0,,,,,,,[],,,,,,87.9,1.0,i,1.0,True,488.09999999962747,30.0,60.0,40.0,False,,287.1790014892308,[],"[800, 450]",ColorTask,74.0,92.0,,,HRV,HRV_0084,2022-11-30 18:05:55
,wl-rdm,209,459294,0.0-8.92-0.92,1.0,210.0,,,,,,,[],,,,,,56.4,0.0,i,1.0,False,387.0,24.0,60.0,40.0,False,,214.01696790152323,[],"[800, 450]",ColorTask,73.0,93.0,,,HRV,HRV_0084,2022-11-30 18:05:55
,wl-rdm,210,461385,0.0-8.93-0.93,1.0,211.0,,,,,,,[],,,,,,62.5,0.0,u,0.0,True,706.4000000003725,43.0,60.0,40.0,False,,313.7378953514275,[],"[800, 450]",ColorTask,74.0,94.0,,,HRV,HRV_0084,2022-11-30 18:05:55
,wl-rdm,211,463344,0.0-8.94-0.94,1.0,212.0,,,,,,,[],,,,,,56.4,0.0,i,1.0,False,565.2000000001863,34.0,60.0,40.0,False,,347.3481146502098,[],"[800, 450]",ColorTask,73.0,95.0,,,HRV,HRV_0084,2022-11-30 18:05:55
,wl-rdm,212,465377,0.0-8.95-0.95,1.0,213.0,,,,,,,[],,,,,,53.2,1.0,i,1.0,True,630.9000000003725,38.0,60.0,40.0,False,,337.38941327176167,[],"[800, 450]",ColorTask,74.0,96.0,,,HRV,HRV_0084,2022-11-30 18:05:55
,wl-rdm,213,467144,0.0-8.96-0.96,1.0,214.0,,,,,,,[],,,,,,62.5,0.0,u,0.0,True,468.8999999994412,29.0,60.0,40.0,False,,202.7058091138375,[],"[800, 450]",ColorTask,75.0,97.0,,,HRV,HRV_0084,2022-11-30 18:05:55
,wl-rdm,214,469027,0.0-8.97-0.97,1.0,215.0,,,,,,,[],,,,,,50.0,1.0,i,1.0,True,471.79999999981374,29.0,60.0,40.0,False,,316.67560460914086,[],"[800, 450]",ColorTask,76.0,98.0,,,HRV,HRV_0084,2022-11-30 18:05:55
,wl-rdm,215,471044,0.0-8.98-0.98,1.0,216.0,,,,,,,[],,,,,,53.2,0.0,i,1.0,False,571.7000000011176,35.0,60.0,40.0,False,,353.58168819506557,[],"[800, 450]",ColorTask,75.0,99.0,,,HRV,HRV_0084,2022-11-30 18:05:55
,wl-rdm,216,472845,0.0-8.99-0.99,1.0,217.0,,,,,,,[],,,,,,73.6,1.0,i,1.0,True,495.09999999962747,30.0,60.0,40.0,False,,222.78375995515125,[],"[800, 450]",ColorTask,76.0,100.0,,,HRV,HRV_0084,2022-11-30 18:05:55
,wl-rdm,217,474711,0.0-8.100-0.100,1.0,218.0,,,,,,,[],,,,,,50.0,0.0,i,1.0,False,489.29999999981374,30.0,60.0,40.0,False,,312.00122728255326,[],"[800, 450]",ColorTask,75.0,101.0,,,HRV,HRV_0084,2022-11-30 18:05:55
,wl-rdm,218,476761,0.0-8.101-0.101,1.0,219.0,,,,,,,[],,,,,,62.5,0.0,i,1.0,False,674.4999999990687,41.0,60.0,40.0,False,,292.3864057105741,[],"[800, 450]",ColorTask,74.0,102.0,,,HRV,HRV_0084,2022-11-30 18:05:55
,wl-rdm,219,478644,0.0-8.102-0.102,1.0,220.0,,,,,,,[],,,,,,50.0,0.0,u,0.0,True,517.0,30.0,60.0,40.0,False,,286.37391510396594,[],"[800, 450]",ColorTask,75.0,103.0,,,HRV,HRV_0084,2022-11-30 18:05:55
,wl-rdm,220,480544,0.0-8.103-0.103,1.0,221.0,,,,,,,[],,,,,,62.5,1.0,i,1.0,True,549.0999999996275,33.0,60.0,40.0,False,,296.2888685710951,[],"[800, 450]",ColorTask,76.0,104.0,,,HRV,HRV_0084,2022-11-30 18:05:55
,wl-rdm,221,482511,0.0-8.104-0.104,1.0,222.0,,,,,,,[],,,,,,50.0,1.0,u,0.0,False,626.6999999992549,38.0,60.0,40.0,False,,259.6907605654234,[],"[800, 450]",ColorTask,75.0,105.0,,,HRV,HRV_0084,2022-11-30 18:05:55
,wl-rdm,222,484360,0.0-8.105-0.105,1.0,223.0,,,,,,,[],,,,,,50.0,0.0,i,1.0,False,573.2999999998137,35.0,60.0,40.0,False,,211.8620657734175,[],"[800, 450]",ColorTask,74.0,106.0,,,HRV,HRV_0084,2022-11-30 18:05:55
,wl-rdm,223,486345,0.0-8.106-0.106,1.0,224.0,,,,,,,[],,,,,,50.0,0.0,i,1.0,False,649.5999999996275,39.0,60.0,40.0,False,,259.8310818036452,[],"[800, 450]",ColorTask,73.0,107.0,,,HRV,HRV_0084,2022-11-30 18:05:55
,wl-rdm,224,488260,0.0-8.107-0.107,1.0,225.0,,,,,,,[],,,,,,62.5,1.0,i,1.0,True,587.6000000005588,36.0,60.0,40.0,False,,240.98681790166657,[],"[800, 450]",ColorTask,74.0,108.0,,,HRV,HRV_0084,2022-11-30 18:05:55
,wl-html-button-response,225,491780,0.0-9.0-0.0,,,,,,,,,,3509.5,,0,,,,,,,,,,,,,,,,,,,,<h3>End of this session. Thank you!</h3><br>,['Close window'],HRV,HRV_0084,2022-11-30 18:05:55
