trialN,stimuli,trialStartTime,trialStartTime_UNIX,stimulus1,stimulus2,stimulus1Bid,stimulus2Bid,delta,selected,rt,rt_UNIX,rt_perfnow,receivedResponse,rsp,trialEndTime,trialDuration,trialEndTime_UNIX,trialDuration_UNIX,exp,subjectId,date
0,"[{'imgObject': {}, 'id': 'Grapes', 'src': '/static/foodstim60/Grapes.jpg', 'key': 'u', 'origWidth': 411, 'origHeight': 411, 'width': 411, 'height': 411, 'widthPercent': 0.45, 'rescaleHeight': False, 'trialN': 0, 'loaded': True, 'loadedTime': 1890, 'positionName': 'LEFT', 'positionCoords': [326.28, 226.5], 'bid': 7.21}, {'imgObject': {}, 'id': 'shreddedwheatwithmilk', 'src': '/static/foodstim60/shreddedwheatwithmilk.jpg', 'key': 'i', 'origWidth': 410, 'origHeight': 410, 'width': 410, 'height': 410, 'widthPercent': 0.45, 'rescaleHeight': False, 'trialN': 0, 'loaded': True, 'loadedTime': 2009.7000000476837, 'positionName': 'RIGHT', 'positionCoords': [798.72, 227], 'bid': 0.88}]",2117.0,1669831764038,Grapes,shreddedwheatwithmilk,7.21,0.88,-6.33,Grapes,1028.9000000953674,1030,1029.7000000476837,True,u,3649.7000000476837,1532.7000000476837,1669831765571,1533,HRV,HRV_0147,2022-11-30 18:14:09
1,"[{'imgObject': {}, 'id': 'popsicles', 'src': '/static/foodstim60/popsicles.jpg', 'key': 'u', 'origWidth': 410, 'origHeight': 410, 'width': 410, 'height': 410, 'widthPercent': 0.45, 'rescaleHeight': False, 'trialN': 1, 'loaded': True, 'loadedTime': 2113.7999999523163, 'positionName': 'LEFT', 'positionCoords': [327.28, 227], 'bid': 4.71}, {'imgObject': {}, 'id': 'rigatoni', 'src': '/static/foodstim60/rigatoni.jpg', 'key': 'i', 'origWidth': 411, 'origHeight': 411, 'width': 411, 'height': 411, 'widthPercent': 0.45, 'rescaleHeight': False, 'trialN': 1, 'loaded': True, 'loadedTime': 2010.7000000476837, 'positionName': 'RIGHT', 'positionCoords': [798.72, 226.5], 'bid': 4.59}]",3649.7999999523163,1669831765571,popsicles,rigatoni,4.71,4.59,-0.1200000000000001,popsicles,912.5,912,912.8000001907349,True,u,5070.299999952316,1420.5,1669831766991,1420,HRV,HRV_0147,2022-11-30 18:14:09
2,"[{'imgObject': {}, 'id': 'Grapes', 'src': '/static/foodstim60/Grapes.jpg', 'key': 'u', 'origWidth': 411, 'origHeight': 411, 'width': 411, 'height': 411, 'widthPercent': 0.45, 'rescaleHeight': False, 'trialN': 2, 'loaded': True, 'loadedTime': 1969.4000000953674, 'positionName': 'LEFT', 'positionCoords': [326.28, 226.5], 'bid': 7.21}, {'imgObject': {}, 'id': 'salad w chicken', 'src': '/static/foodstim60/salad w chicken.jpg', 'key': 'i', 'origWidth': 411, 'origHeight': 411, 'width': 411, 'height': 411, 'widthPercent': 0.45, 'rescaleHeight': False, 'trialN': 2, 'loaded': True, 'loadedTime': 2015.6000001430511, 'positionName': 'RIGHT', 'positionCoords': [798.72, 226.5], 'bid': 7.18}]",5070.600000143051,1669831766992,Grapes,salad w chicken,7.21,7.18,-0.03000000000000025,salad w chicken,936.0,936,936.1999998092651,True,i,6516.299999952316,1445.6999998092651,1669831768437,1445,HRV,HRV_0147,2022-11-30 18:14:09
3,"[{'imgObject': {}, 'id': 'rigatoni', 'src': '/static/foodstim60/rigatoni.jpg', 'key': 'u', 'origWidth': 411, 'origHeight': 411, 'width': 411, 'height': 411, 'widthPercent': 0.45, 'rescaleHeight': False, 'trialN': 3, 'loaded': True, 'loadedTime': 2009.7999999523163, 'positionName': 'LEFT', 'positionCoords': [326.28, 226.5], 'bid': 4.59}, {'imgObject': {}, 'id': 'mac & cheese', 'src': '/static/foodstim60/mac & cheese.jpg', 'key': 'i', 'origWidth': 410, 'origHeight': 410, 'width': 410, 'height': 410, 'widthPercent': 0.45, 'rescaleHeight': False, 'trialN': 3, 'loaded': True, 'loadedTime': 2018.6000001430511, 'positionName': 'RIGHT', 'positionCoords': [798.72, 227], 'bid': 4.37}]",6516.5,1669831768437,rigatoni,mac & cheese,4.59,4.37,-0.21999999999999975,mac & cheese,1412.1000001430511,1413,1412.4000000953674,True,i,8439.900000095367,1923.4000000953674,1669831770361,1924,HRV,HRV_0147,2022-11-30 18:14:09
4,"[{'imgObject': {}, 'id': 'strawberries', 'src': '/static/foodstim60/strawberries.jpg', 'key': 'u', 'origWidth': 410, 'origHeight': 410, 'width': 410, 'height': 410, 'widthPercent': 0.45, 'rescaleHeight': False, 'trialN': 4, 'loaded': True, 'loadedTime': 2021, 'positionName': 'LEFT', 'positionCoords': [327.28, 227], 'bid': 6.66}, {'imgObject': {}, 'id': 'corn cob', 'src': '/static/foodstim60/corn cob.jpg', 'key': 'i', 'origWidth': 411, 'origHeight': 411, 'width': 411, 'height': 411, 'widthPercent': 0.45, 'rescaleHeight': False, 'trialN': 4, 'loaded': True, 'loadedTime': 2022.5, 'positionName': 'RIGHT', 'positionCoords': [798.72, 226.5], 'bid': 6.57}]",8440.0,1669831770361,strawberries,corn cob,6.66,6.57,-0.08999999999999986,strawberries,1051.2999999523163,1052,1051.7000000476837,True,u,10007.5,1567.5,1669831771928,1567,HRV,HRV_0147,2022-11-30 18:14:09
5,"[{'imgObject': {}, 'id': 'strawberries', 'src': '/static/foodstim60/strawberries.jpg', 'key': 'u', 'origWidth': 410, 'origHeight': 410, 'width': 410, 'height': 410, 'widthPercent': 0.45, 'rescaleHeight': False, 'trialN': 5, 'loaded': True, 'loadedTime': 2019.7999999523163, 'positionName': 'LEFT', 'positionCoords': [327.28, 227], 'bid': 6.66}, {'imgObject': {}, 'id': 'bagel and cc', 'src': '/static/foodstim60/bagel and cc.jpg', 'key': 'i', 'origWidth': 410, 'origHeight': 410, 'width': 410, 'height': 410, 'widthPercent': 0.45, 'rescaleHeight': False, 'trialN': 5, 'loaded': True, 'loadedTime': 2025.6000001430511, 'positionName': 'RIGHT', 'positionCoords': [798.72, 227], 'bid': 5.55}]",10007.799999952316,1669831771929,strawberries,bagel and cc,6.66,5.55,-1.1100000000000003,strawberries,690.7000000476837,691,691.2000000476837,True,u,11209.900000095367,1202.1000001430511,1669831773131,1202,HRV,HRV_0147,2022-11-30 18:14:09
6,"[{'imgObject': {}, 'id': 'turkeysandwich', 'src': '/static/foodstim60/turkeysandwich.jpg', 'key': 'u', 'origWidth': 409, 'origHeight': 409, 'width': 409, 'height': 409, 'widthPercent': 0.45, 'rescaleHeight': False, 'trialN': 6, 'loaded': True, 'loadedTime': 2029.9000000953674, 'positionName': 'LEFT', 'positionCoords': [328.28, 227.5], 'bid': 7.85}, {'imgObject': {}, 'id': 'fried eggs', 'src': '/static/foodstim60/fried eggs.jpg', 'key': 'i', 'origWidth': 410, 'origHeight': 410, 'width': 410, 'height': 410, 'widthPercent': 0.45, 'rescaleHeight': False, 'trialN': 6, 'loaded': True, 'loadedTime': 2030.9000000953674, 'positionName': 'RIGHT', 'positionCoords': [798.72, 227], 'bid': 7.56}]",11210.0,1669831773131,turkeysandwich,fried eggs,7.85,7.56,-0.29000000000000004,turkeysandwich,1447.4000000953674,1448,1447.7999999523163,True,u,13170.200000047684,1960.2000000476837,1669831775091,1960,HRV,HRV_0147,2022-11-30 18:14:09
7,"[{'imgObject': {}, 'id': 'popsicles', 'src': '/static/foodstim60/popsicles.jpg', 'key': 'u', 'origWidth': 410, 'origHeight': 410, 'width': 410, 'height': 410, 'widthPercent': 0.45, 'rescaleHeight': False, 'trialN': 7, 'loaded': True, 'loadedTime': 2113.7000000476837, 'positionName': 'LEFT', 'positionCoords': [327.28, 227], 'bid': 4.71}, {'imgObject': {}, 'id': 'corn cob', 'src': '/static/foodstim60/corn cob.jpg', 'key': 'i', 'origWidth': 411, 'origHeight': 411, 'width': 411, 'height': 411, 'widthPercent': 0.45, 'rescaleHeight': False, 'trialN': 7, 'loaded': True, 'loadedTime': 2023.5, 'positionName': 'RIGHT', 'positionCoords': [798.72, 226.5], 'bid': 6.57}]",13170.5,1669831775092,popsicles,corn cob,4.71,6.57,1.8600000000000003,popsicles,1550.4000000953674,1550,1550.6000001430511,True,u,15239.799999952316,2069.2999999523163,1669831777161,2069,HRV,HRV_0147,2022-11-30 18:14:09
8,"[{'imgObject': {}, 'id': 'cherry tomato', 'src': '/static/foodstim60/cherry tomato.jpg', 'key': 'u', 'origWidth': 410, 'origHeight': 410, 'width': 410, 'height': 410, 'widthPercent': 0.45, 'rescaleHeight': False, 'trialN': 8, 'loaded': True, 'loadedTime': 2033.2999999523163, 'positionName': 'LEFT', 'positionCoords': [327.28, 227], 'bid': 4.58}, {'imgObject': {}, 'id': 'banana', 'src': '/static/foodstim60/banana.jpg', 'key': 'i', 'origWidth': 410, 'origHeight': 410, 'width': 410, 'height': 410, 'widthPercent': 0.45, 'rescaleHeight': False, 'trialN': 8, 'loaded': True, 'loadedTime': 2036.4000000953674, 'positionName': 'RIGHT', 'positionCoords': [798.72, 227], 'bid': 6.15}]",15240.200000047684,1669831777161,cherry tomato,banana,4.58,6.15,1.5700000000000003,banana,849.9000000953674,851,850.2999999523163,True,i,16601.60000014305,1361.4000000953674,1669831778523,1362,HRV,HRV_0147,2022-11-30 18:14:09
9,"[{'imgObject': {}, 'id': 'fried eggs', 'src': '/static/foodstim60/fried eggs.jpg', 'key': 'u', 'origWidth': 410, 'origHeight': 410, 'width': 410, 'height': 410, 'widthPercent': 0.45, 'rescaleHeight': False, 'trialN': 9, 'loaded': True, 'loadedTime': 2031.1000001430511, 'positionName': 'LEFT', 'positionCoords': [327.28, 227], 'bid': 7.56}, {'imgObject': {}, 'id': 'lox', 'src': '/static/foodstim60/lox.jpg', 'key': 'i', 'origWidth': 410, 'origHeight': 411, 'width': 410, 'height': 411, 'widthPercent': 0.45, 'rescaleHeight': False, 'trialN': 9, 'loaded': True, 'loadedTime': 2038.4000000953674, 'positionName': 'RIGHT', 'positionCoords': [798.72, 226.5], 'bid': 8.17}]",16601.799999952316,1669831778523,fried eggs,lox,7.56,8.17,0.6100000000000003,lox,1440.7000000476837,1441,1441.2000000476837,True,i,18558.200000047684,1956.4000000953674,1669831780479,1956,HRV,HRV_0147,2022-11-30 18:14:09
10,"[{'imgObject': {}, 'id': 'yogurt no spoon', 'src': '/static/foodstim60/yogurt no spoon.jpg', 'key': 'u', 'origWidth': 411, 'origHeight': 410, 'width': 411, 'height': 410, 'widthPercent': 0.45, 'rescaleHeight': False, 'trialN': 10, 'loaded': True, 'loadedTime': 2038.9000000953674, 'positionName': 'LEFT', 'positionCoords': [326.28, 227], 'bid': 7.52}, {'imgObject': {}, 'id': 'Grapes', 'src': '/static/foodstim60/Grapes.jpg', 'key': 'i', 'origWidth': 411, 'origHeight': 411, 'width': 411, 'height': 411, 'widthPercent': 0.45, 'rescaleHeight': False, 'trialN': 10, 'loaded': True, 'loadedTime': 1969.6000001430511, 'positionName': 'RIGHT', 'positionCoords': [798.72, 226.5], 'bid': 7.21}]",18558.400000095367,1669831780479,yogurt no spoon,Grapes,7.52,7.21,-0.3099999999999996,yogurt no spoon,1105.2000000476837,1106,1105.7999999523163,True,u,20176.900000095367,1618.5,1669831782098,1619,HRV,HRV_0147,2022-11-30 18:14:09
11,"[{'imgObject': {}, 'id': 'hashbrowns', 'src': '/static/foodstim60/hashbrowns.jpg', 'key': 'u', 'origWidth': 411, 'origHeight': 410, 'width': 411, 'height': 410, 'widthPercent': 0.45, 'rescaleHeight': False, 'trialN': 11, 'loaded': True, 'loadedTime': 2043.4000000953674, 'positionName': 'LEFT', 'positionCoords': [326.28, 227], 'bid': 3.73}, {'imgObject': {}, 'id': 'chicken nuggets2', 'src': '/static/foodstim60/chicken nuggets2.jpg', 'key': 'i', 'origWidth': 410, 'origHeight': 409, 'width': 410, 'height': 409, 'widthPercent': 0.45, 'rescaleHeight': False, 'trialN': 11, 'loaded': True, 'loadedTime': 2053.7999999523163, 'positionName': 'RIGHT', 'positionCoords': [798.72, 227.5], 'bid': 8.42}]",20177.10000014305,1669831782098,hashbrowns,chicken nuggets2,3.73,8.42,4.6899999999999995,chicken nuggets2,971.8999998569489,972,972.0999999046326,True,i,21657.200000047684,1480.0999999046326,1669831783578,1480,HRV,HRV_0147,2022-11-30 18:14:09
12,"[{'imgObject': {}, 'id': 'bagel plain', 'src': '/static/foodstim60/bagel plain.jpg', 'key': 'u', 'origWidth': 410, 'origHeight': 410, 'width': 410, 'height': 410, 'widthPercent': 0.45, 'rescaleHeight': False, 'trialN': 12, 'loaded': True, 'loadedTime': 2072.2000000476837, 'positionName': 'LEFT', 'positionCoords': [327.28, 227], 'bid': 4.84}, {'imgObject': {}, 'id': 'veggieswithdip', 'src': '/static/foodstim60/veggieswithdip.jpg', 'key': 'i', 'origWidth': 409, 'origHeight': 409, 'width': 409, 'height': 409, 'widthPercent': 0.45, 'rescaleHeight': False, 'trialN': 12, 'loaded': True, 'loadedTime': 2073.600000143051, 'positionName': 'RIGHT', 'positionCoords': [798.72, 227.5], 'bid': 4.97}]",21657.5,1669831783578,bagel plain,veggieswithdip,4.84,4.97,0.1299999999999999,veggieswithdip,1070.5,1072,1071.6000001430511,True,i,23239.400000095367,1581.9000000953674,1669831785160,1582,HRV,HRV_0147,2022-11-30 18:14:09
13,"[{'imgObject': {}, 'id': 'avocado', 'src': '/static/foodstim60/avocado.jpg', 'key': 'u', 'origWidth': 409, 'origHeight': 409, 'width': 409, 'height': 409, 'widthPercent': 0.45, 'rescaleHeight': False, 'trialN': 13, 'loaded': True, 'loadedTime': 2077.7999999523163, 'positionName': 'LEFT', 'positionCoords': [328.28, 227.5], 'bid': 0}, {'imgObject': {}, 'id': 'cherries', 'src': '/static/foodstim60/cherries.jpg', 'key': 'i', 'origWidth': 410, 'origHeight': 411, 'width': 410, 'height': 411, 'widthPercent': 0.45, 'rescaleHeight': False, 'trialN': 13, 'loaded': True, 'loadedTime': 2080.5, 'positionName': 'RIGHT', 'positionCoords': [798.72, 226.5], 'bid': 6.1000000000000005}]",23239.700000047684,1669831785161,avocado,cherries,0.0,6.1000000000000005,6.1000000000000005,cherries,856.4000000953674,856,856.7000000476837,True,i,24615.799999952316,1376.0999999046326,1669831786537,1376,HRV,HRV_0147,2022-11-30 18:14:09
14,"[{'imgObject': {}, 'id': 'hotdog w must', 'src': '/static/foodstim60/hotdog w must.jpg', 'key': 'u', 'origWidth': 409, 'origHeight': 409, 'width': 409, 'height': 409, 'widthPercent': 0.45, 'rescaleHeight': False, 'trialN': 14, 'loaded': True, 'loadedTime': 2082.2000000476837, 'positionName': 'LEFT', 'positionCoords': [328.28, 227.5], 'bid': 7.86}, {'imgObject': {}, 'id': 'Grapes', 'src': '/static/foodstim60/Grapes.jpg', 'key': 'i', 'origWidth': 411, 'origHeight': 411, 'width': 411, 'height': 411, 'widthPercent': 0.45, 'rescaleHeight': False, 'trialN': 14, 'loaded': True, 'loadedTime': 1969.2000000476837, 'positionName': 'RIGHT', 'positionCoords': [798.72, 226.5], 'bid': 7.21}]",24615.900000095367,1669831786537,hotdog w must,Grapes,7.86,7.21,-0.6500000000000004,hotdog w must,1324.2000000476837,1324,1324.5,True,u,26443.299999952316,1827.3999998569489,1669831788364,1827,HRV,HRV_0147,2022-11-30 18:14:09
15,"[{'imgObject': {}, 'id': 'eggs', 'src': '/static/foodstim60/eggs.jpg', 'key': 'u', 'origWidth': 409, 'origHeight': 409, 'width': 409, 'height': 409, 'widthPercent': 0.45, 'rescaleHeight': False, 'trialN': 15, 'loaded': True, 'loadedTime': 2084.2000000476837, 'positionName': 'LEFT', 'positionCoords': [328.28, 227.5], 'bid': 5.0200000000000005}, {'imgObject': {}, 'id': 'cheerios', 'src': '/static/foodstim60/cheerios.jpg', 'key': 'i', 'origWidth': 409, 'origHeight': 410, 'width': 409, 'height': 410, 'widthPercent': 0.45, 'rescaleHeight': False, 'trialN': 15, 'loaded': True, 'loadedTime': 2087.7000000476837, 'positionName': 'RIGHT', 'positionCoords': [798.72, 227], 'bid': 1.92}]",26443.5,1669831788364,eggs,cheerios,5.0200000000000005,1.92,-3.1000000000000005,eggs,871.6000001430511,872,871.7000000476837,True,u,27818.700000047684,1375.2000000476837,1669831789740,1376,HRV,HRV_0147,2022-11-30 18:14:09
16,"[{'imgObject': {}, 'id': 'edamame', 'src': '/static/foodstim60/edamame.jpg', 'key': 'u', 'origWidth': 409, 'origHeight': 410, 'width': 409, 'height': 410, 'widthPercent': 0.45, 'rescaleHeight': False, 'trialN': 16, 'loaded': True, 'loadedTime': 2093, 'positionName': 'LEFT', 'positionCoords': [328.28, 227], 'bid': 3.08}, {'imgObject': {}, 'id': 'raisin bran w milk', 'src': '/static/foodstim60/raisin bran w milk.jpg', 'key': 'i', 'origWidth': 411, 'origHeight': 411, 'width': 411, 'height': 411, 'widthPercent': 0.45, 'rescaleHeight': False, 'trialN': 16, 'loaded': True, 'loadedTime': 2094.600000143051, 'positionName': 'RIGHT', 'positionCoords': [798.72, 226.5], 'bid': 0.67}]",27818.900000095367,1669831789740,edamame,raisin bran w milk,3.08,0.67,-2.41,edamame,997.5,998,998.0,True,u,29329.5,1510.5999999046326,1669831791250,1510,HRV,HRV_0147,2022-11-30 18:14:09
17,"[{'imgObject': {}, 'id': 'burrito', 'src': '/static/foodstim60/burrito.jpg', 'key': 'u', 'origWidth': 410, 'origHeight': 410, 'width': 410, 'height': 410, 'widthPercent': 0.45, 'rescaleHeight': False, 'trialN': 17, 'loaded': True, 'loadedTime': 2095.600000143051, 'positionName': 'LEFT', 'positionCoords': [327.28, 227], 'bid': 7.95}, {'imgObject': {}, 'id': 'steak', 'src': '/static/foodstim60/steak.jpg', 'key': 'i', 'origWidth': 410, 'origHeight': 410, 'width': 410, 'height': 410, 'widthPercent': 0.45, 'rescaleHeight': False, 'trialN': 17, 'loaded': True, 'loadedTime': 2096.9000000953674, 'positionName': 'RIGHT', 'positionCoords': [798.72, 227], 'bid': 9.9}]",29329.60000014305,1669831791251,burrito,steak,7.95,9.9,1.9500000000000002,steak,1509.2999999523163,1510,1509.8999998569489,True,i,31353.0,2023.3999998569489,1669831793274,2023,HRV,HRV_0147,2022-11-30 18:14:09
18,"[{'imgObject': {}, 'id': 'Tribe humus pita', 'src': '/static/foodstim60/Tribe humus pita.jpg', 'key': 'u', 'origWidth': 411, 'origHeight': 411, 'width': 411, 'height': 411, 'widthPercent': 0.45, 'rescaleHeight': False, 'trialN': 18, 'loaded': True, 'loadedTime': 2097, 'positionName': 'LEFT', 'positionCoords': [326.28, 226.5], 'bid': 1.51}, {'imgObject': {}, 'id': 'sweetpotato', 'src': '/static/foodstim60/sweetpotato.jpg', 'key': 'i', 'origWidth': 410, 'origHeight': 410, 'width': 410, 'height': 410, 'widthPercent': 0.45, 'rescaleHeight': False, 'trialN': 18, 'loaded': True, 'loadedTime': 2098.7000000476837, 'positionName': 'RIGHT', 'positionCoords': [798.72, 227], 'bid': 1.22}]",31353.10000014305,1669831793274,Tribe humus pita,sweetpotato,1.51,1.22,-0.29000000000000004,Tribe humus pita,1013.0999999046326,1013,1013.2999999523163,True,u,32885.700000047684,1532.5999999046326,1669831794807,1533,HRV,HRV_0147,2022-11-30 18:14:09
19,"[{'imgObject': {}, 'id': 'shreddedwheatwithmilk', 'src': '/static/foodstim60/shreddedwheatwithmilk.jpg', 'key': 'u', 'origWidth': 410, 'origHeight': 410, 'width': 410, 'height': 410, 'widthPercent': 0.45, 'rescaleHeight': False, 'trialN': 19, 'loaded': True, 'loadedTime': 2007.5, 'positionName': 'LEFT', 'positionCoords': [327.28, 227], 'bid': 0.88}, {'imgObject': {}, 'id': 'seaweed', 'src': '/static/foodstim60/seaweed.jpg', 'key': 'i', 'origWidth': 410, 'origHeight': 410, 'width': 410, 'height': 410, 'widthPercent': 0.45, 'rescaleHeight': False, 'trialN': 19, 'loaded': True, 'loadedTime': 2102, 'positionName': 'RIGHT', 'positionCoords': [798.72, 227], 'bid': 0.03}]",32885.799999952316,1669831794807,shreddedwheatwithmilk,seaweed,0.88,0.03,-0.85,shreddedwheatwithmilk,1151.9000000953674,1152,1152.1000001430511,True,u,34551.90000009537,1666.1000001430511,1669831796473,1666,HRV,HRV_0147,2022-11-30 18:14:09
20,"[{'imgObject': {}, 'id': 'bagel and cc', 'src': '/static/foodstim60/bagel and cc.jpg', 'key': 'u', 'origWidth': 410, 'origHeight': 410, 'width': 410, 'height': 410, 'widthPercent': 0.45, 'rescaleHeight': False, 'trialN': 20, 'loaded': True, 'loadedTime': 2025.7000000476837, 'positionName': 'LEFT', 'positionCoords': [327.28, 227], 'bid': 5.55}, {'imgObject': {}, 'id': 'banana', 'src': '/static/foodstim60/banana.jpg', 'key': 'i', 'origWidth': 410, 'origHeight': 410, 'width': 410, 'height': 410, 'widthPercent': 0.45, 'rescaleHeight': False, 'trialN': 20, 'loaded': True, 'loadedTime': 2036.2999999523163, 'positionName': 'RIGHT', 'positionCoords': [798.72, 227], 'bid': 6.15}]",34551.90000009537,1669831796473,bagel and cc,banana,5.55,6.15,0.6000000000000005,bagel and cc,1302.2000000476837,1303,1303.0,True,u,36362.299999952316,1810.3999998569489,1669831798283,1810,HRV,HRV_0147,2022-11-30 18:14:09
21,"[{'imgObject': {}, 'id': 'raisin bran w milk', 'src': '/static/foodstim60/raisin bran w milk.jpg', 'key': 'u', 'origWidth': 411, 'origHeight': 411, 'width': 411, 'height': 411, 'widthPercent': 0.45, 'rescaleHeight': False, 'trialN': 21, 'loaded': True, 'loadedTime': 2093.2999999523163, 'positionName': 'LEFT', 'positionCoords': [326.28, 226.5], 'bid': 0.67}, {'imgObject': {}, 'id': 'salad w chicken', 'src': '/static/foodstim60/salad w chicken.jpg', 'key': 'i', 'origWidth': 411, 'origHeight': 411, 'width': 411, 'height': 411, 'widthPercent': 0.45, 'rescaleHeight': False, 'trialN': 21, 'loaded': True, 'loadedTime': 2014.5, 'positionName': 'RIGHT', 'positionCoords': [798.72, 226.5], 'bid': 7.18}]",36362.40000009537,1669831798283,raisin bran w milk,salad w chicken,0.67,7.18,6.51,salad w chicken,929.3999998569489,930,929.5999999046326,True,i,37802.5,1440.0999999046326,1669831799724,1441,HRV,HRV_0147,2022-11-30 18:14:09
22,"[{'imgObject': {}, 'id': 'chickenfingers', 'src': '/static/foodstim60/chickenfingers.jpg', 'key': 'u', 'origWidth': 410, 'origHeight': 410, 'width': 410, 'height': 410, 'widthPercent': 0.45, 'rescaleHeight': False, 'trialN': 22, 'loaded': True, 'loadedTime': 2102.2000000476837, 'positionName': 'LEFT', 'positionCoords': [327.28, 227], 'bid': 9.58}, {'imgObject': {}, 'id': 'burger', 'src': '/static/foodstim60/burger.jpg', 'key': 'i', 'origWidth': 409, 'origHeight': 409, 'width': 409, 'height': 409, 'widthPercent': 0.45, 'rescaleHeight': False, 'trialN': 22, 'loaded': True, 'loadedTime': 2105.2999999523163, 'positionName': 'RIGHT', 'positionCoords': [798.72, 227.5], 'bid': 7.76}]",37802.60000014305,1669831799724,chickenfingers,burger,9.58,7.76,-1.8200000000000003,chickenfingers,1149.6999998092651,1150,1150.0,True,u,39458.90000009537,1656.2999999523163,1669831801380,1656,HRV,HRV_0147,2022-11-30 18:14:09
23,"[{'imgObject': {}, 'id': 'blackbeanswithrice', 'src': '/static/foodstim60/blackbeanswithrice.jpg', 'key': 'u', 'origWidth': 410, 'origHeight': 410, 'width': 410, 'height': 410, 'widthPercent': 0.45, 'rescaleHeight': False, 'trialN': 23, 'loaded': True, 'loadedTime': 2106.7999999523163, 'positionName': 'LEFT', 'positionCoords': [327.28, 227], 'bid': 9.7}, {'imgObject': {}, 'id': 'mashed potato', 'src': '/static/foodstim60/mashed potato.jpg', 'key': 'i', 'origWidth': 409, 'origHeight': 409, 'width': 409, 'height': 409, 'widthPercent': 0.45, 'rescaleHeight': False, 'trialN': 23, 'loaded': True, 'loadedTime': 2107.9000000953674, 'positionName': 'RIGHT', 'positionCoords': [798.72, 227.5], 'bid': 5.32}]",39459.0,1669831801380,blackbeanswithrice,mashed potato,9.7,5.32,-4.379999999999999,blackbeanswithrice,1009.1000001430511,1010,1009.6000001430511,True,u,40969.60000014305,1510.6000001430511,1669831802891,1511,HRV,HRV_0147,2022-11-30 18:14:09
24,"[{'imgObject': {}, 'id': 'granola w milk', 'src': '/static/foodstim60/granola w milk.jpg', 'key': 'u', 'origWidth': 410, 'origHeight': 410, 'width': 410, 'height': 410, 'widthPercent': 0.45, 'rescaleHeight': False, 'trialN': 24, 'loaded': True, 'loadedTime': 2109.2000000476837, 'positionName': 'LEFT', 'positionCoords': [327.28, 227], 'bid': 1.43}, {'imgObject': {}, 'id': 'sweetpotato', 'src': '/static/foodstim60/sweetpotato.jpg', 'key': 'i', 'origWidth': 410, 'origHeight': 410, 'width': 410, 'height': 410, 'widthPercent': 0.45, 'rescaleHeight': False, 'trialN': 24, 'loaded': True, 'loadedTime': 2098.7000000476837, 'positionName': 'RIGHT', 'positionCoords': [798.72, 227], 'bid': 1.22}]",40969.700000047684,1669831802891,granola w milk,sweetpotato,1.43,1.22,-0.20999999999999996,granola w milk,1665.7000000476837,1666,1666.2000000476837,True,u,43144.700000047684,2175.0,1669831805066,2175,HRV,HRV_0147,2022-11-30 18:14:09
25,"[{'imgObject': {}, 'id': 'omelette', 'src': '/static/foodstim60/omelette.jpg', 'key': 'u', 'origWidth': 410, 'origHeight': 409, 'width': 410, 'height': 409, 'widthPercent': 0.45, 'rescaleHeight': False, 'trialN': 25, 'loaded': True, 'loadedTime': 2112.2999999523163, 'positionName': 'LEFT', 'positionCoords': [327.28, 227.5], 'bid': 2.16}, {'imgObject': {}, 'id': 'baked potato', 'src': '/static/foodstim60/baked potato.jpg', 'key': 'i', 'origWidth': 409, 'origHeight': 410, 'width': 409, 'height': 410, 'widthPercent': 0.45, 'rescaleHeight': False, 'trialN': 25, 'loaded': True, 'loadedTime': 1986.1000001430511, 'positionName': 'RIGHT', 'positionCoords': [798.72, 227], 'bid': 2.03}]",43144.90000009537,1669831805066,omelette,baked potato,2.16,2.03,-0.13000000000000034,omelette,1584.2000000476837,1585,1584.5999999046326,True,u,45238.299999952316,2093.399999856949,1669831807159,2093,HRV,HRV_0147,2022-11-30 18:14:09
26,"[{'imgObject': {}, 'id': 'mango', 'src': '/static/foodstim60/mango.jpg', 'key': 'u', 'origWidth': 411, 'origHeight': 411, 'width': 411, 'height': 411, 'widthPercent': 0.45, 'rescaleHeight': False, 'trialN': 26, 'loaded': True, 'loadedTime': 1992, 'positionName': 'LEFT', 'positionCoords': [326.28, 226.5], 'bid': 0.46}, {'imgObject': {}, 'id': 'cantaloupe', 'src': '/static/foodstim60/cantaloupe.jpg', 'key': 'i', 'origWidth': 409, 'origHeight': 409, 'width': 409, 'height': 409, 'widthPercent': 0.45, 'rescaleHeight': False, 'trialN': 26, 'loaded': True, 'loadedTime': 2001.1000001430511, 'positionName': 'RIGHT', 'positionCoords': [798.72, 227.5], 'bid': 0.55}]",45238.5,1669831807160,mango,cantaloupe,0.46,0.55,0.09000000000000002,cantaloupe,1204.1000001430511,1204,1204.7999999523163,True,i,46959.60000014305,1721.1000001430511,1669831808881,1721,HRV,HRV_0147,2022-11-30 18:14:09
27,"[{'imgObject': {}, 'id': 'cherries', 'src': '/static/foodstim60/cherries.jpg', 'key': 'u', 'origWidth': 410, 'origHeight': 411, 'width': 410, 'height': 411, 'widthPercent': 0.45, 'rescaleHeight': False, 'trialN': 27, 'loaded': True, 'loadedTime': 2079.2999999523163, 'positionName': 'LEFT', 'positionCoords': [327.28, 226.5], 'bid': 6.1000000000000005}, {'imgObject': {}, 'id': 'apple slices', 'src': '/static/foodstim60/apple slices.jpg', 'key': 'i', 'origWidth': 409, 'origHeight': 410, 'width': 409, 'height': 410, 'widthPercent': 0.45, 'rescaleHeight': False, 'trialN': 27, 'loaded': True, 'loadedTime': 2002.9000000953674, 'positionName': 'RIGHT', 'positionCoords': [798.72, 227], 'bid': 7.96}]",46959.700000047684,1669831808881,cherries,apple slices,6.1000000000000005,7.96,1.8599999999999994,apple slices,1310.0,1310,1310.4000000953674,True,i,48779.799999952316,1820.0999999046326,1669831810701,1820,HRV,HRV_0147,2022-11-30 18:14:09
28,"[{'imgObject': {}, 'id': 'mango', 'src': '/static/foodstim60/mango.jpg', 'key': 'u', 'origWidth': 411, 'origHeight': 411, 'width': 411, 'height': 411, 'widthPercent': 0.45, 'rescaleHeight': False, 'trialN': 28, 'loaded': True, 'loadedTime': 1991.5, 'positionName': 'LEFT', 'positionCoords': [326.28, 226.5], 'bid': 0.46}, {'imgObject': {}, 'id': 'fruitsalad', 'src': '/static/foodstim60/fruitsalad.jpg', 'key': 'i', 'origWidth': 410, 'origHeight': 410, 'width': 410, 'height': 410, 'widthPercent': 0.45, 'rescaleHeight': False, 'trialN': 28, 'loaded': True, 'loadedTime': 2006.6000001430511, 'positionName': 'RIGHT', 'positionCoords': [798.72, 227], 'bid': 6.62}]",48780.0,1669831810701,mango,fruitsalad,0.46,6.62,6.16,fruitsalad,931.9000000953674,932,932.0,True,i,50223.299999952316,1443.2999999523163,1669831812144,1443,HRV,HRV_0147,2022-11-30 18:14:09
29,"[{'imgObject': {}, 'id': 'roastedpotatoes', 'src': '/static/foodstim60/roastedpotatoes.jpg', 'key': 'u', 'origWidth': 409, 'origHeight': 410, 'width': 409, 'height': 410, 'widthPercent': 0.45, 'rescaleHeight': False, 'trialN': 29, 'loaded': True, 'loadedTime': 2011, 'positionName': 'LEFT', 'positionCoords': [328.28, 227], 'bid': 8.22}, {'imgObject': {}, 'id': 'burger', 'src': '/static/foodstim60/burger.jpg', 'key': 'i', 'origWidth': 409, 'origHeight': 409, 'width': 409, 'height': 409, 'widthPercent': 0.45, 'rescaleHeight': False, 'trialN': 29, 'loaded': True, 'loadedTime': 2105.100000143051, 'positionName': 'RIGHT', 'positionCoords': [798.72, 227.5], 'bid': 7.76}]",50223.60000014305,1669831812145,roastedpotatoes,burger,8.22,7.76,-0.46000000000000085,roastedpotatoes,1139.0,1139,1139.1999998092651,True,u,51865.0,1641.3999998569489,1669831813786,1641,HRV,HRV_0147,2022-11-30 18:14:09
30,"[{'imgObject': {}, 'id': 'hotdog w must', 'src': '/static/foodstim60/hotdog w must.jpg', 'key': 'u', 'origWidth': 409, 'origHeight': 409, 'width': 409, 'height': 409, 'widthPercent': 0.45, 'rescaleHeight': False, 'trialN': 30, 'loaded': True, 'loadedTime': 2080.7999999523163, 'positionName': 'LEFT', 'positionCoords': [328.28, 227.5], 'bid': 7.86}, {'imgObject': {}, 'id': 'omelette', 'src': '/static/foodstim60/omelette.jpg', 'key': 'i', 'origWidth': 410, 'origHeight': 409, 'width': 410, 'height': 409, 'widthPercent': 0.45, 'rescaleHeight': False, 'trialN': 30, 'loaded': True, 'loadedTime': 2112.2999999523163, 'positionName': 'RIGHT', 'positionCoords': [798.72, 227.5], 'bid': 2.16}]",51865.200000047684,1669831813786,hotdog w must,omelette,7.86,2.16,-5.7,hotdog w must,801.0999999046326,802,801.5,True,u,53173.5,1308.2999999523163,1669831815094,1308,HRV,HRV_0147,2022-11-30 18:14:09
31,"[{'imgObject': {}, 'id': 'rigatoni and sauce', 'src': '/static/foodstim60/rigatoni and sauce.jpg', 'key': 'u', 'origWidth': 410, 'origHeight': 411, 'width': 410, 'height': 411, 'widthPercent': 0.45, 'rescaleHeight': False, 'trialN': 31, 'loaded': True, 'loadedTime': 2012.9000000953674, 'positionName': 'LEFT', 'positionCoords': [327.28, 226.5], 'bid': 9.11}, {'imgObject': {}, 'id': 'tacos', 'src': '/static/foodstim60/tacos.jpg', 'key': 'i', 'origWidth': 411, 'origHeight': 411, 'width': 411, 'height': 411, 'widthPercent': 0.45, 'rescaleHeight': False, 'trialN': 31, 'loaded': True, 'loadedTime': 2014.4000000953674, 'positionName': 'RIGHT', 'positionCoords': [798.72, 226.5], 'bid': 9.38}]",53173.5,1669831815095,rigatoni and sauce,tacos,9.11,9.38,0.27000000000000135,tacos,1472.2000000476837,1472,1472.7999999523163,True,i,55157.40000009537,1983.9000000953674,1669831817078,1983,HRV,HRV_0147,2022-11-30 18:14:09
32,"[{'imgObject': {}, 'id': 'corn cob', 'src': '/static/foodstim60/corn cob.jpg', 'key': 'u', 'origWidth': 411, 'origHeight': 411, 'width': 411, 'height': 411, 'widthPercent': 0.45, 'rescaleHeight': False, 'trialN': 32, 'loaded': True, 'loadedTime': 2023.4000000953674, 'positionName': 'LEFT', 'positionCoords': [326.28, 226.5], 'bid': 6.57}, {'imgObject': {}, 'id': 'olives', 'src': '/static/foodstim60/olives.jpg', 'key': 'i', 'origWidth': 410, 'origHeight': 410, 'width': 410, 'height': 410, 'widthPercent': 0.45, 'rescaleHeight': False, 'trialN': 32, 'loaded': True, 'loadedTime': 2017.1000001430511, 'positionName': 'RIGHT', 'positionCoords': [798.72, 227], 'bid': 0.22}]",55157.5,1669831817079,corn cob,olives,6.57,0.22,-6.3500000000000005,corn cob,1043.2000000476837,1043,1043.6000001430511,True,u,56713.200000047684,1555.7000000476837,1669831818634,1555,HRV,HRV_0147,2022-11-30 18:14:09
33,"[{'imgObject': {}, 'id': 'olives', 'src': '/static/foodstim60/olives.jpg', 'key': 'u', 'origWidth': 410, 'origHeight': 410, 'width': 410, 'height': 410, 'widthPercent': 0.45, 'rescaleHeight': False, 'trialN': 33, 'loaded': True, 'loadedTime': 2017.2999999523163, 'positionName': 'LEFT', 'positionCoords': [327.28, 227], 'bid': 0.22}, {'imgObject': {}, 'id': 'granola w milk', 'src': '/static/foodstim60/granola w milk.jpg', 'key': 'i', 'origWidth': 410, 'origHeight': 410, 'width': 410, 'height': 410, 'widthPercent': 0.45, 'rescaleHeight': False, 'trialN': 33, 'loaded': True, 'loadedTime': 2110.600000143051, 'positionName': 'RIGHT', 'positionCoords': [798.72, 227], 'bid': 1.43}]",56713.5,1669831818634,olives,granola w milk,0.22,1.43,1.21,granola w milk,766.1000001430511,767,766.2999999523163,True,i,57987.5,1274.0,1669831819909,1275,HRV,HRV_0147,2022-11-30 18:14:09
34,"[{'imgObject': {}, 'id': 'chickenfingers', 'src': '/static/foodstim60/chickenfingers.jpg', 'key': 'u', 'origWidth': 410, 'origHeight': 410, 'width': 410, 'height': 410, 'widthPercent': 0.45, 'rescaleHeight': False, 'trialN': 34, 'loaded': True, 'loadedTime': 2103.5, 'positionName': 'LEFT', 'positionCoords': [327.28, 227], 'bid': 9.58}, {'imgObject': {}, 'id': 'eggs', 'src': '/static/foodstim60/eggs.jpg', 'key': 'i', 'origWidth': 409, 'origHeight': 409, 'width': 409, 'height': 409, 'widthPercent': 0.45, 'rescaleHeight': False, 'trialN': 34, 'loaded': True, 'loadedTime': 2083.9000000953674, 'positionName': 'RIGHT', 'positionCoords': [798.72, 227.5], 'bid': 5.0200000000000005}]",57987.799999952316,1669831819909,chickenfingers,eggs,9.58,5.0200000000000005,-4.56,chickenfingers,961.7000000476837,962,962.1000001430511,True,u,59461.5,1473.7000000476837,1669831821383,1474,HRV,HRV_0147,2022-11-30 18:14:09
35,"[{'imgObject': {}, 'id': 'corn cob', 'src': '/static/foodstim60/corn cob.jpg', 'key': 'u', 'origWidth': 411, 'origHeight': 411, 'width': 411, 'height': 411, 'widthPercent': 0.45, 'rescaleHeight': False, 'trialN': 35, 'loaded': True, 'loadedTime': 2023.1000001430511, 'positionName': 'LEFT', 'positionCoords': [326.28, 226.5], 'bid': 6.57}, {'imgObject': {}, 'id': 'chicken nuggets2', 'src': '/static/foodstim60/chicken nuggets2.jpg', 'key': 'i', 'origWidth': 410, 'origHeight': 409, 'width': 410, 'height': 409, 'widthPercent': 0.45, 'rescaleHeight': False, 'trialN': 35, 'loaded': True, 'loadedTime': 2053.9000000953674, 'positionName': 'RIGHT', 'positionCoords': [798.72, 227.5], 'bid': 8.42}]",59461.60000014305,1669831821383,corn cob,chicken nuggets2,6.57,8.42,1.8499999999999996,chicken nuggets2,699.7999999523163,700,700.0,True,i,60676.5,1214.8999998569489,1669831822597,1214,HRV,HRV_0147,2022-11-30 18:14:09
36,"[{'imgObject': {}, 'id': 'salad w chicken', 'src': '/static/foodstim60/salad w chicken.jpg', 'key': 'u', 'origWidth': 411, 'origHeight': 411, 'width': 411, 'height': 411, 'widthPercent': 0.45, 'rescaleHeight': False, 'trialN': 36, 'loaded': True, 'loadedTime': 2016.1000001430511, 'positionName': 'LEFT', 'positionCoords': [326.28, 226.5], 'bid': 7.18}, {'imgObject': {}, 'id': 'eggs', 'src': '/static/foodstim60/eggs.jpg', 'key': 'i', 'origWidth': 409, 'origHeight': 409, 'width': 409, 'height': 409, 'widthPercent': 0.45, 'rescaleHeight': False, 'trialN': 36, 'loaded': True, 'loadedTime': 2083.7999999523163, 'positionName': 'RIGHT', 'positionCoords': [798.72, 227.5], 'bid': 5.0200000000000005}]",60676.700000047684,1669831822598,salad w chicken,eggs,7.18,5.0200000000000005,-2.1599999999999993,salad w chicken,654.5999999046326,655,654.7999999523163,True,u,61847.700000047684,1171.0,1669831823769,1171,HRV,HRV_0147,2022-11-30 18:14:09
37,"[{'imgObject': {}, 'id': 'eggsalad', 'src': '/static/foodstim60/eggsalad.jpg', 'key': 'u', 'origWidth': 410, 'origHeight': 409, 'width': 410, 'height': 409, 'widthPercent': 0.45, 'rescaleHeight': False, 'trialN': 37, 'loaded': True, 'loadedTime': 2018.2999999523163, 'positionName': 'LEFT', 'positionCoords': [327.28, 227.5], 'bid': 4.2}, {'imgObject': {}, 'id': 'granola w milk', 'src': '/static/foodstim60/granola w milk.jpg', 'key': 'i', 'origWidth': 410, 'origHeight': 410, 'width': 410, 'height': 410, 'widthPercent': 0.45, 'rescaleHeight': False, 'trialN': 37, 'loaded': True, 'loadedTime': 2110.2999999523163, 'positionName': 'RIGHT', 'positionCoords': [798.72, 227], 'bid': 1.43}]",61847.90000009537,1669831823769,eggsalad,granola w milk,4.2,1.43,-2.7700000000000005,eggsalad,1328.0999999046326,1329,1328.7000000476837,True,u,63693.60000014305,1845.7000000476837,1669831825615,1846,HRV,HRV_0147,2022-11-30 18:14:09
38,"[{'imgObject': {}, 'id': 'hotdog w must', 'src': '/static/foodstim60/hotdog w must.jpg', 'key': 'u', 'origWidth': 409, 'origHeight': 409, 'width': 409, 'height': 409, 'widthPercent': 0.45, 'rescaleHeight': False, 'trialN': 38, 'loaded': True, 'loadedTime': 2082.100000143051, 'positionName': 'LEFT', 'positionCoords': [328.28, 227.5], 'bid': 7.86}, {'imgObject': {}, 'id': 'sushi w_condiments', 'src': '/static/foodstim60/sushi w_condiments.jpg', 'key': 'i', 'origWidth': 410, 'origHeight': 410, 'width': 410, 'height': 410, 'widthPercent': 0.45, 'rescaleHeight': False, 'trialN': 38, 'loaded': True, 'loadedTime': 2021, 'positionName': 'RIGHT', 'positionCoords': [798.72, 227], 'bid': 9.89}]",63693.90000009537,1669831825615,hotdog w must,sushi w_condiments,7.86,9.89,2.0300000000000002,sushi w_condiments,735.5,736,735.7000000476837,True,i,64945.5,1251.5999999046326,1669831826866,1251,HRV,HRV_0147,2022-11-30 18:14:09
39,"[{'imgObject': {}, 'id': 'luckycharms', 'src': '/static/foodstim60/luckycharms.jpg', 'key': 'u', 'origWidth': 410, 'origHeight': 409, 'width': 410, 'height': 409, 'widthPercent': 0.45, 'rescaleHeight': False, 'trialN': 39, 'loaded': True, 'loadedTime': 2024.5, 'positionName': 'LEFT', 'positionCoords': [327.28, 227.5], 'bid': 2.76}, {'imgObject': {}, 'id': 'avocado', 'src': '/static/foodstim60/avocado.jpg', 'key': 'i', 'origWidth': 409, 'origHeight': 409, 'width': 409, 'height': 409, 'widthPercent': 0.45, 'rescaleHeight': False, 'trialN': 39, 'loaded': True, 'loadedTime': 2077.2000000476837, 'positionName': 'RIGHT', 'positionCoords': [798.72, 227.5], 'bid': 0}]",64945.700000047684,1669831826867,luckycharms,avocado,2.76,0.0,-2.76,luckycharms,1525.0999999046326,1525,1525.2999999523163,True,u,66980.60000014305,2034.9000000953674,1669831828902,2035,HRV,HRV_0147,2022-11-30 18:14:09
40,"[{'imgObject': {}, 'id': 'popsicles', 'src': '/static/foodstim60/popsicles.jpg', 'key': 'u', 'origWidth': 410, 'origHeight': 410, 'width': 410, 'height': 410, 'widthPercent': 0.45, 'rescaleHeight': False, 'trialN': 40, 'loaded': True, 'loadedTime': 2113.9000000953674, 'positionName': 'LEFT', 'positionCoords': [327.28, 227], 'bid': 4.71}, {'imgObject': {}, 'id': 'cherry tomato', 'src': '/static/foodstim60/cherry tomato.jpg', 'key': 'i', 'origWidth': 410, 'origHeight': 410, 'width': 410, 'height': 410, 'widthPercent': 0.45, 'rescaleHeight': False, 'trialN': 40, 'loaded': True, 'loadedTime': 2032.2999999523163, 'positionName': 'RIGHT', 'positionCoords': [798.72, 227], 'bid': 4.58}]",66980.79999995232,1669831828902,popsicles,cherry tomato,4.71,4.58,-0.1299999999999999,cherry tomato,1766.4000000953674,1767,1766.9000000953674,True,i,69256.90000009537,2276.100000143051,1669831831178,2276,HRV,HRV_0147,2022-11-30 18:14:09
41,"[{'imgObject': {}, 'id': 'omelette', 'src': '/static/foodstim60/omelette.jpg', 'key': 'u', 'origWidth': 410, 'origHeight': 409, 'width': 410, 'height': 409, 'widthPercent': 0.45, 'rescaleHeight': False, 'trialN': 41, 'loaded': True, 'loadedTime': 2112.2999999523163, 'positionName': 'LEFT', 'positionCoords': [327.28, 227.5], 'bid': 2.16}, {'imgObject': {}, 'id': 'orange slices', 'src': '/static/foodstim60/orange slices.jpg', 'key': 'i', 'origWidth': 409, 'origHeight': 410, 'width': 409, 'height': 410, 'widthPercent': 0.45, 'rescaleHeight': False, 'trialN': 41, 'loaded': True, 'loadedTime': 2026, 'positionName': 'RIGHT', 'positionCoords': [798.72, 227], 'bid': 5.53}]",69257.20000004768,1669831831178,omelette,orange slices,2.16,5.53,3.37,omelette,1037.4000000953674,1038,1037.7000000476837,True,u,70809.20000004768,1552.0,1669831832730,1552,HRV,HRV_0147,2022-11-30 18:14:09
42,"[{'imgObject': {}, 'id': 'mac & cheese', 'src': '/static/foodstim60/mac & cheese.jpg', 'key': 'u', 'origWidth': 410, 'origHeight': 410, 'width': 410, 'height': 410, 'widthPercent': 0.45, 'rescaleHeight': False, 'trialN': 42, 'loaded': True, 'loadedTime': 2019.5, 'positionName': 'LEFT', 'positionCoords': [327.28, 227], 'bid': 4.37}, {'imgObject': {}, 'id': 'pear', 'src': '/static/foodstim60/pear.jpg', 'key': 'i', 'origWidth': 411, 'origHeight': 410, 'width': 411, 'height': 410, 'widthPercent': 0.45, 'rescaleHeight': False, 'trialN': 42, 'loaded': True, 'loadedTime': 2028.7999999523163, 'positionName': 'RIGHT', 'positionCoords': [798.72, 227], 'bid': 8.67}]",70809.40000009537,1669831832730,mac & cheese,pear,4.37,8.67,4.3,pear,764.2999999523163,765,764.7999999523163,True,i,72095.29999995232,1285.8999998569489,1669831834016,1286,HRV,HRV_0147,2022-11-30 18:14:09
43,"[{'imgObject': {}, 'id': 'mashed potato', 'src': '/static/foodstim60/mashed potato.jpg', 'key': 'u', 'origWidth': 409, 'origHeight': 409, 'width': 409, 'height': 409, 'widthPercent': 0.45, 'rescaleHeight': False, 'trialN': 43, 'loaded': True, 'loadedTime': 2109, 'positionName': 'LEFT', 'positionCoords': [328.28, 227.5], 'bid': 5.32}, {'imgObject': {}, 'id': 'veggieswithdip', 'src': '/static/foodstim60/veggieswithdip.jpg', 'key': 'i', 'origWidth': 409, 'origHeight': 409, 'width': 409, 'height': 409, 'widthPercent': 0.45, 'rescaleHeight': False, 'trialN': 43, 'loaded': True, 'loadedTime': 2073.7000000476837, 'positionName': 'RIGHT', 'positionCoords': [798.72, 227.5], 'bid': 4.97}]",72095.5,1669831834016,mashed potato,veggieswithdip,5.32,4.97,-0.35000000000000053,veggieswithdip,1834.7000000476837,1835,1835.0,True,i,74446.79999995232,2351.2999999523163,1669831836367,2351,HRV,HRV_0147,2022-11-30 18:14:09
44,"[{'imgObject': {}, 'id': 'eggsalad', 'src': '/static/foodstim60/eggsalad.jpg', 'key': 'u', 'origWidth': 410, 'origHeight': 409, 'width': 410, 'height': 409, 'widthPercent': 0.45, 'rescaleHeight': False, 'trialN': 44, 'loaded': True, 'loadedTime': 2017.4000000953674, 'positionName': 'LEFT', 'positionCoords': [327.28, 227.5], 'bid': 4.2}, {'imgObject': {}, 'id': 'mango', 'src': '/static/foodstim60/mango.jpg', 'key': 'i', 'origWidth': 411, 'origHeight': 411, 'width': 411, 'height': 411, 'widthPercent': 0.45, 'rescaleHeight': False, 'trialN': 44, 'loaded': True, 'loadedTime': 1997, 'positionName': 'RIGHT', 'positionCoords': [798.72, 226.5], 'bid': 0.46}]",74447.10000014305,1669831836368,eggsalad,mango,4.2,0.46,-3.74,eggsalad,952.1999998092651,952,952.3999998569489,True,u,75908.40000009537,1461.2999999523163,1669831837829,1461,HRV,HRV_0147,2022-11-30 18:14:09
45,"[{'imgObject': {}, 'id': 'fried eggs', 'src': '/static/foodstim60/fried eggs.jpg', 'key': 'u', 'origWidth': 410, 'origHeight': 410, 'width': 410, 'height': 410, 'widthPercent': 0.45, 'rescaleHeight': False, 'trialN': 45, 'loaded': True, 'loadedTime': 2030.2999999523163, 'positionName': 'LEFT', 'positionCoords': [327.28, 227], 'bid': 7.56}, {'imgObject': {}, 'id': 'burger', 'src': '/static/foodstim60/burger.jpg', 'key': 'i', 'origWidth': 409, 'origHeight': 409, 'width': 409, 'height': 409, 'widthPercent': 0.45, 'rescaleHeight': False, 'trialN': 45, 'loaded': True, 'loadedTime': 2105.4000000953674, 'positionName': 'RIGHT', 'positionCoords': [798.72, 227.5], 'bid': 7.76}]",75908.60000014305,1669831837829,fried eggs,burger,7.56,7.76,0.20000000000000018,fried eggs,1035.5,1036,1036.0,True,u,77463.90000009537,1555.2999999523163,1669831839385,1556,HRV,HRV_0147,2022-11-30 18:14:09
46,"[{'imgObject': {}, 'id': 'granola w milk', 'src': '/static/foodstim60/granola w milk.jpg', 'key': 'u', 'origWidth': 410, 'origHeight': 410, 'width': 410, 'height': 410, 'widthPercent': 0.45, 'rescaleHeight': False, 'trialN': 46, 'loaded': True, 'loadedTime': 2110.4000000953674, 'positionName': 'LEFT', 'positionCoords': [327.28, 227], 'bid': 1.43}, {'imgObject': {}, 'id': 'cheerios', 'src': '/static/foodstim60/cheerios.jpg', 'key': 'i', 'origWidth': 409, 'origHeight': 410, 'width': 409, 'height': 410, 'widthPercent': 0.45, 'rescaleHeight': False, 'trialN': 46, 'loaded': True, 'loadedTime': 2087.9000000953674, 'positionName': 'RIGHT', 'positionCoords': [798.72, 227], 'bid': 1.92}]",77464.0,1669831839385,granola w milk,cheerios,1.43,1.92,0.49,cheerios,1342.9000000953674,1343,1343.5,True,i,79320.79999995232,1856.7999999523163,1669831841241,1856,HRV,HRV_0147,2022-11-30 18:14:09
47,"[{'imgObject': {}, 'id': 'raspberries', 'src': '/static/foodstim60/raspberries.jpg', 'key': 'u', 'origWidth': 411, 'origHeight': 411, 'width': 411, 'height': 411, 'widthPercent': 0.45, 'rescaleHeight': False, 'trialN': 47, 'loaded': True, 'loadedTime': 2031.9000000953674, 'positionName': 'LEFT', 'positionCoords': [326.28, 226.5], 'bid': 7.26}, {'imgObject': {}, 'id': 'sweetpotato', 'src': '/static/foodstim60/sweetpotato.jpg', 'key': 'i', 'origWidth': 410, 'origHeight': 410, 'width': 410, 'height': 410, 'widthPercent': 0.45, 'rescaleHeight': False, 'trialN': 47, 'loaded': True, 'loadedTime': 2098, 'positionName': 'RIGHT', 'positionCoords': [798.72, 227], 'bid': 1.22}]",79321.0,1669831841242,raspberries,sweetpotato,7.26,1.22,-6.04,raspberries,865.7999999523163,866,866.1000001430511,True,u,80703.40000009537,1382.4000000953674,1669831842624,1382,HRV,HRV_0147,2022-11-30 18:14:09
48,"[{'imgObject': {}, 'id': 'salmon', 'src': '/static/foodstim60/salmon.jpg', 'key': 'u', 'origWidth': 410, 'origHeight': 409, 'width': 410, 'height': 409, 'widthPercent': 0.45, 'rescaleHeight': False, 'trialN': 48, 'loaded': True, 'loadedTime': 2034.7000000476837, 'positionName': 'LEFT', 'positionCoords': [327.28, 227.5], 'bid': 9.11}, {'imgObject': {}, 'id': 'tacos', 'src': '/static/foodstim60/tacos.jpg', 'key': 'i', 'origWidth': 411, 'origHeight': 411, 'width': 411, 'height': 411, 'widthPercent': 0.45, 'rescaleHeight': False, 'trialN': 48, 'loaded': True, 'loadedTime': 2014.2000000476837, 'positionName': 'RIGHT', 'positionCoords': [798.72, 226.5], 'bid': 9.38}]",80703.60000014305,1669831842624,salmon,tacos,9.11,9.38,0.27000000000000135,tacos,982.5,983,982.8999998569489,True,i,82209.40000009537,1505.7999999523163,1669831844130,1506,HRV,HRV_0147,2022-11-30 18:14:09
49,"[{'imgObject': {}, 'id': 'ice cream sundae 002', 'src': '/static/foodstim60/ice cream sundae 002.jpg', 'key': 'u', 'origWidth': 409, 'origHeight': 409, 'width': 409, 'height': 409, 'widthPercent': 0.45, 'rescaleHeight': False, 'trialN': 49, 'loaded': True, 'loadedTime': 2037.5, 'positionName': 'LEFT', 'positionCoords': [328.28, 227.5], 'bid': 2.76}, {'imgObject': {}, 'id': 'mango', 'src': '/static/foodstim60/mango.jpg', 'key': 'i', 'origWidth': 411, 'origHeight': 411, 'width': 411, 'height': 411, 'widthPercent': 0.45, 'rescaleHeight': False, 'trialN': 49, 'loaded': True, 'loadedTime': 1991.7999999523163, 'positionName': 'RIGHT', 'positionCoords': [798.72, 226.5], 'bid': 0.46}]",82209.60000014305,1669831844130,ice cream sundae 002,mango,2.76,0.46,-2.3,ice cream sundae 002,743.7999999523163,745,744.2999999523163,True,u,83469.70000004768,1260.0999999046326,1669831845390,1260,HRV,HRV_0147,2022-11-30 18:14:09
50,"[{'imgObject': {}, 'id': 'cocktailshrimp', 'src': '/static/foodstim60/cocktailshrimp.jpg', 'key': 'u', 'origWidth': 410, 'origHeight': 410, 'width': 410, 'height': 410, 'widthPercent': 0.45, 'rescaleHeight': False, 'trialN': 50, 'loaded': True, 'loadedTime': 2040.7000000476837, 'positionName': 'LEFT', 'positionCoords': [327.28, 227], 'bid': 8.77}, {'imgObject': {}, 'id': 'salad w chicken', 'src': '/static/foodstim60/salad w chicken.jpg', 'key': 'i', 'origWidth': 411, 'origHeight': 411, 'width': 411, 'height': 411, 'widthPercent': 0.45, 'rescaleHeight': False, 'trialN': 50, 'loaded': True, 'loadedTime': 2016.1000001430511, 'positionName': 'RIGHT', 'positionCoords': [798.72, 226.5], 'bid': 7.18}]",83469.90000009537,1669831845391,cocktailshrimp,salad w chicken,8.77,7.18,-1.5899999999999999,cocktailshrimp,1108.2000000476837,1108,1108.5,True,u,85089.29999995232,1619.3999998569489,1669831847010,1619,HRV,HRV_0147,2022-11-30 18:14:09
51,"[{'imgObject': {}, 'id': 'chickenfingers', 'src': '/static/foodstim60/chickenfingers.jpg', 'key': 'u', 'origWidth': 410, 'origHeight': 410, 'width': 410, 'height': 410, 'widthPercent': 0.45, 'rescaleHeight': False, 'trialN': 51, 'loaded': True, 'loadedTime': 2103.2999999523163, 'positionName': 'LEFT', 'positionCoords': [327.28, 227], 'bid': 9.58}, {'imgObject': {}, 'id': 'pear', 'src': '/static/foodstim60/pear.jpg', 'key': 'i', 'origWidth': 411, 'origHeight': 410, 'width': 411, 'height': 410, 'widthPercent': 0.45, 'rescaleHeight': False, 'trialN': 51, 'loaded': True, 'loadedTime': 2029, 'positionName': 'RIGHT', 'positionCoords': [798.72, 227], 'bid': 8.67}]",85089.60000014305,1669831847010,chickenfingers,pear,9.58,8.67,-0.9100000000000001,chickenfingers,1060.7999999523163,1062,1061.2999999523163,True,u,86660.60000014305,1571.0,1669831848581,1571,HRV,HRV_0147,2022-11-30 18:14:09
52,"[{'imgObject': {}, 'id': 'apple slices', 'src': '/static/foodstim60/apple slices.jpg', 'key': 'u', 'origWidth': 409, 'origHeight': 410, 'width': 409, 'height': 410, 'widthPercent': 0.45, 'rescaleHeight': False, 'trialN': 52, 'loaded': True, 'loadedTime': 2003.5, 'positionName': 'LEFT', 'positionCoords': [328.28, 227], 'bid': 7.96}, {'imgObject': {}, 'id': 'roastedpotatoes', 'src': '/static/foodstim60/roastedpotatoes.jpg', 'key': 'i', 'origWidth': 409, 'origHeight': 410, 'width': 409, 'height': 410, 'widthPercent': 0.45, 'rescaleHeight': False, 'trialN': 52, 'loaded': True, 'loadedTime': 2011.9000000953674, 'positionName': 'RIGHT', 'positionCoords': [798.72, 227], 'bid': 8.22}]",86660.79999995232,1669831848581,apple slices,roastedpotatoes,7.96,8.22,0.2600000000000007,roastedpotatoes,919.8000001907349,921,920.2000000476837,True,i,88091.10000014305,1430.3000001907349,1669831850012,1431,HRV,HRV_0147,2022-11-30 18:14:09
53,"[{'imgObject': {}, 'id': 'orange slices', 'src': '/static/foodstim60/orange slices.jpg', 'key': 'u', 'origWidth': 409, 'origHeight': 410, 'width': 409, 'height': 410, 'widthPercent': 0.45, 'rescaleHeight': False, 'trialN': 53, 'loaded': True, 'loadedTime': 2027.2999999523163, 'positionName': 'LEFT', 'positionCoords': [328.28, 227], 'bid': 5.53}, {'imgObject': {}, 'id': 'bagel and cc', 'src': '/static/foodstim60/bagel and cc.jpg', 'key': 'i', 'origWidth': 410, 'origHeight': 410, 'width': 410, 'height': 410, 'widthPercent': 0.45, 'rescaleHeight': False, 'trialN': 53, 'loaded': True, 'loadedTime': 2025.4000000953674, 'positionName': 'RIGHT', 'positionCoords': [798.72, 227], 'bid': 5.55}]",88091.29999995232,1669831850012,orange slices,bagel and cc,5.53,5.55,0.019999999999999574,orange slices,953.7000000476837,954,954.1000001430511,True,u,89553.79999995232,1462.5,1669831851474,1462,HRV,HRV_0147,2022-11-30 18:14:09
54,"[{'imgObject': {}, 'id': 'olives', 'src': '/static/foodstim60/olives.jpg', 'key': 'u', 'origWidth': 410, 'origHeight': 410, 'width': 410, 'height': 410, 'widthPercent': 0.45, 'rescaleHeight': False, 'trialN': 54, 'loaded': True, 'loadedTime': 2017.2000000476837, 'positionName': 'LEFT', 'positionCoords': [327.28, 227], 'bid': 0.22}, {'imgObject': {}, 'id': 'seaweed', 'src': '/static/foodstim60/seaweed.jpg', 'key': 'i', 'origWidth': 410, 'origHeight': 410, 'width': 410, 'height': 410, 'widthPercent': 0.45, 'rescaleHeight': False, 'trialN': 54, 'loaded': True, 'loadedTime': 2102, 'positionName': 'RIGHT', 'positionCoords': [798.72, 227], 'bid': 0.03}]",89554.0,1669831851475,olives,seaweed,0.22,0.03,-0.19,olives,730.5,731,730.9000000953674,True,u,90796.70000004768,1242.7000000476837,1669831852717,1242,HRV,HRV_0147,2022-11-30 18:14:09
55,"[{'imgObject': {}, 'id': 'cheerios', 'src': '/static/foodstim60/cheerios.jpg', 'key': 'u', 'origWidth': 409, 'origHeight': 410, 'width': 409, 'height': 410, 'widthPercent': 0.45, 'rescaleHeight': False, 'trialN': 55, 'loaded': True, 'loadedTime': 2088.4000000953674, 'positionName': 'LEFT', 'positionCoords': [328.28, 227], 'bid': 1.92}, {'imgObject': {}, 'id': 'seaweed', 'src': '/static/foodstim60/seaweed.jpg', 'key': 'i', 'origWidth': 410, 'origHeight': 410, 'width': 410, 'height': 410, 'widthPercent': 0.45, 'rescaleHeight': False, 'trialN': 55, 'loaded': True, 'loadedTime': 2101.9000000953674, 'positionName': 'RIGHT', 'positionCoords': [798.72, 227], 'bid': 0.03}]",90796.90000009537,1669831852718,cheerios,seaweed,1.92,0.03,-1.89,cheerios,681.5,681,681.5999999046326,True,u,91989.5,1192.5999999046326,1669831853910,1192,HRV,HRV_0147,2022-11-30 18:14:09
56,"[{'imgObject': {}, 'id': 'mashed potato', 'src': '/static/foodstim60/mashed potato.jpg', 'key': 'u', 'origWidth': 409, 'origHeight': 409, 'width': 409, 'height': 409, 'widthPercent': 0.45, 'rescaleHeight': False, 'trialN': 56, 'loaded': True, 'loadedTime': 2108.9000000953674, 'positionName': 'LEFT', 'positionCoords': [328.28, 227.5], 'bid': 5.32}, {'imgObject': {}, 'id': 'eggs', 'src': '/static/foodstim60/eggs.jpg', 'key': 'i', 'origWidth': 409, 'origHeight': 409, 'width': 409, 'height': 409, 'widthPercent': 0.45, 'rescaleHeight': False, 'trialN': 56, 'loaded': True, 'loadedTime': 2084.5, 'positionName': 'RIGHT', 'positionCoords': [798.72, 227.5], 'bid': 5.0200000000000005}]",91989.79999995232,1669831853910,mashed potato,eggs,5.32,5.0200000000000005,-0.2999999999999998,mashed potato,1492.1000001430511,1493,1492.2000000476837,True,u,93989.5,1999.7000000476837,1669831855910,2000,HRV,HRV_0147,2022-11-30 18:14:09
57,"[{'imgObject': {}, 'id': 'strawberries', 'src': '/static/foodstim60/strawberries.jpg', 'key': 'u', 'origWidth': 410, 'origHeight': 410, 'width': 410, 'height': 410, 'widthPercent': 0.45, 'rescaleHeight': False, 'trialN': 57, 'loaded': True, 'loadedTime': 2020.6000001430511, 'positionName': 'LEFT', 'positionCoords': [327.28, 227], 'bid': 6.66}, {'imgObject': {}, 'id': 'cantaloupe', 'src': '/static/foodstim60/cantaloupe.jpg', 'key': 'i', 'origWidth': 409, 'origHeight': 409, 'width': 409, 'height': 409, 'widthPercent': 0.45, 'rescaleHeight': False, 'trialN': 57, 'loaded': True, 'loadedTime': 2000.7999999523163, 'positionName': 'RIGHT', 'positionCoords': [798.72, 227.5], 'bid': 0.55}]",93989.70000004768,1669831855910,strawberries,cantaloupe,6.66,0.55,-6.11,strawberries,728.5,729,729.0999999046326,True,u,95230.60000014305,1240.9000000953674,1669831857151,1241,HRV,HRV_0147,2022-11-30 18:14:09
58,"[{'imgObject': {}, 'id': 'apple slices', 'src': '/static/foodstim60/apple slices.jpg', 'key': 'u', 'origWidth': 409, 'origHeight': 410, 'width': 409, 'height': 410, 'widthPercent': 0.45, 'rescaleHeight': False, 'trialN': 58, 'loaded': True, 'loadedTime': 2003.2000000476837, 'positionName': 'LEFT', 'positionCoords': [328.28, 227], 'bid': 7.96}, {'imgObject': {}, 'id': 'tacos', 'src': '/static/foodstim60/tacos.jpg', 'key': 'i', 'origWidth': 411, 'origHeight': 411, 'width': 411, 'height': 411, 'widthPercent': 0.45, 'rescaleHeight': False, 'trialN': 58, 'loaded': True, 'loadedTime': 2014.2999999523163, 'positionName': 'RIGHT', 'positionCoords': [798.72, 226.5], 'bid': 9.38}]",95230.90000009537,1669831857152,apple slices,tacos,7.96,9.38,1.4200000000000008,tacos,725.0,725,725.0999999046326,True,i,96458.70000004768,1227.7999999523163,1669831858379,1227,HRV,HRV_0147,2022-11-30 18:14:09
59,"[{'imgObject': {}, 'id': 'raspberries', 'src': '/static/foodstim60/raspberries.jpg', 'key': 'u', 'origWidth': 411, 'origHeight': 411, 'width': 411, 'height': 411, 'widthPercent': 0.45, 'rescaleHeight': False, 'trialN': 59, 'loaded': True, 'loadedTime': 2031.2999999523163, 'positionName': 'LEFT', 'positionCoords': [326.28, 226.5], 'bid': 7.26}, {'imgObject': {}, 'id': 'burrito', 'src': '/static/foodstim60/burrito.jpg', 'key': 'i', 'origWidth': 410, 'origHeight': 410, 'width': 410, 'height': 410, 'widthPercent': 0.45, 'rescaleHeight': False, 'trialN': 59, 'loaded': True, 'loadedTime': 2095.5, 'positionName': 'RIGHT', 'positionCoords': [798.72, 227], 'bid': 7.95}]",96458.90000009537,1669831858380,raspberries,burrito,7.26,7.95,0.6900000000000004,burrito,1494.7999999523163,1495,1495.2999999523163,True,i,98459.79999995232,2000.8999998569489,1669831860380,2000,HRV,HRV_0147,2022-11-30 18:14:09
60,"[{'imgObject': {}, 'id': 'sushi w_condiments', 'src': '/static/foodstim60/sushi w_condiments.jpg', 'key': 'u', 'origWidth': 410, 'origHeight': 410, 'width': 410, 'height': 410, 'widthPercent': 0.45, 'rescaleHeight': False, 'trialN': 60, 'loaded': True, 'loadedTime': 2021.9000000953674, 'positionName': 'LEFT', 'positionCoords': [327.28, 227], 'bid': 9.89}, {'imgObject': {}, 'id': 'orange slices', 'src': '/static/foodstim60/orange slices.jpg', 'key': 'i', 'origWidth': 409, 'origHeight': 410, 'width': 409, 'height': 410, 'widthPercent': 0.45, 'rescaleHeight': False, 'trialN': 60, 'loaded': True, 'loadedTime': 2028, 'positionName': 'RIGHT', 'positionCoords': [798.72, 227], 'bid': 5.53}]",98459.79999995232,1669831860381,sushi w_condiments,orange slices,9.89,5.53,-4.36,sushi w_condiments,946.6000001430511,946,946.7000000476837,True,u,99919.70000004768,1459.9000000953674,1669831861840,1459,HRV,HRV_0147,2022-11-30 18:14:09
61,"[{'imgObject': {}, 'id': 'burger', 'src': '/static/foodstim60/burger.jpg', 'key': 'u', 'origWidth': 409, 'origHeight': 409, 'width': 409, 'height': 409, 'widthPercent': 0.45, 'rescaleHeight': False, 'trialN': 61, 'loaded': True, 'loadedTime': 2104.2000000476837, 'positionName': 'LEFT', 'positionCoords': [328.28, 227.5], 'bid': 7.76}, {'imgObject': {}, 'id': 'cocktailshrimp', 'src': '/static/foodstim60/cocktailshrimp.jpg', 'key': 'i', 'origWidth': 410, 'origHeight': 410, 'width': 410, 'height': 410, 'widthPercent': 0.45, 'rescaleHeight': False, 'trialN': 61, 'loaded': True, 'loadedTime': 2041.1000001430511, 'positionName': 'RIGHT', 'positionCoords': [798.72, 227], 'bid': 8.77}]",99920.0,1669831861841,burger,cocktailshrimp,7.76,8.77,1.0099999999999998,cocktailshrimp,793.9000000953674,794,794.2000000476837,True,i,101222.79999995232,1302.7999999523163,1669831863143,1302,HRV,HRV_0147,2022-11-30 18:14:09
62,"[{'imgObject': {}, 'id': 'shreddedwheatwithmilk', 'src': '/static/foodstim60/shreddedwheatwithmilk.jpg', 'key': 'u', 'origWidth': 410, 'origHeight': 410, 'width': 410, 'height': 410, 'widthPercent': 0.45, 'rescaleHeight': False, 'trialN': 62, 'loaded': True, 'loadedTime': 2009, 'positionName': 'LEFT', 'positionCoords': [327.28, 227], 'bid': 0.88}, {'imgObject': {}, 'id': 'cantaloupe', 'src': '/static/foodstim60/cantaloupe.jpg', 'key': 'i', 'origWidth': 409, 'origHeight': 409, 'width': 409, 'height': 409, 'widthPercent': 0.45, 'rescaleHeight': False, 'trialN': 62, 'loaded': True, 'loadedTime': 2000.4000000953674, 'positionName': 'RIGHT', 'positionCoords': [798.72, 227.5], 'bid': 0.55}]",101222.90000009537,1669831863144,shreddedwheatwithmilk,cantaloupe,0.88,0.55,-0.32999999999999996,shreddedwheatwithmilk,970.7999999523163,971,971.3999998569489,True,u,102704.60000014305,1481.7000000476837,1669831864625,1481,HRV,HRV_0147,2022-11-30 18:14:09
63,"[{'imgObject': {}, 'id': 'baked potato', 'src': '/static/foodstim60/baked potato.jpg', 'key': 'u', 'origWidth': 409, 'origHeight': 410, 'width': 409, 'height': 410, 'widthPercent': 0.45, 'rescaleHeight': False, 'trialN': 63, 'loaded': True, 'loadedTime': 1985.7999999523163, 'positionName': 'LEFT', 'positionCoords': [328.28, 227], 'bid': 2.03}, {'imgObject': {}, 'id': 'turkeysandwich', 'src': '/static/foodstim60/turkeysandwich.jpg', 'key': 'i', 'origWidth': 409, 'origHeight': 409, 'width': 409, 'height': 409, 'widthPercent': 0.45, 'rescaleHeight': False, 'trialN': 63, 'loaded': True, 'loadedTime': 2030.1000001430511, 'positionName': 'RIGHT', 'positionCoords': [798.72, 227.5], 'bid': 7.85}]",102704.79999995232,1669831864625,baked potato,turkeysandwich,2.03,7.85,5.82,turkeysandwich,1034.6000001430511,1036,1035.2000000476837,True,i,104249.10000014305,1544.3000001907349,1669831866170,1545,HRV,HRV_0147,2022-11-30 18:14:09
64,"[{'imgObject': {}, 'id': 'veggieswithdip', 'src': '/static/foodstim60/veggieswithdip.jpg', 'key': 'u', 'origWidth': 409, 'origHeight': 409, 'width': 409, 'height': 409, 'widthPercent': 0.45, 'rescaleHeight': False, 'trialN': 64, 'loaded': True, 'loadedTime': 2075.2999999523163, 'positionName': 'LEFT', 'positionCoords': [328.28, 227.5], 'bid': 4.97}, {'imgObject': {}, 'id': 'tacos', 'src': '/static/foodstim60/tacos.jpg', 'key': 'i', 'origWidth': 411, 'origHeight': 411, 'width': 411, 'height': 411, 'widthPercent': 0.45, 'rescaleHeight': False, 'trialN': 64, 'loaded': True, 'loadedTime': 2014.1000001430511, 'positionName': 'RIGHT', 'positionCoords': [798.72, 226.5], 'bid': 9.38}]",104249.40000009537,1669831866170,veggieswithdip,tacos,4.97,9.38,4.410000000000001,tacos,733.3999998569489,734,733.7000000476837,True,i,105497.20000004768,1247.7999999523163,1669831867418,1248,HRV,HRV_0147,2022-11-30 18:14:09
65,"[{'imgObject': {}, 'id': 'ice cream sundae 002', 'src': '/static/foodstim60/ice cream sundae 002.jpg', 'key': 'u', 'origWidth': 409, 'origHeight': 409, 'width': 409, 'height': 409, 'widthPercent': 0.45, 'rescaleHeight': False, 'trialN': 65, 'loaded': True, 'loadedTime': 2037.4000000953674, 'positionName': 'LEFT', 'positionCoords': [328.28, 227.5], 'bid': 2.76}, {'imgObject': {}, 'id': 'burrito', 'src': '/static/foodstim60/burrito.jpg', 'key': 'i', 'origWidth': 410, 'origHeight': 410, 'width': 410, 'height': 410, 'widthPercent': 0.45, 'rescaleHeight': False, 'trialN': 65, 'loaded': True, 'loadedTime': 2095.7999999523163, 'positionName': 'RIGHT', 'positionCoords': [798.72, 227], 'bid': 7.95}]",105497.29999995232,1669831867418,ice cream sundae 002,burrito,2.76,7.95,5.19,burrito,1108.6000001430511,1109,1108.9000000953674,True,i,107118.10000014305,1620.8000001907349,1669831869039,1621,HRV,HRV_0147,2022-11-30 18:14:09
66,"[{'imgObject': {}, 'id': 'cocktailshrimp', 'src': '/static/foodstim60/cocktailshrimp.jpg', 'key': 'u', 'origWidth': 410, 'origHeight': 410, 'width': 410, 'height': 410, 'widthPercent': 0.45, 'rescaleHeight': False, 'trialN': 66, 'loaded': True, 'loadedTime': 2040.9000000953674, 'positionName': 'LEFT', 'positionCoords': [327.28, 227], 'bid': 8.77}, {'imgObject': {}, 'id': 'turkey sandwich', 'src': '/static/foodstim60/turkey sandwich.jpg', 'key': 'i', 'origWidth': 409, 'origHeight': 409, 'width': 409, 'height': 409, 'widthPercent': 0.45, 'rescaleHeight': False, 'trialN': 66, 'loaded': True, 'loadedTime': 2041.2999999523163, 'positionName': 'RIGHT', 'positionCoords': [798.72, 227.5], 'bid': 8.63}]",107118.29999995232,1669831869039,cocktailshrimp,turkey sandwich,8.77,8.63,-0.1399999999999988,cocktailshrimp,1046.6000001430511,1047,1046.9000000953674,True,u,108674.0,1555.7000000476837,1669831870595,1556,HRV,HRV_0147,2022-11-30 18:14:09
67,"[{'imgObject': {}, 'id': 'mac & cheese', 'src': '/static/foodstim60/mac & cheese.jpg', 'key': 'u', 'origWidth': 410, 'origHeight': 410, 'width': 410, 'height': 410, 'widthPercent': 0.45, 'rescaleHeight': False, 'trialN': 67, 'loaded': True, 'loadedTime': 2019.2999999523163, 'positionName': 'LEFT', 'positionCoords': [327.28, 227], 'bid': 4.37}, {'imgObject': {}, 'id': 'cherry tomato', 'src': '/static/foodstim60/cherry tomato.jpg', 'key': 'i', 'origWidth': 410, 'origHeight': 410, 'width': 410, 'height': 410, 'widthPercent': 0.45, 'rescaleHeight': False, 'trialN': 67, 'loaded': True, 'loadedTime': 2033.5, 'positionName': 'RIGHT', 'positionCoords': [798.72, 227], 'bid': 4.58}]",108674.10000014305,1669831870595,mac & cheese,cherry tomato,4.37,4.58,0.20999999999999996,cherry tomato,1877.5999999046326,1878,1878.0999999046326,True,i,111071.79999995232,2397.699999809265,1669831872993,2398,HRV,HRV_0147,2022-11-30 18:14:09
68,"[{'imgObject': {}, 'id': 'apple slices', 'src': '/static/foodstim60/apple slices.jpg', 'key': 'u', 'origWidth': 409, 'origHeight': 410, 'width': 409, 'height': 410, 'widthPercent': 0.45, 'rescaleHeight': False, 'trialN': 68, 'loaded': True, 'loadedTime': 2002.5, 'positionName': 'LEFT', 'positionCoords': [328.28, 227], 'bid': 7.96}, {'imgObject': {}, 'id': 'burrito', 'src': '/static/foodstim60/burrito.jpg', 'key': 'i', 'origWidth': 410, 'origHeight': 410, 'width': 410, 'height': 410, 'widthPercent': 0.45, 'rescaleHeight': False, 'trialN': 68, 'loaded': True, 'loadedTime': 2094.7999999523163, 'positionName': 'RIGHT', 'positionCoords': [798.72, 227], 'bid': 7.95}]",111072.10000014305,1669831872993,apple slices,burrito,7.96,7.95,-0.009999999999999787,burrito,1820.8999998569489,1821,1821.1999998092651,True,i,113416.20000004768,2344.0999999046326,1669831875337,2344,HRV,HRV_0147,2022-11-30 18:14:09
69,"[{'imgObject': {}, 'id': 'omelette', 'src': '/static/foodstim60/omelette.jpg', 'key': 'u', 'origWidth': 410, 'origHeight': 409, 'width': 410, 'height': 409, 'widthPercent': 0.45, 'rescaleHeight': False, 'trialN': 69, 'loaded': True, 'loadedTime': 2112.100000143051, 'positionName': 'LEFT', 'positionCoords': [327.28, 227.5], 'bid': 2.16}, {'imgObject': {}, 'id': 'olives', 'src': '/static/foodstim60/olives.jpg', 'key': 'i', 'origWidth': 410, 'origHeight': 410, 'width': 410, 'height': 410, 'widthPercent': 0.45, 'rescaleHeight': False, 'trialN': 69, 'loaded': True, 'loadedTime': 2016.2999999523163, 'positionName': 'RIGHT', 'positionCoords': [798.72, 227], 'bid': 0.22}]",113416.20000004768,1669831875337,omelette,olives,2.16,0.22,-1.9400000000000002,omelette,1043.0999999046326,1043,1043.2999999523163,True,u,114966.5,1550.2999999523163,1669831876887,1550,HRV,HRV_0147,2022-11-30 18:14:09
70,"[{'imgObject': {}, 'id': 'hashbrowns', 'src': '/static/foodstim60/hashbrowns.jpg', 'key': 'u', 'origWidth': 411, 'origHeight': 410, 'width': 411, 'height': 410, 'widthPercent': 0.45, 'rescaleHeight': False, 'trialN': 70, 'loaded': True, 'loadedTime': 2043.6000001430511, 'positionName': 'LEFT', 'positionCoords': [326.28, 227], 'bid': 3.73}, {'imgObject': {}, 'id': 'eggsalad', 'src': '/static/foodstim60/eggsalad.jpg', 'key': 'i', 'origWidth': 410, 'origHeight': 409, 'width': 410, 'height': 409, 'widthPercent': 0.45, 'rescaleHeight': False, 'trialN': 70, 'loaded': True, 'loadedTime': 2018, 'positionName': 'RIGHT', 'positionCoords': [798.72, 227.5], 'bid': 4.2}]",114966.70000004768,1669831876887,hashbrowns,eggsalad,3.73,4.2,0.4700000000000002,eggsalad,936.5,937,936.9000000953674,True,i,116413.29999995232,1446.5999999046326,1669831878334,1447,HRV,HRV_0147,2022-11-30 18:14:09
71,"[{'imgObject': {}, 'id': 'chicken nuggets2', 'src': '/static/foodstim60/chicken nuggets2.jpg', 'key': 'u', 'origWidth': 410, 'origHeight': 409, 'width': 410, 'height': 409, 'widthPercent': 0.45, 'rescaleHeight': False, 'trialN': 71, 'loaded': True, 'loadedTime': 2053.600000143051, 'positionName': 'LEFT', 'positionCoords': [327.28, 227.5], 'bid': 8.42}, {'imgObject': {}, 'id': 'sushi w_condiments', 'src': '/static/foodstim60/sushi w_condiments.jpg', 'key': 'i', 'origWidth': 410, 'origHeight': 410, 'width': 410, 'height': 410, 'widthPercent': 0.45, 'rescaleHeight': False, 'trialN': 71, 'loaded': True, 'loadedTime': 2022.1000001430511, 'positionName': 'RIGHT', 'positionCoords': [798.72, 227], 'bid': 9.89}]",116413.40000009537,1669831878334,chicken nuggets2,sushi w_condiments,8.42,9.89,1.4700000000000006,chicken nuggets2,837.2000000476837,837,837.2999999523163,True,u,117767.29999995232,1353.8999998569489,1669831879688,1354,HRV,HRV_0147,2022-11-30 18:14:09
72,"[{'imgObject': {}, 'id': 'popsicles', 'src': '/static/foodstim60/popsicles.jpg', 'key': 'u', 'origWidth': 410, 'origHeight': 410, 'width': 410, 'height': 410, 'widthPercent': 0.45, 'rescaleHeight': False, 'trialN': 72, 'loaded': True, 'loadedTime': 2112.9000000953674, 'positionName': 'LEFT', 'positionCoords': [327.28, 227], 'bid': 4.71}, {'imgObject': {}, 'id': 'salmon', 'src': '/static/foodstim60/salmon.jpg', 'key': 'i', 'origWidth': 410, 'origHeight': 409, 'width': 410, 'height': 409, 'widthPercent': 0.45, 'rescaleHeight': False, 'trialN': 72, 'loaded': True, 'loadedTime': 2034.9000000953674, 'positionName': 'RIGHT', 'positionCoords': [798.72, 227.5], 'bid': 9.11}]",117767.29999995232,1669831879688,popsicles,salmon,4.71,9.11,4.3999999999999995,salmon,863.7000000476837,864,864.1000001430511,True,i,119139.0,1371.7000000476837,1669831881060,1372,HRV,HRV_0147,2022-11-30 18:14:09
73,"[{'imgObject': {}, 'id': 'kiwi', 'src': '/static/foodstim60/kiwi.jpg', 'key': 'u', 'origWidth': 410, 'origHeight': 410, 'width': 410, 'height': 410, 'widthPercent': 0.45, 'rescaleHeight': False, 'trialN': 73, 'loaded': True, 'loadedTime': 2044.7000000476837, 'positionName': 'LEFT', 'positionCoords': [327.28, 227], 'bid': 0.09}, {'imgObject': {}, 'id': 'sweetpotato', 'src': '/static/foodstim60/sweetpotato.jpg', 'key': 'i', 'origWidth': 410, 'origHeight': 410, 'width': 410, 'height': 410, 'widthPercent': 0.45, 'rescaleHeight': False, 'trialN': 73, 'loaded': True, 'loadedTime': 2098.600000143051, 'positionName': 'RIGHT', 'positionCoords': [798.72, 227], 'bid': 1.22}]",119139.20000004768,1669831881060,kiwi,sweetpotato,0.09,1.22,1.13,sweetpotato,1294.7999999523163,1295,1295.0,True,i,120941.60000014305,1802.4000000953674,1669831882862,1802,HRV,HRV_0147,2022-11-30 18:14:09
74,"[{'imgObject': {}, 'id': 'tacos', 'src': '/static/foodstim60/tacos.jpg', 'key': 'u', 'origWidth': 411, 'origHeight': 411, 'width': 411, 'height': 411, 'widthPercent': 0.45, 'rescaleHeight': False, 'trialN': 74, 'loaded': True, 'loadedTime': 2014.4000000953674, 'positionName': 'LEFT', 'positionCoords': [326.28, 226.5], 'bid': 9.38}, {'imgObject': {}, 'id': 'turkey sandwich', 'src': '/static/foodstim60/turkey sandwich.jpg', 'key': 'i', 'origWidth': 409, 'origHeight': 409, 'width': 409, 'height': 409, 'widthPercent': 0.45, 'rescaleHeight': False, 'trialN': 74, 'loaded': True, 'loadedTime': 2042.5, 'positionName': 'RIGHT', 'positionCoords': [798.72, 227.5], 'bid': 8.63}]",120941.90000009537,1669831882862,tacos,turkey sandwich,9.38,8.63,-0.75,tacos,1267.5999999046326,1269,1268.0,True,u,122726.29999995232,1784.3999998569489,1669831884647,1785,HRV,HRV_0147,2022-11-30 18:14:09
75,"[{'imgObject': {}, 'id': 'yogurt no spoon', 'src': '/static/foodstim60/yogurt no spoon.jpg', 'key': 'u', 'origWidth': 411, 'origHeight': 410, 'width': 411, 'height': 410, 'widthPercent': 0.45, 'rescaleHeight': False, 'trialN': 75, 'loaded': True, 'loadedTime': 2039.6000001430511, 'positionName': 'LEFT', 'positionCoords': [326.28, 227], 'bid': 7.52}, {'imgObject': {}, 'id': 'bagel and cc', 'src': '/static/foodstim60/bagel and cc.jpg', 'key': 'i', 'origWidth': 410, 'origHeight': 410, 'width': 410, 'height': 410, 'widthPercent': 0.45, 'rescaleHeight': False, 'trialN': 75, 'loaded': True, 'loadedTime': 2025.2999999523163, 'positionName': 'RIGHT', 'positionCoords': [798.72, 227], 'bid': 5.55}]",122726.60000014305,1669831884647,yogurt no spoon,bagel and cc,7.52,5.55,-1.9699999999999998,yogurt no spoon,723.5,724,723.8999998569489,True,u,123957.5,1230.8999998569489,1669831885878,1231,HRV,HRV_0147,2022-11-30 18:14:09
76,"[{'imgObject': {}, 'id': 'rigatoni', 'src': '/static/foodstim60/rigatoni.jpg', 'key': 'u', 'origWidth': 411, 'origHeight': 411, 'width': 411, 'height': 411, 'widthPercent': 0.45, 'rescaleHeight': False, 'trialN': 76, 'loaded': True, 'loadedTime': 2010.6000001430511, 'positionName': 'LEFT', 'positionCoords': [326.28, 226.5], 'bid': 4.59}, {'imgObject': {}, 'id': 'shreddedwheatwithmilk', 'src': '/static/foodstim60/shreddedwheatwithmilk.jpg', 'key': 'i', 'origWidth': 410, 'origHeight': 410, 'width': 410, 'height': 410, 'widthPercent': 0.45, 'rescaleHeight': False, 'trialN': 76, 'loaded': True, 'loadedTime': 2009.1000001430511, 'positionName': 'RIGHT', 'positionCoords': [798.72, 227], 'bid': 0.88}]",123957.79999995232,1669831885878,rigatoni,shreddedwheatwithmilk,4.59,0.88,-3.71,shreddedwheatwithmilk,1364.0,1365,1364.2000000476837,True,i,125831.40000009537,1873.6000001430511,1669831887752,1874,HRV,HRV_0147,2022-11-30 18:14:09
77,"[{'imgObject': {}, 'id': 'roastedpotatoes', 'src': '/static/foodstim60/roastedpotatoes.jpg', 'key': 'u', 'origWidth': 409, 'origHeight': 410, 'width': 409, 'height': 410, 'widthPercent': 0.45, 'rescaleHeight': False, 'trialN': 77, 'loaded': True, 'loadedTime': 2011.6000001430511, 'positionName': 'LEFT', 'positionCoords': [328.28, 227], 'bid': 8.22}, {'imgObject': {}, 'id': 'froot loops w milk', 'src': '/static/foodstim60/froot loops w milk.jpg', 'key': 'i', 'origWidth': 410, 'origHeight': 410, 'width': 410, 'height': 410, 'widthPercent': 0.45, 'rescaleHeight': False, 'trialN': 77, 'loaded': True, 'loadedTime': 2050.600000143051, 'positionName': 'RIGHT', 'positionCoords': [798.72, 227], 'bid': 3.43}]",125831.5,1669831887752,roastedpotatoes,froot loops w milk,8.22,3.43,-4.790000000000001,roastedpotatoes,961.5,962,962.1000001430511,True,u,127310.5,1479.0,1669831889231,1479,HRV,HRV_0147,2022-11-30 18:14:09
78,"[{'imgObject': {}, 'id': 'apple slices', 'src': '/static/foodstim60/apple slices.jpg', 'key': 'u', 'origWidth': 409, 'origHeight': 410, 'width': 409, 'height': 410, 'widthPercent': 0.45, 'rescaleHeight': False, 'trialN': 78, 'loaded': True, 'loadedTime': 2001.2000000476837, 'positionName': 'LEFT', 'positionCoords': [328.28, 227], 'bid': 7.96}, {'imgObject': {}, 'id': 'luckycharms', 'src': '/static/foodstim60/luckycharms.jpg', 'key': 'i', 'origWidth': 410, 'origHeight': 409, 'width': 410, 'height': 409, 'widthPercent': 0.45, 'rescaleHeight': False, 'trialN': 78, 'loaded': True, 'loadedTime': 2024.6000001430511, 'positionName': 'RIGHT', 'positionCoords': [798.72, 227.5], 'bid': 2.76}]",127310.70000004768,1669831889231,apple slices,luckycharms,7.96,2.76,-5.2,apple slices,919.2000000476837,920,919.5,True,u,128744.40000009537,1433.7000000476837,1669831890665,1434,HRV,HRV_0147,2022-11-30 18:14:09
79,"[{'imgObject': {}, 'id': 'orange slices', 'src': '/static/foodstim60/orange slices.jpg', 'key': 'u', 'origWidth': 409, 'origHeight': 410, 'width': 409, 'height': 410, 'widthPercent': 0.45, 'rescaleHeight': False, 'trialN': 79, 'loaded': True, 'loadedTime': 2027.7000000476837, 'positionName': 'LEFT', 'positionCoords': [328.28, 227], 'bid': 5.53}, {'imgObject': {}, 'id': 'raspberries', 'src': '/static/foodstim60/raspberries.jpg', 'key': 'i', 'origWidth': 411, 'origHeight': 411, 'width': 411, 'height': 411, 'widthPercent': 0.45, 'rescaleHeight': False, 'trialN': 79, 'loaded': True, 'loadedTime': 2032.1000001430511, 'positionName': 'RIGHT', 'positionCoords': [798.72, 226.5], 'bid': 7.26}]",128744.40000009537,1669831890665,orange slices,raspberries,5.53,7.26,1.7299999999999995,raspberries,1024.7999999523163,1025,1025.2999999523163,True,i,130283.70000004768,1539.2999999523163,1669831892204,1539,HRV,HRV_0147,2022-11-30 18:14:09
80,"[{'imgObject': {}, 'id': 'banana', 'src': '/static/foodstim60/banana.jpg', 'key': 'u', 'origWidth': 410, 'origHeight': 410, 'width': 410, 'height': 410, 'widthPercent': 0.45, 'rescaleHeight': False, 'trialN': 80, 'loaded': True, 'loadedTime': 2036.4000000953674, 'positionName': 'LEFT', 'positionCoords': [327.28, 227], 'bid': 6.15}, {'imgObject': {}, 'id': 'seaweed', 'src': '/static/foodstim60/seaweed.jpg', 'key': 'i', 'origWidth': 410, 'origHeight': 410, 'width': 410, 'height': 410, 'widthPercent': 0.45, 'rescaleHeight': False, 'trialN': 80, 'loaded': True, 'loadedTime': 2102, 'positionName': 'RIGHT', 'positionCoords': [798.72, 227], 'bid': 0.03}]",130283.90000009537,1669831892204,banana,seaweed,6.15,0.03,-6.12,banana,667.0,668,667.5999999046326,True,u,131466.10000014305,1182.2000000476837,1669831893387,1183,HRV,HRV_0147,2022-11-30 18:14:09
81,"[{'imgObject': {}, 'id': 'banana', 'src': '/static/foodstim60/banana.jpg', 'key': 'u', 'origWidth': 410, 'origHeight': 410, 'width': 410, 'height': 410, 'widthPercent': 0.45, 'rescaleHeight': False, 'trialN': 81, 'loaded': True, 'loadedTime': 2035.4000000953674, 'positionName': 'LEFT', 'positionCoords': [327.28, 227], 'bid': 6.15}, {'imgObject': {}, 'id': 'veggieswithdip', 'src': '/static/foodstim60/veggieswithdip.jpg', 'key': 'i', 'origWidth': 409, 'origHeight': 409, 'width': 409, 'height': 409, 'widthPercent': 0.45, 'rescaleHeight': False, 'trialN': 81, 'loaded': True, 'loadedTime': 2075.2000000476837, 'positionName': 'RIGHT', 'positionCoords': [798.72, 227.5], 'bid': 4.97}]",131466.20000004768,1669831893387,banana,veggieswithdip,6.15,4.97,-1.1800000000000006,banana,913.4000000953674,914,913.5,True,u,132883.5,1417.2999999523163,1669831894804,1417,HRV,HRV_0147,2022-11-30 18:14:09
82,"[{'imgObject': {}, 'id': 'edamame', 'src': '/static/foodstim60/edamame.jpg', 'key': 'u', 'origWidth': 409, 'origHeight': 410, 'width': 409, 'height': 410, 'widthPercent': 0.45, 'rescaleHeight': False, 'trialN': 82, 'loaded': True, 'loadedTime': 2089.4000000953674, 'positionName': 'LEFT', 'positionCoords': [328.28, 227], 'bid': 3.08}, {'imgObject': {}, 'id': 'hashbrowns', 'src': '/static/foodstim60/hashbrowns.jpg', 'key': 'i', 'origWidth': 411, 'origHeight': 410, 'width': 411, 'height': 410, 'widthPercent': 0.45, 'rescaleHeight': False, 'trialN': 82, 'loaded': True, 'loadedTime': 2043.6000001430511, 'positionName': 'RIGHT', 'positionCoords': [798.72, 227], 'bid': 3.73}]",132883.70000004768,1669831894805,edamame,hashbrowns,3.08,3.73,0.6499999999999999,hashbrowns,1463.7000000476837,1464,1463.9000000953674,True,i,134862.40000009537,1978.7000000476837,1669831896783,1978,HRV,HRV_0147,2022-11-30 18:14:09
83,"[{'imgObject': {}, 'id': 'omelette', 'src': '/static/foodstim60/omelette.jpg', 'key': 'u', 'origWidth': 410, 'origHeight': 409, 'width': 410, 'height': 409, 'widthPercent': 0.45, 'rescaleHeight': False, 'trialN': 83, 'loaded': True, 'loadedTime': 2112.2999999523163, 'positionName': 'LEFT', 'positionCoords': [327.28, 227.5], 'bid': 2.16}, {'imgObject': {}, 'id': 'eggsalad', 'src': '/static/foodstim60/eggsalad.jpg', 'key': 'i', 'origWidth': 410, 'origHeight': 409, 'width': 410, 'height': 409, 'widthPercent': 0.45, 'rescaleHeight': False, 'trialN': 83, 'loaded': True, 'loadedTime': 2018.5, 'positionName': 'RIGHT', 'positionCoords': [798.72, 227.5], 'bid': 4.2}]",134862.70000004768,1669831896784,omelette,eggsalad,2.16,4.2,2.04,eggsalad,1443.0,1443,1443.2999999523163,True,i,136816.29999995232,1953.5999999046326,1669831898737,1953,HRV,HRV_0147,2022-11-30 18:14:09
84,"[{'imgObject': {}, 'id': 'cheerios', 'src': '/static/foodstim60/cheerios.jpg', 'key': 'u', 'origWidth': 409, 'origHeight': 410, 'width': 409, 'height': 410, 'widthPercent': 0.45, 'rescaleHeight': False, 'trialN': 84, 'loaded': True, 'loadedTime': 2086.4000000953674, 'positionName': 'LEFT', 'positionCoords': [328.28, 227], 'bid': 1.92}, {'imgObject': {}, 'id': 'Tribe humus pita', 'src': '/static/foodstim60/Tribe humus pita.jpg', 'key': 'i', 'origWidth': 411, 'origHeight': 411, 'width': 411, 'height': 411, 'widthPercent': 0.45, 'rescaleHeight': False, 'trialN': 84, 'loaded': True, 'loadedTime': 2097.9000000953674, 'positionName': 'RIGHT', 'positionCoords': [798.72, 226.5], 'bid': 1.51}]",136816.60000014305,1669831898738,cheerios,Tribe humus pita,1.92,1.51,-0.4099999999999999,cheerios,1168.8999998569489,1169,1169.2999999523163,True,u,138492.5,1675.8999998569489,1669831900413,1675,HRV,HRV_0147,2022-11-30 18:14:09
85,"[{'imgObject': {}, 'id': 'turkey sandwich', 'src': '/static/foodstim60/turkey sandwich.jpg', 'key': 'u', 'origWidth': 409, 'origHeight': 409, 'width': 409, 'height': 409, 'widthPercent': 0.45, 'rescaleHeight': False, 'trialN': 85, 'loaded': True, 'loadedTime': 2042.4000000953674, 'positionName': 'LEFT', 'positionCoords': [328.28, 227.5], 'bid': 8.63}, {'imgObject': {}, 'id': 'fruitsalad', 'src': '/static/foodstim60/fruitsalad.jpg', 'key': 'i', 'origWidth': 410, 'origHeight': 410, 'width': 410, 'height': 410, 'widthPercent': 0.45, 'rescaleHeight': False, 'trialN': 85, 'loaded': True, 'loadedTime': 2005.6000001430511, 'positionName': 'RIGHT', 'positionCoords': [798.72, 227], 'bid': 6.62}]",138492.70000004768,1669831900414,turkey sandwich,fruitsalad,8.63,6.62,-2.0100000000000007,turkey sandwich,780.4000000953674,780,780.7000000476837,True,u,139782.60000014305,1289.9000000953674,1669831901704,1290,HRV,HRV_0147,2022-11-30 18:14:09
86,"[{'imgObject': {}, 'id': 'sushi w_condiments', 'src': '/static/foodstim60/sushi w_condiments.jpg', 'key': 'u', 'origWidth': 410, 'origHeight': 410, 'width': 410, 'height': 410, 'widthPercent': 0.45, 'rescaleHeight': False, 'trialN': 86, 'loaded': True, 'loadedTime': 2022.4000000953674, 'positionName': 'LEFT', 'positionCoords': [327.28, 227], 'bid': 9.89}, {'imgObject': {}, 'id': 'grilled chicken strips', 'src': '/static/foodstim60/grilled chicken strips.jpg', 'key': 'i', 'origWidth': 410, 'origHeight': 411, 'width': 410, 'height': 411, 'widthPercent': 0.45, 'rescaleHeight': False, 'trialN': 86, 'loaded': True, 'loadedTime': 2052.7000000476837, 'positionName': 'RIGHT', 'positionCoords': [798.72, 226.5], 'bid': 8.97}]",139782.79999995232,1669831901704,sushi w_condiments,grilled chicken strips,9.89,8.97,-0.9199999999999999,sushi w_condiments,753.7000000476837,754,753.9000000953674,True,u,141056.29999995232,1273.5,1669831902977,1273,HRV,HRV_0147,2022-11-30 18:14:09
87,"[{'imgObject': {}, 'id': 'avocado', 'src': '/static/foodstim60/avocado.jpg', 'key': 'u', 'origWidth': 409, 'origHeight': 409, 'width': 409, 'height': 409, 'widthPercent': 0.45, 'rescaleHeight': False, 'trialN': 87, 'loaded': True, 'loadedTime': 2078.9000000953674, 'positionName': 'LEFT', 'positionCoords': [328.28, 227.5], 'bid': 0}, {'imgObject': {}, 'id': 'Tribe humus pita', 'src': '/static/foodstim60/Tribe humus pita.jpg', 'key': 'i', 'origWidth': 411, 'origHeight': 411, 'width': 411, 'height': 411, 'widthPercent': 0.45, 'rescaleHeight': False, 'trialN': 87, 'loaded': True, 'loadedTime': 2098, 'positionName': 'RIGHT', 'positionCoords': [798.72, 226.5], 'bid': 1.51}]",141056.5,1669831902977,avocado,Tribe humus pita,0.0,1.51,1.51,Tribe humus pita,988.2000000476837,989,988.6000001430511,True,i,142562.90000009537,1506.4000000953674,1669831904484,1507,HRV,HRV_0147,2022-11-30 18:14:09
88,"[{'imgObject': {}, 'id': 'blueberries', 'src': '/static/foodstim60/blueberries.jpg', 'key': 'u', 'origWidth': 411, 'origHeight': 411, 'width': 411, 'height': 411, 'widthPercent': 0.45, 'rescaleHeight': False, 'trialN': 88, 'loaded': True, 'loadedTime': 2055, 'positionName': 'LEFT', 'positionCoords': [326.28, 226.5], 'bid': 6.25}, {'imgObject': {}, 'id': 'fruitsalad', 'src': '/static/foodstim60/fruitsalad.jpg', 'key': 'i', 'origWidth': 410, 'origHeight': 410, 'width': 410, 'height': 410, 'widthPercent': 0.45, 'rescaleHeight': False, 'trialN': 88, 'loaded': True, 'loadedTime': 2004, 'positionName': 'RIGHT', 'positionCoords': [798.72, 227], 'bid': 6.62}]",142563.20000004768,1669831904484,blueberries,fruitsalad,6.25,6.62,0.3700000000000001,fruitsalad,846.5999999046326,847,846.7999999523163,True,i,143927.90000009537,1364.7000000476837,1669831905849,1365,HRV,HRV_0147,2022-11-30 18:14:09
89,"[{'imgObject': {}, 'id': 'raspberries', 'src': '/static/foodstim60/raspberries.jpg', 'key': 'u', 'origWidth': 411, 'origHeight': 411, 'width': 411, 'height': 411, 'widthPercent': 0.45, 'rescaleHeight': False, 'trialN': 89, 'loaded': True, 'loadedTime': 2032, 'positionName': 'LEFT', 'positionCoords': [326.28, 226.5], 'bid': 7.26}, {'imgObject': {}, 'id': 'salmon', 'src': '/static/foodstim60/salmon.jpg', 'key': 'i', 'origWidth': 410, 'origHeight': 409, 'width': 410, 'height': 409, 'widthPercent': 0.45, 'rescaleHeight': False, 'trialN': 89, 'loaded': True, 'loadedTime': 2035.2000000476837, 'positionName': 'RIGHT', 'positionCoords': [798.72, 227.5], 'bid': 9.11}]",143928.29999995232,1669831905849,raspberries,salmon,7.26,9.11,1.8499999999999996,salmon,1036.7000000476837,1037,1036.9000000953674,True,i,145465.79999995232,1537.5,1669831907387,1538,HRV,HRV_0147,2022-11-30 18:14:09
90,"[{'imgObject': {}, 'id': 'eggsalad', 'src': '/static/foodstim60/eggsalad.jpg', 'key': 'u', 'origWidth': 410, 'origHeight': 409, 'width': 410, 'height': 409, 'widthPercent': 0.45, 'rescaleHeight': False, 'trialN': 90, 'loaded': True, 'loadedTime': 2018.2000000476837, 'positionName': 'LEFT', 'positionCoords': [327.28, 227.5], 'bid': 4.2}, {'imgObject': {}, 'id': 'turkey sandwich', 'src': '/static/foodstim60/turkey sandwich.jpg', 'key': 'i', 'origWidth': 409, 'origHeight': 409, 'width': 409, 'height': 409, 'widthPercent': 0.45, 'rescaleHeight': False, 'trialN': 90, 'loaded': True, 'loadedTime': 2042.4000000953674, 'positionName': 'RIGHT', 'positionCoords': [798.72, 227.5], 'bid': 8.63}]",148089.70000004768,1669831910011,eggsalad,turkey sandwich,4.2,8.63,4.430000000000001,turkey sandwich,1046.4000000953674,1046,1046.9000000953674,True,i,149650.0,1560.2999999523163,1669831911571,1560,HRV,HRV_0147,2022-11-30 18:14:09
91,"[{'imgObject': {}, 'id': 'kiwi', 'src': '/static/foodstim60/kiwi.jpg', 'key': 'u', 'origWidth': 410, 'origHeight': 410, 'width': 410, 'height': 410, 'widthPercent': 0.45, 'rescaleHeight': False, 'trialN': 91, 'loaded': True, 'loadedTime': 2048.9000000953674, 'positionName': 'LEFT', 'positionCoords': [327.28, 227], 'bid': 0.09}, {'imgObject': {}, 'id': 'avocado', 'src': '/static/foodstim60/avocado.jpg', 'key': 'i', 'origWidth': 409, 'origHeight': 409, 'width': 409, 'height': 409, 'widthPercent': 0.45, 'rescaleHeight': False, 'trialN': 91, 'loaded': True, 'loadedTime': 2077.600000143051, 'positionName': 'RIGHT', 'positionCoords': [798.72, 227.5], 'bid': 0}]",149650.29999995232,1669831911571,kiwi,avocado,0.09,0.0,-0.09,avocado,1519.6000001430511,1520,1520.0,True,i,151681.60000014305,2031.3000001907349,1669831913603,2032,HRV,HRV_0147,2022-11-30 18:14:09
92,"[{'imgObject': {}, 'id': 'corn cob', 'src': '/static/foodstim60/corn cob.jpg', 'key': 'u', 'origWidth': 411, 'origHeight': 411, 'width': 411, 'height': 411, 'widthPercent': 0.45, 'rescaleHeight': False, 'trialN': 92, 'loaded': True, 'loadedTime': 2023.2999999523163, 'positionName': 'LEFT', 'positionCoords': [326.28, 226.5], 'bid': 6.57}, {'imgObject': {}, 'id': 'mashed potato', 'src': '/static/foodstim60/mashed potato.jpg', 'key': 'i', 'origWidth': 409, 'origHeight': 409, 'width': 409, 'height': 409, 'widthPercent': 0.45, 'rescaleHeight': False, 'trialN': 92, 'loaded': True, 'loadedTime': 2109.2000000476837, 'positionName': 'RIGHT', 'positionCoords': [798.72, 227.5], 'bid': 5.32}]",151681.70000004768,1669831913603,corn cob,mashed potato,6.57,5.32,-1.25,mashed potato,1439.4000000953674,1440,1439.9000000953674,True,i,153638.20000004768,1956.5,1669831915559,1956,HRV,HRV_0147,2022-11-30 18:14:09
93,"[{'imgObject': {}, 'id': 'grilled chicken strips', 'src': '/static/foodstim60/grilled chicken strips.jpg', 'key': 'u', 'origWidth': 410, 'origHeight': 411, 'width': 410, 'height': 411, 'widthPercent': 0.45, 'rescaleHeight': False, 'trialN': 93, 'loaded': True, 'loadedTime': 2052.2999999523163, 'positionName': 'LEFT', 'positionCoords': [327.28, 226.5], 'bid': 8.97}, {'imgObject': {}, 'id': 'rigatoni and sauce', 'src': '/static/foodstim60/rigatoni and sauce.jpg', 'key': 'i', 'origWidth': 410, 'origHeight': 411, 'width': 410, 'height': 411, 'widthPercent': 0.45, 'rescaleHeight': False, 'trialN': 93, 'loaded': True, 'loadedTime': 2012.7999999523163, 'positionName': 'RIGHT', 'positionCoords': [798.72, 226.5], 'bid': 9.11}]",153638.40000009537,1669831915559,grilled chicken strips,rigatoni and sauce,8.97,9.11,0.1399999999999988,rigatoni and sauce,861.2999999523163,862,861.3999998569489,True,i,155006.60000014305,1368.2000000476837,1669831916928,1369,HRV,HRV_0147,2022-11-30 18:14:09
94,"[{'imgObject': {}, 'id': 'mashed potato', 'src': '/static/foodstim60/mashed potato.jpg', 'key': 'u', 'origWidth': 409, 'origHeight': 409, 'width': 409, 'height': 409, 'widthPercent': 0.45, 'rescaleHeight': False, 'trialN': 94, 'loaded': True, 'loadedTime': 2109.2000000476837, 'positionName': 'LEFT', 'positionCoords': [328.28, 227.5], 'bid': 5.32}, {'imgObject': {}, 'id': 'Grapes', 'src': '/static/foodstim60/Grapes.jpg', 'key': 'i', 'origWidth': 411, 'origHeight': 411, 'width': 411, 'height': 411, 'widthPercent': 0.45, 'rescaleHeight': False, 'trialN': 94, 'loaded': True, 'loadedTime': 1969.2999999523163, 'positionName': 'RIGHT', 'positionCoords': [798.72, 226.5], 'bid': 7.21}]",155006.79999995232,1669831916928,mashed potato,Grapes,5.32,7.21,1.8899999999999997,Grapes,1551.3000001907349,1551,1551.5,True,i,157072.10000014305,2065.300000190735,1669831918993,2065,HRV,HRV_0147,2022-11-30 18:14:09
95,"[{'imgObject': {}, 'id': 'ice cream sundae 002', 'src': '/static/foodstim60/ice cream sundae 002.jpg', 'key': 'u', 'origWidth': 409, 'origHeight': 409, 'width': 409, 'height': 409, 'widthPercent': 0.45, 'rescaleHeight': False, 'trialN': 95, 'loaded': True, 'loadedTime': 2037.2000000476837, 'positionName': 'LEFT', 'positionCoords': [328.28, 227.5], 'bid': 2.76}, {'imgObject': {}, 'id': 'baked potato', 'src': '/static/foodstim60/baked potato.jpg', 'key': 'i', 'origWidth': 409, 'origHeight': 410, 'width': 409, 'height': 410, 'widthPercent': 0.45, 'rescaleHeight': False, 'trialN': 95, 'loaded': True, 'loadedTime': 1985, 'positionName': 'RIGHT', 'positionCoords': [798.72, 227], 'bid': 2.03}]",157072.40000009537,1669831918993,ice cream sundae 002,baked potato,2.76,2.03,-0.73,baked potato,1650.0,1651,1650.5,True,i,159239.5,2167.0999999046326,1669831921160,2167,HRV,HRV_0147,2022-11-30 18:14:09
96,"[{'imgObject': {}, 'id': 'pear', 'src': '/static/foodstim60/pear.jpg', 'key': 'u', 'origWidth': 411, 'origHeight': 410, 'width': 411, 'height': 410, 'widthPercent': 0.45, 'rescaleHeight': False, 'trialN': 96, 'loaded': True, 'loadedTime': 2029.1000001430511, 'positionName': 'LEFT', 'positionCoords': [326.28, 227], 'bid': 8.67}, {'imgObject': {}, 'id': 'fried eggs', 'src': '/static/foodstim60/fried eggs.jpg', 'key': 'i', 'origWidth': 410, 'origHeight': 410, 'width': 410, 'height': 410, 'widthPercent': 0.45, 'rescaleHeight': False, 'trialN': 96, 'loaded': True, 'loadedTime': 2031.1000001430511, 'positionName': 'RIGHT', 'positionCoords': [798.72, 227], 'bid': 7.56}]",159239.60000014305,1669831921161,pear,fried eggs,8.67,7.56,-1.1100000000000003,fried eggs,912.6999998092651,913,913.1999998092651,True,i,160671.79999995232,1432.1999998092651,1669831922593,1432,HRV,HRV_0147,2022-11-30 18:14:09
97,"[{'imgObject': {}, 'id': 'orange slices', 'src': '/static/foodstim60/orange slices.jpg', 'key': 'u', 'origWidth': 409, 'origHeight': 410, 'width': 409, 'height': 410, 'widthPercent': 0.45, 'rescaleHeight': False, 'trialN': 97, 'loaded': True, 'loadedTime': 2028, 'positionName': 'LEFT', 'positionCoords': [328.28, 227], 'bid': 5.53}, {'imgObject': {}, 'id': 'cherries', 'src': '/static/foodstim60/cherries.jpg', 'key': 'i', 'origWidth': 410, 'origHeight': 411, 'width': 410, 'height': 411, 'widthPercent': 0.45, 'rescaleHeight': False, 'trialN': 97, 'loaded': True, 'loadedTime': 2080.7000000476837, 'positionName': 'RIGHT', 'positionCoords': [798.72, 226.5], 'bid': 6.1000000000000005}]",160672.0,1669831922593,orange slices,cherries,5.53,6.1000000000000005,0.5700000000000003,cherries,1432.2999999523163,1433,1432.7999999523163,True,i,162619.20000004768,1947.2000000476837,1669831924540,1947,HRV,HRV_0147,2022-11-30 18:14:09
98,"[{'imgObject': {}, 'id': 'raspberries', 'src': '/static/foodstim60/raspberries.jpg', 'key': 'u', 'origWidth': 411, 'origHeight': 411, 'width': 411, 'height': 411, 'widthPercent': 0.45, 'rescaleHeight': False, 'trialN': 98, 'loaded': True, 'loadedTime': 2032.1000001430511, 'positionName': 'LEFT', 'positionCoords': [326.28, 226.5], 'bid': 7.26}, {'imgObject': {}, 'id': 'salad w chicken', 'src': '/static/foodstim60/salad w chicken.jpg', 'key': 'i', 'origWidth': 411, 'origHeight': 411, 'width': 411, 'height': 411, 'widthPercent': 0.45, 'rescaleHeight': False, 'trialN': 98, 'loaded': True, 'loadedTime': 2016, 'positionName': 'RIGHT', 'positionCoords': [798.72, 226.5], 'bid': 7.18}]",162619.5,1669831924540,raspberries,salad w chicken,7.26,7.18,-0.08000000000000007,raspberries,1248.7000000476837,1249,1249.0,True,u,164379.40000009537,1759.9000000953674,1669831926300,1760,HRV,HRV_0147,2022-11-30 18:14:09
99,"[{'imgObject': {}, 'id': 'olives', 'src': '/static/foodstim60/olives.jpg', 'key': 'u', 'origWidth': 410, 'origHeight': 410, 'width': 410, 'height': 410, 'widthPercent': 0.45, 'rescaleHeight': False, 'trialN': 99, 'loaded': True, 'loadedTime': 2016.7999999523163, 'positionName': 'LEFT', 'positionCoords': [327.28, 227], 'bid': 0.22}, {'imgObject': {}, 'id': 'kiwi', 'src': '/static/foodstim60/kiwi.jpg', 'key': 'i', 'origWidth': 410, 'origHeight': 410, 'width': 410, 'height': 410, 'widthPercent': 0.45, 'rescaleHeight': False, 'trialN': 99, 'loaded': True, 'loadedTime': 2044.5, 'positionName': 'RIGHT', 'positionCoords': [798.72, 227], 'bid': 0.09}]",164379.70000004768,1669831926301,olives,kiwi,0.22,0.09,-0.13,olives,1756.5,1756,1756.7999999523163,True,u,166643.60000014305,2263.9000000953674,1669831928565,2264,HRV,HRV_0147,2022-11-30 18:14:09
100,"[{'imgObject': {}, 'id': 'salmon', 'src': '/static/foodstim60/salmon.jpg', 'key': 'u', 'origWidth': 410, 'origHeight': 409, 'width': 410, 'height': 409, 'widthPercent': 0.45, 'rescaleHeight': False, 'trialN': 100, 'loaded': True, 'loadedTime': 2033.7999999523163, 'positionName': 'LEFT', 'positionCoords': [327.28, 227.5], 'bid': 9.11}, {'imgObject': {}, 'id': 'hotdog w must', 'src': '/static/foodstim60/hotdog w must.jpg', 'key': 'i', 'origWidth': 409, 'origHeight': 409, 'width': 409, 'height': 409, 'widthPercent': 0.45, 'rescaleHeight': False, 'trialN': 100, 'loaded': True, 'loadedTime': 2082.2000000476837, 'positionName': 'RIGHT', 'positionCoords': [798.72, 227.5], 'bid': 7.86}]",166643.70000004768,1669831928565,salmon,hotdog w must,9.11,7.86,-1.2499999999999991,salmon,1514.4000000953674,1514,1514.7000000476837,True,u,168678.20000004768,2034.5,1669831930599,2034,HRV,HRV_0147,2022-11-30 18:14:09
101,"[{'imgObject': {}, 'id': 'apple slices', 'src': '/static/foodstim60/apple slices.jpg', 'key': 'u', 'origWidth': 409, 'origHeight': 410, 'width': 409, 'height': 410, 'widthPercent': 0.45, 'rescaleHeight': False, 'trialN': 101, 'loaded': True, 'loadedTime': 2002.2000000476837, 'positionName': 'LEFT', 'positionCoords': [328.28, 227], 'bid': 7.96}, {'imgObject': {}, 'id': 'yogurt no spoon', 'src': '/static/foodstim60/yogurt no spoon.jpg', 'key': 'i', 'origWidth': 411, 'origHeight': 410, 'width': 411, 'height': 410, 'widthPercent': 0.45, 'rescaleHeight': False, 'trialN': 101, 'loaded': True, 'loadedTime': 2039.6000001430511, 'positionName': 'RIGHT', 'positionCoords': [798.72, 227], 'bid': 7.52}]",168678.5,1669831930599,apple slices,yogurt no spoon,7.96,7.52,-0.4400000000000004,yogurt no spoon,1232.0,1233,1232.2999999523163,True,i,170431.10000014305,1752.6000001430511,1669831932352,1753,HRV,HRV_0147,2022-11-30 18:14:09
102,"[{'imgObject': {}, 'id': 'lox', 'src': '/static/foodstim60/lox.jpg', 'key': 'u', 'origWidth': 410, 'origHeight': 411, 'width': 410, 'height': 411, 'widthPercent': 0.45, 'rescaleHeight': False, 'trialN': 102, 'loaded': True, 'loadedTime': 2038.6000001430511, 'positionName': 'LEFT', 'positionCoords': [327.28, 226.5], 'bid': 8.17}, {'imgObject': {}, 'id': 'burrito', 'src': '/static/foodstim60/burrito.jpg', 'key': 'i', 'origWidth': 410, 'origHeight': 410, 'width': 410, 'height': 410, 'widthPercent': 0.45, 'rescaleHeight': False, 'trialN': 102, 'loaded': True, 'loadedTime': 2095.7000000476837, 'positionName': 'RIGHT', 'positionCoords': [798.72, 227], 'bid': 7.95}]",170431.29999995232,1669831932352,lox,burrito,8.17,7.95,-0.21999999999999975,lox,1059.6000001430511,1060,1060.1000001430511,True,u,171998.10000014305,1566.8000001907349,1669831933919,1567,HRV,HRV_0147,2022-11-30 18:14:09
103,"[{'imgObject': {}, 'id': 'lox', 'src': '/static/foodstim60/lox.jpg', 'key': 'u', 'origWidth': 410, 'origHeight': 411, 'width': 410, 'height': 411, 'widthPercent': 0.45, 'rescaleHeight': False, 'trialN': 103, 'loaded': True, 'loadedTime': 2038.6000001430511, 'positionName': 'LEFT', 'positionCoords': [327.28, 226.5], 'bid': 8.17}, {'imgObject': {}, 'id': 'roastedpotatoes', 'src': '/static/foodstim60/roastedpotatoes.jpg', 'key': 'i', 'origWidth': 409, 'origHeight': 410, 'width': 409, 'height': 410, 'widthPercent': 0.45, 'rescaleHeight': False, 'trialN': 103, 'loaded': True, 'loadedTime': 2011.7000000476837, 'positionName': 'RIGHT', 'positionCoords': [798.72, 227], 'bid': 8.22}]",171998.29999995232,1669831933919,lox,roastedpotatoes,8.17,8.22,0.05000000000000071,roastedpotatoes,1012.7000000476837,1013,1013.1000001430511,True,i,173521.5,1523.2000000476837,1669831935442,1523,HRV,HRV_0147,2022-11-30 18:14:09
104,"[{'imgObject': {}, 'id': 'cocktailshrimp', 'src': '/static/foodstim60/cocktailshrimp.jpg', 'key': 'u', 'origWidth': 410, 'origHeight': 410, 'width': 410, 'height': 410, 'widthPercent': 0.45, 'rescaleHeight': False, 'trialN': 104, 'loaded': True, 'loadedTime': 2039.9000000953674, 'positionName': 'LEFT', 'positionCoords': [327.28, 227], 'bid': 8.77}, {'imgObject': {}, 'id': 'cherry tomato', 'src': '/static/foodstim60/cherry tomato.jpg', 'key': 'i', 'origWidth': 410, 'origHeight': 410, 'width': 410, 'height': 410, 'widthPercent': 0.45, 'rescaleHeight': False, 'trialN': 104, 'loaded': True, 'loadedTime': 2033.6000001430511, 'positionName': 'RIGHT', 'positionCoords': [798.72, 227], 'bid': 4.58}]",173521.5,1669831935442,cocktailshrimp,cherry tomato,8.77,4.58,-4.1899999999999995,cocktailshrimp,860.2000000476837,861,860.4000000953674,True,u,174895.20000004768,1373.7000000476837,1669831936816,1374,HRV,HRV_0147,2022-11-30 18:14:09
105,"[{'imgObject': {}, 'id': 'raisin bran w milk', 'src': '/static/foodstim60/raisin bran w milk.jpg', 'key': 'u', 'origWidth': 411, 'origHeight': 411, 'width': 411, 'height': 411, 'widthPercent': 0.45, 'rescaleHeight': False, 'trialN': 105, 'loaded': True, 'loadedTime': 2094.5, 'positionName': 'LEFT', 'positionCoords': [326.28, 226.5], 'bid': 0.67}, {'imgObject': {}, 'id': 'shreddedwheatwithmilk', 'src': '/static/foodstim60/shreddedwheatwithmilk.jpg', 'key': 'i', 'origWidth': 410, 'origHeight': 410, 'width': 410, 'height': 410, 'widthPercent': 0.45, 'rescaleHeight': False, 'trialN': 105, 'loaded': True, 'loadedTime': 2009.5, 'positionName': 'RIGHT', 'positionCoords': [798.72, 227], 'bid': 0.88}]",174895.29999995232,1669831936816,raisin bran w milk,shreddedwheatwithmilk,0.67,0.88,0.20999999999999996,shreddedwheatwithmilk,1238.1000001430511,1239,1238.5,True,i,176655.79999995232,1760.5,1669831938577,1761,HRV,HRV_0147,2022-11-30 18:14:09
106,"[{'imgObject': {}, 'id': 'kiwi', 'src': '/static/foodstim60/kiwi.jpg', 'key': 'u', 'origWidth': 410, 'origHeight': 410, 'width': 410, 'height': 410, 'widthPercent': 0.45, 'rescaleHeight': False, 'trialN': 106, 'loaded': True, 'loadedTime': 2043.7000000476837, 'positionName': 'LEFT', 'positionCoords': [327.28, 227], 'bid': 0.09}, {'imgObject': {}, 'id': 'blueberries', 'src': '/static/foodstim60/blueberries.jpg', 'key': 'i', 'origWidth': 411, 'origHeight': 411, 'width': 411, 'height': 411, 'widthPercent': 0.45, 'rescaleHeight': False, 'trialN': 106, 'loaded': True, 'loadedTime': 2054, 'positionName': 'RIGHT', 'positionCoords': [798.72, 226.5], 'bid': 6.25}]",176656.20000004768,1669831938577,kiwi,blueberries,0.09,6.25,6.16,blueberries,883.7000000476837,884,884.2000000476837,True,i,178054.40000009537,1398.2000000476837,1669831939975,1398,HRV,HRV_0147,2022-11-30 18:14:09
107,"[{'imgObject': {}, 'id': 'bagel plain', 'src': '/static/foodstim60/bagel plain.jpg', 'key': 'u', 'origWidth': 410, 'origHeight': 410, 'width': 410, 'height': 410, 'widthPercent': 0.45, 'rescaleHeight': False, 'trialN': 107, 'loaded': True, 'loadedTime': 2072.100000143051, 'positionName': 'LEFT', 'positionCoords': [327.28, 227], 'bid': 4.84}, {'imgObject': {}, 'id': 'eggs', 'src': '/static/foodstim60/eggs.jpg', 'key': 'i', 'origWidth': 409, 'origHeight': 409, 'width': 409, 'height': 409, 'widthPercent': 0.45, 'rescaleHeight': False, 'trialN': 107, 'loaded': True, 'loadedTime': 2082.7000000476837, 'positionName': 'RIGHT', 'positionCoords': [798.72, 227.5], 'bid': 5.0200000000000005}]",178054.60000014305,1669831939976,bagel plain,eggs,4.84,5.0200000000000005,0.1800000000000006,eggs,1171.7999999523163,1172,1172.1999998092651,True,i,179736.0,1681.3999998569489,1669831941657,1681,HRV,HRV_0147,2022-11-30 18:14:09
108,"[{'imgObject': {}, 'id': 'popsicles', 'src': '/static/foodstim60/popsicles.jpg', 'key': 'u', 'origWidth': 410, 'origHeight': 410, 'width': 410, 'height': 410, 'widthPercent': 0.45, 'rescaleHeight': False, 'trialN': 108, 'loaded': True, 'loadedTime': 2113.7999999523163, 'positionName': 'LEFT', 'positionCoords': [327.28, 227], 'bid': 4.71}, {'imgObject': {}, 'id': 'sweetpotato', 'src': '/static/foodstim60/sweetpotato.jpg', 'key': 'i', 'origWidth': 410, 'origHeight': 410, 'width': 410, 'height': 410, 'widthPercent': 0.45, 'rescaleHeight': False, 'trialN': 108, 'loaded': True, 'loadedTime': 2099.4000000953674, 'positionName': 'RIGHT', 'positionCoords': [798.72, 227], 'bid': 1.22}]",179736.29999995232,1669831941657,popsicles,sweetpotato,4.71,1.22,-3.49,popsicles,851.9000000953674,853,852.4000000953674,True,u,181096.20000004768,1359.9000000953674,1669831943017,1360,HRV,HRV_0147,2022-11-30 18:14:09
