success,trial_type,trial_index,time_elapsed,internal_node_id,Block,TrialNumber,TrialTime,trialTimeDiff,FPS_avg,FPS_med,FPS_mode,TrialDur,winResizeTime,rt,block,button_pressed,MotCoh,MotDir,ColCoh,Color,ChoiceKey,Choice,Accuracy,RT,nFrames,FPS,PPD,missTrial,missTrialMsg,onsetDelay,fullScreenExitTime,canvCenter,TrialType,Score,BlockTrial,stimulus,button_labels,exp,subjectId,date
True,fullscreen,0,1811,0.0-0.0,0.0,1.0,,,,,,,,,,,,,,,,,,,,,,,,,,,,,,,,HRV,HRV_0147,2022-11-30 18:24:17
,wl-check-fps,1,6820,0.0-1.0,0.0,2.0,"[2207.6, 2223.4, 2240.5, 2257, 2273.5, 2289.5, 2306.8, 2323.6, 2340.4, 2356.4, 2373.4, 2389.7, 2406.5, 2422.8, 2439.7, 2456.4, 2472.9, 2489.7, 2506.2, 2522.8, 2539.5, 2556.5, 2573.1, 2589.8, 2606.5, 2623.4, 2639.8, 2657.1, 2673.4, 2690, 2706.8, 2723.5, 2740, 2756.8, 2773.3, 2790, 2807, 2823.5, 2840, 2856.8, 2873.3, 2890.1, 2906.7, 2923.5, 2940.1, 2956.7, 2973.4, 2990.1, 3007, 3023.6, 3040.1, 3056.7, 3073.5, 3090.2, 3106.8, 3123.4, 3140.1, 3156.7, 3173.4, 3190, 3207.1, 3223.6, 3240.1, 3256.7, 3273.4, 3290.1, 3306.7, 3323.4, 3339.9, 3356.6, 3373.4, 3390.2, 3407, 3423.4, 3440.6, 3456.6, 3473.4, 3490.1, 3506.7, 3523.4, 3540, 3556.7, 3573.2, 3589.9, 3606.5, 3623, 3639.9, 3656.5, 3673.2, 3690.2, 3706.7, 3723.5, 3740.1, 3756.6, 3773.4, 3790.2, 3806.8, 3823.5, 3840, 3856.6, 3873.4, 3890.1, 3906.7, 3923.3, 3940.1, 3956.6, 3973.3, 3990, 4006.5, 4023.2, 4039.6, 4056.4, 4072.8, 4089.7, 4106.4, 4123.1, 4139.6, 4156.2, 4172.9, 4189.6, 4206.3, 4222.8, 4239.5, 4256.2, 4273, 4289.9, 4306.5, 4323.2, 4340.1, 4356.6, 4373.4, 4390.6, 4408.5, 4423.7, 4440.4, 4456.9, 4473.6, 4490.2, 4507, 4523.6, 4540.2, 4556.8, 4573.4, 4590.1, 4606.7, 4623.3, 4640, 4656.7, 4673.4, 4690.1, 4706.7, 4723.5, 4740.1, 4756.6, 4773.4, 4790, 4806.4, 4823.1, 4839.6, 4856.5, 4872.9, 4889.6, 4906.2, 4922.7, 4939.4, 4956.2, 4972.8, 4989.4, 5006.4, 5022.8, 5039.7, 5056.5, 5073, 5089.8, 5106.6, 5123.3, 5140.1, 5156.8, 5173.3, 5189.7, 5206.5, 5223.4, 5240, 5256.7, 5273.4, 5290.1, 5306.7, 5323.5, 5340.1, 5356.7, 5373.3, 5390.2, 5406.6, 5423.4, 5440.2, 5456.7, 5473.5, 5490.2, 5506.6, 5523.1, 5539.7, 5556.4, 5573.1, 5589.8, 5606.5, 5623.4, 5640.1, 5656.6, 5673.4, 5690, 5706.6, 5723.5, 5739.9, 5756.4, 5772.9, 5789.8, 5806.5, 5823, 5839.7, 5856.4, 5872.9, 5889.6, 5906.2, 5922.9, 5939.5, 5956.5, 5972.9, 5989.7, 6006.4, 6023.1, 6039.8, 6056.4, 6073.2, 6089.9, 6106.8, 6123, 6139.7, 6156.5, 6173, 6189.7, 6206.4, 6223.1, 6239.9, 6256.3, 6273.2, 6289.5, 6306.4, 6323.1, 6339.7, 6356.3, 6373, 6390.1, 6407, 6423.5, 6440, 6456.9, 6473.5, 6490.2, 6506.8, 6523.1, 6539.9, 6556.4, 6573.2, 6590.1, 6606.8, 6623.3, 6639.9, 6656.6, 6673.4, 6689.9, 6706.6, 6723.4, 6740, 6756.8, 6773.4, 6790, 6806.6, 6823.4, 6840.2, 6856.5, 6873.1, 6889.6, 6906.5, 6922.9, 6940, 6956.2, 6972.7, 6989.6, 7006, 7022.8, 7039.4, 7056.3, 7072.8, 7089.6, 7106.3, 7123.2, 7139.9, 7156.6, 7173.1, 7190]","[5.1, 15.8, 17.1, 16.5, 16.5, 16, 17.3, 16.8, 16.8, 16, 17, 16.3, 16.8, 16.3, 16.9, 16.7, 16.5, 16.8, 16.5, 16.6, 16.7, 17, 16.6, 16.7, 16.7, 16.9, 16.4, 17.3, 16.3, 16.6, 16.8, 16.7, 16.5, 16.8, 16.5, 16.7, 17, 16.5, 16.5, 16.8, 16.5, 16.8, 16.6, 16.8, 16.6, 16.6, 16.7, 16.7, 16.9, 16.6, 16.5, 16.6, 16.8, 16.7, 16.6, 16.6, 16.7, 16.6, 16.7, 16.6, 17.1, 16.5, 16.5, 16.6, 16.7, 16.7, 16.6, 16.7, 16.5, 16.7, 16.8, 16.8, 16.8, 16.4, 17.2, 16, 16.8, 16.7, 16.6, 16.7, 16.6, 16.7, 16.5, 16.7, 16.6, 16.5, 16.9, 16.6, 16.7, 17, 16.5, 16.8, 16.6, 16.5, 16.8, 16.8, 16.6, 16.7, 16.5, 16.6, 16.8, 16.7, 16.6, 16.6, 16.8, 16.5, 16.7, 16.7, 16.5, 16.7, 16.4, 16.8, 16.4, 16.9, 16.7, 16.7, 16.5, 16.6, 16.7, 16.7, 16.7, 16.5, 16.7, 16.7, 16.8, 16.9, 16.6, 16.7, 16.9, 16.5, 16.8, 17.2, 17.9, 15.2, 16.7, 16.5, 16.7, 16.6, 16.8, 16.6, 16.6, 16.6, 16.6, 16.7, 16.6, 16.6, 16.7, 16.7, 16.7, 16.7, 16.6, 16.8, 16.6, 16.5, 16.8, 16.6, 16.4, 16.7, 16.5, 16.9, 16.4, 16.7, 16.6, 16.5, 16.7, 16.8, 16.6, 16.6, 17, 16.4, 16.9, 16.8, 16.5, 16.8, 16.8, 16.7, 16.8, 16.7, 16.5, 16.4, 16.8, 16.9, 16.6, 16.7, 16.7, 16.7, 16.6, 16.8, 16.6, 16.6, 16.6, 16.9, 16.4, 16.8, 16.8, 16.5, 16.8, 16.7, 16.4, 16.5, 16.6, 16.7, 16.7, 16.7, 16.7, 16.9, 16.7, 16.5, 16.8, 16.6, 16.6, 16.9, 16.4, 16.5, 16.5, 16.9, 16.7, 16.5, 16.7, 16.7, 16.5, 16.7, 16.6, 16.7, 16.6, 17, 16.4, 16.8, 16.7, 16.7, 16.7, 16.6, 16.8, 16.7, 16.9, 16.2, 16.7, 16.8, 16.5, 16.7, 16.7, 16.7, 16.8, 16.4, 16.9, 16.3, 16.9, 16.7, 16.6, 16.6, 16.7, 17.1, 16.9, 16.5, 16.5, 16.9, 16.6, 16.7, 16.6, 16.3, 16.8, 16.5, 16.8, 16.9, 16.7, 16.5, 16.6, 16.7, 16.8, 16.5, 16.7, 16.8, 16.6, 16.8, 16.6, 16.6, 16.6, 16.8, 16.8, 16.3, 16.6, 16.5, 16.9, 16.4, 17.1, 16.2, 16.5, 16.9, 16.4, 16.8, 16.6, 16.9, 16.5, 16.8, 16.7, 16.9, 16.7, 16.7, 16.5, 16.9]",60.0,60.0,60.0,5004.2,[],,,,,,,,,,,,,,,,,,,,,,,,,HRV,HRV_0147,2022-11-30 18:24:17
,wl-html-keyboard-response,2,21391,0.0-2.0-0.0,0.0,3.0,,,,,,,,12551.0,0.0,0,,,,,,,,,,,,,,,,,,,,,,HRV,HRV_0147,2022-11-30 18:24:17
,wl-rdm,3,30151,0.0-3.0-0.0,0.0,4.0,,,,,,,[],,,,0.0,0.0,87.9,0.0,u,0.0,True,3213.899999856949,193.0,60.0,40.0,False,,3000.0,[],"[768, 432]",ColorTask_Demo,,,,,HRV,HRV_0147,2022-11-30 18:24:17
,wl-rdm,4,35767,0.0-3.0-1.0,0.0,5.0,,,,,,,[],,,,0.0,0.0,87.9,1.0,i,1.0,True,1531.5999999046326,92.0,60.0,40.0,False,,2000.0,[],"[768, 432]",ColorTask_Demo,,,,,HRV,HRV_0147,2022-11-30 18:24:17
,wl-html-keyboard-response,5,42595,0.0-3.0-2.0,0.0,6.0,,,,,,,,4821.199999809265,0.0,1,,,,,,,,,,,,,,,,,,,,,,HRV,HRV_0147,2022-11-30 18:24:17
,wl-html-keyboard-response,6,56373,0.0-4.0-0.0,0.0,7.0,,,,,,,,11762.5,0.0,0,,,,,,,,,,,,,,,,,,,,,,HRV,HRV_0147,2022-11-30 18:24:17
,wl-html-keyboard-response,7,67816,0.0-5.0-0.0,0.0,8.0,,,,,,,,9431.299999952316,0.0,0,,,,,,,,,,,,,,,,,,,,,,HRV,HRV_0147,2022-11-30 18:24:17
,wl-rdm,8,70568,0.0-6.0-0.0,0.0,9.0,,,,,,,[],,,,,,56.4,1.0,i,1.0,True,1375.5000002384186,83.0,60.0,40.0,False,,297.9932665267336,[],"[768, 432]",ColorTask,1.0,1.0,,,HRV,HRV_0147,2022-11-30 18:24:17
,wl-rdm,9,73435,0.0-6.1-0.1,0.0,10.0,,,,,,,[],,,,,,62.5,1.0,i,1.0,True,1446.3999998569489,87.0,60.0,40.0,False,,353.2469997396467,[],"[768, 432]",ColorTask,2.0,2.0,,,HRV,HRV_0147,2022-11-30 18:24:17
,wl-rdm,10,75584,0.0-6.2-0.2,0.0,11.0,,,,,,,[],,,,,,87.9,1.0,i,1.0,True,830.9000000953674,50.0,60.0,40.0,False,,256.547663043241,[],"[768, 432]",ColorTask,3.0,3.0,,,HRV,HRV_0147,2022-11-30 18:24:17
,wl-rdm,11,78368,0.0-6.3-0.3,0.0,12.0,,,,,,,[],,,,,,62.5,0.0,u,0.0,True,1463.4000000953674,88.0,60.0,40.0,False,,259.3983521692416,[],"[768, 432]",ColorTask,4.0,4.0,,,HRV,HRV_0147,2022-11-30 18:24:17
,wl-rdm,12,80818,0.0-6.4-0.4,0.0,13.0,,,,,,,[],,,,,,53.2,0.0,u,0.0,True,1107.2999999523163,67.0,60.0,40.0,False,,260.93038422052507,[],"[768, 432]",ColorTask,5.0,5.0,,,HRV,HRV_0147,2022-11-30 18:24:17
,wl-rdm,13,83701,0.0-6.5-0.5,0.0,14.0,,,,,,,[],,,,,,53.2,0.0,i,1.0,False,1592.9000000953674,96.0,60.0,40.0,False,,214.95211242583233,[],"[768, 432]",ColorTask,4.0,6.0,,,HRV,HRV_0147,2022-11-30 18:24:17
,wl-rdm,14,85801,0.0-6.6-0.6,0.0,15.0,,,,,,,[],,,,,,87.9,1.0,i,1.0,True,802.2000000476837,49.0,60.0,40.0,False,,201.12452087314773,[],"[768, 432]",ColorTask,5.0,7.0,,,HRV,HRV_0147,2022-11-30 18:24:17
,wl-rdm,15,87767,0.0-6.7-0.7,0.0,16.0,,,,,,,[],,,,,,87.9,1.0,i,1.0,True,672.1000001430511,41.0,60.0,40.0,False,,212.10055426248718,[],"[768, 432]",ColorTask,6.0,8.0,,,HRV,HRV_0147,2022-11-30 18:24:17
,wl-rdm,16,89835,0.0-6.8-0.8,0.0,17.0,,,,,,,[],,,,,,73.6,1.0,i,1.0,True,660.9000000953674,40.0,60.0,40.0,False,,335.4495139173966,[],"[768, 432]",ColorTask,7.0,9.0,,,HRV,HRV_0147,2022-11-30 18:24:17
,wl-rdm,17,92235,0.0-6.9-0.9,0.0,18.0,,,,,,,[],,,,,,62.5,0.0,u,0.0,True,1125.0000002384186,68.0,60.0,40.0,False,,211.2302342125398,[],"[768, 432]",ColorTask,8.0,10.0,,,HRV,HRV_0147,2022-11-30 18:24:17
,wl-rdm,18,94584,0.0-6.10-0.10,0.0,19.0,,,,,,,[],,,,,,73.6,1.0,i,1.0,True,923.2000002861023,56.0,60.0,40.0,False,,339.3499620573863,[],"[768, 432]",ColorTask,9.0,11.0,,,HRV,HRV_0147,2022-11-30 18:24:17
,wl-rdm,19,96968,0.0-6.11-0.11,0.0,20.0,,,,,,,[],,,,,,62.5,0.0,u,0.0,True,972.2999999523163,59.0,60.0,40.0,False,,320.48768055161815,[],"[768, 432]",ColorTask,10.0,12.0,,,HRV,HRV_0147,2022-11-30 18:24:17
,wl-rdm,20,99934,0.0-6.12-0.12,0.0,21.0,,,,,,,[],,,,,,53.2,1.0,i,1.0,True,1492.1999998092651,90.0,60.0,40.0,False,,389.57214317974916,[],"[768, 432]",ColorTask,11.0,13.0,,,HRV,HRV_0147,2022-11-30 18:24:17
,wl-rdm,21,102318,0.0-6.13-0.13,0.0,22.0,,,,,,,[],,,,,,62.5,1.0,i,1.0,True,1040.5999999046326,63.0,60.0,40.0,False,,272.63983921197865,[],"[768, 432]",ColorTask,12.0,14.0,,,HRV,HRV_0147,2022-11-30 18:24:17
,wl-rdm,22,104584,0.0-6.14-0.14,0.0,23.0,,,,,,,[],,,,,,53.2,1.0,u,0.0,False,865.8000001907349,52.0,60.0,40.0,False,,324.9699070107858,[],"[768, 432]",ColorTask,11.0,15.0,,,HRV,HRV_0147,2022-11-30 18:24:17
,wl-rdm,23,107185,0.0-6.15-0.15,0.0,24.0,,,,,,,[],,,,,,56.4,0.0,u,0.0,True,1169.4000000953674,71.0,60.0,40.0,False,,335.5868376746081,[],"[768, 432]",ColorTask,12.0,16.0,,,HRV,HRV_0147,2022-11-30 18:24:17
,wl-rdm,24,109784,0.0-6.16-0.16,0.0,25.0,,,,,,,[],,,,,,50.0,1.0,u,0.0,False,1302.0999999046326,79.0,60.0,40.0,False,,202.43003756455508,[],"[768, 432]",ColorTask,11.0,17.0,,,HRV,HRV_0147,2022-11-30 18:24:17
,wl-rdm,25,112685,0.0-6.17-0.17,0.0,26.0,,,,,,,[],,,,,,50.0,1.0,u,0.0,False,1451.2000000476837,88.0,60.0,40.0,False,,382.29851104227566,[],"[768, 432]",ColorTask,10.0,18.0,,,HRV,HRV_0147,2022-11-30 18:24:17
,wl-rdm,26,115468,0.0-6.18-0.18,0.0,27.0,,,,,,,[],,,,,,62.5,1.0,i,1.0,True,1514.4999997615814,91.0,60.0,40.0,False,,203.34542929031778,[],"[768, 432]",ColorTask,11.0,19.0,,,HRV,HRV_0147,2022-11-30 18:24:17
,wl-rdm,27,118318,0.0-6.19-0.19,0.0,28.0,,,,,,,[],,,,,,53.2,1.0,i,1.0,True,1368.2999999523163,83.0,60.0,40.0,False,,385.2707179238169,[],"[768, 432]",ColorTask,12.0,20.0,,,HRV,HRV_0147,2022-11-30 18:24:17
,wl-rdm,28,120818,0.0-6.20-0.20,0.0,29.0,,,,,,,[],,,,,,50.0,0.0,i,1.0,False,1191.5999999046326,72.0,60.0,40.0,False,,245.19747640193526,[],"[768, 432]",ColorTask,11.0,21.0,,,HRV,HRV_0147,2022-11-30 18:24:17
,wl-rdm,29,123551,0.0-6.21-0.21,0.0,30.0,,,,,,,[],,,,,,56.4,0.0,u,0.0,True,1344.5,81.0,60.0,40.0,False,,321.5760836017964,[],"[768, 432]",ColorTask,12.0,22.0,,,HRV,HRV_0147,2022-11-30 18:24:17
,wl-rdm,30,125684,0.0-6.22-0.22,0.0,31.0,,,,,,,[],,,,,,87.9,0.0,u,0.0,True,838.0,51.0,60.0,40.0,False,,206.60652838143662,[],"[768, 432]",ColorTask,13.0,23.0,,,HRV,HRV_0147,2022-11-30 18:24:17
,wl-rdm,31,127751,0.0-6.23-0.23,0.0,32.0,,,,,,,[],,,,,,62.5,0.0,u,0.0,True,713.400000333786,43.0,60.0,40.0,False,,297.3668012995828,[],"[768, 432]",ColorTask,14.0,24.0,,,HRV,HRV_0147,2022-11-30 18:24:17
,wl-rdm,32,130217,0.0-6.24-0.24,0.0,33.0,,,,,,,[],,,,,,53.2,0.0,u,0.0,True,1149.5,69.0,60.0,40.0,False,,266.6168617477451,[],"[768, 432]",ColorTask,15.0,25.0,,,HRV,HRV_0147,2022-11-30 18:24:17
,wl-rdm,33,132584,0.0-6.25-0.25,0.0,34.0,,,,,,,[],,,,,,62.5,0.0,u,0.0,True,1093.9000000953674,66.0,60.0,40.0,False,,212.83116009784789,[],"[768, 432]",ColorTask,16.0,26.0,,,HRV,HRV_0147,2022-11-30 18:24:17
,wl-rdm,34,135385,0.0-6.26-0.26,0.0,35.0,,,,,,,[],,,,,,50.0,0.0,i,1.0,False,1524.0,92.0,60.0,40.0,False,,211.50102765749315,[],"[768, 432]",ColorTask,15.0,27.0,,,HRV,HRV_0147,2022-11-30 18:24:17
,wl-rdm,35,138118,0.0-6.27-0.27,0.0,36.0,,,,,,,[],,,,,,53.2,1.0,i,1.0,True,1305.0999999046326,79.0,60.0,40.0,False,,349.21964496620353,[],"[768, 432]",ColorTask,16.0,28.0,,,HRV,HRV_0147,2022-11-30 18:24:17
,wl-rdm,36,140551,0.0-6.28-0.28,0.0,37.0,,,,,,,[],,,,,,73.6,0.0,u,0.0,True,1119.2999999523163,68.0,60.0,40.0,False,,223.2704442569921,[],"[768, 432]",ColorTask,17.0,29.0,,,HRV,HRV_0147,2022-11-30 18:24:17
,wl-rdm,37,142685,0.0-6.29-0.29,0.0,38.0,,,,,,,[],,,,,,50.0,0.0,u,0.0,True,834.5,51.0,60.0,40.0,False,,217.5060665421122,[],"[768, 432]",ColorTask,18.0,30.0,,,HRV,HRV_0147,2022-11-30 18:24:17
,wl-rdm,38,144802,0.0-6.30-0.30,0.0,39.0,,,,,,,[],,,,,,73.6,0.0,u,0.0,True,825.7999999523163,50.0,60.0,40.0,False,,202.71485839753967,[],"[768, 432]",ColorTask,19.0,31.0,,,HRV,HRV_0147,2022-11-30 18:24:17
,wl-rdm,39,148168,0.0-6.31-0.31,0.0,40.0,,,,,,,[],,,,,,56.4,1.0,i,1.0,True,2001.7999999523163,121.0,60.0,40.0,False,,269.638193693871,[],"[768, 432]",ColorTask,20.0,32.0,,,HRV,HRV_0147,2022-11-30 18:24:17
,wl-rdm,40,151267,0.0-6.32-0.32,0.0,41.0,,,,,,,[],,,,,,50.0,1.0,u,0.0,False,1712.1000001430511,103.0,60.0,40.0,False,,303.25898689787385,[],"[768, 432]",ColorTask,19.0,33.0,,,HRV,HRV_0147,2022-11-30 18:24:17
,wl-rdm,41,153702,0.0-6.33-0.33,0.0,42.0,,,,,,,[],,,,,,62.5,0.0,u,0.0,True,1139.3999998569489,69.0,60.0,40.0,False,,232.13065368098523,[],"[768, 432]",ColorTask,20.0,34.0,,,HRV,HRV_0147,2022-11-30 18:24:17
,wl-rdm,42,156668,0.0-6.34-0.34,0.0,43.0,,,,,,,[],,,,,,50.0,1.0,u,0.0,False,1592.2999999523163,96.0,60.0,40.0,False,,295.17275826000315,[],"[768, 432]",ColorTask,19.0,35.0,,,HRV,HRV_0147,2022-11-30 18:24:17
,wl-rdm,43,159818,0.0-6.35-0.35,0.0,44.0,,,,,,,[],,,,,,56.4,0.0,u,0.0,True,1743.2999999523163,105.0,60.0,40.0,False,,348.47749770212044,[],"[768, 432]",ColorTask,20.0,36.0,,,HRV,HRV_0147,2022-11-30 18:24:17
,wl-rdm,44,161868,0.0-6.36-0.36,0.0,45.0,,,,,,,[],,,,,,73.6,1.0,i,1.0,True,777.1000001430511,47.0,60.0,40.0,False,,210.14377768434198,[],"[768, 432]",ColorTask,21.0,37.0,,,HRV,HRV_0147,2022-11-30 18:24:17
,wl-rdm,45,164001,0.0-6.37-0.37,0.0,46.0,,,,,,,[],,,,,,62.5,1.0,i,1.0,True,743.8999998569489,45.0,60.0,40.0,False,,318.24423027530594,[],"[768, 432]",ColorTask,22.0,38.0,,,HRV,HRV_0147,2022-11-30 18:24:17
,wl-rdm,46,166635,0.0-6.38-0.38,0.0,47.0,,,,,,,[],,,,,,53.2,0.0,u,0.0,True,1357.3000001907349,82.0,60.0,40.0,False,,202.73190542731422,[],"[768, 432]",ColorTask,23.0,39.0,,,HRV,HRV_0147,2022-11-30 18:24:17
,wl-rdm,47,168735,0.0-6.39-0.39,0.0,48.0,,,,,,,[],,,,,,87.9,0.0,u,0.0,True,635.7999999523163,39.0,60.0,40.0,False,,390.5742826919534,[],"[768, 432]",ColorTask,24.0,40.0,,,HRV,HRV_0147,2022-11-30 18:24:17
,wl-rdm,48,172118,0.0-6.40-0.40,0.0,49.0,,,,,,,[],,,,,,50.0,0.0,i,1.0,False,2057.800000190735,124.0,60.0,40.0,False,,238.7275564437441,[],"[768, 432]",ColorTask,23.0,41.0,,,HRV,HRV_0147,2022-11-30 18:24:17
,wl-rdm,49,174285,0.0-6.41-0.41,0.0,50.0,,,,,,,[],,,,,,73.6,0.0,u,0.0,True,836.2999999523163,51.0,60.0,40.0,False,,250.78416924675128,[],"[768, 432]",ColorTask,24.0,42.0,,,HRV,HRV_0147,2022-11-30 18:24:17
,wl-rdm,50,176368,0.0-6.42-0.42,0.0,51.0,,,,,,,[],,,,,,87.9,0.0,u,0.0,True,783.5999999046326,47.0,60.0,40.0,False,,222.39696481386565,[],"[768, 432]",ColorTask,25.0,43.0,,,HRV,HRV_0147,2022-11-30 18:24:17
,wl-rdm,51,179135,0.0-6.43-0.43,0.0,52.0,,,,,,,[],,,,,,50.0,1.0,i,1.0,True,1336.5,81.0,60.0,40.0,False,,360.0050239076613,[],"[768, 432]",ColorTask,26.0,44.0,,,HRV,HRV_0147,2022-11-30 18:24:17
,wl-rdm,52,181185,0.0-6.44-0.44,0.0,53.0,,,,,,,[],,,,,,73.6,1.0,i,1.0,True,600.0,36.0,60.0,40.0,False,,378.7163554228541,[],"[768, 432]",ColorTask,27.0,45.0,,,HRV,HRV_0147,2022-11-30 18:24:17
,wl-rdm,53,183085,0.0-6.45-0.45,0.0,54.0,,,,,,,[],,,,,,73.6,0.0,u,0.0,True,623.6000001430511,38.0,60.0,40.0,False,,203.90171617300663,[],"[768, 432]",ColorTask,28.0,46.0,,,HRV,HRV_0147,2022-11-30 18:24:17
,wl-rdm,54,185034,0.0-6.46-0.46,0.0,55.0,,,,,,,[],,,,,,87.9,0.0,u,0.0,True,644.6999998092651,39.0,60.0,40.0,False,,230.87913714356262,[],"[768, 432]",ColorTask,29.0,47.0,,,HRV,HRV_0147,2022-11-30 18:24:17
,wl-rdm,55,187102,0.0-6.47-0.47,0.0,56.0,,,,,,,[],,,,,,73.6,1.0,i,1.0,True,734.0,45.0,60.0,40.0,False,,265.8449819072124,[],"[768, 432]",ColorTask,30.0,48.0,,,HRV,HRV_0147,2022-11-30 18:24:17
,wl-rdm,56,189135,0.0-6.48-0.48,0.0,57.0,,,,,,,[],,,,,,87.9,0.0,u,0.0,True,567.7999999523163,35.0,60.0,40.0,False,,388.1592651325493,[],"[768, 432]",ColorTask,31.0,49.0,,,HRV,HRV_0147,2022-11-30 18:24:17
,wl-rdm,57,191335,0.0-6.49-0.49,0.0,58.0,,,,,,,[],,,,,,73.6,0.0,u,0.0,True,791.7999999523163,48.0,60.0,40.0,False,,345.91789297240905,[],"[768, 432]",ColorTask,32.0,50.0,,,HRV,HRV_0147,2022-11-30 18:24:17
,wl-rdm,58,193235,0.0-6.50-0.50,0.0,59.0,,,,,,,[],,,,,,73.6,1.0,i,1.0,True,545.7999999523163,33.0,60.0,40.0,False,,290.0180693372786,[],"[768, 432]",ColorTask,33.0,51.0,,,HRV,HRV_0147,2022-11-30 18:24:17
,wl-rdm,59,195818,0.0-6.51-0.51,0.0,60.0,,,,,,,[],,,,,,56.4,0.0,u,0.0,True,1288.9999997615814,78.0,60.0,40.0,False,,231.73275878567162,[],"[768, 432]",ColorTask,34.0,52.0,,,HRV,HRV_0147,2022-11-30 18:24:17
,wl-rdm,60,198002,0.0-6.52-0.52,0.0,61.0,,,,,,,[],,,,,,73.6,1.0,i,1.0,True,739.6000001430511,45.0,60.0,40.0,False,,350.6285732573134,[],"[768, 432]",ColorTask,35.0,53.0,,,HRV,HRV_0147,2022-11-30 18:24:17
,wl-rdm,61,200468,0.0-6.53-0.53,0.0,62.0,,,,,,,[],,,,,,62.5,1.0,i,1.0,True,1157.2000000476837,70.0,60.0,40.0,False,,227.0843012687621,[],"[768, 432]",ColorTask,36.0,54.0,,,HRV,HRV_0147,2022-11-30 18:24:17
,wl-rdm,62,202568,0.0-6.54-0.54,0.0,63.0,,,,,,,[],,,,,,50.0,1.0,i,1.0,True,659.4000000953674,40.0,60.0,40.0,False,,358.66000944014183,[],"[768, 432]",ColorTask,37.0,55.0,,,HRV,HRV_0147,2022-11-30 18:24:17
,wl-rdm,63,205052,0.0-6.55-0.55,0.0,64.0,,,,,,,[],,,,,,50.0,0.0,i,1.0,False,1091.5,66.0,60.0,40.0,False,,317.62900913717306,[],"[768, 432]",ColorTask,36.0,56.0,,,HRV,HRV_0147,2022-11-30 18:24:17
,wl-rdm,64,207302,0.0-6.56-0.56,0.0,65.0,,,,,,,[],,,,,,87.9,1.0,i,1.0,True,900.2999999523163,55.0,60.0,40.0,False,,270.49674200778395,[],"[768, 432]",ColorTask,37.0,57.0,,,HRV,HRV_0147,2022-11-30 18:24:17
,wl-rdm,65,209502,0.0-6.57-0.57,0.0,66.0,,,,,,,[],,,,,,62.5,1.0,i,1.0,True,735.2000000476837,45.0,60.0,40.0,False,,371.8004984406682,[],"[768, 432]",ColorTask,38.0,58.0,,,HRV,HRV_0147,2022-11-30 18:24:17
,wl-rdm,66,211702,0.0-6.58-0.58,0.0,67.0,,,,,,,[],,,,,,53.2,0.0,u,0.0,True,905.2999999523163,55.0,60.0,40.0,False,,215.4642887402018,[],"[768, 432]",ColorTask,39.0,59.0,,,HRV,HRV_0147,2022-11-30 18:24:17
,wl-rdm,67,214702,0.0-6.59-0.59,0.0,68.0,,,,,,,[],,,,,,56.4,0.0,u,0.0,True,1649.8999998569489,99.0,60.0,40.0,False,,275.2164701010874,[],"[768, 432]",ColorTask,40.0,60.0,,,HRV,HRV_0147,2022-11-30 18:24:17
,wl-rdm,68,216718,0.0-6.60-0.60,0.0,69.0,,,,,,,[],,,,,,87.9,1.0,i,1.0,True,720.4000000953674,44.0,60.0,40.0,False,,210.32234038045613,[],"[768, 432]",ColorTask,41.0,61.0,,,HRV,HRV_0147,2022-11-30 18:24:17
,wl-rdm,69,218952,0.0-6.61-0.61,0.0,70.0,,,,,,,[],,,,,,56.4,1.0,i,1.0,True,945.5999999046326,57.0,60.0,40.0,False,,205.35700179303382,[],"[768, 432]",ColorTask,42.0,62.0,,,HRV,HRV_0147,2022-11-30 18:24:17
,wl-rdm,70,221352,0.0-6.62-0.62,0.0,71.0,,,,,,,[],,,,,,50.0,0.0,u,0.0,True,1126.9000000953674,68.0,60.0,40.0,False,,204.1489656387983,[],"[768, 432]",ColorTask,43.0,63.0,,,HRV,HRV_0147,2022-11-30 18:24:17
,wl-rdm,71,224102,0.0-6.63-0.63,0.0,72.0,,,,,,,[],,,,,,53.2,1.0,u,0.0,False,1301.8999998569489,79.0,60.0,40.0,False,,371.407088767902,[],"[768, 432]",ColorTask,42.0,64.0,,,HRV,HRV_0147,2022-11-30 18:24:17
,wl-rdm,72,226601,0.0-6.64-0.64,0.0,73.0,,,,,,,[],,,,,,56.4,0.0,u,0.0,True,1191.8000001907349,72.0,60.0,40.0,False,,221.1949719580394,[],"[768, 432]",ColorTask,43.0,65.0,,,HRV,HRV_0147,2022-11-30 18:24:17
,wl-rdm,73,228586,0.0-6.65-0.65,0.0,74.0,,,,,,,[],,,,,,62.5,1.0,i,1.0,True,698.8999998569489,42.0,60.0,40.0,False,,200.92047192737127,[],"[768, 432]",ColorTask,44.0,66.0,,,HRV,HRV_0147,2022-11-30 18:24:17
,wl-rdm,74,231219,0.0-6.66-0.66,0.0,75.0,,,,,,,[],,,,,,53.2,1.0,i,1.0,True,1176.2999999523163,71.0,60.0,40.0,False,,383.30058499432516,[],"[768, 432]",ColorTask,45.0,67.0,,,HRV,HRV_0147,2022-11-30 18:24:17
,wl-rdm,75,233818,0.0-6.67-0.67,0.0,76.0,,,,,,,[],,,,,,53.2,0.0,u,0.0,True,1254.5999999046326,76.0,60.0,40.0,False,,261.9519361568586,[],"[768, 432]",ColorTask,46.0,68.0,,,HRV,HRV_0147,2022-11-30 18:24:17
,wl-rdm,76,235818,0.0-6.68-0.68,0.0,77.0,,,,,,,[],,,,,,87.9,0.0,u,0.0,True,658.4000000953674,40.0,60.0,40.0,False,,251.47542972680887,[],"[768, 432]",ColorTask,47.0,69.0,,,HRV,HRV_0147,2022-11-30 18:24:17
,wl-rdm,77,238786,0.0-6.69-0.69,0.0,78.0,,,,,,,[],,,,,,53.2,1.0,u,0.0,False,1523.3999998569489,92.0,60.0,40.0,False,,363.90174417274966,[],"[768, 432]",ColorTask,46.0,70.0,,,HRV,HRV_0147,2022-11-30 18:24:17
,wl-rdm,78,241018,0.0-6.70-0.70,0.0,79.0,,,,,,,[],,,,,,73.6,0.0,u,0.0,True,920.6000001430511,56.0,60.0,40.0,False,,226.12598418482233,[],"[768, 432]",ColorTask,47.0,71.0,,,HRV,HRV_0147,2022-11-30 18:24:17
,wl-rdm,79,242952,0.0-6.71-0.71,0.0,80.0,,,,,,,[],,,,,,87.9,0.0,u,0.0,True,613.2000000476837,37.0,60.0,40.0,False,,242.21383624851455,[],"[768, 432]",ColorTask,48.0,72.0,,,HRV,HRV_0147,2022-11-30 18:24:17
,wl-rdm,80,245235,0.0-6.72-0.72,0.0,81.0,,,,,,,[],,,,,,73.6,0.0,u,0.0,True,844.7000000476837,51.0,60.0,40.0,False,,367.93113741787124,[],"[768, 432]",ColorTask,49.0,73.0,,,HRV,HRV_0147,2022-11-30 18:24:17
,wl-rdm,81,247319,0.0-6.73-0.73,0.0,82.0,,,,,,,[],,,,,,87.9,1.0,i,1.0,True,668.2999997138977,41.0,60.0,40.0,False,,339.83356661936483,[],"[768, 432]",ColorTask,50.0,74.0,,,HRV,HRV_0147,2022-11-30 18:24:17
,wl-rdm,82,249152,0.0-6.74-0.74,0.0,83.0,,,,,,,[],,,,,,87.9,1.0,i,1.0,True,564.7000000476837,34.0,60.0,40.0,False,,209.99917432312054,[],"[768, 432]",ColorTask,51.0,75.0,,,HRV,HRV_0147,2022-11-30 18:24:17
,wl-rdm,83,252135,0.0-6.75-0.75,0.0,84.0,,,,,,,[],,,,,,62.5,1.0,i,1.0,True,1617.4000000953674,98.0,60.0,40.0,False,,295.5524451593485,[],"[768, 432]",ColorTask,52.0,76.0,,,HRV,HRV_0147,2022-11-30 18:24:17
,wl-rdm,84,254835,0.0-6.76-0.76,0.0,85.0,,,,,,,[],,,,,,53.2,0.0,u,0.0,True,1262.2000000476837,76.0,60.0,40.0,False,,359.1705475775706,[],"[768, 432]",ColorTask,53.0,77.0,,,HRV,HRV_0147,2022-11-30 18:24:17
,wl-rdm,85,257052,0.0-6.77-0.77,0.0,86.0,,,,,,,[],,,,,,87.9,0.0,u,0.0,True,779.2999999523163,47.0,60.0,40.0,False,,357.1487124973287,[],"[768, 432]",ColorTask,54.0,78.0,,,HRV,HRV_0147,2022-11-30 18:24:17
,wl-rdm,86,259552,0.0-6.78-0.78,0.0,87.0,,,,,,,[],,,,,,56.4,1.0,i,1.0,True,1080.8000001907349,65.0,60.0,40.0,False,,341.67573026442733,[],"[768, 432]",ColorTask,55.0,79.0,,,HRV,HRV_0147,2022-11-30 18:24:17
,wl-rdm,87,261535,0.0-6.79-0.79,0.0,88.0,,,,,,,[],,,,,,56.4,1.0,i,1.0,True,671.5999999046326,41.0,60.0,40.0,False,,217.986067227373,[],"[768, 432]",ColorTask,56.0,80.0,,,HRV,HRV_0147,2022-11-30 18:24:17
,wl-rdm,88,263502,0.0-6.80-0.80,0.0,89.0,,,,,,,[],,,,,,87.9,0.0,u,0.0,True,662.2999999523163,40.0,60.0,40.0,False,,246.1449333242124,[],"[768, 432]",ColorTask,57.0,81.0,,,HRV,HRV_0147,2022-11-30 18:24:17
,wl-rdm,89,266102,0.0-6.81-0.81,0.0,90.0,,,,,,,[],,,,,,53.2,0.0,u,0.0,True,1147.6000001430511,69.0,60.0,40.0,False,,384.778898163153,[],"[768, 432]",ColorTask,58.0,82.0,,,HRV,HRV_0147,2022-11-30 18:24:17
,wl-rdm,90,268918,0.0-6.82-0.82,0.0,91.0,,,,,,,[],,,,,,56.4,1.0,i,1.0,True,1405.5999999046326,85.0,60.0,40.0,False,,322.90098863805815,[],"[768, 432]",ColorTask,59.0,83.0,,,HRV,HRV_0147,2022-11-30 18:24:17
,wl-rdm,91,271002,0.0-6.83-0.83,0.0,92.0,,,,,,,[],,,,,,73.6,1.0,i,1.0,True,665.6000001430511,40.0,60.0,40.0,False,,348.92087535365044,[],"[768, 432]",ColorTask,60.0,84.0,,,HRV,HRV_0147,2022-11-30 18:24:17
,wl-rdm,92,273285,0.0-6.84-0.84,0.0,93.0,,,,,,,[],,,,,,50.0,1.0,u,0.0,False,928.3999998569489,56.0,60.0,40.0,False,,274.47447985402005,[],"[768, 432]",ColorTask,59.0,85.0,,,HRV,HRV_0147,2022-11-30 18:24:17
,wl-rdm,93,275302,0.0-6.85-0.85,0.0,94.0,,,,,,,[],,,,,,87.9,1.0,i,1.0,True,647.7000000476837,39.0,60.0,40.0,False,,306.5471056002378,[],"[768, 432]",ColorTask,60.0,86.0,,,HRV,HRV_0147,2022-11-30 18:24:17
,wl-rdm,94,277869,0.0-6.86-0.86,0.0,95.0,,,,,,,[],,,,,,53.2,1.0,u,0.0,False,1290.5,78.0,60.0,40.0,False,,205.58365957694696,[],"[768, 432]",ColorTask,59.0,87.0,,,HRV,HRV_0147,2022-11-30 18:24:17
,wl-rdm,95,280135,0.0-6.87-0.87,0.0,96.0,,,,,,,[],,,,,,56.4,0.0,i,1.0,False,948.7999999523163,57.0,60.0,40.0,False,,259.6754703834956,[],"[768, 432]",ColorTask,58.0,88.0,,,HRV,HRV_0147,2022-11-30 18:24:17
,wl-rdm,96,282885,0.0-6.88-0.88,0.0,97.0,,,,,,,[],,,,,,50.0,0.0,u,0.0,True,1351.9000000953674,82.0,60.0,40.0,False,,300.49793861269063,[],"[768, 432]",ColorTask,59.0,89.0,,,HRV,HRV_0147,2022-11-30 18:24:17
,wl-rdm,97,284885,0.0-6.89-0.89,0.0,98.0,,,,,,,[],,,,,,73.6,1.0,i,1.0,True,701.7000000476837,43.0,60.0,40.0,False,,206.71238557427026,[],"[768, 432]",ColorTask,60.0,90.0,,,HRV,HRV_0147,2022-11-30 18:24:17
,wl-rdm,98,287135,0.0-6.90-0.90,0.0,99.0,,,,,,,[],,,,,,50.0,0.0,u,0.0,True,842.0,51.0,60.0,40.0,False,,321.95310556207414,[],"[768, 432]",ColorTask,61.0,91.0,,,HRV,HRV_0147,2022-11-30 18:24:17
,wl-rdm,99,290085,0.0-6.91-0.91,0.0,100.0,,,,,,,[],,,,,,53.2,0.0,u,0.0,True,1622.7999999523163,98.0,60.0,40.0,False,,233.75877376373955,[],"[768, 432]",ColorTask,62.0,92.0,,,HRV,HRV_0147,2022-11-30 18:24:17
,wl-rdm,100,293002,0.0-6.92-0.92,0.0,101.0,,,,,,,[],,,,,,50.0,1.0,u,0.0,False,1464.1999998092651,88.0,60.0,40.0,False,,381.0344194086755,[],"[768, 432]",ColorTask,61.0,93.0,,,HRV,HRV_0147,2022-11-30 18:24:17
,wl-rdm,101,296085,0.0-6.93-0.93,0.0,102.0,,,,,,,[],,,,,,53.2,1.0,u,0.0,False,1641.5999999046326,99.0,60.0,40.0,False,,371.69017867097375,[],"[768, 432]",ColorTask,60.0,94.0,,,HRV,HRV_0147,2022-11-30 18:24:17
,wl-rdm,102,298269,0.0-6.94-0.94,0.0,103.0,,,,,,,[],,,,,,62.5,1.0,i,1.0,True,817.2000000476837,50.0,60.0,40.0,False,,270.1925459741608,[],"[768, 432]",ColorTask,61.0,95.0,,,HRV,HRV_0147,2022-11-30 18:24:17
,wl-rdm,103,300869,0.0-6.95-0.95,0.0,104.0,,,,,,,[],,,,,,50.0,0.0,i,1.0,False,1330.9000000953674,80.0,60.0,40.0,False,,213.37514101678582,[],"[768, 432]",ColorTask,60.0,96.0,,,HRV,HRV_0147,2022-11-30 18:24:17
,wl-rdm,104,303286,0.0-6.96-0.96,0.0,105.0,,,,,,,[],,,,,,56.4,1.0,u,0.0,False,1114.5,67.0,60.0,40.0,False,,236.31391406082656,[],"[768, 432]",ColorTask,59.0,97.0,,,HRV,HRV_0147,2022-11-30 18:24:17
,wl-rdm,105,305452,0.0-6.97-0.97,0.0,106.0,,,,,,,[],,,,,,62.5,0.0,u,0.0,True,840.7999999523163,51.0,60.0,40.0,False,,259.7506123312892,[],"[768, 432]",ColorTask,60.0,98.0,,,HRV,HRV_0147,2022-11-30 18:24:17
,wl-rdm,106,307468,0.0-6.98-0.98,0.0,107.0,,,,,,,[],,,,,,73.6,0.0,u,0.0,True,679.0,41.0,60.0,40.0,False,,256.5632474475096,[],"[768, 432]",ColorTask,61.0,99.0,,,HRV,HRV_0147,2022-11-30 18:24:17
,wl-rdm,107,309919,0.0-6.99-0.99,0.0,108.0,,,,,,,[],,,,,,62.5,0.0,u,0.0,True,1064.7999999523163,64.0,60.0,40.0,False,,313.1326037877926,[],"[768, 432]",ColorTask,62.0,100.0,,,HRV,HRV_0147,2022-11-30 18:24:17
,wl-rdm,108,313452,0.0-6.100-0.100,0.0,109.0,,,,,,,[],,,,,,56.4,1.0,i,1.0,True,2078.0,125.0,60.0,40.0,False,,388.57740512394867,[],"[768, 432]",ColorTask,63.0,101.0,,,HRV,HRV_0147,2022-11-30 18:24:17
,wl-rdm,109,315652,0.0-6.101-0.101,0.0,110.0,,,,,,,[],,,,,,56.4,1.0,i,1.0,True,879.1999998092651,53.0,60.0,40.0,False,,245.61873805906635,[],"[768, 432]",ColorTask,64.0,102.0,,,HRV,HRV_0147,2022-11-30 18:24:17
,wl-rdm,110,318736,0.0-6.102-0.102,0.0,111.0,,,,,,,[],,,,,,50.0,1.0,u,0.0,False,1640.7000002861023,99.0,60.0,40.0,False,,377.15905038101926,[],"[768, 432]",ColorTask,63.0,103.0,,,HRV,HRV_0147,2022-11-30 18:24:17
,wl-rdm,111,321752,0.0-6.103-0.103,0.0,112.0,,,,,,,[],,,,,,62.5,0.0,u,0.0,True,1563.0999999046326,94.0,60.0,40.0,False,,395.6047449059371,[],"[768, 432]",ColorTask,64.0,104.0,,,HRV,HRV_0147,2022-11-30 18:24:17
,wl-rdm,112,324836,0.0-6.104-0.104,0.0,113.0,,,,,,,[],,,,,,56.4,0.0,u,0.0,True,1743.7999999523163,105.0,60.0,40.0,False,,255.97624053536381,[],"[768, 432]",ColorTask,65.0,105.0,,,HRV,HRV_0147,2022-11-30 18:24:17
,wl-rdm,113,327069,0.0-6.105-0.105,0.0,114.0,,,,,,,[],,,,,,87.9,1.0,i,1.0,True,753.5,46.0,60.0,40.0,False,,397.80665593008723,[],"[768, 432]",ColorTask,66.0,106.0,,,HRV,HRV_0147,2022-11-30 18:24:17
,wl-rdm,114,329585,0.0-6.106-0.106,0.0,115.0,,,,,,,[],,,,,,73.6,0.0,u,0.0,True,1068.0,65.0,60.0,40.0,False,,375.24513140001557,[],"[768, 432]",ColorTask,67.0,107.0,,,HRV,HRV_0147,2022-11-30 18:24:17
,wl-rdm,115,332052,0.0-6.107-0.107,0.0,116.0,,,,,,,[],,,,,,56.4,0.0,u,0.0,True,1146.5999999046326,69.0,60.0,40.0,False,,236.03639665296902,[],"[768, 432]",ColorTask,68.0,108.0,,,HRV,HRV_0147,2022-11-30 18:24:17
,wl-html-keyboard-response,116,339875,0.0-7.0-0.0,1.0,117.0,,,,,,,,5812.599999904633,1.0,0,,,,,,,,,,,,,,,,,,,,,,HRV,HRV_0147,2022-11-30 18:24:17
,wl-rdm,117,341902,0.0-8.0-0.0,1.0,118.0,,,,,,,[],,,,,,87.9,1.0,i,1.0,True,668.4000000953674,41.0,60.0,40.0,False,,273.21164125769087,[],"[768, 432]",ColorTask,69.0,1.0,,,HRV,HRV_0147,2022-11-30 18:24:17
,wl-rdm,118,343902,0.0-8.1-0.1,1.0,119.0,,,,,,,[],,,,,,87.9,0.0,u,0.0,True,703.1999998092651,43.0,60.0,40.0,False,,219.20013987584065,[],"[768, 432]",ColorTask,70.0,2.0,,,HRV,HRV_0147,2022-11-30 18:24:17
,wl-rdm,119,345919,0.0-8.2-0.2,1.0,120.0,,,,,,,[],,,,,,87.9,1.0,i,1.0,True,747.8000001907349,45.0,60.0,40.0,False,,214.23056339781272,[],"[768, 432]",ColorTask,71.0,3.0,,,HRV,HRV_0147,2022-11-30 18:24:17
,wl-rdm,120,347902,0.0-8.3-0.3,1.0,121.0,,,,,,,[],,,,,,73.6,1.0,i,1.0,True,642.8999998569489,39.0,60.0,40.0,False,,282.86184629329307,[],"[768, 432]",ColorTask,72.0,4.0,,,HRV,HRV_0147,2022-11-30 18:24:17
,wl-rdm,121,350018,0.0-8.4-0.4,1.0,122.0,,,,,,,[],,,,,,50.0,0.0,i,1.0,False,735.5,45.0,60.0,40.0,False,,292.09182017772406,[],"[768, 432]",ColorTask,71.0,5.0,,,HRV,HRV_0147,2022-11-30 18:24:17
,wl-rdm,122,353269,0.0-8.5-0.5,1.0,123.0,,,,,,,[],,,,,,50.0,0.0,i,1.0,False,1961.4000000953674,118.0,60.0,40.0,False,,208.3699653000102,[],"[768, 432]",ColorTask,70.0,6.0,,,HRV,HRV_0147,2022-11-30 18:24:17
,wl-rdm,123,355135,0.0-8.6-0.6,1.0,124.0,,,,,,,[],,,,,,87.9,0.0,u,0.0,True,541.0,33.0,60.0,40.0,False,,252.3006190226685,[],"[768, 432]",ColorTask,71.0,7.0,,,HRV,HRV_0147,2022-11-30 18:24:17
,wl-rdm,124,358369,0.0-8.7-0.7,1.0,125.0,,,,,,,[],,,,,,50.0,1.0,i,1.0,True,1824.9000000953674,110.0,60.0,40.0,False,,328.2869509528165,[],"[768, 432]",ColorTask,72.0,8.0,,,HRV,HRV_0147,2022-11-30 18:24:17
,wl-rdm,125,360402,0.0-8.8-0.8,1.0,126.0,,,,,,,[],,,,,,50.0,1.0,u,0.0,False,711.1000001430511,43.0,60.0,40.0,False,,256.34900456337243,[],"[768, 432]",ColorTask,71.0,9.0,,,HRV,HRV_0147,2022-11-30 18:24:17
,wl-rdm,126,362452,0.0-8.9-0.9,1.0,127.0,,,,,,,[],,,,,,87.9,0.0,u,0.0,True,594.8999998569489,36.0,60.0,40.0,False,,391.3511780591086,[],"[768, 432]",ColorTask,72.0,10.0,,,HRV,HRV_0147,2022-11-30 18:24:17
,wl-rdm,127,364602,0.0-8.10-0.10,1.0,128.0,,,,,,,[],,,,,,73.6,1.0,i,1.0,True,778.5999999046326,47.0,60.0,40.0,False,,300.14876820420216,[],"[768, 432]",ColorTask,73.0,11.0,,,HRV,HRV_0147,2022-11-30 18:24:17
,wl-rdm,128,366686,0.0-8.11-0.11,1.0,129.0,,,,,,,[],,,,,,73.6,0.0,u,0.0,True,685.8000001907349,42.0,60.0,40.0,False,,318.7228008227918,[],"[768, 432]",ColorTask,74.0,12.0,,,HRV,HRV_0147,2022-11-30 18:24:17
,wl-rdm,129,368669,0.0-8.12-0.12,1.0,130.0,,,,,,,[],,,,,,87.9,1.0,i,1.0,True,580.4000000953674,35.0,60.0,40.0,False,,337.60176703337595,[],"[768, 432]",ColorTask,75.0,13.0,,,HRV,HRV_0147,2022-11-30 18:24:17
,wl-rdm,130,371252,0.0-8.13-0.13,1.0,131.0,,,,,,,[],,,,,,53.2,1.0,i,1.0,True,1260.0,76.0,60.0,40.0,False,,254.77242089715307,[],"[768, 432]",ColorTask,76.0,14.0,,,HRV,HRV_0147,2022-11-30 18:24:17
,wl-rdm,131,374352,0.0-8.14-0.14,1.0,132.0,,,,,,,[],,,,,,50.0,1.0,i,1.0,True,1701.2999999523163,103.0,60.0,40.0,False,,328.1814076573386,[],"[768, 432]",ColorTask,77.0,15.0,,,HRV,HRV_0147,2022-11-30 18:24:17
,wl-rdm,132,376353,0.0-8.15-0.15,1.0,133.0,,,,,,,[],,,,,,87.9,1.0,i,1.0,True,680.7000000476837,41.0,60.0,40.0,False,,237.7199146159829,[],"[768, 432]",ColorTask,78.0,16.0,,,HRV,HRV_0147,2022-11-30 18:24:17
,wl-rdm,133,379652,0.0-8.16-0.16,1.0,134.0,,,,,,,[],,,,,,56.4,0.0,u,0.0,True,1964.9000000953674,118.0,60.0,40.0,False,,259.10994923434083,[],"[768, 432]",ColorTask,79.0,17.0,,,HRV,HRV_0147,2022-11-30 18:24:17
,wl-rdm,134,382403,0.0-8.17-0.17,1.0,135.0,,,,,,,[],,,,,,50.0,0.0,u,0.0,True,1307.0,79.0,60.0,40.0,False,,380.08667747903837,[],"[768, 432]",ColorTask,80.0,18.0,,,HRV,HRV_0147,2022-11-30 18:24:17
,wl-rdm,135,384552,0.0-8.18-0.18,1.0,136.0,,,,,,,[],,,,,,56.4,1.0,i,1.0,True,879.2999997138977,53.0,60.0,40.0,False,,205.51569703462698,[],"[768, 432]",ColorTask,81.0,19.0,,,HRV,HRV_0147,2022-11-30 18:24:17
,wl-rdm,136,387086,0.0-8.19-0.19,1.0,137.0,,,,,,,[],,,,,,53.2,1.0,i,1.0,True,1174.2999999523163,71.0,60.0,40.0,False,,294.5090148105378,[],"[768, 432]",ColorTask,82.0,20.0,,,HRV,HRV_0147,2022-11-30 18:24:17
,wl-rdm,137,389352,0.0-8.20-0.20,1.0,138.0,,,,,,,[],,,,,,53.2,0.0,u,0.0,True,943.0,57.0,60.0,40.0,False,,253.00514762933187,[],"[768, 432]",ColorTask,83.0,21.0,,,HRV,HRV_0147,2022-11-30 18:24:17
,wl-rdm,138,391852,0.0-8.21-0.21,1.0,139.0,,,,,,,[],,,,,,50.0,0.0,u,0.0,True,1018.3999998569489,62.0,60.0,40.0,False,,388.4508963505692,[],"[768, 432]",ColorTask,84.0,22.0,,,HRV,HRV_0147,2022-11-30 18:24:17
,wl-rdm,139,393902,0.0-8.22-0.22,1.0,140.0,,,,,,,[],,,,,,62.5,0.0,u,0.0,True,669.4999997615814,41.0,60.0,40.0,False,,299.05089392980915,[],"[768, 432]",ColorTask,85.0,23.0,,,HRV,HRV_0147,2022-11-30 18:24:17
,wl-rdm,140,395869,0.0-8.23-0.23,1.0,141.0,,,,,,,[],,,,,,73.6,0.0,u,0.0,True,624.1999998092651,38.0,60.0,40.0,False,,265.97763291344415,[],"[768, 432]",ColorTask,86.0,24.0,,,HRV,HRV_0147,2022-11-30 18:24:17
,wl-rdm,141,397769,0.0-8.24-0.24,1.0,142.0,,,,,,,[],,,,,,87.9,0.0,u,0.0,True,591.1999998092651,36.0,60.0,40.0,False,,233.30645788051783,[],"[768, 432]",ColorTask,87.0,25.0,,,HRV,HRV_0147,2022-11-30 18:24:17
,wl-rdm,142,400685,0.0-8.25-0.25,1.0,143.0,,,,,,,[],,,,,,62.5,0.0,u,0.0,True,1484.6999998092651,90.0,60.0,40.0,False,,334.12392704446944,[],"[768, 432]",ColorTask,88.0,26.0,,,HRV,HRV_0147,2022-11-30 18:24:17
,wl-rdm,143,403619,0.0-8.26-0.26,1.0,144.0,,,,,,,[],,,,,,56.4,0.0,u,0.0,True,1575.9000000953674,95.0,60.0,40.0,False,,281.1977621033871,[],"[768, 432]",ColorTask,89.0,27.0,,,HRV,HRV_0147,2022-11-30 18:24:17
,wl-rdm,144,406618,0.0-8.27-0.27,1.0,145.0,,,,,,,[],,,,,,53.2,0.0,i,1.0,False,1686.4000000953674,102.0,60.0,40.0,False,,223.8429897557896,[],"[768, 432]",ColorTask,88.0,28.0,,,HRV,HRV_0147,2022-11-30 18:24:17
,wl-rdm,145,409336,0.0-8.28-0.28,1.0,146.0,,,,,,,[],,,,,,56.4,1.0,i,1.0,True,1404.4000000953674,85.0,60.0,40.0,False,,233.60210338490938,[],"[768, 432]",ColorTask,89.0,29.0,,,HRV,HRV_0147,2022-11-30 18:24:17
,wl-rdm,146,412469,0.0-8.29-0.29,1.0,147.0,,,,,,,[],,,,,,53.2,1.0,i,1.0,True,1840.9000000953674,111.0,60.0,40.0,False,,221.9627496794098,[],"[768, 432]",ColorTask,90.0,30.0,,,HRV,HRV_0147,2022-11-30 18:24:17
,wl-rdm,147,414603,0.0-8.30-0.30,1.0,148.0,,,,,,,[],,,,,,73.6,0.0,u,0.0,True,842.5999999046326,51.0,60.0,40.0,False,,211.28014943735147,[],"[768, 432]",ColorTask,91.0,31.0,,,HRV,HRV_0147,2022-11-30 18:24:17
,wl-rdm,148,416685,0.0-8.31-0.31,1.0,149.0,,,,,,,[],,,,,,73.6,1.0,i,1.0,True,741.5999999046326,45.0,60.0,40.0,False,,257.7618825366052,[],"[768, 432]",ColorTask,92.0,32.0,,,HRV,HRV_0147,2022-11-30 18:24:17
,wl-rdm,149,418936,0.0-8.32-0.32,1.0,150.0,,,,,,,[],,,,,,73.6,0.0,u,0.0,True,805.9000000953674,49.0,60.0,40.0,False,,381.8074330376577,[],"[768, 432]",ColorTask,93.0,33.0,,,HRV,HRV_0147,2022-11-30 18:24:17
,wl-rdm,150,420935,0.0-8.33-0.33,1.0,151.0,,,,,,,[],,,,,,87.9,1.0,i,1.0,True,662.4999997615814,40.0,60.0,40.0,False,,258.20451550761095,[],"[768, 432]",ColorTask,94.0,34.0,,,HRV,HRV_0147,2022-11-30 18:24:17
,wl-rdm,151,423419,0.0-8.34-0.34,1.0,152.0,,,,,,,[],,,,,,56.4,1.0,i,1.0,True,1184.0999999046326,72.0,60.0,40.0,False,,222.91193226233005,[],"[768, 432]",ColorTask,95.0,35.0,,,HRV,HRV_0147,2022-11-30 18:24:17
,wl-rdm,152,425553,0.0-8.35-0.35,1.0,153.0,,,,,,,[],,,,,,53.2,0.0,u,0.0,True,733.5,44.0,60.0,40.0,False,,319.2047197374338,[],"[768, 432]",ColorTask,96.0,36.0,,,HRV,HRV_0147,2022-11-30 18:24:17
,wl-rdm,153,428252,0.0-8.36-0.36,1.0,154.0,,,,,,,[],,,,,,53.2,1.0,i,1.0,True,1366.7000000476837,82.0,60.0,40.0,False,,257.1648584668444,[],"[768, 432]",ColorTask,97.0,37.0,,,HRV,HRV_0147,2022-11-30 18:24:17
,wl-rdm,154,430669,0.0-8.37-0.37,1.0,155.0,,,,,,,[],,,,,,73.6,1.0,i,1.0,True,1001.9000000953674,61.0,60.0,40.0,False,,325.728889444007,[],"[768, 432]",ColorTask,98.0,38.0,,,HRV,HRV_0147,2022-11-30 18:24:17
,wl-rdm,155,432919,0.0-8.38-0.38,1.0,156.0,,,,,,,[],,,,,,53.2,1.0,u,0.0,False,775.900000333786,47.0,60.0,40.0,False,,397.65822111377474,[],"[768, 432]",ColorTask,97.0,39.0,,,HRV,HRV_0147,2022-11-30 18:24:17
,wl-rdm,156,434919,0.0-8.39-0.39,1.0,157.0,,,,,,,[],,,,,,62.5,1.0,i,1.0,True,535.7999999523163,33.0,60.0,40.0,False,,380.70206497720164,[],"[768, 432]",ColorTask,98.0,40.0,,,HRV,HRV_0147,2022-11-30 18:24:17
,wl-rdm,157,437453,0.0-8.40-0.40,1.0,158.0,,,,,,,[],,,,,,53.2,1.0,i,1.0,True,1097.7000002861023,66.0,60.0,40.0,False,,358.2250722177937,[],"[768, 432]",ColorTask,99.0,41.0,,,HRV,HRV_0147,2022-11-30 18:24:17
,wl-rdm,158,439919,0.0-8.41-0.41,1.0,159.0,,,,,,,[],,,,,,56.4,0.0,u,0.0,True,1122.7999999523163,68.0,60.0,40.0,False,,272.3439094108786,[],"[768, 432]",ColorTask,100.0,42.0,,,HRV,HRV_0147,2022-11-30 18:24:17
,wl-rdm,159,441851,0.0-8.42-0.42,1.0,160.0,,,,,,,[],,,,,,73.6,1.0,i,1.0,True,658.0,40.0,60.0,40.0,False,,201.7699629255172,[],"[768, 432]",ColorTask,101.0,43.0,,,HRV,HRV_0147,2022-11-30 18:24:17
,wl-rdm,160,443768,0.0-8.43-0.43,1.0,161.0,,,,,,,[],,,,,,87.9,1.0,i,1.0,True,622.6000001430511,38.0,60.0,40.0,False,,216.92040069989997,[],"[768, 432]",ColorTask,102.0,44.0,,,HRV,HRV_0147,2022-11-30 18:24:17
,wl-rdm,161,445768,0.0-8.44-0.44,1.0,162.0,,,,,,,[],,,,,,87.9,0.0,u,0.0,True,608.0999999046326,37.0,60.0,40.0,False,,311.2476043334706,[],"[768, 432]",ColorTask,103.0,45.0,,,HRV,HRV_0147,2022-11-30 18:24:17
,wl-rdm,162,448551,0.0-8.45-0.45,1.0,163.0,,,,,,,[],,,,,,56.4,0.0,u,0.0,True,1473.2999999523163,89.0,60.0,40.0,False,,224.09751115715403,[],"[768, 432]",ColorTask,104.0,46.0,,,HRV,HRV_0147,2022-11-30 18:24:17
,wl-rdm,163,450652,0.0-8.46-0.46,1.0,164.0,,,,,,,[],,,,,,53.2,0.0,i,1.0,False,672.8000001907349,41.0,60.0,40.0,False,,357.01108674050386,[],"[768, 432]",ColorTask,103.0,47.0,,,HRV,HRV_0147,2022-11-30 18:24:17
,wl-rdm,164,453518,0.0-8.47-0.47,1.0,165.0,,,,,,,[],,,,,,56.4,0.0,u,0.0,True,1497.5,90.0,60.0,40.0,False,,297.6297071023392,[],"[768, 432]",ColorTask,104.0,48.0,,,HRV,HRV_0147,2022-11-30 18:24:17
,wl-rdm,165,456419,0.0-8.48-0.48,1.0,166.0,,,,,,,[],,,,,,50.0,0.0,u,0.0,True,1570.2000002861023,95.0,60.0,40.0,False,,256.8424532946875,[],"[768, 432]",ColorTask,105.0,49.0,,,HRV,HRV_0147,2022-11-30 18:24:17
,wl-rdm,166,459052,0.0-8.49-0.49,1.0,167.0,,,,,,,[],,,,,,62.5,1.0,i,1.0,True,1341.3000001907349,81.0,60.0,40.0,False,,220.20552025946242,[],"[768, 432]",ColorTask,106.0,50.0,,,HRV,HRV_0147,2022-11-30 18:24:17
,wl-rdm,167,461151,0.0-8.50-0.50,1.0,168.0,,,,,,,[],,,,,,73.6,1.0,i,1.0,True,737.2000000476837,45.0,60.0,40.0,False,,268.06535328090365,[],"[768, 432]",ColorTask,107.0,51.0,,,HRV,HRV_0147,2022-11-30 18:24:17
,wl-rdm,168,463318,0.0-8.51-0.51,1.0,169.0,,,,,,,[],,,,,,50.0,0.0,i,1.0,False,787.9000000953674,48.0,60.0,40.0,False,,287.1723853931686,[],"[768, 432]",ColorTask,106.0,52.0,,,HRV,HRV_0147,2022-11-30 18:24:17
,wl-rdm,169,465386,0.0-8.52-0.52,1.0,170.0,,,,,,,[],,,,,,87.9,1.0,i,1.0,True,637.7000000476837,39.0,60.0,40.0,False,,346.1073415883634,[],"[768, 432]",ColorTask,107.0,53.0,,,HRV,HRV_0147,2022-11-30 18:24:17
,wl-rdm,170,467435,0.0-8.53-0.53,1.0,171.0,,,,,,,[],,,,,,62.5,1.0,i,1.0,True,772.1000001430511,47.0,60.0,40.0,False,,211.24082274113144,[],"[768, 432]",ColorTask,108.0,54.0,,,HRV,HRV_0147,2022-11-30 18:24:17
,wl-rdm,171,469585,0.0-8.54-0.54,1.0,172.0,,,,,,,[],,,,,,73.6,0.0,u,0.0,True,793.2999999523163,48.0,60.0,40.0,False,,271.6683936616182,[],"[768, 432]",ColorTask,109.0,55.0,,,HRV,HRV_0147,2022-11-30 18:24:17
,wl-rdm,172,471851,0.0-8.55-0.55,1.0,173.0,,,,,,,[],,,,,,50.0,1.0,u,0.0,False,785.2000002861023,48.0,60.0,40.0,False,,391.7650403396704,[],"[768, 432]",ColorTask,108.0,56.0,,,HRV,HRV_0147,2022-11-30 18:24:17
,wl-rdm,173,475252,0.0-8.56-0.56,1.0,174.0,,,,,,,[],,,,,,53.2,1.0,i,1.0,True,2007.9000000953674,121.0,60.0,40.0,False,,328.97862806997637,[],"[768, 432]",ColorTask,109.0,57.0,,,HRV,HRV_0147,2022-11-30 18:24:17
,wl-rdm,174,477919,0.0-8.57-0.57,1.0,175.0,,,,,,,[],,,,,,62.5,0.0,u,0.0,True,1218.7999997138977,74.0,60.0,40.0,False,,352.1435825805213,[],"[768, 432]",ColorTask,110.0,58.0,,,HRV,HRV_0147,2022-11-30 18:24:17
,wl-rdm,175,479885,0.0-8.58-0.58,1.0,176.0,,,,,,,[],,,,,,73.6,0.0,u,0.0,True,652.3000001907349,40.0,60.0,40.0,False,,246.8401658013753,[],"[768, 432]",ColorTask,111.0,59.0,,,HRV,HRV_0147,2022-11-30 18:24:17
,wl-rdm,176,482269,0.0-8.59-0.59,1.0,177.0,,,,,,,[],,,,,,62.5,1.0,i,1.0,True,980.5,59.0,60.0,40.0,False,,336.7877545142916,[],"[768, 432]",ColorTask,112.0,60.0,,,HRV,HRV_0147,2022-11-30 18:24:17
,wl-rdm,177,484635,0.0-8.60-0.60,1.0,178.0,,,,,,,[],,,,,,62.5,0.0,u,0.0,True,964.3999998569489,58.0,60.0,40.0,False,,318.451026012662,[],"[768, 432]",ColorTask,113.0,61.0,,,HRV,HRV_0147,2022-11-30 18:24:17
,wl-rdm,178,486919,0.0-8.61-0.61,1.0,179.0,,,,,,,[],,,,,,73.6,0.0,u,0.0,True,994.4000000953674,60.0,60.0,40.0,False,,214.50242264109806,[],"[768, 432]",ColorTask,114.0,62.0,,,HRV,HRV_0147,2022-11-30 18:24:17
,wl-rdm,179,488902,0.0-8.62-0.62,1.0,180.0,,,,,,,[],,,,,,73.6,1.0,i,1.0,True,675.1000001430511,41.0,60.0,40.0,False,,222.0532303915611,[],"[768, 432]",ColorTask,115.0,63.0,,,HRV,HRV_0147,2022-11-30 18:24:17
,wl-rdm,180,491702,0.0-8.63-0.63,1.0,181.0,,,,,,,[],,,,,,56.4,0.0,u,0.0,True,1456.2000000476837,88.0,60.0,40.0,False,,254.0791507466177,[],"[768, 432]",ColorTask,116.0,64.0,,,HRV,HRV_0147,2022-11-30 18:24:17
,wl-rdm,181,494552,0.0-8.64-0.64,1.0,182.0,,,,,,,[],,,,,,50.0,1.0,i,1.0,True,1536.0,93.0,60.0,40.0,False,,223.75192979432768,[],"[768, 432]",ColorTask,117.0,65.0,,,HRV,HRV_0147,2022-11-30 18:24:17
,wl-rdm,182,497902,0.0-8.65-0.65,1.0,183.0,,,,,,,[],,,,,,53.2,0.0,i,1.0,False,1926.5,116.0,60.0,40.0,False,,345.82153658550453,[],"[768, 432]",ColorTask,116.0,66.0,,,HRV,HRV_0147,2022-11-30 18:24:17
,wl-rdm,183,500269,0.0-8.66-0.66,1.0,184.0,,,,,,,[],,,,,,62.5,1.0,i,1.0,True,983.0999999046326,59.0,60.0,40.0,False,,330.3909566957153,[],"[768, 432]",ColorTask,117.0,67.0,,,HRV,HRV_0147,2022-11-30 18:24:17
,wl-rdm,184,502836,0.0-8.67-0.67,1.0,185.0,,,,,,,[],,,,,,56.4,0.0,u,0.0,True,1241.2999999523163,75.0,60.0,40.0,False,,249.79866020058213,[],"[768, 432]",ColorTask,118.0,68.0,,,HRV,HRV_0147,2022-11-30 18:24:17
,wl-rdm,185,505119,0.0-8.68-0.68,1.0,186.0,,,,,,,[],,,,,,53.2,0.0,u,0.0,True,979.8999998569489,59.0,60.0,40.0,False,,236.80730548873797,[],"[768, 432]",ColorTask,119.0,69.0,,,HRV,HRV_0147,2022-11-30 18:24:17
,wl-rdm,186,507068,0.0-8.69-0.69,1.0,187.0,,,,,,,[],,,,,,87.9,0.0,u,0.0,True,609.7999997138977,37.0,60.0,40.0,False,,256.96776980320647,[],"[768, 432]",ColorTask,120.0,70.0,,,HRV,HRV_0147,2022-11-30 18:24:17
,wl-rdm,187,509785,0.0-8.70-0.70,1.0,188.0,,,,,,,[],,,,,,56.4,1.0,i,1.0,True,1355.0000002384186,82.0,60.0,40.0,False,,280.90267596415043,[],"[768, 432]",ColorTask,121.0,71.0,,,HRV,HRV_0147,2022-11-30 18:24:17
,wl-rdm,188,511918,0.0-8.71-0.71,1.0,189.0,,,,,,,[],,,,,,73.6,1.0,i,1.0,True,819.0999999046326,50.0,60.0,40.0,False,,217.93143060671594,[],"[768, 432]",ColorTask,122.0,72.0,,,HRV,HRV_0147,2022-11-30 18:24:17
,wl-rdm,189,514802,0.0-8.72-0.72,1.0,190.0,,,,,,,[],,,,,,56.4,1.0,u,0.0,False,1598.7999999523163,96.0,60.0,40.0,False,,222.27303974060706,[],"[768, 432]",ColorTask,121.0,73.0,,,HRV,HRV_0147,2022-11-30 18:24:17
,wl-rdm,190,516668,0.0-8.73-0.73,1.0,191.0,,,,,,,[],,,,,,87.9,0.0,u,0.0,True,579.2999999523163,35.0,60.0,40.0,False,,228.56234636993844,[],"[768, 432]",ColorTask,122.0,74.0,,,HRV,HRV_0147,2022-11-30 18:24:17
,wl-rdm,191,518919,0.0-8.74-0.74,1.0,192.0,,,,,,,[],,,,,,62.5,0.0,u,0.0,True,941.7000000476837,57.0,60.0,40.0,False,,247.81200742452143,[],"[768, 432]",ColorTask,123.0,75.0,,,HRV,HRV_0147,2022-11-30 18:24:17
,wl-rdm,192,520886,0.0-8.75-0.75,1.0,193.0,,,,,,,[],,,,,,87.9,0.0,u,0.0,True,589.8000001907349,36.0,60.0,40.0,False,,313.13890660639174,[],"[768, 432]",ColorTask,124.0,76.0,,,HRV,HRV_0147,2022-11-30 18:24:17
,wl-rdm,193,523052,0.0-8.76-0.76,1.0,194.0,,,,,,,[],,,,,,50.0,1.0,u,0.0,False,823.5,50.0,60.0,40.0,False,,274.71026525840637,[],"[768, 432]",ColorTask,123.0,77.0,,,HRV,HRV_0147,2022-11-30 18:24:17
,wl-rdm,194,525852,0.0-8.77-0.77,1.0,195.0,,,,,,,[],,,,,,50.0,1.0,u,0.0,False,1442.7000000476837,87.0,60.0,40.0,False,,270.6941689545891,[],"[768, 432]",ColorTask,122.0,78.0,,,HRV,HRV_0147,2022-11-30 18:24:17
,wl-rdm,195,528702,0.0-8.78-0.78,1.0,196.0,,,,,,,[],,,,,,62.5,0.0,u,0.0,True,1378.5,83.0,60.0,40.0,False,,383.0396431854879,[],"[768, 432]",ColorTask,123.0,79.0,,,HRV,HRV_0147,2022-11-30 18:24:17
,wl-rdm,196,532002,0.0-8.79-0.79,1.0,197.0,,,,,,,[],,,,,,56.4,0.0,u,0.0,True,1966.2999999523163,118.0,60.0,40.0,False,,277.5871659495466,[],"[768, 432]",ColorTask,124.0,80.0,,,HRV,HRV_0147,2022-11-30 18:24:17
,wl-rdm,197,534036,0.0-8.80-0.80,1.0,198.0,,,,,,,[],,,,,,87.9,0.0,u,0.0,True,598.5,36.0,60.0,40.0,False,,370.86889277484295,[],"[768, 432]",ColorTask,125.0,81.0,,,HRV,HRV_0147,2022-11-30 18:24:17
,wl-rdm,198,537052,0.0-8.81-0.81,1.0,199.0,,,,,,,[],,,,,,56.4,1.0,u,0.0,False,1719.4000000953674,104.0,60.0,40.0,False,,228.5790951577018,[],"[768, 432]",ColorTask,124.0,82.0,,,HRV,HRV_0147,2022-11-30 18:24:17
,wl-rdm,199,538986,0.0-8.82-0.82,1.0,200.0,,,,,,,[],,,,,,87.9,1.0,i,1.0,True,651.0999999046326,40.0,60.0,40.0,False,,216.5404074299443,[],"[768, 432]",ColorTask,125.0,83.0,,,HRV,HRV_0147,2022-11-30 18:24:17
,wl-rdm,200,541786,0.0-8.83-0.83,1.0,201.0,,,,,,,[],,,,,,50.0,1.0,u,0.0,False,1499.2999999523163,90.0,60.0,40.0,False,,221.16855221907045,[],"[768, 432]",ColorTask,124.0,84.0,,,HRV,HRV_0147,2022-11-30 18:24:17
,wl-rdm,201,543536,0.0-8.84-0.84,1.0,202.0,,,,,,,[],,,,,,56.4,1.0,i,1.0,True,460.90000009536743,28.0,60.0,40.0,False,,205.66419233823083,[],"[768, 432]",ColorTask,125.0,85.0,,,HRV,HRV_0147,2022-11-30 18:24:17
,wl-rdm,202,545952,0.0-8.85-0.85,1.0,203.0,,,,,,,[],,,,,,56.4,1.0,i,1.0,True,1054.8999998569489,64.0,60.0,40.0,False,,271.16388065228773,[],"[768, 432]",ColorTask,126.0,86.0,,,HRV,HRV_0147,2022-11-30 18:24:17
,wl-rdm,203,547835,0.0-8.86-0.86,1.0,204.0,,,,,,,[],,,,,,73.6,1.0,i,1.0,True,572.3999998569489,35.0,60.0,40.0,False,,218.47333967145445,[],"[768, 432]",ColorTask,127.0,87.0,,,HRV,HRV_0147,2022-11-30 18:24:17
,wl-rdm,204,549835,0.0-8.87-0.87,1.0,205.0,,,,,,,[],,,,,,62.5,1.0,i,1.0,True,621.8000001907349,38.0,60.0,40.0,False,,296.1304535412248,[],"[768, 432]",ColorTask,128.0,88.0,,,HRV,HRV_0147,2022-11-30 18:24:17
,wl-rdm,205,552718,0.0-8.88-0.88,1.0,206.0,,,,,,,[],,,,,,53.2,0.0,u,0.0,True,1542.2999999523163,93.0,60.0,40.0,False,,256.6378565715155,[],"[768, 432]",ColorTask,129.0,89.0,,,HRV,HRV_0147,2022-11-30 18:24:17
,wl-rdm,206,554685,0.0-8.89-0.89,1.0,207.0,,,,,,,[],,,,,,62.5,1.0,i,1.0,True,575.8999998569489,35.0,60.0,40.0,False,,301.33412525407516,[],"[768, 432]",ColorTask,130.0,90.0,,,HRV,HRV_0147,2022-11-30 18:24:17
,wl-rdm,207,556852,0.0-8.90-0.90,1.0,208.0,,,,,,,[],,,,,,73.6,0.0,u,0.0,True,768.8999998569489,47.0,60.0,40.0,False,,310.5698905870449,[],"[768, 432]",ColorTask,131.0,91.0,,,HRV,HRV_0147,2022-11-30 18:24:17
,wl-rdm,208,560252,0.0-8.91-0.91,1.0,209.0,,,,,,,[],,,,,,50.0,0.0,u,0.0,True,2038.8999998569489,123.0,60.0,40.0,False,,280.88619850404814,[],"[768, 432]",ColorTask,132.0,92.0,,,HRV,HRV_0147,2022-11-30 18:24:17
,wl-rdm,209,562718,0.0-8.92-0.92,1.0,210.0,,,,,,,[],,,,,,53.2,1.0,i,1.0,True,1056.7999999523163,64.0,60.0,40.0,False,,317.5251645458851,[],"[768, 432]",ColorTask,133.0,93.0,,,HRV,HRV_0147,2022-11-30 18:24:17
,wl-rdm,210,564669,0.0-8.93-0.93,1.0,211.0,,,,,,,[],,,,,,87.9,1.0,i,1.0,True,622.2999999523163,38.0,60.0,40.0,False,,253.61238778334825,[],"[768, 432]",ColorTask,134.0,94.0,,,HRV,HRV_0147,2022-11-30 18:24:17
,wl-rdm,211,567102,0.0-8.94-0.94,1.0,212.0,,,,,,,[],,,,,,56.4,1.0,i,1.0,True,1047.3999998569489,63.0,60.0,40.0,False,,317.54134499127355,[],"[768, 432]",ColorTask,135.0,95.0,,,HRV,HRV_0147,2022-11-30 18:24:17
,wl-rdm,212,569086,0.0-8.95-0.95,1.0,213.0,,,,,,,[],,,,,,62.5,1.0,i,1.0,True,566.0,34.0,60.0,40.0,False,,355.4488425316042,[],"[768, 432]",ColorTask,136.0,96.0,,,HRV,HRV_0147,2022-11-30 18:24:17
,wl-rdm,213,571386,0.0-8.96-0.96,1.0,214.0,,,,,,,[],,,,,,56.4,0.0,u,0.0,True,952.0,58.0,60.0,40.0,False,,263.21508790494346,[],"[768, 432]",ColorTask,137.0,97.0,,,HRV,HRV_0147,2022-11-30 18:24:17
,wl-rdm,214,573468,0.0-8.97-0.97,1.0,215.0,,,,,,,[],,,,,,73.6,0.0,i,1.0,False,704.2000002861023,43.0,60.0,40.0,False,,294.53282435657405,[],"[768, 432]",ColorTask,136.0,98.0,,,HRV,HRV_0147,2022-11-30 18:24:17
,wl-rdm,215,575702,0.0-8.98-0.98,1.0,216.0,,,,,,,[],,,,,,53.2,0.0,u,0.0,True,820.2000000476837,50.0,60.0,40.0,False,,320.0809091851679,[],"[768, 432]",ColorTask,137.0,99.0,,,HRV,HRV_0147,2022-11-30 18:24:17
,wl-rdm,216,578702,0.0-8.99-0.99,1.0,217.0,,,,,,,[],,,,,,53.2,1.0,u,0.0,False,1590.9000000953674,96.0,60.0,40.0,False,,332.0056103791303,[],"[768, 432]",ColorTask,136.0,100.0,,,HRV,HRV_0147,2022-11-30 18:24:17
,wl-rdm,217,580802,0.0-8.100-0.100,1.0,218.0,,,,,,,[],,,,,,62.5,0.0,u,0.0,True,732.4000000953674,44.0,60.0,40.0,False,,297.028160221421,[],"[768, 432]",ColorTask,137.0,101.0,,,HRV,HRV_0147,2022-11-30 18:24:17
,wl-rdm,218,583785,0.0-8.101-0.101,1.0,219.0,,,,,,,[],,,,,,50.0,1.0,u,0.0,False,1663.0999999046326,100.0,60.0,40.0,False,,237.4224769059968,[],"[768, 432]",ColorTask,136.0,102.0,,,HRV,HRV_0147,2022-11-30 18:24:17
,wl-rdm,219,586218,0.0-8.102-0.102,1.0,220.0,,,,,,,[],,,,,,62.5,0.0,u,0.0,True,1080.7999999523163,65.0,60.0,40.0,False,,275.13091791493673,[],"[768, 432]",ColorTask,137.0,103.0,,,HRV,HRV_0147,2022-11-30 18:24:17
,wl-rdm,220,588169,0.0-8.103-0.103,1.0,221.0,,,,,,,[],,,,,,50.0,0.0,i,1.0,False,592.1999998092651,36.0,60.0,40.0,False,,277.9221774326973,[],"[768, 432]",ColorTask,136.0,104.0,,,HRV,HRV_0147,2022-11-30 18:24:17
,wl-rdm,221,590552,0.0-8.104-0.104,1.0,222.0,,,,,,,[],,,,,,62.5,1.0,i,1.0,True,1061.2999999523163,64.0,60.0,40.0,False,,258.02999236230977,[],"[768, 432]",ColorTask,137.0,105.0,,,HRV,HRV_0147,2022-11-30 18:24:17
,wl-rdm,222,593218,0.0-8.105-0.105,1.0,223.0,,,,,,,[],,,,,,62.5,0.0,u,0.0,True,1336.5999999046326,81.0,60.0,40.0,False,,238.08720860387012,[],"[768, 432]",ColorTask,138.0,106.0,,,HRV,HRV_0147,2022-11-30 18:24:17
,wl-rdm,223,595835,0.0-8.106-0.106,1.0,224.0,,,,,,,[],,,,,,50.0,0.0,u,0.0,True,1302.2000000476837,79.0,60.0,40.0,False,,224.6180482340585,[],"[768, 432]",ColorTask,139.0,107.0,,,HRV,HRV_0147,2022-11-30 18:24:17
,wl-rdm,224,599302,0.0-8.107-0.107,1.0,225.0,,,,,,,[],,,,,,53.2,0.0,u,0.0,True,2086.4000000953674,126.0,60.0,40.0,False,,312.2668537457414,[],"[768, 432]",ColorTask,140.0,108.0,,,HRV,HRV_0147,2022-11-30 18:24:17
,wl-html-button-response,225,601608,0.0-9.0-0.0,,,,,,,,,,2298.800000190735,,0,,,,,,,,,,,,,,,,,,,,<h3>End of this session. Thank you!</h3><br>,['Close window'],HRV,HRV_0147,2022-11-30 18:24:17
