trialN,stimuli,trialStartTime,trialStartTime_UNIX,stimulus1,stimulus2,stimulus1Bid,stimulus2Bid,delta,selected,rt,rt_UNIX,rt_perfnow,receivedResponse,rsp,trialEndTime,trialDuration,trialEndTime_UNIX,trialDuration_UNIX,exp,subjectId,date
0,"[{'imgObject': {}, 'id': 'orange slices', 'src': '/static/foodstim60/orange slices.jpg', 'key': 'u', 'origWidth': 409, 'origHeight': 410, 'width': 409, 'height': 410, 'widthPercent': 0.45, 'rescaleHeight': False, 'trialN': 0, 'loaded': True, 'loadedTime': 2210.899999976158, 'positionName': 'LEFT', 'positionCoords': [328.28, 227], 'bid': 4.94}, {'imgObject': {}, 'id': 'fried eggs', 'src': '/static/foodstim60/fried eggs.jpg', 'key': 'i', 'origWidth': 410, 'origHeight': 410, 'width': 410, 'height': 410, 'widthPercent': 0.45, 'rescaleHeight': False, 'trialN': 0, 'loaded': True, 'loadedTime': 2252.7000000476837, 'positionName': 'RIGHT', 'positionCoords': [798.72, 227], 'bid': 8.69}]",2893.3000000715256,1669831106922,orange slices,fried eggs,4.94,8.69,3.749999999999999,fried eggs,2386.5999999046326,2387,2387.5,True,i,5788.200000047684,2894.899999976158,1669831109817,2895,HRV,HRV_0015,2022-11-30 18:04:24
1,"[{'imgObject': {}, 'id': 'froot loops w milk', 'src': '/static/foodstim60/froot loops w milk.jpg', 'key': 'u', 'origWidth': 410, 'origHeight': 410, 'width': 410, 'height': 410, 'widthPercent': 0.45, 'rescaleHeight': False, 'trialN': 1, 'loaded': True, 'loadedTime': 2268.3000000715256, 'positionName': 'LEFT', 'positionCoords': [327.28, 227], 'bid': 4.97}, {'imgObject': {}, 'id': 'chicken nuggets2', 'src': '/static/foodstim60/chicken nuggets2.jpg', 'key': 'i', 'origWidth': 410, 'origHeight': 409, 'width': 410, 'height': 409, 'widthPercent': 0.45, 'rescaleHeight': False, 'trialN': 1, 'loaded': True, 'loadedTime': 2297.100000023842, 'positionName': 'RIGHT', 'positionCoords': [798.72, 227.5], 'bid': 9.37}]",5788.5,1669831109817,froot loops w milk,chicken nuggets2,4.97,9.37,4.3999999999999995,chicken nuggets2,1380.5,1381,1380.8999999761581,True,i,7677.600000023842,1889.1000000238419,1669831111706,1889,HRV,HRV_0015,2022-11-30 18:04:24
2,"[{'imgObject': {}, 'id': 'mango', 'src': '/static/foodstim60/mango.jpg', 'key': 'u', 'origWidth': 411, 'origHeight': 411, 'width': 411, 'height': 411, 'widthPercent': 0.45, 'rescaleHeight': False, 'trialN': 2, 'loaded': True, 'loadedTime': 2316.5, 'positionName': 'LEFT', 'positionCoords': [326.28, 226.5], 'bid': 2.66}, {'imgObject': {}, 'id': 'sweetpotato', 'src': '/static/foodstim60/sweetpotato.jpg', 'key': 'i', 'origWidth': 410, 'origHeight': 410, 'width': 410, 'height': 410, 'widthPercent': 0.45, 'rescaleHeight': False, 'trialN': 2, 'loaded': True, 'loadedTime': 2333.7000000476837, 'positionName': 'RIGHT', 'positionCoords': [798.72, 227], 'bid': 2.5500000000000003}]",7677.899999976158,1669831111706,mango,sweetpotato,2.66,2.5500000000000003,-0.10999999999999988,NaN,NaN,NaN,,False,NaN,11712.0,4034.100000023842,1669831115740,4034,HRV,HRV_0015,2022-11-30 18:04:24
3,"[{'imgObject': {}, 'id': 'mac & cheese', 'src': '/static/foodstim60/mac & cheese.jpg', 'key': 'u', 'origWidth': 410, 'origHeight': 410, 'width': 410, 'height': 410, 'widthPercent': 0.45, 'rescaleHeight': False, 'trialN': 3, 'loaded': True, 'loadedTime': 2346.7000000476837, 'positionName': 'LEFT', 'positionCoords': [327.28, 227], 'bid': 10}, {'imgObject': {}, 'id': 'edamame', 'src': '/static/foodstim60/edamame.jpg', 'key': 'i', 'origWidth': 409, 'origHeight': 410, 'width': 409, 'height': 410, 'widthPercent': 0.45, 'rescaleHeight': False, 'trialN': 3, 'loaded': True, 'loadedTime': 2394.5, 'positionName': 'RIGHT', 'positionCoords': [798.72, 227], 'bid': 7.76}]",11712.600000023842,1669831115741,mac & cheese,edamame,10.0,7.76,-2.24,mac & cheese,1172.7000000476837,1173,1173.2000000476837,True,u,13389.5,1676.8999999761581,1669831117418,1677,HRV,HRV_0015,2022-11-30 18:04:24
4,"[{'imgObject': {}, 'id': 'Tribe humus pita', 'src': '/static/foodstim60/Tribe humus pita.jpg', 'key': 'u', 'origWidth': 411, 'origHeight': 411, 'width': 411, 'height': 411, 'widthPercent': 0.45, 'rescaleHeight': False, 'trialN': 4, 'loaded': True, 'loadedTime': 2466.3000000715256, 'positionName': 'LEFT', 'positionCoords': [326.28, 226.5], 'bid': 3.85}, {'imgObject': {}, 'id': 'bagel plain', 'src': '/static/foodstim60/bagel plain.jpg', 'key': 'i', 'origWidth': 410, 'origHeight': 410, 'width': 410, 'height': 410, 'widthPercent': 0.45, 'rescaleHeight': False, 'trialN': 4, 'loaded': True, 'loadedTime': 2417.100000023842, 'positionName': 'RIGHT', 'positionCoords': [798.72, 227], 'bid': 3.9}]",13389.899999976158,1669831117418,Tribe humus pita,bagel plain,3.85,3.9,0.04999999999999982,bagel plain,1373.8000000715256,1375,1374.4000000953674,True,i,15281.600000023842,1891.7000000476837,1669831119310,1892,HRV,HRV_0015,2022-11-30 18:04:24
5,"[{'imgObject': {}, 'id': 'seaweed', 'src': '/static/foodstim60/seaweed.jpg', 'key': 'u', 'origWidth': 410, 'origHeight': 410, 'width': 410, 'height': 410, 'widthPercent': 0.45, 'rescaleHeight': False, 'trialN': 5, 'loaded': True, 'loadedTime': 2463.100000023842, 'positionName': 'LEFT', 'positionCoords': [327.28, 227], 'bid': 10}, {'imgObject': {}, 'id': 'luckycharms', 'src': '/static/foodstim60/luckycharms.jpg', 'key': 'i', 'origWidth': 410, 'origHeight': 409, 'width': 410, 'height': 409, 'widthPercent': 0.45, 'rescaleHeight': False, 'trialN': 5, 'loaded': True, 'loadedTime': 2484.600000023842, 'positionName': 'RIGHT', 'positionCoords': [798.72, 227.5], 'bid': 4.07}]",15282.0,1669831119310,seaweed,luckycharms,10.0,4.07,-5.93,seaweed,836.7000000476837,838,837.3000000715256,True,u,16621.5,1339.5,1669831120650,1340,HRV,HRV_0015,2022-11-30 18:04:24
6,"[{'imgObject': {}, 'id': 'Tribe humus pita', 'src': '/static/foodstim60/Tribe humus pita.jpg', 'key': 'u', 'origWidth': 411, 'origHeight': 411, 'width': 411, 'height': 411, 'widthPercent': 0.45, 'rescaleHeight': False, 'trialN': 6, 'loaded': True, 'loadedTime': 2465.8000000715256, 'positionName': 'LEFT', 'positionCoords': [326.28, 226.5], 'bid': 3.85}, {'imgObject': {}, 'id': 'steak', 'src': '/static/foodstim60/steak.jpg', 'key': 'i', 'origWidth': 410, 'origHeight': 410, 'width': 410, 'height': 410, 'widthPercent': 0.45, 'rescaleHeight': False, 'trialN': 6, 'loaded': True, 'loadedTime': 2362.899999976158, 'positionName': 'RIGHT', 'positionCoords': [798.72, 227], 'bid': 0.53}]",16622.0,1669831120650,Tribe humus pita,steak,3.85,0.53,-3.3200000000000003,Tribe humus pita,1004.3000000715256,1005,1004.6000000238419,True,u,18145.100000023842,1523.1000000238419,1669831122173,1523,HRV,HRV_0015,2022-11-30 18:04:24
7,"[{'imgObject': {}, 'id': 'bagel and cc', 'src': '/static/foodstim60/bagel and cc.jpg', 'key': 'u', 'origWidth': 410, 'origHeight': 410, 'width': 410, 'height': 410, 'widthPercent': 0.45, 'rescaleHeight': False, 'trialN': 7, 'loaded': True, 'loadedTime': 2363.7000000476837, 'positionName': 'LEFT', 'positionCoords': [327.28, 227], 'bid': 8.370000000000001}, {'imgObject': {}, 'id': 'sweetpotato', 'src': '/static/foodstim60/sweetpotato.jpg', 'key': 'i', 'origWidth': 410, 'origHeight': 410, 'width': 410, 'height': 410, 'widthPercent': 0.45, 'rescaleHeight': False, 'trialN': 7, 'loaded': True, 'loadedTime': 2332.899999976158, 'positionName': 'RIGHT', 'positionCoords': [798.72, 227], 'bid': 2.5500000000000003}]",18145.600000023842,1669831122174,bagel and cc,sweetpotato,8.370000000000001,2.5500000000000003,-5.82,bagel and cc,1338.3999999761581,1339,1338.8999999761581,True,u,19988.700000047684,1843.1000000238419,1669831124017,1843,HRV,HRV_0015,2022-11-30 18:04:24
8,"[{'imgObject': {}, 'id': 'granola w milk', 'src': '/static/foodstim60/granola w milk.jpg', 'key': 'u', 'origWidth': 410, 'origHeight': 410, 'width': 410, 'height': 410, 'widthPercent': 0.45, 'rescaleHeight': False, 'trialN': 8, 'loaded': True, 'loadedTime': 2413.399999976158, 'positionName': 'LEFT', 'positionCoords': [327.28, 227], 'bid': 4.46}, {'imgObject': {}, 'id': 'bagel plain', 'src': '/static/foodstim60/bagel plain.jpg', 'key': 'i', 'origWidth': 410, 'origHeight': 410, 'width': 410, 'height': 410, 'widthPercent': 0.45, 'rescaleHeight': False, 'trialN': 8, 'loaded': True, 'loadedTime': 2415.899999976158, 'positionName': 'RIGHT', 'positionCoords': [798.72, 227], 'bid': 3.9}]",19989.200000047684,1669831124017,granola w milk,bagel plain,4.46,3.9,-0.56,granola w milk,1794.1000000238419,1795,1794.6000000238419,True,u,22298.700000047684,2309.5,1669831126327,2310,HRV,HRV_0015,2022-11-30 18:04:24
9,"[{'imgObject': {}, 'id': 'froot loops w milk', 'src': '/static/foodstim60/froot loops w milk.jpg', 'key': 'u', 'origWidth': 410, 'origHeight': 410, 'width': 410, 'height': 410, 'widthPercent': 0.45, 'rescaleHeight': False, 'trialN': 9, 'loaded': True, 'loadedTime': 2268.600000023842, 'positionName': 'LEFT', 'positionCoords': [327.28, 227], 'bid': 4.97}, {'imgObject': {}, 'id': 'hashbrowns', 'src': '/static/foodstim60/hashbrowns.jpg', 'key': 'i', 'origWidth': 411, 'origHeight': 410, 'width': 411, 'height': 410, 'widthPercent': 0.45, 'rescaleHeight': False, 'trialN': 9, 'loaded': True, 'loadedTime': 2432.5, 'positionName': 'RIGHT', 'positionCoords': [798.72, 227], 'bid': 4.98}]",22299.399999976158,1669831126328,froot loops w milk,hashbrowns,4.97,4.98,0.010000000000000675,hashbrowns,1133.1000000238419,1133,1133.5,True,i,23952.5,1653.1000000238419,1669831127981,1653,HRV,HRV_0015,2022-11-30 18:04:24
10,"[{'imgObject': {}, 'id': 'veggieswithdip', 'src': '/static/foodstim60/veggieswithdip.jpg', 'key': 'u', 'origWidth': 409, 'origHeight': 409, 'width': 409, 'height': 409, 'widthPercent': 0.45, 'rescaleHeight': False, 'trialN': 10, 'loaded': True, 'loadedTime': 2450.399999976158, 'positionName': 'LEFT', 'positionCoords': [328.28, 227.5], 'bid': 5}, {'imgObject': {}, 'id': 'edamame', 'src': '/static/foodstim60/edamame.jpg', 'key': 'i', 'origWidth': 409, 'origHeight': 410, 'width': 409, 'height': 410, 'widthPercent': 0.45, 'rescaleHeight': False, 'trialN': 10, 'loaded': True, 'loadedTime': 2396.8000000715256, 'positionName': 'RIGHT', 'positionCoords': [798.72, 227], 'bid': 7.76}]",23953.0,1669831127981,veggieswithdip,edamame,5.0,7.76,2.76,edamame,1041.6000000238419,1042,1042.2000000476837,True,i,25512.300000071526,1559.3000000715256,1669831129541,1560,HRV,HRV_0015,2022-11-30 18:04:24
11,"[{'imgObject': {}, 'id': 'baked potato', 'src': '/static/foodstim60/baked potato.jpg', 'key': 'u', 'origWidth': 409, 'origHeight': 410, 'width': 409, 'height': 410, 'widthPercent': 0.45, 'rescaleHeight': False, 'trialN': 11, 'loaded': True, 'loadedTime': 2500.3000000715256, 'positionName': 'LEFT', 'positionCoords': [328.28, 227], 'bid': 0.67}, {'imgObject': {}, 'id': 'steak', 'src': '/static/foodstim60/steak.jpg', 'key': 'i', 'origWidth': 410, 'origHeight': 410, 'width': 410, 'height': 410, 'widthPercent': 0.45, 'rescaleHeight': False, 'trialN': 11, 'loaded': True, 'loadedTime': 2346.899999976158, 'positionName': 'RIGHT', 'positionCoords': [798.72, 227], 'bid': 0.53}]",25512.800000071526,1669831129541,baked potato,steak,0.67,0.53,-0.14,baked potato,1164.0999999046326,1165,1164.6999999284744,True,u,27191.200000047684,1678.3999999761581,1669831131220,1679,HRV,HRV_0015,2022-11-30 18:04:24
12,"[{'imgObject': {}, 'id': 'lox', 'src': '/static/foodstim60/lox.jpg', 'key': 'u', 'origWidth': 410, 'origHeight': 411, 'width': 410, 'height': 411, 'widthPercent': 0.45, 'rescaleHeight': False, 'trialN': 12, 'loaded': True, 'loadedTime': 2516.100000023842, 'positionName': 'LEFT', 'positionCoords': [327.28, 226.5], 'bid': 0}, {'imgObject': {}, 'id': 'mashed potato', 'src': '/static/foodstim60/mashed potato.jpg', 'key': 'i', 'origWidth': 409, 'origHeight': 409, 'width': 409, 'height': 409, 'widthPercent': 0.45, 'rescaleHeight': False, 'trialN': 12, 'loaded': True, 'loadedTime': 2538.100000023842, 'positionName': 'RIGHT', 'positionCoords': [798.72, 227.5], 'bid': 0.05}]",27191.700000047684,1669831131220,lox,mashed potato,0.0,0.05,0.05,mashed potato,1032.1000000238419,1033,1033.0,True,i,28733.399999976158,1541.6999999284744,1669831132762,1542,HRV,HRV_0015,2022-11-30 18:04:24
13,"[{'imgObject': {}, 'id': 'rigatoni and sauce', 'src': '/static/foodstim60/rigatoni and sauce.jpg', 'key': 'u', 'origWidth': 410, 'origHeight': 411, 'width': 410, 'height': 411, 'widthPercent': 0.45, 'rescaleHeight': False, 'trialN': 13, 'loaded': True, 'loadedTime': 2550.600000023842, 'positionName': 'LEFT', 'positionCoords': [327.28, 226.5], 'bid': 10}, {'imgObject': {}, 'id': 'seaweed', 'src': '/static/foodstim60/seaweed.jpg', 'key': 'i', 'origWidth': 410, 'origHeight': 410, 'width': 410, 'height': 410, 'widthPercent': 0.45, 'rescaleHeight': False, 'trialN': 13, 'loaded': True, 'loadedTime': 2462.899999976158, 'positionName': 'RIGHT', 'positionCoords': [798.72, 227], 'bid': 10}]",28733.800000071526,1669831132762,rigatoni and sauce,seaweed,10.0,10.0,0.0,rigatoni and sauce,1153.0999999046326,1154,1153.5999999046326,True,u,30401.800000071526,1668.0,1669831134430,1668,HRV,HRV_0015,2022-11-30 18:04:24
14,"[{'imgObject': {}, 'id': 'turkeysandwich', 'src': '/static/foodstim60/turkeysandwich.jpg', 'key': 'u', 'origWidth': 409, 'origHeight': 409, 'width': 409, 'height': 409, 'widthPercent': 0.45, 'rescaleHeight': False, 'trialN': 14, 'loaded': True, 'loadedTime': 2553.100000023842, 'positionName': 'LEFT', 'positionCoords': [328.28, 227.5], 'bid': 2}, {'imgObject': {}, 'id': 'cantaloupe', 'src': '/static/foodstim60/cantaloupe.jpg', 'key': 'i', 'origWidth': 409, 'origHeight': 409, 'width': 409, 'height': 409, 'widthPercent': 0.45, 'rescaleHeight': False, 'trialN': 14, 'loaded': True, 'loadedTime': 2573, 'positionName': 'RIGHT', 'positionCoords': [798.72, 227.5], 'bid': 3.33}]",30402.300000071526,1669831134431,turkeysandwich,cantaloupe,2.0,3.33,1.33,cantaloupe,1651.3999999761581,1652,1652.0999999046326,True,i,32559.200000047684,2156.899999976158,1669831136587,2156,HRV,HRV_0015,2022-11-30 18:04:24
15,"[{'imgObject': {}, 'id': 'blueberries', 'src': '/static/foodstim60/blueberries.jpg', 'key': 'u', 'origWidth': 411, 'origHeight': 411, 'width': 411, 'height': 411, 'widthPercent': 0.45, 'rescaleHeight': False, 'trialN': 15, 'loaded': True, 'loadedTime': 2591, 'positionName': 'LEFT', 'positionCoords': [326.28, 226.5], 'bid': 5.93}, {'imgObject': {}, 'id': 'hotdog w must', 'src': '/static/foodstim60/hotdog w must.jpg', 'key': 'i', 'origWidth': 409, 'origHeight': 409, 'width': 409, 'height': 409, 'widthPercent': 0.45, 'rescaleHeight': False, 'trialN': 15, 'loaded': True, 'loadedTime': 2609.600000023842, 'positionName': 'RIGHT', 'positionCoords': [798.72, 227.5], 'bid': 1.15}]",32559.700000047684,1669831136588,blueberries,hotdog w must,5.93,1.15,-4.779999999999999,blueberries,1305.8999999761581,1307,1306.6999999284744,True,u,34382.700000047684,1823.0,1669831138411,1823,HRV,HRV_0015,2022-11-30 18:04:24
16,"[{'imgObject': {}, 'id': 'baked potato', 'src': '/static/foodstim60/baked potato.jpg', 'key': 'u', 'origWidth': 409, 'origHeight': 410, 'width': 409, 'height': 410, 'widthPercent': 0.45, 'rescaleHeight': False, 'trialN': 16, 'loaded': True, 'loadedTime': 2500.5, 'positionName': 'LEFT', 'positionCoords': [328.28, 227], 'bid': 0.67}, {'imgObject': {}, 'id': 'apple slices', 'src': '/static/foodstim60/apple slices.jpg', 'key': 'i', 'origWidth': 409, 'origHeight': 410, 'width': 409, 'height': 410, 'widthPercent': 0.45, 'rescaleHeight': False, 'trialN': 16, 'loaded': True, 'loadedTime': 2625.3000000715256, 'positionName': 'RIGHT', 'positionCoords': [798.72, 227], 'bid': 3.89}]",34383.10000002384,1669831138411,baked potato,apple slices,0.67,3.89,3.22,apple slices,1797,1798,1797.5,True,i,36685.800000071526,2302.7000000476837,1669831140714,2303,HRV,HRV_0015,2022-11-30 18:04:24
17,"[{'imgObject': {}, 'id': 'chicken nuggets2', 'src': '/static/foodstim60/chicken nuggets2.jpg', 'key': 'u', 'origWidth': 410, 'origHeight': 409, 'width': 410, 'height': 409, 'widthPercent': 0.45, 'rescaleHeight': False, 'trialN': 17, 'loaded': True, 'loadedTime': 2298, 'positionName': 'LEFT', 'positionCoords': [327.28, 227.5], 'bid': 9.37}, {'imgObject': {}, 'id': 'cantaloupe', 'src': '/static/foodstim60/cantaloupe.jpg', 'key': 'i', 'origWidth': 409, 'origHeight': 409, 'width': 409, 'height': 409, 'widthPercent': 0.45, 'rescaleHeight': False, 'trialN': 17, 'loaded': True, 'loadedTime': 2574.3000000715256, 'positionName': 'RIGHT', 'positionCoords': [798.72, 227.5], 'bid': 3.33}]",36686.200000047684,1669831140714,chicken nuggets2,cantaloupe,9.37,3.33,-6.039999999999999,chicken nuggets2,1048.6000000238419,1049,1048.8999999761581,True,u,38239.200000047684,1553.0,1669831142267,1553,HRV,HRV_0015,2022-11-30 18:04:24
18,"[{'imgObject': {}, 'id': 'corn cob', 'src': '/static/foodstim60/corn cob.jpg', 'key': 'u', 'origWidth': 411, 'origHeight': 411, 'width': 411, 'height': 411, 'widthPercent': 0.45, 'rescaleHeight': False, 'trialN': 18, 'loaded': True, 'loadedTime': 2628.3000000715256, 'positionName': 'LEFT', 'positionCoords': [326.28, 226.5], 'bid': 9.94}, {'imgObject': {}, 'id': 'chicken nuggets2', 'src': '/static/foodstim60/chicken nuggets2.jpg', 'key': 'i', 'origWidth': 410, 'origHeight': 409, 'width': 410, 'height': 409, 'widthPercent': 0.45, 'rescaleHeight': False, 'trialN': 18, 'loaded': True, 'loadedTime': 2282.600000023842, 'positionName': 'RIGHT', 'positionCoords': [798.72, 227.5], 'bid': 9.37}]",38239.800000071526,1669831142268,corn cob,chicken nuggets2,9.94,9.37,-0.5700000000000003,corn cob,1140.5,1141,1140.8999999761581,True,u,39897.300000071526,1657.5,1669831143926,1658,HRV,HRV_0015,2022-11-30 18:04:24
19,"[{'imgObject': {}, 'id': 'rigatoni', 'src': '/static/foodstim60/rigatoni.jpg', 'key': 'u', 'origWidth': 411, 'origHeight': 411, 'width': 411, 'height': 411, 'widthPercent': 0.45, 'rescaleHeight': False, 'trialN': 19, 'loaded': True, 'loadedTime': 2630.3000000715256, 'positionName': 'LEFT', 'positionCoords': [326.28, 226.5], 'bid': 0}, {'imgObject': {}, 'id': 'hotdog w must', 'src': '/static/foodstim60/hotdog w must.jpg', 'key': 'i', 'origWidth': 409, 'origHeight': 409, 'width': 409, 'height': 409, 'widthPercent': 0.45, 'rescaleHeight': False, 'trialN': 19, 'loaded': True, 'loadedTime': 2593.8000000715256, 'positionName': 'RIGHT', 'positionCoords': [798.72, 227.5], 'bid': 1.15}]",39897.60000002384,1669831143926,rigatoni,hotdog w must,0.0,1.15,1.15,hotdog w must,1492,1492,1492.6000000238419,True,i,41906.300000071526,2008.7000000476837,1669831145935,2009,HRV,HRV_0015,2022-11-30 18:04:24
20,"[{'imgObject': {}, 'id': 'mango', 'src': '/static/foodstim60/mango.jpg', 'key': 'u', 'origWidth': 411, 'origHeight': 411, 'width': 411, 'height': 411, 'widthPercent': 0.45, 'rescaleHeight': False, 'trialN': 20, 'loaded': True, 'loadedTime': 2298.899999976158, 'positionName': 'LEFT', 'positionCoords': [326.28, 226.5], 'bid': 2.66}, {'imgObject': {}, 'id': 'cocktailshrimp', 'src': '/static/foodstim60/cocktailshrimp.jpg', 'key': 'i', 'origWidth': 410, 'origHeight': 410, 'width': 410, 'height': 410, 'widthPercent': 0.45, 'rescaleHeight': False, 'trialN': 20, 'loaded': True, 'loadedTime': 2647.5, 'positionName': 'RIGHT', 'positionCoords': [798.72, 227], 'bid': 0.01}]",41906.800000071526,1669831145935,mango,cocktailshrimp,2.66,0.01,-2.6500000000000004,mango,992.7999999523163,993,993.0999999046326,True,u,43414.89999997616,1508.0999999046326,1669831147443,1508,HRV,HRV_0015,2022-11-30 18:04:24
21,"[{'imgObject': {}, 'id': 'omelette', 'src': '/static/foodstim60/omelette.jpg', 'key': 'u', 'origWidth': 410, 'origHeight': 409, 'width': 410, 'height': 409, 'widthPercent': 0.45, 'rescaleHeight': False, 'trialN': 21, 'loaded': True, 'loadedTime': 2664.399999976158, 'positionName': 'LEFT', 'positionCoords': [327.28, 227.5], 'bid': 0.07}, {'imgObject': {}, 'id': 'sweetpotato', 'src': '/static/foodstim60/sweetpotato.jpg', 'key': 'i', 'origWidth': 410, 'origHeight': 410, 'width': 410, 'height': 410, 'widthPercent': 0.45, 'rescaleHeight': False, 'trialN': 21, 'loaded': True, 'loadedTime': 2316.7000000476837, 'positionName': 'RIGHT', 'positionCoords': [798.72, 227], 'bid': 2.5500000000000003}]",43415.39999997616,1669831147444,omelette,sweetpotato,0.07,2.5500000000000003,2.4800000000000004,sweetpotato,913.7000000476837,914,914.1000000238419,True,i,44849.60000002384,1434.2000000476837,1669831148878,1434,HRV,HRV_0015,2022-11-30 18:04:24
22,"[{'imgObject': {}, 'id': 'granola w milk', 'src': '/static/foodstim60/granola w milk.jpg', 'key': 'u', 'origWidth': 410, 'origHeight': 410, 'width': 410, 'height': 410, 'widthPercent': 0.45, 'rescaleHeight': False, 'trialN': 22, 'loaded': True, 'loadedTime': 2396.899999976158, 'positionName': 'LEFT', 'positionCoords': [327.28, 227], 'bid': 4.46}, {'imgObject': {}, 'id': 'eggs', 'src': '/static/foodstim60/eggs.jpg', 'key': 'i', 'origWidth': 409, 'origHeight': 409, 'width': 409, 'height': 409, 'widthPercent': 0.45, 'rescaleHeight': False, 'trialN': 22, 'loaded': True, 'loadedTime': 2666.8000000715256, 'positionName': 'RIGHT', 'positionCoords': [798.72, 227.5], 'bid': 3.41}]",44849.800000071526,1669831148878,granola w milk,eggs,4.46,3.41,-1.0499999999999998,eggs,1846.1999999284744,1847,1846.6999999284744,True,i,47208.0,2358.1999999284744,1669831151236,2358,HRV,HRV_0015,2022-11-30 18:04:24
23,"[{'imgObject': {}, 'id': 'roastedpotatoes', 'src': '/static/foodstim60/roastedpotatoes.jpg', 'key': 'u', 'origWidth': 409, 'origHeight': 410, 'width': 409, 'height': 410, 'widthPercent': 0.45, 'rescaleHeight': False, 'trialN': 23, 'loaded': True, 'loadedTime': 2681.8000000715256, 'positionName': 'LEFT', 'positionCoords': [328.28, 227], 'bid': 8.9}, {'imgObject': {}, 'id': 'burrito', 'src': '/static/foodstim60/burrito.jpg', 'key': 'i', 'origWidth': 410, 'origHeight': 410, 'width': 410, 'height': 410, 'widthPercent': 0.45, 'rescaleHeight': False, 'trialN': 23, 'loaded': True, 'loadedTime': 2699.600000023842, 'positionName': 'RIGHT', 'positionCoords': [798.72, 227], 'bid': 4.96}]",47208.300000071526,1669831151237,roastedpotatoes,burrito,8.9,4.96,-3.9400000000000004,roastedpotatoes,1056.2999999523163,1056,1056.7999999523163,True,u,48783.0,1574.6999999284744,1669831152811,1574,HRV,HRV_0015,2022-11-30 18:04:24
24,"[{'imgObject': {}, 'id': 'fried eggs', 'src': '/static/foodstim60/fried eggs.jpg', 'key': 'u', 'origWidth': 410, 'origHeight': 410, 'width': 410, 'height': 410, 'widthPercent': 0.45, 'rescaleHeight': False, 'trialN': 24, 'loaded': True, 'loadedTime': 2266, 'positionName': 'LEFT', 'positionCoords': [327.28, 227], 'bid': 8.69}, {'imgObject': {}, 'id': 'roastedpotatoes', 'src': '/static/foodstim60/roastedpotatoes.jpg', 'key': 'i', 'origWidth': 409, 'origHeight': 410, 'width': 409, 'height': 410, 'widthPercent': 0.45, 'rescaleHeight': False, 'trialN': 24, 'loaded': True, 'loadedTime': 2684, 'positionName': 'RIGHT', 'positionCoords': [798.72, 227], 'bid': 8.9}]",48783.200000047684,1669831152812,fried eggs,roastedpotatoes,8.69,8.9,0.21000000000000085,roastedpotatoes,2186.6999999284744,2187,2187.1999999284744,True,i,51487.89999997616,2704.6999999284744,1669831155516,2704,HRV,HRV_0015,2022-11-30 18:04:24
25,"[{'imgObject': {}, 'id': 'salmon', 'src': '/static/foodstim60/salmon.jpg', 'key': 'u', 'origWidth': 410, 'origHeight': 409, 'width': 410, 'height': 409, 'widthPercent': 0.45, 'rescaleHeight': False, 'trialN': 25, 'loaded': True, 'loadedTime': 2719.3000000715256, 'positionName': 'LEFT', 'positionCoords': [327.28, 227.5], 'bid': 0.03}, {'imgObject': {}, 'id': 'orange slices', 'src': '/static/foodstim60/orange slices.jpg', 'key': 'i', 'origWidth': 409, 'origHeight': 410, 'width': 409, 'height': 410, 'widthPercent': 0.45, 'rescaleHeight': False, 'trialN': 25, 'loaded': True, 'loadedTime': 2074.899999976158, 'positionName': 'RIGHT', 'positionCoords': [798.72, 227], 'bid': 4.94}]",51488.300000071526,1669831155517,salmon,orange slices,0.03,4.94,4.91,orange slices,924.3999999761581,925,924.8999999761581,True,i,52921.200000047684,1432.8999999761581,1669831156950,1433,HRV,HRV_0015,2022-11-30 18:04:24
26,"[{'imgObject': {}, 'id': 'rigatoni and sauce', 'src': '/static/foodstim60/rigatoni and sauce.jpg', 'key': 'u', 'origWidth': 410, 'origHeight': 411, 'width': 410, 'height': 411, 'widthPercent': 0.45, 'rescaleHeight': False, 'trialN': 26, 'loaded': True, 'loadedTime': 2552.8000000715256, 'positionName': 'LEFT', 'positionCoords': [327.28, 226.5], 'bid': 10}, {'imgObject': {}, 'id': 'cherry tomato', 'src': '/static/foodstim60/cherry tomato.jpg', 'key': 'i', 'origWidth': 410, 'origHeight': 410, 'width': 410, 'height': 410, 'widthPercent': 0.45, 'rescaleHeight': False, 'trialN': 26, 'loaded': True, 'loadedTime': 2719.899999976158, 'positionName': 'RIGHT', 'positionCoords': [798.72, 227], 'bid': 4.17}]",52921.60000002384,1669831156950,rigatoni and sauce,cherry tomato,10.0,4.17,-5.83,rigatoni and sauce,889.1000000238419,890,889.5,True,u,54319.800000071526,1398.2000000476837,1669831158348,1398,HRV,HRV_0015,2022-11-30 18:04:24
27,"[{'imgObject': {}, 'id': 'lox', 'src': '/static/foodstim60/lox.jpg', 'key': 'u', 'origWidth': 410, 'origHeight': 411, 'width': 410, 'height': 411, 'widthPercent': 0.45, 'rescaleHeight': False, 'trialN': 27, 'loaded': True, 'loadedTime': 2516.8000000715256, 'positionName': 'LEFT', 'positionCoords': [327.28, 226.5], 'bid': 0}, {'imgObject': {}, 'id': 'tacos', 'src': '/static/foodstim60/tacos.jpg', 'key': 'i', 'origWidth': 411, 'origHeight': 411, 'width': 411, 'height': 411, 'widthPercent': 0.45, 'rescaleHeight': False, 'trialN': 27, 'loaded': True, 'loadedTime': 2725.899999976158, 'positionName': 'RIGHT', 'positionCoords': [798.72, 226.5], 'bid': 0}]",54319.89999997616,1669831158349,lox,tacos,0.0,0.0,0.0,tacos,1353.3000000715256,1354,1353.9000000953674,True,i,56179.89999997616,1860.0,1669831160209,1860,HRV,HRV_0015,2022-11-30 18:04:24
28,"[{'imgObject': {}, 'id': 'kiwi', 'src': '/static/foodstim60/kiwi.jpg', 'key': 'u', 'origWidth': 410, 'origHeight': 410, 'width': 410, 'height': 410, 'widthPercent': 0.45, 'rescaleHeight': False, 'trialN': 28, 'loaded': True, 'loadedTime': 2744.2000000476837, 'positionName': 'LEFT', 'positionCoords': [327.28, 227], 'bid': 4.42}, {'imgObject': {}, 'id': 'olives', 'src': '/static/foodstim60/olives.jpg', 'key': 'i', 'origWidth': 410, 'origHeight': 410, 'width': 410, 'height': 410, 'widthPercent': 0.45, 'rescaleHeight': False, 'trialN': 28, 'loaded': True, 'loadedTime': 2744.3000000715256, 'positionName': 'RIGHT', 'positionCoords': [798.72, 227], 'bid': 0}]",56180.200000047684,1669831160209,kiwi,olives,4.42,0.0,-4.42,kiwi,866.8999999761581,867,867.3999999761581,True,u,57548.200000047684,1368.0,1669831161577,1368,HRV,HRV_0015,2022-11-30 18:04:24
29,"[{'imgObject': {}, 'id': 'blueberries', 'src': '/static/foodstim60/blueberries.jpg', 'key': 'u', 'origWidth': 411, 'origHeight': 411, 'width': 411, 'height': 411, 'widthPercent': 0.45, 'rescaleHeight': False, 'trialN': 29, 'loaded': True, 'loadedTime': 2590.5, 'positionName': 'LEFT', 'positionCoords': [326.28, 226.5], 'bid': 5.93}, {'imgObject': {}, 'id': 'fruitsalad', 'src': '/static/foodstim60/fruitsalad.jpg', 'key': 'i', 'origWidth': 410, 'origHeight': 410, 'width': 410, 'height': 410, 'widthPercent': 0.45, 'rescaleHeight': False, 'trialN': 29, 'loaded': True, 'loadedTime': 2758.5, 'positionName': 'RIGHT', 'positionCoords': [798.72, 227], 'bid': 5.72}]",57548.5,1669831161577,blueberries,fruitsalad,5.93,5.72,-0.20999999999999996,fruitsalad,2160.399999976158,2161,2160.899999976158,True,i,60222.39999997616,2673.899999976158,1669831164251,2674,HRV,HRV_0015,2022-11-30 18:04:24
30,"[{'imgObject': {}, 'id': 'rigatoni and sauce', 'src': '/static/foodstim60/rigatoni and sauce.jpg', 'key': 'u', 'origWidth': 410, 'origHeight': 411, 'width': 410, 'height': 411, 'widthPercent': 0.45, 'rescaleHeight': False, 'trialN': 30, 'loaded': True, 'loadedTime': 2552, 'positionName': 'LEFT', 'positionCoords': [327.28, 226.5], 'bid': 10}, {'imgObject': {}, 'id': 'raisin bran w milk', 'src': '/static/foodstim60/raisin bran w milk.jpg', 'key': 'i', 'origWidth': 411, 'origHeight': 411, 'width': 411, 'height': 411, 'widthPercent': 0.45, 'rescaleHeight': False, 'trialN': 30, 'loaded': True, 'loadedTime': 2760.899999976158, 'positionName': 'RIGHT', 'positionCoords': [798.72, 226.5], 'bid': 8.41}]",60222.700000047684,1669831164251,rigatoni and sauce,raisin bran w milk,10.0,8.41,-1.5899999999999999,rigatoni and sauce,1161,1162,1161.6000000238419,True,u,61907.5,1684.7999999523163,1669831165936,1685,HRV,HRV_0015,2022-11-30 18:04:24
31,"[{'imgObject': {}, 'id': 'seaweed', 'src': '/static/foodstim60/seaweed.jpg', 'key': 'u', 'origWidth': 410, 'origHeight': 410, 'width': 410, 'height': 410, 'widthPercent': 0.45, 'rescaleHeight': False, 'trialN': 31, 'loaded': True, 'loadedTime': 2462.8000000715256, 'positionName': 'LEFT', 'positionCoords': [327.28, 227], 'bid': 10}, {'imgObject': {}, 'id': 'chicken nuggets2', 'src': '/static/foodstim60/chicken nuggets2.jpg', 'key': 'i', 'origWidth': 410, 'origHeight': 409, 'width': 410, 'height': 409, 'widthPercent': 0.45, 'rescaleHeight': False, 'trialN': 31, 'loaded': True, 'loadedTime': 2298.5, 'positionName': 'RIGHT', 'positionCoords': [798.72, 227.5], 'bid': 9.37}]",61907.800000071526,1669831165937,seaweed,chicken nuggets2,10.0,9.37,-0.6300000000000008,seaweed,2388.0999999046326,2388,2388.6999999284744,True,u,64809.60000002384,2901.7999999523163,1669831168838,2901,HRV,HRV_0015,2022-11-30 18:04:24
32,"[{'imgObject': {}, 'id': 'olives', 'src': '/static/foodstim60/olives.jpg', 'key': 'u', 'origWidth': 410, 'origHeight': 410, 'width': 410, 'height': 410, 'widthPercent': 0.45, 'rescaleHeight': False, 'trialN': 32, 'loaded': True, 'loadedTime': 2756.5, 'positionName': 'LEFT', 'positionCoords': [327.28, 227], 'bid': 0}, {'imgObject': {}, 'id': 'omelette', 'src': '/static/foodstim60/omelette.jpg', 'key': 'i', 'origWidth': 410, 'origHeight': 409, 'width': 410, 'height': 409, 'widthPercent': 0.45, 'rescaleHeight': False, 'trialN': 32, 'loaded': True, 'loadedTime': 2664.7000000476837, 'positionName': 'RIGHT', 'positionCoords': [798.72, 227.5], 'bid': 0.07}]",64810.10000002384,1669831168839,olives,omelette,0.0,0.07,0.07,omelette,1496.7000000476837,1497,1497.1000000238419,True,i,66827.20000004768,2017.1000000238419,1669831170856,2017,HRV,HRV_0015,2022-11-30 18:04:24
33,"[{'imgObject': {}, 'id': 'salad w chicken', 'src': '/static/foodstim60/salad w chicken.jpg', 'key': 'u', 'origWidth': 411, 'origHeight': 411, 'width': 411, 'height': 411, 'widthPercent': 0.45, 'rescaleHeight': False, 'trialN': 33, 'loaded': True, 'loadedTime': 2776.399999976158, 'positionName': 'LEFT', 'positionCoords': [326.28, 226.5], 'bid': 10}, {'imgObject': {}, 'id': 'veggieswithdip', 'src': '/static/foodstim60/veggieswithdip.jpg', 'key': 'i', 'origWidth': 409, 'origHeight': 409, 'width': 409, 'height': 409, 'widthPercent': 0.45, 'rescaleHeight': False, 'trialN': 33, 'loaded': True, 'loadedTime': 2450, 'positionName': 'RIGHT', 'positionCoords': [798.72, 227.5], 'bid': 5}]",66827.5,1669831170856,salad w chicken,veggieswithdip,10.0,5.0,-5.0,salad w chicken,914.1000000238419,915,914.8999999761581,True,u,68247.60000002384,1420.1000000238419,1669831172276,1420,HRV,HRV_0015,2022-11-30 18:04:24
34,"[{'imgObject': {}, 'id': 'baked potato', 'src': '/static/foodstim60/baked potato.jpg', 'key': 'u', 'origWidth': 409, 'origHeight': 410, 'width': 409, 'height': 410, 'widthPercent': 0.45, 'rescaleHeight': False, 'trialN': 34, 'loaded': True, 'loadedTime': 2498.600000023842, 'positionName': 'LEFT', 'positionCoords': [328.28, 227], 'bid': 0.67}, {'imgObject': {}, 'id': 'salmon', 'src': '/static/foodstim60/salmon.jpg', 'key': 'i', 'origWidth': 410, 'origHeight': 409, 'width': 410, 'height': 409, 'widthPercent': 0.45, 'rescaleHeight': False, 'trialN': 34, 'loaded': True, 'loadedTime': 2702, 'positionName': 'RIGHT', 'positionCoords': [798.72, 227.5], 'bid': 0.03}]",68247.80000007153,1669831172277,baked potato,salmon,0.67,0.03,-0.64,baked potato,844.0999999046326,844,844.6999999284744,True,u,69600.10000002384,1352.2999999523163,1669831173629,1352,HRV,HRV_0015,2022-11-30 18:04:24
35,"[{'imgObject': {}, 'id': 'turkey sandwich', 'src': '/static/foodstim60/turkey sandwich.jpg', 'key': 'u', 'origWidth': 409, 'origHeight': 409, 'width': 409, 'height': 409, 'widthPercent': 0.45, 'rescaleHeight': False, 'trialN': 35, 'loaded': True, 'loadedTime': 2793.5, 'positionName': 'LEFT', 'positionCoords': [328.28, 227.5], 'bid': 1.3}, {'imgObject': {}, 'id': 'avocado', 'src': '/static/foodstim60/avocado.jpg', 'key': 'i', 'origWidth': 409, 'origHeight': 409, 'width': 409, 'height': 409, 'widthPercent': 0.45, 'rescaleHeight': False, 'trialN': 35, 'loaded': True, 'loadedTime': 2797, 'positionName': 'RIGHT', 'positionCoords': [798.72, 227.5], 'bid': 6.53}]",69600.39999997616,1669831173629,turkey sandwich,avocado,1.3,6.53,5.23,avocado,1307.8000000715256,1308,1308.3000000715256,True,i,71428.10000002384,1827.7000000476837,1669831175457,1828,HRV,HRV_0015,2022-11-30 18:04:24
36,"[{'imgObject': {}, 'id': 'cocktailshrimp', 'src': '/static/foodstim60/cocktailshrimp.jpg', 'key': 'u', 'origWidth': 410, 'origHeight': 410, 'width': 410, 'height': 410, 'widthPercent': 0.45, 'rescaleHeight': False, 'trialN': 36, 'loaded': True, 'loadedTime': 2648.3000000715256, 'positionName': 'LEFT', 'positionCoords': [327.28, 227], 'bid': 0.01}, {'imgObject': {}, 'id': 'steak', 'src': '/static/foodstim60/steak.jpg', 'key': 'i', 'origWidth': 410, 'origHeight': 410, 'width': 410, 'height': 410, 'widthPercent': 0.45, 'rescaleHeight': False, 'trialN': 36, 'loaded': True, 'loadedTime': 2349, 'positionName': 'RIGHT', 'positionCoords': [798.72, 227], 'bid': 0.53}]",71428.70000004768,1669831175457,cocktailshrimp,steak,0.01,0.53,0.52,steak,917.6999999284744,919,918.2999999523163,True,i,72860.39999997616,1431.6999999284744,1669831176889,1432,HRV,HRV_0015,2022-11-30 18:04:24
37,"[{'imgObject': {}, 'id': 'Grapes', 'src': '/static/foodstim60/Grapes.jpg', 'key': 'u', 'origWidth': 411, 'origHeight': 411, 'width': 411, 'height': 411, 'widthPercent': 0.45, 'rescaleHeight': False, 'trialN': 37, 'loaded': True, 'loadedTime': 2797.3000000715256, 'positionName': 'LEFT', 'positionCoords': [326.28, 226.5], 'bid': 3.25}, {'imgObject': {}, 'id': 'raspberries', 'src': '/static/foodstim60/raspberries.jpg', 'key': 'i', 'origWidth': 411, 'origHeight': 411, 'width': 411, 'height': 411, 'widthPercent': 0.45, 'rescaleHeight': False, 'trialN': 37, 'loaded': True, 'loadedTime': 2818.2000000476837, 'positionName': 'RIGHT', 'positionCoords': [798.72, 226.5], 'bid': 4.29}]",72860.70000004768,1669831176889,Grapes,raspberries,3.25,4.29,1.04,Grapes,2099.6999999284744,2101,2100.1999999284744,True,u,75470.20000004768,2609.5,1669831179499,2610,HRV,HRV_0015,2022-11-30 18:04:24
38,"[{'imgObject': {}, 'id': 'mango', 'src': '/static/foodstim60/mango.jpg', 'key': 'u', 'origWidth': 411, 'origHeight': 411, 'width': 411, 'height': 411, 'widthPercent': 0.45, 'rescaleHeight': False, 'trialN': 38, 'loaded': True, 'loadedTime': 2316.2000000476837, 'positionName': 'LEFT', 'positionCoords': [326.28, 226.5], 'bid': 2.66}, {'imgObject': {}, 'id': 'raisin bran w milk', 'src': '/static/foodstim60/raisin bran w milk.jpg', 'key': 'i', 'origWidth': 411, 'origHeight': 411, 'width': 411, 'height': 411, 'widthPercent': 0.45, 'rescaleHeight': False, 'trialN': 38, 'loaded': True, 'loadedTime': 2758.7000000476837, 'positionName': 'RIGHT', 'positionCoords': [798.72, 226.5], 'bid': 8.41}]",75470.5,1669831179499,mango,raisin bran w milk,2.66,8.41,5.75,raisin bran w milk,1574.7000000476837,1576,1575.5,True,i,77562.0,2091.5,1669831181591,2092,HRV,HRV_0015,2022-11-30 18:04:24
39,"[{'imgObject': {}, 'id': 'edamame', 'src': '/static/foodstim60/edamame.jpg', 'key': 'u', 'origWidth': 409, 'origHeight': 410, 'width': 409, 'height': 410, 'widthPercent': 0.45, 'rescaleHeight': False, 'trialN': 39, 'loaded': True, 'loadedTime': 2396.3000000715256, 'positionName': 'LEFT', 'positionCoords': [328.28, 227], 'bid': 7.76}, {'imgObject': {}, 'id': 'turkeysandwich', 'src': '/static/foodstim60/turkeysandwich.jpg', 'key': 'i', 'origWidth': 409, 'origHeight': 409, 'width': 409, 'height': 409, 'widthPercent': 0.45, 'rescaleHeight': False, 'trialN': 39, 'loaded': True, 'loadedTime': 2571.3000000715256, 'positionName': 'RIGHT', 'positionCoords': [798.72, 227.5], 'bid': 2}]",77562.39999997616,1669831181591,edamame,turkeysandwich,7.76,2.0,-5.76,edamame,889,889,889.3000000715256,True,u,78962.80000007153,1400.4000000953674,1669831182992,1401,HRV,HRV_0015,2022-11-30 18:04:24
40,"[{'imgObject': {}, 'id': 'steak', 'src': '/static/foodstim60/steak.jpg', 'key': 'u', 'origWidth': 410, 'origHeight': 410, 'width': 410, 'height': 410, 'widthPercent': 0.45, 'rescaleHeight': False, 'trialN': 40, 'loaded': True, 'loadedTime': 2363.399999976158, 'positionName': 'LEFT', 'positionCoords': [327.28, 227], 'bid': 0.53}, {'imgObject': {}, 'id': 'omelette', 'src': '/static/foodstim60/omelette.jpg', 'key': 'i', 'origWidth': 410, 'origHeight': 409, 'width': 410, 'height': 409, 'widthPercent': 0.45, 'rescaleHeight': False, 'trialN': 40, 'loaded': True, 'loadedTime': 2664.600000023842, 'positionName': 'RIGHT', 'positionCoords': [798.72, 227.5], 'bid': 0.07}]",78963.10000002384,1669831182992,steak,omelette,0.53,0.07,-0.46,steak,1307.1000000238419,1308,1307.7999999523163,True,u,80773.80000007153,1810.7000000476837,1669831184802,1810,HRV,HRV_0015,2022-11-30 18:04:24
41,"[{'imgObject': {}, 'id': 'luckycharms', 'src': '/static/foodstim60/luckycharms.jpg', 'key': 'u', 'origWidth': 410, 'origHeight': 409, 'width': 410, 'height': 409, 'widthPercent': 0.45, 'rescaleHeight': False, 'trialN': 41, 'loaded': True, 'loadedTime': 2485.2000000476837, 'positionName': 'LEFT', 'positionCoords': [327.28, 227.5], 'bid': 4.07}, {'imgObject': {}, 'id': 'cherry tomato', 'src': '/static/foodstim60/cherry tomato.jpg', 'key': 'i', 'origWidth': 410, 'origHeight': 410, 'width': 410, 'height': 410, 'widthPercent': 0.45, 'rescaleHeight': False, 'trialN': 41, 'loaded': True, 'loadedTime': 2722.600000023842, 'positionName': 'RIGHT', 'positionCoords': [798.72, 227], 'bid': 4.17}]",80774.20000004768,1669831184803,luckycharms,cherry tomato,4.07,4.17,0.09999999999999964,cherry tomato,1014.5,1015,1015.0,True,i,82299.5,1525.2999999523163,1669831186328,1525,HRV,HRV_0015,2022-11-30 18:04:24
42,"[{'imgObject': {}, 'id': 'Grapes', 'src': '/static/foodstim60/Grapes.jpg', 'key': 'u', 'origWidth': 411, 'origHeight': 411, 'width': 411, 'height': 411, 'widthPercent': 0.45, 'rescaleHeight': False, 'trialN': 42, 'loaded': True, 'loadedTime': 2813.7000000476837, 'positionName': 'LEFT', 'positionCoords': [326.28, 226.5], 'bid': 3.25}, {'imgObject': {}, 'id': 'blackbeanswithrice', 'src': '/static/foodstim60/blackbeanswithrice.jpg', 'key': 'i', 'origWidth': 410, 'origHeight': 410, 'width': 410, 'height': 410, 'widthPercent': 0.45, 'rescaleHeight': False, 'trialN': 42, 'loaded': True, 'loadedTime': 2820.399999976158, 'positionName': 'RIGHT', 'positionCoords': [798.72, 227], 'bid': 0.03}]",82299.80000007153,1669831186329,Grapes,blackbeanswithrice,3.25,0.03,-3.22,Grapes,933,933,933.3999999761581,True,u,83740.20000004768,1440.3999999761581,1669831187769,1440,HRV,HRV_0015,2022-11-30 18:04:24
43,"[{'imgObject': {}, 'id': 'omelette', 'src': '/static/foodstim60/omelette.jpg', 'key': 'u', 'origWidth': 410, 'origHeight': 409, 'width': 410, 'height': 409, 'widthPercent': 0.45, 'rescaleHeight': False, 'trialN': 43, 'loaded': True, 'loadedTime': 2649.100000023842, 'positionName': 'LEFT', 'positionCoords': [327.28, 227.5], 'bid': 0.07}, {'imgObject': {}, 'id': 'eggs', 'src': '/static/foodstim60/eggs.jpg', 'key': 'i', 'origWidth': 409, 'origHeight': 409, 'width': 409, 'height': 409, 'widthPercent': 0.45, 'rescaleHeight': False, 'trialN': 43, 'loaded': True, 'loadedTime': 2666.5, 'positionName': 'RIGHT', 'positionCoords': [798.72, 227.5], 'bid': 3.41}]",83740.5,1669831187769,omelette,eggs,0.07,3.41,3.3400000000000003,eggs,996.5,997,997.2000000476837,True,i,85259.39999997616,1518.8999999761581,1669831189288,1519,HRV,HRV_0015,2022-11-30 18:04:24
44,"[{'imgObject': {}, 'id': 'eggs', 'src': '/static/foodstim60/eggs.jpg', 'key': 'u', 'origWidth': 409, 'origHeight': 409, 'width': 409, 'height': 409, 'widthPercent': 0.45, 'rescaleHeight': False, 'trialN': 44, 'loaded': True, 'loadedTime': 2666.7000000476837, 'positionName': 'LEFT', 'positionCoords': [328.28, 227.5], 'bid': 3.41}, {'imgObject': {}, 'id': 'cantaloupe', 'src': '/static/foodstim60/cantaloupe.jpg', 'key': 'i', 'origWidth': 409, 'origHeight': 409, 'width': 409, 'height': 409, 'widthPercent': 0.45, 'rescaleHeight': False, 'trialN': 44, 'loaded': True, 'loadedTime': 2575.5, 'positionName': 'RIGHT', 'positionCoords': [798.72, 227.5], 'bid': 3.33}]",85259.70000004768,1669831189288,eggs,cantaloupe,3.41,3.33,-0.08000000000000007,cantaloupe,1929.1000000238419,1930,1929.6999999284744,True,i,87698.20000004768,2438.5,1669831191727,2439,HRV,HRV_0015,2022-11-30 18:04:24
45,"[{'imgObject': {}, 'id': 'bagel plain', 'src': '/static/foodstim60/bagel plain.jpg', 'key': 'u', 'origWidth': 410, 'origHeight': 410, 'width': 410, 'height': 410, 'widthPercent': 0.45, 'rescaleHeight': False, 'trialN': 45, 'loaded': True, 'loadedTime': 2417.399999976158, 'positionName': 'LEFT', 'positionCoords': [327.28, 227], 'bid': 3.9}, {'imgObject': {}, 'id': 'grilled chicken strips', 'src': '/static/foodstim60/grilled chicken strips.jpg', 'key': 'i', 'origWidth': 410, 'origHeight': 411, 'width': 410, 'height': 411, 'widthPercent': 0.45, 'rescaleHeight': False, 'trialN': 45, 'loaded': True, 'loadedTime': 2822.399999976158, 'positionName': 'RIGHT', 'positionCoords': [798.72, 226.5], 'bid': 0.78}]",87698.60000002384,1669831191727,bagel plain,grilled chicken strips,3.9,0.78,-3.12,grilled chicken strips,2143.5,2144,2143.7999999523163,True,i,90356.0,2657.399999976158,1669831194385,2658,HRV,HRV_0015,2022-11-30 18:04:24
46,"[{'imgObject': {}, 'id': 'omelette', 'src': '/static/foodstim60/omelette.jpg', 'key': 'u', 'origWidth': 410, 'origHeight': 409, 'width': 410, 'height': 409, 'widthPercent': 0.45, 'rescaleHeight': False, 'trialN': 46, 'loaded': True, 'loadedTime': 2664, 'positionName': 'LEFT', 'positionCoords': [327.28, 227.5], 'bid': 0.07}, {'imgObject': {}, 'id': 'popsicles', 'src': '/static/foodstim60/popsicles.jpg', 'key': 'i', 'origWidth': 410, 'origHeight': 410, 'width': 410, 'height': 410, 'widthPercent': 0.45, 'rescaleHeight': False, 'trialN': 46, 'loaded': True, 'loadedTime': 2892.3000000715256, 'positionName': 'RIGHT', 'positionCoords': [798.72, 227], 'bid': 0.4}]",90356.39999997616,1669831194385,omelette,popsicles,0.07,0.4,0.33,popsicles,2283.8000000715256,2284,2284.3000000715256,True,i,93154.10000002384,2797.7000000476837,1669831197183,2798,HRV,HRV_0015,2022-11-30 18:04:24
47,"[{'imgObject': {}, 'id': 'luckycharms', 'src': '/static/foodstim60/luckycharms.jpg', 'key': 'u', 'origWidth': 410, 'origHeight': 409, 'width': 410, 'height': 409, 'widthPercent': 0.45, 'rescaleHeight': False, 'trialN': 47, 'loaded': True, 'loadedTime': 2484.600000023842, 'positionName': 'LEFT', 'positionCoords': [327.28, 227.5], 'bid': 4.07}, {'imgObject': {}, 'id': 'yogurt no spoon', 'src': '/static/foodstim60/yogurt no spoon.jpg', 'key': 'i', 'origWidth': 411, 'origHeight': 410, 'width': 411, 'height': 410, 'widthPercent': 0.45, 'rescaleHeight': False, 'trialN': 47, 'loaded': True, 'loadedTime': 2824.399999976158, 'positionName': 'RIGHT', 'positionCoords': [798.72, 227], 'bid': 4.9}]",93154.60000002384,1669831197183,luckycharms,yogurt no spoon,4.07,4.9,0.8300000000000001,yogurt no spoon,1046.7999999523163,1048,1047.2999999523163,True,i,94714.60000002384,1560.0,1669831198743,1560,HRV,HRV_0015,2022-11-30 18:04:24
48,"[{'imgObject': {}, 'id': 'baked potato', 'src': '/static/foodstim60/baked potato.jpg', 'key': 'u', 'origWidth': 409, 'origHeight': 410, 'width': 409, 'height': 410, 'widthPercent': 0.45, 'rescaleHeight': False, 'trialN': 48, 'loaded': True, 'loadedTime': 2501.2000000476837, 'positionName': 'LEFT', 'positionCoords': [328.28, 227], 'bid': 0.67}, {'imgObject': {}, 'id': 'banana', 'src': '/static/foodstim60/banana.jpg', 'key': 'i', 'origWidth': 410, 'origHeight': 410, 'width': 410, 'height': 410, 'widthPercent': 0.45, 'rescaleHeight': False, 'trialN': 48, 'loaded': True, 'loadedTime': 2838.3000000715256, 'positionName': 'RIGHT', 'positionCoords': [798.72, 227], 'bid': 5}]",94715.10000002384,1669831198744,baked potato,banana,0.67,5.0,4.33,banana,1153.6000000238419,1154,1154.0,True,i,96383.0,1667.8999999761581,1669831200412,1668,HRV,HRV_0015,2022-11-30 18:04:24
49,"[{'imgObject': {}, 'id': 'hashbrowns', 'src': '/static/foodstim60/hashbrowns.jpg', 'key': 'u', 'origWidth': 411, 'origHeight': 410, 'width': 411, 'height': 410, 'widthPercent': 0.45, 'rescaleHeight': False, 'trialN': 49, 'loaded': True, 'loadedTime': 2432.100000023842, 'positionName': 'LEFT', 'positionCoords': [326.28, 227], 'bid': 4.98}, {'imgObject': {}, 'id': 'popsicles', 'src': '/static/foodstim60/popsicles.jpg', 'key': 'i', 'origWidth': 410, 'origHeight': 410, 'width': 410, 'height': 410, 'widthPercent': 0.45, 'rescaleHeight': False, 'trialN': 49, 'loaded': True, 'loadedTime': 2892.5, 'positionName': 'RIGHT', 'positionCoords': [798.72, 227], 'bid': 0.4}]",96383.30000007153,1669831200412,hashbrowns,popsicles,4.98,0.4,-4.58,hashbrowns,1016,1017,1016.5999999046326,True,u,97908.39999997616,1525.0999999046326,1669831201937,1525,HRV,HRV_0015,2022-11-30 18:04:24
50,"[{'imgObject': {}, 'id': 'banana', 'src': '/static/foodstim60/banana.jpg', 'key': 'u', 'origWidth': 410, 'origHeight': 410, 'width': 410, 'height': 410, 'widthPercent': 0.45, 'rescaleHeight': False, 'trialN': 50, 'loaded': True, 'loadedTime': 2838.2000000476837, 'positionName': 'LEFT', 'positionCoords': [327.28, 227], 'bid': 5}, {'imgObject': {}, 'id': 'cheerios', 'src': '/static/foodstim60/cheerios.jpg', 'key': 'i', 'origWidth': 409, 'origHeight': 410, 'width': 409, 'height': 410, 'widthPercent': 0.45, 'rescaleHeight': False, 'trialN': 50, 'loaded': True, 'loadedTime': 2839.899999976158, 'positionName': 'RIGHT', 'positionCoords': [798.72, 227], 'bid': 8.290000000000001}]",97909.20000004768,1669831201938,banana,cheerios,5.0,8.290000000000001,3.290000000000001,cheerios,1381.7999999523163,1382,1382.5,True,i,99797.30000007153,1888.1000000238419,1669831203826,1888,HRV,HRV_0015,2022-11-30 18:04:24
51,"[{'imgObject': {}, 'id': 'banana', 'src': '/static/foodstim60/banana.jpg', 'key': 'u', 'origWidth': 410, 'origHeight': 410, 'width': 410, 'height': 410, 'widthPercent': 0.45, 'rescaleHeight': False, 'trialN': 51, 'loaded': True, 'loadedTime': 2838, 'positionName': 'LEFT', 'positionCoords': [327.28, 227], 'bid': 5}, {'imgObject': {}, 'id': 'blueberries', 'src': '/static/foodstim60/blueberries.jpg', 'key': 'i', 'origWidth': 411, 'origHeight': 411, 'width': 411, 'height': 411, 'widthPercent': 0.45, 'rescaleHeight': False, 'trialN': 51, 'loaded': True, 'loadedTime': 2587.600000023842, 'positionName': 'RIGHT', 'positionCoords': [798.72, 226.5], 'bid': 5.93}]",99797.70000004768,1669831203826,banana,blueberries,5.0,5.93,0.9299999999999997,banana,2016.7999999523163,2018,2017.1999999284744,True,u,102317.0,2519.2999999523163,1669831206346,2520,HRV,HRV_0015,2022-11-30 18:04:24
52,"[{'imgObject': {}, 'id': 'chickenfingers', 'src': '/static/foodstim60/chickenfingers.jpg', 'key': 'u', 'origWidth': 410, 'origHeight': 410, 'width': 410, 'height': 410, 'widthPercent': 0.45, 'rescaleHeight': False, 'trialN': 52, 'loaded': True, 'loadedTime': 2841.100000023842, 'positionName': 'LEFT', 'positionCoords': [327.28, 227], 'bid': 10}, {'imgObject': {}, 'id': 'eggsalad', 'src': '/static/foodstim60/eggsalad.jpg', 'key': 'i', 'origWidth': 410, 'origHeight': 409, 'width': 410, 'height': 409, 'widthPercent': 0.45, 'rescaleHeight': False, 'trialN': 52, 'loaded': True, 'loadedTime': 2858, 'positionName': 'RIGHT', 'positionCoords': [798.72, 227.5], 'bid': 3.75}]",102317.60000002384,1669831206346,chickenfingers,eggsalad,10.0,3.75,-6.25,chickenfingers,1888,1889,1888.5,True,u,104720.89999997616,2403.2999999523163,1669831208750,2404,HRV,HRV_0015,2022-11-30 18:04:24
53,"[{'imgObject': {}, 'id': 'rigatoni', 'src': '/static/foodstim60/rigatoni.jpg', 'key': 'u', 'origWidth': 411, 'origHeight': 411, 'width': 411, 'height': 411, 'widthPercent': 0.45, 'rescaleHeight': False, 'trialN': 53, 'loaded': True, 'loadedTime': 2631.2000000476837, 'positionName': 'LEFT', 'positionCoords': [326.28, 226.5], 'bid': 0}, {'imgObject': {}, 'id': 'olives', 'src': '/static/foodstim60/olives.jpg', 'key': 'i', 'origWidth': 410, 'origHeight': 410, 'width': 410, 'height': 410, 'widthPercent': 0.45, 'rescaleHeight': False, 'trialN': 53, 'loaded': True, 'loadedTime': 2755.8000000715256, 'positionName': 'RIGHT', 'positionCoords': [798.72, 227], 'bid': 0}]",104721.20000004768,1669831208750,rigatoni,olives,0.0,0.0,0.0,rigatoni,1324,1324,1324.5,True,u,106551.39999997616,1830.1999999284744,1669831210580,1830,HRV,HRV_0015,2022-11-30 18:04:24
54,"[{'imgObject': {}, 'id': 'edamame', 'src': '/static/foodstim60/edamame.jpg', 'key': 'u', 'origWidth': 409, 'origHeight': 410, 'width': 409, 'height': 410, 'widthPercent': 0.45, 'rescaleHeight': False, 'trialN': 54, 'loaded': True, 'loadedTime': 2382.7000000476837, 'positionName': 'LEFT', 'positionCoords': [328.28, 227], 'bid': 7.76}, {'imgObject': {}, 'id': 'avocado', 'src': '/static/foodstim60/avocado.jpg', 'key': 'i', 'origWidth': 409, 'origHeight': 409, 'width': 409, 'height': 409, 'widthPercent': 0.45, 'rescaleHeight': False, 'trialN': 54, 'loaded': True, 'loadedTime': 2795.3000000715256, 'positionName': 'RIGHT', 'positionCoords': [798.72, 227.5], 'bid': 6.53}]",106551.80000007153,1669831210581,edamame,avocado,7.76,6.53,-1.2299999999999995,avocado,2223.2999999523163,2224,2224.0999999046326,True,i,109288.20000004768,2736.399999976158,1669831213317,2736,HRV,HRV_0015,2022-11-30 18:04:24
55,"[{'imgObject': {}, 'id': 'apple slices', 'src': '/static/foodstim60/apple slices.jpg', 'key': 'u', 'origWidth': 409, 'origHeight': 410, 'width': 409, 'height': 410, 'widthPercent': 0.45, 'rescaleHeight': False, 'trialN': 55, 'loaded': True, 'loadedTime': 2613.7000000476837, 'positionName': 'LEFT', 'positionCoords': [328.28, 227], 'bid': 3.89}, {'imgObject': {}, 'id': 'mac & cheese', 'src': '/static/foodstim60/mac & cheese.jpg', 'key': 'i', 'origWidth': 410, 'origHeight': 410, 'width': 410, 'height': 410, 'widthPercent': 0.45, 'rescaleHeight': False, 'trialN': 55, 'loaded': True, 'loadedTime': 2346.5, 'positionName': 'RIGHT', 'positionCoords': [798.72, 227], 'bid': 10}]",109288.60000002384,1669831213317,apple slices,mac & cheese,3.89,10.0,6.109999999999999,mac & cheese,662.2999999523163,663,662.7999999523163,True,i,110451.80000007153,1163.2000000476837,1669831214480,1163,HRV,HRV_0015,2022-11-30 18:04:24
56,"[{'imgObject': {}, 'id': 'lox', 'src': '/static/foodstim60/lox.jpg', 'key': 'u', 'origWidth': 410, 'origHeight': 411, 'width': 410, 'height': 411, 'widthPercent': 0.45, 'rescaleHeight': False, 'trialN': 56, 'loaded': True, 'loadedTime': 2513.600000023842, 'positionName': 'LEFT', 'positionCoords': [327.28, 226.5], 'bid': 0}, {'imgObject': {}, 'id': 'raspberries', 'src': '/static/foodstim60/raspberries.jpg', 'key': 'i', 'origWidth': 411, 'origHeight': 411, 'width': 411, 'height': 411, 'widthPercent': 0.45, 'rescaleHeight': False, 'trialN': 56, 'loaded': True, 'loadedTime': 2818.399999976158, 'positionName': 'RIGHT', 'positionCoords': [798.72, 226.5], 'bid': 4.29}]",110452.10000002384,1669831214481,lox,raspberries,0.0,4.29,4.29,raspberries,829.3999999761581,830,829.8999999761581,True,i,111788.70000004768,1336.6000000238419,1669831215817,1336,HRV,HRV_0015,2022-11-30 18:04:24
57,"[{'imgObject': {}, 'id': 'bagel and cc', 'src': '/static/foodstim60/bagel and cc.jpg', 'key': 'u', 'origWidth': 410, 'origHeight': 410, 'width': 410, 'height': 410, 'widthPercent': 0.45, 'rescaleHeight': False, 'trialN': 57, 'loaded': True, 'loadedTime': 2382.399999976158, 'positionName': 'LEFT', 'positionCoords': [327.28, 227], 'bid': 8.370000000000001}, {'imgObject': {}, 'id': 'chickenfingers', 'src': '/static/foodstim60/chickenfingers.jpg', 'key': 'i', 'origWidth': 410, 'origHeight': 410, 'width': 410, 'height': 410, 'widthPercent': 0.45, 'rescaleHeight': False, 'trialN': 57, 'loaded': True, 'loadedTime': 2854.3000000715256, 'positionName': 'RIGHT', 'positionCoords': [798.72, 227], 'bid': 10}]",111789.39999997616,1669831215818,bagel and cc,chickenfingers,8.370000000000001,10.0,1.629999999999999,chickenfingers,2012.9000000953674,2014,2013.5,True,i,114322.60000002384,2533.2000000476837,1669831218351,2533,HRV,HRV_0015,2022-11-30 18:04:24
58,"[{'imgObject': {}, 'id': 'pear', 'src': '/static/foodstim60/pear.jpg', 'key': 'u', 'origWidth': 411, 'origHeight': 410, 'width': 411, 'height': 410, 'widthPercent': 0.45, 'rescaleHeight': False, 'trialN': 58, 'loaded': True, 'loadedTime': 2860.899999976158, 'positionName': 'LEFT', 'positionCoords': [326.28, 227], 'bid': 4.98}, {'imgObject': {}, 'id': 'hashbrowns', 'src': '/static/foodstim60/hashbrowns.jpg', 'key': 'i', 'origWidth': 411, 'origHeight': 410, 'width': 411, 'height': 410, 'widthPercent': 0.45, 'rescaleHeight': False, 'trialN': 58, 'loaded': True, 'loadedTime': 2432.8000000715256, 'positionName': 'RIGHT', 'positionCoords': [798.72, 227], 'bid': 4.98}]",114323.0,1669831218352,pear,hashbrowns,4.98,4.98,0.0,hashbrowns,1554.8999999761581,1555,1555.2000000476837,True,i,116387.0,2064.0,1669831220416,2064,HRV,HRV_0015,2022-11-30 18:04:24
59,"[{'imgObject': {}, 'id': 'burrito', 'src': '/static/foodstim60/burrito.jpg', 'key': 'u', 'origWidth': 410, 'origHeight': 410, 'width': 410, 'height': 410, 'widthPercent': 0.45, 'rescaleHeight': False, 'trialN': 59, 'loaded': True, 'loadedTime': 2699.8000000715256, 'positionName': 'LEFT', 'positionCoords': [327.28, 227], 'bid': 4.96}, {'imgObject': {}, 'id': 'pear', 'src': '/static/foodstim60/pear.jpg', 'key': 'i', 'origWidth': 411, 'origHeight': 410, 'width': 411, 'height': 410, 'widthPercent': 0.45, 'rescaleHeight': False, 'trialN': 59, 'loaded': True, 'loadedTime': 2858, 'positionName': 'RIGHT', 'positionCoords': [798.72, 227], 'bid': 4.98}]",116387.39999997616,1669831220416,burrito,pear,4.96,4.98,0.020000000000000462,pear,2502.8000000715256,2503,2503.3000000715256,True,i,119403.60000002384,3016.2000000476837,1669831223432,3016,HRV,HRV_0015,2022-11-30 18:04:24
60,"[{'imgObject': {}, 'id': 'olives', 'src': '/static/foodstim60/olives.jpg', 'key': 'u', 'origWidth': 410, 'origHeight': 410, 'width': 410, 'height': 410, 'widthPercent': 0.45, 'rescaleHeight': False, 'trialN': 60, 'loaded': True, 'loadedTime': 2756.600000023842, 'positionName': 'LEFT', 'positionCoords': [327.28, 227], 'bid': 0}, {'imgObject': {}, 'id': 'tacos', 'src': '/static/foodstim60/tacos.jpg', 'key': 'i', 'origWidth': 411, 'origHeight': 411, 'width': 411, 'height': 411, 'widthPercent': 0.45, 'rescaleHeight': False, 'trialN': 60, 'loaded': True, 'loadedTime': 2726.100000023842, 'positionName': 'RIGHT', 'positionCoords': [798.72, 226.5], 'bid': 0}]",119404.0,1669831223433,olives,tacos,0.0,0.0,0.0,tacos,1248.7000000476837,1249,1249.1000000238419,True,i,121168.89999997616,1764.8999999761581,1669831225198,1765,HRV,HRV_0015,2022-11-30 18:04:24
61,"[{'imgObject': {}, 'id': 'raisin bran w milk', 'src': '/static/foodstim60/raisin bran w milk.jpg', 'key': 'u', 'origWidth': 411, 'origHeight': 411, 'width': 411, 'height': 411, 'widthPercent': 0.45, 'rescaleHeight': False, 'trialN': 61, 'loaded': True, 'loadedTime': 2762.100000023842, 'positionName': 'LEFT', 'positionCoords': [326.28, 226.5], 'bid': 8.41}, {'imgObject': {}, 'id': 'salad w chicken', 'src': '/static/foodstim60/salad w chicken.jpg', 'key': 'i', 'origWidth': 411, 'origHeight': 411, 'width': 411, 'height': 411, 'widthPercent': 0.45, 'rescaleHeight': False, 'trialN': 61, 'loaded': True, 'loadedTime': 2777, 'positionName': 'RIGHT', 'positionCoords': [798.72, 226.5], 'bid': 10}]",121169.39999997616,1669831225198,raisin bran w milk,salad w chicken,8.41,10.0,1.5899999999999999,salad w chicken,1329.8000000715256,1331,1330.4000000953674,True,i,123010.20000004768,1840.8000000715256,1669831227039,1841,HRV,HRV_0015,2022-11-30 18:04:24
62,"[{'imgObject': {}, 'id': 'olives', 'src': '/static/foodstim60/olives.jpg', 'key': 'u', 'origWidth': 410, 'origHeight': 410, 'width': 410, 'height': 410, 'widthPercent': 0.45, 'rescaleHeight': False, 'trialN': 62, 'loaded': True, 'loadedTime': 2745.600000023842, 'positionName': 'LEFT', 'positionCoords': [327.28, 227], 'bid': 0}, {'imgObject': {}, 'id': 'burger', 'src': '/static/foodstim60/burger.jpg', 'key': 'i', 'origWidth': 409, 'origHeight': 409, 'width': 409, 'height': 409, 'widthPercent': 0.45, 'rescaleHeight': False, 'trialN': 62, 'loaded': True, 'loadedTime': 2863.7000000476837, 'positionName': 'RIGHT', 'positionCoords': [798.72, 227.5], 'bid': 2.16}]",123010.60000002384,1669831227039,olives,burger,0.0,2.16,2.16,burger,895,896,895.5,True,i,124424.70000004768,1414.1000000238419,1669831228453,1414,HRV,HRV_0015,2022-11-30 18:04:24
63,"[{'imgObject': {}, 'id': 'luckycharms', 'src': '/static/foodstim60/luckycharms.jpg', 'key': 'u', 'origWidth': 410, 'origHeight': 409, 'width': 410, 'height': 409, 'widthPercent': 0.45, 'rescaleHeight': False, 'trialN': 63, 'loaded': True, 'loadedTime': 2484.2000000476837, 'positionName': 'LEFT', 'positionCoords': [327.28, 227.5], 'bid': 4.07}, {'imgObject': {}, 'id': 'ice cream sundae 002', 'src': '/static/foodstim60/ice cream sundae 002.jpg', 'key': 'i', 'origWidth': 409, 'origHeight': 409, 'width': 409, 'height': 409, 'widthPercent': 0.45, 'rescaleHeight': False, 'trialN': 63, 'loaded': True, 'loadedTime': 2866.399999976158, 'positionName': 'RIGHT', 'positionCoords': [798.72, 227.5], 'bid': 4.21}]",124425.20000004768,1669831228454,luckycharms,ice cream sundae 002,4.07,4.21,0.13999999999999968,luckycharms,1660.1000000238419,1661,1660.6000000238419,True,u,126594.70000004768,2169.5,1669831230623,2169,HRV,HRV_0015,2022-11-30 18:04:24
64,"[{'imgObject': {}, 'id': 'sushi w_condiments', 'src': '/static/foodstim60/sushi w_condiments.jpg', 'key': 'u', 'origWidth': 410, 'origHeight': 410, 'width': 410, 'height': 410, 'widthPercent': 0.45, 'rescaleHeight': False, 'trialN': 64, 'loaded': True, 'loadedTime': 2868.399999976158, 'positionName': 'LEFT', 'positionCoords': [327.28, 227], 'bid': 10}, {'imgObject': {}, 'id': 'bagel plain', 'src': '/static/foodstim60/bagel plain.jpg', 'key': 'i', 'origWidth': 410, 'origHeight': 410, 'width': 410, 'height': 410, 'widthPercent': 0.45, 'rescaleHeight': False, 'trialN': 64, 'loaded': True, 'loadedTime': 2417.7000000476837, 'positionName': 'RIGHT', 'positionCoords': [798.72, 227], 'bid': 3.9}]",126595.10000002384,1669831230624,sushi w_condiments,bagel plain,10.0,3.9,-6.1,sushi w_condiments,1081.7000000476837,1082,1082.2999999523163,True,u,128182.80000007153,1587.7000000476837,1669831232211,1587,HRV,HRV_0015,2022-11-30 18:04:24
65,"[{'imgObject': {}, 'id': 'strawberries', 'src': '/static/foodstim60/strawberries.jpg', 'key': 'u', 'origWidth': 410, 'origHeight': 410, 'width': 410, 'height': 410, 'widthPercent': 0.45, 'rescaleHeight': False, 'trialN': 65, 'loaded': True, 'loadedTime': 2870.100000023842, 'positionName': 'LEFT', 'positionCoords': [327.28, 227], 'bid': 2.76}, {'imgObject': {}, 'id': 'turkey sandwich', 'src': '/static/foodstim60/turkey sandwich.jpg', 'key': 'i', 'origWidth': 409, 'origHeight': 409, 'width': 409, 'height': 409, 'widthPercent': 0.45, 'rescaleHeight': False, 'trialN': 65, 'loaded': True, 'loadedTime': 2778.8000000715256, 'positionName': 'RIGHT', 'positionCoords': [798.72, 227.5], 'bid': 1.3}]",128183.10000002384,1669831232212,strawberries,turkey sandwich,2.76,1.3,-1.4599999999999997,turkey sandwich,1666.8999999761581,1667,1667.6000000238419,True,i,130360.10000002384,2177.0,1669831234389,2177,HRV,HRV_0015,2022-11-30 18:04:24
66,"[{'imgObject': {}, 'id': 'eggsalad', 'src': '/static/foodstim60/eggsalad.jpg', 'key': 'u', 'origWidth': 410, 'origHeight': 409, 'width': 410, 'height': 409, 'widthPercent': 0.45, 'rescaleHeight': False, 'trialN': 66, 'loaded': True, 'loadedTime': 2857.5, 'positionName': 'LEFT', 'positionCoords': [327.28, 227.5], 'bid': 3.75}, {'imgObject': {}, 'id': 'popsicles', 'src': '/static/foodstim60/popsicles.jpg', 'key': 'i', 'origWidth': 410, 'origHeight': 410, 'width': 410, 'height': 410, 'widthPercent': 0.45, 'rescaleHeight': False, 'trialN': 66, 'loaded': True, 'loadedTime': 2892.7000000476837, 'positionName': 'RIGHT', 'positionCoords': [798.72, 227], 'bid': 0.4}]",130360.39999997616,1669831234389,eggsalad,popsicles,3.75,0.4,-3.35,eggsalad,2006.9000000953674,2008,2007.5,True,u,132891.0,2530.600000023842,1669831236920,2531,HRV,HRV_0015,2022-11-30 18:04:24
67,"[{'imgObject': {}, 'id': 'rigatoni and sauce', 'src': '/static/foodstim60/rigatoni and sauce.jpg', 'key': 'u', 'origWidth': 410, 'origHeight': 411, 'width': 410, 'height': 411, 'widthPercent': 0.45, 'rescaleHeight': False, 'trialN': 67, 'loaded': True, 'loadedTime': 2552.399999976158, 'positionName': 'LEFT', 'positionCoords': [327.28, 226.5], 'bid': 10}, {'imgObject': {}, 'id': 'sushi w_condiments', 'src': '/static/foodstim60/sushi w_condiments.jpg', 'key': 'i', 'origWidth': 410, 'origHeight': 410, 'width': 410, 'height': 410, 'widthPercent': 0.45, 'rescaleHeight': False, 'trialN': 67, 'loaded': True, 'loadedTime': 2867.8000000715256, 'positionName': 'RIGHT', 'positionCoords': [798.72, 227], 'bid': 10}]",132891.39999997616,1669831236920,rigatoni and sauce,sushi w_condiments,10.0,10.0,0.0,rigatoni and sauce,1727.1000000238419,1728,1727.9000000953674,True,u,135139.60000002384,2248.2000000476837,1669831239168,2248,HRV,HRV_0015,2022-11-30 18:04:24
68,"[{'imgObject': {}, 'id': 'burrito', 'src': '/static/foodstim60/burrito.jpg', 'key': 'u', 'origWidth': 410, 'origHeight': 410, 'width': 410, 'height': 410, 'widthPercent': 0.45, 'rescaleHeight': False, 'trialN': 68, 'loaded': True, 'loadedTime': 2700.399999976158, 'positionName': 'LEFT', 'positionCoords': [327.28, 227], 'bid': 4.96}, {'imgObject': {}, 'id': 'blackbeanswithrice', 'src': '/static/foodstim60/blackbeanswithrice.jpg', 'key': 'i', 'origWidth': 410, 'origHeight': 410, 'width': 410, 'height': 410, 'widthPercent': 0.45, 'rescaleHeight': False, 'trialN': 68, 'loaded': True, 'loadedTime': 2818.7000000476837, 'positionName': 'RIGHT', 'positionCoords': [798.72, 227], 'bid': 0.03}]",135140.0,1669831239169,burrito,blackbeanswithrice,4.96,0.03,-4.93,burrito,880.5,881,881.3999999761581,True,u,136525.0,1385.0,1669831240554,1385,HRV,HRV_0015,2022-11-30 18:04:24
69,"[{'imgObject': {}, 'id': 'froot loops w milk', 'src': '/static/foodstim60/froot loops w milk.jpg', 'key': 'u', 'origWidth': 410, 'origHeight': 410, 'width': 410, 'height': 410, 'widthPercent': 0.45, 'rescaleHeight': False, 'trialN': 69, 'loaded': True, 'loadedTime': 2280, 'positionName': 'LEFT', 'positionCoords': [327.28, 227], 'bid': 4.97}, {'imgObject': {}, 'id': 'burrito', 'src': '/static/foodstim60/burrito.jpg', 'key': 'i', 'origWidth': 410, 'origHeight': 410, 'width': 410, 'height': 410, 'widthPercent': 0.45, 'rescaleHeight': False, 'trialN': 69, 'loaded': True, 'loadedTime': 2697.399999976158, 'positionName': 'RIGHT', 'positionCoords': [798.72, 227], 'bid': 4.96}]",136525.39999997616,1669831240554,froot loops w milk,burrito,4.97,4.96,-0.009999999999999787,burrito,2644.2000000476837,2645,2644.600000023842,True,i,139690.89999997616,3165.5,1669831243720,3166,HRV,HRV_0015,2022-11-30 18:04:24
70,"[{'imgObject': {}, 'id': 'mac & cheese', 'src': '/static/foodstim60/mac & cheese.jpg', 'key': 'u', 'origWidth': 410, 'origHeight': 410, 'width': 410, 'height': 410, 'widthPercent': 0.45, 'rescaleHeight': False, 'trialN': 70, 'loaded': True, 'loadedTime': 2333.7000000476837, 'positionName': 'LEFT', 'positionCoords': [327.28, 227], 'bid': 10}, {'imgObject': {}, 'id': 'sushi w_condiments', 'src': '/static/foodstim60/sushi w_condiments.jpg', 'key': 'i', 'origWidth': 410, 'origHeight': 410, 'width': 410, 'height': 410, 'widthPercent': 0.45, 'rescaleHeight': False, 'trialN': 70, 'loaded': True, 'loadedTime': 2868.3000000715256, 'positionName': 'RIGHT', 'positionCoords': [798.72, 227], 'bid': 10}]",139691.30000007153,1669831243720,mac & cheese,sushi w_condiments,10.0,10.0,0.0,mac & cheese,1377.2999999523163,1378,1377.8999999761581,True,u,141578.60000002384,1887.2999999523163,1669831245607,1887,HRV,HRV_0015,2022-11-30 18:04:24
71,"[{'imgObject': {}, 'id': 'raspberries', 'src': '/static/foodstim60/raspberries.jpg', 'key': 'u', 'origWidth': 411, 'origHeight': 411, 'width': 411, 'height': 411, 'widthPercent': 0.45, 'rescaleHeight': False, 'trialN': 71, 'loaded': True, 'loadedTime': 2817.899999976158, 'positionName': 'LEFT', 'positionCoords': [326.28, 226.5], 'bid': 4.29}, {'imgObject': {}, 'id': 'edamame', 'src': '/static/foodstim60/edamame.jpg', 'key': 'i', 'origWidth': 409, 'origHeight': 410, 'width': 409, 'height': 410, 'widthPercent': 0.45, 'rescaleHeight': False, 'trialN': 71, 'loaded': True, 'loadedTime': 2383.899999976158, 'positionName': 'RIGHT', 'positionCoords': [798.72, 227], 'bid': 7.76}]",141579.10000002384,1669831245608,raspberries,edamame,4.29,7.76,3.4699999999999998,edamame,1094.7999999523163,1095,1095.3999999761581,True,i,143183.0,1603.8999999761581,1669831247212,1604,HRV,HRV_0015,2022-11-30 18:04:24
72,"[{'imgObject': {}, 'id': 'mango', 'src': '/static/foodstim60/mango.jpg', 'key': 'u', 'origWidth': 411, 'origHeight': 411, 'width': 411, 'height': 411, 'widthPercent': 0.45, 'rescaleHeight': False, 'trialN': 72, 'loaded': True, 'loadedTime': 2315.3000000715256, 'positionName': 'LEFT', 'positionCoords': [326.28, 226.5], 'bid': 2.66}, {'imgObject': {}, 'id': 'popsicles', 'src': '/static/foodstim60/popsicles.jpg', 'key': 'i', 'origWidth': 410, 'origHeight': 410, 'width': 410, 'height': 410, 'widthPercent': 0.45, 'rescaleHeight': False, 'trialN': 72, 'loaded': True, 'loadedTime': 2892.600000023842, 'positionName': 'RIGHT', 'positionCoords': [798.72, 227], 'bid': 0.4}]",143183.5,1669831247212,mango,popsicles,2.66,0.4,-2.2600000000000002,mango,1435,1436,1435.5,True,u,145131.89999997616,1948.3999999761581,1669831249161,1949,HRV,HRV_0015,2022-11-30 18:04:24
73,"[{'imgObject': {}, 'id': 'sweetpotato', 'src': '/static/foodstim60/sweetpotato.jpg', 'key': 'u', 'origWidth': 410, 'origHeight': 410, 'width': 410, 'height': 410, 'widthPercent': 0.45, 'rescaleHeight': False, 'trialN': 73, 'loaded': True, 'loadedTime': 2318.2000000476837, 'positionName': 'LEFT', 'positionCoords': [327.28, 227], 'bid': 2.5500000000000003}, {'imgObject': {}, 'id': 'rigatoni', 'src': '/static/foodstim60/rigatoni.jpg', 'key': 'i', 'origWidth': 411, 'origHeight': 411, 'width': 411, 'height': 411, 'widthPercent': 0.45, 'rescaleHeight': False, 'trialN': 73, 'loaded': True, 'loadedTime': 2645, 'positionName': 'RIGHT', 'positionCoords': [798.72, 226.5], 'bid': 0}]",145132.20000004768,1669831249161,sweetpotato,rigatoni,2.5500000000000003,0.0,-2.5500000000000003,sweetpotato,1168.1999999284744,1169,1168.7999999523163,True,u,146818.39999997616,1686.1999999284744,1669831250847,1686,HRV,HRV_0015,2022-11-30 18:04:24
74,"[{'imgObject': {}, 'id': 'blackbeanswithrice', 'src': '/static/foodstim60/blackbeanswithrice.jpg', 'key': 'u', 'origWidth': 410, 'origHeight': 410, 'width': 410, 'height': 410, 'widthPercent': 0.45, 'rescaleHeight': False, 'trialN': 74, 'loaded': True, 'loadedTime': 2820.100000023842, 'positionName': 'LEFT', 'positionCoords': [327.28, 227], 'bid': 0.03}, {'imgObject': {}, 'id': 'turkeysandwich', 'src': '/static/foodstim60/turkeysandwich.jpg', 'key': 'i', 'origWidth': 409, 'origHeight': 409, 'width': 409, 'height': 409, 'widthPercent': 0.45, 'rescaleHeight': False, 'trialN': 74, 'loaded': True, 'loadedTime': 2572.399999976158, 'positionName': 'RIGHT', 'positionCoords': [798.72, 227.5], 'bid': 2}]",146818.70000004768,1669831250847,blackbeanswithrice,turkeysandwich,0.03,2.0,1.97,turkeysandwich,746.3999999761581,747,746.7999999523163,True,i,148073.60000002384,1254.8999999761581,1669831252102,1255,HRV,HRV_0015,2022-11-30 18:04:24
75,"[{'imgObject': {}, 'id': 'blueberries', 'src': '/static/foodstim60/blueberries.jpg', 'key': 'u', 'origWidth': 411, 'origHeight': 411, 'width': 411, 'height': 411, 'widthPercent': 0.45, 'rescaleHeight': False, 'trialN': 75, 'loaded': True, 'loadedTime': 2590.3000000715256, 'positionName': 'LEFT', 'positionCoords': [326.28, 226.5], 'bid': 5.93}, {'imgObject': {}, 'id': 'seaweed', 'src': '/static/foodstim60/seaweed.jpg', 'key': 'i', 'origWidth': 410, 'origHeight': 410, 'width': 410, 'height': 410, 'widthPercent': 0.45, 'rescaleHeight': False, 'trialN': 75, 'loaded': True, 'loadedTime': 2450.8000000715256, 'positionName': 'RIGHT', 'positionCoords': [798.72, 227], 'bid': 10}]",148074.0,1669831252103,blueberries,seaweed,5.93,10.0,4.07,seaweed,1284.2000000476837,1284,1284.7000000476837,True,i,149871.10000002384,1797.1000000238419,1669831253900,1797,HRV,HRV_0015,2022-11-30 18:04:24
76,"[{'imgObject': {}, 'id': 'fruitsalad', 'src': '/static/foodstim60/fruitsalad.jpg', 'key': 'u', 'origWidth': 410, 'origHeight': 410, 'width': 410, 'height': 410, 'widthPercent': 0.45, 'rescaleHeight': False, 'trialN': 76, 'loaded': True, 'loadedTime': 2758.600000023842, 'positionName': 'LEFT', 'positionCoords': [327.28, 227], 'bid': 5.72}, {'imgObject': {}, 'id': 'chicken nuggets2', 'src': '/static/foodstim60/chicken nuggets2.jpg', 'key': 'i', 'origWidth': 410, 'origHeight': 409, 'width': 410, 'height': 409, 'widthPercent': 0.45, 'rescaleHeight': False, 'trialN': 76, 'loaded': True, 'loadedTime': 2284.100000023842, 'positionName': 'RIGHT', 'positionCoords': [798.72, 227.5], 'bid': 9.37}]",149871.60000002384,1669831253900,fruitsalad,chicken nuggets2,5.72,9.37,3.6499999999999995,chicken nuggets2,1442.2000000476837,1443,1442.7999999523163,True,i,151834.39999997616,1962.7999999523163,1669831255863,1963,HRV,HRV_0015,2022-11-30 18:04:24
77,"[{'imgObject': {}, 'id': 'burger', 'src': '/static/foodstim60/burger.jpg', 'key': 'u', 'origWidth': 409, 'origHeight': 409, 'width': 409, 'height': 409, 'widthPercent': 0.45, 'rescaleHeight': False, 'trialN': 77, 'loaded': True, 'loadedTime': 2861, 'positionName': 'LEFT', 'positionCoords': [328.28, 227.5], 'bid': 2.16}, {'imgObject': {}, 'id': 'mashed potato', 'src': '/static/foodstim60/mashed potato.jpg', 'key': 'i', 'origWidth': 409, 'origHeight': 409, 'width': 409, 'height': 409, 'widthPercent': 0.45, 'rescaleHeight': False, 'trialN': 77, 'loaded': True, 'loadedTime': 2537.600000023842, 'positionName': 'RIGHT', 'positionCoords': [798.72, 227.5], 'bid': 0.05}]",151834.70000004768,1669831255863,burger,mashed potato,2.16,0.05,-2.1100000000000003,burger,1020.6000000238419,1022,1021.1999999284744,True,u,153361.30000007153,1526.6000000238419,1669831257390,1527,HRV,HRV_0015,2022-11-30 18:04:24
78,"[{'imgObject': {}, 'id': 'cherries', 'src': '/static/foodstim60/cherries.jpg', 'key': 'u', 'origWidth': 410, 'origHeight': 411, 'width': 410, 'height': 411, 'widthPercent': 0.45, 'rescaleHeight': False, 'trialN': 78, 'loaded': True, 'loadedTime': 2885.100000023842, 'positionName': 'LEFT', 'positionCoords': [327.28, 226.5], 'bid': 1.92}, {'imgObject': {}, 'id': 'salmon', 'src': '/static/foodstim60/salmon.jpg', 'key': 'i', 'origWidth': 410, 'origHeight': 409, 'width': 410, 'height': 409, 'widthPercent': 0.45, 'rescaleHeight': False, 'trialN': 78, 'loaded': True, 'loadedTime': 2704.7000000476837, 'positionName': 'RIGHT', 'positionCoords': [798.72, 227.5], 'bid': 0.03}]",153361.89999997616,1669831257391,cherries,salmon,1.92,0.03,-1.89,cherries,1698.8000000715256,1699,1699.3000000715256,True,u,155568.0,2206.100000023842,1669831259597,2206,HRV,HRV_0015,2022-11-30 18:04:24
79,"[{'imgObject': {}, 'id': 'eggsalad', 'src': '/static/foodstim60/eggsalad.jpg', 'key': 'u', 'origWidth': 410, 'origHeight': 409, 'width': 410, 'height': 409, 'widthPercent': 0.45, 'rescaleHeight': False, 'trialN': 79, 'loaded': True, 'loadedTime': 2856.399999976158, 'positionName': 'LEFT', 'positionCoords': [327.28, 227.5], 'bid': 3.75}, {'imgObject': {}, 'id': 'Tribe humus pita', 'src': '/static/foodstim60/Tribe humus pita.jpg', 'key': 'i', 'origWidth': 411, 'origHeight': 411, 'width': 411, 'height': 411, 'widthPercent': 0.45, 'rescaleHeight': False, 'trialN': 79, 'loaded': True, 'loadedTime': 2467, 'positionName': 'RIGHT', 'positionCoords': [798.72, 226.5], 'bid': 3.85}]",155568.39999997616,1669831259597,eggsalad,Tribe humus pita,3.75,3.85,0.10000000000000009,eggsalad,2534.8000000715256,2535,2535.4000000953674,True,u,158618.80000007153,3050.4000000953674,1669831262647,3050,HRV,HRV_0015,2022-11-30 18:04:24
80,"[{'imgObject': {}, 'id': 'cantaloupe', 'src': '/static/foodstim60/cantaloupe.jpg', 'key': 'u', 'origWidth': 409, 'origHeight': 409, 'width': 409, 'height': 409, 'widthPercent': 0.45, 'rescaleHeight': False, 'trialN': 80, 'loaded': True, 'loadedTime': 2575.2000000476837, 'positionName': 'LEFT', 'positionCoords': [328.28, 227.5], 'bid': 3.33}, {'imgObject': {}, 'id': 'strawberries', 'src': '/static/foodstim60/strawberries.jpg', 'key': 'i', 'origWidth': 410, 'origHeight': 410, 'width': 410, 'height': 410, 'widthPercent': 0.45, 'rescaleHeight': False, 'trialN': 80, 'loaded': True, 'loadedTime': 2870.2000000476837, 'positionName': 'RIGHT', 'positionCoords': [798.72, 227], 'bid': 2.76}]",158619.20000004768,1669831262648,cantaloupe,strawberries,3.33,2.76,-0.5700000000000003,cantaloupe,1608.6000000238419,1609,1609.1999999284744,True,u,160730.80000007153,2111.600000023842,1669831264759,2111,HRV,HRV_0015,2022-11-30 18:04:24
81,"[{'imgObject': {}, 'id': 'rigatoni', 'src': '/static/foodstim60/rigatoni.jpg', 'key': 'u', 'origWidth': 411, 'origHeight': 411, 'width': 411, 'height': 411, 'widthPercent': 0.45, 'rescaleHeight': False, 'trialN': 81, 'loaded': True, 'loadedTime': 2628.600000023842, 'positionName': 'LEFT', 'positionCoords': [326.28, 226.5], 'bid': 0}, {'imgObject': {}, 'id': 'lox', 'src': '/static/foodstim60/lox.jpg', 'key': 'i', 'origWidth': 410, 'origHeight': 411, 'width': 410, 'height': 411, 'widthPercent': 0.45, 'rescaleHeight': False, 'trialN': 81, 'loaded': True, 'loadedTime': 2517.399999976158, 'positionName': 'RIGHT', 'positionCoords': [798.72, 226.5], 'bid': 0}]",160730.89999997616,1669831264760,rigatoni,lox,0.0,0.0,0.0,rigatoni,1026.2000000476837,1026,1026.7000000476837,True,u,162272.10000002384,1541.2000000476837,1669831266301,1541,HRV,HRV_0015,2022-11-30 18:04:24
82,"[{'imgObject': {}, 'id': 'orange slices', 'src': '/static/foodstim60/orange slices.jpg', 'key': 'u', 'origWidth': 409, 'origHeight': 410, 'width': 409, 'height': 410, 'widthPercent': 0.45, 'rescaleHeight': False, 'trialN': 82, 'loaded': True, 'loadedTime': 2210.600000023842, 'positionName': 'LEFT', 'positionCoords': [328.28, 227], 'bid': 4.94}, {'imgObject': {}, 'id': 'cherry tomato', 'src': '/static/foodstim60/cherry tomato.jpg', 'key': 'i', 'origWidth': 410, 'origHeight': 410, 'width': 410, 'height': 410, 'widthPercent': 0.45, 'rescaleHeight': False, 'trialN': 82, 'loaded': True, 'loadedTime': 2723, 'positionName': 'RIGHT', 'positionCoords': [798.72, 227], 'bid': 4.17}]",162272.5,1669831266301,orange slices,cherry tomato,4.94,4.17,-0.7700000000000005,cherry tomato,1219.7000000476837,1220,1220.3000000715256,True,i,164002.39999997616,1729.8999999761581,1669831268031,1730,HRV,HRV_0015,2022-11-30 18:04:24
83,"[{'imgObject': {}, 'id': 'cheerios', 'src': '/static/foodstim60/cheerios.jpg', 'key': 'u', 'origWidth': 409, 'origHeight': 410, 'width': 409, 'height': 410, 'widthPercent': 0.45, 'rescaleHeight': False, 'trialN': 83, 'loaded': True, 'loadedTime': 2840.2000000476837, 'positionName': 'LEFT', 'positionCoords': [328.28, 227], 'bid': 8.290000000000001}, {'imgObject': {}, 'id': 'sushi w_condiments', 'src': '/static/foodstim60/sushi w_condiments.jpg', 'key': 'i', 'origWidth': 410, 'origHeight': 410, 'width': 410, 'height': 410, 'widthPercent': 0.45, 'rescaleHeight': False, 'trialN': 83, 'loaded': True, 'loadedTime': 2866.5, 'positionName': 'RIGHT', 'positionCoords': [798.72, 227], 'bid': 10}]",164002.80000007153,1669831268031,cheerios,sushi w_condiments,8.290000000000001,10.0,1.709999999999999,sushi w_condiments,1612.6999999284744,1614,1613.1999999284744,True,i,166124.10000002384,2121.2999999523163,1669831270153,2122,HRV,HRV_0015,2022-11-30 18:04:24
84,"[{'imgObject': {}, 'id': 'cocktailshrimp', 'src': '/static/foodstim60/cocktailshrimp.jpg', 'key': 'u', 'origWidth': 410, 'origHeight': 410, 'width': 410, 'height': 410, 'widthPercent': 0.45, 'rescaleHeight': False, 'trialN': 84, 'loaded': True, 'loadedTime': 2647.100000023842, 'positionName': 'LEFT', 'positionCoords': [327.28, 227], 'bid': 0.01}, {'imgObject': {}, 'id': 'salmon', 'src': '/static/foodstim60/salmon.jpg', 'key': 'i', 'origWidth': 410, 'origHeight': 409, 'width': 410, 'height': 409, 'widthPercent': 0.45, 'rescaleHeight': False, 'trialN': 84, 'loaded': True, 'loadedTime': 2704.600000023842, 'positionName': 'RIGHT', 'positionCoords': [798.72, 227.5], 'bid': 0.03}]",166124.30000007153,1669831270153,cocktailshrimp,salmon,0.01,0.03,0.019999999999999997,salmon,1267.8999999761581,1268,1268.5999999046326,True,i,167902.70000004768,1778.3999999761581,1669831271931,1778,HRV,HRV_0015,2022-11-30 18:04:24
85,"[{'imgObject': {}, 'id': 'veggieswithdip', 'src': '/static/foodstim60/veggieswithdip.jpg', 'key': 'u', 'origWidth': 409, 'origHeight': 409, 'width': 409, 'height': 409, 'widthPercent': 0.45, 'rescaleHeight': False, 'trialN': 85, 'loaded': True, 'loadedTime': 2448.5, 'positionName': 'LEFT', 'positionCoords': [328.28, 227.5], 'bid': 5}, {'imgObject': {}, 'id': 'fried eggs', 'src': '/static/foodstim60/fried eggs.jpg', 'key': 'i', 'origWidth': 410, 'origHeight': 410, 'width': 410, 'height': 410, 'widthPercent': 0.45, 'rescaleHeight': False, 'trialN': 85, 'loaded': True, 'loadedTime': 2252.899999976158, 'positionName': 'RIGHT', 'positionCoords': [798.72, 227], 'bid': 8.69}]",167903.10000002384,1669831271932,veggieswithdip,fried eggs,5.0,8.69,3.6899999999999995,fried eggs,1442,1443,1442.7000000476837,True,i,169856.10000002384,1953.0,1669831273885,1953,HRV,HRV_0015,2022-11-30 18:04:24
86,"[{'imgObject': {}, 'id': 'raspberries', 'src': '/static/foodstim60/raspberries.jpg', 'key': 'u', 'origWidth': 411, 'origHeight': 411, 'width': 411, 'height': 411, 'widthPercent': 0.45, 'rescaleHeight': False, 'trialN': 86, 'loaded': True, 'loadedTime': 2818.5, 'positionName': 'LEFT', 'positionCoords': [326.28, 226.5], 'bid': 4.29}, {'imgObject': {}, 'id': 'ice cream sundae 002', 'src': '/static/foodstim60/ice cream sundae 002.jpg', 'key': 'i', 'origWidth': 409, 'origHeight': 409, 'width': 409, 'height': 409, 'widthPercent': 0.45, 'rescaleHeight': False, 'trialN': 86, 'loaded': True, 'loadedTime': 2864.5, 'positionName': 'RIGHT', 'positionCoords': [798.72, 227.5], 'bid': 4.21}]",169856.39999997616,1669831273885,raspberries,ice cream sundae 002,4.29,4.21,-0.08000000000000007,ice cream sundae 002,1972.6000000238419,1973,1972.9000000953674,True,i,172342.30000007153,2485.9000000953674,1669831276371,2486,HRV,HRV_0015,2022-11-30 18:04:24
87,"[{'imgObject': {}, 'id': 'strawberries', 'src': '/static/foodstim60/strawberries.jpg', 'key': 'u', 'origWidth': 410, 'origHeight': 410, 'width': 410, 'height': 410, 'widthPercent': 0.45, 'rescaleHeight': False, 'trialN': 87, 'loaded': True, 'loadedTime': 2868.5, 'positionName': 'LEFT', 'positionCoords': [327.28, 227], 'bid': 2.76}, {'imgObject': {}, 'id': 'Grapes', 'src': '/static/foodstim60/Grapes.jpg', 'key': 'i', 'origWidth': 411, 'origHeight': 411, 'width': 411, 'height': 411, 'widthPercent': 0.45, 'rescaleHeight': False, 'trialN': 87, 'loaded': True, 'loadedTime': 2815.399999976158, 'positionName': 'RIGHT', 'positionCoords': [798.72, 226.5], 'bid': 3.25}]",172342.89999997616,1669831276372,strawberries,Grapes,2.76,3.25,0.4900000000000002,Grapes,1268,1268,1268.4000000953674,True,i,174116.20000004768,1773.3000000715256,1669831278145,1773,HRV,HRV_0015,2022-11-30 18:04:24
88,"[{'imgObject': {}, 'id': 'pear', 'src': '/static/foodstim60/pear.jpg', 'key': 'u', 'origWidth': 411, 'origHeight': 410, 'width': 411, 'height': 410, 'widthPercent': 0.45, 'rescaleHeight': False, 'trialN': 88, 'loaded': True, 'loadedTime': 2859.600000023842, 'positionName': 'LEFT', 'positionCoords': [326.28, 227], 'bid': 4.98}, {'imgObject': {}, 'id': 'omelette', 'src': '/static/foodstim60/omelette.jpg', 'key': 'i', 'origWidth': 410, 'origHeight': 409, 'width': 410, 'height': 409, 'widthPercent': 0.45, 'rescaleHeight': False, 'trialN': 88, 'loaded': True, 'loadedTime': 2664.399999976158, 'positionName': 'RIGHT', 'positionCoords': [798.72, 227.5], 'bid': 0.07}]",174116.5,1669831278145,pear,omelette,4.98,0.07,-4.91,pear,966.2000000476837,967,966.7000000476837,True,u,175596.89999997616,1480.3999999761581,1669831279625,1480,HRV,HRV_0015,2022-11-30 18:04:24
89,"[{'imgObject': {}, 'id': 'froot loops w milk', 'src': '/static/foodstim60/froot loops w milk.jpg', 'key': 'u', 'origWidth': 410, 'origHeight': 410, 'width': 410, 'height': 410, 'widthPercent': 0.45, 'rescaleHeight': False, 'trialN': 89, 'loaded': True, 'loadedTime': 2266.600000023842, 'positionName': 'LEFT', 'positionCoords': [327.28, 227], 'bid': 4.97}, {'imgObject': {}, 'id': 'blueberries', 'src': '/static/foodstim60/blueberries.jpg', 'key': 'i', 'origWidth': 411, 'origHeight': 411, 'width': 411, 'height': 411, 'widthPercent': 0.45, 'rescaleHeight': False, 'trialN': 89, 'loaded': True, 'loadedTime': 2591.8000000715256, 'positionName': 'RIGHT', 'positionCoords': [798.72, 226.5], 'bid': 5.93}]",175597.39999997616,1669831279626,froot loops w milk,blueberries,4.97,5.93,0.96,blueberries,1416.8000000715256,1417,1417.2000000476837,True,i,177515.30000007153,1917.9000000953674,1669831281544,1918,HRV,HRV_0015,2022-11-30 18:04:24
90,"[{'imgObject': {}, 'id': 'sushi w_condiments', 'src': '/static/foodstim60/sushi w_condiments.jpg', 'key': 'u', 'origWidth': 410, 'origHeight': 410, 'width': 410, 'height': 410, 'widthPercent': 0.45, 'rescaleHeight': False, 'trialN': 90, 'loaded': True, 'loadedTime': 2868.399999976158, 'positionName': 'LEFT', 'positionCoords': [327.28, 227], 'bid': 10}, {'imgObject': {}, 'id': 'fruitsalad', 'src': '/static/foodstim60/fruitsalad.jpg', 'key': 'i', 'origWidth': 410, 'origHeight': 410, 'width': 410, 'height': 410, 'widthPercent': 0.45, 'rescaleHeight': False, 'trialN': 90, 'loaded': True, 'loadedTime': 2757.899999976158, 'positionName': 'RIGHT', 'positionCoords': [798.72, 227], 'bid': 5.72}]",181107.80000007153,1669831285136,sushi w_condiments,fruitsalad,10.0,5.72,-4.28,sushi w_condiments,2605.0999999046326,2606,2605.899999976158,True,u,184220.30000007153,3112.5,1669831288249,3113,HRV,HRV_0015,2022-11-30 18:04:24
91,"[{'imgObject': {}, 'id': 'cocktailshrimp', 'src': '/static/foodstim60/cocktailshrimp.jpg', 'key': 'u', 'origWidth': 410, 'origHeight': 410, 'width': 410, 'height': 410, 'widthPercent': 0.45, 'rescaleHeight': False, 'trialN': 91, 'loaded': True, 'loadedTime': 2647.7000000476837, 'positionName': 'LEFT', 'positionCoords': [327.28, 227], 'bid': 0.01}, {'imgObject': {}, 'id': 'turkey sandwich', 'src': '/static/foodstim60/turkey sandwich.jpg', 'key': 'i', 'origWidth': 409, 'origHeight': 409, 'width': 409, 'height': 409, 'widthPercent': 0.45, 'rescaleHeight': False, 'trialN': 91, 'loaded': True, 'loadedTime': 2778.600000023842, 'positionName': 'RIGHT', 'positionCoords': [798.72, 227.5], 'bid': 1.3}]",184220.70000004768,1669831288249,cocktailshrimp,turkey sandwich,0.01,1.3,1.29,turkey sandwich,1155.7999999523163,1156,1156.1999999284744,True,i,185889.10000002384,1668.3999999761581,1669831289917,1668,HRV,HRV_0015,2022-11-30 18:04:24
92,"[{'imgObject': {}, 'id': 'baked potato', 'src': '/static/foodstim60/baked potato.jpg', 'key': 'u', 'origWidth': 409, 'origHeight': 410, 'width': 409, 'height': 410, 'widthPercent': 0.45, 'rescaleHeight': False, 'trialN': 92, 'loaded': True, 'loadedTime': 2500.8000000715256, 'positionName': 'LEFT', 'positionCoords': [328.28, 227], 'bid': 0.67}, {'imgObject': {}, 'id': 'popsicles', 'src': '/static/foodstim60/popsicles.jpg', 'key': 'i', 'origWidth': 410, 'origHeight': 410, 'width': 410, 'height': 410, 'widthPercent': 0.45, 'rescaleHeight': False, 'trialN': 92, 'loaded': True, 'loadedTime': 2891.2000000476837, 'positionName': 'RIGHT', 'positionCoords': [798.72, 227], 'bid': 0.4}]",185889.39999997616,1669831289918,baked potato,popsicles,0.67,0.4,-0.27,baked potato,2077.2000000476837,2078,2077.8000000715256,True,u,188469.80000007153,2580.4000000953674,1669831292498,2580,HRV,HRV_0015,2022-11-30 18:04:24
93,"[{'imgObject': {}, 'id': 'roastedpotatoes', 'src': '/static/foodstim60/roastedpotatoes.jpg', 'key': 'u', 'origWidth': 409, 'origHeight': 410, 'width': 409, 'height': 410, 'widthPercent': 0.45, 'rescaleHeight': False, 'trialN': 93, 'loaded': True, 'loadedTime': 2684.5, 'positionName': 'LEFT', 'positionCoords': [328.28, 227], 'bid': 8.9}, {'imgObject': {}, 'id': 'banana', 'src': '/static/foodstim60/banana.jpg', 'key': 'i', 'origWidth': 410, 'origHeight': 410, 'width': 410, 'height': 410, 'widthPercent': 0.45, 'rescaleHeight': False, 'trialN': 93, 'loaded': True, 'loadedTime': 2838.5, 'positionName': 'RIGHT', 'positionCoords': [798.72, 227], 'bid': 5}]",188470.0,1669831292498,roastedpotatoes,banana,8.9,5.0,-3.9000000000000004,roastedpotatoes,865.6000000238419,867,866.1000000238419,True,u,189844.20000004768,1374.2000000476837,1669831293873,1375,HRV,HRV_0015,2022-11-30 18:04:24
94,"[{'imgObject': {}, 'id': 'bagel and cc', 'src': '/static/foodstim60/bagel and cc.jpg', 'key': 'u', 'origWidth': 410, 'origHeight': 410, 'width': 410, 'height': 410, 'widthPercent': 0.45, 'rescaleHeight': False, 'trialN': 94, 'loaded': True, 'loadedTime': 2382.3000000715256, 'positionName': 'LEFT', 'positionCoords': [327.28, 227], 'bid': 8.370000000000001}, {'imgObject': {}, 'id': 'granola w milk', 'src': '/static/foodstim60/granola w milk.jpg', 'key': 'i', 'origWidth': 410, 'origHeight': 410, 'width': 410, 'height': 410, 'widthPercent': 0.45, 'rescaleHeight': False, 'trialN': 94, 'loaded': True, 'loadedTime': 2398.3000000715256, 'positionName': 'RIGHT', 'positionCoords': [798.72, 227], 'bid': 4.46}]",189844.39999997616,1669831293873,bagel and cc,granola w milk,8.370000000000001,4.46,-3.910000000000001,bagel and cc,1317,1317,1317.6000000238419,True,u,191667.89999997616,1823.5,1669831295696,1823,HRV,HRV_0015,2022-11-30 18:04:24
95,"[{'imgObject': {}, 'id': 'chicken nuggets2', 'src': '/static/foodstim60/chicken nuggets2.jpg', 'key': 'u', 'origWidth': 410, 'origHeight': 409, 'width': 410, 'height': 409, 'widthPercent': 0.45, 'rescaleHeight': False, 'trialN': 95, 'loaded': True, 'loadedTime': 2284.600000023842, 'positionName': 'LEFT', 'positionCoords': [327.28, 227.5], 'bid': 9.37}, {'imgObject': {}, 'id': 'chickenfingers', 'src': '/static/foodstim60/chickenfingers.jpg', 'key': 'i', 'origWidth': 410, 'origHeight': 410, 'width': 410, 'height': 410, 'widthPercent': 0.45, 'rescaleHeight': False, 'trialN': 95, 'loaded': True, 'loadedTime': 2854.7000000476837, 'positionName': 'RIGHT', 'positionCoords': [798.72, 227], 'bid': 10}]",191668.30000007153,1669831295697,chicken nuggets2,chickenfingers,9.37,10.0,0.6300000000000008,chickenfingers,1221.6999999284744,1222,1222.0999999046326,True,i,193396.70000004768,1728.3999999761581,1669831297425,1728,HRV,HRV_0015,2022-11-30 18:04:24
96,"[{'imgObject': {}, 'id': 'burger', 'src': '/static/foodstim60/burger.jpg', 'key': 'u', 'origWidth': 409, 'origHeight': 409, 'width': 409, 'height': 409, 'widthPercent': 0.45, 'rescaleHeight': False, 'trialN': 96, 'loaded': True, 'loadedTime': 2863.3000000715256, 'positionName': 'LEFT', 'positionCoords': [328.28, 227.5], 'bid': 2.16}, {'imgObject': {}, 'id': 'eggs', 'src': '/static/foodstim60/eggs.jpg', 'key': 'i', 'origWidth': 409, 'origHeight': 409, 'width': 409, 'height': 409, 'widthPercent': 0.45, 'rescaleHeight': False, 'trialN': 96, 'loaded': True, 'loadedTime': 2666.100000023842, 'positionName': 'RIGHT', 'positionCoords': [798.72, 227.5], 'bid': 3.41}]",193397.20000004768,1669831297426,burger,eggs,2.16,3.41,1.25,eggs,2209.600000023842,2210,2210.5,True,i,196119.60000002384,2722.399999976158,1669831300148,2722,HRV,HRV_0015,2022-11-30 18:04:24
97,"[{'imgObject': {}, 'id': 'Grapes', 'src': '/static/foodstim60/Grapes.jpg', 'key': 'u', 'origWidth': 411, 'origHeight': 411, 'width': 411, 'height': 411, 'widthPercent': 0.45, 'rescaleHeight': False, 'trialN': 97, 'loaded': True, 'loadedTime': 2815.899999976158, 'positionName': 'LEFT', 'positionCoords': [326.28, 226.5], 'bid': 3.25}, {'imgObject': {}, 'id': 'cherries', 'src': '/static/foodstim60/cherries.jpg', 'key': 'i', 'origWidth': 410, 'origHeight': 411, 'width': 410, 'height': 411, 'widthPercent': 0.45, 'rescaleHeight': False, 'trialN': 97, 'loaded': True, 'loadedTime': 2885.8000000715256, 'positionName': 'RIGHT', 'positionCoords': [798.72, 226.5], 'bid': 1.92}]",196120.0,1669831300148,Grapes,cherries,3.25,1.92,-1.33,Grapes,1239.5,1240,1240.1000000238419,True,u,197883.20000004768,1763.2000000476837,1669831301911,1763,HRV,HRV_0015,2022-11-30 18:04:24
98,"[{'imgObject': {}, 'id': 'hashbrowns', 'src': '/static/foodstim60/hashbrowns.jpg', 'key': 'u', 'origWidth': 411, 'origHeight': 410, 'width': 411, 'height': 410, 'widthPercent': 0.45, 'rescaleHeight': False, 'trialN': 98, 'loaded': True, 'loadedTime': 2430, 'positionName': 'LEFT', 'positionCoords': [326.28, 227], 'bid': 4.98}, {'imgObject': {}, 'id': 'chickenfingers', 'src': '/static/foodstim60/chickenfingers.jpg', 'key': 'i', 'origWidth': 410, 'origHeight': 410, 'width': 410, 'height': 410, 'widthPercent': 0.45, 'rescaleHeight': False, 'trialN': 98, 'loaded': True, 'loadedTime': 2856.3000000715256, 'positionName': 'RIGHT', 'positionCoords': [798.72, 227], 'bid': 10}]",197883.5,1669831301912,hashbrowns,chickenfingers,4.98,10.0,5.02,chickenfingers,1147.3999999761581,1148,1148.1000000238419,True,i,199547.39999997616,1663.8999999761581,1669831303576,1664,HRV,HRV_0015,2022-11-30 18:04:24
99,"[{'imgObject': {}, 'id': 'turkey sandwich', 'src': '/static/foodstim60/turkey sandwich.jpg', 'key': 'u', 'origWidth': 409, 'origHeight': 409, 'width': 409, 'height': 409, 'widthPercent': 0.45, 'rescaleHeight': False, 'trialN': 99, 'loaded': True, 'loadedTime': 2793.899999976158, 'positionName': 'LEFT', 'positionCoords': [328.28, 227.5], 'bid': 1.3}, {'imgObject': {}, 'id': 'cherry tomato', 'src': '/static/foodstim60/cherry tomato.jpg', 'key': 'i', 'origWidth': 410, 'origHeight': 410, 'width': 410, 'height': 410, 'widthPercent': 0.45, 'rescaleHeight': False, 'trialN': 99, 'loaded': True, 'loadedTime': 2722.100000023842, 'positionName': 'RIGHT', 'positionCoords': [798.72, 227], 'bid': 4.17}]",199547.80000007153,1669831303576,turkey sandwich,cherry tomato,1.3,4.17,2.87,cherry tomato,1072.7999999523163,1074,1073.3999999761581,True,i,201135.89999997616,1588.0999999046326,1669831305164,1588,HRV,HRV_0015,2022-11-30 18:04:24
100,"[{'imgObject': {}, 'id': 'rigatoni', 'src': '/static/foodstim60/rigatoni.jpg', 'key': 'u', 'origWidth': 411, 'origHeight': 411, 'width': 411, 'height': 411, 'widthPercent': 0.45, 'rescaleHeight': False, 'trialN': 100, 'loaded': True, 'loadedTime': 2631.8000000715256, 'positionName': 'LEFT', 'positionCoords': [326.28, 226.5], 'bid': 0}, {'imgObject': {}, 'id': 'granola w milk', 'src': '/static/foodstim60/granola w milk.jpg', 'key': 'i', 'origWidth': 410, 'origHeight': 410, 'width': 410, 'height': 410, 'widthPercent': 0.45, 'rescaleHeight': False, 'trialN': 100, 'loaded': True, 'loadedTime': 2414.100000023842, 'positionName': 'RIGHT', 'positionCoords': [798.72, 227], 'bid': 4.46}]",201136.30000007153,1669831305165,rigatoni,granola w milk,0.0,4.46,4.46,granola w milk,1223.5,1224,1224.0999999046326,True,i,202882.5,1746.1999999284744,1669831306911,1746,HRV,HRV_0015,2022-11-30 18:04:24
101,"[{'imgObject': {}, 'id': 'sushi w_condiments', 'src': '/static/foodstim60/sushi w_condiments.jpg', 'key': 'u', 'origWidth': 410, 'origHeight': 410, 'width': 410, 'height': 410, 'widthPercent': 0.45, 'rescaleHeight': False, 'trialN': 101, 'loaded': True, 'loadedTime': 2868, 'positionName': 'LEFT', 'positionCoords': [327.28, 227], 'bid': 10}, {'imgObject': {}, 'id': 'roastedpotatoes', 'src': '/static/foodstim60/roastedpotatoes.jpg', 'key': 'i', 'origWidth': 409, 'origHeight': 410, 'width': 409, 'height': 410, 'widthPercent': 0.45, 'rescaleHeight': False, 'trialN': 101, 'loaded': True, 'loadedTime': 2684.2000000476837, 'positionName': 'RIGHT', 'positionCoords': [798.72, 227], 'bid': 8.9}]",202882.70000004768,1669831306911,sushi w_condiments,roastedpotatoes,10.0,8.9,-1.0999999999999996,sushi w_condiments,1401.5,1402,1402.1000000238419,True,u,204789.60000002384,1906.8999999761581,1669831308818,1907,HRV,HRV_0015,2022-11-30 18:04:24
102,"[{'imgObject': {}, 'id': 'apple slices', 'src': '/static/foodstim60/apple slices.jpg', 'key': 'u', 'origWidth': 409, 'origHeight': 410, 'width': 409, 'height': 410, 'widthPercent': 0.45, 'rescaleHeight': False, 'trialN': 102, 'loaded': True, 'loadedTime': 2614.100000023842, 'positionName': 'LEFT', 'positionCoords': [328.28, 227], 'bid': 3.89}, {'imgObject': {}, 'id': 'eggsalad', 'src': '/static/foodstim60/eggsalad.jpg', 'key': 'i', 'origWidth': 410, 'origHeight': 409, 'width': 410, 'height': 409, 'widthPercent': 0.45, 'rescaleHeight': False, 'trialN': 102, 'loaded': True, 'loadedTime': 2857.7000000476837, 'positionName': 'RIGHT', 'positionCoords': [798.72, 227.5], 'bid': 3.75}]",204789.89999997616,1669831308818,apple slices,eggsalad,3.89,3.75,-0.14000000000000012,eggsalad,1677,1678,1677.6000000238419,True,i,206976.60000002384,2186.7000000476837,1669831311005,2187,HRV,HRV_0015,2022-11-30 18:04:24
103,"[{'imgObject': {}, 'id': 'shreddedwheatwithmilk', 'src': '/static/foodstim60/shreddedwheatwithmilk.jpg', 'key': 'u', 'origWidth': 410, 'origHeight': 410, 'width': 410, 'height': 410, 'widthPercent': 0.45, 'rescaleHeight': False, 'trialN': 103, 'loaded': True, 'loadedTime': 2886, 'positionName': 'LEFT', 'positionCoords': [327.28, 227], 'bid': 6.92}, {'imgObject': {}, 'id': 'salad w chicken', 'src': '/static/foodstim60/salad w chicken.jpg', 'key': 'i', 'origWidth': 411, 'origHeight': 411, 'width': 411, 'height': 411, 'widthPercent': 0.45, 'rescaleHeight': False, 'trialN': 103, 'loaded': True, 'loadedTime': 2774.8000000715256, 'positionName': 'RIGHT', 'positionCoords': [798.72, 226.5], 'bid': 10}]",206976.89999997616,1669831311005,shreddedwheatwithmilk,salad w chicken,6.92,10.0,3.08,salad w chicken,779.3000000715256,780,779.8000000715256,True,i,208263.89999997616,1287.0,1669831312292,1287,HRV,HRV_0015,2022-11-30 18:04:24
104,"[{'imgObject': {}, 'id': 'salad w chicken', 'src': '/static/foodstim60/salad w chicken.jpg', 'key': 'u', 'origWidth': 411, 'origHeight': 411, 'width': 411, 'height': 411, 'widthPercent': 0.45, 'rescaleHeight': False, 'trialN': 104, 'loaded': True, 'loadedTime': 2776.8000000715256, 'positionName': 'LEFT', 'positionCoords': [326.28, 226.5], 'bid': 10}, {'imgObject': {}, 'id': 'chickenfingers', 'src': '/static/foodstim60/chickenfingers.jpg', 'key': 'i', 'origWidth': 410, 'origHeight': 410, 'width': 410, 'height': 410, 'widthPercent': 0.45, 'rescaleHeight': False, 'trialN': 104, 'loaded': True, 'loadedTime': 2855.7000000476837, 'positionName': 'RIGHT', 'positionCoords': [798.72, 227], 'bid': 10}]",208264.20000004768,1669831312293,salad w chicken,chickenfingers,10.0,10.0,0.0,salad w chicken,988.5,989,988.8999999761581,True,u,209756.0,1491.7999999523163,1669831313784,1491,HRV,HRV_0015,2022-11-30 18:04:24
105,"[{'imgObject': {}, 'id': 'blackbeanswithrice', 'src': '/static/foodstim60/blackbeanswithrice.jpg', 'key': 'u', 'origWidth': 410, 'origHeight': 410, 'width': 410, 'height': 410, 'widthPercent': 0.45, 'rescaleHeight': False, 'trialN': 105, 'loaded': True, 'loadedTime': 2820.2000000476837, 'positionName': 'LEFT', 'positionCoords': [327.28, 227], 'bid': 0.03}, {'imgObject': {}, 'id': 'mashed potato', 'src': '/static/foodstim60/mashed potato.jpg', 'key': 'i', 'origWidth': 409, 'origHeight': 409, 'width': 409, 'height': 409, 'widthPercent': 0.45, 'rescaleHeight': False, 'trialN': 105, 'loaded': True, 'loadedTime': 2535.399999976158, 'positionName': 'RIGHT', 'positionCoords': [798.72, 227.5], 'bid': 0.05}]",209756.30000007153,1669831313785,blackbeanswithrice,mashed potato,0.03,0.05,0.020000000000000004,mashed potato,1482.5,1483,1483.0999999046326,True,i,211748.20000004768,1991.8999999761581,1669831315777,1992,HRV,HRV_0015,2022-11-30 18:04:24
106,"[{'imgObject': {}, 'id': 'burger', 'src': '/static/foodstim60/burger.jpg', 'key': 'u', 'origWidth': 409, 'origHeight': 409, 'width': 409, 'height': 409, 'widthPercent': 0.45, 'rescaleHeight': False, 'trialN': 106, 'loaded': True, 'loadedTime': 2864.3000000715256, 'positionName': 'LEFT', 'positionCoords': [328.28, 227.5], 'bid': 2.16}, {'imgObject': {}, 'id': 'mango', 'src': '/static/foodstim60/mango.jpg', 'key': 'i', 'origWidth': 411, 'origHeight': 411, 'width': 411, 'height': 411, 'widthPercent': 0.45, 'rescaleHeight': False, 'trialN': 106, 'loaded': True, 'loadedTime': 2300.399999976158, 'positionName': 'RIGHT', 'positionCoords': [798.72, 226.5], 'bid': 2.66}]",211748.80000007153,1669831315777,burger,mango,2.16,2.66,0.5,mango,2156.2999999523163,2157,2156.6999999284744,True,i,214421.30000007153,2672.5,1669831318450,2673,HRV,HRV_0015,2022-11-30 18:04:24
107,"[{'imgObject': {}, 'id': 'blackbeanswithrice', 'src': '/static/foodstim60/blackbeanswithrice.jpg', 'key': 'u', 'origWidth': 410, 'origHeight': 410, 'width': 410, 'height': 410, 'widthPercent': 0.45, 'rescaleHeight': False, 'trialN': 107, 'loaded': True, 'loadedTime': 2820.3000000715256, 'positionName': 'LEFT', 'positionCoords': [327.28, 227], 'bid': 0.03}, {'imgObject': {}, 'id': 'tacos', 'src': '/static/foodstim60/tacos.jpg', 'key': 'i', 'origWidth': 411, 'origHeight': 411, 'width': 411, 'height': 411, 'widthPercent': 0.45, 'rescaleHeight': False, 'trialN': 107, 'loaded': True, 'loadedTime': 2723.2000000476837, 'positionName': 'RIGHT', 'positionCoords': [798.72, 226.5], 'bid': 0}]",214421.70000004768,1669831318450,blackbeanswithrice,tacos,0.03,0.0,-0.03,tacos,894.5,895,895.0,True,i,215822.89999997616,1401.1999999284744,1669831319851,1401,HRV,HRV_0015,2022-11-30 18:04:24
108,"[{'imgObject': {}, 'id': 'fried eggs', 'src': '/static/foodstim60/fried eggs.jpg', 'key': 'u', 'origWidth': 410, 'origHeight': 410, 'width': 410, 'height': 410, 'widthPercent': 0.45, 'rescaleHeight': False, 'trialN': 108, 'loaded': True, 'loadedTime': 2253.2000000476837, 'positionName': 'LEFT', 'positionCoords': [327.28, 227], 'bid': 8.69}, {'imgObject': {}, 'id': 'bagel and cc', 'src': '/static/foodstim60/bagel and cc.jpg', 'key': 'i', 'origWidth': 410, 'origHeight': 410, 'width': 410, 'height': 410, 'widthPercent': 0.45, 'rescaleHeight': False, 'trialN': 108, 'loaded': True, 'loadedTime': 2382, 'positionName': 'RIGHT', 'positionCoords': [798.72, 227], 'bid': 8.370000000000001}]",215823.0,1669831319851,fried eggs,bagel and cc,8.69,8.370000000000001,-0.3199999999999985,bagel and cc,1156.8000000715256,1158,1157.5,True,i,217489.30000007153,1666.3000000715256,1669831321518,1667,HRV,HRV_0015,2022-11-30 18:04:24
109,"[{'imgObject': {}, 'id': 'eggsalad', 'src': '/static/foodstim60/eggsalad.jpg', 'key': 'u', 'origWidth': 410, 'origHeight': 409, 'width': 410, 'height': 409, 'widthPercent': 0.45, 'rescaleHeight': False, 'trialN': 109, 'loaded': True, 'loadedTime': 2857.7000000476837, 'positionName': 'LEFT', 'positionCoords': [327.28, 227.5], 'bid': 3.75}, {'imgObject': {}, 'id': 'yogurt no spoon', 'src': '/static/foodstim60/yogurt no spoon.jpg', 'key': 'i', 'origWidth': 411, 'origHeight': 410, 'width': 411, 'height': 410, 'widthPercent': 0.45, 'rescaleHeight': False, 'trialN': 109, 'loaded': True, 'loadedTime': 2824.7000000476837, 'positionName': 'RIGHT', 'positionCoords': [798.72, 227], 'bid': 4.9}]",217489.80000007153,1669831321518,eggsalad,yogurt no spoon,3.75,4.9,1.1500000000000004,yogurt no spoon,1248.8999999761581,1250,1249.5,True,i,219244.39999997616,1754.5999999046326,1669831323273,1755,HRV,HRV_0015,2022-11-30 18:04:24
