success,trial_type,trial_index,time_elapsed,internal_node_id,Block,TrialNumber,TrialTime,trialTimeDiff,FPS_avg,FPS_med,FPS_mode,TrialDur,winResizeTime,rt,block,button_pressed,MotCoh,MotDir,ColCoh,Color,ChoiceKey,Choice,Accuracy,RT,nFrames,FPS,PPD,missTrial,missTrialMsg,onsetDelay,fullScreenExitTime,canvCenter,TrialType,Score,BlockTrial,stimulus,button_labels,exp,subjectId,date
True,fullscreen,0,1437,0.0-0.0,0.0,1.0,,,,,,,,,,,,,,,,,,,,,,,,,,,,,,,,HRV,HRV_0015,2022-11-30 18:13:25
,wl-check-fps,1,6426,0.0-1.0,0.0,2.0,"[2264.1, 2265.8, 2278.6, 2295, 2312.2, 2328.4, 2345.7, 2362.3, 2379, 2395.1, 2413.3, 2429.6, 2445.1, 2461.8, 2478.5, 2495, 2511.8, 2528.6, 2545.3, 2561.9, 2578.4, 2595.1, 2611.9, 2628.6, 2645.5, 2661.7, 2678.8, 2695.3, 2711.8, 2728.5, 2745.3, 2761.8, 2778.8, 2795.5, 2811.8, 2828.7, 2845.6, 2861.9, 2878.5, 2895.5, 2911.9, 2928.7, 2945.5, 2961.9, 2978.7, 2995.3, 3012.5, 3028.6, 3045.8, 3062, 3078.5, 3095.5, 3112.1, 3128.6, 3145.4, 3162.2, 3178.6, 3195.5, 3212.4, 3228.6, 3245.4, 3262.1, 3278.6, 3295.5, 3312.4, 3328.6, 3345.3, 3362.2, 3378.9, 3395.4, 3412.1, 3428.9, 3445.5, 3462.5, 3479, 3495.4, 3512.5, 3528.7, 3545.5, 3562.5, 3579, 3595.4, 3612.6, 3629.5, 3645.5, 3662.4, 3678.9, 3695.7, 3712.3, 3729.4, 3746, 3762.2, 3779.5, 3795.6, 3812.3, 3830.3, 3847.4, 3862.6, 3879.7, 3896.6, 3912.8, 3930.1, 3946.6, 3962.7, 3979.8, 3996.3, 4012.9, 4029.5, 4046.7, 4062.7, 4080.2, 4096.5, 4113.1, 4129.1, 4145.9, 4162.6, 4179, 4195.7, 4212.5, 4229, 4245.8, 4262.6, 4279.1, 4295.7, 4312.8, 4329.4, 4345.9, 4362.9, 4379.9, 4395.9, 4413.1, 4429.8, 4446.2, 4463, 4479.5, 4496, 4512.9, 4531.1, 4546.4, 4562.7, 4579.4, 4596.1, 4612.8, 4631.5, 4646, 4662.8, 4679.3, 4695.9, 4712.5, 4729.4, 4745.9, 4762.8, 4779.7, 4796.2, 4812.6, 4829.6, 4845.9, 4862.8, 4879.6, 4896, 4912.7, 4929.6, 4946.3, 4962.6, 4979.4, 4996.1, 5012.6, 5029.5, 5046.1, 5062.6, 5079.5, 5096, 5112.7, 5129.4, 5146.6, 5162.8, 5179.5, 5196.5, 5212.8, 5229.5, 5246, 5262.9, 5279.5, 5296.2, 5313.2, 5329.4, 5346.3, 5362.9, 5379.6, 5396.3, 5413.2, 5429.7, 5446.2, 5463.2, 5479.7, 5496.3, 5512.9, 5529.5, 5547.3, 5563.4, 5579.8, 5596.2, 5613.3, 5629.7, 5646.3, 5663, 5679.8, 5696.2, 5713.3, 5730.6, 5746.4, 5763, 5779.7, 5796.2, 5813.1, 5830.1, 5846.6, 5863, 5880, 5896.4, 5913.4, 5929.8, 5946.8, 5963.1, 5980.4, 5996.5, 6013.1, 6030.1, 6046.5, 6063.2, 6080.2, 6097.5, 6113.2, 6129.8, 6147.6, 6163.2, 6180, 6196.5, 6213.3, 6229.8, 6246.7, 6263.2, 6279.8, 6296.7, 6313.3, 6329.9, 6346.8, 6364, 6379.9, 6396.6, 6413.7, 6431, 6446.9, 6463.4, 6479.9, 6496.6, 6513.8, 6530, 6546.5, 6563.9, 6579.9, 6596.7, 6613.5, 6630, 6646.7, 6663.8, 6680.4, 6696.6, 6713.3, 6730.1, 6746.7, 6763.4, 6780.4, 6796.6, 6813.3, 6830.2, 6846.8, 6863.4, 6880.1, 6896.7, 6913.4, 6930.3, 6946.7, 6963.4, 6980.3, 6996.7, 7013.5, 7030.4, 7047, 7063.4, 7080.1, 7097.1, 7113.5, 7130.3, 7146.8, 7163.5, 7180.5, 7197, 7213.5, 7230.2]","[2.9, 1.7, 12.8, 16.4, 17.2, 16.2, 17.3, 16.6, 16.7, 16.1, 18.2, 16.3, 15.5, 16.7, 16.7, 16.5, 16.8, 16.8, 16.7, 16.6, 16.5, 16.7, 16.8, 16.7, 16.9, 16.2, 17.1, 16.5, 16.5, 16.7, 16.8, 16.5, 17, 16.7, 16.3, 16.9, 16.9, 16.3, 16.6, 17, 16.4, 16.8, 16.8, 16.4, 16.8, 16.6, 17.2, 16.1, 17.2, 16.2, 16.5, 17, 16.6, 16.5, 16.8, 16.8, 16.4, 16.9, 16.9, 16.2, 16.8, 16.7, 16.5, 16.9, 16.9, 16.2, 16.7, 16.9, 16.7, 16.5, 16.7, 16.8, 16.6, 17, 16.5, 16.4, 17.1, 16.2, 16.8, 17, 16.5, 16.4, 17.2, 16.9, 16, 16.9, 16.5, 16.8, 16.6, 17.1, 16.6, 16.2, 17.3, 16.1, 16.7, 18, 17.1, 15.2, 17.1, 16.9, 16.2, 17.3, 16.5, 16.1, 17.1, 16.5, 16.6, 16.6, 17.2, 16, 17.5, 16.3, 16.6, 16, 16.8, 16.7, 16.4, 16.7, 16.8, 16.5, 16.8, 16.8, 16.5, 16.6, 17.1, 16.6, 16.5, 17, 17, 16, 17.2, 16.7, 16.4, 16.8, 16.5, 16.5, 16.9, 18.2, 15.3, 16.3, 16.7, 16.7, 16.7, 18.7, 14.5, 16.8, 16.5, 16.6, 16.6, 16.9, 16.5, 16.9, 16.9, 16.5, 16.4, 17, 16.3, 16.9, 16.8, 16.4, 16.7, 16.9, 16.7, 16.3, 16.8, 16.7, 16.5, 16.9, 16.6, 16.5, 16.9, 16.5, 16.7, 16.7, 17.2, 16.2, 16.7, 17, 16.3, 16.7, 16.5, 16.9, 16.6, 16.7, 17, 16.2, 16.9, 16.6, 16.7, 16.7, 16.9, 16.5, 16.5, 17, 16.5, 16.6, 16.6, 16.6, 17.8, 16.1, 16.4, 16.4, 17.1, 16.4, 16.6, 16.7, 16.8, 16.4, 17.1, 17.3, 15.8, 16.6, 16.7, 16.5, 16.9, 17, 16.5, 16.4, 17, 16.4, 17, 16.4, 17, 16.3, 17.3, 16.1, 16.6, 17, 16.4, 16.7, 17, 17.3, 15.7, 16.6, 17.8, 15.6, 16.8, 16.5, 16.8, 16.5, 16.9, 16.5, 16.6, 16.9, 16.6, 16.6, 16.9, 17.2, 15.9, 16.7, 17.1, 17.3, 15.9, 16.5, 16.5, 16.7, 17.2, 16.2, 16.5, 17.4, 16, 16.8, 16.8, 16.5, 16.7, 17.1, 16.6, 16.2, 16.7, 16.8, 16.6, 16.7, 17, 16.2, 16.7, 16.9, 16.6, 16.6, 16.7, 16.6, 16.7, 16.9, 16.4, 16.7, 16.9, 16.4, 16.8, 16.9, 16.6, 16.4, 16.7, 17, 16.4, 16.8, 16.5, 16.7, 17, 16.5, 16.5, 16.7]",60.0,60.0,60.0,4985.6,[],,,,,,,,,,,,,,,,,,,,,,,,,HRV,HRV_0015,2022-11-30 18:13:25
,wl-html-keyboard-response,2,21095,0.0-2.0-0.0,0.0,3.0,,,,,,,,12660.900000095367,0.0,0,,,,,,,,,,,,,,,,,,,,,,HRV,HRV_0015,2022-11-30 18:13:25
,wl-rdm,3,27800,0.0-3.0-0.0,0.0,4.0,,,,,,,[],,,,0.0,0.0,87.9,0.0,u,0.0,True,1119.7000000476837,68.0,60.0,40.0,False,,3000.0,[],"[768, 432]",ColorTask_Demo,,,,,HRV,HRV_0015,2022-11-30 18:13:25
,wl-rdm,4,32651,0.0-3.0-1.0,0.0,5.0,,,,,,,[],,,,0.0,0.0,87.9,1.0,i,1.0,True,796.7000000476837,48.0,60.0,40.0,False,,2000.0,[],"[768, 432]",ColorTask_Demo,,,,,HRV,HRV_0015,2022-11-30 18:13:25
,wl-html-keyboard-response,5,39676,0.0-3.0-2.0,0.0,6.0,,,,,,,,5018.0,0.0,1,,,,,,,,,,,,,,,,,,,,,,HRV,HRV_0015,2022-11-30 18:13:25
,wl-html-keyboard-response,6,57836,0.0-4.0-0.0,0.0,7.0,,,,,,,,16151.100000023842,0.0,0,,,,,,,,,,,,,,,,,,,,,,HRV,HRV_0015,2022-11-30 18:13:25
,wl-html-keyboard-response,7,66939,0.0-5.0-0.0,0.0,8.0,,,,,,,,7097.799999952316,0.0,0,,,,,,,,,,,,,,,,,,,,,,HRV,HRV_0015,2022-11-30 18:13:25
,wl-rdm,8,69364,0.0-6.0-0.0,0.0,9.0,,,,,,,[],,,,,,62.5,0.0,u,0.0,True,1028.0,62.0,60.0,40.0,False,,348.6911574589301,[],"[768, 432]",ColorTask,1.0,1.0,,,HRV,HRV_0015,2022-11-30 18:13:25
,wl-rdm,9,72015,0.0-6.1-0.1,0.0,10.0,,,,,,,[],,,,,,56.4,0.0,i,1.0,False,1227.8999998569489,74.0,60.0,40.0,False,,334.75881580783044,[],"[768, 432]",ColorTask,0.0,2.0,,,HRV,HRV_0015,2022-11-30 18:13:25
,wl-rdm,10,74583,0.0-6.2-0.2,0.0,11.0,,,,,,,[],,,,,,50.0,0.0,i,1.0,False,1105.6000000238419,67.0,60.0,40.0,False,,376.5931096764656,[],"[768, 432]",ColorTask,-1.0,3.0,,,HRV,HRV_0015,2022-11-30 18:13:25
,wl-rdm,11,76484,0.0-6.3-0.3,0.0,12.0,,,,,,,[],,,,,,87.9,0.0,u,0.0,True,592.3000000715256,36.0,60.0,40.0,False,,245.60907338745784,[],"[768, 432]",ColorTask,0.0,4.0,,,HRV,HRV_0015,2022-11-30 18:13:25
,wl-rdm,12,78634,0.0-6.4-0.4,0.0,13.0,,,,,,,[],,,,,,73.6,0.0,u,0.0,True,871.8000000715256,53.0,60.0,40.0,False,,208.88541425055126,[],"[768, 432]",ColorTask,1.0,5.0,,,HRV,HRV_0015,2022-11-30 18:13:25
,wl-rdm,13,80718,0.0-6.5-0.5,0.0,14.0,,,,,,,[],,,,,,56.4,1.0,i,1.0,True,679.2000000476837,41.0,60.0,40.0,False,,335.2368549552903,[],"[768, 432]",ColorTask,2.0,6.0,,,HRV,HRV_0015,2022-11-30 18:13:25
,wl-rdm,14,82969,0.0-6.6-0.6,0.0,15.0,,,,,,,[],,,,,,53.2,0.0,i,1.0,False,803.8000000715256,49.0,60.0,40.0,False,,367.32917934271586,[],"[768, 432]",ColorTask,1.0,7.0,,,HRV,HRV_0015,2022-11-30 18:13:25
,wl-rdm,15,85154,0.0-6.7-0.7,0.0,16.0,,,,,,,[],,,,,,50.0,0.0,i,1.0,False,818.5,50.0,60.0,40.0,False,,270.00895003859773,[],"[768, 432]",ColorTask,0.0,8.0,,,HRV,HRV_0015,2022-11-30 18:13:25
,wl-rdm,16,87104,0.0-6.8-0.8,0.0,17.0,,,,,,,[],,,,,,53.2,1.0,i,1.0,True,661.5,40.0,60.0,40.0,False,,202.69007313789285,[],"[768, 432]",ColorTask,1.0,9.0,,,HRV,HRV_0015,2022-11-30 18:13:25
,wl-rdm,17,89355,0.0-6.9-0.9,0.0,18.0,,,,,,,[],,,,,,87.9,0.0,u,0.0,True,835.9000000953674,51.0,60.0,40.0,False,,345.72828444737024,[],"[768, 432]",ColorTask,2.0,10.0,,,HRV,HRV_0015,2022-11-30 18:13:25
,wl-rdm,18,91489,0.0-6.10-0.10,0.0,19.0,,,,,,,[],,,,,,73.6,1.0,i,1.0,True,729.1000000238419,44.0,60.0,40.0,False,,329.5102287526412,[],"[768, 432]",ColorTask,3.0,11.0,,,HRV,HRV_0015,2022-11-30 18:13:25
,wl-rdm,19,93540,0.0-6.11-0.11,0.0,20.0,,,,,,,[],,,,,,73.6,1.0,i,1.0,True,711.7999999523163,43.0,60.0,40.0,False,,279.531139881443,[],"[768, 432]",ColorTask,4.0,12.0,,,HRV,HRV_0015,2022-11-30 18:13:25
,wl-rdm,20,95524,0.0-6.12-0.12,0.0,21.0,,,,,,,[],,,,,,87.9,0.0,u,0.0,True,687.7000000476837,42.0,60.0,40.0,False,,232.7021389974793,[],"[768, 432]",ColorTask,5.0,13.0,,,HRV,HRV_0015,2022-11-30 18:13:25
,wl-rdm,21,97424,0.0-6.13-0.13,0.0,22.0,,,,,,,[],,,,,,87.9,0.0,u,0.0,True,599.7999999523163,36.0,60.0,40.0,False,,246.32851054899672,[],"[768, 432]",ColorTask,6.0,14.0,,,HRV,HRV_0015,2022-11-30 18:13:25
,wl-rdm,22,99875,0.0-6.14-0.14,0.0,23.0,,,,,,,[],,,,,,62.5,0.0,u,0.0,True,1129.1000000238419,68.0,60.0,40.0,False,,278.7069097752692,[],"[768, 432]",ColorTask,7.0,15.0,,,HRV,HRV_0015,2022-11-30 18:13:25
,wl-rdm,23,101776,0.0-6.15-0.15,0.0,24.0,,,,,,,[],,,,,,87.9,0.0,u,0.0,True,571.2000000476837,35.0,60.0,40.0,False,,245.08734577195304,[],"[768, 432]",ColorTask,8.0,16.0,,,HRV,HRV_0015,2022-11-30 18:13:25
,wl-rdm,24,103827,0.0-6.16-0.16,0.0,25.0,,,,,,,[],,,,,,73.6,0.0,u,0.0,True,699.6999999284744,42.0,60.0,40.0,False,,299.22222001324803,[],"[768, 432]",ColorTask,9.0,17.0,,,HRV,HRV_0015,2022-11-30 18:13:25
,wl-rdm,25,105744,0.0-6.17-0.17,0.0,26.0,,,,,,,[],,,,,,87.9,1.0,i,1.0,True,526.5,32.0,60.0,40.0,False,,312.7317340548947,[],"[768, 432]",ColorTask,10.0,18.0,,,HRV,HRV_0015,2022-11-30 18:13:25
,wl-rdm,26,107895,0.0-6.18-0.18,0.0,27.0,,,,,,,[],,,,,,56.4,0.0,u,0.0,True,842.4999998807907,51.0,60.0,40.0,False,,249.6839971426068,[],"[768, 432]",ColorTask,11.0,19.0,,,HRV,HRV_0015,2022-11-30 18:13:25
,wl-rdm,27,109980,0.0-6.19-0.19,0.0,28.0,,,,,,,[],,,,,,56.4,1.0,i,1.0,True,720.5,44.0,60.0,40.0,False,,278.1013707727377,[],"[768, 432]",ColorTask,12.0,20.0,,,HRV,HRV_0015,2022-11-30 18:13:25
,wl-rdm,28,112030,0.0-6.20-0.20,0.0,29.0,,,,,,,[],,,,,,73.6,0.0,u,0.0,True,692.8999999761581,42.0,60.0,40.0,False,,294.1013952683165,[],"[768, 432]",ColorTask,13.0,21.0,,,HRV,HRV_0015,2022-11-30 18:13:25
,wl-rdm,29,114131,0.0-6.21-0.21,0.0,30.0,,,,,,,[],,,,,,53.2,1.0,i,1.0,True,689.0,42.0,60.0,40.0,False,,332.9359164840765,[],"[768, 432]",ColorTask,14.0,22.0,,,HRV,HRV_0015,2022-11-30 18:13:25
,wl-rdm,30,116215,0.0-6.22-0.22,0.0,31.0,,,,,,,[],,,,,,50.0,0.0,u,0.0,True,745.6000000238419,45.0,60.0,40.0,False,,271.3847795054778,[],"[768, 432]",ColorTask,15.0,23.0,,,HRV,HRV_0015,2022-11-30 18:13:25
,wl-rdm,31,118266,0.0-6.23-0.23,0.0,32.0,,,,,,,[],,,,,,50.0,0.0,i,1.0,False,712.5999999046326,43.0,60.0,40.0,False,,252.89030555303512,[],"[768, 432]",ColorTask,14.0,24.0,,,HRV,HRV_0015,2022-11-30 18:13:25
,wl-rdm,32,120284,0.0-6.24-0.24,0.0,33.0,,,,,,,[],,,,,,50.0,1.0,u,0.0,False,708.8000000715256,43.0,60.0,40.0,False,,236.14919505589287,[],"[768, 432]",ColorTask,13.0,25.0,,,HRV,HRV_0015,2022-11-30 18:13:25
,wl-rdm,33,122451,0.0-6.25-0.25,0.0,34.0,,,,,,,[],,,,,,50.0,0.0,u,0.0,True,836.2000000476837,51.0,60.0,40.0,False,,251.78000602532458,[],"[768, 432]",ColorTask,14.0,26.0,,,HRV,HRV_0015,2022-11-30 18:13:25
,wl-rdm,34,124652,0.0-6.26-0.26,0.0,35.0,,,,,,,[],,,,,,73.6,0.0,u,0.0,True,826.1999999284744,50.0,60.0,40.0,False,,284.5513423724059,[],"[768, 432]",ColorTask,15.0,27.0,,,HRV,HRV_0015,2022-11-30 18:13:25
,wl-rdm,35,127102,0.0-6.27-0.27,0.0,36.0,,,,,,,[],,,,,,62.5,0.0,u,0.0,True,1002.5999999046326,61.0,60.0,40.0,False,,354.50907074556346,[],"[768, 432]",ColorTask,16.0,28.0,,,HRV,HRV_0015,2022-11-30 18:13:25
,wl-rdm,36,129253,0.0-6.28-0.28,0.0,37.0,,,,,,,[],,,,,,56.4,0.0,u,0.0,True,850.1000000238419,51.0,60.0,40.0,False,,246.5225809241036,[],"[768, 432]",ColorTask,17.0,29.0,,,HRV,HRV_0015,2022-11-30 18:13:25
,wl-rdm,37,131138,0.0-6.29-0.29,0.0,38.0,,,,,,,[],,,,,,87.9,1.0,i,1.0,True,458.90000009536743,28.0,60.0,40.0,False,,355.29308616399317,[],"[768, 432]",ColorTask,18.0,30.0,,,HRV,HRV_0015,2022-11-30 18:13:25
,wl-rdm,38,133122,0.0-6.30-0.30,0.0,39.0,,,,,,,[],,,,,,73.6,1.0,i,1.0,True,690.4000000953674,42.0,60.0,40.0,False,,208.79074570320793,[],"[768, 432]",ColorTask,19.0,31.0,,,HRV,HRV_0015,2022-11-30 18:13:25
,wl-rdm,39,135072,0.0-6.31-0.31,0.0,40.0,,,,,,,[],,,,,,73.6,1.0,i,1.0,True,664.7000000476837,40.0,60.0,40.0,False,,226.02907433243868,[],"[768, 432]",ColorTask,20.0,32.0,,,HRV,HRV_0015,2022-11-30 18:13:25
,wl-rdm,40,137056,0.0-6.32-0.32,0.0,41.0,,,,,,,[],,,,,,87.9,0.0,u,0.0,True,611.5,37.0,60.0,40.0,False,,302.4247555626733,[],"[768, 432]",ColorTask,21.0,33.0,,,HRV,HRV_0015,2022-11-30 18:13:25
,wl-rdm,41,139207,0.0-6.33-0.33,0.0,42.0,,,,,,,[],,,,,,53.2,0.0,i,1.0,False,739.0000001192093,45.0,60.0,40.0,False,,344.556639590848,[],"[768, 432]",ColorTask,20.0,34.0,,,HRV,HRV_0015,2022-11-30 18:13:25
,wl-rdm,42,141441,0.0-6.34-0.34,0.0,43.0,,,,,,,[],,,,,,73.6,1.0,i,1.0,True,892.1000000238419,54.0,60.0,40.0,False,,259.3792103965975,[],"[768, 432]",ColorTask,21.0,35.0,,,HRV,HRV_0015,2022-11-30 18:13:25
,wl-rdm,43,143709,0.0-6.35-0.35,0.0,44.0,,,,,,,[],,,,,,53.2,0.0,u,0.0,True,836.2999999523163,51.0,60.0,40.0,False,,356.03673136529585,[],"[768, 432]",ColorTask,22.0,36.0,,,HRV,HRV_0015,2022-11-30 18:13:25
,wl-rdm,44,145793,0.0-6.36-0.36,0.0,45.0,,,,,,,[],,,,,,56.4,0.0,u,0.0,True,743.3000000715256,45.0,60.0,40.0,False,,265.81395447393686,[],"[768, 432]",ColorTask,23.0,37.0,,,HRV,HRV_0015,2022-11-30 18:13:25
,wl-rdm,45,147777,0.0-6.37-0.37,0.0,46.0,,,,,,,[],,,,,,62.5,1.0,u,0.0,False,561.2000000476837,34.0,60.0,40.0,False,,346.3919115841652,[],"[768, 432]",ColorTask,22.0,38.0,,,HRV,HRV_0015,2022-11-30 18:13:25
,wl-rdm,46,150044,0.0-6.38-0.38,0.0,47.0,,,,,,,[],,,,,,53.2,0.0,u,0.0,True,924.5999999046326,56.0,60.0,40.0,False,,282.1084194016411,[],"[768, 432]",ColorTask,23.0,39.0,,,HRV,HRV_0015,2022-11-30 18:13:25
,wl-rdm,47,152145,0.0-6.39-0.39,0.0,48.0,,,,,,,[],,,,,,62.5,1.0,i,1.0,True,806.2999999523163,49.0,60.0,40.0,False,,221.75411896579476,[],"[768, 432]",ColorTask,24.0,40.0,,,HRV,HRV_0015,2022-11-30 18:13:25
,wl-rdm,48,154446,0.0-6.40-0.40,0.0,49.0,,,,,,,[],,,,,,50.0,1.0,i,1.0,True,947.7999999523163,57.0,60.0,40.0,False,,299.54205387476657,[],"[768, 432]",ColorTask,25.0,41.0,,,HRV,HRV_0015,2022-11-30 18:13:25
,wl-rdm,49,156463,0.0-6.41-0.41,0.0,50.0,,,,,,,[],,,,,,87.9,0.0,u,0.0,True,566.2000000476837,34.0,60.0,40.0,False,,387.57831217161265,[],"[768, 432]",ColorTask,26.0,42.0,,,HRV,HRV_0015,2022-11-30 18:13:25
,wl-rdm,50,158514,0.0-6.42-0.42,0.0,51.0,,,,,,,[],,,,,,56.4,0.0,u,0.0,True,775.1999999284744,47.0,60.0,40.0,False,,211.49255340488133,[],"[768, 432]",ColorTask,27.0,43.0,,,HRV,HRV_0015,2022-11-30 18:13:25
,wl-rdm,51,160348,0.0-6.43-0.43,0.0,52.0,,,,,,,[],,,,,,87.9,1.0,i,1.0,True,432.39999997615814,26.0,60.0,40.0,False,,340.42776179911897,[],"[768, 432]",ColorTask,28.0,44.0,,,HRV,HRV_0015,2022-11-30 18:13:25
,wl-rdm,52,162449,0.0-6.44-0.44,0.0,53.0,,,,,,,[],,,,,,73.6,1.0,i,1.0,True,773.5,47.0,60.0,40.0,False,,250.29167269921425,[],"[768, 432]",ColorTask,29.0,45.0,,,HRV,HRV_0015,2022-11-30 18:13:25
,wl-rdm,53,164418,0.0-6.45-0.45,0.0,54.0,,,,,,,[],,,,,,62.5,0.0,u,0.0,True,659.9000000953674,36.0,60.0,40.0,False,,241.80633302159453,[],"[768, 432]",ColorTask,30.0,46.0,,,HRV,HRV_0015,2022-11-30 18:13:25
,wl-rdm,54,166551,0.0-6.46-0.46,0.0,55.0,,,,,,,[],,,,,,50.0,0.0,i,1.0,False,690.1000000238419,42.0,60.0,40.0,False,,375.22637063115985,[],"[768, 432]",ColorTask,29.0,47.0,,,HRV,HRV_0015,2022-11-30 18:13:25
,wl-rdm,55,168535,0.0-6.47-0.47,0.0,56.0,,,,,,,[],,,,,,87.9,1.0,i,1.0,True,685.8999999761581,42.0,60.0,40.0,False,,225.97272429221445,[],"[768, 432]",ColorTask,30.0,48.0,,,HRV,HRV_0015,2022-11-30 18:13:25
,wl-rdm,56,170518,0.0-6.48-0.48,0.0,57.0,,,,,,,[],,,,,,50.0,1.0,u,0.0,False,646.2000000476837,39.0,60.0,40.0,False,,261.9628733279264,[],"[768, 432]",ColorTask,29.0,49.0,,,HRV,HRV_0015,2022-11-30 18:13:25
,wl-rdm,57,172836,0.0-6.49-0.49,0.0,58.0,,,,,,,[],,,,,,53.2,1.0,u,0.0,False,916.3999999761581,55.0,60.0,40.0,False,,333.2327967102832,[],"[768, 432]",ColorTask,28.0,50.0,,,HRV,HRV_0015,2022-11-30 18:13:25
,wl-rdm,58,174720,0.0-6.50-0.50,0.0,59.0,,,,,,,[],,,,,,87.9,1.0,u,0.0,False,551.7000000476837,34.0,60.0,40.0,False,,251.19415436476112,[],"[768, 432]",ColorTask,27.0,51.0,,,HRV,HRV_0015,2022-11-30 18:13:25
,wl-rdm,59,176754,0.0-6.51-0.51,0.0,60.0,,,,,,,[],,,,,,62.5,0.0,u,0.0,True,730.8999998569489,44.0,60.0,40.0,False,,237.95610334359435,[],"[768, 432]",ColorTask,28.0,52.0,,,HRV,HRV_0015,2022-11-30 18:13:25
,wl-rdm,60,179155,0.0-6.52-0.52,0.0,61.0,,,,,,,[],,,,,,53.2,1.0,u,0.0,False,890.5,55.0,60.0,40.0,False,,325.2694722611644,[],"[768, 432]",ColorTask,27.0,53.0,,,HRV,HRV_0015,2022-11-30 18:13:25
,wl-rdm,61,181139,0.0-6.53-0.53,0.0,62.0,,,,,,,[],,,,,,73.6,0.0,u,0.0,True,711.6999999284744,43.0,60.0,40.0,False,,203.57289993035852,[],"[768, 432]",ColorTask,28.0,54.0,,,HRV,HRV_0015,2022-11-30 18:13:25
,wl-rdm,62,183340,0.0-6.54-0.54,0.0,63.0,,,,,,,[],,,,,,50.0,1.0,i,1.0,True,872.1000000238419,53.0,60.0,40.0,False,,254.58089207947432,[],"[768, 432]",ColorTask,29.0,55.0,,,HRV,HRV_0015,2022-11-30 18:13:25
,wl-rdm,63,185308,0.0-6.55-0.55,0.0,64.0,,,,,,,[],,,,,,62.5,1.0,i,1.0,True,677.7000000476837,41.0,60.0,40.0,False,,215.63050127317692,[],"[768, 432]",ColorTask,30.0,56.0,,,HRV,HRV_0015,2022-11-30 18:13:25
,wl-rdm,64,187425,0.0-6.56-0.56,0.0,65.0,,,,,,,[],,,,,,50.0,0.0,i,1.0,False,788.0,48.0,60.0,40.0,False,,257.2995071315008,[],"[768, 432]",ColorTask,29.0,57.0,,,HRV,HRV_0015,2022-11-30 18:13:25
,wl-rdm,65,189659,0.0-6.57-0.57,0.0,66.0,,,,,,,[],,,,,,56.4,0.0,u,0.0,True,916.2999999523163,55.0,60.0,40.0,False,,252.24236201302057,[],"[768, 432]",ColorTask,30.0,58.0,,,HRV,HRV_0015,2022-11-30 18:13:25
,wl-rdm,66,191643,0.0-6.58-0.58,0.0,67.0,,,,,,,[],,,,,,73.6,0.0,u,0.0,True,702.7000000476837,43.0,60.0,40.0,False,,215.6344933587032,[],"[768, 432]",ColorTask,31.0,59.0,,,HRV,HRV_0015,2022-11-30 18:13:25
,wl-rdm,67,193578,0.0-6.59-0.59,0.0,68.0,,,,,,,[],,,,,,73.6,1.0,i,1.0,True,556.7999999523163,34.0,60.0,40.0,False,,294.7792273729273,[],"[768, 432]",ColorTask,32.0,60.0,,,HRV,HRV_0015,2022-11-30 18:13:25
,wl-rdm,68,195628,0.0-6.60-0.60,0.0,69.0,,,,,,,[],,,,,,87.9,0.0,u,0.0,True,630.5,38.0,60.0,40.0,False,,353.20975573029057,[],"[768, 432]",ColorTask,33.0,61.0,,,HRV,HRV_0015,2022-11-30 18:13:25
,wl-rdm,69,197712,0.0-6.61-0.61,0.0,70.0,,,,,,,[],,,,,,50.0,1.0,i,1.0,True,811.3999999761581,49.0,60.0,40.0,False,,207.9394399967404,[],"[768, 432]",ColorTask,34.0,62.0,,,HRV,HRV_0015,2022-11-30 18:13:25
,wl-rdm,70,199829,0.0-6.62-0.62,0.0,71.0,,,,,,,[],,,,,,62.5,0.0,u,0.0,True,801.4000000953674,49.0,60.0,40.0,False,,244.08520329071163,[],"[768, 432]",ColorTask,35.0,63.0,,,HRV,HRV_0015,2022-11-30 18:13:25
,wl-rdm,71,201680,0.0-6.63-0.63,0.0,72.0,,,,,,,[],,,,,,50.0,1.0,i,1.0,True,457.10000002384186,28.0,60.0,40.0,False,,307.1845149320818,[],"[768, 432]",ColorTask,36.0,64.0,,,HRV,HRV_0015,2022-11-30 18:13:25
,wl-rdm,72,203698,0.0-6.64-0.64,0.0,73.0,,,,,,,[],,,,,,73.6,0.0,u,0.0,True,680.2999999523163,41.0,60.0,40.0,False,,275.18970467612337,[],"[768, 432]",ColorTask,37.0,65.0,,,HRV,HRV_0015,2022-11-30 18:13:25
,wl-rdm,73,205865,0.0-6.65-0.65,0.0,74.0,,,,,,,[],,,,,,53.2,0.0,u,0.0,True,808.2999999523163,49.0,60.0,40.0,False,,290.21971610793116,[],"[768, 432]",ColorTask,38.0,66.0,,,HRV,HRV_0015,2022-11-30 18:13:25
,wl-rdm,74,207649,0.0-6.66-0.66,0.0,75.0,,,,,,,[],,,,,,53.2,0.0,i,1.0,False,440.5,27.0,60.0,40.0,False,,255.29308404166514,[],"[768, 432]",ColorTask,37.0,67.0,,,HRV,HRV_0015,2022-11-30 18:13:25
,wl-rdm,75,209683,0.0-6.67-0.67,0.0,76.0,,,,,,,[],,,,,,53.2,1.0,u,0.0,False,593.0999999046326,36.0,60.0,40.0,False,,366.637043584435,[],"[768, 432]",ColorTask,36.0,68.0,,,HRV,HRV_0015,2022-11-30 18:13:25
,wl-rdm,76,211567,0.0-6.68-0.68,0.0,77.0,,,,,,,[],,,,,,73.6,1.0,i,1.0,True,562.1000000238419,34.0,60.0,40.0,False,,254.55560392725369,[],"[768, 432]",ColorTask,37.0,69.0,,,HRV,HRV_0015,2022-11-30 18:13:25
,wl-rdm,77,213568,0.0-6.69-0.69,0.0,78.0,,,,,,,[],,,,,,73.6,0.0,u,0.0,True,707.0,43.0,60.0,40.0,False,,207.73765349114603,[],"[768, 432]",ColorTask,38.0,70.0,,,HRV,HRV_0015,2022-11-30 18:13:25
,wl-rdm,78,215652,0.0-6.70-0.70,0.0,79.0,,,,,,,[],,,,,,56.4,0.0,u,0.0,True,665.2999999523163,40.0,60.0,40.0,False,,361.6674070729325,[],"[768, 432]",ColorTask,39.0,71.0,,,HRV,HRV_0015,2022-11-30 18:13:25
,wl-rdm,79,217519,0.0-6.71-0.71,0.0,80.0,,,,,,,[],,,,,,50.0,0.0,i,1.0,False,488.60000002384186,30.0,60.0,40.0,False,,312.5923698549497,[],"[768, 432]",ColorTask,38.0,72.0,,,HRV,HRV_0015,2022-11-30 18:13:25
,wl-rdm,80,219703,0.0-6.72-0.72,0.0,81.0,,,,,,,[],,,,,,62.5,0.0,u,0.0,True,806.5,49.0,60.0,40.0,False,,290.04863797602343,[],"[768, 432]",ColorTask,39.0,73.0,,,HRV,HRV_0015,2022-11-30 18:13:25
,wl-rdm,81,221955,0.0-6.73-0.73,0.0,82.0,,,,,,,[],,,,,,56.4,1.0,u,0.0,False,903.3999999761581,55.0,60.0,40.0,False,,255.34976099196695,[],"[768, 432]",ColorTask,38.0,74.0,,,HRV,HRV_0015,2022-11-30 18:13:25
,wl-rdm,82,224155,0.0-6.74-0.74,0.0,83.0,,,,,,,[],,,,,,56.4,0.0,u,0.0,True,906.6000000238419,55.0,60.0,40.0,False,,225.79660417702883,[],"[768, 432]",ColorTask,39.0,75.0,,,HRV,HRV_0015,2022-11-30 18:13:25
,wl-rdm,83,226256,0.0-6.75-0.75,0.0,84.0,,,,,,,[],,,,,,62.5,1.0,i,1.0,True,719.1999999284744,44.0,60.0,40.0,False,,310.8764522116237,[],"[768, 432]",ColorTask,40.0,76.0,,,HRV,HRV_0015,2022-11-30 18:13:25
,wl-rdm,84,228456,0.0-6.76-0.76,0.0,85.0,,,,,,,[],,,,,,53.2,1.0,u,0.0,False,766.2000000476837,46.0,60.0,40.0,False,,368.11838493855214,[],"[768, 432]",ColorTask,39.0,77.0,,,HRV,HRV_0015,2022-11-30 18:13:25
,wl-rdm,85,230524,0.0-6.77-0.77,0.0,86.0,,,,,,,[],,,,,,62.5,1.0,u,0.0,False,691.2000000476837,42.0,60.0,40.0,False,,301.53666341230075,[],"[768, 432]",ColorTask,38.0,78.0,,,HRV,HRV_0015,2022-11-30 18:13:25
,wl-rdm,86,232825,0.0-6.78-0.78,0.0,87.0,,,,,,,[],,,,,,56.4,1.0,i,1.0,True,970.6000000238419,59.0,60.0,40.0,False,,242.63634481373532,[],"[768, 432]",ColorTask,39.0,79.0,,,HRV,HRV_0015,2022-11-30 18:13:25
,wl-rdm,87,235376,0.0-6.79-0.79,0.0,88.0,,,,,,,[],,,,,,50.0,1.0,u,0.0,False,1146.3000000715256,69.0,60.0,40.0,False,,348.5840653339291,[],"[768, 432]",ColorTask,38.0,80.0,,,HRV,HRV_0015,2022-11-30 18:13:25
,wl-rdm,88,237710,0.0-6.80-0.80,0.0,89.0,,,,,,,[],,,,,,53.2,0.0,u,0.0,True,1033.5999999046326,62.0,60.0,40.0,False,,216.78313175408357,[],"[768, 432]",ColorTask,39.0,81.0,,,HRV,HRV_0015,2022-11-30 18:13:25
,wl-rdm,89,239711,0.0-6.81-0.81,0.0,90.0,,,,,,,[],,,,,,87.9,1.0,i,1.0,True,713.5,43.0,60.0,40.0,False,,223.8131593762866,[],"[768, 432]",ColorTask,40.0,82.0,,,HRV,HRV_0015,2022-11-30 18:13:25
,wl-rdm,90,241761,0.0-6.82-0.82,0.0,91.0,,,,,,,[],,,,,,87.9,1.0,i,1.0,True,651.7000000476837,40.0,60.0,40.0,False,,327.5567315572822,[],"[768, 432]",ColorTask,41.0,83.0,,,HRV,HRV_0015,2022-11-30 18:13:25
,wl-rdm,91,244179,0.0-6.83-0.83,0.0,92.0,,,,,,,[],,,,,,56.4,1.0,i,1.0,True,1065.6000000238419,64.0,60.0,40.0,False,,286.899243101916,[],"[768, 432]",ColorTask,42.0,84.0,,,HRV,HRV_0015,2022-11-30 18:13:25
,wl-rdm,92,246747,0.0-6.84-0.84,0.0,93.0,,,,,,,[],,,,,,53.2,0.0,u,0.0,True,1249.6000000238419,75.0,60.0,40.0,False,,261.6891961534033,[],"[768, 432]",ColorTask,43.0,85.0,,,HRV,HRV_0015,2022-11-30 18:13:25
,wl-rdm,93,249231,0.0-6.85-0.85,0.0,94.0,,,,,,,[],,,,,,50.0,0.0,i,1.0,False,1005.0,61.0,60.0,40.0,False,,397.53568604695784,[],"[768, 432]",ColorTask,42.0,86.0,,,HRV,HRV_0015,2022-11-30 18:13:25
,wl-rdm,94,251281,0.0-6.86-0.86,0.0,95.0,,,,,,,[],,,,,,87.9,1.0,i,1.0,True,708.6000000238419,43.0,60.0,40.0,False,,278.69143446423607,[],"[768, 432]",ColorTask,43.0,87.0,,,HRV,HRV_0015,2022-11-30 18:13:25
,wl-rdm,95,253349,0.0-6.87-0.87,0.0,96.0,,,,,,,[],,,,,,53.2,1.0,i,1.0,True,685.5,42.0,60.0,40.0,False,,312.07774072847917,[],"[768, 432]",ColorTask,44.0,88.0,,,HRV,HRV_0015,2022-11-30 18:13:25
,wl-rdm,96,255533,0.0-6.88-0.88,0.0,97.0,,,,,,,[],,,,,,53.2,1.0,i,1.0,True,731.5,44.0,60.0,40.0,False,,387.8428176870344,[],"[768, 432]",ColorTask,45.0,89.0,,,HRV,HRV_0015,2022-11-30 18:13:25
,wl-rdm,97,257667,0.0-6.89-0.89,0.0,98.0,,,,,,,[],,,,,,62.5,0.0,u,0.0,True,830.0,50.0,60.0,40.0,False,,242.29567415549008,[],"[768, 432]",ColorTask,46.0,90.0,,,HRV,HRV_0015,2022-11-30 18:13:25
,wl-rdm,98,259852,0.0-6.90-0.90,0.0,99.0,,,,,,,[],,,,,,53.2,0.0,u,0.0,True,878.6000000238419,53.0,60.0,40.0,False,,237.29861712747072,[],"[768, 432]",ColorTask,47.0,91.0,,,HRV,HRV_0015,2022-11-30 18:13:25
,wl-rdm,99,262002,0.0-6.91-0.91,0.0,100.0,,,,,,,[],,,,,,62.5,1.0,i,1.0,True,855.5,52.0,60.0,40.0,False,,221.9700751256577,[],"[768, 432]",ColorTask,48.0,92.0,,,HRV,HRV_0015,2022-11-30 18:13:25
,wl-rdm,100,264170,0.0-6.92-0.92,0.0,101.0,,,,,,,[],,,,,,56.4,1.0,i,1.0,True,824.7999999523163,50.0,60.0,40.0,False,,269.48194838984534,[],"[768, 432]",ColorTask,49.0,93.0,,,HRV,HRV_0015,2022-11-30 18:13:25
,wl-rdm,101,266354,0.0-6.93-0.93,0.0,102.0,,,,,,,[],,,,,,62.5,1.0,i,1.0,True,827.2000000476837,50.0,60.0,40.0,False,,286.34349657190995,[],"[768, 432]",ColorTask,50.0,94.0,,,HRV,HRV_0015,2022-11-30 18:13:25
,wl-rdm,102,268571,0.0-6.94-0.94,0.0,103.0,,,,,,,[],,,,,,62.5,1.0,i,1.0,True,948.4999998807907,57.0,60.0,40.0,False,,200.63179861209892,[],"[768, 432]",ColorTask,51.0,95.0,,,HRV,HRV_0015,2022-11-30 18:13:25
,wl-rdm,103,270756,0.0-6.95-0.95,0.0,104.0,,,,,,,[],,,,,,62.5,0.0,u,0.0,True,793.1000000238419,48.0,60.0,40.0,False,,303.7720475657871,[],"[768, 432]",ColorTask,52.0,96.0,,,HRV,HRV_0015,2022-11-30 18:13:25
,wl-rdm,104,273006,0.0-6.96-0.96,0.0,105.0,,,,,,,[],,,,,,56.4,0.0,i,1.0,False,954.6999999284744,58.0,60.0,40.0,False,,219.95257357851733,[],"[768, 432]",ColorTask,51.0,97.0,,,HRV,HRV_0015,2022-11-30 18:13:25
,wl-rdm,105,275407,0.0-6.97-0.97,0.0,106.0,,,,,,,[],,,,,,50.0,1.0,u,0.0,False,1068.6000000238419,65.0,60.0,40.0,False,,241.1429170871212,[],"[768, 432]",ColorTask,50.0,98.0,,,HRV,HRV_0015,2022-11-30 18:13:25
,wl-rdm,106,277608,0.0-6.98-0.98,0.0,107.0,,,,,,,[],,,,,,53.2,1.0,i,1.0,True,742.2000000476837,45.0,60.0,40.0,False,,390.46091809958637,[],"[768, 432]",ColorTask,51.0,99.0,,,HRV,HRV_0015,2022-11-30 18:13:25
,wl-rdm,107,279775,0.0-6.99-0.99,0.0,108.0,,,,,,,[],,,,,,62.5,1.0,i,1.0,True,852.4000000953674,52.0,60.0,40.0,False,,248.78321850096745,[],"[768, 432]",ColorTask,52.0,100.0,,,HRV,HRV_0015,2022-11-30 18:13:25
,wl-rdm,108,281993,0.0-6.100-0.100,0.0,109.0,,,,,,,[],,,,,,73.6,0.0,u,0.0,True,804.2999999523163,49.0,60.0,40.0,False,,319.32491834579923,[],"[768, 432]",ColorTask,53.0,101.0,,,HRV,HRV_0015,2022-11-30 18:13:25
,wl-rdm,109,284144,0.0-6.101-0.101,0.0,110.0,,,,,,,[],,,,,,73.6,1.0,i,1.0,True,715.6000000238419,43.0,60.0,40.0,False,,370.4889460564193,[],"[768, 432]",ColorTask,54.0,102.0,,,HRV,HRV_0015,2022-11-30 18:13:25
,wl-rdm,110,286312,0.0-6.102-0.102,0.0,111.0,,,,,,,[],,,,,,50.0,1.0,u,0.0,False,853.2999999523163,52.0,60.0,40.0,False,,222.98929473800294,[],"[768, 432]",ColorTask,53.0,103.0,,,HRV,HRV_0015,2022-11-30 18:13:25
,wl-rdm,111,288429,0.0-6.103-0.103,0.0,112.0,,,,,,,[],,,,,,87.9,0.0,u,0.0,True,758.9999998807907,46.0,60.0,40.0,False,,286.78196767129936,[],"[768, 432]",ColorTask,54.0,104.0,,,HRV,HRV_0015,2022-11-30 18:13:25
,wl-rdm,112,290413,0.0-6.104-0.104,0.0,113.0,,,,,,,[],,,,,,56.4,1.0,i,1.0,True,542.7000000476837,33.0,60.0,40.0,False,,373.4963661450495,[],"[768, 432]",ColorTask,55.0,105.0,,,HRV,HRV_0015,2022-11-30 18:13:25
,wl-rdm,113,292481,0.0-6.105-0.105,0.0,114.0,,,,,,,[],,,,,,56.4,1.0,i,1.0,True,789.2000000476837,48.0,60.0,40.0,False,,213.55119066702696,[],"[768, 432]",ColorTask,56.0,106.0,,,HRV,HRV_0015,2022-11-30 18:13:25
,wl-rdm,114,294532,0.0-6.106-0.106,0.0,115.0,,,,,,,[],,,,,,87.9,1.0,i,1.0,True,713.6000000238419,43.0,60.0,40.0,False,,251.39155061452945,[],"[768, 432]",ColorTask,57.0,107.0,,,HRV,HRV_0015,2022-11-30 18:13:25
,wl-rdm,115,296632,0.0-6.107-0.107,0.0,116.0,,,,,,,[],,,,,,56.4,1.0,i,1.0,True,674.8999999761581,41.0,60.0,40.0,False,,345.6487637416807,[],"[768, 432]",ColorTask,58.0,108.0,,,HRV,HRV_0015,2022-11-30 18:13:25
,wl-html-keyboard-response,116,305157,0.0-7.0-0.0,1.0,117.0,,,,,,,,6513.5,1.0,0,,,,,,,,,,,,,,,,,,,,,,HRV,HRV_0015,2022-11-30 18:13:25
,wl-rdm,117,307920,0.0-8.0-0.0,1.0,118.0,,,,,,,[],,,,,,56.4,0.0,i,1.0,False,1377.9000000953674,83.0,60.0,40.0,False,,319.6753833681566,[],"[768, 432]",ColorTask,57.0,1.0,,,HRV,HRV_0015,2022-11-30 18:13:25
,wl-rdm,118,309937,0.0-8.1-0.1,1.0,119.0,,,,,,,[],,,,,,73.6,1.0,i,1.0,True,708.5,43.0,60.0,40.0,False,,246.63417353841373,[],"[768, 432]",ColorTask,58.0,2.0,,,HRV,HRV_0015,2022-11-30 18:13:25
,wl-rdm,119,312455,0.0-8.2-0.2,1.0,120.0,,,,,,,[],,,,,,53.2,1.0,u,0.0,False,1111.5999999046326,67.0,60.0,40.0,False,,342.48036368470974,[],"[768, 432]",ColorTask,57.0,3.0,,,HRV,HRV_0015,2022-11-30 18:13:25
,wl-rdm,120,314906,0.0-8.3-0.3,1.0,121.0,,,,,,,[],,,,,,53.2,1.0,i,1.0,True,1122.6000000238419,68.0,60.0,40.0,False,,251.23246256012777,[],"[768, 432]",ColorTask,58.0,4.0,,,HRV,HRV_0015,2022-11-30 18:13:25
,wl-rdm,121,316940,0.0-8.4-0.4,1.0,122.0,,,,,,,[],,,,,,87.9,1.0,i,1.0,True,730.0,44.0,60.0,40.0,False,,233.42465372914688,[],"[768, 432]",ColorTask,59.0,5.0,,,HRV,HRV_0015,2022-11-30 18:13:25
,wl-rdm,122,319191,0.0-8.5-0.5,1.0,123.0,,,,,,,[],,,,,,62.5,0.0,u,0.0,True,844.7000000476837,51.0,60.0,40.0,False,,317.8270375477564,[],"[768, 432]",ColorTask,60.0,6.0,,,HRV,HRV_0015,2022-11-30 18:13:25
,wl-rdm,123,321391,0.0-8.6-0.6,1.0,124.0,,,,,,,[],,,,,,50.0,1.0,u,0.0,False,922.2999999523163,56.0,60.0,40.0,False,,210.98817537439567,[],"[768, 432]",ColorTask,59.0,7.0,,,HRV,HRV_0015,2022-11-30 18:13:25
,wl-rdm,124,324076,0.0-8.7-0.7,1.0,125.0,,,,,,,[],,,,,,50.0,1.0,i,1.0,True,1280.2000000476837,77.0,60.0,40.0,False,,346.852530600547,[],"[768, 432]",ColorTask,60.0,8.0,,,HRV,HRV_0015,2022-11-30 18:13:25
,wl-rdm,125,326560,0.0-8.8-0.8,1.0,126.0,,,,,,,[],,,,,,50.0,1.0,i,1.0,True,1075.6000000238419,65.0,60.0,40.0,False,,329.94006348841066,[],"[768, 432]",ColorTask,61.0,9.0,,,HRV,HRV_0015,2022-11-30 18:13:25
,wl-rdm,126,328911,0.0-8.9-0.9,1.0,127.0,,,,,,,[],,,,,,53.2,1.0,i,1.0,True,1044.0999999046326,63.0,60.0,40.0,False,,233.53662809787608,[],"[768, 432]",ColorTask,62.0,10.0,,,HRV,HRV_0015,2022-11-30 18:13:25
,wl-rdm,127,331362,0.0-8.10-0.10,1.0,128.0,,,,,,,[],,,,,,56.4,1.0,i,1.0,True,1025.2999999523163,62.0,60.0,40.0,False,,335.4623194251259,[],"[768, 432]",ColorTask,63.0,11.0,,,HRV,HRV_0015,2022-11-30 18:13:25
,wl-rdm,128,333779,0.0-8.11-0.11,1.0,129.0,,,,,,,[],,,,,,56.4,0.0,u,0.0,True,1111.1000000238419,67.0,60.0,40.0,False,,247.34212383037854,[],"[768, 432]",ColorTask,64.0,12.0,,,HRV,HRV_0015,2022-11-30 18:13:25
,wl-rdm,129,335797,0.0-8.12-0.12,1.0,130.0,,,,,,,[],,,,,,87.9,1.0,i,1.0,True,672.0,41.0,60.0,40.0,False,,282.7586913731327,[],"[768, 432]",ColorTask,65.0,13.0,,,HRV,HRV_0015,2022-11-30 18:13:25
,wl-rdm,130,338064,0.0-8.13-0.13,1.0,131.0,,,,,,,[],,,,,,50.0,0.0,u,0.0,True,961.5999999046326,58.0,60.0,40.0,False,,235.50870781361135,[],"[768, 432]",ColorTask,66.0,14.0,,,HRV,HRV_0015,2022-11-30 18:13:25
,wl-rdm,131,340115,0.0-8.14-0.14,1.0,132.0,,,,,,,[],,,,,,87.9,0.0,u,0.0,True,712.5,43.0,60.0,40.0,False,,281.398208491878,[],"[768, 432]",ColorTask,67.0,15.0,,,HRV,HRV_0015,2022-11-30 18:13:25
,wl-rdm,132,342149,0.0-8.15-0.15,1.0,133.0,,,,,,,[],,,,,,56.4,1.0,i,1.0,True,571.3000000715256,35.0,60.0,40.0,False,,393.70790677790774,[],"[768, 432]",ColorTask,68.0,16.0,,,HRV,HRV_0015,2022-11-30 18:13:25
,wl-rdm,133,344083,0.0-8.16-0.16,1.0,134.0,,,,,,,[],,,,,,50.0,1.0,i,1.0,True,579.5,35.0,60.0,40.0,False,,287.24240385508557,[],"[768, 432]",ColorTask,69.0,17.0,,,HRV,HRV_0015,2022-11-30 18:13:25
,wl-rdm,134,346034,0.0-8.17-0.17,1.0,135.0,,,,,,,[],,,,,,73.6,1.0,i,1.0,True,548.7999999523163,33.0,60.0,40.0,False,,349.1413940584376,[],"[768, 432]",ColorTask,70.0,18.0,,,HRV,HRV_0015,2022-11-30 18:13:25
,wl-rdm,135,347885,0.0-8.18-0.18,1.0,136.0,,,,,,,[],,,,,,73.6,1.0,i,1.0,True,552.2999999523163,34.0,60.0,40.0,False,,204.9563537910136,[],"[768, 432]",ColorTask,71.0,19.0,,,HRV,HRV_0015,2022-11-30 18:13:25
,wl-rdm,136,349868,0.0-8.19-0.19,1.0,137.0,,,,,,,[],,,,,,50.0,0.0,u,0.0,True,639.7000000476837,39.0,60.0,40.0,False,,272.362908255324,[],"[768, 432]",ColorTask,72.0,20.0,,,HRV,HRV_0015,2022-11-30 18:13:25
,wl-rdm,137,352086,0.0-8.20-0.20,1.0,138.0,,,,,,,[],,,,,,62.5,0.0,u,0.0,True,887.7999999523163,54.0,60.0,40.0,False,,258.5024790643893,[],"[768, 432]",ColorTask,73.0,21.0,,,HRV,HRV_0015,2022-11-30 18:13:25
,wl-rdm,138,354387,0.0-8.21-0.21,1.0,139.0,,,,,,,[],,,,,,50.0,0.0,i,1.0,False,925.2000000476837,56.0,60.0,40.0,False,,308.5559370266351,[],"[768, 432]",ColorTask,72.0,22.0,,,HRV,HRV_0015,2022-11-30 18:13:25
,wl-rdm,139,356521,0.0-8.22-0.22,1.0,140.0,,,,,,,[],,,,,,50.0,0.0,u,0.0,True,824.1000000238419,50.0,60.0,40.0,False,,238.06041580483597,[],"[768, 432]",ColorTask,73.0,23.0,,,HRV,HRV_0015,2022-11-30 18:13:25
,wl-rdm,140,358805,0.0-8.23-0.23,1.0,141.0,,,,,,,[],,,,,,56.4,0.0,i,1.0,False,973.4999998807907,59.0,60.0,40.0,False,,245.1041458507605,[],"[768, 432]",ColorTask,72.0,24.0,,,HRV,HRV_0015,2022-11-30 18:13:25
,wl-rdm,141,361256,0.0-8.24-0.24,1.0,142.0,,,,,,,[],,,,,,56.4,1.0,i,1.0,True,1070.0,65.0,60.0,40.0,False,,304.2781298797211,[],"[768, 432]",ColorTask,73.0,25.0,,,HRV,HRV_0015,2022-11-30 18:13:25
,wl-rdm,142,363240,0.0-8.25-0.25,1.0,143.0,,,,,,,[],,,,,,62.5,1.0,i,1.0,True,684.0,41.0,60.0,40.0,False,,232.94700378002,[],"[768, 432]",ColorTask,74.0,26.0,,,HRV,HRV_0015,2022-11-30 18:13:25
,wl-rdm,143,365724,0.0-8.26-0.26,1.0,144.0,,,,,,,[],,,,,,53.2,0.0,u,0.0,True,1152.5,70.0,60.0,40.0,False,,258.8405154595164,[],"[768, 432]",ColorTask,75.0,27.0,,,HRV,HRV_0015,2022-11-30 18:13:25
,wl-rdm,144,368158,0.0-8.27-0.27,1.0,145.0,,,,,,,[],,,,,,62.5,1.0,i,1.0,True,1088.1000000238419,66.0,60.0,40.0,False,,270.6551861342611,[],"[768, 432]",ColorTask,76.0,28.0,,,HRV,HRV_0015,2022-11-30 18:13:25
,wl-rdm,145,370393,0.0-8.28-0.28,1.0,146.0,,,,,,,[],,,,,,53.2,0.0,u,0.0,True,924.1000000238419,56.0,60.0,40.0,False,,249.61206188874658,[],"[768, 432]",ColorTask,77.0,29.0,,,HRV,HRV_0015,2022-11-30 18:13:25
,wl-rdm,146,372493,0.0-8.29-0.29,1.0,147.0,,,,,,,[],,,,,,62.5,0.0,u,0.0,True,725.2999999523163,44.0,60.0,40.0,False,,312.14558310702864,[],"[768, 432]",ColorTask,78.0,30.0,,,HRV,HRV_0015,2022-11-30 18:13:25
,wl-rdm,147,374361,0.0-8.30-0.30,1.0,148.0,,,,,,,[],,,,,,73.6,0.0,u,0.0,True,578.0,35.0,60.0,40.0,False,,211.87437833709873,[],"[768, 432]",ColorTask,79.0,31.0,,,HRV,HRV_0015,2022-11-30 18:13:25
,wl-rdm,148,376461,0.0-8.31-0.31,1.0,149.0,,,,,,,[],,,,,,62.5,0.0,u,0.0,True,803.3999999761581,49.0,60.0,40.0,False,,215.09084111035594,[],"[768, 432]",ColorTask,80.0,32.0,,,HRV,HRV_0015,2022-11-30 18:13:25
,wl-rdm,149,378912,0.0-8.32-0.32,1.0,150.0,,,,,,,[],,,,,,56.4,0.0,u,0.0,True,1004.5,61.0,60.0,40.0,False,,380.4341339441693,[],"[768, 432]",ColorTask,81.0,33.0,,,HRV,HRV_0015,2022-11-30 18:13:25
,wl-rdm,150,380980,0.0-8.33-0.33,1.0,151.0,,,,,,,[],,,,,,73.6,1.0,i,1.0,True,607.3999999761581,37.0,60.0,40.0,False,,386.50077011934707,[],"[768, 432]",ColorTask,82.0,34.0,,,HRV,HRV_0015,2022-11-30 18:13:25
,wl-rdm,151,383414,0.0-8.34-0.34,1.0,152.0,,,,,,,[],,,,,,53.2,0.0,u,0.0,True,1125.7999999523163,68.0,60.0,40.0,False,,245.25210168315863,[],"[768, 432]",ColorTask,83.0,35.0,,,HRV,HRV_0015,2022-11-30 18:13:25
,wl-rdm,152,385332,0.0-8.35-0.35,1.0,153.0,,,,,,,[],,,,,,53.2,1.0,u,0.0,False,620.8999999761581,38.0,60.0,40.0,False,,223.06992370714693,[],"[768, 432]",ColorTask,82.0,36.0,,,HRV,HRV_0015,2022-11-30 18:13:25
,wl-rdm,153,387532,0.0-8.36-0.36,1.0,154.0,,,,,,,[],,,,,,62.5,0.0,u,0.0,True,926.5,56.0,60.0,40.0,False,,208.166000353888,[],"[768, 432]",ColorTask,83.0,37.0,,,HRV,HRV_0015,2022-11-30 18:13:25
,wl-rdm,154,389733,0.0-8.37-0.37,1.0,155.0,,,,,,,[],,,,,,87.9,0.0,u,0.0,True,759.3999999761581,46.0,60.0,40.0,False,,353.55035351199547,[],"[768, 432]",ColorTask,84.0,38.0,,,HRV,HRV_0015,2022-11-30 18:13:25
,wl-rdm,155,391851,0.0-8.38-0.38,1.0,156.0,,,,,,,[],,,,,,73.6,0.0,u,0.0,True,799.2000000476837,48.0,60.0,40.0,False,,257.7971316152859,[],"[768, 432]",ColorTask,85.0,39.0,,,HRV,HRV_0015,2022-11-30 18:13:25
,wl-rdm,156,393918,0.0-8.39-0.39,1.0,157.0,,,,,,,[],,,,,,62.5,0.0,u,0.0,True,686.8999999761581,42.0,60.0,40.0,False,,307.3335028534029,[],"[768, 432]",ColorTask,86.0,40.0,,,HRV,HRV_0015,2022-11-30 18:13:25
,wl-rdm,157,395935,0.0-8.40-0.40,1.0,158.0,,,,,,,[],,,,,,87.9,0.0,u,0.0,True,572.8999999761581,35.0,60.0,40.0,False,,354.49119005894977,[],"[768, 432]",ColorTask,87.0,41.0,,,HRV,HRV_0015,2022-11-30 18:13:25
,wl-rdm,158,397886,0.0-8.41-0.41,1.0,159.0,,,,,,,[],,,,,,56.4,1.0,i,1.0,True,555.5,34.0,60.0,40.0,False,,301.3127693511036,[],"[768, 432]",ColorTask,88.0,42.0,,,HRV,HRV_0015,2022-11-30 18:13:25
,wl-rdm,159,399854,0.0-8.42-0.42,1.0,160.0,,,,,,,[],,,,,,73.6,1.0,i,1.0,True,652.0,40.0,60.0,40.0,False,,237.09186388599232,[],"[768, 432]",ColorTask,89.0,43.0,,,HRV,HRV_0015,2022-11-30 18:13:25
,wl-rdm,160,401671,0.0-8.43-0.43,1.0,161.0,,,,,,,[],,,,,,73.6,1.0,i,1.0,True,499.60000002384186,30.0,60.0,40.0,False,,256.16155547078256,[],"[768, 432]",ColorTask,90.0,44.0,,,HRV,HRV_0015,2022-11-30 18:13:25
,wl-rdm,161,403989,0.0-8.44-0.44,1.0,162.0,,,,,,,[],,,,,,62.5,1.0,i,1.0,True,941.7000000476837,57.0,60.0,40.0,False,,296.69722068757414,[],"[768, 432]",ColorTask,91.0,45.0,,,HRV,HRV_0015,2022-11-30 18:13:25
,wl-rdm,162,406056,0.0-8.45-0.45,1.0,163.0,,,,,,,[],,,,,,87.9,0.0,u,0.0,True,676.7000000476837,41.0,60.0,40.0,False,,318.875060396299,[],"[768, 432]",ColorTask,92.0,46.0,,,HRV,HRV_0015,2022-11-30 18:13:25
,wl-rdm,163,408173,0.0-8.46-0.46,1.0,164.0,,,,,,,[],,,,,,87.9,1.0,i,1.0,True,652.6999999284744,40.0,60.0,40.0,False,,393.67511481304865,[],"[768, 432]",ColorTask,93.0,47.0,,,HRV,HRV_0015,2022-11-30 18:13:25
,wl-rdm,164,410208,0.0-8.47-0.47,1.0,165.0,,,,,,,[],,,,,,73.6,1.0,i,1.0,True,687.7000000476837,42.0,60.0,40.0,False,,281.2957854568213,[],"[768, 432]",ColorTask,94.0,48.0,,,HRV,HRV_0015,2022-11-30 18:13:25
,wl-rdm,165,412242,0.0-8.48-0.48,1.0,166.0,,,,,,,[],,,,,,87.9,0.0,u,0.0,True,632.1000000238419,38.0,60.0,40.0,False,,334.3883800228732,[],"[768, 432]",ColorTask,95.0,49.0,,,HRV,HRV_0015,2022-11-30 18:13:25
,wl-rdm,166,414559,0.0-8.49-0.49,1.0,167.0,,,,,,,[],,,,,,56.4,0.0,i,1.0,False,1032.2000000476837,62.0,60.0,40.0,False,,222.44716109782846,[],"[768, 432]",ColorTask,94.0,50.0,,,HRV,HRV_0015,2022-11-30 18:13:25
,wl-rdm,167,417077,0.0-8.50-0.50,1.0,168.0,,,,,,,[],,,,,,50.0,0.0,i,1.0,False,1146.5,69.0,60.0,40.0,False,,312.90575282853683,[],"[768, 432]",ColorTask,93.0,51.0,,,HRV,HRV_0015,2022-11-30 18:13:25
,wl-rdm,168,419228,0.0-8.51-0.51,1.0,169.0,,,,,,,[],,,,,,56.4,0.0,u,0.0,True,871.5999999046326,53.0,60.0,40.0,False,,211.97755936428587,[],"[768, 432]",ColorTask,94.0,52.0,,,HRV,HRV_0015,2022-11-30 18:13:25
,wl-rdm,169,421529,0.0-8.52-0.52,1.0,170.0,,,,,,,[],,,,,,50.0,0.0,u,0.0,True,1031.1000000238419,62.0,60.0,40.0,False,,211.8194404497709,[],"[768, 432]",ColorTask,95.0,53.0,,,HRV,HRV_0015,2022-11-30 18:13:25
,wl-rdm,170,423430,0.0-8.53-0.53,1.0,171.0,,,,,,,[],,,,,,87.9,0.0,u,0.0,True,624.8999999761581,38.0,60.0,40.0,False,,205.99034943920105,[],"[768, 432]",ColorTask,96.0,54.0,,,HRV,HRV_0015,2022-11-30 18:13:25
,wl-rdm,171,425497,0.0-8.54-0.54,1.0,172.0,,,,,,,[],,,,,,87.9,0.0,u,0.0,True,640.7999999523163,38.0,60.0,40.0,False,,355.71127936748707,[],"[768, 432]",ColorTask,97.0,55.0,,,HRV,HRV_0015,2022-11-30 18:13:25
,wl-rdm,172,427298,0.0-8.55-0.55,1.0,173.0,,,,,,,[],,,,,,87.9,1.0,i,1.0,True,427.89999997615814,26.0,60.0,40.0,False,,312.0456621455325,[],"[768, 432]",ColorTask,98.0,56.0,,,HRV,HRV_0015,2022-11-30 18:13:25
,wl-rdm,173,429665,0.0-8.56-0.56,1.0,174.0,,,,,,,[],,,,,,50.0,0.0,i,1.0,False,945.6999999284744,57.0,60.0,40.0,False,,340.4024396354239,[],"[768, 432]",ColorTask,97.0,57.0,,,HRV,HRV_0015,2022-11-30 18:13:25
,wl-rdm,174,431716,0.0-8.57-0.57,1.0,175.0,,,,,,,[],,,,,,50.0,1.0,i,1.0,True,744.2000000476837,45.0,60.0,40.0,False,,239.2223150717103,[],"[768, 432]",ColorTask,98.0,58.0,,,HRV,HRV_0015,2022-11-30 18:13:25
,wl-rdm,175,433950,0.0-8.58-0.58,1.0,176.0,,,,,,,[],,,,,,53.2,1.0,i,1.0,True,758.7999999523163,46.0,60.0,40.0,False,,386.84779345163844,[],"[768, 432]",ColorTask,99.0,59.0,,,HRV,HRV_0015,2022-11-30 18:13:25
,wl-rdm,176,435951,0.0-8.59-0.59,1.0,177.0,,,,,,,[],,,,,,56.4,1.0,i,1.0,True,670.0999999046326,41.0,60.0,40.0,False,,256.74737481001614,[],"[768, 432]",ColorTask,100.0,60.0,,,HRV,HRV_0015,2022-11-30 18:13:25
,wl-rdm,177,437868,0.0-8.60-0.60,1.0,178.0,,,,,,,[],,,,,,53.2,1.0,i,1.0,True,488.7000000476837,30.0,60.0,40.0,False,,336.54325597637165,[],"[768, 432]",ColorTask,101.0,61.0,,,HRV,HRV_0015,2022-11-30 18:13:25
,wl-rdm,178,439802,0.0-8.61-0.61,1.0,179.0,,,,,,,[],,,,,,62.5,1.0,i,1.0,True,498.2000000476837,30.0,60.0,40.0,False,,369.5507781893006,[],"[768, 432]",ColorTask,102.0,62.0,,,HRV,HRV_0015,2022-11-30 18:13:25
,wl-rdm,179,441736,0.0-8.62-0.62,1.0,180.0,,,,,,,[],,,,,,53.2,0.0,i,1.0,False,512.1000000238419,31.0,60.0,40.0,False,,356.1193115469781,[],"[768, 432]",ColorTask,101.0,63.0,,,HRV,HRV_0015,2022-11-30 18:13:25
,wl-rdm,180,443587,0.0-8.63-0.63,1.0,181.0,,,,,,,[],,,,,,73.6,0.0,u,0.0,True,546.7000000476837,33.0,60.0,40.0,False,,237.51311470020522,[],"[768, 432]",ColorTask,102.0,64.0,,,HRV,HRV_0015,2022-11-30 18:13:25
,wl-rdm,181,445521,0.0-8.64-0.64,1.0,182.0,,,,,,,[],,,,,,56.4,1.0,i,1.0,True,572.4000000953674,35.0,60.0,40.0,False,,284.58621158294847,[],"[768, 432]",ColorTask,103.0,65.0,,,HRV,HRV_0015,2022-11-30 18:13:25
,wl-rdm,182,447739,0.0-8.65-0.65,1.0,183.0,,,,,,,[],,,,,,50.0,1.0,i,1.0,True,898.5,54.0,60.0,40.0,False,,266.8517962327184,[],"[768, 432]",ColorTask,104.0,66.0,,,HRV,HRV_0015,2022-11-30 18:13:25
,wl-rdm,183,449639,0.0-8.66-0.66,1.0,184.0,,,,,,,[],,,,,,87.9,1.0,i,1.0,True,550.3999999761581,33.0,60.0,40.0,False,,281.59674534327837,[],"[768, 432]",ColorTask,105.0,67.0,,,HRV,HRV_0015,2022-11-30 18:13:25
,wl-rdm,184,451874,0.0-8.67-0.67,1.0,185.0,,,,,,,[],,,,,,53.2,1.0,i,1.0,True,803.3999999761581,49.0,60.0,40.0,False,,349.5702636012192,[],"[768, 432]",ColorTask,106.0,68.0,,,HRV,HRV_0015,2022-11-30 18:13:25
,wl-rdm,185,454024,0.0-8.68-0.68,1.0,186.0,,,,,,,[],,,,,,50.0,1.0,u,0.0,False,792.799999833107,48.0,60.0,40.0,False,,272.6222341803814,[],"[768, 432]",ColorTask,105.0,69.0,,,HRV,HRV_0015,2022-11-30 18:13:25
,wl-rdm,186,456259,0.0-8.69-0.69,1.0,187.0,,,,,,,[],,,,,,62.5,0.0,u,0.0,True,854.8999998569489,52.0,60.0,40.0,False,,304.6182589351678,[],"[768, 432]",ColorTask,106.0,70.0,,,HRV,HRV_0015,2022-11-30 18:13:25
,wl-rdm,187,458409,0.0-8.70-0.70,1.0,188.0,,,,,,,[],,,,,,73.6,0.0,u,0.0,True,871.6999999284744,53.0,60.0,40.0,False,,202.63366926069273,[],"[768, 432]",ColorTask,107.0,71.0,,,HRV,HRV_0015,2022-11-30 18:13:25
,wl-rdm,188,460443,0.0-8.71-0.71,1.0,189.0,,,,,,,[],,,,,,62.5,1.0,i,1.0,True,645.1000000238419,39.0,60.0,40.0,False,,304.4946814907436,[],"[768, 432]",ColorTask,108.0,72.0,,,HRV,HRV_0015,2022-11-30 18:13:25
,wl-rdm,189,462394,0.0-8.72-0.72,1.0,190.0,,,,,,,[],,,,,,62.5,1.0,i,1.0,True,531.1999999284744,32.0,60.0,40.0,False,,359.5184659003184,[],"[768, 432]",ColorTask,109.0,73.0,,,HRV,HRV_0015,2022-11-30 18:13:25
,wl-rdm,190,464361,0.0-8.73-0.73,1.0,191.0,,,,,,,[],,,,,,50.0,0.0,u,0.0,True,627.1000000238419,38.0,60.0,40.0,False,,282.3649467572781,[],"[768, 432]",ColorTask,110.0,74.0,,,HRV,HRV_0015,2022-11-30 18:13:25
,wl-rdm,191,466596,0.0-8.74-0.74,1.0,192.0,,,,,,,[],,,,,,73.6,0.0,u,0.0,True,756.0,46.0,60.0,40.0,False,,388.28751982154904,[],"[768, 432]",ColorTask,111.0,75.0,,,HRV,HRV_0015,2022-11-30 18:13:25
,wl-rdm,192,468580,0.0-8.75-0.75,1.0,193.0,,,,,,,[],,,,,,62.5,0.0,u,0.0,True,699.1000000238419,42.0,60.0,40.0,False,,222.6021416852176,[],"[768, 432]",ColorTask,112.0,76.0,,,HRV,HRV_0015,2022-11-30 18:13:25
,wl-rdm,193,470613,0.0-8.76-0.76,1.0,194.0,,,,,,,[],,,,,,53.2,1.0,i,1.0,True,744.8999999761581,45.0,60.0,40.0,False,,201.24731246830643,[],"[768, 432]",ColorTask,113.0,77.0,,,HRV,HRV_0015,2022-11-30 18:13:25
,wl-rdm,194,472814,0.0-8.77-0.77,1.0,195.0,,,,,,,[],,,,,,62.5,0.0,u,0.0,True,769.1999999284744,47.0,60.0,40.0,False,,365.6264202537018,[],"[768, 432]",ColorTask,114.0,78.0,,,HRV,HRV_0015,2022-11-30 18:13:25
,wl-rdm,195,474815,0.0-8.78-0.78,1.0,196.0,,,,,,,[],,,,,,73.6,0.0,u,0.0,True,697.3000000715256,42.0,60.0,40.0,False,,242.75138435013253,[],"[768, 432]",ColorTask,115.0,79.0,,,HRV,HRV_0015,2022-11-30 18:13:25
,wl-rdm,196,477049,0.0-8.79-0.79,1.0,197.0,,,,,,,[],,,,,,53.2,0.0,u,0.0,True,941.7999999523163,57.0,60.0,40.0,False,,231.51837619184033,[],"[768, 432]",ColorTask,116.0,80.0,,,HRV,HRV_0015,2022-11-30 18:13:25
,wl-rdm,197,479333,0.0-8.80-0.80,1.0,198.0,,,,,,,[],,,,,,56.4,0.0,u,0.0,True,819.0,50.0,60.0,40.0,False,,373.3802328102552,[],"[768, 432]",ColorTask,117.0,81.0,,,HRV,HRV_0015,2022-11-30 18:13:25
,wl-rdm,198,481167,0.0-8.81-0.81,1.0,199.0,,,,,,,[],,,,,,53.2,0.0,i,1.0,False,429.4999998807907,26.0,60.0,40.0,False,,340.6138266583254,[],"[768, 432]",ColorTask,116.0,82.0,,,HRV,HRV_0015,2022-11-30 18:13:25
,wl-rdm,199,483368,0.0-8.82-0.82,1.0,200.0,,,,,,,[],,,,,,53.2,1.0,i,1.0,True,735.2999999523163,45.0,60.0,40.0,False,,396.0750237922486,[],"[768, 432]",ColorTask,117.0,83.0,,,HRV,HRV_0015,2022-11-30 18:13:25
,wl-rdm,200,485452,0.0-8.83-0.83,1.0,201.0,,,,,,,[],,,,,,56.4,0.0,i,1.0,False,711.5999999046326,43.0,60.0,40.0,False,,292.2649284930599,[],"[768, 432]",ColorTask,116.0,84.0,,,HRV,HRV_0015,2022-11-30 18:13:25
,wl-rdm,201,487486,0.0-8.84-0.84,1.0,202.0,,,,,,,[],,,,,,73.6,1.0,i,1.0,True,692.2000000476837,42.0,60.0,40.0,False,,277.1789074157663,[],"[768, 432]",ColorTask,117.0,85.0,,,HRV,HRV_0015,2022-11-30 18:13:25
,wl-rdm,202,489604,0.0-8.85-0.85,1.0,203.0,,,,,,,[],,,,,,56.4,1.0,i,1.0,True,667.8000000715256,41.0,60.0,40.0,False,,374.4653644806003,[],"[768, 432]",ColorTask,118.0,86.0,,,HRV,HRV_0015,2022-11-30 18:13:25
,wl-rdm,203,491538,0.0-8.86-0.86,1.0,204.0,,,,,,,[],,,,,,62.5,1.0,i,1.0,True,481.5000001192093,29.0,60.0,40.0,False,,391.01669595970384,[],"[768, 432]",ColorTask,119.0,87.0,,,HRV,HRV_0015,2022-11-30 18:13:25
,wl-rdm,204,493455,0.0-8.87-0.87,1.0,205.0,,,,,,,[],,,,,,56.4,1.0,i,1.0,True,586.4000000953674,36.0,60.0,40.0,False,,244.76250823197557,[],"[768, 432]",ColorTask,120.0,88.0,,,HRV,HRV_0015,2022-11-30 18:13:25
,wl-rdm,205,495706,0.0-8.88-0.88,1.0,206.0,,,,,,,[],,,,,,50.0,1.0,u,0.0,False,874.0,53.0,60.0,40.0,False,,304.23507426145636,[],"[768, 432]",ColorTask,119.0,89.0,,,HRV,HRV_0015,2022-11-30 18:13:25
,wl-rdm,206,497690,0.0-8.89-0.89,1.0,207.0,,,,,,,[],,,,,,87.9,0.0,u,0.0,True,641.5,39.0,60.0,40.0,False,,280.08512940838006,[],"[768, 432]",ColorTask,120.0,90.0,,,HRV,HRV_0015,2022-11-30 18:13:25
,wl-rdm,207,499974,0.0-8.90-0.90,1.0,208.0,,,,,,,[],,,,,,73.6,1.0,i,1.0,True,831.0,50.0,60.0,40.0,False,,396.13922524937334,[],"[768, 432]",ColorTask,121.0,91.0,,,HRV,HRV_0015,2022-11-30 18:13:25
,wl-rdm,208,502058,0.0-8.91-0.91,1.0,209.0,,,,,,,[],,,,,,50.0,1.0,i,1.0,True,751.7999999523163,46.0,60.0,40.0,False,,258.39913417527947,[],"[768, 432]",ColorTask,122.0,92.0,,,HRV,HRV_0015,2022-11-30 18:13:25
,wl-rdm,209,504042,0.0-8.92-0.92,1.0,210.0,,,,,,,[],,,,,,87.9,1.0,i,1.0,True,608.0,37.0,60.0,40.0,False,,284.81125872302994,[],"[768, 432]",ColorTask,123.0,93.0,,,HRV,HRV_0015,2022-11-30 18:13:25
,wl-rdm,210,506160,0.0-8.93-0.93,1.0,211.0,,,,,,,[],,,,,,62.5,1.0,i,1.0,True,658.3000000715256,40.0,60.0,40.0,False,,386.6735166573469,[],"[768, 432]",ColorTask,124.0,94.0,,,HRV,HRV_0015,2022-11-30 18:13:25
,wl-rdm,211,508377,0.0-8.94-0.94,1.0,212.0,,,,,,,[],,,,,,53.2,0.0,u,0.0,True,739.1000000238419,45.0,60.0,40.0,False,,391.40043579064036,[],"[768, 432]",ColorTask,125.0,95.0,,,HRV,HRV_0015,2022-11-30 18:13:25
,wl-rdm,212,510544,0.0-8.95-0.95,1.0,213.0,,,,,,,[],,,,,,50.0,0.0,u,0.0,True,867.1999999284744,52.0,60.0,40.0,False,,227.99072610316068,[],"[768, 432]",ColorTask,126.0,96.0,,,HRV,HRV_0015,2022-11-30 18:13:25
,wl-rdm,213,512329,0.0-8.96-0.96,1.0,214.0,,,,,,,[],,,,,,87.9,1.0,i,1.0,True,461.10000002384186,28.0,60.0,40.0,False,,259.7733832840243,[],"[768, 432]",ColorTask,127.0,97.0,,,HRV,HRV_0015,2022-11-30 18:13:25
,wl-rdm,214,514263,0.0-8.97-0.97,1.0,215.0,,,,,,,[],,,,,,87.9,0.0,u,0.0,True,623.7000000476837,38.0,60.0,40.0,False,,237.25155783329998,[],"[768, 432]",ColorTask,128.0,98.0,,,HRV,HRV_0015,2022-11-30 18:13:25
,wl-rdm,215,516447,0.0-8.98-0.98,1.0,216.0,,,,,,,[],,,,,,73.6,0.0,u,0.0,True,768.7999999523163,47.0,60.0,40.0,False,,322.8420076016201,[],"[768, 432]",ColorTask,129.0,99.0,,,HRV,HRV_0015,2022-11-30 18:13:25
,wl-rdm,216,518264,0.0-8.99-0.99,1.0,217.0,,,,,,,[],,,,,,62.5,1.0,i,1.0,True,458.7999999523163,28.0,60.0,40.0,False,,286.0722178473937,[],"[768, 432]",ColorTask,130.0,100.0,,,HRV,HRV_0015,2022-11-30 18:13:25
,wl-rdm,217,520248,0.0-8.100-0.100,1.0,218.0,,,,,,,[],,,,,,56.4,1.0,i,1.0,True,690.2000000476837,42.0,60.0,40.0,False,,202.9892083968497,[],"[768, 432]",ColorTask,131.0,101.0,,,HRV,HRV_0015,2022-11-30 18:13:25
,wl-rdm,218,522099,0.0-8.101-0.101,1.0,219.0,,,,,,,[],,,,,,87.9,1.0,i,1.0,True,504.4999998807907,31.0,60.0,40.0,False,,268.1110932101271,[],"[768, 432]",ColorTask,132.0,102.0,,,HRV,HRV_0015,2022-11-30 18:13:25
,wl-rdm,219,524316,0.0-8.102-0.102,1.0,220.0,,,,,,,[],,,,,,53.2,0.0,u,0.0,True,807.3999999761581,49.0,60.0,40.0,False,,326.4069742531791,[],"[768, 432]",ColorTask,133.0,103.0,,,HRV,HRV_0015,2022-11-30 18:13:25
,wl-rdm,220,526367,0.0-8.103-0.103,1.0,221.0,,,,,,,[],,,,,,56.4,0.0,i,1.0,False,587.3000000715256,36.0,60.0,40.0,False,,396.232961192037,[],"[768, 432]",ColorTask,132.0,104.0,,,HRV,HRV_0015,2022-11-30 18:13:25
,wl-rdm,221,528368,0.0-8.104-0.104,1.0,222.0,,,,,,,[],,,,,,53.2,0.0,u,0.0,True,659.2999999523163,40.0,60.0,40.0,False,,252.01195245003944,[],"[768, 432]",ColorTask,133.0,105.0,,,HRV,HRV_0015,2022-11-30 18:13:25
,wl-rdm,222,530235,0.0-8.105-0.105,1.0,223.0,,,,,,,[],,,,,,87.9,1.0,i,1.0,True,457.59999990463257,28.0,60.0,40.0,False,,342.8625709472848,[],"[768, 432]",ColorTask,134.0,106.0,,,HRV,HRV_0015,2022-11-30 18:13:25
,wl-rdm,223,532036,0.0-8.106-0.106,1.0,224.0,,,,,,,[],,,,,,73.6,0.0,u,0.0,True,488.60000002384186,30.0,60.0,40.0,False,,239.21082452298117,[],"[768, 432]",ColorTask,135.0,107.0,,,HRV,HRV_0015,2022-11-30 18:13:25
,wl-rdm,224,533837,0.0-8.107-0.107,1.0,225.0,,,,,,,[],,,,,,73.6,0.0,u,0.0,True,519.5,32.0,60.0,40.0,False,,201.95978484802453,[],"[768, 432]",ColorTask,136.0,108.0,,,HRV,HRV_0015,2022-11-30 18:13:25
,wl-html-button-response,225,535948,0.0-9.0-0.0,,,,,,,,,,2107.7000000476837,,0,,,,,,,,,,,,,,,,,,,,<h3>End of this session. Thank you!</h3><br>,['Close window'],HRV,HRV_0015,2022-11-30 18:13:25
