success,trial_type,trial_index,time_elapsed,internal_node_id,Block,TrialNumber,TrialTime,trialTimeDiff,FPS_avg,FPS_med,FPS_mode,TrialDur,winResizeTime,rt,block,button_pressed,MotCoh,MotDir,ColCoh,Color,ChoiceKey,Choice,Accuracy,RT,nFrames,FPS,PPD,missTrial,missTrialMsg,onsetDelay,fullScreenExitTime,canvCenter,TrialType,Score,BlockTrial,stimulus,button_labels,exp,subjectId,date
True,fullscreen,0,21782,0.0-0.0,0.0,1.0,,,,,,,,,,,,,,,,,,,,,,,,,,,,,,,,HRV,HRV_0191,2022-11-30 19:02:22
,wl-check-fps,1,26780,0.0-1.0,0.0,2.0,"[22354.9, 22361.5, 22378, 22394.3, 22411.5, 22428.6, 22444.9, 22461.6, 22478.6, 22496.3, 22512.8, 22527.6, 22545.3, 22562.1, 22578, 22595.7, 22612.1, 22629, 22644, 22662.8, 22677.8, 22695.4, 22712.6, 22728.2, 22744.6, 22761.8, 22778.9, 22794.5, 22811.9, 22827.7, 22845.3, 22861.1, 22878.6, 22894.8, 22912.7, 22928.6, 22945, 22961.3, 22978.7, 22996.1, 23012.2, 23028.2, 23045.9, 23061.6, 23078.7, 23096, 23112, 23129.3, 23146, 23162.6, 23177.8, 23194.3, 23211, 23228.4, 23245.6, 23261.3, 23277.9, 23294.7, 23312.7, 23327.8, 23344.2, 23361.6, 23378, 23395.7, 23411.7, 23428.1, 23444.8, 23461.5, 23478.7, 23495.6, 23512.7, 23529, 23545.1, 23563, 23577.5, 23595.9, 23611.2, 23628.9, 23646, 23662, 23679, 23696.1, 23712.1, 23728.7, 23744.9, 23762.3, 23782.5, 23798.5, 23812.7, 23828.8, 23845, 23862.3, 23878.5, 23897.4, 23912, 23928.6, 23944.8, 23963.5, 23978.6, 23996, 24012.4, 24028.4, 24044.4, 24062.6, 24079.3, 24095.5, 24111.4, 24129.7, 24145.5, 24161.3, 24178.7, 24195.3, 24211.2, 24228, 24246.2, 24262, 24279.2, 24296.2, 24312.5, 24328.2, 24345.2, 24361.1, 24378.2, 24395, 24411.2, 24428.8, 24444.9, 24461.8, 24478.6, 24495.4, 24511.3, 24528.9, 24544.6, 24561.2, 24579.5, 24594.7, 24611.7, 24628.7, 24644.6, 24662.1, 24679.4, 24694.6, 24714.2, 24729.5, 24744.8, 24762, 24778.3, 24795.8, 24812.2, 24828, 24845.9, 24861.7, 24878.7, 24895.6, 24911.8, 24928, 24944.9, 24962.9, 24978.3, 24994.9, 25011.3, 25028.4, 25045.4, 25063.6, 25077.9, 25095.9, 25111.7, 25129.3, 25145.4, 25161.6, 25178.9, 25194.5, 25213.8, 25228.4, 25246.1, 25261.6, 25279.7, 25295.3, 25312.2, 25329.4, 25345.5, 25361.6, 25378.3, 25394.7, 25411.2, 25428.5, 25446, 25461.9, 25478.8, 25495.2, 25511.9, 25528.2, 25544.7, 25562.2, 25579.9, 25602.1, 25612.1, 25629.1, 25644.3, 25661.7, 25679.5, 25695.6, 25713, 25729, 25745.1, 25764.8, 25778.1, 25795.5, 25813.3, 25829, 25844.6, 25861.1, 25878.7, 25895, 25911.1, 25929.1, 25944.9, 25961.4, 25977.7, 25994.7, 26012.5, 26028.4, 26044.9, 26062.2, 26078.5, 26094.6, 26114.2, 26128.3, 26144.3, 26161.4, 26178.8, 26194.5, 26212.8, 26229.5, 26244.7, 26261.6, 26278.2, 26295.3, 26311.7, 26328.3, 26346, 26364.1, 26378.5, 26397.6, 26411.4, 26427.6, 26445.1, 26463.1, 26479, 26495.9, 26512.1, 26529.3, 26544.9, 26561.8, 26579.2, 26595.3, 26612.2, 26628.4, 26644.8, 26661, 26678.4, 26695.3, 26713.3, 26728.7, 26744.8, 26760.9, 26778.2, 26794.7, 26810.9, 26828.7, 26844.9, 26862.6, 26878.7, 26895.2, 26911.2, 26929.2, 26944.7, 26962.7, 26978.7, 26994.6, 27012.6, 27029.3, 27044.9, 27061.8, 27078, 27094.5, 27111.9, 27129.4, 27145.9, 27161.4, 27177.7, 27195.4, 27211.3, 27227.8, 27245.9, 27261.6, 27279.2, 27294.8, 27311.3, 27328.7]","[2.6, 6.6, 16.5, 16.3, 17.2, 17.1, 16.3, 16.7, 17, 17.7, 16.5, 14.8, 17.7, 16.8, 15.9, 17.7, 16.4, 16.9, 15, 18.8, 15, 17.6, 17.2, 15.6, 16.4, 17.2, 17.1, 15.6, 17.4, 15.8, 17.6, 15.8, 17.5, 16.2, 17.9, 15.9, 16.4, 16.3, 17.4, 17.4, 16.1, 16, 17.7, 15.7, 17.1, 17.3, 16, 17.3, 16.7, 16.6, 15.2, 16.5, 16.7, 17.4, 17.2, 15.7, 16.6, 16.8, 18, 15.1, 16.4, 17.4, 16.4, 17.7, 16, 16.4, 16.7, 16.7, 17.2, 16.9, 17.1, 16.3, 16.1, 17.9, 14.5, 18.4, 15.3, 17.7, 17.1, 16, 17, 17.1, 16, 16.6, 16.2, 17.4, 20.2, 16, 14.2, 16.1, 16.2, 17.3, 16.2, 18.9, 14.6, 16.6, 16.2, 18.7, 15.1, 17.4, 16.4, 16, 16, 18.2, 16.7, 16.2, 15.9, 18.3, 15.8, 15.8, 17.4, 16.6, 15.9, 16.8, 18.2, 15.8, 17.2, 17, 16.3, 15.7, 17, 15.9, 17.1, 16.8, 16.2, 17.6, 16.1, 16.9, 16.8, 16.8, 15.9, 17.6, 15.7, 16.6, 18.3, 15.2, 17, 17, 15.9, 17.5, 17.3, 15.2, 19.6, 15.3, 15.3, 17.2, 16.3, 17.5, 16.4, 15.8, 17.9, 15.8, 17, 16.9, 16.2, 16.2, 16.9, 18, 15.4, 16.6, 16.4, 17.1, 17, 18.2, 14.3, 18, 15.8, 17.6, 16.1, 16.2, 17.3, 15.6, 19.3, 14.6, 17.7, 15.5, 18.1, 15.6, 16.9, 17.2, 16.1, 16.1, 16.7, 16.4, 16.5, 17.3, 17.5, 15.9, 16.9, 16.4, 16.7, 16.3, 16.5, 17.5, 17.7, 22.2, 10, 17, 15.2, 17.4, 17.8, 16.1, 17.4, 16, 16.1, 19.7, 13.3, 17.4, 17.8, 15.7, 15.6, 16.5, 17.6, 16.3, 16.1, 18, 15.8, 16.5, 16.3, 17, 17.8, 15.9, 16.5, 17.3, 16.3, 16.1, 19.6, 14.1, 16, 17.1, 17.4, 15.7, 18.3, 16.7, 15.2, 16.9, 16.6, 17.1, 16.4, 16.6, 17.7, 18.1, 14.4, 19.1, 13.8, 16.2, 17.5, 18, 15.9, 16.9, 16.2, 17.2, 15.6, 16.9, 17.4, 16.1, 16.9, 16.2, 16.4, 16.2, 17.4, 16.9, 18, 15.4, 16.1, 16.1, 17.3, 16.5, 16.2, 17.8, 16.2, 17.7, 16.1, 16.5, 16, 18, 15.5, 18, 16, 15.9, 18, 16.7, 15.6, 16.9, 16.2, 16.5, 17.4, 17.5, 16.5, 15.5, 16.3, 17.7, 15.9, 16.5, 18.1, 15.7, 17.6, 15.6, 16.5, 17.4]",60.0,59.0,62.0,4993.2,[],,,,,,,,,,,,,,,,,,,,,,,,,HRV,HRV_0191,2022-11-30 19:02:22
,wl-html-keyboard-response,2,43472,0.0-2.0-0.0,0.0,3.0,,,,,,,,14680.700000047684,0.0,0,,,,,,,,,,,,,,,,,,,,,,HRV,HRV_0191,2022-11-30 19:02:22
,wl-rdm,3,50531,0.0-3.0-0.0,0.0,4.0,,,,,,,[],,,,0.0,0.0,87.9,0.0,u,0.0,True,1476.1000000238419,89.0,62.0,40.0,False,,3000.0,[],"[720, 450]",ColorTask_Demo,,,,,HRV,HRV_0191,2022-11-30 19:02:22
,wl-rdm,4,55365,0.0-3.0-1.0,0.0,5.0,,,,,,,[],,,,0.0,0.0,87.9,1.0,i,1.0,True,758.5999999642372,46.0,62.0,40.0,False,,2000.0,[],"[720, 450]",ColorTask_Demo,,,,,HRV,HRV_0191,2022-11-30 19:02:22
,wl-html-keyboard-response,5,60540,0.0-3.0-2.0,0.0,6.0,,,,,,,,3171.7000000476837,0.0,1,,,,,,,,,,,,,,,,,,,,,,HRV,HRV_0191,2022-11-30 19:02:22
,wl-html-keyboard-response,6,69128,0.0-4.0-0.0,0.0,7.0,,,,,,,,6585.300000011921,0.0,0,,,,,,,,,,,,,,,,,,,,,,HRV,HRV_0191,2022-11-30 19:02:22
,wl-html-keyboard-response,7,78028,0.0-5.0-0.0,0.0,8.0,,,,,,,,6897.199999988079,0.0,0,,,,,,,,,,,,,,,,,,,,,,HRV,HRV_0191,2022-11-30 19:02:22
,wl-rdm,8,80251,0.0-6.0-0.0,0.0,9.0,,,,,,,[],,,,,,62.5,1.0,i,1.0,True,922.3999999761581,54.0,62.0,40.0,False,,226.52257815299376,[],"[720, 450]",ColorTask,1.0,1.0,,,HRV,HRV_0191,2022-11-30 19:02:22
,wl-rdm,9,82650,0.0-6.1-0.1,0.0,10.0,,,,,,,[],,,,,,50.0,1.0,i,1.0,True,1044.8999999761581,63.0,62.0,40.0,False,,293.4480816263136,[],"[720, 450]",ColorTask,2.0,2.0,,,HRV,HRV_0191,2022-11-30 19:02:22
,wl-rdm,10,84866,0.0-6.2-0.2,0.0,11.0,,,,,,,[],,,,,,56.4,0.0,u,0.0,True,892.6000000238419,53.0,62.0,40.0,False,,233.7056491676315,[],"[720, 450]",ColorTask,3.0,3.0,,,HRV,HRV_0191,2022-11-30 19:02:22
,wl-rdm,11,86967,0.0-6.3-0.3,0.0,12.0,,,,,,,[],,,,,,73.6,1.0,i,1.0,True,688.1000000238419,41.0,62.0,40.0,False,,342.7250616502972,[],"[720, 450]",ColorTask,4.0,4.0,,,HRV,HRV_0191,2022-11-30 19:02:22
,wl-rdm,12,88967,0.0-6.4-0.4,0.0,13.0,,,,,,,[],,,,,,53.2,1.0,i,1.0,True,607.6000000238419,37.0,62.0,40.0,False,,332.59256092400335,[],"[720, 450]",ColorTask,5.0,5.0,,,HRV,HRV_0191,2022-11-30 19:02:22
,wl-rdm,13,91102,0.0-6.5-0.5,0.0,14.0,,,,,,,[],,,,,,73.6,0.0,u,0.0,True,649.9000000357628,39.0,62.0,40.0,False,,394.80395413802626,[],"[720, 450]",ColorTask,6.0,6.0,,,HRV,HRV_0191,2022-11-30 19:02:22
,wl-rdm,14,93052,0.0-6.6-0.6,0.0,15.0,,,,,,,[],,,,,,87.9,0.0,u,0.0,True,629.0,38.0,62.0,40.0,False,,244.64594371393716,[],"[720, 450]",ColorTask,7.0,7.0,,,HRV,HRV_0191,2022-11-30 19:02:22
,wl-rdm,15,95186,0.0-6.7-0.7,0.0,16.0,,,,,,,[],,,,,,53.2,1.0,i,1.0,True,741.0,45.0,62.0,40.0,False,,307.8323261094768,[],"[720, 450]",ColorTask,8.0,8.0,,,HRV,HRV_0191,2022-11-30 19:02:22
,wl-rdm,16,97501,0.0-6.8-0.8,0.0,17.0,,,,,,,[],,,,,,53.2,0.0,u,0.0,True,913.3000000119209,55.0,62.0,40.0,False,,325.61018185507015,[],"[720, 450]",ColorTask,9.0,9.0,,,HRV,HRV_0191,2022-11-30 19:02:22
,wl-rdm,17,99685,0.0-6.9-0.9,0.0,18.0,,,,,,,[],,,,,,62.5,0.0,i,1.0,False,883.5,53.0,62.0,40.0,False,,219.49103846925811,[],"[720, 450]",ColorTask,8.0,10.0,,,HRV,HRV_0191,2022-11-30 19:02:22
,wl-rdm,18,101668,0.0-6.10-0.10,0.0,19.0,,,,,,,[],,,,,,50.0,0.0,u,0.0,True,590.1000000238419,36.0,62.0,40.0,False,,313.17750607203703,[],"[720, 450]",ColorTask,9.0,11.0,,,HRV,HRV_0191,2022-11-30 19:02:22
,wl-rdm,19,103902,0.0-6.11-0.11,0.0,20.0,,,,,,,[],,,,,,50.0,1.0,i,1.0,True,875.3000000119209,53.0,62.0,40.0,False,,279.27195369012287,[],"[720, 450]",ColorTask,10.0,12.0,,,HRV,HRV_0191,2022-11-30 19:02:22
,wl-rdm,20,106087,0.0-6.12-0.12,0.0,21.0,,,,,,,[],,,,,,53.2,0.0,i,1.0,False,859.1000000238419,51.0,62.0,40.0,False,,241.59726870571322,[],"[720, 450]",ColorTask,9.0,13.0,,,HRV,HRV_0191,2022-11-30 19:02:22
,wl-rdm,21,108220,0.0-6.13-0.13,0.0,22.0,,,,,,,[],,,,,,53.2,0.0,i,1.0,False,758.1000000238419,46.0,62.0,40.0,False,,285.54449251208996,[],"[720, 450]",ColorTask,8.0,14.0,,,HRV,HRV_0191,2022-11-30 19:02:22
,wl-rdm,22,110352,0.0-6.14-0.14,0.0,23.0,,,,,,,[],,,,,,56.4,1.0,i,1.0,True,738.3999999761581,44.0,62.0,40.0,False,,305.3889511879787,[],"[720, 450]",ColorTask,9.0,15.0,,,HRV,HRV_0191,2022-11-30 19:02:22
,wl-rdm,23,112387,0.0-6.15-0.15,0.0,24.0,,,,,,,[],,,,,,62.5,0.0,u,0.0,True,677.6999999880791,41.0,62.0,40.0,False,,283.847941502971,[],"[720, 450]",ColorTask,10.0,16.0,,,HRV,HRV_0191,2022-11-30 19:02:22
,wl-rdm,24,114337,0.0-6.16-0.16,0.0,25.0,,,,,,,[],,,,,,62.5,0.0,u,0.0,True,673.3000000119209,40.0,62.0,40.0,False,,212.12619665866916,[],"[720, 450]",ColorTask,11.0,17.0,,,HRV,HRV_0191,2022-11-30 19:02:22
,wl-rdm,25,116354,0.0-6.17-0.17,0.0,26.0,,,,,,,[],,,,,,56.4,1.0,i,1.0,True,721.8999999761581,43.0,62.0,40.0,False,,224.02503391719404,[],"[720, 450]",ColorTask,12.0,18.0,,,HRV,HRV_0191,2022-11-30 19:02:22
,wl-rdm,26,118572,0.0-6.18-0.18,0.0,27.0,,,,,,,[],,,,,,56.4,0.0,u,0.0,True,791.6999999284744,49.0,62.0,40.0,False,,346.79769948615467,[],"[720, 450]",ColorTask,13.0,19.0,,,HRV,HRV_0191,2022-11-30 19:02:22
,wl-rdm,27,120704,0.0-6.19-0.19,0.0,28.0,,,,,,,[],,,,,,50.0,1.0,u,0.0,False,853.1999999880791,52.0,62.0,40.0,False,,207.5134618647298,[],"[720, 450]",ColorTask,12.0,20.0,,,HRV,HRV_0191,2022-11-30 19:02:22
,wl-rdm,28,122687,0.0-6.20-0.20,0.0,29.0,,,,,,,[],,,,,,56.4,0.0,i,1.0,False,673.5999999642372,41.0,62.0,40.0,False,,226.47128251572008,[],"[720, 450]",ColorTask,11.0,21.0,,,HRV,HRV_0191,2022-11-30 19:02:22
,wl-rdm,29,124837,0.0-6.21-0.21,0.0,30.0,,,,,,,[],,,,,,53.2,1.0,u,0.0,False,854.1999999880791,52.0,62.0,40.0,False,,202.76712112329247,[],"[720, 450]",ColorTask,10.0,22.0,,,HRV,HRV_0191,2022-11-30 19:02:22
,wl-rdm,30,127172,0.0-6.22-0.22,0.0,31.0,,,,,,,[],,,,,,73.6,1.0,i,1.0,True,922.8999999761581,55.0,62.0,40.0,False,,318.0667540061071,[],"[720, 450]",ColorTask,11.0,23.0,,,HRV,HRV_0191,2022-11-30 19:02:22
,wl-rdm,31,129289,0.0-6.23-0.23,0.0,32.0,,,,,,,[],,,,,,50.0,1.0,i,1.0,True,714.6999999880791,43.0,62.0,40.0,False,,317.3355333890521,[],"[720, 450]",ColorTask,12.0,24.0,,,HRV,HRV_0191,2022-11-30 19:02:22
,wl-rdm,32,131604,0.0-6.24-0.24,0.0,33.0,,,,,,,[],,,,,,50.0,0.0,u,0.0,True,932.6999999880791,56.0,62.0,40.0,False,,248.05823151040534,[],"[720, 450]",ColorTask,13.0,25.0,,,HRV,HRV_0191,2022-11-30 19:02:22
,wl-rdm,33,133809,0.0-6.25-0.25,0.0,34.0,,,,,,,[],,,,,,50.0,0.0,i,1.0,False,814.5,49.0,62.0,40.0,False,,325.7279548633257,[],"[720, 450]",ColorTask,12.0,26.0,,,HRV,HRV_0191,2022-11-30 19:02:22
,wl-rdm,34,135755,0.0-6.26-0.26,0.0,35.0,,,,,,,[],,,,,,62.5,0.0,u,0.0,True,656.7000000476837,40.0,62.0,40.0,False,,215.3975052771233,[],"[720, 450]",ColorTask,13.0,27.0,,,HRV,HRV_0191,2022-11-30 19:02:22
,wl-rdm,35,137816,0.0-6.27-0.27,0.0,36.0,,,,,,,[],,,,,,73.6,1.0,i,1.0,True,694.8999999761581,42.0,62.0,40.0,False,,284.8479195235668,[],"[720, 450]",ColorTask,14.0,28.0,,,HRV,HRV_0191,2022-11-30 19:02:22
,wl-rdm,36,140039,0.0-6.28-0.28,0.0,37.0,,,,,,,[],,,,,,50.0,0.0,i,1.0,False,859.1000000238419,52.0,62.0,40.0,False,,240.36155725721403,[],"[720, 450]",ColorTask,13.0,29.0,,,HRV,HRV_0191,2022-11-30 19:02:22
,wl-rdm,37,142271,0.0-6.29-0.29,0.0,38.0,,,,,,,[],,,,,,62.5,0.0,u,0.0,True,804.1999999880791,47.0,62.0,40.0,False,,341.24440143138975,[],"[720, 450]",ColorTask,14.0,30.0,,,HRV,HRV_0191,2022-11-30 19:02:22
,wl-rdm,38,144240,0.0-6.30-0.30,0.0,39.0,,,,,,,[],,,,,,50.0,1.0,i,1.0,True,687.1000000238419,40.0,62.0,40.0,False,,210.8342289018158,[],"[720, 450]",ColorTask,15.0,31.0,,,HRV,HRV_0191,2022-11-30 19:02:22
,wl-rdm,39,146274,0.0-6.31-0.31,0.0,40.0,,,,,,,[],,,,,,53.2,1.0,u,0.0,False,722.0,43.0,62.0,40.0,False,,222.98846247218694,[],"[720, 450]",ColorTask,14.0,32.0,,,HRV,HRV_0191,2022-11-30 19:02:22
,wl-rdm,40,148274,0.0-6.32-0.32,0.0,41.0,,,,,,,[],,,,,,50.0,1.0,u,0.0,False,675.8999999761581,41.0,62.0,40.0,False,,250.73348167590245,[],"[720, 450]",ColorTask,13.0,33.0,,,HRV,HRV_0191,2022-11-30 19:02:22
,wl-rdm,41,150091,0.0-6.33-0.33,0.0,42.0,,,,,,,[],,,,,,73.6,1.0,i,1.0,True,523.8999999761581,31.0,62.0,40.0,False,,221.78118675142184,[],"[720, 450]",ColorTask,14.0,34.0,,,HRV,HRV_0191,2022-11-30 19:02:22
,wl-rdm,42,152307,0.0-6.34-0.34,0.0,43.0,,,,,,,[],,,,,,56.4,0.0,u,0.0,True,874.1000000238419,53.0,62.0,40.0,False,,252.11603480422335,[],"[720, 450]",ColorTask,15.0,35.0,,,HRV,HRV_0191,2022-11-30 19:02:22
,wl-rdm,43,154440,0.0-6.35-0.35,0.0,44.0,,,,,,,[],,,,,,73.6,0.0,i,1.0,False,776.4999999403954,48.0,62.0,40.0,False,,254.68781159497553,[],"[720, 450]",ColorTask,14.0,36.0,,,HRV,HRV_0191,2022-11-30 19:02:22
,wl-rdm,44,156473,0.0-6.36-0.36,0.0,45.0,,,,,,,[],,,,,,87.9,0.0,u,0.0,True,652.1999999880791,40.0,62.0,40.0,False,,302.8923988394298,[],"[720, 450]",ColorTask,15.0,37.0,,,HRV,HRV_0191,2022-11-30 19:02:22
,wl-rdm,45,158641,0.0-6.37-0.37,0.0,46.0,,,,,,,[],,,,,,53.2,1.0,i,1.0,True,823.5,48.0,62.0,40.0,False,,252.58866777412132,[],"[720, 450]",ColorTask,16.0,38.0,,,HRV,HRV_0191,2022-11-30 19:02:22
,wl-rdm,46,160641,0.0-6.38-0.38,0.0,47.0,,,,,,,[],,,,,,50.0,0.0,u,0.0,True,697.4000000357628,42.0,62.0,40.0,False,,234.9561333004828,[],"[720, 450]",ColorTask,17.0,39.0,,,HRV,HRV_0191,2022-11-30 19:02:22
,wl-rdm,47,162708,0.0-6.39-0.39,0.0,48.0,,,,,,,[],,,,,,73.6,0.0,i,1.0,False,741.8000000119209,45.0,62.0,40.0,False,,262.0989353389474,[],"[720, 450]",ColorTask,16.0,40.0,,,HRV,HRV_0191,2022-11-30 19:02:22
,wl-rdm,48,164808,0.0-6.40-0.40,0.0,49.0,,,,,,,[],,,,,,73.6,1.0,i,1.0,True,707.6999999880791,43.0,62.0,40.0,False,,310.2457765063732,[],"[720, 450]",ColorTask,17.0,41.0,,,HRV,HRV_0191,2022-11-30 19:02:22
,wl-rdm,49,166826,0.0-6.41-0.41,0.0,50.0,,,,,,,[],,,,,,53.2,0.0,i,1.0,False,593.9000000357628,36.0,62.0,40.0,False,,353.01134118953445,[],"[720, 450]",ColorTask,16.0,42.0,,,HRV,HRV_0191,2022-11-30 19:02:22
,wl-rdm,50,168941,0.0-6.42-0.42,0.0,51.0,,,,,,,[],,,,,,50.0,0.0,u,0.0,True,728.9000000357628,44.0,62.0,40.0,False,,319.9740342622637,[],"[720, 450]",ColorTask,17.0,43.0,,,HRV,HRV_0191,2022-11-30 19:02:22
,wl-rdm,51,171275,0.0-6.43-0.43,0.0,52.0,,,,,,,[],,,,,,62.5,1.0,i,1.0,True,954.1999999880791,57.0,62.0,40.0,False,,305.7604147146129,[],"[720, 450]",ColorTask,18.0,44.0,,,HRV,HRV_0191,2022-11-30 19:02:22
,wl-rdm,52,173325,0.0-6.44-0.44,0.0,53.0,,,,,,,[],,,,,,87.9,1.0,i,1.0,True,766.0,46.0,62.0,40.0,False,,206.06493875527622,[],"[720, 450]",ColorTask,19.0,45.0,,,HRV,HRV_0191,2022-11-30 19:02:22
,wl-rdm,53,175541,0.0-6.45-0.45,0.0,54.0,,,,,,,[],,,,,,87.9,0.0,u,0.0,True,908.0000000596046,54.0,62.0,40.0,False,,228.524894051834,[],"[720, 450]",ColorTask,20.0,46.0,,,HRV,HRV_0191,2022-11-30 19:02:22
,wl-rdm,54,177592,0.0-6.46-0.46,0.0,55.0,,,,,,,[],,,,,,87.9,1.0,i,1.0,True,705.1000000238419,41.0,62.0,40.0,False,,272.6085614671564,[],"[720, 450]",ColorTask,21.0,47.0,,,HRV,HRV_0191,2022-11-30 19:02:22
,wl-rdm,55,179675,0.0-6.47-0.47,0.0,56.0,,,,,,,[],,,,,,87.9,0.0,u,0.0,True,721.3999999761581,44.0,62.0,40.0,False,,278.6475433942981,[],"[720, 450]",ColorTask,22.0,48.0,,,HRV,HRV_0191,2022-11-30 19:02:22
,wl-rdm,56,181992,0.0-6.48-0.48,0.0,57.0,,,,,,,[],,,,,,53.2,1.0,i,1.0,True,873.0,53.0,62.0,40.0,False,,371.33341606971345,[],"[720, 450]",ColorTask,23.0,49.0,,,HRV,HRV_0191,2022-11-30 19:02:22
,wl-rdm,57,184026,0.0-6.49-0.49,0.0,58.0,,,,,,,[],,,,,,53.2,0.0,i,1.0,False,757.6999999880791,45.0,62.0,40.0,False,,213.68469300115532,[],"[720, 450]",ColorTask,22.0,50.0,,,HRV,HRV_0191,2022-11-30 19:02:22
,wl-rdm,58,186176,0.0-6.50-0.50,0.0,59.0,,,,,,,[],,,,,,62.5,1.0,i,1.0,True,858.1000000238419,52.0,62.0,40.0,False,,208.22603349107047,[],"[720, 450]",ColorTask,23.0,51.0,,,HRV,HRV_0191,2022-11-30 19:02:22
,wl-rdm,59,188311,0.0-6.51-0.51,0.0,60.0,,,,,,,[],,,,,,73.6,1.0,i,1.0,True,759.0,46.0,62.0,40.0,False,,314.4457004001841,[],"[720, 450]",ColorTask,24.0,52.0,,,HRV,HRV_0191,2022-11-30 19:02:22
,wl-rdm,60,190694,0.0-6.52-0.52,0.0,61.0,,,,,,,[],,,,,,53.2,1.0,i,1.0,True,953.6999999880791,58.0,62.0,40.0,False,,348.59868034673434,[],"[720, 450]",ColorTask,25.0,53.0,,,HRV,HRV_0191,2022-11-30 19:02:22
,wl-rdm,61,193094,0.0-6.53-0.53,0.0,62.0,,,,,,,[],,,,,,62.5,1.0,i,1.0,True,1100.4000000357628,66.0,62.0,40.0,False,,224.96721949366835,[],"[720, 450]",ColorTask,26.0,54.0,,,HRV,HRV_0191,2022-11-30 19:02:22
,wl-rdm,62,195226,0.0-6.54-0.54,0.0,63.0,,,,,,,[],,,,,,87.9,1.0,i,1.0,True,774.8000000119209,47.0,62.0,40.0,False,,286.2216894396032,[],"[720, 450]",ColorTask,27.0,55.0,,,HRV,HRV_0191,2022-11-30 19:02:22
,wl-rdm,63,197528,0.0-6.55-0.55,0.0,64.0,,,,,,,[],,,,,,50.0,1.0,i,1.0,True,956.1000000238419,56.0,62.0,40.0,False,,276.90543089175384,[],"[720, 450]",ColorTask,28.0,56.0,,,HRV,HRV_0191,2022-11-30 19:02:22
,wl-rdm,64,200060,0.0-6.56-0.56,0.0,65.0,,,,,,,[],,,,,,62.5,0.0,u,0.0,True,1254.5,72.0,62.0,40.0,False,,209.72508650533234,[],"[720, 450]",ColorTask,29.0,57.0,,,HRV,HRV_0191,2022-11-30 19:02:22
,wl-rdm,65,202311,0.0-6.57-0.57,0.0,66.0,,,,,,,[],,,,,,50.0,0.0,i,1.0,False,945.0,56.0,62.0,40.0,False,,224.88916249549112,[],"[720, 450]",ColorTask,28.0,58.0,,,HRV,HRV_0191,2022-11-30 19:02:22
,wl-rdm,66,204311,0.0-6.58-0.58,0.0,67.0,,,,,,,[],,,,,,87.9,1.0,i,1.0,True,656.2999999523163,40.0,62.0,40.0,False,,259.05384171864625,[],"[720, 450]",ColorTask,29.0,59.0,,,HRV,HRV_0191,2022-11-30 19:02:22
,wl-rdm,67,206546,0.0-6.59-0.59,0.0,68.0,,,,,,,[],,,,,,56.4,1.0,i,1.0,True,891.5,54.0,62.0,40.0,False,,267.3550497932303,[],"[720, 450]",ColorTask,30.0,60.0,,,HRV,HRV_0191,2022-11-30 19:02:22
,wl-rdm,68,208830,0.0-6.60-0.60,0.0,69.0,,,,,,,[],,,,,,62.5,1.0,i,1.0,True,927.9000000357628,56.0,62.0,40.0,False,,285.0611716554983,[],"[720, 450]",ColorTask,31.0,61.0,,,HRV,HRV_0191,2022-11-30 19:02:22
,wl-rdm,69,211012,0.0-6.61-0.61,0.0,70.0,,,,,,,[],,,,,,53.2,0.0,u,0.0,True,853.1000000238419,51.0,62.0,40.0,False,,249.56394977664672,[],"[720, 450]",ColorTask,32.0,62.0,,,HRV,HRV_0191,2022-11-30 19:02:22
,wl-rdm,70,213228,0.0-6.62-0.62,0.0,71.0,,,,,,,[],,,,,,56.4,1.0,i,1.0,True,915.8000000119209,54.0,62.0,40.0,False,,248.9919463529235,[],"[720, 450]",ColorTask,33.0,63.0,,,HRV,HRV_0191,2022-11-30 19:02:22
,wl-rdm,71,215497,0.0-6.63-0.63,0.0,72.0,,,,,,,[],,,,,,62.5,1.0,i,1.0,True,885.0,53.0,62.0,40.0,False,,311.66313491852316,[],"[720, 450]",ColorTask,34.0,64.0,,,HRV,HRV_0191,2022-11-30 19:02:22
,wl-rdm,72,217962,0.0-6.64-0.64,0.0,73.0,,,,,,,[],,,,,,62.5,1.0,i,1.0,True,1056.699999988079,64.0,62.0,40.0,False,,317.34818427749497,[],"[720, 450]",ColorTask,35.0,65.0,,,HRV,HRV_0191,2022-11-30 19:02:22
,wl-rdm,73,220146,0.0-6.65-0.65,0.0,74.0,,,,,,,[],,,,,,73.6,0.0,i,1.0,False,899.8000000119209,54.0,62.0,40.0,False,,205.49503691935485,[],"[720, 450]",ColorTask,34.0,66.0,,,HRV,HRV_0191,2022-11-30 19:02:22
,wl-rdm,74,222196,0.0-6.66-0.66,0.0,75.0,,,,,,,[],,,,,,73.6,0.0,u,0.0,True,760.4000000357628,46.0,62.0,40.0,False,,229.82075382599643,[],"[720, 450]",ColorTask,35.0,67.0,,,HRV,HRV_0191,2022-11-30 19:02:22
,wl-rdm,75,224279,0.0-6.67-0.67,0.0,76.0,,,,,,,[],,,,,,53.2,0.0,i,1.0,False,705.8000000119209,43.0,62.0,40.0,False,,295.40822884274206,[],"[720, 450]",ColorTask,34.0,68.0,,,HRV,HRV_0191,2022-11-30 19:02:22
,wl-rdm,76,226431,0.0-6.68-0.68,0.0,77.0,,,,,,,[],,,,,,87.9,0.0,u,0.0,True,674.0,42.0,62.0,40.0,False,,391.06370889497845,[],"[720, 450]",ColorTask,35.0,69.0,,,HRV,HRV_0191,2022-11-30 19:02:22
,wl-rdm,77,228847,0.0-6.69-0.69,0.0,78.0,,,,,,,[],,,,,,56.4,0.0,i,1.0,False,1043.1000000238419,63.0,62.0,40.0,False,,292.3100365341936,[],"[720, 450]",ColorTask,34.0,70.0,,,HRV,HRV_0191,2022-11-30 19:02:22
,wl-rdm,78,231165,0.0-6.70-0.70,0.0,79.0,,,,,,,[],,,,,,56.4,1.0,i,1.0,True,949.3000000119209,57.0,62.0,40.0,False,,295.1519999138085,[],"[720, 450]",ColorTask,35.0,71.0,,,HRV,HRV_0191,2022-11-30 19:02:22
,wl-rdm,79,233597,0.0-6.71-0.71,0.0,80.0,,,,,,,[],,,,,,56.4,0.0,i,1.0,False,1093.6000000238419,64.0,62.0,40.0,False,,259.6531525231261,[],"[720, 450]",ColorTask,34.0,72.0,,,HRV,HRV_0191,2022-11-30 19:02:22
,wl-rdm,80,236231,0.0-6.72-0.72,0.0,81.0,,,,,,,[],,,,,,73.6,1.0,i,1.0,True,1277.0,77.0,62.0,40.0,False,,291.06478591309593,[],"[720, 450]",ColorTask,35.0,73.0,,,HRV,HRV_0191,2022-11-30 19:02:22
,wl-rdm,81,238753,0.0-6.73-0.73,0.0,82.0,,,,,,,[],,,,,,62.5,0.0,i,1.0,False,1056.9000000357628,64.0,62.0,40.0,False,,386.5006730058228,[],"[720, 450]",ColorTask,34.0,74.0,,,HRV,HRV_0191,2022-11-30 19:02:22
,wl-rdm,82,240998,0.0-6.74-0.74,0.0,83.0,,,,,,,[],,,,,,87.9,0.0,u,0.0,True,800.1000000238419,48.0,62.0,40.0,False,,355.9376469548084,[],"[720, 450]",ColorTask,35.0,75.0,,,HRV,HRV_0191,2022-11-30 19:02:22
,wl-rdm,83,243098,0.0-6.75-0.75,0.0,84.0,,,,,,,[],,,,,,87.9,1.0,i,1.0,True,803.2000000476837,49.0,62.0,40.0,False,,220.8575689968826,[],"[720, 450]",ColorTask,36.0,76.0,,,HRV,HRV_0191,2022-11-30 19:02:22
,wl-rdm,84,245216,0.0-6.76-0.76,0.0,85.0,,,,,,,[],,,,,,50.0,0.0,i,1.0,False,820.0,50.0,62.0,40.0,False,,214.0683618709258,[],"[720, 450]",ColorTask,35.0,77.0,,,HRV,HRV_0191,2022-11-30 19:02:22
,wl-rdm,85,247300,0.0-6.77-0.77,0.0,86.0,,,,,,,[],,,,,,53.2,1.0,i,1.0,True,622.1000000238419,38.0,62.0,40.0,False,,378.25294814172696,[],"[720, 450]",ColorTask,36.0,78.0,,,HRV,HRV_0191,2022-11-30 19:02:22
,wl-rdm,86,249600,0.0-6.78-0.78,0.0,87.0,,,,,,,[],,,,,,62.5,1.0,u,0.0,False,917.3999999761581,55.0,62.0,40.0,False,,299.3900200133131,[],"[720, 450]",ColorTask,35.0,79.0,,,HRV,HRV_0191,2022-11-30 19:02:22
,wl-rdm,87,251699,0.0-6.79-0.79,0.0,88.0,,,,,,,[],,,,,,50.0,1.0,i,1.0,True,748.0,45.0,62.0,40.0,False,,291.794160292274,[],"[720, 450]",ColorTask,36.0,80.0,,,HRV,HRV_0191,2022-11-30 19:02:22
,wl-rdm,88,253883,0.0-6.80-0.80,0.0,89.0,,,,,,,[],,,,,,87.9,0.0,u,0.0,True,904.5,55.0,62.0,40.0,False,,205.70284312905738,[],"[720, 450]",ColorTask,37.0,81.0,,,HRV,HRV_0191,2022-11-30 19:02:22
,wl-rdm,89,256300,0.0-6.81-0.81,0.0,90.0,,,,,,,[],,,,,,62.5,1.0,i,1.0,True,1123.3999999761581,67.0,62.0,40.0,False,,225.73544356846705,[],"[720, 450]",ColorTask,38.0,82.0,,,HRV,HRV_0191,2022-11-30 19:02:22
,wl-rdm,90,258400,0.0-6.82-0.82,0.0,91.0,,,,,,,[],,,,,,62.5,0.0,u,0.0,True,785.5999999642372,47.0,62.0,40.0,False,,235.73178605401534,[],"[720, 450]",ColorTask,39.0,83.0,,,HRV,HRV_0191,2022-11-30 19:02:22
,wl-rdm,91,260449,0.0-6.83-0.83,0.0,92.0,,,,,,,[],,,,,,87.9,0.0,u,0.0,True,679.1000000238419,41.0,62.0,40.0,False,,302.2869126007979,[],"[720, 450]",ColorTask,40.0,84.0,,,HRV,HRV_0191,2022-11-30 19:02:22
,wl-rdm,92,262616,0.0-6.84-0.84,0.0,93.0,,,,,,,[],,,,,,56.4,1.0,i,1.0,True,704.5,43.0,62.0,40.0,False,,396.91647480263885,[],"[720, 450]",ColorTask,41.0,85.0,,,HRV,HRV_0191,2022-11-30 19:02:22
,wl-rdm,93,264766,0.0-6.85-0.85,0.0,94.0,,,,,,,[],,,,,,87.9,0.0,u,0.0,True,837.1999999284744,49.0,62.0,40.0,False,,233.47459974492367,[],"[720, 450]",ColorTask,42.0,86.0,,,HRV,HRV_0191,2022-11-30 19:02:22
,wl-rdm,94,266752,0.0-6.86-0.86,0.0,95.0,,,,,,,[],,,,,,56.4,0.0,i,1.0,False,708.1999999284744,43.0,62.0,40.0,False,,212.00004729889005,[],"[720, 450]",ColorTask,41.0,87.0,,,HRV,HRV_0191,2022-11-30 19:02:22
,wl-rdm,95,268819,0.0-6.87-0.87,0.0,96.0,,,,,,,[],,,,,,73.6,1.0,u,0.0,False,640.7999999523163,39.0,62.0,40.0,False,,343.97435138638343,[],"[720, 450]",ColorTask,40.0,88.0,,,HRV,HRV_0191,2022-11-30 19:02:22
,wl-rdm,96,270885,0.0-6.88-0.88,0.0,97.0,,,,,,,[],,,,,,73.6,0.0,i,1.0,False,770.0999999642372,47.0,62.0,40.0,False,,224.5880782641865,[],"[720, 450]",ColorTask,39.0,89.0,,,HRV,HRV_0191,2022-11-30 19:02:22
,wl-rdm,97,273151,0.0-6.89-0.89,0.0,98.0,,,,,,,[],,,,,,73.6,0.0,u,0.0,True,803.3000000119209,49.0,62.0,40.0,False,,379.604069377821,[],"[720, 450]",ColorTask,40.0,90.0,,,HRV,HRV_0191,2022-11-30 19:02:22
,wl-rdm,98,275317,0.0-6.90-0.90,0.0,99.0,,,,,,,[],,,,,,73.6,1.0,i,1.0,True,743.7999999523163,45.0,62.0,40.0,False,,344.7786343902003,[],"[720, 450]",ColorTask,41.0,91.0,,,HRV,HRV_0191,2022-11-30 19:02:22
,wl-rdm,99,277334,0.0-6.91-0.91,0.0,100.0,,,,,,,[],,,,,,50.0,0.0,i,1.0,False,686.0999999642372,40.0,62.0,40.0,False,,266.33395745975054,[],"[720, 450]",ColorTask,40.0,92.0,,,HRV,HRV_0191,2022-11-30 19:02:22
,wl-rdm,100,279802,0.0-6.92-0.92,0.0,101.0,,,,,,,[],,,,,,56.4,1.0,u,0.0,False,990.8999999761581,59.0,62.0,40.0,False,,391.9727905046786,[],"[720, 450]",ColorTask,39.0,93.0,,,HRV,HRV_0191,2022-11-30 19:02:22
,wl-rdm,101,281984,0.0-6.93-0.93,0.0,102.0,,,,,,,[],,,,,,56.4,1.0,i,1.0,True,818.1999999880791,49.0,62.0,40.0,False,,280.4568305696701,[],"[720, 450]",ColorTask,40.0,94.0,,,HRV,HRV_0191,2022-11-30 19:02:22
,wl-rdm,102,284219,0.0-6.94-0.94,0.0,103.0,,,,,,,[],,,,,,73.6,0.0,u,0.0,True,769.0,46.0,62.0,40.0,False,,376.1430271272621,[],"[720, 450]",ColorTask,41.0,95.0,,,HRV,HRV_0191,2022-11-30 19:02:22
,wl-rdm,103,286553,0.0-6.95-0.95,0.0,104.0,,,,,,,[],,,,,,73.6,0.0,u,0.0,True,1015.6999999880791,61.0,62.0,40.0,False,,252.07392162975543,[],"[720, 450]",ColorTask,42.0,96.0,,,HRV,HRV_0191,2022-11-30 19:02:22
,wl-rdm,104,288571,0.0-6.96-0.96,0.0,105.0,,,,,,,[],,,,,,53.2,1.0,i,1.0,True,694.3999999761581,41.0,62.0,40.0,False,,258.4339752223018,[],"[720, 450]",ColorTask,43.0,97.0,,,HRV,HRV_0191,2022-11-30 19:02:22
,wl-rdm,105,290536,0.0-6.97-0.97,0.0,106.0,,,,,,,[],,,,,,53.2,0.0,i,1.0,False,564.1000000238419,34.0,62.0,40.0,False,,332.22640831131616,[],"[720, 450]",ColorTask,42.0,98.0,,,HRV,HRV_0191,2022-11-30 19:02:22
,wl-rdm,106,293020,0.0-6.98-0.98,0.0,107.0,,,,,,,[],,,,,,56.4,0.0,u,0.0,True,1020.1000000238419,62.0,62.0,40.0,False,,367.84956848514423,[],"[720, 450]",ColorTask,43.0,99.0,,,HRV,HRV_0191,2022-11-30 19:02:22
,wl-rdm,107,295136,0.0-6.99-0.99,0.0,108.0,,,,,,,[],,,,,,87.9,1.0,i,1.0,True,781.8000000119209,46.0,62.0,40.0,False,,264.9292328483914,[],"[720, 450]",ColorTask,44.0,100.0,,,HRV,HRV_0191,2022-11-30 19:02:22
,wl-rdm,108,297620,0.0-6.100-0.100,0.0,109.0,,,,,,,[],,,,,,56.4,0.0,i,1.0,False,1040.2999999523163,63.0,62.0,40.0,False,,365.5563233981336,[],"[720, 450]",ColorTask,43.0,101.0,,,HRV,HRV_0191,2022-11-30 19:02:22
,wl-rdm,109,299903,0.0-6.101-0.101,0.0,110.0,,,,,,,[],,,,,,53.2,0.0,u,0.0,True,919.1000000238419,56.0,62.0,40.0,False,,294.1793619974327,[],"[720, 450]",ColorTask,44.0,102.0,,,HRV,HRV_0191,2022-11-30 19:02:22
,wl-rdm,110,302186,0.0-6.102-0.102,0.0,111.0,,,,,,,[],,,,,,56.4,1.0,i,1.0,True,946.5,55.0,62.0,40.0,False,,243.85191968177145,[],"[720, 450]",ColorTask,45.0,103.0,,,HRV,HRV_0191,2022-11-30 19:02:22
,wl-rdm,111,304420,0.0-6.103-0.103,0.0,112.0,,,,,,,[],,,,,,62.5,0.0,u,0.0,True,941.9000000357628,57.0,62.0,40.0,False,,207.71306796077945,[],"[720, 450]",ColorTask,46.0,104.0,,,HRV,HRV_0191,2022-11-30 19:02:22
,wl-rdm,112,306487,0.0-6.104-0.104,0.0,113.0,,,,,,,[],,,,,,87.9,1.0,i,1.0,True,722.5,43.0,62.0,40.0,False,,266.9371880520941,[],"[720, 450]",ColorTask,47.0,105.0,,,HRV,HRV_0191,2022-11-30 19:02:22
,wl-rdm,113,308555,0.0-6.105-0.105,0.0,114.0,,,,,,,[],,,,,,87.9,1.0,i,1.0,True,634.8000000119209,38.0,62.0,40.0,False,,358.84582884290785,[],"[720, 450]",ColorTask,48.0,106.0,,,HRV,HRV_0191,2022-11-30 19:02:22
,wl-rdm,114,310571,0.0-6.106-0.106,0.0,115.0,,,,,,,[],,,,,,87.9,1.0,i,1.0,True,558.5000000596046,33.0,62.0,40.0,False,,392.46541600076625,[],"[720, 450]",ColorTask,49.0,107.0,,,HRV,HRV_0191,2022-11-30 19:02:22
,wl-rdm,115,312822,0.0-6.107-0.107,0.0,116.0,,,,,,,[],,,,,,50.0,1.0,u,0.0,False,940.6999999880791,57.0,62.0,40.0,False,,232.47526908127028,[],"[720, 450]",ColorTask,48.0,108.0,,,HRV,HRV_0191,2022-11-30 19:02:22
,wl-html-keyboard-response,116,373719,0.0-7.0-0.0,1.0,117.0,,,,,,,,58889.60000002384,1.0,0,,,,,,,,,,,,,,,,,,,,,,HRV,HRV_0191,2022-11-30 19:02:22
,wl-rdm,117,376179,0.0-8.0-0.0,1.0,118.0,,,,,,,[],,,,,,56.4,0.0,u,0.0,True,1069.2000000476837,65.0,62.0,40.0,False,,326.3995954364708,[],"[720, 450]",ColorTask,49.0,1.0,,,HRV,HRV_0191,2022-11-30 19:02:22
,wl-rdm,118,378344,0.0-8.1-0.1,1.0,119.0,,,,,,,[],,,,,,53.2,0.0,u,0.0,True,877.0,53.0,62.0,40.0,False,,217.43179665711745,[],"[720, 450]",ColorTask,50.0,2.0,,,HRV,HRV_0191,2022-11-30 19:02:22
,wl-rdm,119,380328,0.0-8.2-0.2,1.0,120.0,,,,,,,[],,,,,,53.2,0.0,u,0.0,True,687.9000000357628,43.0,62.0,40.0,False,,202.55733086834275,[],"[720, 450]",ColorTask,51.0,3.0,,,HRV,HRV_0191,2022-11-30 19:02:22
,wl-rdm,120,382345,0.0-8.3-0.3,1.0,121.0,,,,,,,[],,,,,,73.6,0.0,u,0.0,True,715.8999999761581,44.0,62.0,40.0,False,,206.44504460745108,[],"[720, 450]",ColorTask,52.0,4.0,,,HRV,HRV_0191,2022-11-30 19:02:22
,wl-rdm,121,384595,0.0-8.4-0.4,1.0,122.0,,,,,,,[],,,,,,53.2,1.0,i,1.0,True,954.9999999403954,58.0,62.0,40.0,False,,214.6059537599385,[],"[720, 450]",ColorTask,53.0,5.0,,,HRV,HRV_0191,2022-11-30 19:02:22
,wl-rdm,122,386756,0.0-8.5-0.5,1.0,123.0,,,,,,,[],,,,,,73.6,1.0,i,1.0,True,736.8999999761581,45.0,62.0,40.0,False,,328.6598090494398,[],"[720, 450]",ColorTask,54.0,6.0,,,HRV,HRV_0191,2022-11-30 19:02:22
,wl-rdm,123,388795,0.0-8.6-0.6,1.0,124.0,,,,,,,[],,,,,,73.6,0.0,u,0.0,True,578.0999999642372,35.0,62.0,40.0,False,,373.4524094600893,[],"[720, 450]",ColorTask,55.0,7.0,,,HRV,HRV_0191,2022-11-30 19:02:22
,wl-rdm,124,390730,0.0-8.7-0.7,1.0,125.0,,,,,,,[],,,,,,50.0,0.0,i,1.0,False,654.7999999523163,39.0,62.0,40.0,False,,214.52164126818232,[],"[720, 450]",ColorTask,54.0,8.0,,,HRV,HRV_0191,2022-11-30 19:02:22
,wl-rdm,125,392797,0.0-8.8-0.8,1.0,126.0,,,,,,,[],,,,,,50.0,0.0,i,1.0,False,772.8000000119209,45.0,62.0,40.0,False,,228.61376506362365,[],"[720, 450]",ColorTask,53.0,9.0,,,HRV,HRV_0191,2022-11-30 19:02:22
,wl-rdm,126,395362,0.0-8.9-0.9,1.0,127.0,,,,,,,[],,,,,,62.5,0.0,i,1.0,False,1198.5,72.0,62.0,40.0,False,,295.5289292476634,[],"[720, 450]",ColorTask,52.0,10.0,,,HRV,HRV_0191,2022-11-30 19:02:22
,wl-rdm,127,397413,0.0-8.10-0.10,1.0,128.0,,,,,,,[],,,,,,62.5,1.0,u,0.0,False,660.5,40.0,62.0,40.0,False,,288.02478165081186,[],"[720, 450]",ColorTask,51.0,11.0,,,HRV,HRV_0191,2022-11-30 19:02:22
,wl-rdm,128,399662,0.0-8.11-0.11,1.0,129.0,,,,,,,[],,,,,,53.2,1.0,u,0.0,False,960.0999999642372,58.0,62.0,40.0,False,,202.0869901608084,[],"[720, 450]",ColorTask,50.0,12.0,,,HRV,HRV_0191,2022-11-30 19:02:22
,wl-rdm,129,401847,0.0-8.12-0.12,1.0,130.0,,,,,,,[],,,,,,50.0,1.0,i,1.0,True,894.0,54.0,62.0,40.0,False,,211.80027913237498,[],"[720, 450]",ColorTask,51.0,13.0,,,HRV,HRV_0191,2022-11-30 19:02:22
,wl-rdm,130,403963,0.0-8.13-0.13,1.0,131.0,,,,,,,[],,,,,,73.6,0.0,u,0.0,True,825.8000000119209,50.0,62.0,40.0,False,,222.28318077693598,[],"[720, 450]",ColorTask,52.0,14.0,,,HRV,HRV_0191,2022-11-30 19:02:22
,wl-rdm,131,406297,0.0-8.14-0.14,1.0,132.0,,,,,,,[],,,,,,56.4,0.0,i,1.0,False,925.4000000357628,56.0,62.0,40.0,False,,321.31536418542055,[],"[720, 450]",ColorTask,51.0,15.0,,,HRV,HRV_0191,2022-11-30 19:02:22
,wl-rdm,132,408463,0.0-8.15-0.15,1.0,133.0,,,,,,,[],,,,,,62.5,0.0,i,1.0,False,810.1999999284744,48.0,62.0,40.0,False,,268.5126773414672,[],"[720, 450]",ColorTask,50.0,16.0,,,HRV,HRV_0191,2022-11-30 19:02:22
,wl-rdm,133,410464,0.0-8.16-0.16,1.0,134.0,,,,,,,[],,,,,,73.6,1.0,u,0.0,False,720.3999999761581,44.0,62.0,40.0,False,,203.71741524522528,[],"[720, 450]",ColorTask,49.0,17.0,,,HRV,HRV_0191,2022-11-30 19:02:22
,wl-rdm,134,412500,0.0-8.17-0.17,1.0,135.0,,,,,,,[],,,,,,62.5,1.0,i,1.0,True,731.6999999880791,44.0,62.0,40.0,False,,237.55020779406254,[],"[720, 450]",ColorTask,50.0,18.0,,,HRV,HRV_0191,2022-11-30 19:02:22
,wl-rdm,135,414564,0.0-8.18-0.18,1.0,136.0,,,,,,,[],,,,,,56.4,1.0,u,0.0,False,796.1000000238419,47.0,62.0,40.0,False,,214.15660396152143,[],"[720, 450]",ColorTask,49.0,19.0,,,HRV,HRV_0191,2022-11-30 19:02:22
,wl-rdm,136,416598,0.0-8.19-0.19,1.0,137.0,,,,,,,[],,,,,,87.9,0.0,u,0.0,True,718.7999999523163,43.0,62.0,40.0,False,,233.47814194729435,[],"[720, 450]",ColorTask,50.0,20.0,,,HRV,HRV_0191,2022-11-30 19:02:22
,wl-rdm,137,418632,0.0-8.20-0.20,1.0,138.0,,,,,,,[],,,,,,53.2,1.0,i,1.0,True,653.2000000476837,40.0,62.0,40.0,False,,299.19995747651524,[],"[720, 450]",ColorTask,51.0,21.0,,,HRV,HRV_0191,2022-11-30 19:02:22
,wl-rdm,138,420799,0.0-8.21-0.21,1.0,139.0,,,,,,,[],,,,,,50.0,1.0,u,0.0,False,722.7999999523163,44.0,62.0,40.0,False,,357.96424566846093,[],"[720, 450]",ColorTask,50.0,22.0,,,HRV,HRV_0191,2022-11-30 19:02:22
,wl-rdm,139,422965,0.0-8.22-0.22,1.0,140.0,,,,,,,[],,,,,,73.6,1.0,i,1.0,True,741.3999999761581,45.0,62.0,40.0,False,,363.4146604395561,[],"[720, 450]",ColorTask,51.0,23.0,,,HRV,HRV_0191,2022-11-30 19:02:22
,wl-rdm,140,425315,0.0-8.23-0.23,1.0,141.0,,,,,,,[],,,,,,62.5,1.0,i,1.0,True,1017.3000000119209,61.0,62.0,40.0,False,,266.49415369796685,[],"[720, 450]",ColorTask,52.0,24.0,,,HRV,HRV_0191,2022-11-30 19:02:22
,wl-rdm,141,427999,0.0-8.24-0.24,1.0,142.0,,,,,,,[],,,,,,53.2,1.0,i,1.0,True,1241.6000000238419,75.0,62.0,40.0,False,,370.91624663617085,[],"[720, 450]",ColorTask,53.0,25.0,,,HRV,HRV_0191,2022-11-30 19:02:22
,wl-rdm,142,430484,0.0-8.25-0.25,1.0,143.0,,,,,,,[],,,,,,73.6,0.0,u,0.0,True,1212.1000000238419,73.0,62.0,40.0,False,,211.18694741624455,[],"[720, 450]",ColorTask,54.0,26.0,,,HRV,HRV_0191,2022-11-30 19:02:22
,wl-rdm,143,433017,0.0-8.26-0.26,1.0,144.0,,,,,,,[],,,,,,56.4,0.0,u,0.0,True,1228.0,74.0,62.0,40.0,False,,219.70074571213658,[],"[720, 450]",ColorTask,55.0,27.0,,,HRV,HRV_0191,2022-11-30 19:02:22
,wl-rdm,144,435416,0.0-8.27-0.27,1.0,145.0,,,,,,,[],,,,,,56.4,1.0,i,1.0,True,1094.6000000238419,66.0,62.0,40.0,False,,206.0525391843322,[],"[720, 450]",ColorTask,56.0,28.0,,,HRV,HRV_0191,2022-11-30 19:02:22
,wl-rdm,145,437551,0.0-8.28-0.28,1.0,146.0,,,,,,,[],,,,,,62.5,1.0,i,1.0,True,781.3999999761581,47.0,62.0,40.0,False,,285.57005553288764,[],"[720, 450]",ColorTask,57.0,29.0,,,HRV,HRV_0191,2022-11-30 19:02:22
,wl-rdm,146,439801,0.0-8.29-0.29,1.0,147.0,,,,,,,[],,,,,,62.5,0.0,u,0.0,True,825.6999999284744,50.0,62.0,40.0,False,,358.2323467893067,[],"[720, 450]",ColorTask,58.0,30.0,,,HRV,HRV_0191,2022-11-30 19:02:22
,wl-rdm,147,441983,0.0-8.30-0.30,1.0,148.0,,,,,,,[],,,,,,53.2,1.0,i,1.0,True,866.6999999880791,50.0,62.0,40.0,False,,246.07626278950585,[],"[720, 450]",ColorTask,59.0,31.0,,,HRV,HRV_0191,2022-11-30 19:02:22
,wl-rdm,148,443950,0.0-8.31-0.31,1.0,149.0,,,,,,,[],,,,,,87.9,1.0,i,1.0,True,662.5,39.0,62.0,40.0,False,,232.1010755818923,[],"[720, 450]",ColorTask,60.0,32.0,,,HRV,HRV_0191,2022-11-30 19:02:22
,wl-rdm,149,446050,0.0-8.32-0.32,1.0,150.0,,,,,,,[],,,,,,73.6,1.0,i,1.0,True,792.6000000238419,48.0,62.0,40.0,False,,223.7914403688405,[],"[720, 450]",ColorTask,61.0,33.0,,,HRV,HRV_0191,2022-11-30 19:02:22
,wl-rdm,150,448201,0.0-8.33-0.33,1.0,151.0,,,,,,,[],,,,,,53.2,0.0,u,0.0,True,711.4999999403954,44.0,62.0,40.0,False,,334.67698881525996,[],"[720, 450]",ColorTask,62.0,34.0,,,HRV,HRV_0191,2022-11-30 19:02:22
,wl-rdm,151,450451,0.0-8.34-0.34,1.0,152.0,,,,,,,[],,,,,,56.4,0.0,i,1.0,False,825.9000000357628,50.0,62.0,40.0,False,,347.0073674322782,[],"[720, 450]",ColorTask,61.0,35.0,,,HRV,HRV_0191,2022-11-30 19:02:22
,wl-rdm,152,452451,0.0-8.35-0.35,1.0,153.0,,,,,,,[],,,,,,87.9,0.0,u,0.0,True,644.0000000596046,39.0,62.0,40.0,False,,271.98923408830353,[],"[720, 450]",ColorTask,62.0,36.0,,,HRV,HRV_0191,2022-11-30 19:02:22
,wl-rdm,153,454434,0.0-8.36-0.36,1.0,154.0,,,,,,,[],,,,,,73.6,1.0,i,1.0,True,635.5,38.0,62.0,40.0,False,,255.4619773249795,[],"[720, 450]",ColorTask,63.0,37.0,,,HRV,HRV_0191,2022-11-30 19:02:22
,wl-rdm,154,456468,0.0-8.37-0.37,1.0,155.0,,,,,,,[],,,,,,87.9,0.0,u,0.0,True,741.3999999165535,45.0,62.0,40.0,False,,217.38897040812566,[],"[720, 450]",ColorTask,64.0,38.0,,,HRV,HRV_0191,2022-11-30 19:02:22
,wl-rdm,155,458618,0.0-8.38-0.38,1.0,156.0,,,,,,,[],,,,,,73.6,1.0,i,1.0,True,682.3000000119209,41.0,62.0,40.0,False,,388.31885092107905,[],"[720, 450]",ColorTask,65.0,39.0,,,HRV,HRV_0191,2022-11-30 19:02:22
,wl-rdm,156,460634,0.0-8.39-0.39,1.0,157.0,,,,,,,[],,,,,,62.5,1.0,i,1.0,True,726.9999999403954,43.0,62.0,40.0,False,,231.24905706464534,[],"[720, 450]",ColorTask,66.0,40.0,,,HRV,HRV_0191,2022-11-30 19:02:22
,wl-rdm,157,462668,0.0-8.40-0.40,1.0,158.0,,,,,,,[],,,,,,62.5,0.0,u,0.0,True,639.6000000238419,39.0,62.0,40.0,False,,301.8382698756305,[],"[720, 450]",ColorTask,67.0,41.0,,,HRV,HRV_0191,2022-11-30 19:02:22
,wl-rdm,158,464752,0.0-8.41-0.41,1.0,159.0,,,,,,,[],,,,,,87.9,0.0,u,0.0,True,661.0999999642372,40.0,62.0,40.0,False,,352.4205652408766,[],"[720, 450]",ColorTask,68.0,42.0,,,HRV,HRV_0191,2022-11-30 19:02:22
,wl-rdm,159,466869,0.0-8.42-0.42,1.0,160.0,,,,,,,[],,,,,,62.5,1.0,i,1.0,True,709.9000000357628,42.0,62.0,40.0,False,,320.66691624583547,[],"[720, 450]",ColorTask,69.0,43.0,,,HRV,HRV_0191,2022-11-30 19:02:22
,wl-rdm,160,468886,0.0-8.43-0.43,1.0,161.0,,,,,,,[],,,,,,73.6,1.0,i,1.0,True,679.3999999761581,41.0,62.0,40.0,False,,251.78359814180249,[],"[720, 450]",ColorTask,70.0,44.0,,,HRV,HRV_0191,2022-11-30 19:02:22
,wl-rdm,161,470903,0.0-8.44-0.44,1.0,162.0,,,,,,,[],,,,,,73.6,0.0,u,0.0,True,731.7999999523163,44.0,62.0,40.0,False,,229.65472382125566,[],"[720, 450]",ColorTask,71.0,45.0,,,HRV,HRV_0191,2022-11-30 19:02:22
,wl-rdm,162,473104,0.0-8.45-0.45,1.0,163.0,,,,,,,[],,,,,,62.5,1.0,i,1.0,True,819.5,50.0,62.0,40.0,False,,283.10505283945935,[],"[720, 450]",ColorTask,72.0,46.0,,,HRV,HRV_0191,2022-11-30 19:02:22
,wl-rdm,163,475319,0.0-8.46-0.46,1.0,164.0,,,,,,,[],,,,,,53.2,0.0,u,0.0,True,868.4000000357628,52.0,62.0,40.0,False,,269.501573268886,[],"[720, 450]",ColorTask,73.0,47.0,,,HRV,HRV_0191,2022-11-30 19:02:22
,wl-rdm,164,477619,0.0-8.47-0.47,1.0,165.0,,,,,,,[],,,,,,56.4,1.0,i,1.0,True,984.6999999880791,60.0,62.0,40.0,False,,234.8285183301772,[],"[720, 450]",ColorTask,74.0,48.0,,,HRV,HRV_0191,2022-11-30 19:02:22
,wl-rdm,165,479720,0.0-8.48-0.48,1.0,166.0,,,,,,,[],,,,,,50.0,1.0,i,1.0,True,744.6999999880791,44.0,62.0,40.0,False,,298.6778535294136,[],"[720, 450]",ColorTask,75.0,49.0,,,HRV,HRV_0191,2022-11-30 19:02:22
,wl-rdm,166,481871,0.0-8.49-0.49,1.0,167.0,,,,,,,[],,,,,,87.9,0.0,u,0.0,True,774.3999999761581,46.0,62.0,40.0,False,,307.4293819863085,[],"[720, 450]",ColorTask,76.0,50.0,,,HRV,HRV_0191,2022-11-30 19:02:22
,wl-rdm,167,484153,0.0-8.50-0.50,1.0,168.0,,,,,,,[],,,,,,53.2,1.0,i,1.0,True,893.9000000357628,54.0,62.0,40.0,False,,326.1653523964215,[],"[720, 450]",ColorTask,77.0,51.0,,,HRV,HRV_0191,2022-11-30 19:02:22
,wl-rdm,168,486221,0.0-8.51-0.51,1.0,169.0,,,,,,,[],,,,,,50.0,0.0,i,1.0,False,781.8000000119209,47.0,62.0,40.0,False,,208.52532302844332,[],"[720, 450]",ColorTask,76.0,52.0,,,HRV,HRV_0191,2022-11-30 19:02:22
,wl-rdm,169,488304,0.0-8.52-0.52,1.0,170.0,,,,,,,[],,,,,,87.9,0.0,u,0.0,True,720.3000000119209,43.0,62.0,40.0,False,,298.6951160605863,[],"[720, 450]",ColorTask,77.0,53.0,,,HRV,HRV_0191,2022-11-30 19:02:22
,wl-rdm,170,490406,0.0-8.53-0.53,1.0,171.0,,,,,,,[],,,,,,87.9,1.0,i,1.0,True,640.2000000476837,38.0,62.0,40.0,False,,387.8761751720603,[],"[720, 450]",ColorTask,78.0,54.0,,,HRV,HRV_0191,2022-11-30 19:02:22
,wl-rdm,171,492388,0.0-8.54-0.54,1.0,172.0,,,,,,,[],,,,,,87.9,1.0,i,1.0,True,619.3000000119209,38.0,62.0,40.0,False,,301.08725103058293,[],"[720, 450]",ColorTask,79.0,55.0,,,HRV,HRV_0191,2022-11-30 19:02:22
,wl-rdm,172,494421,0.0-8.55-0.55,1.0,173.0,,,,,,,[],,,,,,73.6,1.0,i,1.0,True,745.4000000357628,44.0,62.0,40.0,False,,212.9550938195989,[],"[720, 450]",ColorTask,80.0,56.0,,,HRV,HRV_0191,2022-11-30 19:02:22
,wl-rdm,173,496589,0.0-8.56-0.56,1.0,174.0,,,,,,,[],,,,,,62.5,1.0,i,1.0,True,880.8999999761581,52.0,62.0,40.0,False,,231.33216936090216,[],"[720, 450]",ColorTask,81.0,57.0,,,HRV,HRV_0191,2022-11-30 19:02:22
,wl-rdm,174,498906,0.0-8.57-0.57,1.0,175.0,,,,,,,[],,,,,,56.4,0.0,u,0.0,True,952.8000000119209,58.0,62.0,40.0,False,,282.23465906268916,[],"[720, 450]",ColorTask,82.0,58.0,,,HRV,HRV_0191,2022-11-30 19:02:22
,wl-rdm,175,501056,0.0-8.58-0.58,1.0,176.0,,,,,,,[],,,,,,53.2,1.0,i,1.0,True,724.2000000476837,43.0,62.0,40.0,False,,347.86996384676615,[],"[720, 450]",ColorTask,83.0,59.0,,,HRV,HRV_0191,2022-11-30 19:02:22
,wl-rdm,176,503072,0.0-8.59-0.59,1.0,177.0,,,,,,,[],,,,,,73.6,1.0,i,1.0,True,636.3000000715256,39.0,62.0,40.0,False,,306.7085781046125,[],"[720, 450]",ColorTask,84.0,60.0,,,HRV,HRV_0191,2022-11-30 19:02:22
,wl-rdm,177,505206,0.0-8.60-0.60,1.0,178.0,,,,,,,[],,,,,,56.4,0.0,i,1.0,False,769.5000000596046,46.0,62.0,40.0,False,,268.7406458806593,[],"[720, 450]",ColorTask,83.0,61.0,,,HRV,HRV_0191,2022-11-30 19:02:22
,wl-rdm,178,507390,0.0-8.61-0.61,1.0,179.0,,,,,,,[],,,,,,87.9,0.0,i,1.0,False,781.8000000119209,47.0,62.0,40.0,False,,331.68667477274073,[],"[720, 450]",ColorTask,82.0,62.0,,,HRV,HRV_0191,2022-11-30 19:02:22
,wl-rdm,179,509874,0.0-8.62-0.62,1.0,180.0,,,,,,,[],,,,,,50.0,0.0,i,1.0,False,1143.199999988079,69.0,62.0,40.0,False,,274.9679844040618,[],"[720, 450]",ColorTask,81.0,63.0,,,HRV,HRV_0191,2022-11-30 19:02:22
,wl-rdm,180,512425,0.0-8.63-0.63,1.0,181.0,,,,,,,[],,,,,,56.4,0.0,i,1.0,False,1192.5999999642372,72.0,62.0,40.0,False,,278.6498352339865,[],"[720, 450]",ColorTask,80.0,64.0,,,HRV,HRV_0191,2022-11-30 19:02:22
,wl-rdm,181,514892,0.0-8.64-0.64,1.0,182.0,,,,,,,[],,,,,,73.6,0.0,u,0.0,True,1105.800000011921,66.0,62.0,40.0,False,,284.8465003060678,[],"[720, 450]",ColorTask,81.0,65.0,,,HRV,HRV_0191,2022-11-30 19:02:22
,wl-rdm,182,517240,0.0-8.65-0.65,1.0,183.0,,,,,,,[],,,,,,50.0,0.0,i,1.0,False,1002.7999999523163,61.0,62.0,40.0,False,,274.5043215965824,[],"[720, 450]",ColorTask,80.0,66.0,,,HRV,HRV_0191,2022-11-30 19:02:22
,wl-rdm,183,519474,0.0-8.66-0.66,1.0,184.0,,,,,,,[],,,,,,56.4,0.0,u,0.0,True,808.0,49.0,62.0,40.0,False,,363.8285780777996,[],"[720, 450]",ColorTask,81.0,67.0,,,HRV,HRV_0191,2022-11-30 19:02:22
,wl-rdm,184,521541,0.0-8.67-0.67,1.0,185.0,,,,,,,[],,,,,,62.5,1.0,i,1.0,True,771.6999999284744,47.0,62.0,40.0,False,,203.99134385556587,[],"[720, 450]",ColorTask,82.0,68.0,,,HRV,HRV_0191,2022-11-30 19:02:22
,wl-rdm,185,523708,0.0-8.68-0.68,1.0,186.0,,,,,,,[],,,,,,87.9,1.0,i,1.0,True,806.5,49.0,62.0,40.0,False,,276.88731296860897,[],"[720, 450]",ColorTask,83.0,69.0,,,HRV,HRV_0191,2022-11-30 19:02:22
,wl-rdm,186,525791,0.0-8.69-0.69,1.0,187.0,,,,,,,[],,,,,,50.0,0.0,u,0.0,True,801.2999999523163,48.0,62.0,40.0,False,,208.37587112422742,[],"[720, 450]",ColorTask,84.0,70.0,,,HRV,HRV_0191,2022-11-30 19:02:22
,wl-rdm,187,527909,0.0-8.70-0.70,1.0,188.0,,,,,,,[],,,,,,50.0,1.0,i,1.0,True,798.3999999761581,48.0,62.0,40.0,False,,255.84881941938824,[],"[720, 450]",ColorTask,85.0,71.0,,,HRV,HRV_0191,2022-11-30 19:02:22
,wl-rdm,188,530209,0.0-8.71-0.71,1.0,189.0,,,,,,,[],,,,,,62.5,0.0,i,1.0,False,942.3000000119209,57.0,62.0,40.0,False,,285.35522170394654,[],"[720, 450]",ColorTask,84.0,72.0,,,HRV,HRV_0191,2022-11-30 19:02:22
,wl-rdm,189,532624,0.0-8.72-0.72,1.0,190.0,,,,,,,[],,,,,,50.0,1.0,u,0.0,False,997.6000000238419,60.0,62.0,40.0,False,,350.57633201267316,[],"[720, 450]",ColorTask,83.0,73.0,,,HRV,HRV_0191,2022-11-30 19:02:22
,wl-rdm,190,534859,0.0-8.73-0.73,1.0,191.0,,,,,,,[],,,,,,50.0,0.0,u,0.0,True,912.1000000238419,55.0,62.0,40.0,False,,239.10093736116156,[],"[720, 450]",ColorTask,84.0,74.0,,,HRV,HRV_0191,2022-11-30 19:02:22
,wl-rdm,191,537142,0.0-8.74-0.74,1.0,192.0,,,,,,,[],,,,,,62.5,0.0,u,0.0,True,883.8000000119209,51.0,62.0,40.0,False,,328.6929996628471,[],"[720, 450]",ColorTask,85.0,75.0,,,HRV,HRV_0191,2022-11-30 19:02:22
,wl-rdm,192,539409,0.0-8.75-0.75,1.0,193.0,,,,,,,[],,,,,,56.4,1.0,i,1.0,True,976.1000000238419,59.0,62.0,40.0,False,,211.10678078470985,[],"[720, 450]",ColorTask,86.0,76.0,,,HRV,HRV_0191,2022-11-30 19:02:22
,wl-rdm,193,541784,0.0-8.76-0.76,1.0,194.0,,,,,,,[],,,,,,50.0,0.0,u,0.0,True,1056.4000000357628,64.0,62.0,40.0,False,,245.2149481460238,[],"[720, 450]",ColorTask,87.0,77.0,,,HRV,HRV_0191,2022-11-30 19:02:22
,wl-rdm,194,544176,0.0-8.77-0.77,1.0,195.0,,,,,,,[],,,,,,53.2,1.0,i,1.0,True,933.6000000238419,56.0,62.0,40.0,False,,397.32446070588344,[],"[720, 450]",ColorTask,88.0,78.0,,,HRV,HRV_0191,2022-11-30 19:02:22
,wl-rdm,195,546643,0.0-8.78-0.78,1.0,196.0,,,,,,,[],,,,,,87.9,1.0,u,0.0,False,1144.800000011921,68.0,62.0,40.0,False,,251.71713437756358,[],"[720, 450]",ColorTask,87.0,79.0,,,HRV,HRV_0191,2022-11-30 19:02:22
,wl-rdm,196,549626,0.0-8.79-0.79,1.0,197.0,,,,,,,[],,,,,,50.0,0.0,u,0.0,True,1525.6999999284744,92.0,62.0,40.0,False,,396.06489521531967,[],"[720, 450]",ColorTask,88.0,80.0,,,HRV,HRV_0191,2022-11-30 19:02:22
,wl-rdm,197,551627,0.0-8.80-0.80,1.0,198.0,,,,,,,[],,,,,,56.4,1.0,i,1.0,True,687.0,42.0,62.0,40.0,False,,244.12772293195954,[],"[720, 450]",ColorTask,89.0,81.0,,,HRV,HRV_0191,2022-11-30 19:02:22
,wl-rdm,198,553777,0.0-8.81-0.81,1.0,199.0,,,,,,,[],,,,,,73.6,0.0,u,0.0,True,871.0000000596046,53.0,62.0,40.0,False,,203.34115630290412,[],"[720, 450]",ColorTask,90.0,82.0,,,HRV,HRV_0191,2022-11-30 19:02:22
,wl-rdm,199,555797,0.0-8.82-0.82,1.0,200.0,,,,,,,[],,,,,,50.0,1.0,i,1.0,True,692.1999999880791,42.0,62.0,40.0,False,,248.96515685962896,[],"[720, 450]",ColorTask,91.0,83.0,,,HRV,HRV_0191,2022-11-30 19:02:22
,wl-rdm,200,558044,0.0-8.83-0.83,1.0,201.0,,,,,,,[],,,,,,62.5,0.0,u,0.0,True,772.0999999642372,47.0,62.0,40.0,False,,388.16950501779496,[],"[720, 450]",ColorTask,92.0,84.0,,,HRV,HRV_0191,2022-11-30 19:02:22
,wl-rdm,201,560394,0.0-8.84-0.84,1.0,202.0,,,,,,,[],,,,,,50.0,1.0,u,0.0,False,1001.4000000357628,60.0,62.0,40.0,False,,279.8014835371333,[],"[720, 450]",ColorTask,91.0,85.0,,,HRV,HRV_0191,2022-11-30 19:02:22
,wl-rdm,202,562595,0.0-8.85-0.85,1.0,203.0,,,,,,,[],,,,,,53.2,0.0,u,0.0,True,745.6000000238419,45.0,62.0,40.0,False,,370.90323195071284,[],"[720, 450]",ColorTask,92.0,86.0,,,HRV,HRV_0191,2022-11-30 19:02:22
,wl-rdm,203,564761,0.0-8.86-0.86,1.0,204.0,,,,,,,[],,,,,,87.9,1.0,i,1.0,True,751.6999999880791,45.0,62.0,40.0,False,,339.0003914580285,[],"[720, 450]",ColorTask,93.0,87.0,,,HRV,HRV_0191,2022-11-30 19:02:22
,wl-rdm,204,567062,0.0-8.87-0.87,1.0,205.0,,,,,,,[],,,,,,56.4,1.0,u,0.0,False,928.1000000238419,56.0,62.0,40.0,False,,293.96667957028603,[],"[720, 450]",ColorTask,92.0,88.0,,,HRV,HRV_0191,2022-11-30 19:02:22
,wl-rdm,205,569129,0.0-8.88-0.88,1.0,206.0,,,,,,,[],,,,,,62.5,0.0,u,0.0,True,772.1000000238419,47.0,62.0,40.0,False,,203.77498620767287,[],"[720, 450]",ColorTask,93.0,89.0,,,HRV,HRV_0191,2022-11-30 19:02:22
,wl-rdm,206,571246,0.0-8.89-0.89,1.0,207.0,,,,,,,[],,,,,,87.9,0.0,u,0.0,True,767.8000000119209,45.0,62.0,40.0,False,,270.7767760315785,[],"[720, 450]",ColorTask,94.0,90.0,,,HRV,HRV_0191,2022-11-30 19:02:22
,wl-rdm,207,573397,0.0-8.90-0.90,1.0,208.0,,,,,,,[],,,,,,56.4,1.0,i,1.0,True,806.3999999761581,49.0,62.0,40.0,False,,282.07904548947533,[],"[720, 450]",ColorTask,95.0,91.0,,,HRV,HRV_0191,2022-11-30 19:02:22
,wl-rdm,208,575530,0.0-8.91-0.91,1.0,209.0,,,,,,,[],,,,,,87.9,1.0,i,1.0,True,688.2000000476837,42.0,62.0,40.0,False,,350.27584190839525,[],"[720, 450]",ColorTask,96.0,92.0,,,HRV,HRV_0191,2022-11-30 19:02:22
,wl-rdm,209,577814,0.0-8.92-0.92,1.0,210.0,,,,,,,[],,,,,,50.0,1.0,i,1.0,True,856.6000000238419,51.0,62.0,40.0,False,,343.3489375456149,[],"[720, 450]",ColorTask,97.0,93.0,,,HRV,HRV_0191,2022-11-30 19:02:22
,wl-rdm,210,580163,0.0-8.93-0.93,1.0,211.0,,,,,,,[],,,,,,53.2,0.0,i,1.0,False,890.5000000596046,53.0,62.0,40.0,False,,378.29380194613236,[],"[720, 450]",ColorTask,96.0,94.0,,,HRV,HRV_0191,2022-11-30 19:02:22
,wl-rdm,211,582498,0.0-8.94-0.94,1.0,212.0,,,,,,,[],,,,,,56.4,1.0,i,1.0,True,998.3999999761581,60.0,62.0,40.0,False,,272.97815380607875,[],"[720, 450]",ColorTask,97.0,95.0,,,HRV,HRV_0191,2022-11-30 19:02:22
,wl-rdm,212,584630,0.0-8.95-0.95,1.0,213.0,,,,,,,[],,,,,,87.9,1.0,i,1.0,True,669.5999999642372,40.0,62.0,40.0,False,,392.1497572953414,[],"[720, 450]",ColorTask,98.0,96.0,,,HRV,HRV_0191,2022-11-30 19:02:22
,wl-rdm,213,586747,0.0-8.96-0.96,1.0,214.0,,,,,,,[],,,,,,73.6,0.0,u,0.0,True,833.0,50.0,62.0,40.0,False,,215.84218769477317,[],"[720, 450]",ColorTask,99.0,97.0,,,HRV,HRV_0191,2022-11-30 19:02:22
,wl-rdm,214,588905,0.0-8.97-0.97,1.0,215.0,,,,,,,[],,,,,,87.9,0.0,u,0.0,True,830.6999999880791,50.0,62.0,40.0,False,,258.8291316332972,[],"[720, 450]",ColorTask,100.0,98.0,,,HRV,HRV_0191,2022-11-30 19:02:22
,wl-rdm,215,591031,0.0-8.98-0.98,1.0,216.0,,,,,,,[],,,,,,53.2,0.0,u,0.0,True,721.3999999761581,44.0,62.0,40.0,False,,330.3531706679663,[],"[720, 450]",ColorTask,101.0,99.0,,,HRV,HRV_0191,2022-11-30 19:02:22
,wl-rdm,216,593165,0.0-8.99-0.99,1.0,217.0,,,,,,,[],,,,,,62.5,0.0,u,0.0,True,837.5,51.0,62.0,40.0,False,,214.5067449125818,[],"[720, 450]",ColorTask,102.0,100.0,,,HRV,HRV_0191,2022-11-30 19:02:22
,wl-rdm,217,595414,0.0-8.100-0.100,1.0,218.0,,,,,,,[],,,,,,53.2,0.0,i,1.0,False,974.3000000119209,59.0,62.0,40.0,False,,209.2812385564182,[],"[720, 450]",ColorTask,101.0,101.0,,,HRV,HRV_0191,2022-11-30 19:02:22
,wl-rdm,218,597815,0.0-8.101-0.101,1.0,219.0,,,,,,,[],,,,,,53.2,1.0,i,1.0,True,1001.1000000238419,60.0,62.0,40.0,False,,304.04485492454205,[],"[720, 450]",ColorTask,102.0,102.0,,,HRV,HRV_0191,2022-11-30 19:02:22
,wl-rdm,219,600065,0.0-8.102-0.102,1.0,220.0,,,,,,,[],,,,,,50.0,1.0,i,1.0,True,970.7000000476837,59.0,62.0,40.0,False,,204.84433409310532,[],"[720, 450]",ColorTask,103.0,103.0,,,HRV,HRV_0191,2022-11-30 19:02:22
,wl-rdm,220,602398,0.0-8.103-0.103,1.0,221.0,,,,,,,[],,,,,,73.6,0.0,u,0.0,True,887.6000000238419,53.0,62.0,40.0,False,,318.6824342365424,[],"[720, 450]",ColorTask,104.0,104.0,,,HRV,HRV_0191,2022-11-30 19:02:22
,wl-rdm,221,604515,0.0-8.104-0.104,1.0,222.0,,,,,,,[],,,,,,87.9,1.0,i,1.0,True,812.8999999761581,48.0,62.0,40.0,False,,229.0391448429077,[],"[720, 450]",ColorTask,105.0,105.0,,,HRV,HRV_0191,2022-11-30 19:02:22
,wl-rdm,222,606716,0.0-8.105-0.105,1.0,223.0,,,,,,,[],,,,,,53.2,0.0,i,1.0,False,823.2000000476837,48.0,62.0,40.0,False,,302.47545569902724,[],"[720, 450]",ColorTask,104.0,106.0,,,HRV,HRV_0191,2022-11-30 19:02:22
,wl-rdm,223,609432,0.0-8.106-0.106,1.0,224.0,,,,,,,[],,,,,,56.4,1.0,u,0.0,False,1242.0,74.0,62.0,40.0,False,,395.5061171285263,[],"[720, 450]",ColorTask,103.0,107.0,,,HRV,HRV_0191,2022-11-30 19:02:22
,wl-rdm,224,612233,0.0-8.107-0.107,1.0,225.0,,,,,,,[],,,,,,56.4,0.0,u,0.0,True,1434.5999999642372,85.0,62.0,40.0,False,,295.6355087011997,[],"[720, 450]",ColorTask,104.0,108.0,,,HRV,HRV_0191,2022-11-30 19:02:22
,wl-html-button-response,225,615027,0.0-9.0-0.0,,,,,,,,,,2788.099999964237,,0,,,,,,,,,,,,,,,,,,,,<h3>End of this session. Thank you!</h3><br>,['Close window'],HRV,HRV_0191,2022-11-30 19:02:22
