trialN,stimuli,trialStartTime,trialStartTime_UNIX,stimulus1,stimulus2,stimulus1Bid,stimulus2Bid,delta,selected,rt,rt_UNIX,rt_perfnow,receivedResponse,rsp,trialEndTime,trialDuration,trialEndTime_UNIX,trialDuration_UNIX,exp,subjectId,date
0,"[{'imgObject': {}, 'id': 'burrito', 'src': '/static/foodstim60/burrito.jpg', 'key': 'u', 'origWidth': 410, 'origHeight': 410, 'width': 410, 'height': 410, 'widthPercent': 0.45, 'rescaleHeight': False, 'trialN': 0, 'loaded': True, 'loadedTime': 2537.899999976158, 'positionName': 'LEFT', 'positionCoords': [281.2, 245], 'bid': 8.31}, {'imgObject': {}, 'id': 'froot loops w milk', 'src': '/static/foodstim60/froot loops w milk.jpg', 'key': 'i', 'origWidth': 410, 'origHeight': 410, 'width': 410, 'height': 410, 'widthPercent': 0.45, 'rescaleHeight': False, 'trialN': 0, 'loaded': True, 'loadedTime': 2531.5, 'positionName': 'RIGHT', 'positionCoords': [748.8, 245], 'bid': 0.06}]",3683.899999976158,1669833999030,burrito,froot loops w milk,8.31,0.06,-8.25,burrito,1385.6000000238419,1398,1397.5,True,u,5582.300000011921,1898.4000000357628,1669834000929,1899,HRV,HRV_0191,2022-11-30 18:52:00
1,"[{'imgObject': {}, 'id': 'lox', 'src': '/static/foodstim60/lox.jpg', 'key': 'u', 'origWidth': 410, 'origHeight': 411, 'width': 410, 'height': 411, 'widthPercent': 0.45, 'rescaleHeight': False, 'trialN': 1, 'loaded': True, 'loadedTime': 2536, 'positionName': 'LEFT', 'positionCoords': [281.2, 244.5], 'bid': 9.93}, {'imgObject': {}, 'id': 'grilled chicken strips', 'src': '/static/foodstim60/grilled chicken strips.jpg', 'key': 'i', 'origWidth': 410, 'origHeight': 411, 'width': 410, 'height': 411, 'widthPercent': 0.45, 'rescaleHeight': False, 'trialN': 1, 'loaded': True, 'loadedTime': 2556.899999976158, 'positionName': 'RIGHT', 'positionCoords': [748.8, 244.5], 'bid': 9.87}]",5582.600000023842,1669834000929,lox,grilled chicken strips,9.93,9.87,-0.0600000000000005,lox,1046.0,1053,1052.699999988079,True,u,7136.300000011921,1553.699999988079,1669834002483,1554,HRV,HRV_0191,2022-11-30 18:52:00
2,"[{'imgObject': {}, 'id': 'luckycharms', 'src': '/static/foodstim60/luckycharms.jpg', 'key': 'u', 'origWidth': 410, 'origHeight': 409, 'width': 410, 'height': 409, 'widthPercent': 0.45, 'rescaleHeight': False, 'trialN': 2, 'loaded': True, 'loadedTime': 2564.5, 'positionName': 'LEFT', 'positionCoords': [281.2, 245.5], 'bid': 0.19}, {'imgObject': {}, 'id': 'steak', 'src': '/static/foodstim60/steak.jpg', 'key': 'i', 'origWidth': 410, 'origHeight': 410, 'width': 410, 'height': 410, 'widthPercent': 0.45, 'rescaleHeight': False, 'trialN': 2, 'loaded': True, 'loadedTime': 2562.800000011921, 'positionName': 'RIGHT', 'positionCoords': [748.8, 245], 'bid': 4.95}]",7136.5,1669834002483,luckycharms,steak,0.19,4.95,4.76,steak,822.0,843,843.1000000238419,True,i,8480.600000023842,1344.1000000238419,1669834003827,1344,HRV,HRV_0191,2022-11-30 18:52:00
3,"[{'imgObject': {}, 'id': 'cocktailshrimp', 'src': '/static/foodstim60/cocktailshrimp.jpg', 'key': 'u', 'origWidth': 410, 'origHeight': 410, 'width': 410, 'height': 410, 'widthPercent': 0.45, 'rescaleHeight': False, 'trialN': 3, 'loaded': True, 'loadedTime': 2583.100000023842, 'positionName': 'LEFT', 'positionCoords': [281.2, 245], 'bid': 9.86}, {'imgObject': {}, 'id': 'yogurt no spoon', 'src': '/static/foodstim60/yogurt no spoon.jpg', 'key': 'i', 'origWidth': 411, 'origHeight': 410, 'width': 411, 'height': 410, 'widthPercent': 0.45, 'rescaleHeight': False, 'trialN': 3, 'loaded': True, 'loadedTime': 2593.5, 'positionName': 'RIGHT', 'positionCoords': [748.8, 245], 'bid': 9.84}]",8480.699999988079,1669834003827,cocktailshrimp,yogurt no spoon,9.86,9.84,-0.019999999999999574,cocktailshrimp,906.6999999880791,914,913.4000000357628,True,u,9895.100000023842,1414.4000000357628,1669834005242,1415,HRV,HRV_0191,2022-11-30 18:52:00
4,"[{'imgObject': {}, 'id': 'cherry tomato', 'src': '/static/foodstim60/cherry tomato.jpg', 'key': 'u', 'origWidth': 410, 'origHeight': 410, 'width': 410, 'height': 410, 'widthPercent': 0.45, 'rescaleHeight': False, 'trialN': 4, 'loaded': True, 'loadedTime': 2582.5, 'positionName': 'LEFT', 'positionCoords': [281.2, 245], 'bid': 7.76}, {'imgObject': {}, 'id': 'burrito', 'src': '/static/foodstim60/burrito.jpg', 'key': 'i', 'origWidth': 410, 'origHeight': 410, 'width': 410, 'height': 410, 'widthPercent': 0.45, 'rescaleHeight': False, 'trialN': 4, 'loaded': True, 'loadedTime': 2540.800000011921, 'positionName': 'RIGHT', 'positionCoords': [748.8, 245], 'bid': 8.31}]",9895.399999976158,1669834005242,cherry tomato,burrito,7.76,8.31,0.5500000000000007,burrito,1360.7000000476837,1373,1373.300000011921,True,i,11769.600000023842,1874.2000000476837,1669834007116,1874,HRV,HRV_0191,2022-11-30 18:52:00
5,"[{'imgObject': {}, 'id': 'yogurt no spoon', 'src': '/static/foodstim60/yogurt no spoon.jpg', 'key': 'u', 'origWidth': 411, 'origHeight': 410, 'width': 411, 'height': 410, 'widthPercent': 0.45, 'rescaleHeight': False, 'trialN': 5, 'loaded': True, 'loadedTime': 2593.699999988079, 'positionName': 'LEFT', 'positionCoords': [280.2, 245], 'bid': 9.84}, {'imgObject': {}, 'id': 'turkey sandwich', 'src': '/static/foodstim60/turkey sandwich.jpg', 'key': 'i', 'origWidth': 409, 'origHeight': 409, 'width': 409, 'height': 409, 'widthPercent': 0.45, 'rescaleHeight': False, 'trialN': 5, 'loaded': True, 'loadedTime': 2599.5, 'positionName': 'RIGHT', 'positionCoords': [748.8, 245.5], 'bid': 9.73}]",11769.800000011921,1669834007116,yogurt no spoon,turkey sandwich,9.84,9.73,-0.10999999999999943,turkey sandwich,966.3999999761581,973,972.3000000119209,True,i,13242.699999988079,1472.8999999761581,1669834008589,1473,HRV,HRV_0191,2022-11-30 18:52:00
6,"[{'imgObject': {}, 'id': 'grilled chicken strips', 'src': '/static/foodstim60/grilled chicken strips.jpg', 'key': 'u', 'origWidth': 410, 'origHeight': 411, 'width': 410, 'height': 411, 'widthPercent': 0.45, 'rescaleHeight': False, 'trialN': 6, 'loaded': True, 'loadedTime': 2541.199999988079, 'positionName': 'LEFT', 'positionCoords': [281.2, 244.5], 'bid': 9.87}, {'imgObject': {}, 'id': 'veggieswithdip', 'src': '/static/foodstim60/veggieswithdip.jpg', 'key': 'i', 'origWidth': 409, 'origHeight': 409, 'width': 409, 'height': 409, 'widthPercent': 0.45, 'rescaleHeight': False, 'trialN': 6, 'loaded': True, 'loadedTime': 2594.5, 'positionName': 'RIGHT', 'positionCoords': [748.8, 245.5], 'bid': 9.88}]",13242.800000011921,1669834008589,grilled chicken strips,veggieswithdip,9.87,9.88,0.010000000000001563,grilled chicken strips,2080.199999988079,2087,2086.5,True,u,15829.699999988079,2586.899999976158,1669834011176,2587,HRV,HRV_0191,2022-11-30 18:52:00
7,"[{'imgObject': {}, 'id': 'Grapes', 'src': '/static/foodstim60/Grapes.jpg', 'key': 'u', 'origWidth': 411, 'origHeight': 411, 'width': 411, 'height': 411, 'widthPercent': 0.45, 'rescaleHeight': False, 'trialN': 7, 'loaded': True, 'loadedTime': 2609.699999988079, 'positionName': 'LEFT', 'positionCoords': [280.2, 244.5], 'bid': 10}, {'imgObject': {}, 'id': 'salad w chicken', 'src': '/static/foodstim60/salad w chicken.jpg', 'key': 'i', 'origWidth': 411, 'origHeight': 411, 'width': 411, 'height': 411, 'widthPercent': 0.45, 'rescaleHeight': False, 'trialN': 7, 'loaded': True, 'loadedTime': 2600.199999988079, 'positionName': 'RIGHT', 'positionCoords': [748.8, 244.5], 'bid': 7.0200000000000005}]",15829.800000011921,1669834011177,Grapes,salad w chicken,10.0,7.0200000000000005,-2.9799999999999995,salad w chicken,1194.3999999761581,1215,1215.800000011921,True,i,17546.100000023842,1716.300000011921,1669834012893,1716,HRV,HRV_0191,2022-11-30 18:52:00
8,"[{'imgObject': {}, 'id': 'cherry tomato', 'src': '/static/foodstim60/cherry tomato.jpg', 'key': 'u', 'origWidth': 410, 'origHeight': 410, 'width': 410, 'height': 410, 'widthPercent': 0.45, 'rescaleHeight': False, 'trialN': 8, 'loaded': True, 'loadedTime': 2582.600000023842, 'positionName': 'LEFT', 'positionCoords': [281.2, 245], 'bid': 7.76}, {'imgObject': {}, 'id': 'hotdog w must', 'src': '/static/foodstim60/hotdog w must.jpg', 'key': 'i', 'origWidth': 409, 'origHeight': 409, 'width': 409, 'height': 409, 'widthPercent': 0.45, 'rescaleHeight': False, 'trialN': 8, 'loaded': True, 'loadedTime': 2737.899999976158, 'positionName': 'RIGHT', 'positionCoords': [748.8, 245.5], 'bid': 0.06}]",17546.30000001192,1669834012893,cherry tomato,hotdog w must,7.76,0.06,-7.7,cherry tomato,979.6999999880791,986,986.0,True,u,19032.600000023842,1486.300000011921,1669834014379,1486,HRV,HRV_0191,2022-11-30 18:52:00
9,"[{'imgObject': {}, 'id': 'olives', 'src': '/static/foodstim60/olives.jpg', 'key': 'u', 'origWidth': 410, 'origHeight': 410, 'width': 410, 'height': 410, 'widthPercent': 0.45, 'rescaleHeight': False, 'trialN': 9, 'loaded': True, 'loadedTime': 2981.699999988079, 'positionName': 'LEFT', 'positionCoords': [281.2, 245], 'bid': 9.97}, {'imgObject': {}, 'id': 'fruitsalad', 'src': '/static/foodstim60/fruitsalad.jpg', 'key': 'i', 'origWidth': 410, 'origHeight': 410, 'width': 410, 'height': 410, 'widthPercent': 0.45, 'rescaleHeight': False, 'trialN': 9, 'loaded': True, 'loadedTime': 2783, 'positionName': 'RIGHT', 'positionCoords': [748.8, 245], 'bid': 10}]",19032.80000001192,1669834014380,olives,fruitsalad,9.97,10.0,0.02999999999999936,fruitsalad,1357.8999999761581,1365,1365.300000011921,True,i,20898.5,1865.699999988079,1669834016245,1865,HRV,HRV_0191,2022-11-30 18:52:00
10,"[{'imgObject': {}, 'id': 'edamame', 'src': '/static/foodstim60/edamame.jpg', 'key': 'u', 'origWidth': 409, 'origHeight': 410, 'width': 409, 'height': 410, 'widthPercent': 0.45, 'rescaleHeight': False, 'trialN': 10, 'loaded': True, 'loadedTime': 2983, 'positionName': 'LEFT', 'positionCoords': [282.2, 245], 'bid': 3.31}, {'imgObject': {}, 'id': 'salmon', 'src': '/static/foodstim60/salmon.jpg', 'key': 'i', 'origWidth': 410, 'origHeight': 409, 'width': 410, 'height': 409, 'widthPercent': 0.45, 'rescaleHeight': False, 'trialN': 10, 'loaded': True, 'loadedTime': 3005.399999976158, 'positionName': 'RIGHT', 'positionCoords': [748.8, 245.5], 'bid': 9.91}]",20898.69999998808,1669834016246,edamame,salmon,3.31,9.91,6.6,salmon,1047.0,1068,1068.199999988079,True,i,22467.5,1568.800000011921,1669834017814,1568,HRV,HRV_0191,2022-11-30 18:52:00
11,"[{'imgObject': {}, 'id': 'cherries', 'src': '/static/foodstim60/cherries.jpg', 'key': 'u', 'origWidth': 410, 'origHeight': 411, 'width': 410, 'height': 411, 'widthPercent': 0.45, 'rescaleHeight': False, 'trialN': 11, 'loaded': True, 'loadedTime': 3017.600000023842, 'positionName': 'LEFT', 'positionCoords': [281.2, 244.5], 'bid': 9.9}, {'imgObject': {}, 'id': 'mashed potato', 'src': '/static/foodstim60/mashed potato.jpg', 'key': 'i', 'origWidth': 409, 'origHeight': 409, 'width': 409, 'height': 409, 'widthPercent': 0.45, 'rescaleHeight': False, 'trialN': 11, 'loaded': True, 'loadedTime': 3010.800000011921, 'positionName': 'RIGHT', 'positionCoords': [748.8, 245.5], 'bid': 2.51}]",22467.69999998808,1669834017815,cherries,mashed potato,9.9,2.51,-7.390000000000001,cherries,1212.0,1218,1218.199999988079,True,u,24186.19999998808,1718.5,1669834019533,1718,HRV,HRV_0191,2022-11-30 18:52:00
12,"[{'imgObject': {}, 'id': 'rigatoni and sauce', 'src': '/static/foodstim60/rigatoni and sauce.jpg', 'key': 'u', 'origWidth': 410, 'origHeight': 411, 'width': 410, 'height': 411, 'widthPercent': 0.45, 'rescaleHeight': False, 'trialN': 12, 'loaded': True, 'loadedTime': 3019.800000011921, 'positionName': 'LEFT', 'positionCoords': [281.2, 244.5], 'bid': 6.8100000000000005}, {'imgObject': {}, 'id': 'salad w chicken', 'src': '/static/foodstim60/salad w chicken.jpg', 'key': 'i', 'origWidth': 411, 'origHeight': 411, 'width': 411, 'height': 411, 'widthPercent': 0.45, 'rescaleHeight': False, 'trialN': 12, 'loaded': True, 'loadedTime': 2602.5, 'positionName': 'RIGHT', 'positionCoords': [748.8, 244.5], 'bid': 7.0200000000000005}]",24186.399999976158,1669834019533,rigatoni and sauce,salad w chicken,6.8100000000000005,7.0200000000000005,0.20999999999999996,salad w chicken,1143.300000011921,1150,1149.6000000238419,True,i,25836.30000001192,1649.9000000357628,1669834021183,1650,HRV,HRV_0191,2022-11-30 18:52:00
13,"[{'imgObject': {}, 'id': 'grilled chicken strips', 'src': '/static/foodstim60/grilled chicken strips.jpg', 'key': 'u', 'origWidth': 410, 'origHeight': 411, 'width': 410, 'height': 411, 'widthPercent': 0.45, 'rescaleHeight': False, 'trialN': 13, 'loaded': True, 'loadedTime': 2555.399999976158, 'positionName': 'LEFT', 'positionCoords': [281.2, 244.5], 'bid': 9.87}, {'imgObject': {}, 'id': 'olives', 'src': '/static/foodstim60/olives.jpg', 'key': 'i', 'origWidth': 410, 'origHeight': 410, 'width': 410, 'height': 410, 'widthPercent': 0.45, 'rescaleHeight': False, 'trialN': 13, 'loaded': True, 'loadedTime': 2981.699999988079, 'positionName': 'RIGHT', 'positionCoords': [748.8, 245], 'bid': 9.97}]",25836.399999976158,1669834021183,grilled chicken strips,olives,9.87,9.97,0.10000000000000142,grilled chicken strips,1322.1000000238419,1344,1343.4000000357628,True,u,27680.600000023842,1844.2000000476837,1669834023028,1845,HRV,HRV_0191,2022-11-30 18:52:00
14,"[{'imgObject': {}, 'id': 'bagel and cc', 'src': '/static/foodstim60/bagel and cc.jpg', 'key': 'u', 'origWidth': 410, 'origHeight': 410, 'width': 410, 'height': 410, 'widthPercent': 0.45, 'rescaleHeight': False, 'trialN': 14, 'loaded': True, 'loadedTime': 3138.899999976158, 'positionName': 'LEFT', 'positionCoords': [281.2, 245], 'bid': 1.97}, {'imgObject': {}, 'id': 'mashed potato', 'src': '/static/foodstim60/mashed potato.jpg', 'key': 'i', 'origWidth': 409, 'origHeight': 409, 'width': 409, 'height': 409, 'widthPercent': 0.45, 'rescaleHeight': False, 'trialN': 14, 'loaded': True, 'loadedTime': 3007.399999976158, 'positionName': 'RIGHT', 'positionCoords': [748.8, 245.5], 'bid': 2.51}]",27680.899999976158,1669834023028,bagel and cc,mashed potato,1.97,2.51,0.5399999999999998,bagel and cc,1690.6000000238419,1697,1697.1000000238419,True,u,29878.399999976158,2197.5,1669834025225,2197,HRV,HRV_0191,2022-11-30 18:52:00
15,"[{'imgObject': {}, 'id': 'eggs', 'src': '/static/foodstim60/eggs.jpg', 'key': 'u', 'origWidth': 409, 'origHeight': 409, 'width': 409, 'height': 409, 'widthPercent': 0.45, 'rescaleHeight': False, 'trialN': 15, 'loaded': True, 'loadedTime': 3140.600000023842, 'positionName': 'LEFT', 'positionCoords': [282.2, 245.5], 'bid': 3.25}, {'imgObject': {}, 'id': 'raisin bran w milk', 'src': '/static/foodstim60/raisin bran w milk.jpg', 'key': 'i', 'origWidth': 411, 'origHeight': 411, 'width': 411, 'height': 411, 'widthPercent': 0.45, 'rescaleHeight': False, 'trialN': 15, 'loaded': True, 'loadedTime': 3143.699999988079, 'positionName': 'RIGHT', 'positionCoords': [748.8, 244.5], 'bid': 4.95}]",29878.5,1669834025226,eggs,raisin bran w milk,3.25,4.95,1.7000000000000002,eggs,1243.800000011921,1264,1264.800000011921,True,u,31643.600000023842,1765.1000000238419,1669834026991,1765,HRV,HRV_0191,2022-11-30 18:52:00
16,"[{'imgObject': {}, 'id': 'turkey sandwich', 'src': '/static/foodstim60/turkey sandwich.jpg', 'key': 'u', 'origWidth': 409, 'origHeight': 409, 'width': 409, 'height': 409, 'widthPercent': 0.45, 'rescaleHeight': False, 'trialN': 16, 'loaded': True, 'loadedTime': 2598.899999976158, 'positionName': 'LEFT', 'positionCoords': [282.2, 245.5], 'bid': 9.73}, {'imgObject': {}, 'id': 'lox', 'src': '/static/foodstim60/lox.jpg', 'key': 'i', 'origWidth': 410, 'origHeight': 411, 'width': 410, 'height': 411, 'widthPercent': 0.45, 'rescaleHeight': False, 'trialN': 16, 'loaded': True, 'loadedTime': 2537, 'positionName': 'RIGHT', 'positionCoords': [748.8, 244.5], 'bid': 9.93}]",31643.80000001192,1669834026991,turkey sandwich,lox,9.73,9.93,0.1999999999999993,lox,1363.300000011921,1374,1374.3999999761581,True,i,33518.39999997616,1874.5999999642372,1669834028866,1875,HRV,HRV_0191,2022-11-30 18:52:00
17,"[{'imgObject': {}, 'id': 'mac & cheese', 'src': '/static/foodstim60/mac & cheese.jpg', 'key': 'u', 'origWidth': 410, 'origHeight': 410, 'width': 410, 'height': 410, 'widthPercent': 0.45, 'rescaleHeight': False, 'trialN': 17, 'loaded': True, 'loadedTime': 3148.199999988079, 'positionName': 'LEFT', 'positionCoords': [281.2, 245], 'bid': 0.09}, {'imgObject': {}, 'id': 'popsicles', 'src': '/static/foodstim60/popsicles.jpg', 'key': 'i', 'origWidth': 410, 'origHeight': 410, 'width': 410, 'height': 410, 'widthPercent': 0.45, 'rescaleHeight': False, 'trialN': 17, 'loaded': True, 'loadedTime': 3676.199999988079, 'positionName': 'RIGHT', 'positionCoords': [748.8, 245], 'bid': 0.16}]",33518.60000002384,1669834028866,mac & cheese,popsicles,0.09,0.16,0.07,popsicles,1646.5999999642372,1652,1652.0999999642372,True,i,35671.10000002384,2152.5,1669834031018,2152,HRV,HRV_0191,2022-11-30 18:52:00
18,"[{'imgObject': {}, 'id': 'corn cob', 'src': '/static/foodstim60/corn cob.jpg', 'key': 'u', 'origWidth': 411, 'origHeight': 411, 'width': 411, 'height': 411, 'widthPercent': 0.45, 'rescaleHeight': False, 'trialN': 18, 'loaded': True, 'loadedTime': 3189.600000023842, 'positionName': 'LEFT', 'positionCoords': [280.2, 244.5], 'bid': 5.83}, {'imgObject': {}, 'id': 'olives', 'src': '/static/foodstim60/olives.jpg', 'key': 'i', 'origWidth': 410, 'origHeight': 410, 'width': 410, 'height': 410, 'widthPercent': 0.45, 'rescaleHeight': False, 'trialN': 18, 'loaded': True, 'loadedTime': 2783.600000023842, 'positionName': 'RIGHT', 'positionCoords': [748.8, 245], 'bid': 9.97}]",35671.19999998808,1669834031019,corn cob,olives,5.83,9.97,4.140000000000001,corn cob,1716.800000011921,1723,1723.6000000238419,True,u,37896.69999998808,2225.5,1669834033244,2225,HRV,HRV_0191,2022-11-30 18:52:00
19,"[{'imgObject': {}, 'id': 'eggsalad', 'src': '/static/foodstim60/eggsalad.jpg', 'key': 'u', 'origWidth': 410, 'origHeight': 409, 'width': 410, 'height': 409, 'widthPercent': 0.45, 'rescaleHeight': False, 'trialN': 19, 'loaded': True, 'loadedTime': 3201.399999976158, 'positionName': 'LEFT', 'positionCoords': [281.2, 245.5], 'bid': 0.05}, {'imgObject': {}, 'id': 'roastedpotatoes', 'src': '/static/foodstim60/roastedpotatoes.jpg', 'key': 'i', 'origWidth': 409, 'origHeight': 410, 'width': 409, 'height': 410, 'widthPercent': 0.45, 'rescaleHeight': False, 'trialN': 19, 'loaded': True, 'loadedTime': 3224.199999988079, 'positionName': 'RIGHT', 'positionCoords': [748.8, 245], 'bid': 7.69}]",37896.80000001192,1669834033244,eggsalad,roastedpotatoes,0.05,7.69,7.640000000000001,roastedpotatoes,1010.1999999880791,1035,1034.3999999761581,True,i,39431.39999997616,1534.5999999642372,1669834034779,1535,HRV,HRV_0191,2022-11-30 18:52:00
20,"[{'imgObject': {}, 'id': 'hashbrowns', 'src': '/static/foodstim60/hashbrowns.jpg', 'key': 'u', 'origWidth': 411, 'origHeight': 410, 'width': 411, 'height': 410, 'widthPercent': 0.45, 'rescaleHeight': False, 'trialN': 20, 'loaded': True, 'loadedTime': 3192, 'positionName': 'LEFT', 'positionCoords': [280.2, 245], 'bid': 0.05}, {'imgObject': {}, 'id': 'hotdog w must', 'src': '/static/foodstim60/hotdog w must.jpg', 'key': 'i', 'origWidth': 409, 'origHeight': 409, 'width': 409, 'height': 409, 'widthPercent': 0.45, 'rescaleHeight': False, 'trialN': 20, 'loaded': True, 'loadedTime': 2738.399999976158, 'positionName': 'RIGHT', 'positionCoords': [748.8, 245.5], 'bid': 0.06}]",39431.60000002384,1669834034779,hashbrowns,hotdog w must,0.05,0.06,0.009999999999999995,hotdog w must,1570.3999999761581,1579,1578.5999999642372,True,i,41510.89999997616,2079.2999999523163,1669834036858,2079,HRV,HRV_0191,2022-11-30 18:52:00
21,"[{'imgObject': {}, 'id': 'seaweed', 'src': '/static/foodstim60/seaweed.jpg', 'key': 'u', 'origWidth': 410, 'origHeight': 410, 'width': 410, 'height': 410, 'widthPercent': 0.45, 'rescaleHeight': False, 'trialN': 21, 'loaded': True, 'loadedTime': 3314, 'positionName': 'LEFT', 'positionCoords': [281.2, 245], 'bid': 0.06}, {'imgObject': {}, 'id': 'omelette', 'src': '/static/foodstim60/omelette.jpg', 'key': 'i', 'origWidth': 410, 'origHeight': 409, 'width': 410, 'height': 409, 'widthPercent': 0.45, 'rescaleHeight': False, 'trialN': 21, 'loaded': True, 'loadedTime': 3320.300000011921, 'positionName': 'RIGHT', 'positionCoords': [748.8, 245.5], 'bid': 4.23}]",41511.19999998808,1669834036859,seaweed,omelette,0.06,4.23,4.170000000000001,omelette,1351.5,1358,1358.0,True,i,43370.0,1858.800000011921,1669834038717,1858,HRV,HRV_0191,2022-11-30 18:52:00
22,"[{'imgObject': {}, 'id': 'ice cream sundae 002', 'src': '/static/foodstim60/ice cream sundae 002.jpg', 'key': 'u', 'origWidth': 409, 'origHeight': 409, 'width': 409, 'height': 409, 'widthPercent': 0.45, 'rescaleHeight': False, 'trialN': 22, 'loaded': True, 'loadedTime': 3398.199999988079, 'positionName': 'LEFT', 'positionCoords': [282.2, 245.5], 'bid': 1.09}, {'imgObject': {}, 'id': 'fried eggs', 'src': '/static/foodstim60/fried eggs.jpg', 'key': 'i', 'origWidth': 410, 'origHeight': 410, 'width': 410, 'height': 410, 'widthPercent': 0.45, 'rescaleHeight': False, 'trialN': 22, 'loaded': True, 'loadedTime': 3407.399999976158, 'positionName': 'RIGHT', 'positionCoords': [748.8, 245], 'bid': 0.3}]",43370.10000002384,1669834038718,ice cream sundae 002,fried eggs,1.09,0.3,-0.79,ice cream sundae 002,1234.3999999761581,1241,1241.699999988079,True,u,45112.39999997616,1742.2999999523163,1669834040460,1742,HRV,HRV_0191,2022-11-30 18:52:00
23,"[{'imgObject': {}, 'id': 'ice cream sundae 002', 'src': '/static/foodstim60/ice cream sundae 002.jpg', 'key': 'u', 'origWidth': 409, 'origHeight': 409, 'width': 409, 'height': 409, 'widthPercent': 0.45, 'rescaleHeight': False, 'trialN': 23, 'loaded': True, 'loadedTime': 3405.5, 'positionName': 'LEFT', 'positionCoords': [282.2, 245.5], 'bid': 1.09}, {'imgObject': {}, 'id': 'grilled chicken strips', 'src': '/static/foodstim60/grilled chicken strips.jpg', 'key': 'i', 'origWidth': 410, 'origHeight': 411, 'width': 410, 'height': 411, 'widthPercent': 0.45, 'rescaleHeight': False, 'trialN': 23, 'loaded': True, 'loadedTime': 2554.600000023842, 'positionName': 'RIGHT', 'positionCoords': [748.8, 244.5], 'bid': 9.87}]",45112.5,1669834040460,ice cream sundae 002,grilled chicken strips,1.09,9.87,8.78,grilled chicken strips,976.0,996,996.1999999880791,True,i,46610.0,1497.5,1669834041958,1498,HRV,HRV_0191,2022-11-30 18:52:00
24,"[{'imgObject': {}, 'id': 'turkeysandwich', 'src': '/static/foodstim60/turkeysandwich.jpg', 'key': 'u', 'origWidth': 409, 'origHeight': 409, 'width': 409, 'height': 409, 'widthPercent': 0.45, 'rescaleHeight': False, 'trialN': 24, 'loaded': True, 'loadedTime': 3429, 'positionName': 'LEFT', 'positionCoords': [282.2, 245.5], 'bid': 5.55}, {'imgObject': {}, 'id': 'cheerios', 'src': '/static/foodstim60/cheerios.jpg', 'key': 'i', 'origWidth': 409, 'origHeight': 410, 'width': 409, 'height': 410, 'widthPercent': 0.45, 'rescaleHeight': False, 'trialN': 24, 'loaded': True, 'loadedTime': 3438.699999988079, 'positionName': 'RIGHT', 'positionCoords': [748.8, 245], 'bid': 0.43}]",46610.10000002384,1669834041958,turkeysandwich,cheerios,5.55,0.43,-5.12,turkeysandwich,1569.2999999523163,1576,1576.0999999642372,True,u,48686.5,2076.399999976158,1669834044034,2076,HRV,HRV_0191,2022-11-30 18:52:00
25,"[{'imgObject': {}, 'id': 'sweetpotato', 'src': '/static/foodstim60/sweetpotato.jpg', 'key': 'u', 'origWidth': 410, 'origHeight': 410, 'width': 410, 'height': 410, 'widthPercent': 0.45, 'rescaleHeight': False, 'trialN': 25, 'loaded': True, 'loadedTime': 3441.699999988079, 'positionName': 'LEFT', 'positionCoords': [281.2, 245], 'bid': 5.11}, {'imgObject': {}, 'id': 'chickenfingers', 'src': '/static/foodstim60/chickenfingers.jpg', 'key': 'i', 'origWidth': 410, 'origHeight': 410, 'width': 410, 'height': 410, 'widthPercent': 0.45, 'rescaleHeight': False, 'trialN': 25, 'loaded': True, 'loadedTime': 3443, 'positionName': 'RIGHT', 'positionCoords': [748.8, 245], 'bid': 8.61}]",48686.60000002384,1669834044034,sweetpotato,chickenfingers,5.11,8.61,3.499999999999999,chickenfingers,1181.8999999761581,1189,1188.7999999523163,True,i,50375.60000002384,1689.0,1669834045723,1689,HRV,HRV_0191,2022-11-30 18:52:00
26,"[{'imgObject': {}, 'id': 'corn cob', 'src': '/static/foodstim60/corn cob.jpg', 'key': 'u', 'origWidth': 411, 'origHeight': 411, 'width': 411, 'height': 411, 'widthPercent': 0.45, 'rescaleHeight': False, 'trialN': 26, 'loaded': True, 'loadedTime': 3162.699999988079, 'positionName': 'LEFT', 'positionCoords': [280.2, 244.5], 'bid': 5.83}, {'imgObject': {}, 'id': 'ice cream sundae 002', 'src': '/static/foodstim60/ice cream sundae 002.jpg', 'key': 'i', 'origWidth': 409, 'origHeight': 409, 'width': 409, 'height': 409, 'widthPercent': 0.45, 'rescaleHeight': False, 'trialN': 26, 'loaded': True, 'loadedTime': 3398.100000023842, 'positionName': 'RIGHT', 'positionCoords': [748.8, 245.5], 'bid': 1.09}]",50375.80000001192,1669834045723,corn cob,ice cream sundae 002,5.83,1.09,-4.74,corn cob,1362.5,1370,1369.300000011921,True,u,52245.39999997616,1869.5999999642372,1669834047593,1870,HRV,HRV_0191,2022-11-30 18:52:00
27,"[{'imgObject': {}, 'id': 'veggieswithdip', 'src': '/static/foodstim60/veggieswithdip.jpg', 'key': 'u', 'origWidth': 409, 'origHeight': 409, 'width': 409, 'height': 409, 'widthPercent': 0.45, 'rescaleHeight': False, 'trialN': 27, 'loaded': True, 'loadedTime': 2596, 'positionName': 'LEFT', 'positionCoords': [282.2, 245.5], 'bid': 9.88}, {'imgObject': {}, 'id': 'shreddedwheatwithmilk', 'src': '/static/foodstim60/shreddedwheatwithmilk.jpg', 'key': 'i', 'origWidth': 410, 'origHeight': 410, 'width': 410, 'height': 410, 'widthPercent': 0.45, 'rescaleHeight': False, 'trialN': 27, 'loaded': True, 'loadedTime': 3450.399999976158, 'positionName': 'RIGHT', 'positionCoords': [748.8, 245], 'bid': 1.75}]",52245.69999998808,1669834047593,veggieswithdip,shreddedwheatwithmilk,9.88,1.75,-8.13,veggieswithdip,1138.5,1146,1145.199999988079,True,u,53891.19999998808,1645.5,1669834049239,1646,HRV,HRV_0191,2022-11-30 18:52:00
28,"[{'imgObject': {}, 'id': 'bagel plain', 'src': '/static/foodstim60/bagel plain.jpg', 'key': 'u', 'origWidth': 410, 'origHeight': 410, 'width': 410, 'height': 410, 'widthPercent': 0.45, 'rescaleHeight': False, 'trialN': 28, 'loaded': True, 'loadedTime': 3456.199999988079, 'positionName': 'LEFT', 'positionCoords': [281.2, 245], 'bid': 0.12}, {'imgObject': {}, 'id': 'seaweed', 'src': '/static/foodstim60/seaweed.jpg', 'key': 'i', 'origWidth': 410, 'origHeight': 410, 'width': 410, 'height': 410, 'widthPercent': 0.45, 'rescaleHeight': False, 'trialN': 28, 'loaded': True, 'loadedTime': 3224.600000023842, 'positionName': 'RIGHT', 'positionCoords': [748.8, 245], 'bid': 0.06}]",53891.60000002384,1669834049239,bagel plain,seaweed,0.12,0.06,-0.06,bagel plain,1239.3999999761581,1250,1249.5,True,u,55641.5,1749.8999999761581,1669834050989,1750,HRV,HRV_0191,2022-11-30 18:52:00
29,"[{'imgObject': {}, 'id': 'chicken nuggets2', 'src': '/static/foodstim60/chicken nuggets2.jpg', 'key': 'u', 'origWidth': 410, 'origHeight': 409, 'width': 410, 'height': 409, 'widthPercent': 0.45, 'rescaleHeight': False, 'trialN': 29, 'loaded': True, 'loadedTime': 3464.100000023842, 'positionName': 'LEFT', 'positionCoords': [281.2, 245.5], 'bid': 6.09}, {'imgObject': {}, 'id': 'fruitsalad', 'src': '/static/foodstim60/fruitsalad.jpg', 'key': 'i', 'origWidth': 410, 'origHeight': 410, 'width': 410, 'height': 410, 'widthPercent': 0.45, 'rescaleHeight': False, 'trialN': 29, 'loaded': True, 'loadedTime': 2781.399999976158, 'positionName': 'RIGHT', 'positionCoords': [748.8, 245], 'bid': 10}]",55641.69999998808,1669834050990,chicken nuggets2,fruitsalad,6.09,10.0,3.91,chicken nuggets2,1252.300000011921,1274,1274.300000011921,True,u,57416.10000002384,1774.4000000357628,1669834052764,1774,HRV,HRV_0191,2022-11-30 18:52:00
30,"[{'imgObject': {}, 'id': 'sushi w_condiments', 'src': '/static/foodstim60/sushi w_condiments.jpg', 'key': 'u', 'origWidth': 410, 'origHeight': 410, 'width': 410, 'height': 410, 'widthPercent': 0.45, 'rescaleHeight': False, 'trialN': 30, 'loaded': True, 'loadedTime': 3474.899999976158, 'positionName': 'LEFT', 'positionCoords': [281.2, 245], 'bid': 10}, {'imgObject': {}, 'id': 'veggieswithdip', 'src': '/static/foodstim60/veggieswithdip.jpg', 'key': 'i', 'origWidth': 409, 'origHeight': 409, 'width': 409, 'height': 409, 'widthPercent': 0.45, 'rescaleHeight': False, 'trialN': 30, 'loaded': True, 'loadedTime': 2595.600000023842, 'positionName': 'RIGHT', 'positionCoords': [748.8, 245.5], 'bid': 9.88}]",57416.30000001192,1669834052764,sushi w_condiments,veggieswithdip,10.0,9.88,-0.11999999999999922,sushi w_condiments,1776.800000011921,1783,1783.199999988079,True,u,59700.30000001192,2284.0,1669834055048,2284,HRV,HRV_0191,2022-11-30 18:52:00
31,"[{'imgObject': {}, 'id': 'rigatoni', 'src': '/static/foodstim60/rigatoni.jpg', 'key': 'u', 'origWidth': 411, 'origHeight': 411, 'width': 411, 'height': 411, 'widthPercent': 0.45, 'rescaleHeight': False, 'trialN': 31, 'loaded': True, 'loadedTime': 3485.699999988079, 'positionName': 'LEFT', 'positionCoords': [280.2, 244.5], 'bid': 1.18}, {'imgObject': {}, 'id': 'bagel and cc', 'src': '/static/foodstim60/bagel and cc.jpg', 'key': 'i', 'origWidth': 410, 'origHeight': 410, 'width': 410, 'height': 410, 'widthPercent': 0.45, 'rescaleHeight': False, 'trialN': 31, 'loaded': True, 'loadedTime': 3121.800000011921, 'positionName': 'RIGHT', 'positionCoords': [748.8, 245], 'bid': 1.97}]",59700.60000002384,1669834055049,rigatoni,bagel and cc,1.18,1.97,0.79,bagel and cc,1322.2999999523163,1344,1343.8999999761581,True,i,61544.80000001192,1844.199999988079,1669834056893,1844,HRV,HRV_0191,2022-11-30 18:52:00
32,"[{'imgObject': {}, 'id': 'chicken nuggets2', 'src': '/static/foodstim60/chicken nuggets2.jpg', 'key': 'u', 'origWidth': 410, 'origHeight': 409, 'width': 410, 'height': 409, 'widthPercent': 0.45, 'rescaleHeight': False, 'trialN': 32, 'loaded': True, 'loadedTime': 3469.600000023842, 'positionName': 'LEFT', 'positionCoords': [281.2, 245.5], 'bid': 6.09}, {'imgObject': {}, 'id': 'rigatoni', 'src': '/static/foodstim60/rigatoni.jpg', 'key': 'i', 'origWidth': 411, 'origHeight': 411, 'width': 411, 'height': 411, 'widthPercent': 0.45, 'rescaleHeight': False, 'trialN': 32, 'loaded': True, 'loadedTime': 3478.300000011921, 'positionName': 'RIGHT', 'positionCoords': [748.8, 244.5], 'bid': 1.18}]",61544.89999997616,1669834056893,chicken nuggets2,rigatoni,6.09,1.18,-4.91,chicken nuggets2,1180.9000000357628,1188,1187.7000000476837,True,u,63233.19999998808,1688.300000011921,1669834058581,1688,HRV,HRV_0191,2022-11-30 18:52:00
33,"[{'imgObject': {}, 'id': 'fried eggs', 'src': '/static/foodstim60/fried eggs.jpg', 'key': 'u', 'origWidth': 410, 'origHeight': 410, 'width': 410, 'height': 410, 'widthPercent': 0.45, 'rescaleHeight': False, 'trialN': 33, 'loaded': True, 'loadedTime': 3407.199999988079, 'positionName': 'LEFT', 'positionCoords': [281.2, 245], 'bid': 0.3}, {'imgObject': {}, 'id': 'cocktailshrimp', 'src': '/static/foodstim60/cocktailshrimp.jpg', 'key': 'i', 'origWidth': 410, 'origHeight': 410, 'width': 410, 'height': 410, 'widthPercent': 0.45, 'rescaleHeight': False, 'trialN': 33, 'loaded': True, 'loadedTime': 2585.100000023842, 'positionName': 'RIGHT', 'positionCoords': [748.8, 245], 'bid': 9.86}]",63233.30000001192,1669834058581,fried eggs,cocktailshrimp,0.3,9.86,9.559999999999999,cocktailshrimp,953.3999999761581,972,972.0,True,i,64706.30000001192,1473.0,1669834060054,1473,HRV,HRV_0191,2022-11-30 18:52:00
34,"[{'imgObject': {}, 'id': 'olives', 'src': '/static/foodstim60/olives.jpg', 'key': 'u', 'origWidth': 410, 'origHeight': 410, 'width': 410, 'height': 410, 'widthPercent': 0.45, 'rescaleHeight': False, 'trialN': 34, 'loaded': True, 'loadedTime': 2981, 'positionName': 'LEFT', 'positionCoords': [281.2, 245], 'bid': 9.97}, {'imgObject': {}, 'id': 'cantaloupe', 'src': '/static/foodstim60/cantaloupe.jpg', 'key': 'i', 'origWidth': 409, 'origHeight': 409, 'width': 409, 'height': 409, 'widthPercent': 0.45, 'rescaleHeight': False, 'trialN': 34, 'loaded': True, 'loadedTime': 3614.5, 'positionName': 'RIGHT', 'positionCoords': [748.8, 245.5], 'bid': 9.91}]",64706.39999997616,1669834060055,olives,cantaloupe,9.97,9.91,-0.0600000000000005,cantaloupe,1236.1000000238419,1253,1253.9000000357628,True,i,66460.5,1754.1000000238419,1669834061809,1754,HRV,HRV_0191,2022-11-30 18:52:00
35,"[{'imgObject': {}, 'id': 'chicken nuggets2', 'src': '/static/foodstim60/chicken nuggets2.jpg', 'key': 'u', 'origWidth': 410, 'origHeight': 409, 'width': 410, 'height': 409, 'widthPercent': 0.45, 'rescaleHeight': False, 'trialN': 35, 'loaded': True, 'loadedTime': 3467.300000011921, 'positionName': 'LEFT', 'positionCoords': [281.2, 245.5], 'bid': 6.09}, {'imgObject': {}, 'id': 'corn cob', 'src': '/static/foodstim60/corn cob.jpg', 'key': 'i', 'origWidth': 411, 'origHeight': 411, 'width': 411, 'height': 411, 'widthPercent': 0.45, 'rescaleHeight': False, 'trialN': 35, 'loaded': True, 'loadedTime': 3154.399999976158, 'positionName': 'RIGHT', 'positionCoords': [748.8, 244.5], 'bid': 5.83}]",66460.69999998808,1669834061809,chicken nuggets2,corn cob,6.09,5.83,-0.2599999999999998,chicken nuggets2,1342.699999988079,1348,1348.4000000357628,True,u,68309.39999997616,1848.699999988079,1669834063658,1849,HRV,HRV_0191,2022-11-30 18:52:00
36,"[{'imgObject': {}, 'id': 'granola w milk', 'src': '/static/foodstim60/granola w milk.jpg', 'key': 'u', 'origWidth': 410, 'origHeight': 410, 'width': 410, 'height': 410, 'widthPercent': 0.45, 'rescaleHeight': False, 'trialN': 36, 'loaded': True, 'loadedTime': 3617.5, 'positionName': 'LEFT', 'positionCoords': [281.2, 245], 'bid': 4.62}, {'imgObject': {}, 'id': 'blackbeanswithrice', 'src': '/static/foodstim60/blackbeanswithrice.jpg', 'key': 'i', 'origWidth': 410, 'origHeight': 410, 'width': 410, 'height': 410, 'widthPercent': 0.45, 'rescaleHeight': False, 'trialN': 36, 'loaded': True, 'loadedTime': 3630.899999976158, 'positionName': 'RIGHT', 'positionCoords': [748.8, 245], 'bid': 4.48}]",68309.80000001192,1669834063658,granola w milk,blackbeanswithrice,4.62,4.48,-0.13999999999999968,blackbeanswithrice,1588.5,1598,1597.8999999761581,True,i,70408.0,2098.199999988079,1669834065756,2098,HRV,HRV_0191,2022-11-30 18:52:00
37,"[{'imgObject': {}, 'id': 'strawberries', 'src': '/static/foodstim60/strawberries.jpg', 'key': 'u', 'origWidth': 410, 'origHeight': 410, 'width': 410, 'height': 410, 'widthPercent': 0.45, 'rescaleHeight': False, 'trialN': 37, 'loaded': True, 'loadedTime': 3638.5, 'positionName': 'LEFT', 'positionCoords': [281.2, 245], 'bid': 9.91}, {'imgObject': {}, 'id': 'apple slices', 'src': '/static/foodstim60/apple slices.jpg', 'key': 'i', 'origWidth': 409, 'origHeight': 410, 'width': 409, 'height': 410, 'widthPercent': 0.45, 'rescaleHeight': False, 'trialN': 37, 'loaded': True, 'loadedTime': 3640.699999988079, 'positionName': 'RIGHT', 'positionCoords': [748.8, 245], 'bid': 9.93}]",70408.10000002384,1669834065756,strawberries,apple slices,9.91,9.93,0.019999999999999574,strawberries,1590.2999999523163,1598,1597.699999988079,True,u,72506.10000002384,2098.0,1669834067854,2098,HRV,HRV_0191,2022-11-30 18:52:00
38,"[{'imgObject': {}, 'id': 'shreddedwheatwithmilk', 'src': '/static/foodstim60/shreddedwheatwithmilk.jpg', 'key': 'u', 'origWidth': 410, 'origHeight': 410, 'width': 410, 'height': 410, 'widthPercent': 0.45, 'rescaleHeight': False, 'trialN': 38, 'loaded': True, 'loadedTime': 3449, 'positionName': 'LEFT', 'positionCoords': [281.2, 245], 'bid': 1.75}, {'imgObject': {}, 'id': 'rigatoni', 'src': '/static/foodstim60/rigatoni.jpg', 'key': 'i', 'origWidth': 411, 'origHeight': 411, 'width': 411, 'height': 411, 'widthPercent': 0.45, 'rescaleHeight': False, 'trialN': 38, 'loaded': True, 'loadedTime': 3483, 'positionName': 'RIGHT', 'positionCoords': [748.8, 244.5], 'bid': 1.18}]",72506.19999998808,1669834067855,shreddedwheatwithmilk,rigatoni,1.75,1.18,-0.5700000000000001,shreddedwheatwithmilk,1325.4000000357628,1333,1332.9000000357628,True,u,74339.89999997616,1833.699999988079,1669834069688,1833,HRV,HRV_0191,2022-11-30 18:52:00
39,"[{'imgObject': {}, 'id': 'hashbrowns', 'src': '/static/foodstim60/hashbrowns.jpg', 'key': 'u', 'origWidth': 411, 'origHeight': 410, 'width': 411, 'height': 410, 'widthPercent': 0.45, 'rescaleHeight': False, 'trialN': 39, 'loaded': True, 'loadedTime': 3192.100000023842, 'positionName': 'LEFT', 'positionCoords': [280.2, 245], 'bid': 0.05}, {'imgObject': {}, 'id': 'mashed potato', 'src': '/static/foodstim60/mashed potato.jpg', 'key': 'i', 'origWidth': 409, 'origHeight': 409, 'width': 409, 'height': 409, 'widthPercent': 0.45, 'rescaleHeight': False, 'trialN': 39, 'loaded': True, 'loadedTime': 3010.300000011921, 'positionName': 'RIGHT', 'positionCoords': [748.8, 245.5], 'bid': 2.51}]",74340.0,1669834069688,hashbrowns,mashed potato,0.05,2.51,2.46,mashed potato,1439.0,1446,1445.5,True,i,76286.19999998808,1946.199999988079,1669834071635,1947,HRV,HRV_0191,2022-11-30 18:52:00
40,"[{'imgObject': {}, 'id': 'hotdog w must', 'src': '/static/foodstim60/hotdog w must.jpg', 'key': 'u', 'origWidth': 409, 'origHeight': 409, 'width': 409, 'height': 409, 'widthPercent': 0.45, 'rescaleHeight': False, 'trialN': 40, 'loaded': True, 'loadedTime': 2738.100000023842, 'positionName': 'LEFT', 'positionCoords': [282.2, 245.5], 'bid': 0.06}, {'imgObject': {}, 'id': 'edamame', 'src': '/static/foodstim60/edamame.jpg', 'key': 'i', 'origWidth': 409, 'origHeight': 410, 'width': 409, 'height': 410, 'widthPercent': 0.45, 'rescaleHeight': False, 'trialN': 40, 'loaded': True, 'loadedTime': 3003.399999976158, 'positionName': 'RIGHT', 'positionCoords': [748.8, 245], 'bid': 3.31}]",76286.39999997616,1669834071635,hotdog w must,edamame,0.06,3.31,3.25,edamame,1869.7000000476837,1878,1877.9000000357628,True,i,78664.80000001192,2378.400000035763,1669834074013,2378,HRV,HRV_0191,2022-11-30 18:52:00
41,"[{'imgObject': {}, 'id': 'sushi w_condiments', 'src': '/static/foodstim60/sushi w_condiments.jpg', 'key': 'u', 'origWidth': 410, 'origHeight': 410, 'width': 410, 'height': 410, 'widthPercent': 0.45, 'rescaleHeight': False, 'trialN': 41, 'loaded': True, 'loadedTime': 3474.800000011921, 'positionName': 'LEFT', 'positionCoords': [281.2, 245], 'bid': 10}, {'imgObject': {}, 'id': 'rigatoni and sauce', 'src': '/static/foodstim60/rigatoni and sauce.jpg', 'key': 'i', 'origWidth': 410, 'origHeight': 411, 'width': 410, 'height': 411, 'widthPercent': 0.45, 'rescaleHeight': False, 'trialN': 41, 'loaded': True, 'loadedTime': 3021.800000011921, 'positionName': 'RIGHT', 'positionCoords': [748.8, 244.5], 'bid': 6.8100000000000005}]",78665.0,1669834074013,sushi w_condiments,rigatoni and sauce,10.0,6.8100000000000005,-3.1899999999999995,sushi w_condiments,1013.8000000119209,1019,1018.3000000119209,True,u,80183.69999998808,1518.699999988079,1669834075532,1519,HRV,HRV_0191,2022-11-30 18:52:00
42,"[{'imgObject': {}, 'id': 'steak', 'src': '/static/foodstim60/steak.jpg', 'key': 'u', 'origWidth': 410, 'origHeight': 410, 'width': 410, 'height': 410, 'widthPercent': 0.45, 'rescaleHeight': False, 'trialN': 42, 'loaded': True, 'loadedTime': 2563.5, 'positionName': 'LEFT', 'positionCoords': [281.2, 245], 'bid': 4.95}, {'imgObject': {}, 'id': 'granola w milk', 'src': '/static/foodstim60/granola w milk.jpg', 'key': 'i', 'origWidth': 410, 'origHeight': 410, 'width': 410, 'height': 410, 'widthPercent': 0.45, 'rescaleHeight': False, 'trialN': 42, 'loaded': True, 'loadedTime': 3617.100000023842, 'positionName': 'RIGHT', 'positionCoords': [748.8, 245], 'bid': 4.62}]",80183.80000001192,1669834075532,steak,granola w milk,4.95,4.62,-0.33000000000000007,steak,1050.8999999761581,1058,1057.3999999761581,True,u,81741.60000002384,1557.800000011921,1669834077090,1558,HRV,HRV_0191,2022-11-30 18:52:00
43,"[{'imgObject': {}, 'id': 'steak', 'src': '/static/foodstim60/steak.jpg', 'key': 'u', 'origWidth': 410, 'origHeight': 410, 'width': 410, 'height': 410, 'widthPercent': 0.45, 'rescaleHeight': False, 'trialN': 43, 'loaded': True, 'loadedTime': 2561.5, 'positionName': 'LEFT', 'positionCoords': [281.2, 245], 'bid': 4.95}, {'imgObject': {}, 'id': 'burrito', 'src': '/static/foodstim60/burrito.jpg', 'key': 'i', 'origWidth': 410, 'origHeight': 410, 'width': 410, 'height': 410, 'widthPercent': 0.45, 'rescaleHeight': False, 'trialN': 43, 'loaded': True, 'loadedTime': 2540.5, 'positionName': 'RIGHT', 'positionCoords': [748.8, 245], 'bid': 8.31}]",81741.89999997616,1669834077091,steak,burrito,4.95,8.31,3.3600000000000003,burrito,981.9000000357628,988,988.2000000476837,True,i,83230.39999997616,1488.5,1669834078579,1488,HRV,HRV_0191,2022-11-30 18:52:00
44,"[{'imgObject': {}, 'id': 'banana', 'src': '/static/foodstim60/banana.jpg', 'key': 'u', 'origWidth': 410, 'origHeight': 410, 'width': 410, 'height': 410, 'widthPercent': 0.45, 'rescaleHeight': False, 'trialN': 44, 'loaded': True, 'loadedTime': 3650.100000023842, 'positionName': 'LEFT', 'positionCoords': [281.2, 245], 'bid': 9.12}, {'imgObject': {}, 'id': 'chickenfingers', 'src': '/static/foodstim60/chickenfingers.jpg', 'key': 'i', 'origWidth': 410, 'origHeight': 410, 'width': 410, 'height': 410, 'widthPercent': 0.45, 'rescaleHeight': False, 'trialN': 44, 'loaded': True, 'loadedTime': 3448, 'positionName': 'RIGHT', 'positionCoords': [748.8, 245], 'bid': 8.61}]",83230.5,1669834078579,banana,chickenfingers,9.12,8.61,-0.5099999999999998,chickenfingers,891.1000000238419,912,911.6000000238419,True,i,84642.39999997616,1411.8999999761581,1669834079991,1412,HRV,HRV_0191,2022-11-30 18:52:00
45,"[{'imgObject': {}, 'id': 'eggsalad', 'src': '/static/foodstim60/eggsalad.jpg', 'key': 'u', 'origWidth': 410, 'origHeight': 409, 'width': 410, 'height': 409, 'widthPercent': 0.45, 'rescaleHeight': False, 'trialN': 45, 'loaded': True, 'loadedTime': 3192.5, 'positionName': 'LEFT', 'positionCoords': [281.2, 245.5], 'bid': 0.05}, {'imgObject': {}, 'id': 'hashbrowns', 'src': '/static/foodstim60/hashbrowns.jpg', 'key': 'i', 'origWidth': 411, 'origHeight': 410, 'width': 411, 'height': 410, 'widthPercent': 0.45, 'rescaleHeight': False, 'trialN': 45, 'loaded': True, 'loadedTime': 3192.100000023842, 'positionName': 'RIGHT', 'positionCoords': [748.8, 245], 'bid': 0.05}]",84642.60000002384,1669834079991,eggsalad,hashbrowns,0.05,0.05,0.0,eggsalad,1505.0999999642372,1511,1511.2999999523163,True,u,86654.69999998808,2012.0999999642372,1669834082003,2012,HRV,HRV_0191,2022-11-30 18:52:00
46,"[{'imgObject': {}, 'id': 'mac & cheese', 'src': '/static/foodstim60/mac & cheese.jpg', 'key': 'u', 'origWidth': 410, 'origHeight': 410, 'width': 410, 'height': 410, 'widthPercent': 0.45, 'rescaleHeight': False, 'trialN': 46, 'loaded': True, 'loadedTime': 3147.399999976158, 'positionName': 'LEFT', 'positionCoords': [281.2, 245], 'bid': 0.09}, {'imgObject': {}, 'id': 'seaweed', 'src': '/static/foodstim60/seaweed.jpg', 'key': 'i', 'origWidth': 410, 'origHeight': 410, 'width': 410, 'height': 410, 'widthPercent': 0.45, 'rescaleHeight': False, 'trialN': 46, 'loaded': True, 'loadedTime': 3317.800000011921, 'positionName': 'RIGHT', 'positionCoords': [748.8, 245], 'bid': 0.06}]",86654.89999997616,1669834082003,mac & cheese,seaweed,0.09,0.06,-0.03,seaweed,1986.4000000357628,1993,1993.4000000357628,True,i,89149.19999998808,2494.300000011921,1669834084497,2494,HRV,HRV_0191,2022-11-30 18:52:00
47,"[{'imgObject': {}, 'id': 'orange slices', 'src': '/static/foodstim60/orange slices.jpg', 'key': 'u', 'origWidth': 409, 'origHeight': 410, 'width': 409, 'height': 410, 'widthPercent': 0.45, 'rescaleHeight': False, 'trialN': 47, 'loaded': True, 'loadedTime': 3645.399999976158, 'positionName': 'LEFT', 'positionCoords': [282.2, 245], 'bid': 9.93}, {'imgObject': {}, 'id': 'raspberries', 'src': '/static/foodstim60/raspberries.jpg', 'key': 'i', 'origWidth': 411, 'origHeight': 411, 'width': 411, 'height': 411, 'widthPercent': 0.45, 'rescaleHeight': False, 'trialN': 47, 'loaded': True, 'loadedTime': 3648.199999988079, 'positionName': 'RIGHT', 'positionCoords': [748.8, 244.5], 'bid': 9.93}]",89149.39999997616,1669834084497,orange slices,raspberries,9.93,9.93,0.0,raspberries,1655.800000011921,1659,1659.800000011921,True,i,91310.30000001192,2160.900000035763,1669834086657,2160,HRV,HRV_0191,2022-11-30 18:52:00
48,"[{'imgObject': {}, 'id': 'roastedpotatoes', 'src': '/static/foodstim60/roastedpotatoes.jpg', 'key': 'u', 'origWidth': 409, 'origHeight': 410, 'width': 409, 'height': 410, 'widthPercent': 0.45, 'rescaleHeight': False, 'trialN': 48, 'loaded': True, 'loadedTime': 3223.899999976158, 'positionName': 'LEFT', 'positionCoords': [282.2, 245], 'bid': 7.69}, {'imgObject': {}, 'id': 'burger', 'src': '/static/foodstim60/burger.jpg', 'key': 'i', 'origWidth': 409, 'origHeight': 409, 'width': 409, 'height': 409, 'widthPercent': 0.45, 'rescaleHeight': False, 'trialN': 48, 'loaded': True, 'loadedTime': 3650.199999988079, 'positionName': 'RIGHT', 'positionCoords': [748.8, 245.5], 'bid': 7.23}]",91310.5,1669834086658,roastedpotatoes,burger,7.69,7.23,-0.45999999999999996,burger,1720.800000011921,1729,1729.5,True,i,93540.80000001192,2230.300000011921,1669834088887,2229,HRV,HRV_0191,2022-11-30 18:52:00
49,"[{'imgObject': {}, 'id': 'omelette', 'src': '/static/foodstim60/omelette.jpg', 'key': 'u', 'origWidth': 410, 'origHeight': 409, 'width': 410, 'height': 409, 'widthPercent': 0.45, 'rescaleHeight': False, 'trialN': 49, 'loaded': True, 'loadedTime': 3319.199999988079, 'positionName': 'LEFT', 'positionCoords': [281.2, 245.5], 'bid': 4.23}, {'imgObject': {}, 'id': 'edamame', 'src': '/static/foodstim60/edamame.jpg', 'key': 'i', 'origWidth': 409, 'origHeight': 410, 'width': 409, 'height': 410, 'widthPercent': 0.45, 'rescaleHeight': False, 'trialN': 49, 'loaded': True, 'loadedTime': 2982.699999988079, 'positionName': 'RIGHT', 'positionCoords': [748.8, 245], 'bid': 3.31}]",93541.0,1669834088888,omelette,edamame,4.23,3.31,-0.9200000000000004,edamame,2329.199999988079,2336,2336.600000023842,True,i,96378.19999998808,2837.199999988079,1669834091724,2836,HRV,HRV_0191,2022-11-30 18:52:00
50,"[{'imgObject': {}, 'id': 'turkeysandwich', 'src': '/static/foodstim60/turkeysandwich.jpg', 'key': 'u', 'origWidth': 409, 'origHeight': 409, 'width': 409, 'height': 409, 'widthPercent': 0.45, 'rescaleHeight': False, 'trialN': 50, 'loaded': True, 'loadedTime': 3409.5, 'positionName': 'LEFT', 'positionCoords': [282.2, 245.5], 'bid': 5.55}, {'imgObject': {}, 'id': 'roastedpotatoes', 'src': '/static/foodstim60/roastedpotatoes.jpg', 'key': 'i', 'origWidth': 409, 'origHeight': 410, 'width': 409, 'height': 410, 'widthPercent': 0.45, 'rescaleHeight': False, 'trialN': 50, 'loaded': True, 'loadedTime': 3221.399999976158, 'positionName': 'RIGHT', 'positionCoords': [748.8, 245], 'bid': 7.69}]",96378.30000001192,1669834091724,turkeysandwich,roastedpotatoes,5.55,7.69,2.1400000000000006,roastedpotatoes,2784.699999988079,2791,2791.5,True,i,99669.89999997616,3291.599999964237,1669834095015,3291,HRV,HRV_0191,2022-11-30 18:52:00
51,"[{'imgObject': {}, 'id': 'popsicles', 'src': '/static/foodstim60/popsicles.jpg', 'key': 'u', 'origWidth': 410, 'origHeight': 410, 'width': 410, 'height': 410, 'widthPercent': 0.45, 'rescaleHeight': False, 'trialN': 51, 'loaded': True, 'loadedTime': 3677, 'positionName': 'LEFT', 'positionCoords': [281.2, 245], 'bid': 0.16}, {'imgObject': {}, 'id': 'eggsalad', 'src': '/static/foodstim60/eggsalad.jpg', 'key': 'i', 'origWidth': 410, 'origHeight': 409, 'width': 410, 'height': 409, 'widthPercent': 0.45, 'rescaleHeight': False, 'trialN': 51, 'loaded': True, 'loadedTime': 3220.600000023842, 'positionName': 'RIGHT', 'positionCoords': [748.8, 245.5], 'bid': 0.05}]",99670.0,1669834095015,popsicles,eggsalad,0.16,0.05,-0.11,eggsalad,1742.800000011921,1751,1750.300000011921,True,i,101920.69999998808,2250.699999988079,1669834097266,2251,HRV,HRV_0191,2022-11-30 18:52:00
52,"[{'imgObject': {}, 'id': 'sushi w_condiments', 'src': '/static/foodstim60/sushi w_condiments.jpg', 'key': 'u', 'origWidth': 410, 'origHeight': 410, 'width': 410, 'height': 410, 'widthPercent': 0.45, 'rescaleHeight': False, 'trialN': 52, 'loaded': True, 'loadedTime': 3474.300000011921, 'positionName': 'LEFT', 'positionCoords': [281.2, 245], 'bid': 10}, {'imgObject': {}, 'id': 'olives', 'src': '/static/foodstim60/olives.jpg', 'key': 'i', 'origWidth': 410, 'origHeight': 410, 'width': 410, 'height': 410, 'widthPercent': 0.45, 'rescaleHeight': False, 'trialN': 52, 'loaded': True, 'loadedTime': 2981.800000011921, 'positionName': 'RIGHT', 'positionCoords': [748.8, 245], 'bid': 9.97}]",101920.89999997616,1669834097266,sushi w_condiments,olives,10.0,9.97,-0.02999999999999936,sushi w_condiments,779.0,785,785.2000000476837,True,u,103206.5,1285.6000000238419,1669834098551,1285,HRV,HRV_0191,2022-11-30 18:52:00
53,"[{'imgObject': {}, 'id': 'chickenfingers', 'src': '/static/foodstim60/chickenfingers.jpg', 'key': 'u', 'origWidth': 410, 'origHeight': 410, 'width': 410, 'height': 410, 'widthPercent': 0.45, 'rescaleHeight': False, 'trialN': 53, 'loaded': True, 'loadedTime': 3446.800000011921, 'positionName': 'LEFT', 'positionCoords': [281.2, 245], 'bid': 8.61}, {'imgObject': {}, 'id': 'avocado', 'src': '/static/foodstim60/avocado.jpg', 'key': 'i', 'origWidth': 409, 'origHeight': 409, 'width': 409, 'height': 409, 'widthPercent': 0.45, 'rescaleHeight': False, 'trialN': 53, 'loaded': True, 'loadedTime': 3653.100000023842, 'positionName': 'RIGHT', 'positionCoords': [748.8, 245.5], 'bid': 9.93}]",103206.60000002384,1669834098552,chickenfingers,avocado,8.61,9.93,1.3200000000000003,chickenfingers,864.1999999880791,872,872.2999999523163,True,u,104580.0,1373.3999999761581,1669834099925,1373,HRV,HRV_0191,2022-11-30 18:52:00
54,"[{'imgObject': {}, 'id': 'sweetpotato', 'src': '/static/foodstim60/sweetpotato.jpg', 'key': 'u', 'origWidth': 410, 'origHeight': 410, 'width': 410, 'height': 410, 'widthPercent': 0.45, 'rescaleHeight': False, 'trialN': 54, 'loaded': True, 'loadedTime': 3440.699999988079, 'positionName': 'LEFT', 'positionCoords': [281.2, 245], 'bid': 5.11}, {'imgObject': {}, 'id': 'turkeysandwich', 'src': '/static/foodstim60/turkeysandwich.jpg', 'key': 'i', 'origWidth': 409, 'origHeight': 409, 'width': 409, 'height': 409, 'widthPercent': 0.45, 'rescaleHeight': False, 'trialN': 54, 'loaded': True, 'loadedTime': 3428.5, 'positionName': 'RIGHT', 'positionCoords': [748.8, 245.5], 'bid': 5.55}]",104580.19999998808,1669834099925,sweetpotato,turkeysandwich,5.11,5.55,0.4399999999999995,turkeysandwich,1018.6000000238419,1025,1024.699999988079,True,i,106105.0,1524.800000011921,1669834101450,1525,HRV,HRV_0191,2022-11-30 18:52:00
55,"[{'imgObject': {}, 'id': 'yogurt no spoon', 'src': '/static/foodstim60/yogurt no spoon.jpg', 'key': 'u', 'origWidth': 411, 'origHeight': 410, 'width': 411, 'height': 410, 'widthPercent': 0.45, 'rescaleHeight': False, 'trialN': 55, 'loaded': True, 'loadedTime': 2588.699999988079, 'positionName': 'LEFT', 'positionCoords': [280.2, 245], 'bid': 9.84}, {'imgObject': {}, 'id': 'luckycharms', 'src': '/static/foodstim60/luckycharms.jpg', 'key': 'i', 'origWidth': 410, 'origHeight': 409, 'width': 410, 'height': 409, 'widthPercent': 0.45, 'rescaleHeight': False, 'trialN': 55, 'loaded': True, 'loadedTime': 2580.399999976158, 'positionName': 'RIGHT', 'positionCoords': [748.8, 245.5], 'bid': 0.19}]",106105.19999998808,1669834101450,yogurt no spoon,luckycharms,9.84,0.19,-9.65,yogurt no spoon,1188.199999988079,1194,1194.1000000238419,True,u,107800.0,1694.800000011921,1669834103145,1695,HRV,HRV_0191,2022-11-30 18:52:00
56,"[{'imgObject': {}, 'id': 'fried eggs', 'src': '/static/foodstim60/fried eggs.jpg', 'key': 'u', 'origWidth': 410, 'origHeight': 410, 'width': 410, 'height': 410, 'widthPercent': 0.45, 'rescaleHeight': False, 'trialN': 56, 'loaded': True, 'loadedTime': 3405.5, 'positionName': 'LEFT', 'positionCoords': [281.2, 245], 'bid': 0.3}, {'imgObject': {}, 'id': 'froot loops w milk', 'src': '/static/foodstim60/froot loops w milk.jpg', 'key': 'i', 'origWidth': 410, 'origHeight': 410, 'width': 410, 'height': 410, 'widthPercent': 0.45, 'rescaleHeight': False, 'trialN': 56, 'loaded': True, 'loadedTime': 2514.5, 'positionName': 'RIGHT', 'positionCoords': [748.8, 245], 'bid': 0.06}]",107800.10000002384,1669834103145,fried eggs,froot loops w milk,0.3,0.06,-0.24,fried eggs,1196.2999999523163,1214,1214.199999988079,True,u,109514.60000002384,1714.5,1669834104859,1714,HRV,HRV_0191,2022-11-30 18:52:00
57,"[{'imgObject': {}, 'id': 'eggsalad', 'src': '/static/foodstim60/eggsalad.jpg', 'key': 'u', 'origWidth': 410, 'origHeight': 409, 'width': 410, 'height': 409, 'widthPercent': 0.45, 'rescaleHeight': False, 'trialN': 57, 'loaded': True, 'loadedTime': 3221.300000011921, 'positionName': 'LEFT', 'positionCoords': [281.2, 245.5], 'bid': 0.05}, {'imgObject': {}, 'id': 'eggs', 'src': '/static/foodstim60/eggs.jpg', 'key': 'i', 'origWidth': 409, 'origHeight': 409, 'width': 409, 'height': 409, 'widthPercent': 0.45, 'rescaleHeight': False, 'trialN': 57, 'loaded': True, 'loadedTime': 3142.100000023842, 'positionName': 'RIGHT', 'positionCoords': [748.8, 245.5], 'bid': 3.25}]",109514.80000001192,1669834104859,eggsalad,eggs,0.05,3.25,3.2,eggsalad,2237.5,2245,2245.099999964237,True,u,112260.69999998808,2745.899999976158,1669834107605,2746,HRV,HRV_0191,2022-11-30 18:52:00
58,"[{'imgObject': {}, 'id': 'hotdog w must', 'src': '/static/foodstim60/hotdog w must.jpg', 'key': 'u', 'origWidth': 409, 'origHeight': 409, 'width': 409, 'height': 409, 'widthPercent': 0.45, 'rescaleHeight': False, 'trialN': 58, 'loaded': True, 'loadedTime': 2738, 'positionName': 'LEFT', 'positionCoords': [282.2, 245.5], 'bid': 0.06}, {'imgObject': {}, 'id': 'luckycharms', 'src': '/static/foodstim60/luckycharms.jpg', 'key': 'i', 'origWidth': 410, 'origHeight': 409, 'width': 410, 'height': 409, 'widthPercent': 0.45, 'rescaleHeight': False, 'trialN': 58, 'loaded': True, 'loadedTime': 2580.699999988079, 'positionName': 'RIGHT', 'positionCoords': [748.8, 245.5], 'bid': 0.19}]",112260.89999997616,1669834107605,hotdog w must,luckycharms,0.06,0.19,0.13,luckycharms,2359.2000000476837,2366,2365.7000000476837,True,i,115127.0,2866.100000023842,1669834110471,2866,HRV,HRV_0191,2022-11-30 18:52:00
59,"[{'imgObject': {}, 'id': 'orange slices', 'src': '/static/foodstim60/orange slices.jpg', 'key': 'u', 'origWidth': 409, 'origHeight': 410, 'width': 409, 'height': 410, 'widthPercent': 0.45, 'rescaleHeight': False, 'trialN': 59, 'loaded': True, 'loadedTime': 3641.300000011921, 'positionName': 'LEFT', 'positionCoords': [282.2, 245], 'bid': 9.93}, {'imgObject': {}, 'id': 'steak', 'src': '/static/foodstim60/steak.jpg', 'key': 'i', 'origWidth': 410, 'origHeight': 410, 'width': 410, 'height': 410, 'widthPercent': 0.45, 'rescaleHeight': False, 'trialN': 59, 'loaded': True, 'loadedTime': 2563.899999976158, 'positionName': 'RIGHT', 'positionCoords': [748.8, 245], 'bid': 4.95}]",115127.19999998808,1669834110471,orange slices,steak,9.93,4.95,-4.9799999999999995,steak,1183.9000000357628,1206,1205.199999988079,True,i,116833.19999998808,1706.0,1669834112177,1706,HRV,HRV_0191,2022-11-30 18:52:00
60,"[{'imgObject': {}, 'id': 'froot loops w milk', 'src': '/static/foodstim60/froot loops w milk.jpg', 'key': 'u', 'origWidth': 410, 'origHeight': 410, 'width': 410, 'height': 410, 'widthPercent': 0.45, 'rescaleHeight': False, 'trialN': 60, 'loaded': True, 'loadedTime': 2530.899999976158, 'positionName': 'LEFT', 'positionCoords': [281.2, 245], 'bid': 0.06}, {'imgObject': {}, 'id': 'shreddedwheatwithmilk', 'src': '/static/foodstim60/shreddedwheatwithmilk.jpg', 'key': 'i', 'origWidth': 410, 'origHeight': 410, 'width': 410, 'height': 410, 'widthPercent': 0.45, 'rescaleHeight': False, 'trialN': 60, 'loaded': True, 'loadedTime': 3450.600000023842, 'positionName': 'RIGHT', 'positionCoords': [748.8, 245], 'bid': 1.75}]",116833.39999997616,1669834112178,froot loops w milk,shreddedwheatwithmilk,0.06,1.75,1.69,shreddedwheatwithmilk,2025.5,2033,2033.300000011921,True,i,119367.0,2533.600000023842,1669834114711,2533,HRV,HRV_0191,2022-11-30 18:52:00
61,"[{'imgObject': {}, 'id': 'apple slices', 'src': '/static/foodstim60/apple slices.jpg', 'key': 'u', 'origWidth': 409, 'origHeight': 410, 'width': 409, 'height': 410, 'widthPercent': 0.45, 'rescaleHeight': False, 'trialN': 61, 'loaded': True, 'loadedTime': 3640.800000011921, 'positionName': 'LEFT', 'positionCoords': [282.2, 245], 'bid': 9.93}, {'imgObject': {}, 'id': 'lox', 'src': '/static/foodstim60/lox.jpg', 'key': 'i', 'origWidth': 410, 'origHeight': 411, 'width': 410, 'height': 411, 'widthPercent': 0.45, 'rescaleHeight': False, 'trialN': 61, 'loaded': True, 'loadedTime': 2535.399999976158, 'positionName': 'RIGHT', 'positionCoords': [748.8, 244.5], 'bid': 9.93}]",119367.19999998808,1669834114711,apple slices,lox,9.93,9.93,0.0,lox,1129.6000000238419,1134,1133.4000000357628,True,i,121000.89999997616,1633.699999988079,1669834116345,1634,HRV,HRV_0191,2022-11-30 18:52:00
62,"[{'imgObject': {}, 'id': 'bagel plain', 'src': '/static/foodstim60/bagel plain.jpg', 'key': 'u', 'origWidth': 410, 'origHeight': 410, 'width': 410, 'height': 410, 'widthPercent': 0.45, 'rescaleHeight': False, 'trialN': 62, 'loaded': True, 'loadedTime': 3456, 'positionName': 'LEFT', 'positionCoords': [281.2, 245], 'bid': 0.12}, {'imgObject': {}, 'id': 'hashbrowns', 'src': '/static/foodstim60/hashbrowns.jpg', 'key': 'i', 'origWidth': 411, 'origHeight': 410, 'width': 411, 'height': 410, 'widthPercent': 0.45, 'rescaleHeight': False, 'trialN': 62, 'loaded': True, 'loadedTime': 3191.5, 'positionName': 'RIGHT', 'positionCoords': [748.8, 245], 'bid': 0.05}]",121001.10000002384,1669834116345,bagel plain,hashbrowns,0.12,0.05,-0.06999999999999999,bagel plain,1457.5999999642372,1463,1462.5,True,u,122964.5,1963.3999999761581,1669834118309,1964,HRV,HRV_0191,2022-11-30 18:52:00
63,"[{'imgObject': {}, 'id': 'pear', 'src': '/static/foodstim60/pear.jpg', 'key': 'u', 'origWidth': 411, 'origHeight': 410, 'width': 411, 'height': 410, 'widthPercent': 0.45, 'rescaleHeight': False, 'trialN': 63, 'loaded': True, 'loadedTime': 3653.899999976158, 'positionName': 'LEFT', 'positionCoords': [280.2, 245], 'bid': 9.88}, {'imgObject': {}, 'id': 'rigatoni', 'src': '/static/foodstim60/rigatoni.jpg', 'key': 'i', 'origWidth': 411, 'origHeight': 411, 'width': 411, 'height': 411, 'widthPercent': 0.45, 'rescaleHeight': False, 'trialN': 63, 'loaded': True, 'loadedTime': 3484.199999988079, 'positionName': 'RIGHT', 'positionCoords': [748.8, 244.5], 'bid': 1.18}]",122964.69999998808,1669834118309,pear,rigatoni,9.88,1.18,-8.700000000000001,pear,1293.1000000238419,1310,1310.0,True,u,124775.80000001192,1811.1000000238419,1669834120120,1811,HRV,HRV_0191,2022-11-30 18:52:00
64,"[{'imgObject': {}, 'id': 'strawberries', 'src': '/static/foodstim60/strawberries.jpg', 'key': 'u', 'origWidth': 410, 'origHeight': 410, 'width': 410, 'height': 410, 'widthPercent': 0.45, 'rescaleHeight': False, 'trialN': 64, 'loaded': True, 'loadedTime': 3636.300000011921, 'positionName': 'LEFT', 'positionCoords': [281.2, 245], 'bid': 9.91}, {'imgObject': {}, 'id': 'sushi w_condiments', 'src': '/static/foodstim60/sushi w_condiments.jpg', 'key': 'i', 'origWidth': 410, 'origHeight': 410, 'width': 410, 'height': 410, 'widthPercent': 0.45, 'rescaleHeight': False, 'trialN': 64, 'loaded': True, 'loadedTime': 3470.300000011921, 'positionName': 'RIGHT', 'positionCoords': [748.8, 245], 'bid': 10}]",124775.89999997616,1669834120120,strawberries,sushi w_condiments,9.91,10.0,0.08999999999999986,sushi w_condiments,1074.6000000238419,1081,1080.9000000357628,True,i,126357.39999997616,1581.5,1669834121701,1581,HRV,HRV_0191,2022-11-30 18:52:00
65,"[{'imgObject': {}, 'id': 'burrito', 'src': '/static/foodstim60/burrito.jpg', 'key': 'u', 'origWidth': 410, 'origHeight': 410, 'width': 410, 'height': 410, 'widthPercent': 0.45, 'rescaleHeight': False, 'trialN': 65, 'loaded': True, 'loadedTime': 2539.399999976158, 'positionName': 'LEFT', 'positionCoords': [281.2, 245], 'bid': 8.31}, {'imgObject': {}, 'id': 'banana', 'src': '/static/foodstim60/banana.jpg', 'key': 'i', 'origWidth': 410, 'origHeight': 410, 'width': 410, 'height': 410, 'widthPercent': 0.45, 'rescaleHeight': False, 'trialN': 65, 'loaded': True, 'loadedTime': 3649.800000011921, 'positionName': 'RIGHT', 'positionCoords': [748.8, 245], 'bid': 9.12}]",126357.60000002384,1669834121702,burrito,banana,8.31,9.12,0.8099999999999987,burrito,916.0,922,922.3999999761581,True,u,127780.19999998808,1422.5999999642372,1669834123124,1422,HRV,HRV_0191,2022-11-30 18:52:00
66,"[{'imgObject': {}, 'id': 'apple slices', 'src': '/static/foodstim60/apple slices.jpg', 'key': 'u', 'origWidth': 409, 'origHeight': 410, 'width': 409, 'height': 410, 'widthPercent': 0.45, 'rescaleHeight': False, 'trialN': 66, 'loaded': True, 'loadedTime': 3640.699999988079, 'positionName': 'LEFT', 'positionCoords': [282.2, 245], 'bid': 9.93}, {'imgObject': {}, 'id': 'blackbeanswithrice', 'src': '/static/foodstim60/blackbeanswithrice.jpg', 'key': 'i', 'origWidth': 410, 'origHeight': 410, 'width': 410, 'height': 410, 'widthPercent': 0.45, 'rescaleHeight': False, 'trialN': 66, 'loaded': True, 'loadedTime': 3619.399999976158, 'positionName': 'RIGHT', 'positionCoords': [748.8, 245], 'bid': 4.48}]",127780.5,1669834123124,apple slices,blackbeanswithrice,9.93,4.48,-5.449999999999999,apple slices,1224.0,1246,1245.1000000238419,True,u,129525.80000001192,1745.300000011921,1669834124870,1746,HRV,HRV_0191,2022-11-30 18:52:00
67,"[{'imgObject': {}, 'id': 'fried eggs', 'src': '/static/foodstim60/fried eggs.jpg', 'key': 'u', 'origWidth': 410, 'origHeight': 410, 'width': 410, 'height': 410, 'widthPercent': 0.45, 'rescaleHeight': False, 'trialN': 67, 'loaded': True, 'loadedTime': 3407.5, 'positionName': 'LEFT', 'positionCoords': [281.2, 245], 'bid': 0.3}, {'imgObject': {}, 'id': 'luckycharms', 'src': '/static/foodstim60/luckycharms.jpg', 'key': 'i', 'origWidth': 410, 'origHeight': 409, 'width': 410, 'height': 409, 'widthPercent': 0.45, 'rescaleHeight': False, 'trialN': 67, 'loaded': True, 'loadedTime': 2578.5, 'positionName': 'RIGHT', 'positionCoords': [748.8, 245.5], 'bid': 0.19}]",129526.0,1669834124870,fried eggs,luckycharms,0.3,0.19,-0.10999999999999999,fried eggs,1449.3999999761581,1457,1456.699999988079,True,u,131483.19999998808,1957.199999988079,1669834126827,1957,HRV,HRV_0191,2022-11-30 18:52:00
68,"[{'imgObject': {}, 'id': 'blueberries', 'src': '/static/foodstim60/blueberries.jpg', 'key': 'u', 'origWidth': 411, 'origHeight': 411, 'width': 411, 'height': 411, 'widthPercent': 0.45, 'rescaleHeight': False, 'trialN': 68, 'loaded': True, 'loadedTime': 3657.300000011921, 'positionName': 'LEFT', 'positionCoords': [280.2, 244.5], 'bid': 9.88}, {'imgObject': {}, 'id': 'bagel and cc', 'src': '/static/foodstim60/bagel and cc.jpg', 'key': 'i', 'origWidth': 410, 'origHeight': 410, 'width': 410, 'height': 410, 'widthPercent': 0.45, 'rescaleHeight': False, 'trialN': 68, 'loaded': True, 'loadedTime': 3022.800000011921, 'positionName': 'RIGHT', 'positionCoords': [748.8, 245], 'bid': 1.97}]",131483.39999997616,1669834126827,blueberries,bagel and cc,9.88,1.97,-7.910000000000001,blueberries,1062.800000011921,1071,1070.1000000238419,True,u,133053.80000001192,1570.4000000357628,1669834128398,1571,HRV,HRV_0191,2022-11-30 18:52:00
69,"[{'imgObject': {}, 'id': 'cherry tomato', 'src': '/static/foodstim60/cherry tomato.jpg', 'key': 'u', 'origWidth': 410, 'origHeight': 410, 'width': 410, 'height': 410, 'widthPercent': 0.45, 'rescaleHeight': False, 'trialN': 69, 'loaded': True, 'loadedTime': 2582.899999976158, 'positionName': 'LEFT', 'positionCoords': [281.2, 245], 'bid': 7.76}, {'imgObject': {}, 'id': 'corn cob', 'src': '/static/foodstim60/corn cob.jpg', 'key': 'i', 'origWidth': 411, 'origHeight': 411, 'width': 411, 'height': 411, 'widthPercent': 0.45, 'rescaleHeight': False, 'trialN': 69, 'loaded': True, 'loadedTime': 3163.899999976158, 'positionName': 'RIGHT', 'positionCoords': [748.8, 244.5], 'bid': 5.83}]",133054.0,1669834128398,cherry tomato,corn cob,7.76,5.83,-1.9299999999999997,cherry tomato,1802.300000011921,1808,1808.3999999761581,True,u,135363.0,2309.0,1669834130707,2309,HRV,HRV_0191,2022-11-30 18:52:00
70,"[{'imgObject': {}, 'id': 'turkeysandwich', 'src': '/static/foodstim60/turkeysandwich.jpg', 'key': 'u', 'origWidth': 409, 'origHeight': 409, 'width': 409, 'height': 409, 'widthPercent': 0.45, 'rescaleHeight': False, 'trialN': 70, 'loaded': True, 'loadedTime': 3426.199999988079, 'positionName': 'LEFT', 'positionCoords': [282.2, 245.5], 'bid': 5.55}, {'imgObject': {}, 'id': 'chicken nuggets2', 'src': '/static/foodstim60/chicken nuggets2.jpg', 'key': 'i', 'origWidth': 410, 'origHeight': 409, 'width': 410, 'height': 409, 'widthPercent': 0.45, 'rescaleHeight': False, 'trialN': 70, 'loaded': True, 'loadedTime': 3461, 'positionName': 'RIGHT', 'positionCoords': [748.8, 245.5], 'bid': 6.09}]",135363.10000002384,1669834130707,turkeysandwich,chicken nuggets2,5.55,6.09,0.54,chicken nuggets2,1312.8999999761581,1317,1316.7999999523163,True,i,137180.60000002384,1817.5,1669834132525,1818,HRV,HRV_0191,2022-11-30 18:52:00
71,"[{'imgObject': {}, 'id': 'blackbeanswithrice', 'src': '/static/foodstim60/blackbeanswithrice.jpg', 'key': 'u', 'origWidth': 410, 'origHeight': 410, 'width': 410, 'height': 410, 'widthPercent': 0.45, 'rescaleHeight': False, 'trialN': 71, 'loaded': True, 'loadedTime': 3630.800000011921, 'positionName': 'LEFT', 'positionCoords': [281.2, 245], 'bid': 4.48}, {'imgObject': {}, 'id': 'raisin bran w milk', 'src': '/static/foodstim60/raisin bran w milk.jpg', 'key': 'i', 'origWidth': 411, 'origHeight': 411, 'width': 411, 'height': 411, 'widthPercent': 0.45, 'rescaleHeight': False, 'trialN': 71, 'loaded': True, 'loadedTime': 3144.699999988079, 'positionName': 'RIGHT', 'positionCoords': [748.8, 244.5], 'bid': 4.95}]",137180.60000002384,1669834132525,blackbeanswithrice,raisin bran w milk,4.48,4.95,0.46999999999999975,blackbeanswithrice,1391.5,1397,1397.5,True,u,139078.5,1897.8999999761581,1669834134423,1898,HRV,HRV_0191,2022-11-30 18:52:00
72,"[{'imgObject': {}, 'id': 'pear', 'src': '/static/foodstim60/pear.jpg', 'key': 'u', 'origWidth': 411, 'origHeight': 410, 'width': 411, 'height': 410, 'widthPercent': 0.45, 'rescaleHeight': False, 'trialN': 72, 'loaded': True, 'loadedTime': 3653.100000023842, 'positionName': 'LEFT', 'positionCoords': [280.2, 245], 'bid': 9.88}, {'imgObject': {}, 'id': 'fruitsalad', 'src': '/static/foodstim60/fruitsalad.jpg', 'key': 'i', 'origWidth': 410, 'origHeight': 410, 'width': 410, 'height': 410, 'widthPercent': 0.45, 'rescaleHeight': False, 'trialN': 72, 'loaded': True, 'loadedTime': 2783.199999988079, 'positionName': 'RIGHT', 'positionCoords': [748.8, 245], 'bid': 10}]",139078.60000002384,1669834134423,pear,fruitsalad,9.88,10.0,0.11999999999999922,fruitsalad,1261.3999999761581,1282,1282.199999988079,True,i,140861.19999998808,1782.5999999642372,1669834136205,1782,HRV,HRV_0191,2022-11-30 18:52:00
73,"[{'imgObject': {}, 'id': 'bagel and cc', 'src': '/static/foodstim60/bagel and cc.jpg', 'key': 'u', 'origWidth': 410, 'origHeight': 410, 'width': 410, 'height': 410, 'widthPercent': 0.45, 'rescaleHeight': False, 'trialN': 73, 'loaded': True, 'loadedTime': 3026.5, 'positionName': 'LEFT', 'positionCoords': [281.2, 245], 'bid': 1.97}, {'imgObject': {}, 'id': 'seaweed', 'src': '/static/foodstim60/seaweed.jpg', 'key': 'i', 'origWidth': 410, 'origHeight': 410, 'width': 410, 'height': 410, 'widthPercent': 0.45, 'rescaleHeight': False, 'trialN': 73, 'loaded': True, 'loadedTime': 3318.100000023842, 'positionName': 'RIGHT', 'positionCoords': [748.8, 245], 'bid': 0.06}]",140861.19999998808,1669834136205,bagel and cc,seaweed,1.97,0.06,-1.91,bagel and cc,1278.699999988079,1299,1298.800000011921,True,u,142660.80000001192,1799.6000000238419,1669834138005,1800,HRV,HRV_0191,2022-11-30 18:52:00
74,"[{'imgObject': {}, 'id': 'granola w milk', 'src': '/static/foodstim60/granola w milk.jpg', 'key': 'u', 'origWidth': 410, 'origHeight': 410, 'width': 410, 'height': 410, 'widthPercent': 0.45, 'rescaleHeight': False, 'trialN': 74, 'loaded': True, 'loadedTime': 3615.100000023842, 'positionName': 'LEFT', 'positionCoords': [281.2, 245], 'bid': 4.62}, {'imgObject': {}, 'id': 'lox', 'src': '/static/foodstim60/lox.jpg', 'key': 'i', 'origWidth': 410, 'origHeight': 411, 'width': 410, 'height': 411, 'widthPercent': 0.45, 'rescaleHeight': False, 'trialN': 74, 'loaded': True, 'loadedTime': 2533.399999976158, 'positionName': 'RIGHT', 'positionCoords': [748.8, 244.5], 'bid': 9.93}]",142661.0,1669834138005,granola w milk,lox,4.62,9.93,5.31,lox,757.8000000119209,765,765.1999999880791,True,i,143926.39999997616,1265.3999999761581,1669834139271,1266,HRV,HRV_0191,2022-11-30 18:52:00
75,"[{'imgObject': {}, 'id': 'cheerios', 'src': '/static/foodstim60/cheerios.jpg', 'key': 'u', 'origWidth': 409, 'origHeight': 410, 'width': 409, 'height': 410, 'widthPercent': 0.45, 'rescaleHeight': False, 'trialN': 75, 'loaded': True, 'loadedTime': 3438.5, 'positionName': 'LEFT', 'positionCoords': [282.2, 245], 'bid': 0.43}, {'imgObject': {}, 'id': 'hashbrowns', 'src': '/static/foodstim60/hashbrowns.jpg', 'key': 'i', 'origWidth': 411, 'origHeight': 410, 'width': 411, 'height': 410, 'widthPercent': 0.45, 'rescaleHeight': False, 'trialN': 75, 'loaded': True, 'loadedTime': 3191, 'positionName': 'RIGHT', 'positionCoords': [748.8, 245], 'bid': 0.05}]",143926.60000002384,1669834139271,cheerios,hashbrowns,0.43,0.05,-0.38,cheerios,1069.0999999642372,1085,1085.0999999642372,True,u,145512.39999997616,1585.7999999523163,1669834140857,1586,HRV,HRV_0191,2022-11-30 18:52:00
76,"[{'imgObject': {}, 'id': 'mashed potato', 'src': '/static/foodstim60/mashed potato.jpg', 'key': 'u', 'origWidth': 409, 'origHeight': 409, 'width': 409, 'height': 409, 'widthPercent': 0.45, 'rescaleHeight': False, 'trialN': 76, 'loaded': True, 'loadedTime': 3009, 'positionName': 'LEFT', 'positionCoords': [282.2, 245.5], 'bid': 2.51}, {'imgObject': {}, 'id': 'mac & cheese', 'src': '/static/foodstim60/mac & cheese.jpg', 'key': 'i', 'origWidth': 410, 'origHeight': 410, 'width': 410, 'height': 410, 'widthPercent': 0.45, 'rescaleHeight': False, 'trialN': 76, 'loaded': True, 'loadedTime': 3148.199999988079, 'positionName': 'RIGHT', 'positionCoords': [748.8, 245], 'bid': 0.09}]",145512.5,1669834140857,mashed potato,mac & cheese,2.51,0.09,-2.42,mashed potato,1323.199999988079,1330,1329.8999999761581,True,u,147343.0,1830.5,1669834142687,1830,HRV,HRV_0191,2022-11-30 18:52:00
77,"[{'imgObject': {}, 'id': 'chickenfingers', 'src': '/static/foodstim60/chickenfingers.jpg', 'key': 'u', 'origWidth': 410, 'origHeight': 410, 'width': 410, 'height': 410, 'widthPercent': 0.45, 'rescaleHeight': False, 'trialN': 77, 'loaded': True, 'loadedTime': 3446.399999976158, 'positionName': 'LEFT', 'positionCoords': [281.2, 245], 'bid': 8.61}, {'imgObject': {}, 'id': 'rigatoni and sauce', 'src': '/static/foodstim60/rigatoni and sauce.jpg', 'key': 'i', 'origWidth': 410, 'origHeight': 411, 'width': 410, 'height': 411, 'widthPercent': 0.45, 'rescaleHeight': False, 'trialN': 77, 'loaded': True, 'loadedTime': 3020.5, 'positionName': 'RIGHT', 'positionCoords': [748.8, 244.5], 'bid': 6.8100000000000005}]",147343.10000002384,1669834142687,chickenfingers,rigatoni and sauce,8.61,6.8100000000000005,-1.799999999999999,chickenfingers,1123.3999999761581,1128,1127.3999999761581,True,u,148970.80000001192,1627.699999988079,1669834144315,1628,HRV,HRV_0191,2022-11-30 18:52:00
78,"[{'imgObject': {}, 'id': 'tacos', 'src': '/static/foodstim60/tacos.jpg', 'key': 'u', 'origWidth': 411, 'origHeight': 411, 'width': 411, 'height': 411, 'widthPercent': 0.45, 'rescaleHeight': False, 'trialN': 78, 'loaded': True, 'loadedTime': 3662.100000023842, 'positionName': 'LEFT', 'positionCoords': [280.2, 244.5], 'bid': 9.87}, {'imgObject': {}, 'id': 'pear', 'src': '/static/foodstim60/pear.jpg', 'key': 'i', 'origWidth': 411, 'origHeight': 410, 'width': 411, 'height': 410, 'widthPercent': 0.45, 'rescaleHeight': False, 'trialN': 78, 'loaded': True, 'loadedTime': 3654.199999988079, 'positionName': 'RIGHT', 'positionCoords': [748.8, 245], 'bid': 9.88}]",148971.0,1669834144315,tacos,pear,9.87,9.88,0.010000000000001563,tacos,1039.5,1062,1061.5,True,u,150532.80000001192,1561.800000011921,1669834145877,1562,HRV,HRV_0191,2022-11-30 18:52:00
79,"[{'imgObject': {}, 'id': 'fried eggs', 'src': '/static/foodstim60/fried eggs.jpg', 'key': 'u', 'origWidth': 410, 'origHeight': 410, 'width': 410, 'height': 410, 'widthPercent': 0.45, 'rescaleHeight': False, 'trialN': 79, 'loaded': True, 'loadedTime': 3407.5, 'positionName': 'LEFT', 'positionCoords': [281.2, 245], 'bid': 0.3}, {'imgObject': {}, 'id': 'omelette', 'src': '/static/foodstim60/omelette.jpg', 'key': 'i', 'origWidth': 410, 'origHeight': 409, 'width': 410, 'height': 409, 'widthPercent': 0.45, 'rescaleHeight': False, 'trialN': 79, 'loaded': True, 'loadedTime': 3320.399999976158, 'positionName': 'RIGHT', 'positionCoords': [748.8, 245.5], 'bid': 4.23}]",150532.89999997616,1669834145877,fried eggs,omelette,0.3,4.23,3.9300000000000006,omelette,1772.6000000238419,1777,1777.0,True,i,152810.10000002384,2277.2000000476837,1669834148154,2277,HRV,HRV_0191,2022-11-30 18:52:00
80,"[{'imgObject': {}, 'id': 'burger', 'src': '/static/foodstim60/burger.jpg', 'key': 'u', 'origWidth': 409, 'origHeight': 409, 'width': 409, 'height': 409, 'widthPercent': 0.45, 'rescaleHeight': False, 'trialN': 80, 'loaded': True, 'loadedTime': 3651.399999976158, 'positionName': 'LEFT', 'positionCoords': [282.2, 245.5], 'bid': 7.23}, {'imgObject': {}, 'id': 'sweetpotato', 'src': '/static/foodstim60/sweetpotato.jpg', 'key': 'i', 'origWidth': 410, 'origHeight': 410, 'width': 410, 'height': 410, 'widthPercent': 0.45, 'rescaleHeight': False, 'trialN': 80, 'loaded': True, 'loadedTime': 3440.800000011921, 'positionName': 'RIGHT', 'positionCoords': [748.8, 245], 'bid': 5.11}]",152810.30000001192,1669834148155,burger,sweetpotato,7.23,5.11,-2.12,burger,1128.0999999642372,1149,1149.199999988079,True,u,154460.39999997616,1650.0999999642372,1669834149805,1650,HRV,HRV_0191,2022-11-30 18:52:00
81,"[{'imgObject': {}, 'id': 'Grapes', 'src': '/static/foodstim60/Grapes.jpg', 'key': 'u', 'origWidth': 411, 'origHeight': 411, 'width': 411, 'height': 411, 'widthPercent': 0.45, 'rescaleHeight': False, 'trialN': 81, 'loaded': True, 'loadedTime': 2735.5, 'positionName': 'LEFT', 'positionCoords': [280.2, 244.5], 'bid': 10}, {'imgObject': {}, 'id': 'blueberries', 'src': '/static/foodstim60/blueberries.jpg', 'key': 'i', 'origWidth': 411, 'origHeight': 411, 'width': 411, 'height': 411, 'widthPercent': 0.45, 'rescaleHeight': False, 'trialN': 81, 'loaded': True, 'loadedTime': 3656.899999976158, 'positionName': 'RIGHT', 'positionCoords': [748.8, 244.5], 'bid': 9.88}]",154460.60000002384,1669834149805,Grapes,blueberries,10.0,9.88,-0.11999999999999922,blueberries,1047.5999999642372,1054,1053.7999999523163,True,i,156015.5,1554.8999999761581,1669834151360,1555,HRV,HRV_0191,2022-11-30 18:52:00
82,"[{'imgObject': {}, 'id': 'salmon', 'src': '/static/foodstim60/salmon.jpg', 'key': 'u', 'origWidth': 410, 'origHeight': 409, 'width': 410, 'height': 409, 'widthPercent': 0.45, 'rescaleHeight': False, 'trialN': 82, 'loaded': True, 'loadedTime': 3004.899999976158, 'positionName': 'LEFT', 'positionCoords': [281.2, 245.5], 'bid': 9.91}, {'imgObject': {}, 'id': 'cantaloupe', 'src': '/static/foodstim60/cantaloupe.jpg', 'key': 'i', 'origWidth': 409, 'origHeight': 409, 'width': 409, 'height': 409, 'widthPercent': 0.45, 'rescaleHeight': False, 'trialN': 82, 'loaded': True, 'loadedTime': 3614.100000023842, 'positionName': 'RIGHT', 'positionCoords': [748.8, 245.5], 'bid': 9.91}]",156015.69999998808,1669834151360,salmon,cantaloupe,9.91,9.91,0.0,salmon,907.5,926,925.8000000119209,True,u,157441.80000001192,1426.1000000238419,1669834152786,1426,HRV,HRV_0191,2022-11-30 18:52:00
83,"[{'imgObject': {}, 'id': 'olives', 'src': '/static/foodstim60/olives.jpg', 'key': 'u', 'origWidth': 410, 'origHeight': 410, 'width': 410, 'height': 410, 'widthPercent': 0.45, 'rescaleHeight': False, 'trialN': 83, 'loaded': True, 'loadedTime': 2981.399999976158, 'positionName': 'LEFT', 'positionCoords': [281.2, 245], 'bid': 9.97}, {'imgObject': {}, 'id': 'apple slices', 'src': '/static/foodstim60/apple slices.jpg', 'key': 'i', 'origWidth': 409, 'origHeight': 410, 'width': 409, 'height': 410, 'widthPercent': 0.45, 'rescaleHeight': False, 'trialN': 83, 'loaded': True, 'loadedTime': 3640.199999988079, 'positionName': 'RIGHT', 'positionCoords': [748.8, 245], 'bid': 9.93}]",157442.0,1669834152786,olives,apple slices,9.97,9.93,-0.040000000000000924,olives,1379.199999988079,1386,1385.800000011921,True,u,159328.39999997616,1886.3999999761581,1669834154673,1887,HRV,HRV_0191,2022-11-30 18:52:00
84,"[{'imgObject': {}, 'id': 'avocado', 'src': '/static/foodstim60/avocado.jpg', 'key': 'u', 'origWidth': 409, 'origHeight': 409, 'width': 409, 'height': 409, 'widthPercent': 0.45, 'rescaleHeight': False, 'trialN': 84, 'loaded': True, 'loadedTime': 3652.5, 'positionName': 'LEFT', 'positionCoords': [282.2, 245.5], 'bid': 9.93}, {'imgObject': {}, 'id': 'strawberries', 'src': '/static/foodstim60/strawberries.jpg', 'key': 'i', 'origWidth': 410, 'origHeight': 410, 'width': 410, 'height': 410, 'widthPercent': 0.45, 'rescaleHeight': False, 'trialN': 84, 'loaded': True, 'loadedTime': 3631.5, 'positionName': 'RIGHT', 'positionCoords': [748.8, 245], 'bid': 9.91}]",159328.5,1669834154673,avocado,strawberries,9.93,9.91,-0.019999999999999574,avocado,928.6999999880791,950,950.3999999761581,True,u,160779.80000001192,1451.300000011921,1669834156124,1451,HRV,HRV_0191,2022-11-30 18:52:00
85,"[{'imgObject': {}, 'id': 'cocktailshrimp', 'src': '/static/foodstim60/cocktailshrimp.jpg', 'key': 'u', 'origWidth': 410, 'origHeight': 410, 'width': 410, 'height': 410, 'widthPercent': 0.45, 'rescaleHeight': False, 'trialN': 85, 'loaded': True, 'loadedTime': 2584.800000011921, 'positionName': 'LEFT', 'positionCoords': [281.2, 245], 'bid': 9.86}, {'imgObject': {}, 'id': 'mango', 'src': '/static/foodstim60/mango.jpg', 'key': 'i', 'origWidth': 411, 'origHeight': 411, 'width': 411, 'height': 411, 'widthPercent': 0.45, 'rescaleHeight': False, 'trialN': 85, 'loaded': True, 'loadedTime': 3658.300000011921, 'positionName': 'RIGHT', 'positionCoords': [748.8, 244.5], 'bid': 9.84}]",160780.10000002384,1669834156125,cocktailshrimp,mango,9.86,9.84,-0.019999999999999574,cocktailshrimp,1002.7999999523163,1010,1009.7999999523163,True,u,162290.5,1510.3999999761581,1669834157635,1510,HRV,HRV_0191,2022-11-30 18:52:00
86,"[{'imgObject': {}, 'id': 'avocado', 'src': '/static/foodstim60/avocado.jpg', 'key': 'u', 'origWidth': 409, 'origHeight': 409, 'width': 409, 'height': 409, 'widthPercent': 0.45, 'rescaleHeight': False, 'trialN': 86, 'loaded': True, 'loadedTime': 3651.5, 'positionName': 'LEFT', 'positionCoords': [282.2, 245.5], 'bid': 9.93}, {'imgObject': {}, 'id': 'omelette', 'src': '/static/foodstim60/omelette.jpg', 'key': 'i', 'origWidth': 410, 'origHeight': 409, 'width': 410, 'height': 409, 'widthPercent': 0.45, 'rescaleHeight': False, 'trialN': 86, 'loaded': True, 'loadedTime': 3396.899999976158, 'positionName': 'RIGHT', 'positionCoords': [748.8, 245.5], 'bid': 4.23}]",162290.80000001192,1669834157635,avocado,omelette,9.93,4.23,-5.699999999999999,avocado,1765.0,1786,1785.800000011921,True,u,164577.0,2286.199999988079,1669834159922,2287,HRV,HRV_0191,2022-11-30 18:52:00
87,"[{'imgObject': {}, 'id': 'popsicles', 'src': '/static/foodstim60/popsicles.jpg', 'key': 'u', 'origWidth': 410, 'origHeight': 410, 'width': 410, 'height': 410, 'widthPercent': 0.45, 'rescaleHeight': False, 'trialN': 87, 'loaded': True, 'loadedTime': 3677.199999988079, 'positionName': 'LEFT', 'positionCoords': [281.2, 245], 'bid': 0.16}, {'imgObject': {}, 'id': 'raisin bran w milk', 'src': '/static/foodstim60/raisin bran w milk.jpg', 'key': 'i', 'origWidth': 411, 'origHeight': 411, 'width': 411, 'height': 411, 'widthPercent': 0.45, 'rescaleHeight': False, 'trialN': 87, 'loaded': True, 'loadedTime': 3145.699999988079, 'positionName': 'RIGHT', 'positionCoords': [748.8, 244.5], 'bid': 4.95}]",164577.19999998808,1669834159922,popsicles,raisin bran w milk,0.16,4.95,4.79,raisin bran w milk,1026.4000000357628,1030,1029.9000000357628,True,i,166107.19999998808,1530.0,1669834161452,1530,HRV,HRV_0191,2022-11-30 18:52:00
88,"[{'imgObject': {}, 'id': 'strawberries', 'src': '/static/foodstim60/strawberries.jpg', 'key': 'u', 'origWidth': 410, 'origHeight': 410, 'width': 410, 'height': 410, 'widthPercent': 0.45, 'rescaleHeight': False, 'trialN': 88, 'loaded': True, 'loadedTime': 3636.199999988079, 'positionName': 'LEFT', 'positionCoords': [281.2, 245], 'bid': 9.91}, {'imgObject': {}, 'id': 'burrito', 'src': '/static/foodstim60/burrito.jpg', 'key': 'i', 'origWidth': 410, 'origHeight': 410, 'width': 410, 'height': 410, 'widthPercent': 0.45, 'rescaleHeight': False, 'trialN': 88, 'loaded': True, 'loadedTime': 2538.899999976158, 'positionName': 'RIGHT', 'positionCoords': [748.8, 245], 'bid': 8.31}]",166107.39999997616,1669834161452,strawberries,burrito,9.91,8.31,-1.5999999999999996,burrito,1201.2000000476837,1208,1207.800000011921,True,i,167815.80000001192,1708.4000000357628,1669834163160,1708,HRV,HRV_0191,2022-11-30 18:52:00
89,"[{'imgObject': {}, 'id': 'roastedpotatoes', 'src': '/static/foodstim60/roastedpotatoes.jpg', 'key': 'u', 'origWidth': 409, 'origHeight': 410, 'width': 409, 'height': 410, 'widthPercent': 0.45, 'rescaleHeight': False, 'trialN': 89, 'loaded': True, 'loadedTime': 3224.300000011921, 'positionName': 'LEFT', 'positionCoords': [282.2, 245], 'bid': 7.69}, {'imgObject': {}, 'id': 'granola w milk', 'src': '/static/foodstim60/granola w milk.jpg', 'key': 'i', 'origWidth': 410, 'origHeight': 410, 'width': 410, 'height': 410, 'widthPercent': 0.45, 'rescaleHeight': False, 'trialN': 89, 'loaded': True, 'loadedTime': 3616.800000011921, 'positionName': 'RIGHT', 'positionCoords': [748.8, 245], 'bid': 4.62}]",167816.0,1669834163161,roastedpotatoes,granola w milk,7.69,4.62,-3.0700000000000003,roastedpotatoes,910.3999999761581,917,917.3000000119209,True,u,169234.10000002384,1418.1000000238419,1669834164579,1418,HRV,HRV_0191,2022-11-30 18:52:00
90,"[{'imgObject': {}, 'id': 'granola w milk', 'src': '/static/foodstim60/granola w milk.jpg', 'key': 'u', 'origWidth': 410, 'origHeight': 410, 'width': 410, 'height': 410, 'widthPercent': 0.45, 'rescaleHeight': False, 'trialN': 90, 'loaded': True, 'loadedTime': 3617.199999988079, 'positionName': 'LEFT', 'positionCoords': [281.2, 245], 'bid': 4.62}, {'imgObject': {}, 'id': 'mashed potato', 'src': '/static/foodstim60/mashed potato.jpg', 'key': 'i', 'origWidth': 409, 'origHeight': 409, 'width': 409, 'height': 409, 'widthPercent': 0.45, 'rescaleHeight': False, 'trialN': 90, 'loaded': True, 'loadedTime': 3008.600000023842, 'positionName': 'RIGHT', 'positionCoords': [748.8, 245.5], 'bid': 2.51}]",175171.0,1669834170516,granola w milk,mashed potato,4.62,2.51,-2.1100000000000003,granola w milk,1332.199999988079,1339,1338.800000011921,True,u,177010.69999998808,1839.699999988079,1669834172356,1840,HRV,HRV_0191,2022-11-30 18:52:00
91,"[{'imgObject': {}, 'id': 'veggieswithdip', 'src': '/static/foodstim60/veggieswithdip.jpg', 'key': 'u', 'origWidth': 409, 'origHeight': 409, 'width': 409, 'height': 409, 'widthPercent': 0.45, 'rescaleHeight': False, 'trialN': 91, 'loaded': True, 'loadedTime': 2597.199999988079, 'positionName': 'LEFT', 'positionCoords': [282.2, 245.5], 'bid': 9.88}, {'imgObject': {}, 'id': 'mango', 'src': '/static/foodstim60/mango.jpg', 'key': 'i', 'origWidth': 411, 'origHeight': 411, 'width': 411, 'height': 411, 'widthPercent': 0.45, 'rescaleHeight': False, 'trialN': 91, 'loaded': True, 'loadedTime': 3658.800000011921, 'positionName': 'RIGHT', 'positionCoords': [748.8, 244.5], 'bid': 9.84}]",177010.89999997616,1669834172356,veggieswithdip,mango,9.88,9.84,-0.040000000000000924,veggieswithdip,816.1000000238419,822,822.3000000119209,True,u,178333.5,1322.6000000238419,1669834173678,1322,HRV,HRV_0191,2022-11-30 18:52:00
92,"[{'imgObject': {}, 'id': 'salmon', 'src': '/static/foodstim60/salmon.jpg', 'key': 'u', 'origWidth': 410, 'origHeight': 409, 'width': 410, 'height': 409, 'widthPercent': 0.45, 'rescaleHeight': False, 'trialN': 92, 'loaded': True, 'loadedTime': 3005.5, 'positionName': 'LEFT', 'positionCoords': [281.2, 245.5], 'bid': 9.91}, {'imgObject': {}, 'id': 'cherries', 'src': '/static/foodstim60/cherries.jpg', 'key': 'i', 'origWidth': 410, 'origHeight': 411, 'width': 410, 'height': 411, 'widthPercent': 0.45, 'rescaleHeight': False, 'trialN': 92, 'loaded': True, 'loadedTime': 3015.399999976158, 'positionName': 'RIGHT', 'positionCoords': [748.8, 244.5], 'bid': 9.9}]",178333.60000002384,1669834173679,salmon,cherries,9.91,9.9,-0.009999999999999787,salmon,852.3999999761581,858,858.3999999761581,True,u,179692.39999997616,1358.7999999523163,1669834175037,1358,HRV,HRV_0191,2022-11-30 18:52:00
93,"[{'imgObject': {}, 'id': 'shreddedwheatwithmilk', 'src': '/static/foodstim60/shreddedwheatwithmilk.jpg', 'key': 'u', 'origWidth': 410, 'origHeight': 410, 'width': 410, 'height': 410, 'widthPercent': 0.45, 'rescaleHeight': False, 'trialN': 93, 'loaded': True, 'loadedTime': 3450.699999988079, 'positionName': 'LEFT', 'positionCoords': [281.2, 245], 'bid': 1.75}, {'imgObject': {}, 'id': 'omelette', 'src': '/static/foodstim60/omelette.jpg', 'key': 'i', 'origWidth': 410, 'origHeight': 409, 'width': 410, 'height': 409, 'widthPercent': 0.45, 'rescaleHeight': False, 'trialN': 93, 'loaded': True, 'loadedTime': 3379.399999976158, 'positionName': 'RIGHT', 'positionCoords': [748.8, 245.5], 'bid': 4.23}]",179692.5,1669834175037,shreddedwheatwithmilk,omelette,1.75,4.23,2.4800000000000004,omelette,993.3000000119209,998,997.6999999880791,True,i,181190.60000002384,1498.1000000238419,1669834176536,1499,HRV,HRV_0191,2022-11-30 18:52:00
94,"[{'imgObject': {}, 'id': 'salmon', 'src': '/static/foodstim60/salmon.jpg', 'key': 'u', 'origWidth': 410, 'origHeight': 409, 'width': 410, 'height': 409, 'widthPercent': 0.45, 'rescaleHeight': False, 'trialN': 94, 'loaded': True, 'loadedTime': 3007.100000023842, 'positionName': 'LEFT', 'positionCoords': [281.2, 245.5], 'bid': 9.91}, {'imgObject': {}, 'id': 'cherry tomato', 'src': '/static/foodstim60/cherry tomato.jpg', 'key': 'i', 'origWidth': 410, 'origHeight': 410, 'width': 410, 'height': 410, 'widthPercent': 0.45, 'rescaleHeight': False, 'trialN': 94, 'loaded': True, 'loadedTime': 2580.899999976158, 'positionName': 'RIGHT', 'positionCoords': [748.8, 245], 'bid': 7.76}]",181190.80000001192,1669834176536,salmon,cherry tomato,9.91,7.76,-2.1500000000000004,salmon,676.0999999642372,682,682.5,True,u,182374.19999998808,1183.3999999761581,1669834177719,1183,HRV,HRV_0191,2022-11-30 18:52:00
95,"[{'imgObject': {}, 'id': 'apple slices', 'src': '/static/foodstim60/apple slices.jpg', 'key': 'u', 'origWidth': 409, 'origHeight': 410, 'width': 409, 'height': 410, 'widthPercent': 0.45, 'rescaleHeight': False, 'trialN': 95, 'loaded': True, 'loadedTime': 3638.899999976158, 'positionName': 'LEFT', 'positionCoords': [282.2, 245], 'bid': 9.93}, {'imgObject': {}, 'id': 'tacos', 'src': '/static/foodstim60/tacos.jpg', 'key': 'i', 'origWidth': 411, 'origHeight': 411, 'width': 411, 'height': 411, 'widthPercent': 0.45, 'rescaleHeight': False, 'trialN': 95, 'loaded': True, 'loadedTime': 3664.399999976158, 'positionName': 'RIGHT', 'positionCoords': [748.8, 244.5], 'bid': 9.87}]",182374.39999997616,1669834177719,apple slices,tacos,9.93,9.87,-0.0600000000000005,tacos,1020.5,1027,1026.800000011921,True,i,183901.39999997616,1527.0,1669834179247,1528,HRV,HRV_0191,2022-11-30 18:52:00
96,"[{'imgObject': {}, 'id': 'omelette', 'src': '/static/foodstim60/omelette.jpg', 'key': 'u', 'origWidth': 410, 'origHeight': 409, 'width': 410, 'height': 409, 'widthPercent': 0.45, 'rescaleHeight': False, 'trialN': 96, 'loaded': True, 'loadedTime': 3379, 'positionName': 'LEFT', 'positionCoords': [281.2, 245.5], 'bid': 4.23}, {'imgObject': {}, 'id': 'baked potato', 'src': '/static/foodstim60/baked potato.jpg', 'key': 'i', 'origWidth': 409, 'origHeight': 410, 'width': 409, 'height': 410, 'widthPercent': 0.45, 'rescaleHeight': False, 'trialN': 96, 'loaded': True, 'loadedTime': 3665.100000023842, 'positionName': 'RIGHT', 'positionCoords': [748.8, 245], 'bid': 3.61}]",183901.60000002384,1669834179247,omelette,baked potato,4.23,3.61,-0.6200000000000006,omelette,1116.199999988079,1138,1138.2999999523163,True,u,185540.89999997616,1639.2999999523163,1669834180886,1639,HRV,HRV_0191,2022-11-30 18:52:00
97,"[{'imgObject': {}, 'id': 'Tribe humus pita', 'src': '/static/foodstim60/Tribe humus pita.jpg', 'key': 'u', 'origWidth': 411, 'origHeight': 411, 'width': 411, 'height': 411, 'widthPercent': 0.45, 'rescaleHeight': False, 'trialN': 97, 'loaded': True, 'loadedTime': 3669.399999976158, 'positionName': 'LEFT', 'positionCoords': [280.2, 244.5], 'bid': 9.94}, {'imgObject': {}, 'id': 'strawberries', 'src': '/static/foodstim60/strawberries.jpg', 'key': 'i', 'origWidth': 410, 'origHeight': 410, 'width': 410, 'height': 410, 'widthPercent': 0.45, 'rescaleHeight': False, 'trialN': 97, 'loaded': True, 'loadedTime': 3636.5, 'positionName': 'RIGHT', 'positionCoords': [748.8, 245], 'bid': 9.91}]",185541.0,1669834180886,Tribe humus pita,strawberries,9.94,9.91,-0.02999999999999936,Tribe humus pita,959.6999999880791,966,966.1999999880791,True,u,187007.5,1466.5,1669834182353,1467,HRV,HRV_0191,2022-11-30 18:52:00
98,"[{'imgObject': {}, 'id': 'eggs', 'src': '/static/foodstim60/eggs.jpg', 'key': 'u', 'origWidth': 409, 'origHeight': 409, 'width': 409, 'height': 409, 'widthPercent': 0.45, 'rescaleHeight': False, 'trialN': 98, 'loaded': True, 'loadedTime': 3139.100000023842, 'positionName': 'LEFT', 'positionCoords': [282.2, 245.5], 'bid': 3.25}, {'imgObject': {}, 'id': 'baked potato', 'src': '/static/foodstim60/baked potato.jpg', 'key': 'i', 'origWidth': 409, 'origHeight': 410, 'width': 409, 'height': 410, 'widthPercent': 0.45, 'rescaleHeight': False, 'trialN': 98, 'loaded': True, 'loadedTime': 3667.699999988079, 'positionName': 'RIGHT', 'positionCoords': [748.8, 245], 'bid': 3.61}]",187007.80000001192,1669834182353,eggs,baked potato,3.25,3.61,0.3599999999999999,baked potato,1111.699999988079,1132,1132.0999999642372,True,i,188640.60000002384,1632.800000011921,1669834183986,1633,HRV,HRV_0191,2022-11-30 18:52:00
99,"[{'imgObject': {}, 'id': 'tacos', 'src': '/static/foodstim60/tacos.jpg', 'key': 'u', 'origWidth': 411, 'origHeight': 411, 'width': 411, 'height': 411, 'widthPercent': 0.45, 'rescaleHeight': False, 'trialN': 99, 'loaded': True, 'loadedTime': 3664.300000011921, 'positionName': 'LEFT', 'positionCoords': [280.2, 244.5], 'bid': 9.87}, {'imgObject': {}, 'id': 'cheerios', 'src': '/static/foodstim60/cheerios.jpg', 'key': 'i', 'origWidth': 409, 'origHeight': 410, 'width': 409, 'height': 410, 'widthPercent': 0.45, 'rescaleHeight': False, 'trialN': 99, 'loaded': True, 'loadedTime': 3434.600000023842, 'positionName': 'RIGHT', 'positionCoords': [748.8, 245], 'bid': 0.43}]",188640.69999998808,1669834183986,tacos,cheerios,9.87,0.43,-9.44,tacos,708.8000000119209,715,715.1999999880791,True,u,189856.39999997616,1215.699999988079,1669834185202,1216,HRV,HRV_0191,2022-11-30 18:52:00
100,"[{'imgObject': {}, 'id': 'raspberries', 'src': '/static/foodstim60/raspberries.jpg', 'key': 'u', 'origWidth': 411, 'origHeight': 411, 'width': 411, 'height': 411, 'widthPercent': 0.45, 'rescaleHeight': False, 'trialN': 100, 'loaded': True, 'loadedTime': 3648.100000023842, 'positionName': 'LEFT', 'positionCoords': [280.2, 244.5], 'bid': 9.93}, {'imgObject': {}, 'id': 'sushi w_condiments', 'src': '/static/foodstim60/sushi w_condiments.jpg', 'key': 'i', 'origWidth': 410, 'origHeight': 410, 'width': 410, 'height': 410, 'widthPercent': 0.45, 'rescaleHeight': False, 'trialN': 100, 'loaded': True, 'loadedTime': 3476, 'positionName': 'RIGHT', 'positionCoords': [748.8, 245], 'bid': 10}]",189856.60000002384,1669834185202,raspberries,sushi w_condiments,9.93,10.0,0.07000000000000028,sushi w_condiments,892.5999999642372,896,896.5999999642372,True,i,191253.39999997616,1396.7999999523163,1669834186599,1397,HRV,HRV_0191,2022-11-30 18:52:00
101,"[{'imgObject': {}, 'id': 'fruitsalad', 'src': '/static/foodstim60/fruitsalad.jpg', 'key': 'u', 'origWidth': 410, 'origHeight': 410, 'width': 410, 'height': 410, 'widthPercent': 0.45, 'rescaleHeight': False, 'trialN': 101, 'loaded': True, 'loadedTime': 2783.5, 'positionName': 'LEFT', 'positionCoords': [281.2, 245], 'bid': 10}, {'imgObject': {}, 'id': 'lox', 'src': '/static/foodstim60/lox.jpg', 'key': 'i', 'origWidth': 410, 'origHeight': 411, 'width': 410, 'height': 411, 'widthPercent': 0.45, 'rescaleHeight': False, 'trialN': 101, 'loaded': True, 'loadedTime': 2537.300000011921, 'positionName': 'RIGHT', 'positionCoords': [748.8, 244.5], 'bid': 9.93}]",191253.69999998808,1669834186599,fruitsalad,lox,10.0,9.93,-0.07000000000000028,fruitsalad,738.6000000238419,759,759.0,True,u,192513.5,1259.800000011921,1669834187859,1260,HRV,HRV_0191,2022-11-30 18:52:00
102,"[{'imgObject': {}, 'id': 'eggs', 'src': '/static/foodstim60/eggs.jpg', 'key': 'u', 'origWidth': 409, 'origHeight': 409, 'width': 409, 'height': 409, 'widthPercent': 0.45, 'rescaleHeight': False, 'trialN': 102, 'loaded': True, 'loadedTime': 3142.300000011921, 'positionName': 'LEFT', 'positionCoords': [282.2, 245.5], 'bid': 3.25}, {'imgObject': {}, 'id': 'edamame', 'src': '/static/foodstim60/edamame.jpg', 'key': 'i', 'origWidth': 409, 'origHeight': 410, 'width': 409, 'height': 410, 'widthPercent': 0.45, 'rescaleHeight': False, 'trialN': 102, 'loaded': True, 'loadedTime': 3002.800000011921, 'positionName': 'RIGHT', 'positionCoords': [748.8, 245], 'bid': 3.31}]",192513.69999998808,1669834187859,eggs,edamame,3.25,3.31,0.06000000000000005,edamame,1554.6000000238419,1576,1575.800000011921,True,i,194590.5,2076.800000011921,1669834189936,2077,HRV,HRV_0191,2022-11-30 18:52:00
103,"[{'imgObject': {}, 'id': 'grilled chicken strips', 'src': '/static/foodstim60/grilled chicken strips.jpg', 'key': 'u', 'origWidth': 410, 'origHeight': 411, 'width': 410, 'height': 411, 'widthPercent': 0.45, 'rescaleHeight': False, 'trialN': 103, 'loaded': True, 'loadedTime': 2557, 'positionName': 'LEFT', 'positionCoords': [281.2, 244.5], 'bid': 9.87}, {'imgObject': {}, 'id': 'salmon', 'src': '/static/foodstim60/salmon.jpg', 'key': 'i', 'origWidth': 410, 'origHeight': 409, 'width': 410, 'height': 409, 'widthPercent': 0.45, 'rescaleHeight': False, 'trialN': 103, 'loaded': True, 'loadedTime': 3003.899999976158, 'positionName': 'RIGHT', 'positionCoords': [748.8, 245.5], 'bid': 9.91}]",194590.60000002384,1669834189936,grilled chicken strips,salmon,9.87,9.91,0.040000000000000924,salmon,1078.3999999761581,1083,1082.8999999761581,True,i,196173.69999998808,1583.0999999642372,1669834191519,1583,HRV,HRV_0191,2022-11-30 18:52:00
104,"[{'imgObject': {}, 'id': 'seaweed', 'src': '/static/foodstim60/seaweed.jpg', 'key': 'u', 'origWidth': 410, 'origHeight': 410, 'width': 410, 'height': 410, 'widthPercent': 0.45, 'rescaleHeight': False, 'trialN': 104, 'loaded': True, 'loadedTime': 3315.300000011921, 'positionName': 'LEFT', 'positionCoords': [281.2, 245], 'bid': 0.06}, {'imgObject': {}, 'id': 'cheerios', 'src': '/static/foodstim60/cheerios.jpg', 'key': 'i', 'origWidth': 409, 'origHeight': 410, 'width': 409, 'height': 410, 'widthPercent': 0.45, 'rescaleHeight': False, 'trialN': 104, 'loaded': True, 'loadedTime': 3438.699999988079, 'positionName': 'RIGHT', 'positionCoords': [748.8, 245], 'bid': 0.43}]",196173.89999997616,1669834191519,seaweed,cheerios,0.06,0.43,0.37,seaweed,1432.0,1437,1437.2000000476837,True,u,198111.30000001192,1937.4000000357628,1669834193457,1938,HRV,HRV_0191,2022-11-30 18:52:00
105,"[{'imgObject': {}, 'id': 'Tribe humus pita', 'src': '/static/foodstim60/Tribe humus pita.jpg', 'key': 'u', 'origWidth': 411, 'origHeight': 411, 'width': 411, 'height': 411, 'widthPercent': 0.45, 'rescaleHeight': False, 'trialN': 105, 'loaded': True, 'loadedTime': 3670.100000023842, 'positionName': 'LEFT', 'positionCoords': [280.2, 244.5], 'bid': 9.94}, {'imgObject': {}, 'id': 'raspberries', 'src': '/static/foodstim60/raspberries.jpg', 'key': 'i', 'origWidth': 411, 'origHeight': 411, 'width': 411, 'height': 411, 'widthPercent': 0.45, 'rescaleHeight': False, 'trialN': 105, 'loaded': True, 'loadedTime': 3648.300000011921, 'positionName': 'RIGHT', 'positionCoords': [748.8, 244.5], 'bid': 9.93}]",198111.5,1669834193457,Tribe humus pita,raspberries,9.94,9.93,-0.009999999999999787,Tribe humus pita,1051.6000000238419,1058,1058.0,True,u,199669.80000001192,1558.300000011921,1669834195015,1558,HRV,HRV_0191,2022-11-30 18:52:00
106,"[{'imgObject': {}, 'id': 'burger', 'src': '/static/foodstim60/burger.jpg', 'key': 'u', 'origWidth': 409, 'origHeight': 409, 'width': 409, 'height': 409, 'widthPercent': 0.45, 'rescaleHeight': False, 'trialN': 106, 'loaded': True, 'loadedTime': 3651.300000011921, 'positionName': 'LEFT', 'positionCoords': [282.2, 245.5], 'bid': 7.23}, {'imgObject': {}, 'id': 'hashbrowns', 'src': '/static/foodstim60/hashbrowns.jpg', 'key': 'i', 'origWidth': 411, 'origHeight': 410, 'width': 411, 'height': 410, 'widthPercent': 0.45, 'rescaleHeight': False, 'trialN': 106, 'loaded': True, 'loadedTime': 3189.899999976158, 'positionName': 'RIGHT', 'positionCoords': [748.8, 245], 'bid': 0.05}]",199670.0,1669834195015,burger,hashbrowns,7.23,0.05,-7.180000000000001,burger,1035.8999999761581,1042,1041.1000000238419,True,u,201211.5,1541.5,1669834196557,1542,HRV,HRV_0191,2022-11-30 18:52:00
107,"[{'imgObject': {}, 'id': 'cocktailshrimp', 'src': '/static/foodstim60/cocktailshrimp.jpg', 'key': 'u', 'origWidth': 410, 'origHeight': 410, 'width': 410, 'height': 410, 'widthPercent': 0.45, 'rescaleHeight': False, 'trialN': 107, 'loaded': True, 'loadedTime': 2585.899999976158, 'positionName': 'LEFT', 'positionCoords': [281.2, 245], 'bid': 9.86}, {'imgObject': {}, 'id': 'cherries', 'src': '/static/foodstim60/cherries.jpg', 'key': 'i', 'origWidth': 410, 'origHeight': 411, 'width': 410, 'height': 411, 'widthPercent': 0.45, 'rescaleHeight': False, 'trialN': 107, 'loaded': True, 'loadedTime': 3015.300000011921, 'positionName': 'RIGHT', 'positionCoords': [748.8, 244.5], 'bid': 9.9}]",201211.60000002384,1669834196557,cocktailshrimp,cherries,9.86,9.9,0.040000000000000924,cocktailshrimp,919.5,941,941.1999999880791,True,u,202653.30000001192,1441.699999988079,1669834197999,1442,HRV,HRV_0191,2022-11-30 18:52:00
108,"[{'imgObject': {}, 'id': 'froot loops w milk', 'src': '/static/foodstim60/froot loops w milk.jpg', 'key': 'u', 'origWidth': 410, 'origHeight': 410, 'width': 410, 'height': 410, 'widthPercent': 0.45, 'rescaleHeight': False, 'trialN': 108, 'loaded': True, 'loadedTime': 2532.899999976158, 'positionName': 'LEFT', 'positionCoords': [281.2, 245], 'bid': 0.06}, {'imgObject': {}, 'id': 'hotdog w must', 'src': '/static/foodstim60/hotdog w must.jpg', 'key': 'i', 'origWidth': 409, 'origHeight': 409, 'width': 409, 'height': 409, 'widthPercent': 0.45, 'rescaleHeight': False, 'trialN': 108, 'loaded': True, 'loadedTime': 2738.600000023842, 'positionName': 'RIGHT', 'positionCoords': [748.8, 245.5], 'bid': 0.06}]",202653.60000002384,1669834197999,froot loops w milk,hotdog w must,0.06,0.06,0.0,hotdog w must,1610.0999999642372,1631,1631.0999999642372,True,i,204785.69999998808,2132.099999964237,1669834200131,2132,HRV,HRV_0191,2022-11-30 18:52:00
