success,trial_type,trial_index,time_elapsed,internal_node_id,Block,TrialNumber,TrialTime,trialTimeDiff,FPS_avg,FPS_med,FPS_mode,TrialDur,winResizeTime,rt,block,button_pressed,MotCoh,MotDir,ColCoh,Color,ChoiceKey,Choice,Accuracy,RT,nFrames,FPS,PPD,missTrial,missTrialMsg,onsetDelay,fullScreenExitTime,canvCenter,TrialType,Score,BlockTrial,stimulus,button_labels,exp,subjectId,date
True,fullscreen,0,5395,0.0-0.0,0.0,1.0,,,,,,,,,,,,,,,,,,,,,,,,,,,,,,,,HRV,HRV_0052,2022-11-30 18:09:39
,wl-check-fps,1,10388,0.0-1.0,0.0,2.0,"[7296.8, 7298.1, 7314, 7334.3, 7347.9, 7364.9, 7381.2, 7396.9, 7414, 7430.4, 7447.8, 7465.2, 7480.5, 7497.4, 7514.2, 7530.2, 7547.4, 7564.1, 7581.9, 7597.3, 7615.1, 7630.4, 7647.4, 7663.5, 7680.4, 7697.8, 7713.9, 7730.8, 7747.4, 7763.6, 7780.5, 7796.7, 7814.7, 7830.7, 7846.7, 7864.4, 7881.6, 7897.3, 7913.9, 7930.7, 7948, 7965.9, 7980.5, 7998, 8015.3, 8030.8, 8047.8, 8064.4, 8081.6, 8097.7, 8114.7, 8131.7, 8147.8, 8164.4, 8182.7, 8198.7, 8213.8, 8230.6, 8246.9, 8264.5, 8280.6, 8297, 8315, 8330.2, 8347.3, 8364.6, 8381.8, 8396.9, 8413.9, 8430.8, 8447, 8464.9, 8479.9, 8497.1, 8515, 8530, 8547.6, 8563.8, 8581.3, 8597.5, 8614.2, 8630.9, 8647.4, 8664.6, 8681.5, 8697.3, 8714, 8730.9, 8747.6, 8764.2, 8782.1, 8797.4, 8814.5, 8830.9, 8847.2, 8864.8, 8880.8, 8897.7, 8913.8, 8930.9, 8947.6, 8965.1, 8981.6, 8996.8, 9014.8, 9029.8, 9047, 9064, 9080, 9097.1, 9115.1, 9131.1, 9147.4, 9163.2, 9180.5, 9196.6, 9215.2, 9231, 9247.3, 9264.9, 9279.9, 9297.1, 9315, 9331.1, 9346.6, 9364.7, 9380.7, 9396.8, 9414.8, 9429.8, 9447, 9465, 9480.1, 9498, 9514.8, 9529.8, 9547.1, 9563.7, 9580.6, 9596.8, 9614.8, 9630.9, 9647, 9664.9, 9680.3, 9697.1, 9714.7, 9730.9, 9747.1, 9764.8, 9779.8, 9797, 9815, 9830.3, 9847.2, 9864.1, 9880.5, 9897, 9913.8, 9930.8, 9946.7, 9964.7, 9980.7, 9997, 10014.7, 10030.8, 10047.1, 10063.8, 10082, 10097, 10113.6, 10130.5, 10147, 10164.7, 10180.8, 10197.1, 10213.8, 10230.8, 10246.8, 10264.8, 10281, 10297.8, 10313.8, 10330.8, 10347.1, 10364.8, 10380, 10397.9, 10414, 10429.9, 10447, 10463.7, 10480.7, 10497.7, 10513.8, 10530.7, 10547.1, 10564.7, 10579.9, 10597.1, 10614.9, 10630.2, 10648, 10664.2, 10680.4, 10697, 10713.7, 10730.7, 10747, 10763.8, 10780.7, 10796.8, 10814.7, 10829.9, 10847, 10865, 10880, 10897.1, 10914, 10930.4, 10947.2, 10964.6, 10981.1, 10997.2, 11014.1, 11030.9, 11047.5, 11064.9, 11082, 11097.1, 11114.9, 11130.7, 11147.3, 11164, 11181, 11197.4, 11214.3, 11230.1, 11247.1, 11265, 11280.6, 11297.5, 11314.3, 11331.1, 11347.1, 11364, 11380.9, 11397.4, 11414.3, 11430, 11447.2, 11464.8, 11482.1, 11497.1, 11514, 11530.9, 11547.7, 11565.2, 11581, 11597.1, 11614.9, 11630.8, 11647, 11664.8, 11679.9, 11697, 11714.7, 11730.8, 11747.1, 11763.8, 11780.8, 11797, 11813.9, 11829.8, 11847, 11864.9, 11879.9, 11897, 11914.7, 11930.8, 11947.1, 11963.8, 11979.7, 11997.1, 12013.8, 12030.7, 12047, 12063.9, 12079.8, 12096.9, 12114.4, 12129.9, 12147, 12165, 12180, 12197.2, 12214.8, 12230.9, 12247, 12265]","[4.5, 1.3, 15.9, 20.3, 13.6, 17, 16.3, 15.7, 17.1, 16.4, 17.4, 17.4, 15.3, 16.9, 16.8, 16, 17.2, 16.7, 17.8, 15.4, 17.8, 15.3, 17, 16.1, 16.9, 17.4, 16.1, 16.9, 16.6, 16.2, 16.9, 16.2, 18, 16, 16, 17.7, 17.2, 15.7, 16.6, 16.8, 17.3, 17.9, 14.6, 17.5, 17.3, 15.5, 17, 16.6, 17.2, 16.1, 17, 17, 16.1, 16.6, 18.3, 16, 15.1, 16.8, 16.3, 17.6, 16.1, 16.4, 18, 15.2, 17.1, 17.3, 17.2, 15.1, 17, 16.9, 16.2, 17.9, 15, 17.2, 17.9, 15, 17.6, 16.2, 17.5, 16.2, 16.7, 16.7, 16.5, 17.2, 16.9, 15.8, 16.7, 16.9, 16.7, 16.6, 17.9, 15.3, 17.1, 16.4, 16.3, 17.6, 16, 16.9, 16.1, 17.1, 16.7, 17.5, 16.5, 15.2, 18, 15, 17.2, 17, 16, 17.1, 18, 16, 16.3, 15.8, 17.3, 16.1, 18.6, 15.8, 16.3, 17.6, 15, 17.2, 17.9, 16.1, 15.5, 18.1, 16, 16.1, 18, 15, 17.2, 18, 15.1, 17.9, 16.8, 15, 17.3, 16.6, 16.9, 16.2, 18, 16.1, 16.1, 17.9, 15.4, 16.8, 17.6, 16.2, 16.2, 17.7, 15, 17.2, 18, 15.3, 16.9, 16.9, 16.4, 16.5, 16.8, 17, 15.9, 18, 16, 16.3, 17.7, 16.1, 16.3, 16.7, 18.2, 15, 16.6, 16.9, 16.5, 17.7, 16.1, 16.3, 16.7, 17, 16, 18, 16.2, 16.8, 16, 17, 16.3, 17.7, 15.2, 17.9, 16.1, 15.9, 17.1, 16.7, 17, 17, 16.1, 16.9, 16.4, 17.6, 15.2, 17.2, 17.8, 15.3, 17.8, 16.2, 16.2, 16.6, 16.7, 17, 16.3, 16.8, 16.9, 16.1, 17.9, 15.2, 17.1, 18, 15, 17.1, 16.9, 16.4, 16.8, 17.4, 16.5, 16.1, 16.9, 16.8, 16.6, 17.4, 17.1, 15.1, 17.8, 15.8, 16.6, 16.7, 17, 16.4, 16.9, 15.8, 17, 17.9, 15.6, 16.9, 16.8, 16.8, 16, 16.9, 16.9, 16.5, 16.9, 15.7, 17.2, 17.6, 17.3, 15, 16.9, 16.9, 16.8, 17.5, 15.8, 16.1, 17.8, 15.9, 16.2, 17.8, 15.1, 17.1, 17.7, 16.1, 16.3, 16.7, 17, 16.2, 16.9, 15.9, 17.2, 17.9, 15, 17.1, 17.7, 16.1, 16.3, 16.7, 15.9, 17.4, 16.7, 16.9, 16.3, 16.9, 15.9, 17.1, 17.5, 15.5, 17.1, 18, 15, 17.2, 17.6, 16.1, 16.1, 18]",60.0,61.0,59.0,4987.6,[],,,,,,,,,,,,,,,,,,,,,,,,,HRV,HRV_0052,2022-11-30 18:09:39
,wl-html-keyboard-response,2,20385,0.0-2.0-0.0,0.0,3.0,,,,,,,,7972.70000000298,0.0,0,,,,,,,,,,,,,,,,,,,,,,HRV,HRV_0052,2022-11-30 18:09:39
,wl-rdm,3,41486,0.0-3.0-0.0,0.0,4.0,,,,,,,[],,,,0.0,0.0,87.9,0.0,u,0.0,True,3626.60000000149,218.0,59.0,40.0,False,too_early too_early too_early ,3000.0,[],"[960, 540]",ColorTask_Demo,,,,,HRV,HRV_0052,2022-11-30 18:09:39
,wl-rdm,4,47937,0.0-3.0-1.0,0.0,5.0,,,,,,,[],,,,0.0,0.0,87.9,1.0,i,1.0,True,2352.8999999910593,142.0,59.0,40.0,False,,2000.0,[],"[960, 540]",ColorTask_Demo,,,,,HRV,HRV_0052,2022-11-30 18:09:39
,wl-html-keyboard-response,5,159628,0.0-3.0-2.0,0.0,5.0,,,,,,,,109687.0,0.0,1,,,,,,,,,,,,True,undefinedblurEvent ,,,,,,,,,HRV,HRV_0052,2022-11-30 18:09:39
,wl-html-keyboard-response,6,171076,0.0-4.0-0.0,0.0,6.0,,,,,,,,9772.40000000596,0.0,0,,,,,,,,,,,,,,,,,,,,,,HRV,HRV_0052,2022-11-30 18:09:39
,wl-html-keyboard-response,7,178485,0.0-5.0-0.0,0.0,7.0,,,,,,,,5405.30000000447,0.0,0,,,,,,,,,,,,,,,,,,,,,,HRV,HRV_0052,2022-11-30 18:09:39
,wl-rdm,8,182801,0.0-6.0-0.0,0.0,7.0,,,,,,,[],,,,,,50.0,0.0,i,,,3070.60000000149,176.0,59.0,40.0,True,RT_timeout ,233.45565737820178,[],"[960, 540]",ColorTask,-1.0,1.0,,,HRV,HRV_0052,2022-11-30 18:09:39
,wl-rdm,9,184901,0.0-6.1-0.1,0.0,8.0,,,,,,,[],,,,,,87.9,1.0,u,0.0,False,788.1000000014901,48.0,59.0,40.0,False,,232.2585647784495,[],"[960, 540]",ColorTask,-2.0,2.0,,,HRV,HRV_0052,2022-11-30 18:09:39
,wl-rdm,10,186616,0.0-6.2-0.2,0.0,9.0,,,,,,,[],,,,,,56.4,1.0,i,1.0,True,399.70000000298023,24.0,59.0,40.0,False,,233.14460147406146,[],"[960, 540]",ColorTask,-1.0,3.0,,,HRV,HRV_0052,2022-11-30 18:09:39
,wl-rdm,11,188600,0.0-6.3-0.3,0.0,10.0,,,,,,,[],,,,,,53.2,1.0,i,1.0,True,675.5,41.0,59.0,40.0,False,,246.54945275069838,[],"[960, 540]",ColorTask,0.0,4.0,,,HRV,HRV_0052,2022-11-30 18:09:39
,wl-rdm,12,190400,0.0-6.4-0.4,0.0,11.0,,,,,,,[],,,,,,62.5,1.0,i,1.0,True,484.5,30.0,59.0,40.0,False,,238.99200494251573,[],"[960, 540]",ColorTask,1.0,5.0,,,HRV,HRV_0052,2022-11-30 18:09:39
,wl-rdm,13,192201,0.0-6.5-0.5,0.0,12.0,,,,,,,[],,,,,,73.6,1.0,i,1.0,True,502.0,31.0,59.0,40.0,False,,210.62634455573206,[],"[960, 540]",ColorTask,2.0,6.0,,,HRV,HRV_0052,2022-11-30 18:09:39
,wl-rdm,14,194001,0.0-6.6-0.6,0.0,13.0,,,,,,,[],,,,,,50.0,0.0,i,1.0,False,409.6000000014901,25.0,59.0,40.0,False,,299.98071996155676,[],"[960, 540]",ColorTask,1.0,7.0,,,HRV,HRV_0052,2022-11-30 18:09:39
,wl-rdm,15,196050,0.0-6.7-0.7,0.0,14.0,,,,,,,[],,,,,,73.6,0.0,u,0.0,True,614.3999999985099,37.0,59.0,40.0,False,,364.6159608777048,[],"[960, 540]",ColorTask,2.0,8.0,,,HRV,HRV_0052,2022-11-30 18:09:39
,wl-rdm,16,198117,0.0-6.8-0.8,0.0,15.0,,,,,,,[],,,,,,50.0,0.0,u,0.0,True,629.3000000044703,38.0,59.0,40.0,False,,350.48545965974006,[],"[960, 540]",ColorTask,3.0,9.0,,,HRV,HRV_0052,2022-11-30 18:09:39
,wl-rdm,17,200000,0.0-6.9-0.9,0.0,16.0,,,,,,,[],,,,,,73.6,1.0,u,0.0,False,549.5,33.0,59.0,40.0,False,,277.3618891137384,[],"[960, 540]",ColorTask,2.0,10.0,,,HRV,HRV_0052,2022-11-30 18:09:39
,wl-rdm,18,202017,0.0-6.10-0.10,0.0,17.0,,,,,,,[],,,,,,87.9,1.0,i,1.0,True,590.6000000014901,36.0,59.0,40.0,False,,350.9275210375349,[],"[960, 540]",ColorTask,3.0,11.0,,,HRV,HRV_0052,2022-11-30 18:09:39
,wl-rdm,19,204283,0.0-6.11-0.11,0.0,18.0,,,,,,,[],,,,,,62.5,0.0,i,1.0,False,946.5,57.0,59.0,40.0,False,,233.61247177761467,[],"[960, 540]",ColorTask,2.0,12.0,,,HRV,HRV_0052,2022-11-30 18:09:39
,wl-rdm,20,206400,0.0-6.12-0.12,0.0,19.0,,,,,,,[],,,,,,73.6,1.0,i,1.0,True,725.4000000059605,44.0,59.0,40.0,False,,308.42016707672053,[],"[960, 540]",ColorTask,3.0,13.0,,,HRV,HRV_0052,2022-11-30 18:09:39
,wl-rdm,21,208434,0.0-6.13-0.13,0.0,20.0,,,,,,,[],,,,,,62.5,1.0,u,0.0,False,722.7999999970198,44.0,59.0,40.0,False,,244.47618701673437,[],"[960, 540]",ColorTask,2.0,14.0,,,HRV,HRV_0052,2022-11-30 18:09:39
,wl-rdm,22,210550,0.0-6.14-0.14,0.0,21.0,,,,,,,[],,,,,,50.0,1.0,i,1.0,True,719.5,44.0,59.0,40.0,False,,303.22077076549243,[],"[960, 540]",ColorTask,3.0,15.0,,,HRV,HRV_0052,2022-11-30 18:09:39
,wl-rdm,23,212683,0.0-6.15-0.15,0.0,22.0,,,,,,,[],,,,,,50.0,0.0,i,1.0,False,812.3999999985099,49.0,59.0,40.0,False,,259.17888906118645,[],"[960, 540]",ColorTask,2.0,16.0,,,HRV,HRV_0052,2022-11-30 18:09:39
,wl-rdm,24,214583,0.0-6.16-0.16,0.0,23.0,,,,,,,[],,,,,,56.4,1.0,i,1.0,True,602.6000000014901,37.0,59.0,40.0,False,,204.81967831895415,[],"[960, 540]",ColorTask,3.0,17.0,,,HRV,HRV_0052,2022-11-30 18:09:39
,wl-rdm,25,216482,0.0-6.17-0.17,0.0,24.0,,,,,,,[],,,,,,53.2,0.0,i,1.0,False,529.4999999925494,32.0,59.0,40.0,False,,313.8473218041636,[],"[960, 540]",ColorTask,2.0,18.0,,,HRV,HRV_0052,2022-11-30 18:09:39
,wl-rdm,26,217999,0.0-6.18-0.18,0.0,25.0,,,,,,,[],,,,,,50.0,1.0,u,0.0,False,135.39999999850988,9.0,59.0,40.0,False,,300.1984580146425,[],"[960, 540]",ColorTask,1.0,19.0,,,HRV,HRV_0052,2022-11-30 18:09:39
,wl-rdm,27,219083,0.0-6.19-0.19,0.0,25.0,,,,,,,[],,,,,,87.9,1.0,i,,,423.5,0.0,59.0,40.0,True,too_early ,228.45970739526427,[],"[960, 540]",ColorTask,0.0,20.0,,,HRV,HRV_0052,2022-11-30 18:09:39
,wl-rdm,28,221067,0.0-6.20-0.20,0.0,26.0,,,,,,,[],,,,,,56.4,0.0,i,1.0,False,596.5000000074506,36.0,59.0,40.0,False,,330.65716378039184,[],"[960, 540]",ColorTask,-1.0,21.0,,,HRV,HRV_0052,2022-11-30 18:09:39
,wl-rdm,29,223200,0.0-6.21-0.21,0.0,27.0,,,,,,,[],,,,,,56.4,0.0,i,1.0,False,691.5,42.0,59.0,40.0,False,,368.4105914782213,[],"[960, 540]",ColorTask,-2.0,22.0,,,HRV,HRV_0052,2022-11-30 18:09:39
,wl-rdm,30,225117,0.0-6.22-0.22,0.0,28.0,,,,,,,[],,,,,,53.2,0.0,u,0.0,True,636.6000000014901,39.0,59.0,40.0,False,,212.2176973291685,[],"[960, 540]",ColorTask,-1.0,23.0,,,HRV,HRV_0052,2022-11-30 18:09:39
,wl-rdm,31,227117,0.0-6.23-0.23,0.0,29.0,,,,,,,[],,,,,,87.9,1.0,i,1.0,True,620.5,38.0,59.0,40.0,False,,304.7335080865476,[],"[960, 540]",ColorTask,0.0,24.0,,,HRV,HRV_0052,2022-11-30 18:09:39
,wl-rdm,32,229083,0.0-6.24-0.24,0.0,30.0,,,,,,,[],,,,,,87.9,0.0,u,0.0,True,621.1999999955297,38.0,59.0,40.0,False,,278.3401375248425,[],"[960, 540]",ColorTask,1.0,25.0,,,HRV,HRV_0052,2022-11-30 18:09:39
,wl-rdm,33,231500,0.0-6.25-0.25,0.0,31.0,,,,,,,[],,,,,,56.4,1.0,i,1.0,True,1021.6999999955297,62.0,59.0,40.0,False,,301.7580694624442,[],"[960, 540]",ColorTask,2.0,26.0,,,HRV,HRV_0052,2022-11-30 18:09:39
,wl-rdm,34,233683,0.0-6.26-0.26,0.0,32.0,,,,,,,[],,,,,,73.6,0.0,u,0.0,True,779.2999999970198,47.0,59.0,40.0,False,,321.76368902512394,[],"[960, 540]",ColorTask,3.0,27.0,,,HRV,HRV_0052,2022-11-30 18:09:39
,wl-rdm,35,235900,0.0-6.27-0.27,0.0,33.0,,,,,,,[],,,,,,62.5,0.0,u,0.0,True,812.5,49.0,59.0,40.0,False,,333.2859644876381,[],"[960, 540]",ColorTask,4.0,28.0,,,HRV,HRV_0052,2022-11-30 18:09:39
,wl-rdm,36,238016,0.0-6.28-0.28,0.0,34.0,,,,,,,[],,,,,,87.9,1.0,i,1.0,True,724.8999999985099,44.0,59.0,40.0,False,,311.7863907378033,[],"[960, 540]",ColorTask,5.0,29.0,,,HRV,HRV_0052,2022-11-30 18:09:39
,wl-rdm,37,240232,0.0-6.29-0.29,0.0,35.0,,,,,,,[],,,,,,87.9,0.0,i,1.0,False,915.2000000029802,55.0,59.0,40.0,False,,242.0282602258666,[],"[960, 540]",ColorTask,4.0,30.0,,,HRV,HRV_0052,2022-11-30 18:09:39
,wl-rdm,38,242182,0.0-6.30-0.30,0.0,36.0,,,,,,,[],,,,,,53.2,1.0,i,1.0,True,683.8000000044703,41.0,59.0,40.0,False,,201.58027627129155,[],"[960, 540]",ColorTask,5.0,31.0,,,HRV,HRV_0052,2022-11-30 18:09:39
,wl-rdm,39,244215,0.0-6.31-0.31,0.0,37.0,,,,,,,[],,,,,,50.0,1.0,i,1.0,True,724.0999999940395,44.0,59.0,40.0,False,,239.0431345188072,[],"[960, 540]",ColorTask,6.0,32.0,,,HRV,HRV_0052,2022-11-30 18:09:39
,wl-rdm,40,246199,0.0-6.32-0.32,0.0,38.0,,,,,,,[],,,,,,87.9,0.0,u,0.0,True,669.1999999955297,41.0,59.0,40.0,False,,226.57503058421776,[],"[960, 540]",ColorTask,7.0,33.0,,,HRV,HRV_0052,2022-11-30 18:09:39
,wl-rdm,41,248348,0.0-6.33-0.33,0.0,39.0,,,,,,,[],,,,,,53.2,1.0,u,0.0,False,752.2999999970198,46.0,59.0,40.0,False,,307.6487584803553,[],"[960, 540]",ColorTask,6.0,34.0,,,HRV,HRV_0052,2022-11-30 18:09:39
,wl-rdm,42,250315,0.0-6.34-0.34,0.0,40.0,,,,,,,[],,,,,,62.5,0.0,u,0.0,True,686.2999999970198,42.0,59.0,40.0,False,,201.33569055637454,[],"[960, 540]",ColorTask,7.0,35.0,,,HRV,HRV_0052,2022-11-30 18:09:39
,wl-rdm,43,252149,0.0-6.35-0.35,0.0,41.0,,,,,,,[],,,,,,73.6,1.0,u,0.0,False,393.40000000596046,24.0,59.0,40.0,False,,378.6400287028252,[],"[960, 540]",ColorTask,6.0,36.0,,,HRV,HRV_0052,2022-11-30 18:09:39
,wl-rdm,44,252770,0.0-6.36-0.36,0.0,41.0,,,,,,,[620],,,,,,87.9,0.0,,,,,0.0,59.0,40.0,True,exitFullScreen exitFullScreen ,383.9151481082507,[],"[960, 540]",ColorTask,5.0,37.0,,,HRV,HRV_0052,2022-11-30 18:09:39
,wl-rdm,45,425893,0.0-6.37-0.37,0.0,41.0,,,,,,,[],,,,,,73.6,1.0,,,,,0.0,59.0,40.0,True,enterFullScreen blurEvent ,379.2289941279509,[],"[None, None]",ColorTask,4.0,38.0,,,HRV,HRV_0052,2022-11-30 18:09:39
,wl-rdm,46,430280,0.0-6.38-0.38,0.0,41.0,,,,,,,[],,,,,,56.4,0.0,,,,,176.0,59.0,40.0,True,RT_timeout ,288.5531149078047,[],"[960, 540]",ColorTask,3.0,39.0,,,HRV,HRV_0052,2022-11-30 18:09:39
,wl-rdm,47,431363,0.0-6.39-0.39,0.0,41.0,,,,,,,[],,,,,,56.4,0.0,u,,,138.59999999403954,0.0,59.0,40.0,True,too_early ,315.167832750496,[],"[960, 540]",ColorTask,2.0,40.0,,,HRV,HRV_0052,2022-11-30 18:09:39
,wl-rdm,48,435813,0.0-6.40-0.40,0.0,41.0,,,,,,,[],,,,,,56.4,0.0,,,,,176.0,59.0,40.0,True,RT_timeout ,364.6688684516821,[],"[960, 540]",ColorTask,1.0,41.0,,,HRV,HRV_0052,2022-11-30 18:09:39
,wl-rdm,49,437713,0.0-6.41-0.41,0.0,42.0,,,,,,,[],,,,,,50.0,1.0,u,0.0,False,445.6000000014901,27.0,59.0,40.0,False,,378.5638786460373,[],"[960, 540]",ColorTask,0.0,42.0,,,HRV,HRV_0052,2022-11-30 18:09:39
,wl-rdm,50,442197,0.0-6.42-0.42,0.0,43.0,,,,,,,[],,,,,,56.4,1.0,u,0.0,False,3032.3000000044703,176.0,59.0,40.0,False,,392.62503657360594,[],"[960, 540]",ColorTask,-1.0,43.0,,,HRV,HRV_0052,2022-11-30 18:09:39
,wl-rdm,51,444847,0.0-6.43-0.43,0.0,44.0,,,,,,,[],,,,,,56.4,0.0,u,0.0,True,1331.2999999970198,80.0,59.0,40.0,False,,234.94402550269,[],"[960, 540]",ColorTask,0.0,44.0,,,HRV,HRV_0052,2022-11-30 18:09:39
,wl-rdm,52,448896,0.0-6.44-0.44,0.0,45.0,,,,,,,[],,,,,,73.6,0.0,i,1.0,False,2588.7000000029802,156.0,59.0,40.0,False,,379.80907758353123,[],"[960, 540]",ColorTask,-1.0,45.0,,,HRV,HRV_0052,2022-11-30 18:09:39
,wl-rdm,53,451497,0.0-6.45-0.45,0.0,46.0,,,,,,,[],,,,,,50.0,0.0,u,0.0,True,1254.5,76.0,59.0,40.0,False,,273.96666046148914,[],"[960, 540]",ColorTask,0.0,46.0,,,HRV,HRV_0052,2022-11-30 18:09:39
,wl-rdm,54,455347,0.0-6.46-0.46,0.0,47.0,,,,,,,[],,,,,,50.0,0.0,u,0.0,True,2519.39999999851,152.0,59.0,40.0,False,,236.77971355610677,[],"[960, 540]",ColorTask,1.0,47.0,,,HRV,HRV_0052,2022-11-30 18:09:39
,wl-rdm,55,457881,0.0-6.47-0.47,0.0,48.0,,,,,,,[],,,,,,53.2,1.0,u,0.0,False,1247.2999999970198,75.0,59.0,40.0,False,,208.3279973173689,[],"[960, 540]",ColorTask,0.0,48.0,,,HRV,HRV_0052,2022-11-30 18:09:39
,wl-rdm,56,460197,0.0-6.48-0.48,0.0,49.0,,,,,,,[],,,,,,62.5,1.0,i,1.0,True,1019.2999999970198,62.0,59.0,40.0,False,,201.6564509185935,[],"[960, 540]",ColorTask,1.0,49.0,,,HRV,HRV_0052,2022-11-30 18:09:39
,wl-rdm,57,462781,0.0-6.49-0.49,0.0,50.0,,,,,,,[],,,,,,87.9,1.0,i,1.0,True,1126.3999999985099,68.0,59.0,40.0,False,,368.6058074497539,[],"[960, 540]",ColorTask,2.0,50.0,,,HRV,HRV_0052,2022-11-30 18:09:39
,wl-rdm,58,464981,0.0-6.50-0.50,0.0,51.0,,,,,,,[],,,,,,73.6,1.0,i,1.0,True,825.2000000029802,50.0,59.0,40.0,False,,288.8486338440487,[],"[960, 540]",ColorTask,3.0,51.0,,,HRV,HRV_0052,2022-11-30 18:09:39
,wl-rdm,59,466981,0.0-6.51-0.51,0.0,52.0,,,,,,,[],,,,,,87.9,1.0,i,1.0,True,586.0,36.0,59.0,40.0,False,,327.9247152494079,[],"[960, 540]",ColorTask,4.0,52.0,,,HRV,HRV_0052,2022-11-30 18:09:39
,wl-rdm,60,469247,0.0-6.52-0.52,0.0,53.0,,,,,,,[],,,,,,53.2,1.0,u,0.0,False,931.0999999940395,56.0,59.0,40.0,False,,257.1725423149636,[],"[960, 540]",ColorTask,3.0,53.0,,,HRV,HRV_0052,2022-11-30 18:09:39
,wl-rdm,61,471197,0.0-6.53-0.53,0.0,54.0,,,,,,,[],,,,,,56.4,0.0,i,1.0,False,633.6000000014901,38.0,59.0,40.0,False,,245.9632212719888,[],"[960, 540]",ColorTask,2.0,54.0,,,HRV,HRV_0052,2022-11-30 18:09:39
,wl-rdm,62,473631,0.0-6.54-0.54,0.0,55.0,,,,,,,[],,,,,,62.5,0.0,u,0.0,True,981.0,59.0,59.0,40.0,False,,392.91619248093735,[],"[960, 540]",ColorTask,3.0,55.0,,,HRV,HRV_0052,2022-11-30 18:09:39
,wl-rdm,63,475781,0.0-6.55-0.55,0.0,56.0,,,,,,,[],,,,,,62.5,1.0,u,0.0,False,836.5,51.0,59.0,40.0,False,,226.72018260243675,[],"[960, 540]",ColorTask,2.0,56.0,,,HRV,HRV_0052,2022-11-30 18:09:39
,wl-rdm,64,477864,0.0-6.56-0.56,0.0,57.0,,,,,,,[],,,,,,62.5,1.0,i,1.0,True,613.8999999985099,37.0,59.0,40.0,False,,387.5710818305271,[],"[960, 540]",ColorTask,3.0,57.0,,,HRV,HRV_0052,2022-11-30 18:09:39
,wl-rdm,65,480047,0.0-6.57-0.57,0.0,58.0,,,,,,,[],,,,,,56.4,1.0,i,1.0,True,748.1000000014901,45.0,59.0,40.0,False,,351.22300109081135,[],"[960, 540]",ColorTask,4.0,58.0,,,HRV,HRV_0052,2022-11-30 18:09:39
,wl-rdm,66,482181,0.0-6.58-0.58,0.0,59.0,,,,,,,[],,,,,,53.2,0.0,i,1.0,False,859.2999999970198,52.0,59.0,40.0,False,,202.58246921770953,[],"[960, 540]",ColorTask,3.0,59.0,,,HRV,HRV_0052,2022-11-30 18:09:39
,wl-rdm,67,484381,0.0-6.59-0.59,0.0,60.0,,,,,,,[],,,,,,53.2,1.0,i,1.0,True,768.8999999985099,47.0,59.0,40.0,False,,341.8751550546611,[],"[960, 540]",ColorTask,4.0,60.0,,,HRV,HRV_0052,2022-11-30 18:09:39
,wl-rdm,68,486363,0.0-6.60-0.60,0.0,61.0,,,,,,,[],,,,,,56.4,0.0,i,1.0,False,669.1000000014901,41.0,59.0,40.0,False,,228.99876467803398,[],"[960, 540]",ColorTask,3.0,61.0,,,HRV,HRV_0052,2022-11-30 18:09:39
,wl-rdm,69,488547,0.0-6.61-0.61,0.0,62.0,,,,,,,[],,,,,,56.4,1.0,i,1.0,True,827.6000000014901,50.0,59.0,40.0,False,,288.1495693793148,[],"[960, 540]",ColorTask,4.0,62.0,,,HRV,HRV_0052,2022-11-30 18:09:39
,wl-rdm,70,490830,0.0-6.62-0.62,0.0,63.0,,,,,,,[],,,,,,56.4,0.0,u,0.0,True,906.7999999895692,55.0,59.0,40.0,False,,299.07668126296653,[],"[960, 540]",ColorTask,5.0,63.0,,,HRV,HRV_0052,2022-11-30 18:09:39
,wl-rdm,71,493163,0.0-6.63-0.63,0.0,64.0,,,,,,,[],,,,,,50.0,0.0,u,0.0,True,1002.5,61.0,59.0,40.0,False,,242.00606757829456,[],"[960, 540]",ColorTask,6.0,64.0,,,HRV,HRV_0052,2022-11-30 18:09:39
,wl-rdm,72,495564,0.0-6.64-0.64,0.0,65.0,,,,,,,[],,,,,,73.6,0.0,u,0.0,True,960.2999999970198,58.0,59.0,40.0,False,,352.7814748578143,[],"[960, 540]",ColorTask,7.0,65.0,,,HRV,HRV_0052,2022-11-30 18:09:39
,wl-rdm,73,497864,0.0-6.65-0.65,0.0,66.0,,,,,,,[],,,,,,73.6,0.0,i,1.0,False,1029.7000000029802,62.0,59.0,40.0,False,,215.84862064486222,[],"[960, 540]",ColorTask,6.0,66.0,,,HRV,HRV_0052,2022-11-30 18:09:39
,wl-rdm,74,500114,0.0-6.66-0.66,0.0,67.0,,,,,,,[],,,,,,87.9,1.0,i,1.0,True,862.5,52.0,59.0,40.0,False,,302.3641522811075,[],"[960, 540]",ColorTask,7.0,67.0,,,HRV,HRV_0052,2022-11-30 18:09:39
,wl-rdm,75,502413,0.0-6.67-0.67,0.0,68.0,,,,,,,[],,,,,,50.0,1.0,u,0.0,False,858.1999999955297,52.0,59.0,40.0,False,,364.0738160802756,[],"[960, 540]",ColorTask,6.0,68.0,,,HRV,HRV_0052,2022-11-30 18:09:39
,wl-rdm,76,504497,0.0-6.68-0.68,0.0,69.0,,,,,,,[],,,,,,53.2,0.0,u,0.0,True,788.0,48.0,59.0,40.0,False,,200.6843649576174,[],"[960, 540]",ColorTask,7.0,69.0,,,HRV,HRV_0052,2022-11-30 18:09:39
,wl-rdm,77,506431,0.0-6.69-0.69,0.0,70.0,,,,,,,[],,,,,,53.2,0.0,u,0.0,True,648.7999999895692,39.0,59.0,40.0,False,,214.45337431404073,[],"[960, 540]",ColorTask,8.0,70.0,,,HRV,HRV_0052,2022-11-30 18:09:39
,wl-rdm,78,508996,0.0-6.70-0.70,0.0,71.0,,,,,,,[],,,,,,56.4,1.0,u,0.0,False,1225.3999999985099,74.0,59.0,40.0,False,,259.1735978433327,[],"[960, 540]",ColorTask,7.0,71.0,,,HRV,HRV_0052,2022-11-30 18:09:39
,wl-rdm,79,511246,0.0-6.71-0.71,0.0,72.0,,,,,,,[],,,,,,56.4,1.0,u,0.0,False,814.2999999970198,49.0,59.0,40.0,False,,351.6552966459931,[],"[960, 540]",ColorTask,6.0,72.0,,,HRV,HRV_0052,2022-11-30 18:09:39
,wl-rdm,80,513596,0.0-6.72-0.72,0.0,73.0,,,,,,,[],,,,,,50.0,0.0,u,0.0,True,958.8000000044703,58.0,59.0,40.0,False,,301.03596405197584,[],"[960, 540]",ColorTask,7.0,73.0,,,HRV,HRV_0052,2022-11-30 18:09:39
,wl-rdm,81,515679,0.0-6.73-0.73,0.0,74.0,,,,,,,[],,,,,,73.6,0.0,u,0.0,True,672.8999999985099,41.0,59.0,40.0,False,,317.0827277450393,[],"[960, 540]",ColorTask,8.0,74.0,,,HRV,HRV_0052,2022-11-30 18:09:39
,wl-rdm,82,517678,0.0-6.74-0.74,0.0,75.0,,,,,,,[],,,,,,53.2,0.0,u,0.0,True,621.4999999925494,38.0,59.0,40.0,False,,308.4318784032801,[],"[960, 540]",ColorTask,9.0,75.0,,,HRV,HRV_0052,2022-11-30 18:09:39
,wl-rdm,83,519929,0.0-6.75-0.75,0.0,76.0,,,,,,,[],,,,,,62.5,0.0,u,0.0,True,861.7999999970198,52.0,59.0,40.0,False,,303.85633514598015,[],"[960, 540]",ColorTask,10.0,76.0,,,HRV,HRV_0052,2022-11-30 18:09:39
,wl-rdm,84,522429,0.0-6.76-0.76,0.0,77.0,,,,,,,[],,,,,,87.9,0.0,u,0.0,True,1191.2999999970198,72.0,59.0,40.0,False,,221.53261138809,[],"[960, 540]",ColorTask,11.0,77.0,,,HRV,HRV_0052,2022-11-30 18:09:39
,wl-rdm,85,524646,0.0-6.77-0.77,0.0,78.0,,,,,,,[],,,,,,53.2,1.0,u,0.0,False,782.1000000014901,47.0,59.0,40.0,False,,366.0981094091401,[],"[960, 540]",ColorTask,10.0,78.0,,,HRV,HRV_0052,2022-11-30 18:09:39
,wl-rdm,86,526828,0.0-6.78-0.78,0.0,79.0,,,,,,,[],,,,,,53.2,0.0,u,0.0,True,897.7999999970198,54.0,59.0,40.0,False,,221.0900986304219,[],"[960, 540]",ColorTask,11.0,79.0,,,HRV,HRV_0052,2022-11-30 18:09:39
,wl-rdm,87,529079,0.0-6.79-0.79,0.0,80.0,,,,,,,[],,,,,,87.9,0.0,u,0.0,True,855.1999999955297,52.0,59.0,40.0,False,,318.83701711503704,[],"[960, 540]",ColorTask,12.0,80.0,,,HRV,HRV_0052,2022-11-30 18:09:39
,wl-rdm,88,531263,0.0-6.80-0.80,0.0,81.0,,,,,,,[],,,,,,87.9,0.0,u,0.0,True,873.0,53.0,59.0,40.0,False,,230.71240356845573,[],"[960, 540]",ColorTask,13.0,81.0,,,HRV,HRV_0052,2022-11-30 18:09:39
,wl-rdm,89,533513,0.0-6.81-0.81,0.0,82.0,,,,,,,[],,,,,,62.5,1.0,i,1.0,True,893.9999999925494,54.0,59.0,40.0,False,,277.2678354922359,[],"[960, 540]",ColorTask,14.0,82.0,,,HRV,HRV_0052,2022-11-30 18:09:39
,wl-rdm,90,535480,0.0-6.82-0.82,0.0,83.0,,,,,,,[],,,,,,62.5,1.0,i,1.0,True,671.2999999970198,41.0,59.0,40.0,False,,212.75563635961876,[],"[960, 540]",ColorTask,15.0,83.0,,,HRV,HRV_0052,2022-11-30 18:09:39
,wl-rdm,91,537496,0.0-6.83-0.83,0.0,84.0,,,,,,,[],,,,,,73.6,1.0,i,1.0,True,587.4999999925494,36.0,59.0,40.0,False,,347.2501537475107,[],"[960, 540]",ColorTask,16.0,84.0,,,HRV,HRV_0052,2022-11-30 18:09:39
,wl-rdm,92,539529,0.0-6.84-0.84,0.0,85.0,,,,,,,[],,,,,,73.6,1.0,i,1.0,True,586.2999999970198,36.0,59.0,40.0,False,,360.5233413362782,[],"[960, 540]",ColorTask,17.0,85.0,,,HRV,HRV_0052,2022-11-30 18:09:39
,wl-rdm,93,541830,0.0-6.85-0.85,0.0,86.0,,,,,,,[],,,,,,53.2,0.0,i,1.0,False,881.2999999970198,53.0,59.0,40.0,False,,339.2655322660566,[],"[960, 540]",ColorTask,16.0,86.0,,,HRV,HRV_0052,2022-11-30 18:09:39
,wl-rdm,94,543896,0.0-6.86-0.86,0.0,87.0,,,,,,,[],,,,,,50.0,1.0,i,1.0,True,611.1000000014901,37.0,59.0,40.0,False,,384.1785215679254,[],"[960, 540]",ColorTask,17.0,87.0,,,HRV,HRV_0052,2022-11-30 18:09:39
,wl-rdm,95,545796,0.0-6.87-0.87,0.0,88.0,,,,,,,[],,,,,,53.2,1.0,i,1.0,True,607.7999999970198,37.0,59.0,40.0,False,,204.28616071481946,[],"[960, 540]",ColorTask,18.0,88.0,,,HRV,HRV_0052,2022-11-30 18:09:39
,wl-rdm,96,547846,0.0-6.88-0.88,0.0,89.0,,,,,,,[],,,,,,87.9,0.0,i,1.0,False,722.8000000044703,44.0,59.0,40.0,False,,234.22837309288735,[],"[960, 540]",ColorTask,17.0,89.0,,,HRV,HRV_0052,2022-11-30 18:09:39
,wl-rdm,97,550029,0.0-6.89-0.89,0.0,90.0,,,,,,,[],,,,,,62.5,0.0,i,1.0,False,731.1999999955297,44.0,59.0,40.0,False,,374.31946511388156,[],"[960, 540]",ColorTask,16.0,90.0,,,HRV,HRV_0052,2022-11-30 18:09:39
,wl-rdm,98,552113,0.0-6.90-0.90,0.0,91.0,,,,,,,[],,,,,,62.5,1.0,i,1.0,True,653.3000000044703,40.0,59.0,40.0,False,,345.3288881326919,[],"[960, 540]",ColorTask,17.0,91.0,,,HRV,HRV_0052,2022-11-30 18:09:39
,wl-rdm,99,554163,0.0-6.91-0.91,0.0,92.0,,,,,,,[],,,,,,56.4,1.0,i,1.0,True,752.3000000044703,46.0,59.0,40.0,False,,206.43925859907625,[],"[960, 540]",ColorTask,18.0,92.0,,,HRV,HRV_0052,2022-11-30 18:09:39
,wl-rdm,100,556113,0.0-6.92-0.92,0.0,93.0,,,,,,,[],,,,,,87.9,1.0,i,1.0,True,644.5,39.0,59.0,40.0,False,,225.94869037720628,[],"[960, 540]",ColorTask,19.0,93.0,,,HRV,HRV_0052,2022-11-30 18:09:39
,wl-rdm,101,558146,0.0-6.93-0.93,0.0,94.0,,,,,,,[],,,,,,62.5,0.0,u,0.0,True,651.8999999985099,40.0,59.0,40.0,False,,288.9496082839318,[],"[960, 540]",ColorTask,20.0,94.0,,,HRV,HRV_0052,2022-11-30 18:09:39
,wl-rdm,102,560079,0.0-6.94-0.94,0.0,95.0,,,,,,,[],,,,,,87.9,0.0,u,0.0,True,595.8000000044703,36.0,59.0,40.0,False,,262.04401590088673,[],"[960, 540]",ColorTask,21.0,95.0,,,HRV,HRV_0052,2022-11-30 18:09:39
,wl-rdm,103,562096,0.0-6.95-0.95,0.0,96.0,,,,,,,[],,,,,,62.5,1.0,i,1.0,True,704.1000000014901,43.0,59.0,40.0,False,,228.40686880249856,[],"[960, 540]",ColorTask,22.0,96.0,,,HRV,HRV_0052,2022-11-30 18:09:39
,wl-rdm,104,564096,0.0-6.96-0.96,0.0,97.0,,,,,,,[],,,,,,50.0,0.0,i,1.0,False,637.1999999955297,39.0,59.0,40.0,False,,273.8518060249785,[],"[960, 540]",ColorTask,21.0,97.0,,,HRV,HRV_0052,2022-11-30 18:09:39
,wl-rdm,105,566179,0.0-6.97-0.97,0.0,98.0,,,,,,,[],,,,,,62.5,0.0,i,1.0,False,617.3999999985099,37.0,59.0,40.0,False,,397.8935064084608,[],"[960, 540]",ColorTask,20.0,98.0,,,HRV,HRV_0052,2022-11-30 18:09:39
,wl-rdm,106,568146,0.0-6.98-0.98,0.0,99.0,,,,,,,[],,,,,,87.9,0.0,u,0.0,True,552.6999999955297,34.0,59.0,40.0,False,,316.66893462766114,[],"[960, 540]",ColorTask,21.0,99.0,,,HRV,HRV_0052,2022-11-30 18:09:39
,wl-rdm,107,570446,0.0-6.99-0.99,0.0,100.0,,,,,,,[],,,,,,56.4,0.0,u,0.0,True,989.7000000029802,60.0,59.0,40.0,False,,221.26183447096423,[],"[960, 540]",ColorTask,22.0,100.0,,,HRV,HRV_0052,2022-11-30 18:09:39
,wl-rdm,108,572430,0.0-6.100-0.100,0.0,101.0,,,,,,,[],,,,,,73.6,1.0,u,0.0,False,680.4000000059605,41.0,59.0,40.0,False,,237.70696308271334,[],"[960, 540]",ColorTask,21.0,101.0,,,HRV,HRV_0052,2022-11-30 18:09:39
,wl-rdm,109,574230,0.0-6.101-0.101,0.0,102.0,,,,,,,[],,,,,,73.6,0.0,i,1.0,False,406.59999999403954,25.0,59.0,40.0,False,,309.2993182078019,[],"[960, 540]",ColorTask,20.0,102.0,,,HRV,HRV_0052,2022-11-30 18:09:39
,wl-rdm,110,575946,0.0-6.102-0.102,0.0,103.0,,,,,,,[],,,,,,53.2,0.0,u,0.0,True,351.8999999985099,22.0,59.0,40.0,False,,269.891564138669,[],"[960, 540]",ColorTask,21.0,103.0,,,HRV,HRV_0052,2022-11-30 18:09:39
,wl-rdm,111,577830,0.0-6.103-0.103,0.0,104.0,,,,,,,[],,,,,,50.0,1.0,u,0.0,False,447.70000000298023,27.0,59.0,40.0,False,,361.76624261690006,[],"[960, 540]",ColorTask,20.0,104.0,,,HRV,HRV_0052,2022-11-30 18:09:39
,wl-rdm,112,579613,0.0-6.104-0.104,0.0,105.0,,,,,,,[],,,,,,56.4,0.0,i,1.0,False,481.0,29.0,59.0,40.0,False,,243.5446827666157,[],"[960, 540]",ColorTask,19.0,105.0,,,HRV,HRV_0052,2022-11-30 18:09:39
,wl-rdm,113,581563,0.0-6.105-0.105,0.0,106.0,,,,,,,[],,,,,,87.9,1.0,u,0.0,False,485.79999999701977,30.0,59.0,40.0,False,,396.9955047137157,[],"[960, 540]",ColorTask,18.0,106.0,,,HRV,HRV_0052,2022-11-30 18:09:39
,wl-rdm,114,583496,0.0-6.106-0.106,0.0,107.0,,,,,,,[],,,,,,62.5,0.0,i,1.0,False,502.80000000447035,31.0,59.0,40.0,False,,358.8718323671733,[],"[960, 540]",ColorTask,17.0,107.0,,,HRV,HRV_0052,2022-11-30 18:09:39
,wl-rdm,115,585413,0.0-6.107-0.107,0.0,108.0,,,,,,,[],,,,,,53.2,1.0,u,0.0,False,631.5,38.0,59.0,40.0,False,,210.54882055236675,[],"[960, 540]",ColorTask,16.0,108.0,,,HRV,HRV_0052,2022-11-30 18:09:39
,wl-rdm,116,587713,0.0-6.108-0.108,0.0,109.0,,,,,,,[],,,,,,73.6,0.0,i,1.0,False,911.0,55.0,59.0,40.0,False,,304.59874842433913,[],"[960, 540]",ColorTask,15.0,109.0,,,HRV,HRV_0052,2022-11-30 18:09:39
,wl-rdm,117,589779,0.0-6.109-0.109,0.0,110.0,,,,,,,[],,,,,,73.6,0.0,u,0.0,True,657.8000000044703,40.0,59.0,40.0,False,,349.09888086616616,[],"[960, 540]",ColorTask,16.0,110.0,,,HRV,HRV_0052,2022-11-30 18:09:39
,wl-rdm,118,592229,0.0-6.110-0.110,0.0,111.0,,,,,,,[],,,,,,50.0,1.0,u,0.0,False,990.0999999940395,60.0,59.0,40.0,False,,368.86650033902083,[],"[960, 540]",ColorTask,15.0,111.0,,,HRV,HRV_0052,2022-11-30 18:09:39
,wl-rdm,119,594480,0.0-6.111-0.111,0.0,112.0,,,,,,,[],,,,,,50.0,1.0,i,1.0,True,845.6999999880791,51.0,59.0,40.0,False,,317.3172933386119,[],"[960, 540]",ColorTask,16.0,112.0,,,HRV,HRV_0052,2022-11-30 18:09:39
,wl-rdm,120,596579,0.0-6.112-0.112,0.0,113.0,,,,,,,[],,,,,,56.4,0.0,u,0.0,True,668.9000000059605,41.0,59.0,40.0,False,,340.49077864551657,[],"[960, 540]",ColorTask,17.0,113.0,,,HRV,HRV_0052,2022-11-30 18:09:39
,wl-rdm,121,598813,0.0-6.113-0.113,0.0,114.0,,,,,,,[],,,,,,50.0,0.0,u,0.0,True,916.6000000014901,55.0,59.0,40.0,False,,239.00269588859052,[],"[960, 540]",ColorTask,18.0,114.0,,,HRV,HRV_0052,2022-11-30 18:09:39
,wl-rdm,122,600894,0.0-6.114-0.114,0.0,115.0,,,,,,,[],,,,,,73.6,1.0,i,1.0,True,787.2999999970198,48.0,59.0,40.0,False,,221.1465009988322,[],"[960, 540]",ColorTask,19.0,115.0,,,HRV,HRV_0052,2022-11-30 18:09:39
,wl-html-keyboard-response,123,620757,0.0-7.0-0.0,1.0,116.0,,,,,,,,17850.30000000447,1.0,0,,,,,,,,,,,,,,,,,,,,,,HRV,HRV_0052,2022-11-30 18:09:39
,wl-rdm,124,623195,0.0-8.0-0.0,1.0,117.0,,,,,,,[],,,,,,53.2,0.0,u,0.0,True,1065.3999999985099,64.0,59.0,40.0,False,,332.9985806688684,[],"[960, 540]",ColorTask,20.0,1.0,,,HRV,HRV_0052,2022-11-30 18:09:39
,wl-rdm,125,625128,0.0-8.1-0.1,1.0,118.0,,,,,,,[],,,,,,87.9,1.0,u,0.0,False,603.5,37.0,59.0,40.0,False,,238.17226074023975,[],"[960, 540]",ColorTask,19.0,2.0,,,HRV,HRV_0052,2022-11-30 18:09:39
,wl-rdm,126,627195,0.0-8.2-0.2,1.0,119.0,,,,,,,[],,,,,,53.2,0.0,i,1.0,False,750.1000000014901,45.0,59.0,40.0,False,,241.6788174254214,[],"[960, 540]",ColorTask,18.0,3.0,,,HRV,HRV_0052,2022-11-30 18:09:39
,wl-rdm,127,629145,0.0-8.3-0.3,1.0,120.0,,,,,,,[],,,,,,73.6,0.0,u,0.0,True,535.2000000029802,33.0,59.0,40.0,False,,324.2582071507076,[],"[960, 540]",ColorTask,19.0,4.0,,,HRV,HRV_0052,2022-11-30 18:09:39
,wl-rdm,128,631477,0.0-8.4-0.4,1.0,121.0,,,,,,,[],,,,,,73.6,1.0,u,0.0,False,906.3999999985099,55.0,59.0,40.0,False,,339.9714647385398,[],"[960, 540]",ColorTask,18.0,5.0,,,HRV,HRV_0052,2022-11-30 18:09:39
,wl-rdm,129,633812,0.0-8.5-0.5,1.0,122.0,,,,,,,[],,,,,,50.0,1.0,i,1.0,True,915.2999999970198,55.0,59.0,40.0,False,,345.51851545780943,[],"[960, 540]",ColorTask,19.0,6.0,,,HRV,HRV_0052,2022-11-30 18:09:39
,wl-rdm,130,635895,0.0-8.6-0.6,1.0,123.0,,,,,,,[],,,,,,50.0,0.0,i,1.0,False,754.0999999940395,46.0,59.0,40.0,False,,247.05209271643832,[],"[960, 540]",ColorTask,18.0,7.0,,,HRV,HRV_0052,2022-11-30 18:09:39
,wl-rdm,131,637912,0.0-8.7-0.7,1.0,124.0,,,,,,,[],,,,,,73.6,0.0,i,1.0,False,627.8999999985099,38.0,59.0,40.0,False,,306.280682091828,[],"[960, 540]",ColorTask,17.0,8.0,,,HRV,HRV_0052,2022-11-30 18:09:39
,wl-rdm,132,639711,0.0-8.8-0.8,1.0,125.0,,,,,,,[],,,,,,56.4,1.0,i,1.0,True,494.1000000014901,30.0,59.0,40.0,False,,247.38158062289676,[],"[960, 540]",ColorTask,18.0,9.0,,,HRV,HRV_0052,2022-11-30 18:09:39
,wl-rdm,133,641595,0.0-8.9-0.9,1.0,126.0,,,,,,,[],,,,,,50.0,1.0,i,1.0,True,558.2000000029802,34.0,59.0,40.0,False,,245.0630861296349,[],"[960, 540]",ColorTask,19.0,10.0,,,HRV,HRV_0052,2022-11-30 18:09:39
,wl-rdm,134,643911,0.0-8.10-0.10,1.0,127.0,,,,,,,[],,,,,,87.9,0.0,i,1.0,False,911.3999999985099,55.0,59.0,40.0,False,,318.17431081208554,[],"[960, 540]",ColorTask,18.0,11.0,,,HRV,HRV_0052,2022-11-30 18:09:39
,wl-rdm,135,645812,0.0-8.11-0.11,1.0,128.0,,,,,,,[],,,,,,53.2,1.0,i,1.0,True,490.69999999552965,30.0,59.0,40.0,False,,318.3421276146116,[],"[960, 540]",ColorTask,19.0,12.0,,,HRV,HRV_0052,2022-11-30 18:09:39
,wl-rdm,136,647662,0.0-8.12-0.12,1.0,129.0,,,,,,,[],,,,,,87.9,1.0,i,1.0,True,545.8000000044703,33.0,59.0,40.0,False,,243.01503447633357,[],"[960, 540]",ColorTask,20.0,13.0,,,HRV,HRV_0052,2022-11-30 18:09:39
,wl-rdm,137,649778,0.0-8.13-0.13,1.0,130.0,,,,,,,[],,,,,,56.4,1.0,i,1.0,True,667.0,40.0,59.0,40.0,False,,377.9945138443126,[],"[960, 540]",ColorTask,21.0,14.0,,,HRV,HRV_0052,2022-11-30 18:09:39
,wl-rdm,138,651745,0.0-8.14-0.14,1.0,131.0,,,,,,,[],,,,,,73.6,0.0,i,1.0,False,577.0,35.0,59.0,40.0,False,,302.6214490934948,[],"[960, 540]",ColorTask,20.0,15.0,,,HRV,HRV_0052,2022-11-30 18:09:39
,wl-rdm,139,653794,0.0-8.15-0.15,1.0,132.0,,,,,,,[],,,,,,50.0,1.0,i,1.0,True,666.5000000074506,40.0,59.0,40.0,False,,305.8944963439892,[],"[960, 540]",ColorTask,21.0,16.0,,,HRV,HRV_0052,2022-11-30 18:09:39
,wl-rdm,140,656344,0.0-8.16-0.16,1.0,133.0,,,,,,,[],,,,,,50.0,1.0,u,0.0,False,1210.6999999955297,73.0,59.0,40.0,False,,263.12157097959977,[],"[960, 540]",ColorTask,20.0,17.0,,,HRV,HRV_0052,2022-11-30 18:09:39
,wl-rdm,141,658244,0.0-8.17-0.17,1.0,134.0,,,,,,,[],,,,,,56.4,1.0,i,1.0,True,614.2000000029802,37.0,59.0,40.0,False,,211.15720933198494,[],"[960, 540]",ColorTask,21.0,18.0,,,HRV,HRV_0052,2022-11-30 18:09:39
,wl-rdm,142,660294,0.0-8.18-0.18,1.0,135.0,,,,,,,[],,,,,,50.0,1.0,i,1.0,True,762.7000000029802,46.0,59.0,40.0,False,,211.02420740090258,[],"[960, 540]",ColorTask,22.0,19.0,,,HRV,HRV_0052,2022-11-30 18:09:39
,wl-rdm,143,662227,0.0-8.19-0.19,1.0,136.0,,,,,,,[],,,,,,73.6,1.0,i,1.0,True,647.7999999970198,39.0,59.0,40.0,False,,214.73008437692778,[],"[960, 540]",ColorTask,23.0,20.0,,,HRV,HRV_0052,2022-11-30 18:09:39
,wl-rdm,144,664711,0.0-8.20-0.20,1.0,137.0,,,,,,,[],,,,,,53.2,1.0,i,1.0,True,1104.3000000044703,67.0,59.0,40.0,False,,287.64797227609745,[],"[960, 540]",ColorTask,24.0,21.0,,,HRV,HRV_0052,2022-11-30 18:09:39
,wl-rdm,145,666760,0.0-8.21-0.21,1.0,138.0,,,,,,,[],,,,,,73.6,1.0,i,1.0,True,742.7999999970198,45.0,59.0,40.0,False,,233.96803125052827,[],"[960, 540]",ColorTask,25.0,22.0,,,HRV,HRV_0052,2022-11-30 18:09:39
,wl-rdm,146,668910,0.0-8.22-0.22,1.0,139.0,,,,,,,[],,,,,,62.5,1.0,i,1.0,True,803.7000000029802,49.0,59.0,40.0,False,,256.9610880943622,[],"[960, 540]",ColorTask,26.0,23.0,,,HRV,HRV_0052,2022-11-30 18:09:39
,wl-rdm,147,671210,0.0-8.23-0.23,1.0,140.0,,,,,,,[],,,,,,56.4,1.0,i,1.0,True,982.3999999985099,59.0,59.0,40.0,False,,249.84866659786357,[],"[960, 540]",ColorTask,27.0,24.0,,,HRV,HRV_0052,2022-11-30 18:09:39
,wl-rdm,148,673410,0.0-8.24-0.24,1.0,141.0,,,,,,,[],,,,,,53.2,0.0,u,0.0,True,907.6999999955297,55.0,59.0,40.0,False,,221.84353108249002,[],"[960, 540]",ColorTask,28.0,25.0,,,HRV,HRV_0052,2022-11-30 18:09:39
,wl-rdm,149,675743,0.0-8.25-0.25,1.0,142.0,,,,,,,[],,,,,,56.4,1.0,u,0.0,False,935.8999999985099,57.0,59.0,40.0,False,,323.402087259668,[],"[960, 540]",ColorTask,27.0,26.0,,,HRV,HRV_0052,2022-11-30 18:09:39
,wl-rdm,150,677727,0.0-8.26-0.26,1.0,143.0,,,,,,,[],,,,,,62.5,1.0,i,1.0,True,519.8000000044703,32.0,59.0,40.0,False,,369.2419795030678,[],"[960, 540]",ColorTask,28.0,27.0,,,HRV,HRV_0052,2022-11-30 18:09:39
,wl-rdm,151,679927,0.0-8.27-0.27,1.0,144.0,,,,,,,[],,,,,,62.5,1.0,i,1.0,True,861.2999999970198,52.0,59.0,40.0,False,,270.3988581207294,[],"[960, 540]",ColorTask,29.0,28.0,,,HRV,HRV_0052,2022-11-30 18:09:39
,wl-rdm,152,682010,0.0-8.28-0.28,1.0,145.0,,,,,,,[],,,,,,73.6,1.0,i,1.0,True,752.2000000029802,46.0,59.0,40.0,False,,246.4016405502329,[],"[960, 540]",ColorTask,30.0,29.0,,,HRV,HRV_0052,2022-11-30 18:09:39
,wl-rdm,153,684211,0.0-8.29-0.29,1.0,146.0,,,,,,,[],,,,,,50.0,0.0,i,1.0,False,869.3999999985099,53.0,59.0,40.0,False,,236.52306258114527,[],"[960, 540]",ColorTask,29.0,30.0,,,HRV,HRV_0052,2022-11-30 18:09:39
,wl-rdm,154,686527,0.0-8.30-0.30,1.0,147.0,,,,,,,[],,,,,,56.4,0.0,u,0.0,True,870.6000000014901,53.0,59.0,40.0,False,,364.4677928666218,[],"[960, 540]",ColorTask,30.0,31.0,,,HRV,HRV_0052,2022-11-30 18:09:39
,wl-rdm,155,688677,0.0-8.31-0.31,1.0,148.0,,,,,,,[],,,,,,62.5,1.0,i,1.0,True,697.1000000014901,42.0,59.0,40.0,False,,373.80866879017435,[],"[960, 540]",ColorTask,31.0,32.0,,,HRV,HRV_0052,2022-11-30 18:09:39
,wl-rdm,156,690527,0.0-8.32-0.32,1.0,149.0,,,,,,,[],,,,,,87.9,1.0,i,1.0,True,561.5,34.0,59.0,40.0,False,,218.3306103556421,[],"[960, 540]",ColorTask,32.0,33.0,,,HRV,HRV_0052,2022-11-30 18:09:39
,wl-rdm,157,692578,0.0-8.33-0.33,1.0,150.0,,,,,,,[],,,,,,50.0,0.0,i,1.0,False,602.2999999970198,37.0,59.0,40.0,False,,364.9975285607328,[],"[960, 540]",ColorTask,31.0,34.0,,,HRV,HRV_0052,2022-11-30 18:09:39
,wl-rdm,158,694778,0.0-8.34-0.34,1.0,151.0,,,,,,,[],,,,,,53.2,1.0,i,1.0,True,875.6000000014901,53.0,59.0,40.0,False,,234.6394182599709,[],"[960, 540]",ColorTask,32.0,35.0,,,HRV,HRV_0052,2022-11-30 18:09:39
,wl-rdm,159,697145,0.0-8.35-0.35,1.0,152.0,,,,,,,[],,,,,,53.2,0.0,i,1.0,False,952.2999999970198,58.0,59.0,40.0,False,,320.62566512979896,[],"[960, 540]",ColorTask,31.0,36.0,,,HRV,HRV_0052,2022-11-30 18:09:39
,wl-rdm,160,699495,0.0-8.36-0.36,1.0,153.0,,,,,,,[],,,,,,53.2,1.0,i,1.0,True,944.7999999970198,57.0,59.0,40.0,False,,346.75393465510354,[],"[960, 540]",ColorTask,32.0,37.0,,,HRV,HRV_0052,2022-11-30 18:09:39
,wl-rdm,161,701595,0.0-8.37-0.37,1.0,154.0,,,,,,,[],,,,,,87.9,0.0,u,0.0,True,649.4000000059605,39.0,59.0,40.0,False,,374.4840025916577,[],"[960, 540]",ColorTask,33.0,38.0,,,HRV,HRV_0052,2022-11-30 18:09:39
,wl-rdm,162,703812,0.0-8.38-0.38,1.0,155.0,,,,,,,[],,,,,,53.2,1.0,i,1.0,True,865.1000000014901,52.0,59.0,40.0,False,,280.481834912253,[],"[960, 540]",ColorTask,34.0,39.0,,,HRV,HRV_0052,2022-11-30 18:09:39
,wl-rdm,163,705878,0.0-8.39-0.39,1.0,156.0,,,,,,,[],,,,,,87.9,0.0,u,0.0,True,754.9999999925494,46.0,59.0,40.0,False,,223.90999803833523,[],"[960, 540]",ColorTask,35.0,40.0,,,HRV,HRV_0052,2022-11-30 18:09:39
,wl-rdm,164,708045,0.0-8.40-0.40,1.0,157.0,,,,,,,[],,,,,,73.6,0.0,u,0.0,True,689.3000000044703,42.0,59.0,40.0,False,,383.6939619614168,[],"[960, 540]",ColorTask,36.0,41.0,,,HRV,HRV_0052,2022-11-30 18:09:39
,wl-rdm,165,710345,0.0-8.41-0.41,1.0,158.0,,,,,,,[],,,,,,56.4,0.0,u,0.0,True,868.8000000044703,53.0,59.0,40.0,False,,341.70222702668696,[],"[960, 540]",ColorTask,37.0,42.0,,,HRV,HRV_0052,2022-11-30 18:09:39
,wl-rdm,166,712345,0.0-8.42-0.42,1.0,159.0,,,,,,,[],,,,,,87.9,1.0,i,1.0,True,676.8000000044703,41.0,59.0,40.0,False,,247.2258216192445,[],"[960, 540]",ColorTask,38.0,43.0,,,HRV,HRV_0052,2022-11-30 18:09:39
,wl-rdm,167,714411,0.0-8.43-0.43,1.0,160.0,,,,,,,[],,,,,,87.9,0.0,u,0.0,True,723.6000000014901,44.0,59.0,40.0,False,,266.31822805465436,[],"[960, 540]",ColorTask,39.0,44.0,,,HRV,HRV_0052,2022-11-30 18:09:39
,wl-rdm,168,716611,0.0-8.44-0.44,1.0,161.0,,,,,,,[],,,,,,87.9,0.0,u,0.0,True,764.7000000029802,46.0,59.0,40.0,False,,377.6801428047281,[],"[960, 540]",ColorTask,40.0,45.0,,,HRV,HRV_0052,2022-11-30 18:09:39
,wl-rdm,169,718978,0.0-8.45-0.45,1.0,162.0,,,,,,,[],,,,,,53.2,0.0,i,1.0,False,918.6999999955297,56.0,59.0,40.0,False,,359.0573754226857,[],"[960, 540]",ColorTask,39.0,46.0,,,HRV,HRV_0052,2022-11-30 18:09:39
,wl-rdm,170,721295,0.0-8.46-0.46,1.0,163.0,,,,,,,[],,,,,,50.0,0.0,u,0.0,True,1020.5,62.0,59.0,40.0,False,,203.414124004567,[],"[960, 540]",ColorTask,40.0,47.0,,,HRV,HRV_0052,2022-11-30 18:09:39
,wl-rdm,171,723728,0.0-8.47-0.47,1.0,164.0,,,,,,,[],,,,,,56.4,0.0,i,1.0,False,1071.3999999985099,65.0,59.0,40.0,False,,272.51607922520964,[],"[960, 540]",ColorTask,39.0,48.0,,,HRV,HRV_0052,2022-11-30 18:09:39
,wl-rdm,172,725728,0.0-8.48-0.48,1.0,165.0,,,,,,,[],,,,,,87.9,1.0,u,0.0,False,569.2999999895692,35.0,59.0,40.0,False,,339.5764990931365,[],"[960, 540]",ColorTask,38.0,49.0,,,HRV,HRV_0052,2022-11-30 18:09:39
,wl-rdm,173,727778,0.0-8.49-0.49,1.0,166.0,,,,,,,[],,,,,,53.2,1.0,i,1.0,True,676.2000000029802,41.0,59.0,40.0,False,,294.60985061211073,[],"[960, 540]",ColorTask,39.0,50.0,,,HRV,HRV_0052,2022-11-30 18:09:39
,wl-rdm,174,729928,0.0-8.50-0.50,1.0,167.0,,,,,,,[],,,,,,62.5,1.0,i,1.0,True,810.6000000014901,49.0,59.0,40.0,False,,266.4711022551628,[],"[960, 540]",ColorTask,40.0,51.0,,,HRV,HRV_0052,2022-11-30 18:09:39
,wl-rdm,175,732478,0.0-8.51-0.51,1.0,168.0,,,,,,,[],,,,,,62.5,0.0,u,0.0,True,1188.0,72.0,59.0,40.0,False,,266.8985068196995,[],"[960, 540]",ColorTask,41.0,52.0,,,HRV,HRV_0052,2022-11-30 18:09:39
,wl-rdm,176,734711,0.0-8.52-0.52,1.0,169.0,,,,,,,[],,,,,,53.2,0.0,i,1.0,False,753.3000000044703,46.0,59.0,40.0,False,,391.78068542280937,[],"[960, 540]",ColorTask,40.0,53.0,,,HRV,HRV_0052,2022-11-30 18:09:39
,wl-rdm,177,739095,0.0-8.53-0.53,1.0,170.0,,,,,,,[],,,,,,62.5,1.0,u,0.0,False,2937.5,176.0,59.0,40.0,False,,357.54337632107274,[],"[960, 540]",ColorTask,39.0,54.0,,,HRV,HRV_0052,2022-11-30 18:09:39
,wl-rdm,178,741111,0.0-8.54-0.54,1.0,171.0,,,,,,,[],,,,,,87.9,0.0,u,0.0,True,686.6000000014901,42.0,59.0,40.0,False,,236.2148710786882,[],"[960, 540]",ColorTask,40.0,55.0,,,HRV,HRV_0052,2022-11-30 18:09:39
,wl-rdm,179,743228,0.0-8.55-0.55,1.0,172.0,,,,,,,[],,,,,,87.9,1.0,u,0.0,False,780.9000000059605,47.0,59.0,40.0,False,,263.1739622628173,[],"[960, 540]",ColorTask,39.0,56.0,,,HRV,HRV_0052,2022-11-30 18:09:39
,wl-rdm,180,746011,0.0-8.56-0.56,1.0,173.0,,,,,,,[],,,,,,62.5,1.0,i,1.0,True,1457.2999999970198,88.0,59.0,40.0,False,,234.08837447171584,[],"[960, 540]",ColorTask,40.0,57.0,,,HRV,HRV_0052,2022-11-30 18:09:39
,wl-rdm,181,748344,0.0-8.57-0.57,1.0,174.0,,,,,,,[],,,,,,53.2,0.0,u,0.0,True,919.0,56.0,59.0,40.0,False,,321.6962735825861,[],"[960, 540]",ColorTask,41.0,58.0,,,HRV,HRV_0052,2022-11-30 18:09:39
,wl-rdm,182,750528,0.0-8.58-0.58,1.0,175.0,,,,,,,[],,,,,,56.4,0.0,i,1.0,False,794.0,48.0,59.0,40.0,False,,313.9046096857847,[],"[960, 540]",ColorTask,40.0,59.0,,,HRV,HRV_0052,2022-11-30 18:09:39
,wl-rdm,183,752460,0.0-8.59-0.59,1.0,176.0,,,,,,,[],,,,,,56.4,1.0,u,0.0,False,638.8000000044703,39.0,59.0,40.0,False,,214.9150969058094,[],"[960, 540]",ColorTask,39.0,60.0,,,HRV,HRV_0052,2022-11-30 18:09:39
,wl-rdm,184,754327,0.0-8.60-0.60,1.0,177.0,,,,,,,[],,,,,,62.5,0.0,i,1.0,False,560.6000000014901,34.0,59.0,40.0,False,,217.0346065123633,[],"[960, 540]",ColorTask,38.0,61.0,,,HRV,HRV_0052,2022-11-30 18:09:39
,wl-rdm,185,756276,0.0-8.61-0.61,1.0,178.0,,,,,,,[],,,,,,50.0,1.0,u,0.0,False,571.3999999985099,35.0,59.0,40.0,False,,297.74201645077153,[],"[960, 540]",ColorTask,37.0,62.0,,,HRV,HRV_0052,2022-11-30 18:09:39
,wl-rdm,186,758226,0.0-8.62-0.62,1.0,179.0,,,,,,,[],,,,,,87.9,0.0,u,0.0,True,574.2999999970198,35.0,59.0,40.0,False,,292.63169925248667,[],"[960, 540]",ColorTask,38.0,63.0,,,HRV,HRV_0052,2022-11-30 18:09:39
,wl-rdm,187,760227,0.0-8.63-0.63,1.0,180.0,,,,,,,[],,,,,,62.5,0.0,u,0.0,True,623.3999999985099,38.0,59.0,40.0,False,,287.9427199740431,[],"[960, 540]",ColorTask,39.0,64.0,,,HRV,HRV_0052,2022-11-30 18:09:39
,wl-rdm,188,762527,0.0-8.64-0.64,1.0,181.0,,,,,,,[],,,,,,87.9,0.0,u,0.0,True,969.2999999970198,59.0,59.0,40.0,False,,251.28690299260603,[],"[960, 540]",ColorTask,40.0,65.0,,,HRV,HRV_0052,2022-11-30 18:09:39
,wl-rdm,189,764643,0.0-8.65-0.65,1.0,182.0,,,,,,,[],,,,,,56.4,0.0,i,1.0,False,706.0999999940395,43.0,59.0,40.0,False,,323.20898456377085,[],"[960, 540]",ColorTask,39.0,66.0,,,HRV,HRV_0052,2022-11-30 18:09:39
,wl-rdm,190,766743,0.0-8.66-0.66,1.0,183.0,,,,,,,[],,,,,,53.2,0.0,u,0.0,True,669.1000000014901,41.0,59.0,40.0,False,,339.1031879650984,[],"[960, 540]",ColorTask,40.0,67.0,,,HRV,HRV_0052,2022-11-30 18:09:39
,wl-rdm,191,768927,0.0-8.67-0.67,1.0,184.0,,,,,,,[],,,,,,56.4,1.0,u,0.0,False,802.5000000074506,49.0,59.0,40.0,False,,285.9813133361067,[],"[960, 540]",ColorTask,39.0,68.0,,,HRV,HRV_0052,2022-11-30 18:09:39
,wl-rdm,192,770844,0.0-8.68-0.68,1.0,185.0,,,,,,,[],,,,,,53.2,1.0,u,0.0,False,597.3999999985099,36.0,59.0,40.0,False,,236.95187764922926,[],"[960, 540]",ColorTask,38.0,69.0,,,HRV,HRV_0052,2022-11-30 18:09:39
,wl-rdm,193,772777,0.0-8.69-0.69,1.0,186.0,,,,,,,[],,,,,,73.6,0.0,i,1.0,False,625.7999999970198,38.0,59.0,40.0,False,,221.3734395050374,[],"[960, 540]",ColorTask,37.0,70.0,,,HRV,HRV_0052,2022-11-30 18:09:39
,wl-rdm,194,774643,0.0-8.70-0.70,1.0,187.0,,,,,,,[],,,,,,62.5,0.0,u,0.0,True,539.3000000044703,33.0,59.0,40.0,False,,248.8047730480686,[],"[960, 540]",ColorTask,38.0,71.0,,,HRV,HRV_0052,2022-11-30 18:09:39
,wl-rdm,195,776843,0.0-8.71-0.71,1.0,188.0,,,,,,,[],,,,,,87.9,1.0,i,1.0,True,872.7000000029802,53.0,59.0,40.0,False,,240.84998974653985,[],"[960, 540]",ColorTask,39.0,72.0,,,HRV,HRV_0052,2022-11-30 18:09:39
,wl-rdm,196,779077,0.0-8.72-0.72,1.0,189.0,,,,,,,[],,,,,,73.6,0.0,i,1.0,False,821.4000000059605,50.0,59.0,40.0,False,,322.37406825671826,[],"[960, 540]",ColorTask,38.0,73.0,,,HRV,HRV_0052,2022-11-30 18:09:39
,wl-rdm,197,781327,0.0-8.73-0.73,1.0,190.0,,,,,,,[],,,,,,50.0,0.0,u,0.0,True,910.9000000059605,55.0,59.0,40.0,False,,265.30086331422063,[],"[960, 540]",ColorTask,39.0,74.0,,,HRV,HRV_0052,2022-11-30 18:09:39
,wl-rdm,198,783510,0.0-8.74-0.74,1.0,191.0,,,,,,,[],,,,,,62.5,1.0,i,1.0,True,770.2999999970198,47.0,59.0,40.0,False,,327.54474283212306,[],"[960, 540]",ColorTask,40.0,75.0,,,HRV,HRV_0052,2022-11-30 18:09:39
,wl-rdm,199,785743,0.0-8.75-0.75,1.0,192.0,,,,,,,[],,,,,,53.2,1.0,i,1.0,True,876.9000000059605,53.0,59.0,40.0,False,,270.47344345400876,[],"[960, 540]",ColorTask,41.0,76.0,,,HRV,HRV_0052,2022-11-30 18:09:39
,wl-rdm,200,788026,0.0-8.76-0.76,1.0,193.0,,,,,,,[],,,,,,50.0,1.0,i,1.0,True,939.3000000044703,57.0,59.0,40.0,False,,282.87172210861263,[],"[960, 540]",ColorTask,42.0,77.0,,,HRV,HRV_0052,2022-11-30 18:09:39
,wl-rdm,201,790176,0.0-8.77-0.77,1.0,194.0,,,,,,,[],,,,,,50.0,0.0,i,1.0,False,859.0,52.0,59.0,40.0,False,,206.56900595384246,[],"[960, 540]",ColorTask,41.0,78.0,,,HRV,HRV_0052,2022-11-30 18:09:39
,wl-rdm,202,792410,0.0-8.78-0.78,1.0,195.0,,,,,,,[],,,,,,50.0,0.0,i,1.0,False,847.7999999895692,51.0,59.0,40.0,False,,328.9058597198689,[],"[960, 540]",ColorTask,40.0,79.0,,,HRV,HRV_0052,2022-11-30 18:09:39
,wl-rdm,203,794593,0.0-8.79-0.79,1.0,196.0,,,,,,,[],,,,,,50.0,1.0,i,1.0,True,741.6000000014901,45.0,59.0,40.0,False,,360.49613650485935,[],"[960, 540]",ColorTask,41.0,80.0,,,HRV,HRV_0052,2022-11-30 18:09:39
,wl-rdm,204,796843,0.0-8.80-0.80,1.0,197.0,,,,,,,[],,,,,,62.5,0.0,u,0.0,True,956.0,58.0,59.0,40.0,False,,200.49829287722054,[],"[960, 540]",ColorTask,42.0,81.0,,,HRV,HRV_0052,2022-11-30 18:09:39
,wl-rdm,205,799143,0.0-8.81-0.81,1.0,198.0,,,,,,,[],,,,,,73.6,1.0,i,1.0,True,852.1999999955297,52.0,59.0,40.0,False,,357.5052372549802,[],"[960, 540]",ColorTask,43.0,82.0,,,HRV,HRV_0052,2022-11-30 18:09:39
,wl-rdm,206,801326,0.0-8.82-0.82,1.0,199.0,,,,,,,[],,,,,,56.4,0.0,u,0.0,True,869.2999999970198,53.0,59.0,40.0,False,,218.3738533305336,[],"[960, 540]",ColorTask,44.0,83.0,,,HRV,HRV_0052,2022-11-30 18:09:39
,wl-rdm,207,803426,0.0-8.83-0.83,1.0,200.0,,,,,,,[],,,,,,73.6,0.0,i,1.0,False,689.8999999985099,42.0,59.0,40.0,False,,331.3080228403931,[],"[960, 540]",ColorTask,43.0,84.0,,,HRV,HRV_0052,2022-11-30 18:09:39
,wl-rdm,208,805343,0.0-8.84-0.84,1.0,201.0,,,,,,,[],,,,,,87.9,0.0,u,0.0,True,626.8999999985099,38.0,59.0,40.0,False,,216.17158129778193,[],"[960, 540]",ColorTask,44.0,85.0,,,HRV,HRV_0052,2022-11-30 18:09:39
,wl-rdm,209,807527,0.0-8.85-0.85,1.0,202.0,,,,,,,[],,,,,,87.9,1.0,i,1.0,True,743.9000000059605,45.0,59.0,40.0,False,,364.22517644120296,[],"[960, 540]",ColorTask,45.0,86.0,,,HRV,HRV_0052,2022-11-30 18:09:39
,wl-rdm,210,809760,0.0-8.86-0.86,1.0,203.0,,,,,,,[],,,,,,53.2,1.0,u,0.0,False,769.0,47.0,59.0,40.0,False,,369.8623233316624,[],"[960, 540]",ColorTask,44.0,87.0,,,HRV,HRV_0052,2022-11-30 18:09:39
,wl-rdm,211,811627,0.0-8.87-0.87,1.0,204.0,,,,,,,[],,,,,,62.5,1.0,i,1.0,True,423.30000000447035,26.0,59.0,40.0,False,,350.3732540595986,[],"[960, 540]",ColorTask,45.0,88.0,,,HRV,HRV_0052,2022-11-30 18:09:39
,wl-rdm,212,813643,0.0-8.88-0.88,1.0,205.0,,,,,,,[],,,,,,53.2,0.0,u,0.0,True,697.0999999940395,42.0,59.0,40.0,False,,246.60761370970607,[],"[960, 540]",ColorTask,46.0,89.0,,,HRV,HRV_0052,2022-11-30 18:09:39
,wl-rdm,213,815560,0.0-8.89-0.89,1.0,206.0,,,,,,,[],,,,,,50.0,0.0,i,1.0,False,542.4999999925494,33.0,59.0,40.0,False,,303.6238461396788,[],"[960, 540]",ColorTask,45.0,90.0,,,HRV,HRV_0052,2022-11-30 18:09:39
,wl-rdm,214,817343,0.0-8.90-0.90,1.0,207.0,,,,,,,[],,,,,,62.5,0.0,u,0.0,True,493.5000000074506,30.0,59.0,40.0,False,,206.41394562864068,[],"[960, 540]",ColorTask,46.0,91.0,,,HRV,HRV_0052,2022-11-30 18:09:39
,wl-rdm,215,819377,0.0-8.91-0.91,1.0,208.0,,,,,,,[],,,,,,50.0,0.0,u,0.0,True,685.8999999985099,42.0,59.0,40.0,False,,265.8735739162794,[],"[960, 540]",ColorTask,47.0,92.0,,,HRV,HRV_0052,2022-11-30 18:09:39
,wl-rdm,216,821577,0.0-8.92-0.92,1.0,209.0,,,,,,,[],,,,,,56.4,0.0,i,1.0,False,825.5,50.0,59.0,40.0,False,,296.47717968168945,[],"[960, 540]",ColorTask,46.0,93.0,,,HRV,HRV_0052,2022-11-30 18:09:39
,wl-rdm,217,823727,0.0-8.93-0.93,1.0,210.0,,,,,,,[],,,,,,56.4,0.0,u,0.0,True,736.2000000029802,45.0,59.0,40.0,False,,330.01564546993376,[],"[960, 540]",ColorTask,47.0,94.0,,,HRV,HRV_0052,2022-11-30 18:09:39
,wl-rdm,218,826193,0.0-8.94-0.94,1.0,211.0,,,,,,,[],,,,,,62.5,0.0,u,0.0,True,1082.9000000059605,65.0,59.0,40.0,False,,310.742368487058,[],"[960, 540]",ColorTask,48.0,95.0,,,HRV,HRV_0052,2022-11-30 18:09:39
,wl-rdm,219,828827,0.0-8.95-0.95,1.0,212.0,,,,,,,[],,,,,,50.0,1.0,u,0.0,False,1223.5,74.0,59.0,40.0,False,,332.2991326882718,[],"[960, 540]",ColorTask,47.0,96.0,,,HRV,HRV_0052,2022-11-30 18:09:39
,wl-rdm,220,831160,0.0-8.96-0.96,1.0,213.0,,,,,,,[],,,,,,62.5,0.0,u,0.0,True,859.6000000014901,52.0,59.0,40.0,False,,383.1020928201533,[],"[960, 540]",ColorTask,48.0,97.0,,,HRV,HRV_0052,2022-11-30 18:09:39
,wl-rdm,221,833710,0.0-8.97-0.97,1.0,214.0,,,,,,,[],,,,,,73.6,1.0,i,1.0,True,1236.6000000014901,75.0,59.0,40.0,False,,231.2500462016273,[],"[960, 540]",ColorTask,49.0,98.0,,,HRV,HRV_0052,2022-11-30 18:09:39
,wl-rdm,222,835993,0.0-8.98-0.98,1.0,215.0,,,,,,,[],,,,,,73.6,0.0,u,0.0,True,982.6000000014901,59.0,59.0,40.0,False,,223.79911964862166,[],"[960, 540]",ColorTask,50.0,99.0,,,HRV,HRV_0052,2022-11-30 18:09:39
,wl-rdm,223,838243,0.0-8.99-0.99,1.0,216.0,,,,,,,[],,,,,,62.5,0.0,u,0.0,True,964.0,58.0,59.0,40.0,False,,200.05078873137418,[],"[960, 540]",ColorTask,51.0,100.0,,,HRV,HRV_0052,2022-11-30 18:09:39
,wl-rdm,224,840493,0.0-8.100-0.100,1.0,217.0,,,,,,,[],,,,,,73.6,1.0,i,1.0,True,945.1000000014901,57.0,59.0,40.0,False,,221.22485703482565,[],"[960, 540]",ColorTask,52.0,101.0,,,HRV,HRV_0052,2022-11-30 18:09:39
,wl-rdm,225,842827,0.0-8.101-0.101,1.0,218.0,,,,,,,[],,,,,,73.6,1.0,i,1.0,True,889.8999999985099,54.0,59.0,40.0,False,,362.8368806103715,[],"[960, 540]",ColorTask,53.0,102.0,,,HRV,HRV_0052,2022-11-30 18:09:39
,wl-rdm,226,844943,0.0-8.102-0.102,1.0,219.0,,,,,,,[],,,,,,87.9,1.0,i,1.0,True,826.5,50.0,59.0,40.0,False,,200.36450399083054,[],"[960, 540]",ColorTask,54.0,103.0,,,HRV,HRV_0052,2022-11-30 18:09:39
,wl-rdm,227,847243,0.0-8.103-0.103,1.0,220.0,,,,,,,[],,,,,,56.4,1.0,u,0.0,False,839.4999999925494,51.0,59.0,40.0,False,,380.1221101367986,[],"[960, 540]",ColorTask,53.0,104.0,,,HRV,HRV_0052,2022-11-30 18:09:39
,wl-rdm,228,849710,0.0-8.104-0.104,1.0,221.0,,,,,,,[],,,,,,73.6,0.0,u,0.0,True,986.7999999895692,60.0,59.0,40.0,False,,383.5454943912591,[],"[960, 540]",ColorTask,54.0,105.0,,,HRV,HRV_0052,2022-11-30 18:09:39
,wl-rdm,229,852010,0.0-8.105-0.105,1.0,222.0,,,,,,,[],,,,,,56.4,0.0,u,0.0,True,973.9000000059605,59.0,59.0,40.0,False,,235.90618418432865,[],"[960, 540]",ColorTask,55.0,106.0,,,HRV,HRV_0052,2022-11-30 18:09:39
,wl-rdm,230,854110,0.0-8.106-0.106,1.0,223.0,,,,,,,[],,,,,,73.6,1.0,i,1.0,True,794.5999999940395,48.0,59.0,40.0,False,,230.79617023145641,[],"[960, 540]",ColorTask,56.0,107.0,,,HRV,HRV_0052,2022-11-30 18:09:39
,wl-rdm,231,856243,0.0-8.107-0.107,1.0,224.0,,,,,,,[],,,,,,56.4,1.0,i,1.0,True,772.5,47.0,59.0,40.0,False,,281.5653913725891,[],"[960, 540]",ColorTask,57.0,108.0,,,HRV,HRV_0052,2022-11-30 18:09:39
,wl-html-button-response,232,864743,0.0-9.0-0.0,,,,,,,,,,8495.5,,0,,,,,,,,,,,,,,,,,,,,<h3>End of this session. Thank you!</h3><br>,['Close window'],HRV,HRV_0052,2022-11-30 18:09:39
