trialN,stimuli,trialStartTime,trialStartTime_UNIX,stimulus1,stimulus2,stimulus1Bid,stimulus2Bid,delta,selected,rt,rt_UNIX,rt_perfnow,receivedResponse,rsp,trialEndTime,trialDuration,trialEndTime_UNIX,trialDuration_UNIX,exp,subjectId,date
0,"[{'imgObject': {}, 'id': 'fried eggs', 'src': '/static/foodstim60/fried eggs.jpg', 'key': 'u', 'origWidth': 410, 'origHeight': 410, 'width': 410, 'height': 410, 'widthPercent': 0.45, 'rescaleHeight': False, 'trialN': 0, 'loaded': True, 'loadedTime': 3924.5, 'positionName': 'LEFT', 'positionCoords': [511.6, 335], 'bid': 5.89}, {'imgObject': {}, 'id': 'raspberries', 'src': '/static/foodstim60/raspberries.jpg', 'key': 'i', 'origWidth': 411, 'origHeight': 411, 'width': 411, 'height': 411, 'widthPercent': 0.45, 'rescaleHeight': False, 'trialN': 0, 'loaded': True, 'loadedTime': 3957.8000000044703, 'positionName': 'RIGHT', 'positionCoords': [998.4, 334.5], 'bid': 3.38}]",4381.5,1669829756001,fried eggs,raspberries,5.89,3.38,-2.51,raspberries,102.20000000298023,103,102.60000000149012,True,i,4994.5,613.0,1669829756614,613,HRV,HRV_0052,2022-11-30 17:38:16
1,"[{'imgObject': {}, 'id': 'burger', 'src': '/static/foodstim60/burger.jpg', 'key': 'u', 'origWidth': 409, 'origHeight': 409, 'width': 409, 'height': 409, 'widthPercent': 0.45, 'rescaleHeight': False, 'trialN': 1, 'loaded': True, 'loadedTime': 4033, 'positionName': 'LEFT', 'positionCoords': [512.6, 335.5], 'bid': 7.05}, {'imgObject': {}, 'id': 'kiwi', 'src': '/static/foodstim60/kiwi.jpg', 'key': 'i', 'origWidth': 410, 'origHeight': 410, 'width': 410, 'height': 410, 'widthPercent': 0.45, 'rescaleHeight': False, 'trialN': 1, 'loaded': True, 'loadedTime': 4049.2000000029802, 'positionName': 'RIGHT', 'positionCoords': [998.4, 335], 'bid': 6.61}]",4994.89999999851,1669829756614,burger,kiwi,7.05,6.61,-0.4399999999999995,kiwi,16.30000000447035,17,16.600000001490116,True,i,5521.80000000447,526.9000000059605,1669829757141,527,HRV,HRV_0052,2022-11-30 17:38:16
2,"[{'imgObject': {}, 'id': 'avocado', 'src': '/static/foodstim60/avocado.jpg', 'key': 'u', 'origWidth': 409, 'origHeight': 409, 'width': 409, 'height': 409, 'widthPercent': 0.45, 'rescaleHeight': False, 'trialN': 2, 'loaded': True, 'loadedTime': 4134.60000000149, 'positionName': 'LEFT', 'positionCoords': [512.6, 335.5], 'bid': 7.98}, {'imgObject': {}, 'id': 'cocktailshrimp', 'src': '/static/foodstim60/cocktailshrimp.jpg', 'key': 'i', 'origWidth': 410, 'origHeight': 410, 'width': 410, 'height': 410, 'widthPercent': 0.45, 'rescaleHeight': False, 'trialN': 2, 'loaded': True, 'loadedTime': 4224.20000000298, 'positionName': 'RIGHT', 'positionCoords': [998.4, 335], 'bid': 8.03}]",5522.10000000149,1669829757142,avocado,cocktailshrimp,7.98,8.03,0.049999999999998934,cocktailshrimp,9.100000001490116,9,9.600000001490116,True,i,6044.0,521.8999999985099,1669829757663,521,HRV,HRV_0052,2022-11-30 17:38:16
3,"[{'imgObject': {}, 'id': 'bagel plain', 'src': '/static/foodstim60/bagel plain.jpg', 'key': 'u', 'origWidth': 410, 'origHeight': 410, 'width': 410, 'height': 410, 'widthPercent': 0.45, 'rescaleHeight': False, 'trialN': 3, 'loaded': True, 'loadedTime': 4259.39999999851, 'positionName': 'LEFT', 'positionCoords': [511.6, 335], 'bid': 6.67}, {'imgObject': {}, 'id': 'eggsalad', 'src': '/static/foodstim60/eggsalad.jpg', 'key': 'i', 'origWidth': 410, 'origHeight': 409, 'width': 410, 'height': 409, 'widthPercent': 0.45, 'rescaleHeight': False, 'trialN': 3, 'loaded': True, 'loadedTime': 4300.60000000149, 'positionName': 'RIGHT', 'positionCoords': [998.4, 335.5], 'bid': 6.8100000000000005}]",6044.10000000149,1669829757664,bagel plain,eggsalad,6.67,6.8100000000000005,0.14000000000000057,eggsalad,30.700000002980232,31,31.0,True,i,6585.39999999851,541.2999999970198,1669829758205,541,HRV,HRV_0052,2022-11-30 17:38:16
4,"[{'imgObject': {}, 'id': 'cantaloupe', 'src': '/static/foodstim60/cantaloupe.jpg', 'key': 'u', 'origWidth': 409, 'origHeight': 409, 'width': 409, 'height': 409, 'widthPercent': 0.45, 'rescaleHeight': False, 'trialN': 4, 'loaded': True, 'loadedTime': 4347.80000000447, 'positionName': 'LEFT', 'positionCoords': [512.6, 335.5], 'bid': 7.42}, {'imgObject': {}, 'id': 'luckycharms', 'src': '/static/foodstim60/luckycharms.jpg', 'key': 'i', 'origWidth': 410, 'origHeight': 409, 'width': 410, 'height': 409, 'widthPercent': 0.45, 'rescaleHeight': False, 'trialN': 4, 'loaded': True, 'loadedTime': 4352.39999999851, 'positionName': 'RIGHT', 'positionCoords': [998.4, 335.5], 'bid': 3.6}]",6585.60000000149,1669829758205,cantaloupe,luckycharms,7.42,3.6,-3.82,NaN,NaN,NaN,5295.10000000149,False,NaN,12395.70000000298,5810.10000000149,1669829764015,5810,HRV,HRV_0052,2022-11-30 17:38:16
5,"[{'imgObject': {}, 'id': 'granola w milk', 'src': '/static/foodstim60/granola w milk.jpg', 'key': 'u', 'origWidth': 410, 'origHeight': 410, 'width': 410, 'height': 410, 'widthPercent': 0.45, 'rescaleHeight': False, 'trialN': 5, 'loaded': True, 'loadedTime': 4354.20000000298, 'positionName': 'LEFT', 'positionCoords': [511.6, 335], 'bid': 7.84}, {'imgObject': {}, 'id': 'chickenfingers', 'src': '/static/foodstim60/chickenfingers.jpg', 'key': 'i', 'origWidth': 410, 'origHeight': 410, 'width': 410, 'height': 410, 'widthPercent': 0.45, 'rescaleHeight': False, 'trialN': 5, 'loaded': True, 'loadedTime': 4367.39999999851, 'positionName': 'RIGHT', 'positionCoords': [998.4, 335], 'bid': 5.4}]",12396.10000000149,1669829764016,granola w milk,chickenfingers,7.84,5.4,-2.4399999999999995,granola w milk,976.8999999985099,977,977.3999999985099,True,u,13884.0,1487.8999999985099,1669829765504,1488,HRV,HRV_0052,2022-11-30 17:38:16
6,"[{'imgObject': {}, 'id': 'pear', 'src': '/static/foodstim60/pear.jpg', 'key': 'u', 'origWidth': 411, 'origHeight': 410, 'width': 411, 'height': 410, 'widthPercent': 0.45, 'rescaleHeight': False, 'trialN': 6, 'loaded': True, 'loadedTime': 4369.5, 'positionName': 'LEFT', 'positionCoords': [510.6, 335], 'bid': 6.2}, {'imgObject': {}, 'id': 'fried eggs', 'src': '/static/foodstim60/fried eggs.jpg', 'key': 'i', 'origWidth': 410, 'origHeight': 410, 'width': 410, 'height': 410, 'widthPercent': 0.45, 'rescaleHeight': False, 'trialN': 6, 'loaded': True, 'loadedTime': 3917.89999999851, 'positionName': 'RIGHT', 'positionCoords': [998.4, 335], 'bid': 5.89}]",13884.30000000447,1669829765504,pear,fried eggs,6.2,5.89,-0.3100000000000005,pear,527.3999999985099,528,527.5999999940395,True,u,14914.30000000447,1030.0,1669829766534,1030,HRV,HRV_0052,2022-11-30 17:38:16
7,"[{'imgObject': {}, 'id': 'mango', 'src': '/static/foodstim60/mango.jpg', 'key': 'u', 'origWidth': 411, 'origHeight': 411, 'width': 411, 'height': 411, 'widthPercent': 0.45, 'rescaleHeight': False, 'trialN': 7, 'loaded': True, 'loadedTime': 3948.7000000029802, 'positionName': 'LEFT', 'positionCoords': [510.6, 334.5], 'bid': 6.640000000000001}, {'imgObject': {}, 'id': 'kiwi', 'src': '/static/foodstim60/kiwi.jpg', 'key': 'i', 'origWidth': 410, 'origHeight': 410, 'width': 410, 'height': 410, 'widthPercent': 0.45, 'rescaleHeight': False, 'trialN': 7, 'loaded': True, 'loadedTime': 4050.10000000149, 'positionName': 'RIGHT', 'positionCoords': [998.4, 335], 'bid': 6.61}]",14914.60000000149,1669829766534,mango,kiwi,6.640000000000001,6.61,-0.03000000000000025,kiwi,9.700000002980232,11,10.700000002980232,True,i,15434.20000000298,519.6000000014901,1669829767054,520,HRV,HRV_0052,2022-11-30 17:38:16
8,"[{'imgObject': {}, 'id': 'sushi w_condiments', 'src': '/static/foodstim60/sushi w_condiments.jpg', 'key': 'u', 'origWidth': 410, 'origHeight': 410, 'width': 410, 'height': 410, 'widthPercent': 0.45, 'rescaleHeight': False, 'trialN': 8, 'loaded': True, 'loadedTime': 3961.60000000149, 'positionName': 'LEFT', 'positionCoords': [511.6, 335], 'bid': 6.29}, {'imgObject': {}, 'id': 'blueberries', 'src': '/static/foodstim60/blueberries.jpg', 'key': 'i', 'origWidth': 411, 'origHeight': 411, 'width': 411, 'height': 411, 'widthPercent': 0.45, 'rescaleHeight': False, 'trialN': 8, 'loaded': True, 'loadedTime': 3973.89999999851, 'positionName': 'RIGHT', 'positionCoords': [998.4, 334.5], 'bid': 8.4}]",15434.5,1669829767054,sushi w_condiments,blueberries,6.29,8.4,2.1100000000000003,blueberries,56.80000000447035,57,57.20000000298023,True,i,16006.60000000149,572.1000000014901,1669829767626,572,HRV,HRV_0052,2022-11-30 17:38:16
9,"[{'imgObject': {}, 'id': 'cherry tomato', 'src': '/static/foodstim60/cherry tomato.jpg', 'key': 'u', 'origWidth': 410, 'origHeight': 410, 'width': 410, 'height': 410, 'widthPercent': 0.45, 'rescaleHeight': False, 'trialN': 9, 'loaded': True, 'loadedTime': 3974.10000000149, 'positionName': 'LEFT', 'positionCoords': [511.6, 335], 'bid': 6.94}, {'imgObject': {}, 'id': 'corn cob', 'src': '/static/foodstim60/corn cob.jpg', 'key': 'i', 'origWidth': 411, 'origHeight': 411, 'width': 411, 'height': 411, 'widthPercent': 0.45, 'rescaleHeight': False, 'trialN': 9, 'loaded': True, 'loadedTime': 3989, 'positionName': 'RIGHT', 'positionCoords': [998.4, 334.5], 'bid': 6.82}]",16006.89999999851,1669829767626,cherry tomato,corn cob,6.94,6.82,-0.1200000000000001,corn cob,68.40000000596046,69,68.70000000298023,True,i,16583.20000000298,576.3000000044703,1669829768203,577,HRV,HRV_0052,2022-11-30 17:38:16
10,"[{'imgObject': {}, 'id': 'veggieswithdip', 'src': '/static/foodstim60/veggieswithdip.jpg', 'key': 'u', 'origWidth': 409, 'origHeight': 409, 'width': 409, 'height': 409, 'widthPercent': 0.45, 'rescaleHeight': False, 'trialN': 10, 'loaded': True, 'loadedTime': 3995.60000000149, 'positionName': 'LEFT', 'positionCoords': [512.6, 335.5], 'bid': 7.38}, {'imgObject': {}, 'id': 'blueberries', 'src': '/static/foodstim60/blueberries.jpg', 'key': 'i', 'origWidth': 411, 'origHeight': 411, 'width': 411, 'height': 411, 'widthPercent': 0.45, 'rescaleHeight': False, 'trialN': 10, 'loaded': True, 'loadedTime': 3973.5, 'positionName': 'RIGHT', 'positionCoords': [998.4, 334.5], 'bid': 8.4}]",16583.5,1669829768203,veggieswithdip,blueberries,7.38,8.4,1.0200000000000005,veggieswithdip,3.600000001490116,12,11.800000004470348,True,u,17099.5,516.0,1669829768719,516,HRV,HRV_0052,2022-11-30 17:38:16
11,"[{'imgObject': {}, 'id': 'apple slices', 'src': '/static/foodstim60/apple slices.jpg', 'key': 'u', 'origWidth': 409, 'origHeight': 410, 'width': 409, 'height': 410, 'widthPercent': 0.45, 'rescaleHeight': False, 'trialN': 11, 'loaded': True, 'loadedTime': 4003, 'positionName': 'LEFT', 'positionCoords': [512.6, 335], 'bid': 6.2}, {'imgObject': {}, 'id': 'sushi w_condiments', 'src': '/static/foodstim60/sushi w_condiments.jpg', 'key': 'i', 'origWidth': 410, 'origHeight': 410, 'width': 410, 'height': 410, 'widthPercent': 0.45, 'rescaleHeight': False, 'trialN': 11, 'loaded': True, 'loadedTime': 3966, 'positionName': 'RIGHT', 'positionCoords': [998.4, 335], 'bid': 6.29}]",17099.80000000447,1669829768719,apple slices,sushi w_condiments,6.2,6.29,0.08999999999999986,apple slices,87.29999999701977,88,87.69999999552965,True,u,17692.30000000447,592.5,1669829769312,593,HRV,HRV_0052,2022-11-30 17:38:16
12,"[{'imgObject': {}, 'id': 'raspberries', 'src': '/static/foodstim60/raspberries.jpg', 'key': 'u', 'origWidth': 411, 'origHeight': 411, 'width': 411, 'height': 411, 'widthPercent': 0.45, 'rescaleHeight': False, 'trialN': 12, 'loaded': True, 'loadedTime': 3953.3000000044703, 'positionName': 'LEFT', 'positionCoords': [510.6, 334.5], 'bid': 3.38}, {'imgObject': {}, 'id': 'olives', 'src': '/static/foodstim60/olives.jpg', 'key': 'i', 'origWidth': 410, 'origHeight': 410, 'width': 410, 'height': 410, 'widthPercent': 0.45, 'rescaleHeight': False, 'trialN': 12, 'loaded': True, 'loadedTime': 4014.60000000149, 'positionName': 'RIGHT', 'positionCoords': [998.4, 335], 'bid': 2.19}]",17692.5,1669829769312,raspberries,olives,3.38,2.19,-1.19,olives,38.80000000447035,39,39.30000000447035,True,i,18235.60000000149,543.1000000014901,1669829769855,543,HRV,HRV_0052,2022-11-30 17:38:16
13,"[{'imgObject': {}, 'id': 'blackbeanswithrice', 'src': '/static/foodstim60/blackbeanswithrice.jpg', 'key': 'u', 'origWidth': 410, 'origHeight': 410, 'width': 410, 'height': 410, 'widthPercent': 0.45, 'rescaleHeight': False, 'trialN': 13, 'loaded': True, 'loadedTime': 4021.7000000029802, 'positionName': 'LEFT', 'positionCoords': [511.6, 335], 'bid': 7}, {'imgObject': {}, 'id': 'lox', 'src': '/static/foodstim60/lox.jpg', 'key': 'i', 'origWidth': 410, 'origHeight': 411, 'width': 410, 'height': 411, 'widthPercent': 0.45, 'rescaleHeight': False, 'trialN': 13, 'loaded': True, 'loadedTime': 4038.39999999851, 'positionName': 'RIGHT', 'positionCoords': [998.4, 334.5], 'bid': 6.84}]",18235.80000000447,1669829769855,blackbeanswithrice,lox,7.0,6.84,-0.16000000000000014,blackbeanswithrice,87.29999999701977,88,87.59999999403954,True,u,18827.39999999851,591.5999999940395,1669829770447,592,HRV,HRV_0052,2022-11-30 17:38:16
14,"[{'imgObject': {}, 'id': 'hotdog w must', 'src': '/static/foodstim60/hotdog w must.jpg', 'key': 'u', 'origWidth': 409, 'origHeight': 409, 'width': 409, 'height': 409, 'widthPercent': 0.45, 'rescaleHeight': False, 'trialN': 14, 'loaded': True, 'loadedTime': 4048.60000000149, 'positionName': 'LEFT', 'positionCoords': [512.6, 335.5], 'bid': 2.85}, {'imgObject': {}, 'id': 'yogurt no spoon', 'src': '/static/foodstim60/yogurt no spoon.jpg', 'key': 'i', 'origWidth': 411, 'origHeight': 410, 'width': 411, 'height': 410, 'widthPercent': 0.45, 'rescaleHeight': False, 'trialN': 14, 'loaded': True, 'loadedTime': 4061.7000000029802, 'positionName': 'RIGHT', 'positionCoords': [998.4, 335], 'bid': 5.25}]",18827.80000000447,1669829770447,hotdog w must,yogurt no spoon,2.85,5.25,2.4,hotdog w must,135.29999999701977,136,135.59999999403954,True,u,19468.5,640.6999999955297,1669829771088,641,HRV,HRV_0052,2022-11-30 17:38:16
15,"[{'imgObject': {}, 'id': 'hashbrowns', 'src': '/static/foodstim60/hashbrowns.jpg', 'key': 'u', 'origWidth': 411, 'origHeight': 410, 'width': 411, 'height': 410, 'widthPercent': 0.45, 'rescaleHeight': False, 'trialN': 15, 'loaded': True, 'loadedTime': 4082.10000000149, 'positionName': 'LEFT', 'positionCoords': [510.6, 335], 'bid': 7.36}, {'imgObject': {}, 'id': 'lox', 'src': '/static/foodstim60/lox.jpg', 'key': 'i', 'origWidth': 410, 'origHeight': 411, 'width': 410, 'height': 411, 'widthPercent': 0.45, 'rescaleHeight': False, 'trialN': 15, 'loaded': True, 'loadedTime': 4038.60000000149, 'positionName': 'RIGHT', 'positionCoords': [998.4, 334.5], 'bid': 6.84}]",19468.80000000447,1669829771088,hashbrowns,lox,7.36,6.84,-0.5200000000000005,lox,22.399999998509884,23,22.799999997019768,True,i,19995.20000000298,526.3999999985099,1669829771615,527,HRV,HRV_0052,2022-11-30 17:38:16
16,"[{'imgObject': {}, 'id': 'rigatoni and sauce', 'src': '/static/foodstim60/rigatoni and sauce.jpg', 'key': 'u', 'origWidth': 410, 'origHeight': 411, 'width': 410, 'height': 411, 'widthPercent': 0.45, 'rescaleHeight': False, 'trialN': 16, 'loaded': True, 'loadedTime': 4090.8000000044703, 'positionName': 'LEFT', 'positionCoords': [511.6, 334.5], 'bid': 8.6}, {'imgObject': {}, 'id': 'Tribe humus pita', 'src': '/static/foodstim60/Tribe humus pita.jpg', 'key': 'i', 'origWidth': 411, 'origHeight': 411, 'width': 411, 'height': 411, 'widthPercent': 0.45, 'rescaleHeight': False, 'trialN': 16, 'loaded': True, 'loadedTime': 4108.10000000149, 'positionName': 'RIGHT', 'positionCoords': [998.4, 334.5], 'bid': 8.5}]",19995.60000000149,1669829771615,rigatoni and sauce,Tribe humus pita,8.6,8.5,-0.09999999999999964,rigatoni and sauce,87.39999999850988,88,87.70000000298023,True,u,20587.39999999851,591.7999999970198,1669829772207,592,HRV,HRV_0052,2022-11-30 17:38:16
17,"[{'imgObject': {}, 'id': 'eggs', 'src': '/static/foodstim60/eggs.jpg', 'key': 'u', 'origWidth': 409, 'origHeight': 409, 'width': 409, 'height': 409, 'widthPercent': 0.45, 'rescaleHeight': False, 'trialN': 17, 'loaded': True, 'loadedTime': 4116.60000000149, 'positionName': 'LEFT', 'positionCoords': [512.6, 335.5], 'bid': 5.3500000000000005}, {'imgObject': {}, 'id': 'raisin bran w milk', 'src': '/static/foodstim60/raisin bran w milk.jpg', 'key': 'i', 'origWidth': 411, 'origHeight': 411, 'width': 411, 'height': 411, 'widthPercent': 0.45, 'rescaleHeight': False, 'trialN': 17, 'loaded': True, 'loadedTime': 4122.10000000149, 'positionName': 'RIGHT', 'positionCoords': [998.4, 334.5], 'bid': 7.82}]",20587.60000000149,1669829772207,eggs,raisin bran w milk,5.3500000000000005,7.82,2.4699999999999998,raisin bran w milk,47.600000001490116,48,48.0,True,i,21147.10000000149,559.5,1669829772767,560,HRV,HRV_0052,2022-11-30 17:38:16
18,"[{'imgObject': {}, 'id': 'granola w milk', 'src': '/static/foodstim60/granola w milk.jpg', 'key': 'u', 'origWidth': 410, 'origHeight': 410, 'width': 410, 'height': 410, 'widthPercent': 0.45, 'rescaleHeight': False, 'trialN': 18, 'loaded': True, 'loadedTime': 4354, 'positionName': 'LEFT', 'positionCoords': [511.6, 335], 'bid': 7.84}, {'imgObject': {}, 'id': 'shreddedwheatwithmilk', 'src': '/static/foodstim60/shreddedwheatwithmilk.jpg', 'key': 'i', 'origWidth': 410, 'origHeight': 410, 'width': 410, 'height': 410, 'widthPercent': 0.45, 'rescaleHeight': False, 'trialN': 18, 'loaded': True, 'loadedTime': 4127.60000000149, 'positionName': 'RIGHT', 'positionCoords': [998.4, 335], 'bid': 7.97}]",21147.39999999851,1669829772767,granola w milk,shreddedwheatwithmilk,7.84,7.97,0.1299999999999999,granola w milk,88.80000000447035,89,89.20000000298023,True,u,21744.30000000447,596.9000000059605,1669829773364,597,HRV,HRV_0052,2022-11-30 17:38:16
19,"[{'imgObject': {}, 'id': 'ice cream sundae 002', 'src': '/static/foodstim60/ice cream sundae 002.jpg', 'key': 'u', 'origWidth': 409, 'origHeight': 409, 'width': 409, 'height': 409, 'widthPercent': 0.45, 'rescaleHeight': False, 'trialN': 19, 'loaded': True, 'loadedTime': 4144.5, 'positionName': 'LEFT', 'positionCoords': [512.6, 335.5], 'bid': 8.3}, {'imgObject': {}, 'id': 'mac & cheese', 'src': '/static/foodstim60/mac & cheese.jpg', 'key': 'i', 'origWidth': 410, 'origHeight': 410, 'width': 410, 'height': 410, 'widthPercent': 0.45, 'rescaleHeight': False, 'trialN': 19, 'loaded': True, 'loadedTime': 4154.89999999851, 'positionName': 'RIGHT', 'positionCoords': [998.4, 335], 'bid': 9.61}]",21744.5,1669829773364,ice cream sundae 002,mac & cheese,8.3,9.61,1.3099999999999987,mac & cheese,2.7000000029802322,4,3.7000000029802322,True,i,22250.80000000447,506.30000000447035,1669829773870,506,HRV,HRV_0052,2022-11-30 17:38:16
20,"[{'imgObject': {}, 'id': 'corn cob', 'src': '/static/foodstim60/corn cob.jpg', 'key': 'u', 'origWidth': 411, 'origHeight': 411, 'width': 411, 'height': 411, 'widthPercent': 0.45, 'rescaleHeight': False, 'trialN': 20, 'loaded': True, 'loadedTime': 3988.39999999851, 'positionName': 'LEFT', 'positionCoords': [510.6, 334.5], 'bid': 6.82}, {'imgObject': {}, 'id': 'popsicles', 'src': '/static/foodstim60/popsicles.jpg', 'key': 'i', 'origWidth': 410, 'origHeight': 410, 'width': 410, 'height': 410, 'widthPercent': 0.45, 'rescaleHeight': False, 'trialN': 20, 'loaded': True, 'loadedTime': 4380.5, 'positionName': 'RIGHT', 'positionCoords': [998.4, 335], 'bid': 9.05}]",22251.0,1669829773871,corn cob,popsicles,6.82,9.05,2.2300000000000004,popsicles,24.200000002980232,24,24.600000001490116,True,i,22783.20000000298,532.2000000029802,1669829774403,532,HRV,HRV_0052,2022-11-30 17:38:16
21,"[{'imgObject': {}, 'id': 'baked potato', 'src': '/static/foodstim60/baked potato.jpg', 'key': 'u', 'origWidth': 409, 'origHeight': 410, 'width': 409, 'height': 410, 'widthPercent': 0.45, 'rescaleHeight': False, 'trialN': 21, 'loaded': True, 'loadedTime': 4160.39999999851, 'positionName': 'LEFT', 'positionCoords': [512.6, 335], 'bid': 7.59}, {'imgObject': {}, 'id': 'strawberries', 'src': '/static/foodstim60/strawberries.jpg', 'key': 'i', 'origWidth': 410, 'origHeight': 410, 'width': 410, 'height': 410, 'widthPercent': 0.45, 'rescaleHeight': False, 'trialN': 21, 'loaded': True, 'loadedTime': 4167.80000000447, 'positionName': 'RIGHT', 'positionCoords': [998.4, 335], 'bid': 7.77}]",22783.5,1669829774403,baked potato,strawberries,7.59,7.77,0.17999999999999972,baked potato,35.600000001490116,36,35.899999998509884,True,u,23335.30000000447,551.8000000044703,1669829774955,552,HRV,HRV_0052,2022-11-30 17:38:16
22,"[{'imgObject': {}, 'id': 'mashed potato', 'src': '/static/foodstim60/mashed potato.jpg', 'key': 'u', 'origWidth': 409, 'origHeight': 409, 'width': 409, 'height': 409, 'widthPercent': 0.45, 'rescaleHeight': False, 'trialN': 22, 'loaded': True, 'loadedTime': 4168.10000000149, 'positionName': 'LEFT', 'positionCoords': [512.6, 335.5], 'bid': 2.13}, {'imgObject': {}, 'id': 'burrito', 'src': '/static/foodstim60/burrito.jpg', 'key': 'i', 'origWidth': 410, 'origHeight': 410, 'width': 410, 'height': 410, 'widthPercent': 0.45, 'rescaleHeight': False, 'trialN': 22, 'loaded': True, 'loadedTime': 4180.80000000447, 'positionName': 'RIGHT', 'positionCoords': [998.4, 335], 'bid': 3.29}]",23335.39999999851,1669829774955,mashed potato,burrito,2.13,3.29,1.1600000000000001,burrito,51.900000005960464,52,52.30000000447035,True,i,23901.80000000447,566.4000000059605,1669829775521,566,HRV,HRV_0052,2022-11-30 17:38:16
23,"[{'imgObject': {}, 'id': 'chicken nuggets2', 'src': '/static/foodstim60/chicken nuggets2.jpg', 'key': 'u', 'origWidth': 410, 'origHeight': 409, 'width': 410, 'height': 409, 'widthPercent': 0.45, 'rescaleHeight': False, 'trialN': 23, 'loaded': True, 'loadedTime': 4194, 'positionName': 'LEFT', 'positionCoords': [511.6, 335.5], 'bid': 8.89}, {'imgObject': {}, 'id': 'blueberries', 'src': '/static/foodstim60/blueberries.jpg', 'key': 'i', 'origWidth': 411, 'origHeight': 411, 'width': 411, 'height': 411, 'widthPercent': 0.45, 'rescaleHeight': False, 'trialN': 23, 'loaded': True, 'loadedTime': 3973.89999999851, 'positionName': 'RIGHT', 'positionCoords': [998.4, 334.5], 'bid': 8.4}]",23902.0,1669829775522,chicken nuggets2,blueberries,8.89,8.4,-0.4900000000000002,chicken nuggets2,61.100000001490116,61,61.600000001490116,True,u,24477.5,575.5,1669829776097,575,HRV,HRV_0052,2022-11-30 17:38:16
24,"[{'imgObject': {}, 'id': 'banana', 'src': '/static/foodstim60/banana.jpg', 'key': 'u', 'origWidth': 410, 'origHeight': 410, 'width': 410, 'height': 410, 'widthPercent': 0.45, 'rescaleHeight': False, 'trialN': 24, 'loaded': True, 'loadedTime': 4204, 'positionName': 'LEFT', 'positionCoords': [511.6, 335], 'bid': 2.86}, {'imgObject': {}, 'id': 'eggs', 'src': '/static/foodstim60/eggs.jpg', 'key': 'i', 'origWidth': 409, 'origHeight': 409, 'width': 409, 'height': 409, 'widthPercent': 0.45, 'rescaleHeight': False, 'trialN': 24, 'loaded': True, 'loadedTime': 4115.80000000447, 'positionName': 'RIGHT', 'positionCoords': [998.4, 335.5], 'bid': 5.3500000000000005}]",24477.60000000149,1669829776097,banana,eggs,2.86,5.3500000000000005,2.4900000000000007,eggs,45.5,46,46.0,True,i,25038.5,560.8999999985099,1669829776658,561,HRV,HRV_0052,2022-11-30 17:38:16
25,"[{'imgObject': {}, 'id': 'avocado', 'src': '/static/foodstim60/avocado.jpg', 'key': 'u', 'origWidth': 409, 'origHeight': 409, 'width': 409, 'height': 409, 'widthPercent': 0.45, 'rescaleHeight': False, 'trialN': 25, 'loaded': True, 'loadedTime': 4135.80000000447, 'positionName': 'LEFT', 'positionCoords': [512.6, 335.5], 'bid': 7.98}, {'imgObject': {}, 'id': 'tacos', 'src': '/static/foodstim60/tacos.jpg', 'key': 'i', 'origWidth': 411, 'origHeight': 411, 'width': 411, 'height': 411, 'widthPercent': 0.45, 'rescaleHeight': False, 'trialN': 25, 'loaded': True, 'loadedTime': 4214.30000000447, 'positionName': 'RIGHT', 'positionCoords': [998.4, 334.5], 'bid': 8.84}]",25038.60000000149,1669829776658,avocado,tacos,7.98,8.84,0.8599999999999994,tacos,28.600000001490116,29,28.899999998509884,True,i,25579.39999999851,540.7999999970198,1669829777199,541,HRV,HRV_0052,2022-11-30 17:38:16
26,"[{'imgObject': {}, 'id': 'bagel and cc', 'src': '/static/foodstim60/bagel and cc.jpg', 'key': 'u', 'origWidth': 410, 'origHeight': 410, 'width': 410, 'height': 410, 'widthPercent': 0.45, 'rescaleHeight': False, 'trialN': 26, 'loaded': True, 'loadedTime': 4224.60000000149, 'positionName': 'LEFT', 'positionCoords': [511.6, 335], 'bid': 3.27}, {'imgObject': {}, 'id': 'turkey sandwich', 'src': '/static/foodstim60/turkey sandwich.jpg', 'key': 'i', 'origWidth': 409, 'origHeight': 409, 'width': 409, 'height': 409, 'widthPercent': 0.45, 'rescaleHeight': False, 'trialN': 26, 'loaded': True, 'loadedTime': 4232.10000000149, 'positionName': 'RIGHT', 'positionCoords': [998.4, 335.5], 'bid': 4.66}]",25579.60000000149,1669829777199,bagel and cc,turkey sandwich,3.27,4.66,1.3900000000000001,bagel and cc,87.5,88,87.89999999850988,True,u,26172.30000000447,592.7000000029802,1669829777792,593,HRV,HRV_0052,2022-11-30 17:38:16
27,"[{'imgObject': {}, 'id': 'bagel and cc', 'src': '/static/foodstim60/bagel and cc.jpg', 'key': 'u', 'origWidth': 410, 'origHeight': 410, 'width': 410, 'height': 410, 'widthPercent': 0.45, 'rescaleHeight': False, 'trialN': 27, 'loaded': True, 'loadedTime': 4231.20000000298, 'positionName': 'LEFT', 'positionCoords': [511.6, 335], 'bid': 3.27}, {'imgObject': {}, 'id': 'raspberries', 'src': '/static/foodstim60/raspberries.jpg', 'key': 'i', 'origWidth': 411, 'origHeight': 411, 'width': 411, 'height': 411, 'widthPercent': 0.45, 'rescaleHeight': False, 'trialN': 27, 'loaded': True, 'loadedTime': 3957.7000000029802, 'positionName': 'RIGHT', 'positionCoords': [998.4, 334.5], 'bid': 3.38}]",26172.5,1669829777792,bagel and cc,raspberries,3.27,3.38,0.10999999999999988,raspberries,150.39999999850988,151,150.70000000298023,True,i,26837.5,665.0,1669829778457,665,HRV,HRV_0052,2022-11-30 17:38:16
28,"[{'imgObject': {}, 'id': 'lox', 'src': '/static/foodstim60/lox.jpg', 'key': 'u', 'origWidth': 410, 'origHeight': 411, 'width': 410, 'height': 411, 'widthPercent': 0.45, 'rescaleHeight': False, 'trialN': 28, 'loaded': True, 'loadedTime': 4037.10000000149, 'positionName': 'LEFT', 'positionCoords': [511.6, 334.5], 'bid': 6.84}, {'imgObject': {}, 'id': 'corn cob', 'src': '/static/foodstim60/corn cob.jpg', 'key': 'i', 'origWidth': 411, 'origHeight': 411, 'width': 411, 'height': 411, 'widthPercent': 0.45, 'rescaleHeight': False, 'trialN': 28, 'loaded': True, 'loadedTime': 3983.2000000029802, 'positionName': 'RIGHT', 'positionCoords': [998.4, 334.5], 'bid': 6.82}]",26837.60000000149,1669829778457,lox,corn cob,6.84,6.82,-0.019999999999999574,corn cob,69.5,70,70.0,True,i,27416.39999999851,578.7999999970198,1669829779036,579,HRV,HRV_0052,2022-11-30 17:38:16
29,"[{'imgObject': {}, 'id': 'eggs', 'src': '/static/foodstim60/eggs.jpg', 'key': 'u', 'origWidth': 409, 'origHeight': 409, 'width': 409, 'height': 409, 'widthPercent': 0.45, 'rescaleHeight': False, 'trialN': 29, 'loaded': True, 'loadedTime': 4109.39999999851, 'positionName': 'LEFT', 'positionCoords': [512.6, 335.5], 'bid': 5.3500000000000005}, {'imgObject': {}, 'id': 'pear', 'src': '/static/foodstim60/pear.jpg', 'key': 'i', 'origWidth': 411, 'origHeight': 410, 'width': 411, 'height': 410, 'widthPercent': 0.45, 'rescaleHeight': False, 'trialN': 29, 'loaded': True, 'loadedTime': 4369.30000000447, 'positionName': 'RIGHT', 'positionCoords': [998.4, 335], 'bid': 6.2}]",27416.60000000149,1669829779036,eggs,pear,5.3500000000000005,6.2,0.8499999999999996,pear,11.700000002980232,13,12.600000001490116,True,i,27944.20000000298,527.6000000014901,1669829779564,528,HRV,HRV_0052,2022-11-30 17:38:16
30,"[{'imgObject': {}, 'id': 'mashed potato', 'src': '/static/foodstim60/mashed potato.jpg', 'key': 'u', 'origWidth': 409, 'origHeight': 409, 'width': 409, 'height': 409, 'widthPercent': 0.45, 'rescaleHeight': False, 'trialN': 30, 'loaded': True, 'loadedTime': 4179.30000000447, 'positionName': 'LEFT', 'positionCoords': [512.6, 335.5], 'bid': 2.13}, {'imgObject': {}, 'id': 'olives', 'src': '/static/foodstim60/olives.jpg', 'key': 'i', 'origWidth': 410, 'origHeight': 410, 'width': 410, 'height': 410, 'widthPercent': 0.45, 'rescaleHeight': False, 'trialN': 30, 'loaded': True, 'loadedTime': 4010.10000000149, 'positionName': 'RIGHT', 'positionCoords': [998.4, 335], 'bid': 2.19}]",27944.5,1669829779564,mashed potato,olives,2.13,2.19,0.06000000000000005,mashed potato,146.5,147,146.80000000447035,True,u,28600.20000000298,655.7000000029802,1669829780220,656,HRV,HRV_0052,2022-11-30 17:38:16
31,"[{'imgObject': {}, 'id': 'rigatoni and sauce', 'src': '/static/foodstim60/rigatoni and sauce.jpg', 'key': 'u', 'origWidth': 410, 'origHeight': 411, 'width': 410, 'height': 411, 'widthPercent': 0.45, 'rescaleHeight': False, 'trialN': 31, 'loaded': True, 'loadedTime': 4090.39999999851, 'positionName': 'LEFT', 'positionCoords': [511.6, 334.5], 'bid': 8.6}, {'imgObject': {}, 'id': 'mango', 'src': '/static/foodstim60/mango.jpg', 'key': 'i', 'origWidth': 411, 'origHeight': 411, 'width': 411, 'height': 411, 'widthPercent': 0.45, 'rescaleHeight': False, 'trialN': 31, 'loaded': True, 'loadedTime': 3948.5, 'positionName': 'RIGHT', 'positionCoords': [998.4, 334.5], 'bid': 6.640000000000001}]",28600.39999999851,1669829780220,rigatoni and sauce,mango,8.6,6.640000000000001,-1.959999999999999,mango,82.70000000298023,83,83.0,True,i,29187.20000000298,586.8000000044703,1669829780807,587,HRV,HRV_0052,2022-11-30 17:38:16
32,"[{'imgObject': {}, 'id': 'steak', 'src': '/static/foodstim60/steak.jpg', 'key': 'u', 'origWidth': 410, 'origHeight': 410, 'width': 410, 'height': 410, 'widthPercent': 0.45, 'rescaleHeight': False, 'trialN': 32, 'loaded': True, 'loadedTime': 4243.60000000149, 'positionName': 'LEFT', 'positionCoords': [511.6, 335], 'bid': 6.65}, {'imgObject': {}, 'id': 'edamame', 'src': '/static/foodstim60/edamame.jpg', 'key': 'i', 'origWidth': 409, 'origHeight': 410, 'width': 409, 'height': 410, 'widthPercent': 0.45, 'rescaleHeight': False, 'trialN': 32, 'loaded': True, 'loadedTime': 4259.70000000298, 'positionName': 'RIGHT', 'positionCoords': [998.4, 335], 'bid': 8.61}]",29187.5,1669829780807,steak,edamame,6.65,8.61,1.959999999999999,steak,119.39999999850988,120,119.70000000298023,True,u,29817.39999999851,629.8999999985099,1669829781437,630,HRV,HRV_0052,2022-11-30 17:38:16
33,"[{'imgObject': {}, 'id': 'cantaloupe', 'src': '/static/foodstim60/cantaloupe.jpg', 'key': 'u', 'origWidth': 409, 'origHeight': 409, 'width': 409, 'height': 409, 'widthPercent': 0.45, 'rescaleHeight': False, 'trialN': 33, 'loaded': True, 'loadedTime': 4347.39999999851, 'positionName': 'LEFT', 'positionCoords': [512.6, 335.5], 'bid': 7.42}, {'imgObject': {}, 'id': 'roastedpotatoes', 'src': '/static/foodstim60/roastedpotatoes.jpg', 'key': 'i', 'origWidth': 409, 'origHeight': 410, 'width': 409, 'height': 410, 'widthPercent': 0.45, 'rescaleHeight': False, 'trialN': 33, 'loaded': True, 'loadedTime': 4272.70000000298, 'positionName': 'RIGHT', 'positionCoords': [998.4, 335], 'bid': 7.48}]",29817.60000000149,1669829781437,cantaloupe,roastedpotatoes,7.42,7.48,0.0600000000000005,roastedpotatoes,33.5,34,33.79999999701977,True,i,30360.89999999851,543.2999999970198,1669829781981,544,HRV,HRV_0052,2022-11-30 17:38:16
34,"[{'imgObject': {}, 'id': 'baked potato', 'src': '/static/foodstim60/baked potato.jpg', 'key': 'u', 'origWidth': 409, 'origHeight': 410, 'width': 409, 'height': 410, 'widthPercent': 0.45, 'rescaleHeight': False, 'trialN': 34, 'loaded': True, 'loadedTime': 4155.10000000149, 'positionName': 'LEFT', 'positionCoords': [512.6, 335], 'bid': 7.59}, {'imgObject': {}, 'id': 'seaweed', 'src': '/static/foodstim60/seaweed.jpg', 'key': 'i', 'origWidth': 410, 'origHeight': 410, 'width': 410, 'height': 410, 'widthPercent': 0.45, 'rescaleHeight': False, 'trialN': 34, 'loaded': True, 'loadedTime': 4279.10000000149, 'positionName': 'RIGHT', 'positionCoords': [998.4, 335], 'bid': 8.32}]",30361.10000000149,1669829781981,baked potato,seaweed,7.59,8.32,0.7300000000000004,baked potato,65.70000000298023,66,66.10000000149012,True,u,30946.30000000447,585.2000000029802,1669829782566,585,HRV,HRV_0052,2022-11-30 17:38:16
35,"[{'imgObject': {}, 'id': 'hotdog w must', 'src': '/static/foodstim60/hotdog w must.jpg', 'key': 'u', 'origWidth': 409, 'origHeight': 409, 'width': 409, 'height': 409, 'widthPercent': 0.45, 'rescaleHeight': False, 'trialN': 35, 'loaded': True, 'loadedTime': 4048.89999999851, 'positionName': 'LEFT', 'positionCoords': [512.6, 335.5], 'bid': 2.85}, {'imgObject': {}, 'id': 'fried eggs', 'src': '/static/foodstim60/fried eggs.jpg', 'key': 'i', 'origWidth': 410, 'origHeight': 410, 'width': 410, 'height': 410, 'widthPercent': 0.45, 'rescaleHeight': False, 'trialN': 35, 'loaded': True, 'loadedTime': 3916.8000000044703, 'positionName': 'RIGHT', 'positionCoords': [998.4, 335], 'bid': 5.89}]",30946.60000000149,1669829782566,hotdog w must,fried eggs,2.85,5.89,3.0399999999999996,hotdog w must,128.10000000149012,129,128.5,True,u,31585.30000000447,638.7000000029802,1669829783205,639,HRV,HRV_0052,2022-11-30 17:38:16
36,"[{'imgObject': {}, 'id': 'avocado', 'src': '/static/foodstim60/avocado.jpg', 'key': 'u', 'origWidth': 409, 'origHeight': 409, 'width': 409, 'height': 409, 'widthPercent': 0.45, 'rescaleHeight': False, 'trialN': 36, 'loaded': True, 'loadedTime': 4139.60000000149, 'positionName': 'LEFT', 'positionCoords': [512.6, 335.5], 'bid': 7.98}, {'imgObject': {}, 'id': 'blackbeanswithrice', 'src': '/static/foodstim60/blackbeanswithrice.jpg', 'key': 'i', 'origWidth': 410, 'origHeight': 410, 'width': 410, 'height': 410, 'widthPercent': 0.45, 'rescaleHeight': False, 'trialN': 36, 'loaded': True, 'loadedTime': 4021.5, 'positionName': 'RIGHT', 'positionCoords': [998.4, 335], 'bid': 7}]",31585.5,1669829783205,avocado,blackbeanswithrice,7.98,7.0,-0.9800000000000004,blackbeanswithrice,113.39999999850988,114,113.80000000447035,True,i,32211.10000000149,625.6000000014901,1669829783831,626,HRV,HRV_0052,2022-11-30 17:38:16
37,"[{'imgObject': {}, 'id': 'banana', 'src': '/static/foodstim60/banana.jpg', 'key': 'u', 'origWidth': 410, 'origHeight': 410, 'width': 410, 'height': 410, 'widthPercent': 0.45, 'rescaleHeight': False, 'trialN': 37, 'loaded': True, 'loadedTime': 4203.89999999851, 'positionName': 'LEFT', 'positionCoords': [511.6, 335], 'bid': 2.86}, {'imgObject': {}, 'id': 'olives', 'src': '/static/foodstim60/olives.jpg', 'key': 'i', 'origWidth': 410, 'origHeight': 410, 'width': 410, 'height': 410, 'widthPercent': 0.45, 'rescaleHeight': False, 'trialN': 37, 'loaded': True, 'loadedTime': 4009.2000000029802, 'positionName': 'RIGHT', 'positionCoords': [998.4, 335], 'bid': 2.19}]",32211.30000000447,1669829783831,banana,olives,2.86,2.19,-0.6699999999999999,olives,47.69999999552965,48,48.099999994039536,True,i,32766.39999999851,555.0999999940395,1669829784386,555,HRV,HRV_0052,2022-11-30 17:38:16
38,"[{'imgObject': {}, 'id': 'salad w chicken', 'src': '/static/foodstim60/salad w chicken.jpg', 'key': 'u', 'origWidth': 411, 'origHeight': 411, 'width': 411, 'height': 411, 'widthPercent': 0.45, 'rescaleHeight': False, 'trialN': 38, 'loaded': True, 'loadedTime': 4286.5, 'positionName': 'LEFT', 'positionCoords': [510.6, 334.5], 'bid': 3.82}, {'imgObject': {}, 'id': 'banana', 'src': '/static/foodstim60/banana.jpg', 'key': 'i', 'origWidth': 410, 'origHeight': 410, 'width': 410, 'height': 410, 'widthPercent': 0.45, 'rescaleHeight': False, 'trialN': 38, 'loaded': True, 'loadedTime': 4204.39999999851, 'positionName': 'RIGHT', 'positionCoords': [998.4, 335], 'bid': 2.86}]",32766.70000000298,1669829784386,salad w chicken,banana,3.82,2.86,-0.96,banana,20.299999997019768,21,20.69999999552965,True,i,33295.30000000447,528.6000000014901,1669829784915,529,HRV,HRV_0052,2022-11-30 17:38:16
39,"[{'imgObject': {}, 'id': 'rigatoni', 'src': '/static/foodstim60/rigatoni.jpg', 'key': 'u', 'origWidth': 411, 'origHeight': 411, 'width': 411, 'height': 411, 'widthPercent': 0.45, 'rescaleHeight': False, 'trialN': 39, 'loaded': True, 'loadedTime': 4293.80000000447, 'positionName': 'LEFT', 'positionCoords': [510.6, 334.5], 'bid': 3.2}, {'imgObject': {}, 'id': 'bagel and cc', 'src': '/static/foodstim60/bagel and cc.jpg', 'key': 'i', 'origWidth': 410, 'origHeight': 410, 'width': 410, 'height': 410, 'widthPercent': 0.45, 'rescaleHeight': False, 'trialN': 39, 'loaded': True, 'loadedTime': 4231.89999999851, 'positionName': 'RIGHT', 'positionCoords': [998.4, 335], 'bid': 3.27}]",33295.60000000149,1669829784915,rigatoni,bagel and cc,3.2,3.27,0.06999999999999984,bagel and cc,83.10000000149012,84,83.5,True,i,33888.89999999851,593.2999999970198,1669829785509,594,HRV,HRV_0052,2022-11-30 17:38:16
40,"[{'imgObject': {}, 'id': 'ice cream sundae 002', 'src': '/static/foodstim60/ice cream sundae 002.jpg', 'key': 'u', 'origWidth': 409, 'origHeight': 409, 'width': 409, 'height': 409, 'widthPercent': 0.45, 'rescaleHeight': False, 'trialN': 40, 'loaded': True, 'loadedTime': 4140.60000000149, 'positionName': 'LEFT', 'positionCoords': [512.6, 335.5], 'bid': 8.3}, {'imgObject': {}, 'id': 'grilled chicken strips', 'src': '/static/foodstim60/grilled chicken strips.jpg', 'key': 'i', 'origWidth': 410, 'origHeight': 411, 'width': 410, 'height': 411, 'widthPercent': 0.45, 'rescaleHeight': False, 'trialN': 40, 'loaded': True, 'loadedTime': 4302, 'positionName': 'RIGHT', 'positionCoords': [998.4, 334.5], 'bid': 7.140000000000001}]",33889.10000000149,1669829785509,ice cream sundae 002,grilled chicken strips,8.3,7.140000000000001,-1.1600000000000001,ice cream sundae 002,26,26,26.399999998509884,True,u,34423.30000000447,534.2000000029802,1669829786043,534,HRV,HRV_0052,2022-11-30 17:38:16
41,"[{'imgObject': {}, 'id': 'chickenfingers', 'src': '/static/foodstim60/chickenfingers.jpg', 'key': 'u', 'origWidth': 410, 'origHeight': 410, 'width': 410, 'height': 410, 'widthPercent': 0.45, 'rescaleHeight': False, 'trialN': 41, 'loaded': True, 'loadedTime': 4367.5, 'positionName': 'LEFT', 'positionCoords': [511.6, 335], 'bid': 5.4}, {'imgObject': {}, 'id': 'apple slices', 'src': '/static/foodstim60/apple slices.jpg', 'key': 'i', 'origWidth': 409, 'origHeight': 410, 'width': 409, 'height': 410, 'widthPercent': 0.45, 'rescaleHeight': False, 'trialN': 41, 'loaded': True, 'loadedTime': 4004.10000000149, 'positionName': 'RIGHT', 'positionCoords': [998.4, 335], 'bid': 6.2}]",34423.60000000149,1669829786043,chickenfingers,apple slices,5.4,6.2,0.7999999999999998,apple slices,3,4,3.7999999970197678,True,i,34932.20000000298,508.6000000014901,1669829786552,509,HRV,HRV_0052,2022-11-30 17:38:16
42,"[{'imgObject': {}, 'id': 'cherries', 'src': '/static/foodstim60/cherries.jpg', 'key': 'u', 'origWidth': 410, 'origHeight': 411, 'width': 410, 'height': 411, 'widthPercent': 0.45, 'rescaleHeight': False, 'trialN': 42, 'loaded': True, 'loadedTime': 4303, 'positionName': 'LEFT', 'positionCoords': [511.6, 334.5], 'bid': 5.63}, {'imgObject': {}, 'id': 'mashed potato', 'src': '/static/foodstim60/mashed potato.jpg', 'key': 'i', 'origWidth': 409, 'origHeight': 409, 'width': 409, 'height': 409, 'widthPercent': 0.45, 'rescaleHeight': False, 'trialN': 42, 'loaded': True, 'loadedTime': 4178.39999999851, 'positionName': 'RIGHT', 'positionCoords': [998.4, 335.5], 'bid': 2.13}]",34932.39999999851,1669829786552,cherries,mashed potato,5.63,2.13,-3.5,mashed potato,38.30000000447035,39,38.600000001490116,True,i,35477.30000000447,544.9000000059605,1669829787097,545,HRV,HRV_0052,2022-11-30 17:38:16
43,"[{'imgObject': {}, 'id': 'grilled chicken strips', 'src': '/static/foodstim60/grilled chicken strips.jpg', 'key': 'u', 'origWidth': 410, 'origHeight': 411, 'width': 410, 'height': 411, 'widthPercent': 0.45, 'rescaleHeight': False, 'trialN': 43, 'loaded': True, 'loadedTime': 4301.89999999851, 'positionName': 'LEFT', 'positionCoords': [511.6, 334.5], 'bid': 7.140000000000001}, {'imgObject': {}, 'id': 'rigatoni', 'src': '/static/foodstim60/rigatoni.jpg', 'key': 'i', 'origWidth': 411, 'origHeight': 411, 'width': 411, 'height': 411, 'widthPercent': 0.45, 'rescaleHeight': False, 'trialN': 43, 'loaded': True, 'loadedTime': 4288.30000000447, 'positionName': 'RIGHT', 'positionCoords': [998.4, 334.5], 'bid': 3.2}]",35477.60000000149,1669829787097,grilled chicken strips,rigatoni,7.140000000000001,3.2,-3.9400000000000004,grilled chicken strips,93.39999999850988,94,93.70000000298023,True,u,36072.30000000447,594.7000000029802,1669829787692,595,HRV,HRV_0052,2022-11-30 17:38:16
44,"[{'imgObject': {}, 'id': 'omelette', 'src': '/static/foodstim60/omelette.jpg', 'key': 'u', 'origWidth': 410, 'origHeight': 409, 'width': 410, 'height': 409, 'widthPercent': 0.45, 'rescaleHeight': False, 'trialN': 44, 'loaded': True, 'loadedTime': 4304.30000000447, 'positionName': 'LEFT', 'positionCoords': [511.6, 335.5], 'bid': 7.6}, {'imgObject': {}, 'id': 'baked potato', 'src': '/static/foodstim60/baked potato.jpg', 'key': 'i', 'origWidth': 409, 'origHeight': 410, 'width': 409, 'height': 410, 'widthPercent': 0.45, 'rescaleHeight': False, 'trialN': 44, 'loaded': True, 'loadedTime': 4160.80000000447, 'positionName': 'RIGHT', 'positionCoords': [998.4, 335], 'bid': 7.59}]",36072.5,1669829787692,omelette,baked potato,7.6,7.59,-0.009999999999999787,omelette,2.2000000029802322,3,2.8000000044703484,True,u,36592.60000000149,520.1000000014901,1669829788212,520,HRV,HRV_0052,2022-11-30 17:38:16
45,"[{'imgObject': {}, 'id': 'chickenfingers', 'src': '/static/foodstim60/chickenfingers.jpg', 'key': 'u', 'origWidth': 410, 'origHeight': 410, 'width': 410, 'height': 410, 'widthPercent': 0.45, 'rescaleHeight': False, 'trialN': 45, 'loaded': True, 'loadedTime': 4367.30000000447, 'positionName': 'LEFT', 'positionCoords': [511.6, 335], 'bid': 5.4}, {'imgObject': {}, 'id': 'lox', 'src': '/static/foodstim60/lox.jpg', 'key': 'i', 'origWidth': 410, 'origHeight': 411, 'width': 410, 'height': 411, 'widthPercent': 0.45, 'rescaleHeight': False, 'trialN': 45, 'loaded': True, 'loadedTime': 4038.5, 'positionName': 'RIGHT', 'positionCoords': [998.4, 334.5], 'bid': 6.84}]",36592.89999999851,1669829788213,chickenfingers,lox,5.4,6.84,1.4399999999999995,lox,17.200000002980232,17,17.900000005960464,True,i,37112.39999999851,519.5,1669829788732,519,HRV,HRV_0052,2022-11-30 17:38:16
46,"[{'imgObject': {}, 'id': 'granola w milk', 'src': '/static/foodstim60/granola w milk.jpg', 'key': 'u', 'origWidth': 410, 'origHeight': 410, 'width': 410, 'height': 410, 'widthPercent': 0.45, 'rescaleHeight': False, 'trialN': 46, 'loaded': True, 'loadedTime': 4353.89999999851, 'positionName': 'LEFT', 'positionCoords': [511.6, 335], 'bid': 7.84}, {'imgObject': {}, 'id': 'cantaloupe', 'src': '/static/foodstim60/cantaloupe.jpg', 'key': 'i', 'origWidth': 409, 'origHeight': 409, 'width': 409, 'height': 409, 'widthPercent': 0.45, 'rescaleHeight': False, 'trialN': 46, 'loaded': True, 'loadedTime': 4347.60000000149, 'positionName': 'RIGHT', 'positionCoords': [998.4, 335.5], 'bid': 7.42}]",37112.89999999851,1669829788733,granola w milk,cantaloupe,7.84,7.42,-0.41999999999999993,cantaloupe,11.300000004470348,12,12.300000004470348,True,i,37642.20000000298,529.3000000044703,1669829789262,529,HRV,HRV_0052,2022-11-30 17:38:16
47,"[{'imgObject': {}, 'id': 'chickenfingers', 'src': '/static/foodstim60/chickenfingers.jpg', 'key': 'u', 'origWidth': 410, 'origHeight': 410, 'width': 410, 'height': 410, 'widthPercent': 0.45, 'rescaleHeight': False, 'trialN': 47, 'loaded': True, 'loadedTime': 4367, 'positionName': 'LEFT', 'positionCoords': [511.6, 335], 'bid': 5.4}, {'imgObject': {}, 'id': 'yogurt no spoon', 'src': '/static/foodstim60/yogurt no spoon.jpg', 'key': 'i', 'origWidth': 411, 'origHeight': 410, 'width': 411, 'height': 410, 'widthPercent': 0.45, 'rescaleHeight': False, 'trialN': 47, 'loaded': True, 'loadedTime': 4054.60000000149, 'positionName': 'RIGHT', 'positionCoords': [998.4, 335], 'bid': 5.25}]",37642.5,1669829789262,chickenfingers,yogurt no spoon,5.4,5.25,-0.15000000000000036,chickenfingers,72.30000000447035,73,72.60000000149012,True,u,38230.80000000447,588.3000000044703,1669829789850,588,HRV,HRV_0052,2022-11-30 17:38:16
48,"[{'imgObject': {}, 'id': 'steak', 'src': '/static/foodstim60/steak.jpg', 'key': 'u', 'origWidth': 410, 'origHeight': 410, 'width': 410, 'height': 410, 'widthPercent': 0.45, 'rescaleHeight': False, 'trialN': 48, 'loaded': True, 'loadedTime': 4245.70000000298, 'positionName': 'LEFT', 'positionCoords': [511.6, 335], 'bid': 6.65}, {'imgObject': {}, 'id': 'salad w chicken', 'src': '/static/foodstim60/salad w chicken.jpg', 'key': 'i', 'origWidth': 411, 'origHeight': 411, 'width': 411, 'height': 411, 'widthPercent': 0.45, 'rescaleHeight': False, 'trialN': 48, 'loaded': True, 'loadedTime': 4286.20000000298, 'positionName': 'RIGHT', 'positionCoords': [998.4, 334.5], 'bid': 3.82}]",38230.89999999851,1669829789851,steak,salad w chicken,6.65,3.82,-2.8300000000000005,salad w chicken,3.7000000029802322,4,4.100000001490116,True,i,38743.30000000447,512.4000000059605,1669829790363,512,HRV,HRV_0052,2022-11-30 17:38:16
49,"[{'imgObject': {}, 'id': 'froot loops w milk', 'src': '/static/foodstim60/froot loops w milk.jpg', 'key': 'u', 'origWidth': 410, 'origHeight': 410, 'width': 410, 'height': 410, 'widthPercent': 0.45, 'rescaleHeight': False, 'trialN': 49, 'loaded': True, 'loadedTime': 4311.70000000298, 'positionName': 'LEFT', 'positionCoords': [511.6, 335], 'bid': 3.87}, {'imgObject': {}, 'id': 'turkey sandwich', 'src': '/static/foodstim60/turkey sandwich.jpg', 'key': 'i', 'origWidth': 409, 'origHeight': 409, 'width': 409, 'height': 409, 'widthPercent': 0.45, 'rescaleHeight': False, 'trialN': 49, 'loaded': True, 'loadedTime': 4238.39999999851, 'positionName': 'RIGHT', 'positionCoords': [998.4, 335.5], 'bid': 4.66}]",38743.5,1669829790363,froot loops w milk,turkey sandwich,3.87,4.66,0.79,turkey sandwich,75.20000000298023,76,75.5,True,i,39336.80000000447,593.3000000044703,1669829790956,593,HRV,HRV_0052,2022-11-30 17:38:16
50,"[{'imgObject': {}, 'id': 'banana', 'src': '/static/foodstim60/banana.jpg', 'key': 'u', 'origWidth': 410, 'origHeight': 410, 'width': 410, 'height': 410, 'widthPercent': 0.45, 'rescaleHeight': False, 'trialN': 50, 'loaded': True, 'loadedTime': 4202.39999999851, 'positionName': 'LEFT', 'positionCoords': [511.6, 335], 'bid': 2.86}, {'imgObject': {}, 'id': 'hotdog w must', 'src': '/static/foodstim60/hotdog w must.jpg', 'key': 'i', 'origWidth': 409, 'origHeight': 409, 'width': 409, 'height': 409, 'widthPercent': 0.45, 'rescaleHeight': False, 'trialN': 50, 'loaded': True, 'loadedTime': 4049, 'positionName': 'RIGHT', 'positionCoords': [998.4, 335.5], 'bid': 2.85}]",39337.0,1669829790957,banana,hotdog w must,2.86,2.85,-0.009999999999999787,banana,34,34,34.30000000447035,True,u,39884.20000000298,547.2000000029802,1669829791504,547,HRV,HRV_0052,2022-11-30 17:38:16
51,"[{'imgObject': {}, 'id': 'Grapes', 'src': '/static/foodstim60/Grapes.jpg', 'key': 'u', 'origWidth': 411, 'origHeight': 411, 'width': 411, 'height': 411, 'widthPercent': 0.45, 'rescaleHeight': False, 'trialN': 51, 'loaded': True, 'loadedTime': 4313.30000000447, 'positionName': 'LEFT', 'positionCoords': [510.6, 334.5], 'bid': 7.41}, {'imgObject': {}, 'id': 'roastedpotatoes', 'src': '/static/foodstim60/roastedpotatoes.jpg', 'key': 'i', 'origWidth': 409, 'origHeight': 410, 'width': 409, 'height': 410, 'widthPercent': 0.45, 'rescaleHeight': False, 'trialN': 51, 'loaded': True, 'loadedTime': 4272.5, 'positionName': 'RIGHT', 'positionCoords': [998.4, 335], 'bid': 7.48}]",39884.70000000298,1669829791504,Grapes,roastedpotatoes,7.41,7.48,0.07000000000000028,Grapes,102.10000000149012,103,102.5,True,u,40491.0,606.2999999970198,1669829792111,607,HRV,HRV_0052,2022-11-30 17:38:16
52,"[{'imgObject': {}, 'id': 'salad w chicken', 'src': '/static/foodstim60/salad w chicken.jpg', 'key': 'u', 'origWidth': 411, 'origHeight': 411, 'width': 411, 'height': 411, 'widthPercent': 0.45, 'rescaleHeight': False, 'trialN': 52, 'loaded': True, 'loadedTime': 4280.70000000298, 'positionName': 'LEFT', 'positionCoords': [510.6, 334.5], 'bid': 3.82}, {'imgObject': {}, 'id': 'pear', 'src': '/static/foodstim60/pear.jpg', 'key': 'i', 'origWidth': 411, 'origHeight': 410, 'width': 411, 'height': 410, 'widthPercent': 0.45, 'rescaleHeight': False, 'trialN': 52, 'loaded': True, 'loadedTime': 4367.60000000149, 'positionName': 'RIGHT', 'positionCoords': [998.4, 335], 'bid': 6.2}]",40491.30000000447,1669829792111,salad w chicken,pear,3.82,6.2,2.3800000000000003,salad w chicken,15.599999994039536,16,16.0,True,u,41019.10000000149,527.7999999970198,1669829792639,528,HRV,HRV_0052,2022-11-30 17:38:16
53,"[{'imgObject': {}, 'id': 'hashbrowns', 'src': '/static/foodstim60/hashbrowns.jpg', 'key': 'u', 'origWidth': 411, 'origHeight': 410, 'width': 411, 'height': 410, 'widthPercent': 0.45, 'rescaleHeight': False, 'trialN': 53, 'loaded': True, 'loadedTime': 4082.2000000029802, 'positionName': 'LEFT', 'positionCoords': [510.6, 335], 'bid': 7.36}, {'imgObject': {}, 'id': 'grilled chicken strips', 'src': '/static/foodstim60/grilled chicken strips.jpg', 'key': 'i', 'origWidth': 410, 'origHeight': 411, 'width': 410, 'height': 411, 'widthPercent': 0.45, 'rescaleHeight': False, 'trialN': 53, 'loaded': True, 'loadedTime': 4302, 'positionName': 'RIGHT', 'positionCoords': [998.4, 334.5], 'bid': 7.140000000000001}]",41019.39999999851,1669829792639,hashbrowns,grilled chicken strips,7.36,7.140000000000001,-0.21999999999999975,grilled chicken strips,151.20000000298023,152,151.5,True,i,41687.39999999851,668.0,1669829793307,668,HRV,HRV_0052,2022-11-30 17:38:16
54,"[{'imgObject': {}, 'id': 'fruitsalad', 'src': '/static/foodstim60/fruitsalad.jpg', 'key': 'u', 'origWidth': 410, 'origHeight': 410, 'width': 410, 'height': 410, 'widthPercent': 0.45, 'rescaleHeight': False, 'trialN': 54, 'loaded': True, 'loadedTime': 4315.39999999851, 'positionName': 'LEFT', 'positionCoords': [511.6, 335], 'bid': 6.0600000000000005}, {'imgObject': {}, 'id': 'orange slices', 'src': '/static/foodstim60/orange slices.jpg', 'key': 'i', 'origWidth': 409, 'origHeight': 410, 'width': 409, 'height': 410, 'widthPercent': 0.45, 'rescaleHeight': False, 'trialN': 54, 'loaded': True, 'loadedTime': 4330.10000000149, 'positionName': 'RIGHT', 'positionCoords': [998.4, 335], 'bid': 8.14}]",41687.60000000149,1669829793307,fruitsalad,orange slices,6.0600000000000005,8.14,2.08,fruitsalad,27.399999998509884,28,27.700000002980232,True,u,42220.20000000298,532.6000000014901,1669829793840,533,HRV,HRV_0052,2022-11-30 17:38:16
55,"[{'imgObject': {}, 'id': 'shreddedwheatwithmilk', 'src': '/static/foodstim60/shreddedwheatwithmilk.jpg', 'key': 'u', 'origWidth': 410, 'origHeight': 410, 'width': 410, 'height': 410, 'widthPercent': 0.45, 'rescaleHeight': False, 'trialN': 55, 'loaded': True, 'loadedTime': 4131.5, 'positionName': 'LEFT', 'positionCoords': [511.6, 335], 'bid': 7.97}, {'imgObject': {}, 'id': 'roastedpotatoes', 'src': '/static/foodstim60/roastedpotatoes.jpg', 'key': 'i', 'origWidth': 409, 'origHeight': 410, 'width': 409, 'height': 410, 'widthPercent': 0.45, 'rescaleHeight': False, 'trialN': 55, 'loaded': True, 'loadedTime': 4277.30000000447, 'positionName': 'RIGHT', 'positionCoords': [998.4, 335], 'bid': 7.48}]",42220.5,1669829793840,shreddedwheatwithmilk,roastedpotatoes,7.97,7.48,-0.4899999999999993,roastedpotatoes,38.20000000298023,39,38.600000001490116,True,i,42762.30000000447,541.8000000044703,1669829794382,542,HRV,HRV_0052,2022-11-30 17:38:16
56,"[{'imgObject': {}, 'id': 'shreddedwheatwithmilk', 'src': '/static/foodstim60/shreddedwheatwithmilk.jpg', 'key': 'u', 'origWidth': 410, 'origHeight': 410, 'width': 410, 'height': 410, 'widthPercent': 0.45, 'rescaleHeight': False, 'trialN': 56, 'loaded': True, 'loadedTime': 4131.30000000447, 'positionName': 'LEFT', 'positionCoords': [511.6, 335], 'bid': 7.97}, {'imgObject': {}, 'id': 'cherries', 'src': '/static/foodstim60/cherries.jpg', 'key': 'i', 'origWidth': 410, 'origHeight': 411, 'width': 410, 'height': 411, 'widthPercent': 0.45, 'rescaleHeight': False, 'trialN': 56, 'loaded': True, 'loadedTime': 4303.30000000447, 'positionName': 'RIGHT', 'positionCoords': [998.4, 334.5], 'bid': 5.63}]",42762.5,1669829794382,shreddedwheatwithmilk,cherries,7.97,5.63,-2.34,cherries,72.30000000447035,73,72.70000000298023,True,i,43347.30000000447,584.8000000044703,1669829794967,585,HRV,HRV_0052,2022-11-30 17:38:16
57,"[{'imgObject': {}, 'id': 'tacos', 'src': '/static/foodstim60/tacos.jpg', 'key': 'u', 'origWidth': 411, 'origHeight': 411, 'width': 411, 'height': 411, 'widthPercent': 0.45, 'rescaleHeight': False, 'trialN': 57, 'loaded': True, 'loadedTime': 4211.80000000447, 'positionName': 'LEFT', 'positionCoords': [510.6, 334.5], 'bid': 8.84}, {'imgObject': {}, 'id': 'omelette', 'src': '/static/foodstim60/omelette.jpg', 'key': 'i', 'origWidth': 410, 'origHeight': 409, 'width': 410, 'height': 409, 'widthPercent': 0.45, 'rescaleHeight': False, 'trialN': 57, 'loaded': True, 'loadedTime': 4304.39999999851, 'positionName': 'RIGHT', 'positionCoords': [998.4, 335.5], 'bid': 7.6}]",43347.5,1669829794967,tacos,omelette,8.84,7.6,-1.2400000000000002,omelette,55.399999998509884,56,55.70000000298023,True,i,43914.30000000447,566.8000000044703,1669829795534,567,HRV,HRV_0052,2022-11-30 17:38:16
58,"[{'imgObject': {}, 'id': 'cherry tomato', 'src': '/static/foodstim60/cherry tomato.jpg', 'key': 'u', 'origWidth': 410, 'origHeight': 410, 'width': 410, 'height': 410, 'widthPercent': 0.45, 'rescaleHeight': False, 'trialN': 58, 'loaded': True, 'loadedTime': 3977.7000000029802, 'positionName': 'LEFT', 'positionCoords': [511.6, 335], 'bid': 6.94}, {'imgObject': {}, 'id': 'apple slices', 'src': '/static/foodstim60/apple slices.jpg', 'key': 'i', 'origWidth': 409, 'origHeight': 410, 'width': 409, 'height': 410, 'widthPercent': 0.45, 'rescaleHeight': False, 'trialN': 58, 'loaded': True, 'loadedTime': 4004.5, 'positionName': 'RIGHT', 'positionCoords': [998.4, 335], 'bid': 6.2}]",43914.5,1669829795534,cherry tomato,apple slices,6.94,6.2,-0.7400000000000002,apple slices,80.20000000298023,81,80.60000000149012,True,i,44506.30000000447,591.8000000044703,1669829796126,592,HRV,HRV_0052,2022-11-30 17:38:16
59,"[{'imgObject': {}, 'id': 'sweetpotato', 'src': '/static/foodstim60/sweetpotato.jpg', 'key': 'u', 'origWidth': 410, 'origHeight': 410, 'width': 410, 'height': 410, 'widthPercent': 0.45, 'rescaleHeight': False, 'trialN': 59, 'loaded': True, 'loadedTime': 4343.80000000447, 'positionName': 'LEFT', 'positionCoords': [511.6, 335], 'bid': 5.79}, {'imgObject': {}, 'id': 'fried eggs', 'src': '/static/foodstim60/fried eggs.jpg', 'key': 'i', 'origWidth': 410, 'origHeight': 410, 'width': 410, 'height': 410, 'widthPercent': 0.45, 'rescaleHeight': False, 'trialN': 59, 'loaded': True, 'loadedTime': 3925.10000000149, 'positionName': 'RIGHT', 'positionCoords': [998.4, 335], 'bid': 5.89}]",44506.5,1669829796126,sweetpotato,fried eggs,5.79,5.89,0.09999999999999964,fried eggs,56.30000000447035,57,56.70000000298023,True,i,45073.20000000298,566.7000000029802,1669829796693,567,HRV,HRV_0052,2022-11-30 17:38:16
60,"[{'imgObject': {}, 'id': 'cocktailshrimp', 'src': '/static/foodstim60/cocktailshrimp.jpg', 'key': 'u', 'origWidth': 410, 'origHeight': 410, 'width': 410, 'height': 410, 'widthPercent': 0.45, 'rescaleHeight': False, 'trialN': 60, 'loaded': True, 'loadedTime': 4224.30000000447, 'positionName': 'LEFT', 'positionCoords': [511.6, 335], 'bid': 8.03}, {'imgObject': {}, 'id': 'chicken nuggets2', 'src': '/static/foodstim60/chicken nuggets2.jpg', 'key': 'i', 'origWidth': 410, 'origHeight': 409, 'width': 410, 'height': 409, 'widthPercent': 0.45, 'rescaleHeight': False, 'trialN': 60, 'loaded': True, 'loadedTime': 4193.10000000149, 'positionName': 'RIGHT', 'positionCoords': [998.4, 335.5], 'bid': 8.89}]",45073.60000000149,1669829796693,cocktailshrimp,chicken nuggets2,8.03,8.89,0.8600000000000012,cocktailshrimp,25.200000002980232,26,25.600000001490116,True,u,45607.30000000447,533.7000000029802,1669829797227,534,HRV,HRV_0052,2022-11-30 17:38:16
61,"[{'imgObject': {}, 'id': 'bagel and cc', 'src': '/static/foodstim60/bagel and cc.jpg', 'key': 'u', 'origWidth': 410, 'origHeight': 410, 'width': 410, 'height': 410, 'widthPercent': 0.45, 'rescaleHeight': False, 'trialN': 61, 'loaded': True, 'loadedTime': 4231.80000000447, 'positionName': 'LEFT', 'positionCoords': [511.6, 335], 'bid': 3.27}, {'imgObject': {}, 'id': 'apple slices', 'src': '/static/foodstim60/apple slices.jpg', 'key': 'i', 'origWidth': 409, 'origHeight': 410, 'width': 409, 'height': 410, 'widthPercent': 0.45, 'rescaleHeight': False, 'trialN': 61, 'loaded': True, 'loadedTime': 4008.8000000044703, 'positionName': 'RIGHT', 'positionCoords': [998.4, 335], 'bid': 6.2}]",45607.5,1669829797227,bagel and cc,apple slices,3.27,6.2,2.93,apple slices,27.30000000447035,28,27.600000001490116,True,i,46138.80000000447,531.3000000044703,1669829797759,532,HRV,HRV_0052,2022-11-30 17:38:16
62,"[{'imgObject': {}, 'id': 'ice cream sundae 002', 'src': '/static/foodstim60/ice cream sundae 002.jpg', 'key': 'u', 'origWidth': 409, 'origHeight': 409, 'width': 409, 'height': 409, 'widthPercent': 0.45, 'rescaleHeight': False, 'trialN': 62, 'loaded': True, 'loadedTime': 4148.60000000149, 'positionName': 'LEFT', 'positionCoords': [512.6, 335.5], 'bid': 8.3}, {'imgObject': {}, 'id': 'orange slices', 'src': '/static/foodstim60/orange slices.jpg', 'key': 'i', 'origWidth': 409, 'origHeight': 410, 'width': 409, 'height': 410, 'widthPercent': 0.45, 'rescaleHeight': False, 'trialN': 62, 'loaded': True, 'loadedTime': 4329.5, 'positionName': 'RIGHT', 'positionCoords': [998.4, 335], 'bid': 8.14}]",46139.10000000149,1669829797759,ice cream sundae 002,orange slices,8.3,8.14,-0.16000000000000014,ice cream sundae 002,95.39999999850988,96,95.70000000298023,True,u,46739.0,599.8999999985099,1669829798359,600,HRV,HRV_0052,2022-11-30 17:38:16
63,"[{'imgObject': {}, 'id': 'edamame', 'src': '/static/foodstim60/edamame.jpg', 'key': 'u', 'origWidth': 409, 'origHeight': 410, 'width': 409, 'height': 410, 'widthPercent': 0.45, 'rescaleHeight': False, 'trialN': 63, 'loaded': True, 'loadedTime': 4271, 'positionName': 'LEFT', 'positionCoords': [512.6, 335], 'bid': 8.61}, {'imgObject': {}, 'id': 'Tribe humus pita', 'src': '/static/foodstim60/Tribe humus pita.jpg', 'key': 'i', 'origWidth': 411, 'origHeight': 411, 'width': 411, 'height': 411, 'widthPercent': 0.45, 'rescaleHeight': False, 'trialN': 63, 'loaded': True, 'loadedTime': 4101.20000000298, 'positionName': 'RIGHT', 'positionCoords': [998.4, 334.5], 'bid': 8.5}]",46739.20000000298,1669829798359,edamame,Tribe humus pita,8.61,8.5,-0.10999999999999943,Tribe humus pita,55.600000001490116,56,55.899999998509884,True,i,47299.0,559.7999999970198,1669829798919,560,HRV,HRV_0052,2022-11-30 17:38:16
64,"[{'imgObject': {}, 'id': 'veggieswithdip', 'src': '/static/foodstim60/veggieswithdip.jpg', 'key': 'u', 'origWidth': 409, 'origHeight': 409, 'width': 409, 'height': 409, 'widthPercent': 0.45, 'rescaleHeight': False, 'trialN': 64, 'loaded': True, 'loadedTime': 3995.7000000029802, 'positionName': 'LEFT', 'positionCoords': [512.6, 335.5], 'bid': 7.38}, {'imgObject': {}, 'id': 'burrito', 'src': '/static/foodstim60/burrito.jpg', 'key': 'i', 'origWidth': 410, 'origHeight': 410, 'width': 410, 'height': 410, 'widthPercent': 0.45, 'rescaleHeight': False, 'trialN': 64, 'loaded': True, 'loadedTime': 4181, 'positionName': 'RIGHT', 'positionCoords': [998.4, 335], 'bid': 3.29}]",47299.30000000447,1669829798919,veggieswithdip,burrito,7.38,3.29,-4.09,burrito,151.29999999701977,152,151.59999999403954,True,i,47962.20000000298,662.8999999985099,1669829799582,663,HRV,HRV_0052,2022-11-30 17:38:16
65,"[{'imgObject': {}, 'id': 'Tribe humus pita', 'src': '/static/foodstim60/Tribe humus pita.jpg', 'key': 'u', 'origWidth': 411, 'origHeight': 411, 'width': 411, 'height': 411, 'widthPercent': 0.45, 'rescaleHeight': False, 'trialN': 65, 'loaded': True, 'loadedTime': 4109.10000000149, 'positionName': 'LEFT', 'positionCoords': [510.6, 334.5], 'bid': 8.5}, {'imgObject': {}, 'id': 'kiwi', 'src': '/static/foodstim60/kiwi.jpg', 'key': 'i', 'origWidth': 410, 'origHeight': 410, 'width': 410, 'height': 410, 'widthPercent': 0.45, 'rescaleHeight': False, 'trialN': 65, 'loaded': True, 'loadedTime': 4050.2000000029802, 'positionName': 'RIGHT', 'positionCoords': [998.4, 335], 'bid': 6.61}]",47962.5,1669829799582,Tribe humus pita,kiwi,8.5,6.61,-1.8899999999999997,Tribe humus pita,32.100000001490116,33,32.5,True,u,48506.89999999851,544.3999999985099,1669829800127,545,HRV,HRV_0052,2022-11-30 17:38:16
66,"[{'imgObject': {}, 'id': 'avocado', 'src': '/static/foodstim60/avocado.jpg', 'key': 'u', 'origWidth': 409, 'origHeight': 409, 'width': 409, 'height': 409, 'widthPercent': 0.45, 'rescaleHeight': False, 'trialN': 66, 'loaded': True, 'loadedTime': 4139.5, 'positionName': 'LEFT', 'positionCoords': [512.6, 335.5], 'bid': 7.98}, {'imgObject': {}, 'id': 'sweetpotato', 'src': '/static/foodstim60/sweetpotato.jpg', 'key': 'i', 'origWidth': 410, 'origHeight': 410, 'width': 410, 'height': 410, 'widthPercent': 0.45, 'rescaleHeight': False, 'trialN': 66, 'loaded': True, 'loadedTime': 4343.70000000298, 'positionName': 'RIGHT', 'positionCoords': [998.4, 335], 'bid': 5.79}]",48507.20000000298,1669829800127,avocado,sweetpotato,7.98,5.79,-2.1900000000000004,avocado,183.39999999850988,184,183.69999999552965,True,u,49207.20000000298,700.0,1669829800827,700,HRV,HRV_0052,2022-11-30 17:38:16
67,"[{'imgObject': {}, 'id': 'salmon', 'src': '/static/foodstim60/salmon.jpg', 'key': 'u', 'origWidth': 410, 'origHeight': 409, 'width': 410, 'height': 409, 'widthPercent': 0.45, 'rescaleHeight': False, 'trialN': 67, 'loaded': True, 'loadedTime': 4343.89999999851, 'positionName': 'LEFT', 'positionCoords': [511.6, 335.5], 'bid': 8.700000000000001}, {'imgObject': {}, 'id': 'ice cream sundae 002', 'src': '/static/foodstim60/ice cream sundae 002.jpg', 'key': 'i', 'origWidth': 409, 'origHeight': 409, 'width': 409, 'height': 409, 'widthPercent': 0.45, 'rescaleHeight': False, 'trialN': 67, 'loaded': True, 'loadedTime': 4144.30000000447, 'positionName': 'RIGHT', 'positionCoords': [998.4, 335.5], 'bid': 8.3}]",49207.39999999851,1669829800827,salmon,ice cream sundae 002,8.700000000000001,8.3,-0.40000000000000036,ice cream sundae 002,91.40000000596046,92,91.70000000298023,True,i,49812.20000000298,604.8000000044703,1669829801432,605,HRV,HRV_0052,2022-11-30 17:38:16
68,"[{'imgObject': {}, 'id': 'sushi w_condiments', 'src': '/static/foodstim60/sushi w_condiments.jpg', 'key': 'u', 'origWidth': 410, 'origHeight': 410, 'width': 410, 'height': 410, 'widthPercent': 0.45, 'rescaleHeight': False, 'trialN': 68, 'loaded': True, 'loadedTime': 3965.5, 'positionName': 'LEFT', 'positionCoords': [511.6, 335], 'bid': 6.29}, {'imgObject': {}, 'id': 'mango', 'src': '/static/foodstim60/mango.jpg', 'key': 'i', 'origWidth': 411, 'origHeight': 411, 'width': 411, 'height': 411, 'widthPercent': 0.45, 'rescaleHeight': False, 'trialN': 68, 'loaded': True, 'loadedTime': 3948.8000000044703, 'positionName': 'RIGHT', 'positionCoords': [998.4, 334.5], 'bid': 6.640000000000001}]",49812.39999999851,1669829801432,sushi w_condiments,mango,6.29,6.640000000000001,0.35000000000000053,mango,102.20000000298023,103,102.5,True,i,50416.20000000298,603.8000000044703,1669829802036,604,HRV,HRV_0052,2022-11-30 17:38:16
69,"[{'imgObject': {}, 'id': 'mashed potato', 'src': '/static/foodstim60/mashed potato.jpg', 'key': 'u', 'origWidth': 409, 'origHeight': 409, 'width': 409, 'height': 409, 'widthPercent': 0.45, 'rescaleHeight': False, 'trialN': 69, 'loaded': True, 'loadedTime': 4169.20000000298, 'positionName': 'LEFT', 'positionCoords': [512.6, 335.5], 'bid': 2.13}, {'imgObject': {}, 'id': 'froot loops w milk', 'src': '/static/foodstim60/froot loops w milk.jpg', 'key': 'i', 'origWidth': 410, 'origHeight': 410, 'width': 410, 'height': 410, 'widthPercent': 0.45, 'rescaleHeight': False, 'trialN': 69, 'loaded': True, 'loadedTime': 4312.20000000298, 'positionName': 'RIGHT', 'positionCoords': [998.4, 335], 'bid': 3.87}]",50416.39999999851,1669829802036,mashed potato,froot loops w milk,2.13,3.87,1.7400000000000002,mashed potato,106.20000000298023,107,106.5,True,u,51028.5,612.1000000014901,1669829802648,612,HRV,HRV_0052,2022-11-30 17:38:16
70,"[{'imgObject': {}, 'id': 'pear', 'src': '/static/foodstim60/pear.jpg', 'key': 'u', 'origWidth': 411, 'origHeight': 410, 'width': 411, 'height': 410, 'widthPercent': 0.45, 'rescaleHeight': False, 'trialN': 70, 'loaded': True, 'loadedTime': 4369.39999999851, 'positionName': 'LEFT', 'positionCoords': [510.6, 335], 'bid': 6.2}, {'imgObject': {}, 'id': 'ice cream sundae 002', 'src': '/static/foodstim60/ice cream sundae 002.jpg', 'key': 'i', 'origWidth': 409, 'origHeight': 409, 'width': 409, 'height': 409, 'widthPercent': 0.45, 'rescaleHeight': False, 'trialN': 70, 'loaded': True, 'loadedTime': 4143.89999999851, 'positionName': 'RIGHT', 'positionCoords': [998.4, 335.5], 'bid': 8.3}]",51028.80000000447,1669829802648,pear,ice cream sundae 002,6.2,8.3,2.1000000000000005,ice cream sundae 002,149.69999999552965,151,150.0,True,i,51690.70000000298,661.8999999985099,1669829803310,662,HRV,HRV_0052,2022-11-30 17:38:16
71,"[{'imgObject': {}, 'id': 'raspberries', 'src': '/static/foodstim60/raspberries.jpg', 'key': 'u', 'origWidth': 411, 'origHeight': 411, 'width': 411, 'height': 411, 'widthPercent': 0.45, 'rescaleHeight': False, 'trialN': 71, 'loaded': True, 'loadedTime': 3957.89999999851, 'positionName': 'LEFT', 'positionCoords': [510.6, 334.5], 'bid': 3.38}, {'imgObject': {}, 'id': 'burrito', 'src': '/static/foodstim60/burrito.jpg', 'key': 'i', 'origWidth': 410, 'origHeight': 410, 'width': 410, 'height': 410, 'widthPercent': 0.45, 'rescaleHeight': False, 'trialN': 71, 'loaded': True, 'loadedTime': 4181, 'positionName': 'RIGHT', 'positionCoords': [998.4, 335], 'bid': 3.29}]",51691.10000000149,1669829803311,raspberries,burrito,3.38,3.29,-0.08999999999999986,raspberries,31.5,32,32.0,True,u,52238.60000000149,547.5,1669829803858,547,HRV,HRV_0052,2022-11-30 17:38:16
72,"[{'imgObject': {}, 'id': 'edamame', 'src': '/static/foodstim60/edamame.jpg', 'key': 'u', 'origWidth': 409, 'origHeight': 410, 'width': 409, 'height': 410, 'widthPercent': 0.45, 'rescaleHeight': False, 'trialN': 72, 'loaded': True, 'loadedTime': 4260.70000000298, 'positionName': 'LEFT', 'positionCoords': [512.6, 335], 'bid': 8.61}, {'imgObject': {}, 'id': 'granola w milk', 'src': '/static/foodstim60/granola w milk.jpg', 'key': 'i', 'origWidth': 410, 'origHeight': 410, 'width': 410, 'height': 410, 'widthPercent': 0.45, 'rescaleHeight': False, 'trialN': 72, 'loaded': True, 'loadedTime': 4354.10000000149, 'positionName': 'RIGHT', 'positionCoords': [998.4, 335], 'bid': 7.84}]",52238.80000000447,1669829803859,edamame,granola w milk,8.61,7.84,-0.7699999999999996,edamame,499.79999999701977,500,500.29999999701977,True,u,53254.39999999851,1015.5999999940395,1669829804874,1015,HRV,HRV_0052,2022-11-30 17:38:16
73,"[{'imgObject': {}, 'id': 'eggs', 'src': '/static/foodstim60/eggs.jpg', 'key': 'u', 'origWidth': 409, 'origHeight': 409, 'width': 409, 'height': 409, 'widthPercent': 0.45, 'rescaleHeight': False, 'trialN': 73, 'loaded': True, 'loadedTime': 4120.5, 'positionName': 'LEFT', 'positionCoords': [512.6, 335.5], 'bid': 5.3500000000000005}, {'imgObject': {}, 'id': 'yogurt no spoon', 'src': '/static/foodstim60/yogurt no spoon.jpg', 'key': 'i', 'origWidth': 411, 'origHeight': 410, 'width': 411, 'height': 410, 'widthPercent': 0.45, 'rescaleHeight': False, 'trialN': 73, 'loaded': True, 'loadedTime': 4055.60000000149, 'positionName': 'RIGHT', 'positionCoords': [998.4, 335], 'bid': 5.25}]",53254.5,1669829804874,eggs,yogurt no spoon,5.3500000000000005,5.25,-0.10000000000000053,eggs,36.20000000298023,37,36.600000001490116,True,u,53799.70000000298,545.2000000029802,1669829805419,545,HRV,HRV_0052,2022-11-30 17:38:16
74,"[{'imgObject': {}, 'id': 'cantaloupe', 'src': '/static/foodstim60/cantaloupe.jpg', 'key': 'u', 'origWidth': 409, 'origHeight': 409, 'width': 409, 'height': 409, 'widthPercent': 0.45, 'rescaleHeight': False, 'trialN': 74, 'loaded': True, 'loadedTime': 4345.70000000298, 'positionName': 'LEFT', 'positionCoords': [512.6, 335.5], 'bid': 7.42}, {'imgObject': {}, 'id': 'corn cob', 'src': '/static/foodstim60/corn cob.jpg', 'key': 'i', 'origWidth': 411, 'origHeight': 411, 'width': 411, 'height': 411, 'widthPercent': 0.45, 'rescaleHeight': False, 'trialN': 74, 'loaded': True, 'loadedTime': 3989.10000000149, 'positionName': 'RIGHT', 'positionCoords': [998.4, 334.5], 'bid': 6.82}]",53799.80000000447,1669829805420,cantaloupe,corn cob,7.42,6.82,-0.5999999999999996,cantaloupe,138.79999999701977,139,139.29999999701977,True,u,54458.60000000149,658.7999999970198,1669829806078,658,HRV,HRV_0052,2022-11-30 17:38:16
75,"[{'imgObject': {}, 'id': 'banana', 'src': '/static/foodstim60/banana.jpg', 'key': 'u', 'origWidth': 410, 'origHeight': 410, 'width': 410, 'height': 410, 'widthPercent': 0.45, 'rescaleHeight': False, 'trialN': 75, 'loaded': True, 'loadedTime': 4204.70000000298, 'positionName': 'LEFT', 'positionCoords': [511.6, 335], 'bid': 2.86}, {'imgObject': {}, 'id': 'turkeysandwich', 'src': '/static/foodstim60/turkeysandwich.jpg', 'key': 'i', 'origWidth': 409, 'origHeight': 409, 'width': 409, 'height': 409, 'widthPercent': 0.45, 'rescaleHeight': False, 'trialN': 75, 'loaded': True, 'loadedTime': 4349.20000000298, 'positionName': 'RIGHT', 'positionCoords': [998.4, 335.5], 'bid': 7.13}]",54458.80000000447,1669829806078,banana,turkeysandwich,2.86,7.13,4.27,banana,127.89999999850988,129,128.19999999552965,True,u,55101.89999999851,643.0999999940395,1669829806722,644,HRV,HRV_0052,2022-11-30 17:38:16
76,"[{'imgObject': {}, 'id': 'lox', 'src': '/static/foodstim60/lox.jpg', 'key': 'u', 'origWidth': 410, 'origHeight': 411, 'width': 410, 'height': 411, 'widthPercent': 0.45, 'rescaleHeight': False, 'trialN': 76, 'loaded': True, 'loadedTime': 4038.2000000029802, 'positionName': 'LEFT', 'positionCoords': [511.6, 334.5], 'bid': 6.84}, {'imgObject': {}, 'id': 'roastedpotatoes', 'src': '/static/foodstim60/roastedpotatoes.jpg', 'key': 'i', 'origWidth': 409, 'origHeight': 410, 'width': 409, 'height': 410, 'widthPercent': 0.45, 'rescaleHeight': False, 'trialN': 76, 'loaded': True, 'loadedTime': 4271.20000000298, 'positionName': 'RIGHT', 'positionCoords': [998.4, 335], 'bid': 7.48}]",55102.0,1669829806722,lox,roastedpotatoes,6.84,7.48,0.6400000000000006,lox,188.5,189,188.89999999850988,True,u,55808.5,706.5,1669829807428,706,HRV,HRV_0052,2022-11-30 17:38:16
77,"[{'imgObject': {}, 'id': 'rigatoni', 'src': '/static/foodstim60/rigatoni.jpg', 'key': 'u', 'origWidth': 411, 'origHeight': 411, 'width': 411, 'height': 411, 'widthPercent': 0.45, 'rescaleHeight': False, 'trialN': 77, 'loaded': True, 'loadedTime': 4288.39999999851, 'positionName': 'LEFT', 'positionCoords': [510.6, 334.5], 'bid': 3.2}, {'imgObject': {}, 'id': 'froot loops w milk', 'src': '/static/foodstim60/froot loops w milk.jpg', 'key': 'i', 'origWidth': 410, 'origHeight': 410, 'width': 410, 'height': 410, 'widthPercent': 0.45, 'rescaleHeight': False, 'trialN': 77, 'loaded': True, 'loadedTime': 4311.89999999851, 'positionName': 'RIGHT', 'positionCoords': [998.4, 335], 'bid': 3.87}]",55808.70000000298,1669829807428,rigatoni,froot loops w milk,3.2,3.87,0.6699999999999999,rigatoni,81.69999999552965,82,82.10000000149012,True,u,56397.5,588.7999999970198,1669829808017,589,HRV,HRV_0052,2022-11-30 17:38:16
78,"[{'imgObject': {}, 'id': 'seaweed', 'src': '/static/foodstim60/seaweed.jpg', 'key': 'u', 'origWidth': 410, 'origHeight': 410, 'width': 410, 'height': 410, 'widthPercent': 0.45, 'rescaleHeight': False, 'trialN': 78, 'loaded': True, 'loadedTime': 4279.39999999851, 'positionName': 'LEFT', 'positionCoords': [511.6, 335], 'bid': 8.32}, {'imgObject': {}, 'id': 'apple slices', 'src': '/static/foodstim60/apple slices.jpg', 'key': 'i', 'origWidth': 409, 'origHeight': 410, 'width': 409, 'height': 410, 'widthPercent': 0.45, 'rescaleHeight': False, 'trialN': 78, 'loaded': True, 'loadedTime': 4004.3000000044703, 'positionName': 'RIGHT', 'positionCoords': [998.4, 335], 'bid': 6.2}]",56397.70000000298,1669829808017,seaweed,apple slices,8.32,6.2,-2.12,seaweed,180.79999999701977,181,181.0,True,u,57085.10000000149,687.3999999985099,1669829808705,688,HRV,HRV_0052,2022-11-30 17:38:16
79,"[{'imgObject': {}, 'id': 'omelette', 'src': '/static/foodstim60/omelette.jpg', 'key': 'u', 'origWidth': 410, 'origHeight': 409, 'width': 410, 'height': 409, 'widthPercent': 0.45, 'rescaleHeight': False, 'trialN': 79, 'loaded': True, 'loadedTime': 4304.5, 'positionName': 'LEFT', 'positionCoords': [511.6, 335.5], 'bid': 7.6}, {'imgObject': {}, 'id': 'raisin bran w milk', 'src': '/static/foodstim60/raisin bran w milk.jpg', 'key': 'i', 'origWidth': 411, 'origHeight': 411, 'width': 411, 'height': 411, 'widthPercent': 0.45, 'rescaleHeight': False, 'trialN': 79, 'loaded': True, 'loadedTime': 4120.80000000447, 'positionName': 'RIGHT', 'positionCoords': [998.4, 334.5], 'bid': 7.82}]",57085.30000000447,1669829808705,omelette,raisin bran w milk,7.6,7.82,0.22000000000000064,omelette,173.09999999403954,174,173.5,True,u,57777.20000000298,691.8999999985099,1669829809397,692,HRV,HRV_0052,2022-11-30 17:38:16
80,"[{'imgObject': {}, 'id': 'chicken nuggets2', 'src': '/static/foodstim60/chicken nuggets2.jpg', 'key': 'u', 'origWidth': 410, 'origHeight': 409, 'width': 410, 'height': 409, 'widthPercent': 0.45, 'rescaleHeight': False, 'trialN': 80, 'loaded': True, 'loadedTime': 4193.70000000298, 'positionName': 'LEFT', 'positionCoords': [511.6, 335.5], 'bid': 8.89}, {'imgObject': {}, 'id': 'eggsalad', 'src': '/static/foodstim60/eggsalad.jpg', 'key': 'i', 'origWidth': 410, 'origHeight': 409, 'width': 410, 'height': 409, 'widthPercent': 0.45, 'rescaleHeight': False, 'trialN': 80, 'loaded': True, 'loadedTime': 4294, 'positionName': 'RIGHT', 'positionCoords': [998.4, 335.5], 'bid': 6.8100000000000005}]",57777.39999999851,1669829809397,chicken nuggets2,eggsalad,8.89,6.8100000000000005,-2.08,eggsalad,161.10000000149012,162,161.5,True,i,58449.89999999851,672.5,1669829810070,673,HRV,HRV_0052,2022-11-30 17:38:16
81,"[{'imgObject': {}, 'id': 'hashbrowns', 'src': '/static/foodstim60/hashbrowns.jpg', 'key': 'u', 'origWidth': 411, 'origHeight': 410, 'width': 411, 'height': 410, 'widthPercent': 0.45, 'rescaleHeight': False, 'trialN': 81, 'loaded': True, 'loadedTime': 4081.39999999851, 'positionName': 'LEFT', 'positionCoords': [510.6, 335], 'bid': 7.36}, {'imgObject': {}, 'id': 'seaweed', 'src': '/static/foodstim60/seaweed.jpg', 'key': 'i', 'origWidth': 410, 'origHeight': 410, 'width': 410, 'height': 410, 'widthPercent': 0.45, 'rescaleHeight': False, 'trialN': 81, 'loaded': True, 'loadedTime': 4279.10000000149, 'positionName': 'RIGHT', 'positionCoords': [998.4, 335], 'bid': 8.32}]",58450.10000000149,1669829810070,hashbrowns,seaweed,7.36,8.32,0.96,seaweed,48.600000001490116,49,48.899999998509884,True,i,59012.10000000149,562.0,1669829810632,562,HRV,HRV_0052,2022-11-30 17:38:16
82,"[{'imgObject': {}, 'id': 'tacos', 'src': '/static/foodstim60/tacos.jpg', 'key': 'u', 'origWidth': 411, 'origHeight': 411, 'width': 411, 'height': 411, 'widthPercent': 0.45, 'rescaleHeight': False, 'trialN': 82, 'loaded': True, 'loadedTime': 4222.20000000298, 'positionName': 'LEFT', 'positionCoords': [510.6, 334.5], 'bid': 8.84}, {'imgObject': {}, 'id': 'chicken nuggets2', 'src': '/static/foodstim60/chicken nuggets2.jpg', 'key': 'i', 'origWidth': 410, 'origHeight': 409, 'width': 410, 'height': 409, 'widthPercent': 0.45, 'rescaleHeight': False, 'trialN': 82, 'loaded': True, 'loadedTime': 4194.30000000447, 'positionName': 'RIGHT', 'positionCoords': [998.4, 335.5], 'bid': 8.89}]",59012.20000000298,1669829810632,tacos,chicken nuggets2,8.84,8.89,0.05000000000000071,tacos,62.399999998509884,63,62.79999999701977,True,u,59588.39999999851,576.1999999955297,1669829811208,576,HRV,HRV_0052,2022-11-30 17:38:16
83,"[{'imgObject': {}, 'id': 'pear', 'src': '/static/foodstim60/pear.jpg', 'key': 'u', 'origWidth': 411, 'origHeight': 410, 'width': 411, 'height': 410, 'widthPercent': 0.45, 'rescaleHeight': False, 'trialN': 83, 'loaded': True, 'loadedTime': 4369.10000000149, 'positionName': 'LEFT', 'positionCoords': [510.6, 335], 'bid': 6.2}, {'imgObject': {}, 'id': 'fruitsalad', 'src': '/static/foodstim60/fruitsalad.jpg', 'key': 'i', 'origWidth': 410, 'origHeight': 410, 'width': 410, 'height': 410, 'widthPercent': 0.45, 'rescaleHeight': False, 'trialN': 83, 'loaded': True, 'loadedTime': 4315.20000000298, 'positionName': 'RIGHT', 'positionCoords': [998.4, 335], 'bid': 6.0600000000000005}]",59588.60000000149,1669829811208,pear,fruitsalad,6.2,6.0600000000000005,-0.13999999999999968,pear,173.79999999701977,174,174.10000000149012,True,u,60273.30000000447,684.7000000029802,1669829811893,685,HRV,HRV_0052,2022-11-30 17:38:16
84,"[{'imgObject': {}, 'id': 'strawberries', 'src': '/static/foodstim60/strawberries.jpg', 'key': 'u', 'origWidth': 410, 'origHeight': 410, 'width': 410, 'height': 410, 'widthPercent': 0.45, 'rescaleHeight': False, 'trialN': 84, 'loaded': True, 'loadedTime': 4165.70000000298, 'positionName': 'LEFT', 'positionCoords': [511.6, 335], 'bid': 7.77}, {'imgObject': {}, 'id': 'chicken nuggets2', 'src': '/static/foodstim60/chicken nuggets2.jpg', 'key': 'i', 'origWidth': 410, 'origHeight': 409, 'width': 410, 'height': 409, 'widthPercent': 0.45, 'rescaleHeight': False, 'trialN': 84, 'loaded': True, 'loadedTime': 4194.10000000149, 'positionName': 'RIGHT', 'positionCoords': [998.4, 335.5], 'bid': 8.89}]",60273.60000000149,1669829811893,strawberries,chicken nuggets2,7.77,8.89,1.120000000000001,chicken nuggets2,17,18,17.5,True,i,60806.5,532.8999999985099,1669829812426,533,HRV,HRV_0052,2022-11-30 17:38:16
85,"[{'imgObject': {}, 'id': 'salmon', 'src': '/static/foodstim60/salmon.jpg', 'key': 'u', 'origWidth': 410, 'origHeight': 409, 'width': 410, 'height': 409, 'widthPercent': 0.45, 'rescaleHeight': False, 'trialN': 85, 'loaded': True, 'loadedTime': 4345.20000000298, 'positionName': 'LEFT', 'positionCoords': [511.6, 335.5], 'bid': 8.700000000000001}, {'imgObject': {}, 'id': 'shreddedwheatwithmilk', 'src': '/static/foodstim60/shreddedwheatwithmilk.jpg', 'key': 'i', 'origWidth': 410, 'origHeight': 410, 'width': 410, 'height': 410, 'widthPercent': 0.45, 'rescaleHeight': False, 'trialN': 85, 'loaded': True, 'loadedTime': 4130.80000000447, 'positionName': 'RIGHT', 'positionCoords': [998.4, 335], 'bid': 7.97}]",60806.80000000447,1669829812426,salmon,shreddedwheatwithmilk,8.700000000000001,7.97,-0.7300000000000013,shreddedwheatwithmilk,83.89999999850988,85,84.29999999701977,True,i,61402.0,595.1999999955297,1669829813022,596,HRV,HRV_0052,2022-11-30 17:38:16
86,"[{'imgObject': {}, 'id': 'cocktailshrimp', 'src': '/static/foodstim60/cocktailshrimp.jpg', 'key': 'u', 'origWidth': 410, 'origHeight': 410, 'width': 410, 'height': 410, 'widthPercent': 0.45, 'rescaleHeight': False, 'trialN': 86, 'loaded': True, 'loadedTime': 4222.5, 'positionName': 'LEFT', 'positionCoords': [511.6, 335], 'bid': 8.03}, {'imgObject': {}, 'id': 'burger', 'src': '/static/foodstim60/burger.jpg', 'key': 'i', 'origWidth': 409, 'origHeight': 409, 'width': 409, 'height': 409, 'widthPercent': 0.45, 'rescaleHeight': False, 'trialN': 86, 'loaded': True, 'loadedTime': 4028, 'positionName': 'RIGHT', 'positionCoords': [998.4, 335.5], 'bid': 7.05}]",61402.10000000149,1669829813022,cocktailshrimp,burger,8.03,7.05,-0.9799999999999995,cocktailshrimp,184.29999999701977,184,184.60000000149012,True,u,62087.0,684.8999999985099,1669829813707,685,HRV,HRV_0052,2022-11-30 17:38:16
87,"[{'imgObject': {}, 'id': 'salad w chicken', 'src': '/static/foodstim60/salad w chicken.jpg', 'key': 'u', 'origWidth': 411, 'origHeight': 411, 'width': 411, 'height': 411, 'widthPercent': 0.45, 'rescaleHeight': False, 'trialN': 87, 'loaded': True, 'loadedTime': 4280.70000000298, 'positionName': 'LEFT', 'positionCoords': [510.6, 334.5], 'bid': 3.82}, {'imgObject': {}, 'id': 'roastedpotatoes', 'src': '/static/foodstim60/roastedpotatoes.jpg', 'key': 'i', 'origWidth': 409, 'origHeight': 410, 'width': 409, 'height': 410, 'widthPercent': 0.45, 'rescaleHeight': False, 'trialN': 87, 'loaded': True, 'loadedTime': 4272.30000000447, 'positionName': 'RIGHT', 'positionCoords': [998.4, 335], 'bid': 7.48}]",62087.30000000447,1669829813707,salad w chicken,roastedpotatoes,3.82,7.48,3.6600000000000006,salad w chicken,12.5,13,13.199999995529652,True,u,62615.89999999851,528.5999999940395,1669829814236,529,HRV,HRV_0052,2022-11-30 17:38:16
88,"[{'imgObject': {}, 'id': 'Grapes', 'src': '/static/foodstim60/Grapes.jpg', 'key': 'u', 'origWidth': 411, 'origHeight': 411, 'width': 411, 'height': 411, 'widthPercent': 0.45, 'rescaleHeight': False, 'trialN': 88, 'loaded': True, 'loadedTime': 4312.30000000447, 'positionName': 'LEFT', 'positionCoords': [510.6, 334.5], 'bid': 7.41}, {'imgObject': {}, 'id': 'veggieswithdip', 'src': '/static/foodstim60/veggieswithdip.jpg', 'key': 'i', 'origWidth': 409, 'origHeight': 409, 'width': 409, 'height': 409, 'widthPercent': 0.45, 'rescaleHeight': False, 'trialN': 88, 'loaded': True, 'loadedTime': 3993.60000000149, 'positionName': 'RIGHT', 'positionCoords': [998.4, 335.5], 'bid': 7.38}]",62616.10000000149,1669829814236,Grapes,veggieswithdip,7.41,7.38,-0.03000000000000025,veggieswithdip,11.700000002980232,12,12.600000001490116,True,i,63146.10000000149,530.0,1669829814766,530,HRV,HRV_0052,2022-11-30 17:38:16
89,"[{'imgObject': {}, 'id': 'strawberries', 'src': '/static/foodstim60/strawberries.jpg', 'key': 'u', 'origWidth': 410, 'origHeight': 410, 'width': 410, 'height': 410, 'widthPercent': 0.45, 'rescaleHeight': False, 'trialN': 89, 'loaded': True, 'loadedTime': 4168, 'positionName': 'LEFT', 'positionCoords': [511.6, 335], 'bid': 7.77}, {'imgObject': {}, 'id': 'veggieswithdip', 'src': '/static/foodstim60/veggieswithdip.jpg', 'key': 'i', 'origWidth': 409, 'origHeight': 409, 'width': 409, 'height': 409, 'widthPercent': 0.45, 'rescaleHeight': False, 'trialN': 89, 'loaded': True, 'loadedTime': 3999.3000000044703, 'positionName': 'RIGHT', 'positionCoords': [998.4, 335.5], 'bid': 7.38}]",63146.60000000149,1669829814766,strawberries,veggieswithdip,7.77,7.38,-0.3899999999999997,strawberries,191.70000000298023,192,192.0,True,u,63847.80000000447,701.2000000029802,1669829815468,702,HRV,HRV_0052,2022-11-30 17:38:16
90,"[{'imgObject': {}, 'id': 'rigatoni and sauce', 'src': '/static/foodstim60/rigatoni and sauce.jpg', 'key': 'u', 'origWidth': 410, 'origHeight': 411, 'width': 410, 'height': 411, 'widthPercent': 0.45, 'rescaleHeight': False, 'trialN': 90, 'loaded': True, 'loadedTime': 4091.2000000029802, 'positionName': 'LEFT', 'positionCoords': [511.6, 334.5], 'bid': 8.6}, {'imgObject': {}, 'id': 'raisin bran w milk', 'src': '/static/foodstim60/raisin bran w milk.jpg', 'key': 'i', 'origWidth': 411, 'origHeight': 411, 'width': 411, 'height': 411, 'widthPercent': 0.45, 'rescaleHeight': False, 'trialN': 90, 'loaded': True, 'loadedTime': 4122, 'positionName': 'RIGHT', 'positionCoords': [998.4, 334.5], 'bid': 7.82}]",71552.30000000447,1669829823172,rigatoni and sauce,raisin bran w milk,8.6,7.82,-0.7799999999999994,rigatoni and sauce,74.09999999403954,74,74.39999999850988,True,u,72143.30000000447,591.0,1669829823763,591,HRV,HRV_0052,2022-11-30 17:38:16
91,"[{'imgObject': {}, 'id': 'banana', 'src': '/static/foodstim60/banana.jpg', 'key': 'u', 'origWidth': 410, 'origHeight': 410, 'width': 410, 'height': 410, 'widthPercent': 0.45, 'rescaleHeight': False, 'trialN': 91, 'loaded': True, 'loadedTime': 4204.20000000298, 'positionName': 'LEFT', 'positionCoords': [511.6, 335], 'bid': 2.86}, {'imgObject': {}, 'id': 'fruitsalad', 'src': '/static/foodstim60/fruitsalad.jpg', 'key': 'i', 'origWidth': 410, 'origHeight': 410, 'width': 410, 'height': 410, 'widthPercent': 0.45, 'rescaleHeight': False, 'trialN': 91, 'loaded': True, 'loadedTime': 4315.10000000149, 'positionName': 'RIGHT', 'positionCoords': [998.4, 335], 'bid': 6.0600000000000005}]",72143.39999999851,1669829823763,banana,fruitsalad,2.86,6.0600000000000005,3.2000000000000006,banana,74.90000000596046,75,75.20000000298023,True,u,72734.30000000447,590.9000000059605,1669829824354,591,HRV,HRV_0052,2022-11-30 17:38:16
92,"[{'imgObject': {}, 'id': 'raspberries', 'src': '/static/foodstim60/raspberries.jpg', 'key': 'u', 'origWidth': 411, 'origHeight': 411, 'width': 411, 'height': 411, 'widthPercent': 0.45, 'rescaleHeight': False, 'trialN': 92, 'loaded': True, 'loadedTime': 3961, 'positionName': 'LEFT', 'positionCoords': [510.6, 334.5], 'bid': 3.38}, {'imgObject': {}, 'id': 'kiwi', 'src': '/static/foodstim60/kiwi.jpg', 'key': 'i', 'origWidth': 410, 'origHeight': 410, 'width': 410, 'height': 410, 'widthPercent': 0.45, 'rescaleHeight': False, 'trialN': 92, 'loaded': True, 'loadedTime': 4054.5, 'positionName': 'RIGHT', 'positionCoords': [998.4, 335], 'bid': 6.61}]",72734.60000000149,1669829824354,raspberries,kiwi,3.38,6.61,3.2300000000000004,kiwi,51.899999998509884,53,52.29999999701977,True,i,73306.80000000447,572.2000000029802,1669829824927,573,HRV,HRV_0052,2022-11-30 17:38:16
93,"[{'imgObject': {}, 'id': 'edamame', 'src': '/static/foodstim60/edamame.jpg', 'key': 'u', 'origWidth': 409, 'origHeight': 410, 'width': 409, 'height': 410, 'widthPercent': 0.45, 'rescaleHeight': False, 'trialN': 93, 'loaded': True, 'loadedTime': 4266.10000000149, 'positionName': 'LEFT', 'positionCoords': [512.6, 335], 'bid': 8.61}, {'imgObject': {}, 'id': 'roastedpotatoes', 'src': '/static/foodstim60/roastedpotatoes.jpg', 'key': 'i', 'origWidth': 409, 'origHeight': 410, 'width': 409, 'height': 410, 'widthPercent': 0.45, 'rescaleHeight': False, 'trialN': 93, 'loaded': True, 'loadedTime': 4272.20000000298, 'positionName': 'RIGHT', 'positionCoords': [998.4, 335], 'bid': 7.48}]",73307.0,1669829824927,edamame,roastedpotatoes,8.61,7.48,-1.129999999999999,edamame,31.399999998509884,32,31.899999998509884,True,u,73846.60000000149,539.6000000014901,1669829825466,539,HRV,HRV_0052,2022-11-30 17:38:16
94,"[{'imgObject': {}, 'id': 'orange slices', 'src': '/static/foodstim60/orange slices.jpg', 'key': 'u', 'origWidth': 409, 'origHeight': 410, 'width': 409, 'height': 410, 'widthPercent': 0.45, 'rescaleHeight': False, 'trialN': 94, 'loaded': True, 'loadedTime': 4330.30000000447, 'positionName': 'LEFT', 'positionCoords': [512.6, 335], 'bid': 8.14}, {'imgObject': {}, 'id': 'seaweed', 'src': '/static/foodstim60/seaweed.jpg', 'key': 'i', 'origWidth': 410, 'origHeight': 410, 'width': 410, 'height': 410, 'widthPercent': 0.45, 'rescaleHeight': False, 'trialN': 94, 'loaded': True, 'loadedTime': 4277.60000000149, 'positionName': 'RIGHT', 'positionCoords': [998.4, 335], 'bid': 8.32}]",73846.89999999851,1669829825467,orange slices,seaweed,8.14,8.32,0.17999999999999972,orange slices,123.5,123,123.80000000447035,True,u,74481.89999999851,635.0,1669829826102,635,HRV,HRV_0052,2022-11-30 17:38:16
95,"[{'imgObject': {}, 'id': 'sweetpotato', 'src': '/static/foodstim60/sweetpotato.jpg', 'key': 'u', 'origWidth': 410, 'origHeight': 410, 'width': 410, 'height': 410, 'widthPercent': 0.45, 'rescaleHeight': False, 'trialN': 95, 'loaded': True, 'loadedTime': 4343.30000000447, 'positionName': 'LEFT', 'positionCoords': [511.6, 335], 'bid': 5.79}, {'imgObject': {}, 'id': 'olives', 'src': '/static/foodstim60/olives.jpg', 'key': 'i', 'origWidth': 410, 'origHeight': 410, 'width': 410, 'height': 410, 'widthPercent': 0.45, 'rescaleHeight': False, 'trialN': 95, 'loaded': True, 'loadedTime': 4015.2000000029802, 'positionName': 'RIGHT', 'positionCoords': [998.4, 335], 'bid': 2.19}]",74482.0,1669829826102,sweetpotato,olives,5.79,2.19,-3.6,sweetpotato,104.39999999850988,105,104.89999999850988,True,u,75090.60000000149,608.6000000014901,1669829826710,608,HRV,HRV_0052,2022-11-30 17:38:16
96,"[{'imgObject': {}, 'id': 'granola w milk', 'src': '/static/foodstim60/granola w milk.jpg', 'key': 'u', 'origWidth': 410, 'origHeight': 410, 'width': 410, 'height': 410, 'widthPercent': 0.45, 'rescaleHeight': False, 'trialN': 96, 'loaded': True, 'loadedTime': 4352.89999999851, 'positionName': 'LEFT', 'positionCoords': [511.6, 335], 'bid': 7.84}, {'imgObject': {}, 'id': 'mac & cheese', 'src': '/static/foodstim60/mac & cheese.jpg', 'key': 'i', 'origWidth': 410, 'origHeight': 410, 'width': 410, 'height': 410, 'widthPercent': 0.45, 'rescaleHeight': False, 'trialN': 96, 'loaded': True, 'loadedTime': 4154.70000000298, 'positionName': 'RIGHT', 'positionCoords': [998.4, 335], 'bid': 9.61}]",75090.89999999851,1669829826711,granola w milk,mac & cheese,7.84,9.61,1.7699999999999996,granola w milk,287.30000000447035,287,287.70000000298023,True,u,75882.60000000149,791.7000000029802,1669829827502,791,HRV,HRV_0052,2022-11-30 17:38:16
97,"[{'imgObject': {}, 'id': 'cantaloupe', 'src': '/static/foodstim60/cantaloupe.jpg', 'key': 'u', 'origWidth': 409, 'origHeight': 409, 'width': 409, 'height': 409, 'widthPercent': 0.45, 'rescaleHeight': False, 'trialN': 97, 'loaded': True, 'loadedTime': 4347.10000000149, 'positionName': 'LEFT', 'positionCoords': [512.6, 335.5], 'bid': 7.42}, {'imgObject': {}, 'id': 'veggieswithdip', 'src': '/static/foodstim60/veggieswithdip.jpg', 'key': 'i', 'origWidth': 409, 'origHeight': 409, 'width': 409, 'height': 409, 'widthPercent': 0.45, 'rescaleHeight': False, 'trialN': 97, 'loaded': True, 'loadedTime': 3999.89999999851, 'positionName': 'RIGHT', 'positionCoords': [998.4, 335.5], 'bid': 7.38}]",75882.89999999851,1669829827503,cantaloupe,veggieswithdip,7.42,7.38,-0.040000000000000036,cantaloupe,63.5,63,63.900000005960464,True,u,76450.5,567.6000000014901,1669829828070,567,HRV,HRV_0052,2022-11-30 17:38:16
98,"[{'imgObject': {}, 'id': 'eggsalad', 'src': '/static/foodstim60/eggsalad.jpg', 'key': 'u', 'origWidth': 410, 'origHeight': 409, 'width': 410, 'height': 409, 'widthPercent': 0.45, 'rescaleHeight': False, 'trialN': 98, 'loaded': True, 'loadedTime': 4295, 'positionName': 'LEFT', 'positionCoords': [511.6, 335.5], 'bid': 6.8100000000000005}, {'imgObject': {}, 'id': 'Grapes', 'src': '/static/foodstim60/Grapes.jpg', 'key': 'i', 'origWidth': 411, 'origHeight': 411, 'width': 411, 'height': 411, 'widthPercent': 0.45, 'rescaleHeight': False, 'trialN': 98, 'loaded': True, 'loadedTime': 4313.80000000447, 'positionName': 'RIGHT', 'positionCoords': [998.4, 334.5], 'bid': 7.41}]",76450.70000000298,1669829828070,eggsalad,Grapes,6.8100000000000005,7.41,0.5999999999999996,eggsalad,47.69999999552965,48,48.0,True,u,77018.39999999851,567.6999999955297,1669829828638,568,HRV,HRV_0052,2022-11-30 17:38:16
99,"[{'imgObject': {}, 'id': 'fruitsalad', 'src': '/static/foodstim60/fruitsalad.jpg', 'key': 'u', 'origWidth': 410, 'origHeight': 410, 'width': 410, 'height': 410, 'widthPercent': 0.45, 'rescaleHeight': False, 'trialN': 99, 'loaded': True, 'loadedTime': 4313.89999999851, 'positionName': 'LEFT', 'positionCoords': [511.6, 335], 'bid': 6.0600000000000005}, {'imgObject': {}, 'id': 'yogurt no spoon', 'src': '/static/foodstim60/yogurt no spoon.jpg', 'key': 'i', 'origWidth': 411, 'origHeight': 410, 'width': 411, 'height': 410, 'widthPercent': 0.45, 'rescaleHeight': False, 'trialN': 99, 'loaded': True, 'loadedTime': 4063.5, 'positionName': 'RIGHT', 'positionCoords': [998.4, 335], 'bid': 5.25}]",77018.60000000149,1669829828638,fruitsalad,yogurt no spoon,6.0600000000000005,5.25,-0.8100000000000005,fruitsalad,71.5,72,71.89999999850988,True,u,77608.60000000149,590.0,1669829829228,590,HRV,HRV_0052,2022-11-30 17:38:16
100,"[{'imgObject': {}, 'id': 'rigatoni', 'src': '/static/foodstim60/rigatoni.jpg', 'key': 'u', 'origWidth': 411, 'origHeight': 411, 'width': 411, 'height': 411, 'widthPercent': 0.45, 'rescaleHeight': False, 'trialN': 100, 'loaded': True, 'loadedTime': 4288.10000000149, 'positionName': 'LEFT', 'positionCoords': [510.6, 334.5], 'bid': 3.2}, {'imgObject': {}, 'id': 'burrito', 'src': '/static/foodstim60/burrito.jpg', 'key': 'i', 'origWidth': 410, 'origHeight': 410, 'width': 410, 'height': 410, 'widthPercent': 0.45, 'rescaleHeight': False, 'trialN': 100, 'loaded': True, 'loadedTime': 4181.10000000149, 'positionName': 'RIGHT', 'positionCoords': [998.4, 335], 'bid': 3.29}]",77608.80000000447,1669829829229,rigatoni,burrito,3.2,3.29,0.08999999999999986,rigatoni,105.79999999701977,106,106.09999999403954,True,u,78227.60000000149,618.7999999970198,1669829829847,618,HRV,HRV_0052,2022-11-30 17:38:16
101,"[{'imgObject': {}, 'id': 'cocktailshrimp', 'src': '/static/foodstim60/cocktailshrimp.jpg', 'key': 'u', 'origWidth': 410, 'origHeight': 410, 'width': 410, 'height': 410, 'widthPercent': 0.45, 'rescaleHeight': False, 'trialN': 101, 'loaded': True, 'loadedTime': 4224.39999999851, 'positionName': 'LEFT', 'positionCoords': [511.6, 335], 'bid': 8.03}, {'imgObject': {}, 'id': 'fried eggs', 'src': '/static/foodstim60/fried eggs.jpg', 'key': 'i', 'origWidth': 410, 'origHeight': 410, 'width': 410, 'height': 410, 'widthPercent': 0.45, 'rescaleHeight': False, 'trialN': 101, 'loaded': True, 'loadedTime': 3918.2000000029802, 'positionName': 'RIGHT', 'positionCoords': [998.4, 335], 'bid': 5.89}]",78227.89999999851,1669829829848,cocktailshrimp,fried eggs,8.03,5.89,-2.1399999999999997,fried eggs,15.5,16,16.30000000447035,True,i,78751.80000000447,523.9000000059605,1669829830372,524,HRV,HRV_0052,2022-11-30 17:38:16
102,"[{'imgObject': {}, 'id': 'kiwi', 'src': '/static/foodstim60/kiwi.jpg', 'key': 'u', 'origWidth': 410, 'origHeight': 410, 'width': 410, 'height': 410, 'widthPercent': 0.45, 'rescaleHeight': False, 'trialN': 102, 'loaded': True, 'loadedTime': 4054.10000000149, 'positionName': 'LEFT', 'positionCoords': [511.6, 335], 'bid': 6.61}, {'imgObject': {}, 'id': 'apple slices', 'src': '/static/foodstim60/apple slices.jpg', 'key': 'i', 'origWidth': 409, 'origHeight': 410, 'width': 409, 'height': 410, 'widthPercent': 0.45, 'rescaleHeight': False, 'trialN': 102, 'loaded': True, 'loadedTime': 4004.5, 'positionName': 'RIGHT', 'positionCoords': [998.4, 335], 'bid': 6.2}]",78752.0,1669829830372,kiwi,apple slices,6.61,6.2,-0.41000000000000014,apple slices,98.39999999850988,98,98.70000000298023,True,i,79355.70000000298,603.7000000029802,1669829830975,603,HRV,HRV_0052,2022-11-30 17:38:16
103,"[{'imgObject': {}, 'id': 'luckycharms', 'src': '/static/foodstim60/luckycharms.jpg', 'key': 'u', 'origWidth': 410, 'origHeight': 409, 'width': 410, 'height': 409, 'widthPercent': 0.45, 'rescaleHeight': False, 'trialN': 103, 'loaded': True, 'loadedTime': 4352.5, 'positionName': 'LEFT', 'positionCoords': [511.6, 335.5], 'bid': 3.6}, {'imgObject': {}, 'id': 'froot loops w milk', 'src': '/static/foodstim60/froot loops w milk.jpg', 'key': 'i', 'origWidth': 410, 'origHeight': 410, 'width': 410, 'height': 410, 'widthPercent': 0.45, 'rescaleHeight': False, 'trialN': 103, 'loaded': True, 'loadedTime': 4304.70000000298, 'positionName': 'RIGHT', 'positionCoords': [998.4, 335], 'bid': 3.87}]",79355.89999999851,1669829830975,luckycharms,froot loops w milk,3.6,3.87,0.27,froot loops w milk,134.5,135,134.80000000447035,True,i,80002.60000000149,646.7000000029802,1669829831622,647,HRV,HRV_0052,2022-11-30 17:38:16
104,"[{'imgObject': {}, 'id': 'sushi w_condiments', 'src': '/static/foodstim60/sushi w_condiments.jpg', 'key': 'u', 'origWidth': 410, 'origHeight': 410, 'width': 410, 'height': 410, 'widthPercent': 0.45, 'rescaleHeight': False, 'trialN': 104, 'loaded': True, 'loadedTime': 3965.7000000029802, 'positionName': 'LEFT', 'positionCoords': [511.6, 335], 'bid': 6.29}, {'imgObject': {}, 'id': 'blackbeanswithrice', 'src': '/static/foodstim60/blackbeanswithrice.jpg', 'key': 'i', 'origWidth': 410, 'origHeight': 410, 'width': 410, 'height': 410, 'widthPercent': 0.45, 'rescaleHeight': False, 'trialN': 104, 'loaded': True, 'loadedTime': 4021.39999999851, 'positionName': 'RIGHT', 'positionCoords': [998.4, 335], 'bid': 7}]",80002.80000000447,1669829831622,sushi w_condiments,blackbeanswithrice,6.29,7.0,0.71,blackbeanswithrice,143.5,144,143.89999999850988,True,i,80657.60000000149,654.7999999970198,1669829832277,655,HRV,HRV_0052,2022-11-30 17:38:16
105,"[{'imgObject': {}, 'id': 'baked potato', 'src': '/static/foodstim60/baked potato.jpg', 'key': 'u', 'origWidth': 409, 'origHeight': 410, 'width': 409, 'height': 410, 'widthPercent': 0.45, 'rescaleHeight': False, 'trialN': 105, 'loaded': True, 'loadedTime': 4156.30000000447, 'positionName': 'LEFT', 'positionCoords': [512.6, 335], 'bid': 7.59}, {'imgObject': {}, 'id': 'salmon', 'src': '/static/foodstim60/salmon.jpg', 'key': 'i', 'origWidth': 410, 'origHeight': 409, 'width': 410, 'height': 409, 'widthPercent': 0.45, 'rescaleHeight': False, 'trialN': 105, 'loaded': True, 'loadedTime': 4345.30000000447, 'positionName': 'RIGHT', 'positionCoords': [998.4, 335.5], 'bid': 8.700000000000001}]",80657.80000000447,1669829832277,baked potato,salmon,7.59,8.700000000000001,1.1100000000000012,baked potato,56.599999994039536,57,56.899999998509884,True,u,81233.30000000447,575.5,1669829832853,576,HRV,HRV_0052,2022-11-30 17:38:16
106,"[{'imgObject': {}, 'id': 'popsicles', 'src': '/static/foodstim60/popsicles.jpg', 'key': 'u', 'origWidth': 410, 'origHeight': 410, 'width': 410, 'height': 410, 'widthPercent': 0.45, 'rescaleHeight': False, 'trialN': 106, 'loaded': True, 'loadedTime': 4380.80000000447, 'positionName': 'LEFT', 'positionCoords': [511.6, 335], 'bid': 9.05}, {'imgObject': {}, 'id': 'orange slices', 'src': '/static/foodstim60/orange slices.jpg', 'key': 'i', 'origWidth': 409, 'origHeight': 410, 'width': 409, 'height': 410, 'widthPercent': 0.45, 'rescaleHeight': False, 'trialN': 106, 'loaded': True, 'loadedTime': 4329.80000000447, 'positionName': 'RIGHT', 'positionCoords': [998.4, 335], 'bid': 8.14}]",81233.5,1669829832853,popsicles,orange slices,9.05,8.14,-0.9100000000000001,orange slices,144.89999999850988,145,145.20000000298023,True,i,81884.70000000298,651.2000000029802,1669829833504,651,HRV,HRV_0052,2022-11-30 17:38:16
107,"[{'imgObject': {}, 'id': 'avocado', 'src': '/static/foodstim60/avocado.jpg', 'key': 'u', 'origWidth': 409, 'origHeight': 409, 'width': 409, 'height': 409, 'widthPercent': 0.45, 'rescaleHeight': False, 'trialN': 107, 'loaded': True, 'loadedTime': 4135.89999999851, 'positionName': 'LEFT', 'positionCoords': [512.6, 335.5], 'bid': 7.98}, {'imgObject': {}, 'id': 'baked potato', 'src': '/static/foodstim60/baked potato.jpg', 'key': 'i', 'origWidth': 409, 'origHeight': 410, 'width': 409, 'height': 410, 'widthPercent': 0.45, 'rescaleHeight': False, 'trialN': 107, 'loaded': True, 'loadedTime': 4156.10000000149, 'positionName': 'RIGHT', 'positionCoords': [998.4, 335], 'bid': 7.59}]",81884.89999999851,1669829833504,avocado,baked potato,7.98,7.59,-0.39000000000000057,baked potato,101.40000000596046,102,101.70000000298023,True,i,82503.30000000447,618.4000000059605,1669829834123,619,HRV,HRV_0052,2022-11-30 17:38:16
108,"[{'imgObject': {}, 'id': 'salad w chicken', 'src': '/static/foodstim60/salad w chicken.jpg', 'key': 'u', 'origWidth': 411, 'origHeight': 411, 'width': 411, 'height': 411, 'widthPercent': 0.45, 'rescaleHeight': False, 'trialN': 108, 'loaded': True, 'loadedTime': 4279.5, 'positionName': 'LEFT', 'positionCoords': [510.6, 334.5], 'bid': 3.82}, {'imgObject': {}, 'id': 'luckycharms', 'src': '/static/foodstim60/luckycharms.jpg', 'key': 'i', 'origWidth': 410, 'origHeight': 409, 'width': 410, 'height': 409, 'widthPercent': 0.45, 'rescaleHeight': False, 'trialN': 108, 'loaded': True, 'loadedTime': 4351.30000000447, 'positionName': 'RIGHT', 'positionCoords': [998.4, 335.5], 'bid': 3.6}]",82503.39999999851,1669829834123,salad w chicken,luckycharms,3.82,3.6,-0.21999999999999975,salad w chicken,2.7000000029802322,3,3.4000000059604645,True,u,83013.30000000447,509.90000000596046,1669829834633,510,HRV,HRV_0052,2022-11-30 17:38:16
