success,trial_type,trial_index,time_elapsed,internal_node_id,Block,TrialNumber,TrialTime,trialTimeDiff,FPS_avg,FPS_med,FPS_mode,TrialDur,winResizeTime,rt,block,button_pressed,MotCoh,MotDir,ColCoh,Color,ChoiceKey,Choice,Accuracy,RT,nFrames,FPS,PPD,missTrial,missTrialMsg,onsetDelay,fullScreenExitTime,canvCenter,TrialType,Score,BlockTrial,stimulus,button_labels,exp,subjectId,date
True,fullscreen,0,2208,0.0-0.0,0.0,1.0,,,,,,,,,,,,,,,,,,,,,,,,,,,,,,,,HRV,HRV_0136,2022-11-30 18:19:51
,wl-check-fps,1,7202,0.0-1.0,0.0,2.0,"[2855.2, 2859.6, 2876.3, 2893.7, 2909.7, 2926.8, 2943.5, 2960.2, 2976.9, 2993.4, 3010.5, 3026.7, 3044, 3060.6, 3076.6, 3093.7, 3110.2, 3126.4, 3145.2, 3161.3, 3176.8, 3193.8, 3210.2, 3226.7, 3243.6, 3260.7, 3276.4, 3293.1, 3310.1, 3326.4, 3343.5, 3359.9, 3376.4, 3392.7, 3409.8, 3426.8, 3443.6, 3459.9, 3476.3, 3492.7, 3510.4, 3526.6, 3544.2, 3560, 3577.1, 3592.7, 3610.9, 3626.5, 3643.2, 3659.9, 3677.9, 3694.7, 3710.5, 3726.6, 3743.3, 3759.9, 3777.7, 3793, 3810.7, 3826.8, 3843.6, 3861.3, 3876.6, 3894.5, 3910.1, 3926.8, 3944.6, 3960.2, 3978, 3993.8, 4010.2, 4026.9, 4043.7, 4060.3, 4076.7, 4093.9, 4110.1, 4128.2, 4144.7, 4160, 4176.7, 4193.3, 4210.1, 4227.2, 4244.7, 4259.7, 4276.8, 4293.9, 4310.4, 4327, 4343.4, 4360.9, 4377, 4393.2, 4410.1, 4427.4, 4443.5, 4460.2, 4476.9, 4493.3, 4510.1, 4526.7, 4543.3, 4560.1, 4576.8, 4593.4, 4610.3, 4626.3, 4643.5, 4660.1, 4677.1, 4693.9, 4710.3, 4726.7, 4743.1, 4760.3, 4777, 4794, 4811.3, 4826.8, 4844.8, 4861.2, 4877.5, 4893.5, 4909.7, 4927.5, 4943.4, 4960.1, 4977.1, 4993.1, 5010.9, 5026.8, 5043.4, 5060.2, 5076.9, 5094.5, 5111.3, 5126.9, 5143.5, 5160.2, 5176.8, 5193.6, 5210, 5228.1, 5244.6, 5260.6, 5277.2, 5293.1, 5311.4, 5327.5, 5343.6, 5360.3, 5376.9, 5393.5, 5410.1, 5427.4, 5443.1, 5460.3, 5476.9, 5493.7, 5510.2, 5527.4, 5543.6, 5560.3, 5576.9, 5593.5, 5611.3, 5628.9, 5643.6, 5661.1, 5677.1, 5693.4, 5710, 5727, 5743.9, 5760.3, 5777.3, 5793.6, 5810.2, 5826.5, 5843.8, 5861.2, 5877, 5893.6, 5910.7, 5927, 5943, 5959.7, 5978.1, 5993.7, 6010.3, 6026.7, 6044.3, 6060.3, 6077.1, 6093.8, 6109.7, 6127, 6143.5, 6160.3, 6177.9, 6193.7, 6210.4, 6227, 6244.6, 6261.7, 6277.2, 6293.8, 6310.3, 6326.6, 6343.8, 6360.4, 6377.1, 6394.5, 6410.5, 6427.3, 6452.3, 6460.5, 6477, 6494.9, 6510.3, 6527.1, 6543.7, 6561, 6577.2, 6593.9, 6610.4, 6627.1, 6643.9, 6661.7, 6677.1, 6693.9, 6710.4, 6726.9, 6744.9, 6760.3, 6777.4, 6793.8, 6810.4, 6827.2, 6843.8, 6860.5, 6876.8, 6893.3, 6910.1, 6927.1, 6944, 6961.4, 6977.3, 6994.2, 7010.5, 7027.4, 7043.9, 7061.3, 7077.2, 7093.9, 7110.5, 7127, 7143.8, 7161.2, 7177.3, 7195.2, 7211, 7227.3, 7243.9, 7260.5, 7277.4, 7293.9, 7311.2, 7327.3, 7343.8, 7360.6, 7377.3, 7393.9, 7411.5, 7427.5, 7443.9, 7460.8, 7477.2, 7493.9, 7511, 7528.3, 7543.9, 7560.6, 7577.4, 7594, 7610.5, 7627.2, 7645.1, 7661.7, 7677.5, 7695.1, 7711.7, 7727.2, 7745.1, 7760.6, 7777.4, 7794.5, 7810.6, 7827.4]","[2, 4.4, 16.7, 17.4, 16, 17.1, 16.7, 16.7, 16.7, 16.5, 17.1, 16.2, 17.3, 16.6, 16, 17.1, 16.5, 16.2, 18.8, 16.1, 15.5, 17, 16.4, 16.5, 16.9, 17.1, 15.7, 16.7, 17, 16.3, 17.1, 16.4, 16.5, 16.3, 17.1, 17, 16.8, 16.3, 16.4, 16.4, 17.7, 16.2, 17.6, 15.8, 17.1, 15.6, 18.2, 15.6, 16.7, 16.7, 18, 16.8, 15.8, 16.1, 16.7, 16.6, 17.8, 15.3, 17.7, 16.1, 16.8, 17.7, 15.3, 17.9, 15.6, 16.7, 17.8, 15.6, 17.8, 15.8, 16.4, 16.7, 16.8, 16.6, 16.4, 17.2, 16.2, 18.1, 16.5, 15.3, 16.7, 16.6, 16.8, 17.1, 17.5, 15, 17.1, 17.1, 16.5, 16.6, 16.4, 17.5, 16.1, 16.2, 16.9, 17.3, 16.1, 16.7, 16.7, 16.4, 16.8, 16.6, 16.6, 16.8, 16.7, 16.6, 16.9, 16, 17.2, 16.6, 17, 16.8, 16.4, 16.4, 16.4, 17.2, 16.7, 17, 17.3, 15.5, 18, 16.4, 16.3, 16, 16.2, 17.8, 15.9, 16.7, 17, 16, 17.8, 15.9, 16.6, 16.8, 16.7, 17.6, 16.8, 15.6, 16.6, 16.7, 16.6, 16.8, 16.4, 18.1, 16.5, 16, 16.6, 15.9, 18.3, 16.1, 16.1, 16.7, 16.6, 16.6, 16.6, 17.3, 15.7, 17.2, 16.6, 16.8, 16.5, 17.2, 16.2, 16.7, 16.6, 16.6, 17.8, 17.6, 14.7, 17.5, 16, 16.3, 16.6, 17, 16.9, 16.4, 17, 16.3, 16.6, 16.3, 17.3, 17.4, 15.8, 16.6, 17.1, 16.3, 16, 16.7, 18.4, 15.6, 16.6, 16.4, 17.6, 16, 16.8, 16.7, 15.9, 17.3, 16.5, 16.8, 17.6, 15.8, 16.7, 16.6, 17.6, 17.1, 15.5, 16.6, 16.5, 16.3, 17.2, 16.6, 16.7, 17.4, 16, 16.8, 25, 8.2, 16.5, 17.9, 15.4, 16.8, 16.6, 17.3, 16.2, 16.7, 16.5, 16.7, 16.8, 17.8, 15.4, 16.8, 16.5, 16.5, 18, 15.4, 17.1, 16.4, 16.6, 16.8, 16.6, 16.7, 16.3, 16.5, 16.8, 17, 16.9, 17.4, 15.9, 16.9, 16.3, 16.9, 16.5, 17.4, 15.9, 16.7, 16.6, 16.5, 16.8, 17.4, 16.1, 17.9, 15.8, 16.3, 16.6, 16.6, 16.9, 16.5, 17.3, 16.1, 16.5, 16.8, 16.7, 16.6, 17.6, 16, 16.4, 16.9, 16.4, 16.7, 17.1, 17.3, 15.6, 16.7, 16.8, 16.6, 16.5, 16.7, 17.9, 16.6, 15.8, 17.6, 16.6, 15.5, 17.9, 15.5, 16.8, 17.1, 16.1, 16.8]",60.0,62.0,60.0,4990.6,[],,,,,,,,,,,,,,,,,,,,,,,,,HRV,HRV_0136,2022-11-30 18:19:51
,wl-html-keyboard-response,2,30895,0.0-2.0-0.0,0.0,3.0,,,,,,,,21683.899999976158,0.0,0,,,,,,,,,,,,,,,,,,,,,,HRV,HRV_0136,2022-11-30 18:19:51
,wl-rdm,3,39576,0.0-3.0-0.0,0.0,4.0,,,,,,,[],,,,0.0,0.0,87.9,0.0,u,0.0,True,3093.600000023842,186.0,60.0,40.0,False,,3000.0,[],"[960, 600]",ColorTask_Demo,,,,,HRV,HRV_0136,2022-11-30 18:19:51
,wl-rdm,4,45079,0.0-3.0-1.0,0.0,5.0,,,,,,,[],,,,0.0,0.0,87.9,1.0,i,1.0,True,1451.8999999761581,87.0,60.0,40.0,False,,2000.0,[],"[960, 600]",ColorTask_Demo,,,,,HRV,HRV_0136,2022-11-30 18:19:51
,wl-html-keyboard-response,5,52620,0.0-3.0-2.0,0.0,6.0,,,,,,,,5535.900000035763,0.0,1,,,,,,,,,,,,,,,,,,,,,,HRV,HRV_0136,2022-11-30 18:19:51
,wl-html-keyboard-response,6,61381,0.0-4.0-0.0,0.0,7.0,,,,,,,,6757.199999988079,0.0,0,,,,,,,,,,,,,,,,,,,,,,HRV,HRV_0136,2022-11-30 18:19:51
,wl-html-keyboard-response,7,74229,0.0-5.0-0.0,0.0,8.0,,,,,,,,10845.5,0.0,0,,,,,,,,,,,,,,,,,,,,,,HRV,HRV_0136,2022-11-30 18:19:51
,wl-rdm,8,77013,0.0-6.0-0.0,0.0,9.0,,,,,,,[],,,,,,50.0,0.0,u,0.0,True,1329.800000011921,80.0,60.0,40.0,False,,399.0676169791369,[],"[960, 600]",ColorTask,1.0,1.0,,,HRV,HRV_0136,2022-11-30 18:19:51
,wl-rdm,9,80113,0.0-6.1-0.1,0.0,10.0,,,,,,,[],,,,,,53.2,1.0,u,0.0,False,1694.0999999642372,102.0,60.0,40.0,False,,348.59369992822974,[],"[960, 600]",ColorTask,0.0,2.0,,,HRV,HRV_0136,2022-11-30 18:19:51
,wl-rdm,10,82629,0.0-6.2-0.2,0.0,11.0,,,,,,,[],,,,,,56.4,1.0,u,0.0,False,1129.6000000238419,68.0,60.0,40.0,False,,331.86582866082153,[],"[960, 600]",ColorTask,-1.0,3.0,,,HRV,HRV_0136,2022-11-30 18:19:51
,wl-rdm,11,84929,0.0-6.3-0.3,0.0,12.0,,,,,,,[],,,,,,53.2,1.0,i,1.0,True,930.5,56.0,60.0,40.0,False,,301.6465600169039,[],"[960, 600]",ColorTask,0.0,4.0,,,HRV,HRV_0136,2022-11-30 18:19:51
,wl-rdm,12,87197,0.0-6.4-0.4,0.0,13.0,,,,,,,[],,,,,,62.5,0.0,u,0.0,True,927.8000000119209,56.0,60.0,40.0,False,,261.28455246055927,[],"[960, 600]",ColorTask,1.0,5.0,,,HRV,HRV_0136,2022-11-30 18:19:51
,wl-rdm,13,89914,0.0-6.5-0.5,0.0,14.0,,,,,,,[],,,,,,50.0,1.0,i,1.0,True,1414.7999999523163,85.0,60.0,40.0,False,,246.632956443732,[],"[960, 600]",ColorTask,2.0,6.0,,,HRV,HRV_0136,2022-11-30 18:19:51
,wl-rdm,14,92464,0.0-6.6-0.6,0.0,15.0,,,,,,,[],,,,,,50.0,1.0,i,1.0,True,1193.0,72.0,60.0,40.0,False,,287.05559148200484,[],"[960, 600]",ColorTask,3.0,7.0,,,HRV,HRV_0136,2022-11-30 18:19:51
,wl-rdm,15,94631,0.0-6.7-0.7,0.0,16.0,,,,,,,[],,,,,,62.5,0.0,u,0.0,True,763.3000000119209,46.0,60.0,40.0,False,,321.7565579635313,[],"[960, 600]",ColorTask,4.0,8.0,,,HRV,HRV_0136,2022-11-30 18:19:51
,wl-rdm,16,96632,0.0-6.8-0.8,0.0,17.0,,,,,,,[],,,,,,87.9,0.0,u,0.0,True,710.9000000357628,43.0,60.0,40.0,False,,223.52558804530307,[],"[960, 600]",ColorTask,5.0,9.0,,,HRV,HRV_0136,2022-11-30 18:19:51
,wl-rdm,17,99117,0.0-6.9-0.9,0.0,18.0,,,,,,,[],,,,,,56.4,1.0,i,1.0,True,1058.1999999284744,64.0,60.0,40.0,False,,345.463272107123,[],"[960, 600]",ColorTask,6.0,10.0,,,HRV,HRV_0136,2022-11-30 18:19:51
,wl-rdm,18,101132,0.0-6.10-0.10,0.0,19.0,,,,,,,[],,,,,,50.0,0.0,i,1.0,False,712.0999999642372,43.0,60.0,40.0,False,,235.47308120350647,[],"[960, 600]",ColorTask,5.0,11.0,,,HRV,HRV_0136,2022-11-30 18:19:51
,wl-rdm,19,103216,0.0-6.11-0.11,0.0,20.0,,,,,,,[],,,,,,56.4,0.0,u,0.0,True,724.1000000238419,44.0,60.0,40.0,False,,294.23343538796564,[],"[960, 600]",ColorTask,6.0,12.0,,,HRV,HRV_0136,2022-11-30 18:19:51
,wl-rdm,20,105749,0.0-6.12-0.12,0.0,21.0,,,,,,,[],,,,,,53.2,0.0,u,0.0,True,1205.7999999523163,73.0,60.0,40.0,False,,233.71028431321477,[],"[960, 600]",ColorTask,7.0,13.0,,,HRV,HRV_0136,2022-11-30 18:19:51
,wl-rdm,21,107866,0.0-6.13-0.13,0.0,22.0,,,,,,,[],,,,,,53.2,0.0,u,0.0,True,774.2999999523163,47.0,60.0,40.0,False,,258.8273967524261,[],"[960, 600]",ColorTask,8.0,14.0,,,HRV,HRV_0136,2022-11-30 18:19:51
,wl-rdm,22,110218,0.0-6.14-0.14,0.0,23.0,,,,,,,[],,,,,,73.6,1.0,i,1.0,True,1025.6000000238419,62.0,60.0,40.0,False,,261.3524485062031,[],"[960, 600]",ColorTask,9.0,15.0,,,HRV,HRV_0136,2022-11-30 18:19:51
,wl-rdm,23,112434,0.0-6.15-0.15,0.0,24.0,,,,,,,[],,,,,,56.4,0.0,u,0.0,True,882.0,53.0,60.0,40.0,False,,264.0690230962906,[],"[960, 600]",ColorTask,10.0,16.0,,,HRV,HRV_0136,2022-11-30 18:19:51
,wl-rdm,24,114885,0.0-6.16-0.16,0.0,25.0,,,,,,,[],,,,,,87.9,1.0,i,1.0,True,974.3999999761581,59.0,60.0,40.0,False,,398.4187798953905,[],"[960, 600]",ColorTask,11.0,17.0,,,HRV,HRV_0136,2022-11-30 18:19:51
,wl-rdm,25,116884,0.0-6.17-0.17,0.0,26.0,,,,,,,[],,,,,,56.4,0.0,u,0.0,True,689.3000000119209,42.0,60.0,40.0,False,,239.03450623402682,[],"[960, 600]",ColorTask,12.0,18.0,,,HRV,HRV_0136,2022-11-30 18:19:51
,wl-rdm,26,118835,0.0-6.18-0.18,0.0,27.0,,,,,,,[],,,,,,62.5,0.0,u,0.0,True,546.0,33.0,60.0,40.0,False,,319.0153571853904,[],"[960, 600]",ColorTask,13.0,19.0,,,HRV,HRV_0136,2022-11-30 18:19:51
,wl-rdm,27,121270,0.0-6.19-0.19,0.0,28.0,,,,,,,[],,,,,,62.5,0.0,u,0.0,True,1111.0,67.0,60.0,40.0,False,,247.15862496466613,[],"[960, 600]",ColorTask,14.0,20.0,,,HRV,HRV_0136,2022-11-30 18:19:51
,wl-rdm,28,123753,0.0-6.20-0.20,0.0,29.0,,,,,,,[],,,,,,53.2,0.0,i,1.0,False,1115.0000000596046,67.0,60.0,40.0,False,,305.1671939688647,[],"[960, 600]",ColorTask,13.0,21.0,,,HRV,HRV_0136,2022-11-30 18:19:51
,wl-rdm,29,125952,0.0-6.21-0.21,0.0,30.0,,,,,,,[],,,,,,50.0,1.0,u,0.0,False,759.3999999761581,46.0,60.0,40.0,False,,380.7201338923685,[],"[960, 600]",ColorTask,12.0,22.0,,,HRV,HRV_0136,2022-11-30 18:19:51
,wl-rdm,30,128736,0.0-6.22-0.22,0.0,31.0,,,,,,,[],,,,,,53.2,0.0,u,0.0,True,1443.800000011921,87.0,60.0,40.0,False,,277.1381901097614,[],"[960, 600]",ColorTask,13.0,23.0,,,HRV,HRV_0136,2022-11-30 18:19:51
,wl-rdm,31,130854,0.0-6.23-0.23,0.0,32.0,,,,,,,[],,,,,,87.9,0.0,u,0.0,True,827.1000000238419,50.0,60.0,40.0,False,,220.28572548964755,[],"[960, 600]",ColorTask,14.0,24.0,,,HRV,HRV_0136,2022-11-30 18:19:51
,wl-rdm,32,133120,0.0-6.24-0.24,0.0,33.0,,,,,,,[],,,,,,73.6,0.0,u,0.0,True,926.1000000238419,56.0,60.0,40.0,False,,282.13146820830116,[],"[960, 600]",ColorTask,15.0,25.0,,,HRV,HRV_0136,2022-11-30 18:19:51
,wl-rdm,33,135454,0.0-6.25-0.25,0.0,34.0,,,,,,,[],,,,,,73.6,0.0,u,0.0,True,943.3000000119209,57.0,60.0,40.0,False,,322.05039879321896,[],"[960, 600]",ColorTask,16.0,26.0,,,HRV,HRV_0136,2022-11-30 18:19:51
,wl-rdm,34,137921,0.0-6.26-0.26,0.0,35.0,,,,,,,[],,,,,,73.6,1.0,i,1.0,True,1058.2000000476837,64.0,60.0,40.0,False,,348.92408176528477,[],"[960, 600]",ColorTask,17.0,27.0,,,HRV,HRV_0136,2022-11-30 18:19:51
,wl-rdm,35,140022,0.0-6.27-0.27,0.0,36.0,,,,,,,[],,,,,,87.9,1.0,i,1.0,True,809.1000000238419,49.0,60.0,40.0,False,,223.9592397659138,[],"[960, 600]",ColorTask,18.0,28.0,,,HRV,HRV_0136,2022-11-30 18:19:51
,wl-rdm,36,142921,0.0-6.28-0.28,0.0,37.0,,,,,,,[],,,,,,53.2,1.0,u,0.0,False,1611.0,97.0,60.0,40.0,False,,211.40019137483273,[],"[960, 600]",ColorTask,17.0,29.0,,,HRV,HRV_0136,2022-11-30 18:19:51
,wl-rdm,37,145472,0.0-6.29-0.29,0.0,38.0,,,,,,,[],,,,,,73.6,1.0,i,1.0,True,1265.7000000476837,76.0,60.0,40.0,False,,228.03625553256109,[],"[960, 600]",ColorTask,18.0,30.0,,,HRV,HRV_0136,2022-11-30 18:19:51
,wl-rdm,38,147889,0.0-6.30-0.30,0.0,39.0,,,,,,,[],,,,,,73.6,1.0,i,1.0,True,980.1000000238419,59.0,60.0,40.0,False,,380.7190159629204,[],"[960, 600]",ColorTask,19.0,31.0,,,HRV,HRV_0136,2022-11-30 18:19:51
,wl-rdm,39,150023,0.0-6.31-0.31,0.0,40.0,,,,,,,[],,,,,,50.0,0.0,u,0.0,True,682.3000000119209,41.0,60.0,40.0,False,,389.6873278574061,[],"[960, 600]",ColorTask,20.0,32.0,,,HRV,HRV_0136,2022-11-30 18:19:51
,wl-rdm,40,152139,0.0-6.32-0.32,0.0,41.0,,,,,,,[],,,,,,87.9,0.0,u,0.0,True,691.5999999642372,42.0,60.0,40.0,False,,344.1927515279292,[],"[960, 600]",ColorTask,21.0,33.0,,,HRV,HRV_0136,2022-11-30 18:19:51
,wl-rdm,41,154340,0.0-6.33-0.33,0.0,42.0,,,,,,,[],,,,,,62.5,0.0,u,0.0,True,927.3000000119209,56.0,60.0,40.0,False,,213.74292038727444,[],"[960, 600]",ColorTask,22.0,34.0,,,HRV,HRV_0136,2022-11-30 18:19:51
,wl-rdm,42,156425,0.0-6.34-0.34,0.0,43.0,,,,,,,[],,,,,,62.5,0.0,u,0.0,True,681.7999999523163,41.0,60.0,40.0,False,,343.8065123712245,[],"[960, 600]",ColorTask,23.0,35.0,,,HRV,HRV_0136,2022-11-30 18:19:51
,wl-rdm,43,158774,0.0-6.35-0.35,0.0,44.0,,,,,,,[],,,,,,73.6,1.0,i,1.0,True,894.3000000119209,54.0,60.0,40.0,False,,376.9586080978466,[],"[960, 600]",ColorTask,24.0,36.0,,,HRV,HRV_0136,2022-11-30 18:19:51
,wl-rdm,44,161157,0.0-6.36-0.36,0.0,45.0,,,,,,,[],,,,,,73.6,1.0,i,1.0,True,1032.699999988079,62.0,60.0,40.0,False,,292.4706011092933,[],"[960, 600]",ColorTask,25.0,37.0,,,HRV,HRV_0136,2022-11-30 18:19:51
,wl-rdm,45,165591,0.0-6.37-0.37,0.0,45.0,,,,,,,[],,,,,,53.2,0.0,i,,,3309.0000000596046,179.0,60.0,40.0,True,RT_timeout ,348.40700424619274,[],"[960, 600]",ColorTask,24.0,38.0,,,HRV,HRV_0136,2022-11-30 18:19:51
,wl-rdm,46,167591,0.0-6.38-0.38,0.0,46.0,,,,,,,[],,,,,,73.6,0.0,u,0.0,True,698.6999999880791,42.0,60.0,40.0,False,,225.94188786410547,[],"[960, 600]",ColorTask,25.0,39.0,,,HRV,HRV_0136,2022-11-30 18:19:51
,wl-rdm,47,169808,0.0-6.39-0.39,0.0,47.0,,,,,,,[],,,,,,73.6,1.0,i,1.0,True,926.0999999642372,56.0,60.0,40.0,False,,209.94870148984566,[],"[960, 600]",ColorTask,26.0,40.0,,,HRV,HRV_0136,2022-11-30 18:19:51
,wl-rdm,48,171875,0.0-6.40-0.40,0.0,48.0,,,,,,,[],,,,,,62.5,0.0,u,0.0,True,690.8999999761581,42.0,60.0,40.0,False,,294.54349697966825,[],"[960, 600]",ColorTask,27.0,41.0,,,HRV,HRV_0136,2022-11-30 18:19:51
,wl-rdm,49,174509,0.0-6.41-0.41,0.0,49.0,,,,,,,[],,,,,,53.2,1.0,u,0.0,False,1322.0999999642372,80.0,60.0,40.0,False,,218.29186660094743,[],"[960, 600]",ColorTask,26.0,42.0,,,HRV,HRV_0136,2022-11-30 18:19:51
,wl-rdm,50,176610,0.0-6.42-0.42,0.0,50.0,,,,,,,[],,,,,,73.6,1.0,i,1.0,True,735.5000000596046,45.0,60.0,40.0,False,,299.65466328534285,[],"[960, 600]",ColorTask,27.0,43.0,,,HRV,HRV_0136,2022-11-30 18:19:51
,wl-rdm,51,179060,0.0-6.43-0.43,0.0,51.0,,,,,,,[],,,,,,53.2,1.0,i,1.0,True,1177.699999988079,69.0,60.0,40.0,False,,210.0842422748453,[],"[960, 600]",ColorTask,28.0,44.0,,,HRV,HRV_0136,2022-11-30 18:19:51
,wl-rdm,52,181193,0.0-6.44-0.44,0.0,52.0,,,,,,,[],,,,,,62.5,0.0,u,0.0,True,862.9000000357628,52.0,60.0,40.0,False,,211.95355906443513,[],"[960, 600]",ColorTask,29.0,45.0,,,HRV,HRV_0136,2022-11-30 18:19:51
,wl-rdm,53,183443,0.0-6.45-0.45,0.0,53.0,,,,,,,[],,,,,,50.0,1.0,u,0.0,False,935.3999999761581,57.0,60.0,40.0,False,,245.8945214138518,[],"[960, 600]",ColorTask,28.0,46.0,,,HRV,HRV_0136,2022-11-30 18:19:51
,wl-rdm,54,185728,0.0-6.46-0.46,0.0,54.0,,,,,,,[],,,,,,53.2,1.0,u,0.0,False,863.4999999403954,52.0,60.0,40.0,False,,360.85712639558017,[],"[960, 600]",ColorTask,27.0,47.0,,,HRV,HRV_0136,2022-11-30 18:19:51
,wl-rdm,55,188595,0.0-6.47-0.47,0.0,55.0,,,,,,,[],,,,,,62.5,1.0,i,1.0,True,1461.7999999523163,88.0,60.0,40.0,False,,336.3185914750808,[],"[960, 600]",ColorTask,28.0,48.0,,,HRV,HRV_0136,2022-11-30 18:19:51
,wl-rdm,56,191611,0.0-6.48-0.48,0.0,56.0,,,,,,,[],,,,,,62.5,1.0,i,1.0,True,1596.0,96.0,60.0,40.0,False,,364.4024205862314,[],"[960, 600]",ColorTask,29.0,49.0,,,HRV,HRV_0136,2022-11-30 18:19:51
,wl-rdm,57,193779,0.0-6.49-0.49,0.0,57.0,,,,,,,[],,,,,,62.5,1.0,i,1.0,True,726.3000000119209,44.0,60.0,40.0,False,,350.7984875206844,[],"[960, 600]",ColorTask,30.0,50.0,,,HRV,HRV_0136,2022-11-30 18:19:51
,wl-rdm,58,195795,0.0-6.50-0.50,0.0,58.0,,,,,,,[],,,,,,73.6,0.0,u,0.0,True,644.3999999761581,39.0,60.0,40.0,False,,286.8921776256776,[],"[960, 600]",ColorTask,31.0,51.0,,,HRV,HRV_0136,2022-11-30 18:19:51
,wl-rdm,59,198563,0.0-6.51-0.51,0.0,59.0,,,,,,,[],,,,,,50.0,0.0,u,0.0,True,1364.5000000596046,82.0,60.0,40.0,False,,348.6128312602883,[],"[960, 600]",ColorTask,32.0,52.0,,,HRV,HRV_0136,2022-11-30 18:19:51
,wl-rdm,60,201147,0.0-6.52-0.52,0.0,60.0,,,,,,,[],,,,,,56.4,1.0,i,1.0,True,1156.199999988079,70.0,60.0,40.0,False,,356.6207402764518,[],"[960, 600]",ColorTask,33.0,53.0,,,HRV,HRV_0136,2022-11-30 18:19:51
,wl-rdm,61,203096,0.0-6.53-0.53,0.0,61.0,,,,,,,[],,,,,,87.9,1.0,i,1.0,True,654.4000000357628,40.0,60.0,40.0,False,,220.18579925400715,[],"[960, 600]",ColorTask,34.0,54.0,,,HRV,HRV_0136,2022-11-30 18:19:51
,wl-rdm,62,205213,0.0-6.54-0.54,0.0,62.0,,,,,,,[],,,,,,56.4,1.0,u,0.0,False,848.7999999523163,51.0,60.0,40.0,False,,203.03299758301566,[],"[960, 600]",ColorTask,33.0,55.0,,,HRV,HRV_0136,2022-11-30 18:19:51
,wl-rdm,63,207247,0.0-6.55-0.55,0.0,63.0,,,,,,,[],,,,,,87.9,0.0,u,0.0,True,631.7999999523163,38.0,60.0,40.0,False,,332.1723044990981,[],"[960, 600]",ColorTask,34.0,56.0,,,HRV,HRV_0136,2022-11-30 18:19:51
,wl-rdm,64,210297,0.0-6.56-0.56,0.0,64.0,,,,,,,[],,,,,,56.4,1.0,i,1.0,True,1646.300000011921,99.0,60.0,40.0,False,,336.96033732589467,[],"[960, 600]",ColorTask,35.0,57.0,,,HRV,HRV_0136,2022-11-30 18:19:51
,wl-rdm,65,212514,0.0-6.57-0.57,0.0,65.0,,,,,,,[],,,,,,73.6,0.0,u,0.0,True,856.8999999761581,52.0,60.0,40.0,False,,295.51032717811916,[],"[960, 600]",ColorTask,36.0,58.0,,,HRV,HRV_0136,2022-11-30 18:19:51
,wl-rdm,66,214530,0.0-6.58-0.58,0.0,66.0,,,,,,,[],,,,,,56.4,0.0,u,0.0,True,639.6000000238419,39.0,60.0,40.0,False,,313.0849771560095,[],"[960, 600]",ColorTask,37.0,59.0,,,HRV,HRV_0136,2022-11-30 18:19:51
,wl-rdm,67,216648,0.0-6.59-0.59,0.0,67.0,,,,,,,[],,,,,,62.5,0.0,u,0.0,True,724.7999999523163,44.0,60.0,40.0,False,,325.1518304944091,[],"[960, 600]",ColorTask,38.0,60.0,,,HRV,HRV_0136,2022-11-30 18:19:51
,wl-rdm,68,218932,0.0-6.60-0.60,0.0,68.0,,,,,,,[],,,,,,56.4,0.0,u,0.0,True,886.1000000238419,54.0,60.0,40.0,False,,329.440097270411,[],"[960, 600]",ColorTask,39.0,61.0,,,HRV,HRV_0136,2022-11-30 18:19:51
,wl-rdm,69,220948,0.0-6.61-0.61,0.0,69.0,,,,,,,[],,,,,,73.6,0.0,u,0.0,True,733.1999999880791,44.0,60.0,40.0,False,,232.61619591685368,[],"[960, 600]",ColorTask,40.0,62.0,,,HRV,HRV_0136,2022-11-30 18:19:51
,wl-rdm,70,223066,0.0-6.62-0.62,0.0,70.0,,,,,,,[],,,,,,87.9,0.0,u,0.0,True,640.0000000596046,39.0,60.0,40.0,False,,399.1186717218846,[],"[960, 600]",ColorTask,41.0,63.0,,,HRV,HRV_0136,2022-11-30 18:19:51
,wl-rdm,71,225484,0.0-6.63-0.63,0.0,71.0,,,,,,,[],,,,,,50.0,1.0,i,1.0,True,1121.9000000357628,68.0,60.0,40.0,False,,224.96281833780057,[],"[960, 600]",ColorTask,42.0,64.0,,,HRV,HRV_0136,2022-11-30 18:19:51
,wl-rdm,72,228467,0.0-6.64-0.64,0.0,72.0,,,,,,,[],,,,,,56.4,1.0,i,1.0,True,1613.1000000238419,98.0,60.0,40.0,False,,301.4147744517161,[],"[960, 600]",ColorTask,43.0,65.0,,,HRV,HRV_0136,2022-11-30 18:19:51
,wl-rdm,73,230716,0.0-6.65-0.65,0.0,73.0,,,,,,,[],,,,,,50.0,0.0,i,1.0,False,790.8000000119209,48.0,60.0,40.0,False,,375.8730165924437,[],"[960, 600]",ColorTask,42.0,66.0,,,HRV,HRV_0136,2022-11-30 18:19:51
,wl-rdm,74,233300,0.0-6.66-0.66,0.0,74.0,,,,,,,[],,,,,,62.5,1.0,i,1.0,True,1264.8999999761581,76.0,60.0,40.0,False,,260.4006788047991,[],"[960, 600]",ColorTask,43.0,67.0,,,HRV,HRV_0136,2022-11-30 18:19:51
,wl-rdm,75,235301,0.0-6.67-0.67,0.0,75.0,,,,,,,[],,,,,,87.9,1.0,i,1.0,True,681.3000000119209,41.0,60.0,40.0,False,,235.3981823704384,[],"[960, 600]",ColorTask,44.0,68.0,,,HRV,HRV_0136,2022-11-30 18:19:51
,wl-rdm,76,237385,0.0-6.68-0.68,0.0,76.0,,,,,,,[],,,,,,87.9,0.0,u,0.0,True,707.8000000715256,43.0,60.0,40.0,False,,291.9595468095474,[],"[960, 600]",ColorTask,45.0,69.0,,,HRV,HRV_0136,2022-11-30 18:19:51
,wl-rdm,77,240036,0.0-6.69-0.69,0.0,77.0,,,,,,,[],,,,,,62.5,1.0,i,1.0,True,1273.0999999642372,77.0,60.0,40.0,False,,311.86926081725346,[],"[960, 600]",ColorTask,46.0,70.0,,,HRV,HRV_0136,2022-11-30 18:19:51
,wl-rdm,78,242335,0.0-6.70-0.70,0.0,78.0,,,,,,,[],,,,,,50.0,0.0,u,0.0,True,911.8000000119209,55.0,60.0,40.0,False,,321.87799899094847,[],"[960, 600]",ColorTask,47.0,71.0,,,HRV,HRV_0136,2022-11-30 18:19:51
,wl-rdm,79,244635,0.0-6.71-0.71,0.0,79.0,,,,,,,[],,,,,,53.2,0.0,u,0.0,True,875.6999999880791,53.0,60.0,40.0,False,,363.5539724540915,[],"[960, 600]",ColorTask,48.0,72.0,,,HRV,HRV_0136,2022-11-30 18:19:51
,wl-rdm,80,246686,0.0-6.72-0.72,0.0,80.0,,,,,,,[],,,,,,87.9,1.0,i,1.0,True,694.5,42.0,60.0,40.0,False,,284.35269283872174,[],"[960, 600]",ColorTask,49.0,73.0,,,HRV,HRV_0136,2022-11-30 18:19:51
,wl-rdm,81,248853,0.0-6.73-0.73,0.0,81.0,,,,,,,[],,,,,,53.2,0.0,u,0.0,True,781.5,47.0,60.0,40.0,False,,333.3359208420821,[],"[960, 600]",ColorTask,50.0,74.0,,,HRV,HRV_0136,2022-11-30 18:19:51
,wl-rdm,82,250819,0.0-6.74-0.74,0.0,82.0,,,,,,,[],,,,,,73.6,0.0,i,1.0,False,658.6999999880791,40.0,60.0,40.0,False,,242.51865872299004,[],"[960, 600]",ColorTask,49.0,75.0,,,HRV,HRV_0136,2022-11-30 18:19:51
,wl-rdm,83,252920,0.0-6.75-0.75,0.0,83.0,,,,,,,[],,,,,,56.4,1.0,i,1.0,True,746.3999999761581,45.0,60.0,40.0,False,,285.8400321482647,[],"[960, 600]",ColorTask,50.0,76.0,,,HRV,HRV_0136,2022-11-30 18:19:51
,wl-rdm,84,255220,0.0-6.76-0.76,0.0,84.0,,,,,,,[],,,,,,53.2,1.0,u,0.0,False,983.2999999523163,59.0,60.0,40.0,False,,266.5990859602845,[],"[960, 600]",ColorTask,49.0,77.0,,,HRV,HRV_0136,2022-11-30 18:19:51
,wl-rdm,85,257171,0.0-6.77-0.77,0.0,85.0,,,,,,,[],,,,,,87.9,0.0,u,0.0,True,625.8999999761581,38.0,60.0,40.0,False,,257.10938354889316,[],"[960, 600]",ColorTask,50.0,78.0,,,HRV,HRV_0136,2022-11-30 18:19:51
,wl-rdm,86,259271,0.0-6.78-0.78,0.0,86.0,,,,,,,[],,,,,,56.4,1.0,i,1.0,True,794.3000000119209,48.0,60.0,40.0,False,,249.8026230657466,[],"[960, 600]",ColorTask,51.0,79.0,,,HRV,HRV_0136,2022-11-30 18:19:51
,wl-rdm,87,261572,0.0-6.79-0.79,0.0,87.0,,,,,,,[],,,,,,50.0,0.0,u,0.0,True,1004.7999999523163,61.0,60.0,40.0,False,,200.2253314037775,[],"[960, 600]",ColorTask,52.0,80.0,,,HRV,HRV_0136,2022-11-30 18:19:51
,wl-rdm,88,263789,0.0-6.80-0.80,0.0,88.0,,,,,,,[],,,,,,62.5,1.0,u,0.0,False,894.9000000357628,54.0,60.0,40.0,False,,233.88219314950118,[],"[960, 600]",ColorTask,51.0,81.0,,,HRV,HRV_0136,2022-11-30 18:19:51
,wl-rdm,89,266371,0.0-6.81-0.81,0.0,89.0,,,,,,,[],,,,,,62.5,1.0,i,1.0,True,1249.8999999761581,75.0,60.0,40.0,False,,264.2866413320823,[],"[960, 600]",ColorTask,52.0,82.0,,,HRV,HRV_0136,2022-11-30 18:19:51
,wl-rdm,90,268505,0.0-6.82-0.82,0.0,90.0,,,,,,,[],,,,,,87.9,0.0,u,0.0,True,772.7000000476837,47.0,60.0,40.0,False,,282.3747010604741,[],"[960, 600]",ColorTask,53.0,83.0,,,HRV,HRV_0136,2022-11-30 18:19:51
,wl-rdm,91,270789,0.0-6.83-0.83,0.0,91.0,,,,,,,[],,,,,,53.2,0.0,u,0.0,True,1000.3000000119209,60.0,60.0,40.0,False,,231.9299606782744,[],"[960, 600]",ColorTask,54.0,84.0,,,HRV,HRV_0136,2022-11-30 18:19:51
,wl-rdm,92,273022,0.0-6.84-0.84,0.0,92.0,,,,,,,[],,,,,,87.9,1.0,i,1.0,True,813.0999999642372,49.0,60.0,40.0,False,,361.0844807854588,[],"[960, 600]",ColorTask,55.0,85.0,,,HRV,HRV_0136,2022-11-30 18:19:51
,wl-rdm,93,275423,0.0-6.85-0.85,0.0,93.0,,,,,,,[],,,,,,50.0,1.0,u,0.0,False,1026.3999999761581,62.0,60.0,40.0,False,,299.06278029975425,[],"[960, 600]",ColorTask,54.0,86.0,,,HRV,HRV_0136,2022-11-30 18:19:51
,wl-rdm,94,277341,0.0-6.86-0.86,0.0,94.0,,,,,,,[],,,,,,87.9,1.0,i,1.0,True,627.2000000476837,38.0,60.0,40.0,False,,205.5296610705609,[],"[960, 600]",ColorTask,55.0,87.0,,,HRV,HRV_0136,2022-11-30 18:19:51
,wl-rdm,95,280274,0.0-6.87-0.87,0.0,95.0,,,,,,,[],,,,,,53.2,1.0,i,1.0,True,1626.9000000357628,98.0,60.0,40.0,False,,218.0325288991828,[],"[960, 600]",ColorTask,56.0,88.0,,,HRV,HRV_0136,2022-11-30 18:19:51
,wl-rdm,96,282307,0.0-6.88-0.88,0.0,96.0,,,,,,,[],,,,,,62.5,1.0,i,1.0,True,697.2000000476837,42.0,60.0,40.0,False,,272.847990001143,[],"[960, 600]",ColorTask,57.0,89.0,,,HRV,HRV_0136,2022-11-30 18:19:51
,wl-rdm,97,284874,0.0-6.89-0.89,0.0,97.0,,,,,,,[],,,,,,50.0,0.0,u,0.0,True,1259.5999999642372,76.0,60.0,40.0,False,,247.07083742452983,[],"[960, 600]",ColorTask,58.0,90.0,,,HRV,HRV_0136,2022-11-30 18:19:51
,wl-rdm,98,286808,0.0-6.90-0.90,0.0,98.0,,,,,,,[],,,,,,73.6,0.0,u,0.0,True,639.8000000119209,39.0,60.0,40.0,False,,225.9980183296802,[],"[960, 600]",ColorTask,59.0,91.0,,,HRV,HRV_0136,2022-11-30 18:19:51
,wl-rdm,99,289026,0.0-6.91-0.91,0.0,99.0,,,,,,,[],,,,,,50.0,1.0,i,1.0,True,896.1999999880791,54.0,60.0,40.0,False,,251.9352007561903,[],"[960, 600]",ColorTask,60.0,92.0,,,HRV,HRV_0136,2022-11-30 18:19:51
,wl-rdm,100,291025,0.0-6.92-0.92,0.0,100.0,,,,,,,[],,,,,,53.2,0.0,u,0.0,True,636.3000000119209,39.0,60.0,40.0,False,,290.4424140772015,[],"[960, 600]",ColorTask,61.0,93.0,,,HRV,HRV_0136,2022-11-30 18:19:51
,wl-rdm,101,293242,0.0-6.93-0.93,0.0,101.0,,,,,,,[],,,,,,53.2,1.0,i,1.0,True,924.0,56.0,60.0,40.0,False,,233.84697700377498,[],"[960, 600]",ColorTask,62.0,94.0,,,HRV,HRV_0136,2022-11-30 18:19:51
,wl-rdm,102,295242,0.0-6.94-0.94,0.0,102.0,,,,,,,[],,,,,,87.9,0.0,u,0.0,True,582.0999999642372,35.0,60.0,40.0,False,,342.7863308541754,[],"[960, 600]",ColorTask,63.0,95.0,,,HRV,HRV_0136,2022-11-30 18:19:51
,wl-rdm,103,297126,0.0-6.95-0.95,0.0,103.0,,,,,,,[],,,,,,73.6,0.0,u,0.0,True,560.4000000357628,34.0,60.0,40.0,False,,259.039918341322,[],"[960, 600]",ColorTask,64.0,96.0,,,HRV,HRV_0136,2022-11-30 18:19:51
,wl-rdm,104,299594,0.0-6.96-0.96,0.0,104.0,,,,,,,[],,,,,,50.0,1.0,i,1.0,True,1003.6999999880791,61.0,60.0,40.0,False,,376.56086386626276,[],"[960, 600]",ColorTask,65.0,97.0,,,HRV,HRV_0136,2022-11-30 18:19:51
,wl-rdm,105,302060,0.0-6.97-0.97,0.0,105.0,,,,,,,[],,,,,,56.4,1.0,i,1.0,True,1081.5999999642372,65.0,60.0,40.0,False,,305.26151277467306,[],"[960, 600]",ColorTask,66.0,98.0,,,HRV,HRV_0136,2022-11-30 18:19:51
,wl-rdm,106,304144,0.0-6.98-0.98,0.0,106.0,,,,,,,[],,,,,,50.0,1.0,u,0.0,False,759.5,46.0,60.0,40.0,False,,254.5866033867514,[],"[960, 600]",ColorTask,65.0,99.0,,,HRV,HRV_0136,2022-11-30 18:19:51
,wl-rdm,107,306710,0.0-6.99-0.99,0.0,107.0,,,,,,,[],,,,,,56.4,0.0,u,0.0,True,1253.0999999642372,76.0,60.0,40.0,False,,233.43582089399817,[],"[960, 600]",ColorTask,66.0,100.0,,,HRV,HRV_0136,2022-11-30 18:19:51
,wl-rdm,108,308778,0.0-6.100-0.100,0.0,108.0,,,,,,,[],,,,,,73.6,1.0,i,1.0,True,749.6999999880791,45.0,60.0,40.0,False,,261.629794421776,[],"[960, 600]",ColorTask,67.0,101.0,,,HRV,HRV_0136,2022-11-30 18:19:51
,wl-rdm,109,311562,0.0-6.101-0.101,0.0,109.0,,,,,,,[],,,,,,50.0,0.0,u,0.0,True,1357.0,82.0,60.0,40.0,False,,363.5612149380647,[],"[960, 600]",ColorTask,68.0,102.0,,,HRV,HRV_0136,2022-11-30 18:19:51
,wl-rdm,110,314245,0.0-6.102-0.102,0.0,110.0,,,,,,,[],,,,,,62.5,1.0,i,1.0,True,1314.800000011921,79.0,60.0,40.0,False,,313.61613440648114,[],"[960, 600]",ColorTask,69.0,103.0,,,HRV,HRV_0136,2022-11-30 18:19:51
,wl-rdm,111,316462,0.0-6.103-0.103,0.0,111.0,,,,,,,[],,,,,,56.4,0.0,u,0.0,True,812.2999999523163,49.0,60.0,40.0,False,,331.1218597387799,[],"[960, 600]",ColorTask,70.0,104.0,,,HRV,HRV_0136,2022-11-30 18:19:51
,wl-rdm,112,318813,0.0-6.104-0.104,0.0,112.0,,,,,,,[],,,,,,53.2,0.0,u,0.0,True,1063.8999999761581,64.0,60.0,40.0,False,,210.25147261246428,[],"[960, 600]",ColorTask,71.0,105.0,,,HRV,HRV_0136,2022-11-30 18:19:51
,wl-rdm,113,320912,0.0-6.105-0.105,0.0,113.0,,,,,,,[],,,,,,87.9,1.0,i,1.0,True,786.7999999523163,48.0,60.0,40.0,False,,227.3637804190824,[],"[960, 600]",ColorTask,72.0,106.0,,,HRV,HRV_0136,2022-11-30 18:19:51
,wl-rdm,114,323630,0.0-6.106-0.106,0.0,114.0,,,,,,,[],,,,,,56.4,0.0,u,0.0,True,1331.199999988079,80.0,60.0,40.0,False,,330.8393417629493,[],"[960, 600]",ColorTask,73.0,107.0,,,HRV,HRV_0136,2022-11-30 18:19:51
,wl-rdm,115,325796,0.0-6.107-0.107,0.0,115.0,,,,,,,[],,,,,,56.4,0.0,u,0.0,True,862.1999999880791,52.0,60.0,40.0,False,,239.3951524263975,[],"[960, 600]",ColorTask,74.0,108.0,,,HRV,HRV_0136,2022-11-30 18:19:51
,wl-rdm,116,327880,0.0-6.108-0.108,0.0,116.0,,,,,,,[],,,,,,87.9,1.0,i,1.0,True,721.6999999880791,44.0,60.0,40.0,False,,263.5020708959039,[],"[960, 600]",ColorTask,75.0,109.0,,,HRV,HRV_0136,2022-11-30 18:19:51
,wl-html-keyboard-response,117,342150,0.0-7.0-0.0,1.0,117.0,,,,,,,,12263.199999988079,1.0,0,,,,,,,,,,,,,,,,,,,,,,HRV,HRV_0136,2022-11-30 18:19:51
,wl-rdm,118,344267,0.0-8.0-0.0,1.0,118.0,,,,,,,[],,,,,,73.6,0.0,u,0.0,True,747.5999999642372,45.0,60.0,40.0,False,,304.7815033255989,[],"[960, 600]",ColorTask,76.0,1.0,,,HRV,HRV_0136,2022-11-30 18:19:51
,wl-rdm,119,346200,0.0-8.1-0.1,1.0,119.0,,,,,,,[],,,,,,53.2,0.0,u,0.0,True,551.6999999880791,34.0,60.0,40.0,False,,289.28787568114666,[],"[960, 600]",ColorTask,77.0,2.0,,,HRV,HRV_0136,2022-11-30 18:19:51
,wl-rdm,120,348150,0.0-8.2-0.2,1.0,120.0,,,,,,,[],,,,,,87.9,0.0,u,0.0,True,506.19999998807907,31.0,60.0,40.0,False,,353.2903615001027,[],"[960, 600]",ColorTask,78.0,3.0,,,HRV,HRV_0136,2022-11-30 18:19:51
,wl-rdm,121,350083,0.0-8.3-0.3,1.0,121.0,,,,,,,[],,,,,,50.0,0.0,u,0.0,True,542.0,33.0,60.0,40.0,False,,316.3939546870475,[],"[960, 600]",ColorTask,79.0,4.0,,,HRV,HRV_0136,2022-11-30 18:19:51
,wl-rdm,122,352134,0.0-8.4-0.4,1.0,122.0,,,,,,,[],,,,,,53.2,0.0,u,0.0,True,761.5,46.0,60.0,40.0,False,,218.45288135945043,[],"[960, 600]",ColorTask,80.0,5.0,,,HRV,HRV_0136,2022-11-30 18:19:51
,wl-rdm,123,354150,0.0-8.5-0.5,1.0,123.0,,,,,,,[],,,,,,87.9,1.0,i,1.0,True,675.9000000357628,41.0,60.0,40.0,False,,257.8934875297175,[],"[960, 600]",ColorTask,81.0,6.0,,,HRV,HRV_0136,2022-11-30 18:19:51
,wl-rdm,124,356071,0.0-8.6-0.6,1.0,124.0,,,,,,,[],,,,,,62.5,0.0,u,0.0,True,608.9000000357628,37.0,60.0,40.0,False,,228.88206788915772,[],"[960, 600]",ColorTask,82.0,7.0,,,HRV,HRV_0136,2022-11-30 18:19:51
,wl-rdm,125,358039,0.0-8.7-0.7,1.0,125.0,,,,,,,[],,,,,,87.9,1.0,i,1.0,True,612.0,37.0,60.0,40.0,False,,289.17134517723383,[],"[960, 600]",ColorTask,83.0,8.0,,,HRV,HRV_0136,2022-11-30 18:19:51
,wl-rdm,126,360706,0.0-8.8-0.8,1.0,126.0,,,,,,,[],,,,,,53.2,1.0,i,1.0,True,1261.699999988079,76.0,60.0,40.0,False,,339.4351920247527,[],"[960, 600]",ColorTask,84.0,9.0,,,HRV,HRV_0136,2022-11-30 18:19:51
,wl-rdm,127,362622,0.0-8.9-0.9,1.0,127.0,,,,,,,[],,,,,,87.9,1.0,i,1.0,True,594.8999999761581,36.0,60.0,40.0,False,,243.29519085461516,[],"[960, 600]",ColorTask,85.0,10.0,,,HRV,HRV_0136,2022-11-30 18:19:51
,wl-rdm,128,364674,0.0-8.10-0.10,1.0,128.0,,,,,,,[],,,,,,50.0,1.0,u,0.0,False,625.7000000476837,38.0,60.0,40.0,False,,361.9252306489318,[],"[960, 600]",ColorTask,84.0,11.0,,,HRV,HRV_0136,2022-11-30 18:19:51
,wl-rdm,129,366773,0.0-8.11-0.11,1.0,129.0,,,,,,,[],,,,,,62.5,1.0,i,1.0,True,726.3999999761581,44.0,60.0,40.0,False,,304.4821310988916,[],"[960, 600]",ColorTask,85.0,12.0,,,HRV,HRV_0136,2022-11-30 18:19:51
,wl-rdm,130,370290,0.0-8.12-0.12,1.0,130.0,,,,,,,[],,,,,,56.4,0.0,u,0.0,True,2227.600000023842,134.0,60.0,40.0,False,,217.79620412745612,[],"[960, 600]",ColorTask,86.0,13.0,,,HRV,HRV_0136,2022-11-30 18:19:51
,wl-rdm,131,372423,0.0-8.13-0.13,1.0,131.0,,,,,,,[],,,,,,62.5,0.0,u,0.0,True,695.0999999642372,42.0,60.0,40.0,False,,375.9305024725151,[],"[960, 600]",ColorTask,87.0,14.0,,,HRV,HRV_0136,2022-11-30 18:19:51
,wl-rdm,132,374424,0.0-8.14-0.14,1.0,132.0,,,,,,,[],,,,,,73.6,1.0,i,1.0,True,712.0,43.0,60.0,40.0,False,,210.40335526122897,[],"[960, 600]",ColorTask,88.0,15.0,,,HRV,HRV_0136,2022-11-30 18:19:51
,wl-rdm,133,377191,0.0-8.15-0.15,1.0,133.0,,,,,,,[],,,,,,53.2,1.0,i,1.0,True,1472.5999999642372,89.0,60.0,40.0,False,,204.81539675213486,[],"[960, 600]",ColorTask,89.0,16.0,,,HRV,HRV_0136,2022-11-30 18:19:51
,wl-rdm,134,379510,0.0-8.16-0.16,1.0,134.0,,,,,,,[],,,,,,50.0,1.0,u,0.0,False,876.1000000238419,53.0,60.0,40.0,False,,373.32100257894245,[],"[960, 600]",ColorTask,88.0,17.0,,,HRV,HRV_0136,2022-11-30 18:19:51
,wl-rdm,135,382559,0.0-8.17-0.17,1.0,135.0,,,,,,,[],,,,,,62.5,1.0,i,1.0,True,1677.0999999642372,101.0,60.0,40.0,False,,313.7271636362922,[],"[960, 600]",ColorTask,89.0,18.0,,,HRV,HRV_0136,2022-11-30 18:19:51
,wl-rdm,136,385576,0.0-8.18-0.18,1.0,136.0,,,,,,,[],,,,,,56.4,1.0,i,1.0,True,1586.0999999642372,96.0,60.0,40.0,False,,356.7598555364939,[],"[960, 600]",ColorTask,90.0,19.0,,,HRV,HRV_0136,2022-11-30 18:19:51
,wl-rdm,137,388309,0.0-8.19-0.19,1.0,137.0,,,,,,,[],,,,,,56.4,1.0,i,1.0,True,1307.800000011921,79.0,60.0,40.0,False,,360.97625167009767,[],"[960, 600]",ColorTask,91.0,20.0,,,HRV,HRV_0136,2022-11-30 18:19:51
,wl-rdm,138,390609,0.0-8.20-0.20,1.0,138.0,,,,,,,[],,,,,,53.2,1.0,u,0.0,False,1014.8999999761581,61.0,60.0,40.0,False,,204.54458815951332,[],"[960, 600]",ColorTask,90.0,21.0,,,HRV,HRV_0136,2022-11-30 18:19:51
,wl-rdm,139,392727,0.0-8.21-0.21,1.0,139.0,,,,,,,[],,,,,,56.4,0.0,u,0.0,True,768.8999999761581,47.0,60.0,40.0,False,,265.4753058604757,[],"[960, 600]",ColorTask,91.0,22.0,,,HRV,HRV_0136,2022-11-30 18:19:51
,wl-rdm,140,395627,0.0-8.22-0.22,1.0,140.0,,,,,,,[],,,,,,53.2,1.0,u,0.0,False,1513.5000000596046,91.0,60.0,40.0,False,,323.9454466679999,[],"[960, 600]",ColorTask,90.0,23.0,,,HRV,HRV_0136,2022-11-30 18:19:51
,wl-rdm,141,398279,0.0-8.23-0.23,1.0,141.0,,,,,,,[],,,,,,56.4,0.0,u,0.0,True,1351.8999999761581,82.0,60.0,40.0,False,,220.01827405608324,[],"[960, 600]",ColorTask,91.0,24.0,,,HRV,HRV_0136,2022-11-30 18:19:51
,wl-rdm,142,400579,0.0-8.24-0.24,1.0,142.0,,,,,,,[],,,,,,87.9,0.0,u,0.0,True,831.8999999761581,50.0,60.0,40.0,False,,395.84430225219916,[],"[960, 600]",ColorTask,92.0,25.0,,,HRV,HRV_0136,2022-11-30 18:19:51
,wl-rdm,143,402728,0.0-8.25-0.25,1.0,143.0,,,,,,,[],,,,,,50.0,0.0,u,0.0,True,883.0999999642372,53.0,60.0,40.0,False,,216.51558673582804,[],"[960, 600]",ColorTask,93.0,26.0,,,HRV,HRV_0136,2022-11-30 18:19:51
,wl-rdm,144,405045,0.0-8.26-0.26,1.0,144.0,,,,,,,[],,,,,,73.6,1.0,i,1.0,True,957.6000000238419,58.0,60.0,40.0,False,,279.7083147257961,[],"[960, 600]",ColorTask,94.0,27.0,,,HRV,HRV_0136,2022-11-30 18:19:51
,wl-rdm,145,407529,0.0-8.27-0.27,1.0,145.0,,,,,,,[],,,,,,50.0,0.0,i,1.0,False,1199.0,72.0,60.0,40.0,False,,219.1858955624021,[],"[960, 600]",ColorTask,93.0,28.0,,,HRV,HRV_0136,2022-11-30 18:19:51
,wl-rdm,146,410378,0.0-8.28-0.28,1.0,146.0,,,,,,,[],,,,,,50.0,0.0,u,0.0,True,1530.1000000238419,92.0,60.0,40.0,False,,248.32489188248923,[],"[960, 600]",ColorTask,94.0,29.0,,,HRV,HRV_0136,2022-11-30 18:19:51
,wl-rdm,147,413181,0.0-8.29-0.29,1.0,147.0,,,,,,,[],,,,,,50.0,0.0,i,1.0,False,1475.8999999761581,89.0,60.0,40.0,False,,235.31489034858438,[],"[960, 600]",ColorTask,93.0,30.0,,,HRV,HRV_0136,2022-11-30 18:19:51
,wl-rdm,148,415130,0.0-8.30-0.30,1.0,148.0,,,,,,,[],,,,,,87.9,0.0,u,0.0,True,683.4000000357628,42.0,60.0,40.0,False,,202.03299064992876,[],"[960, 600]",ColorTask,94.0,31.0,,,HRV,HRV_0136,2022-11-30 18:19:51
,wl-rdm,149,418397,0.0-8.31-0.31,1.0,149.0,,,,,,,[],,,,,,53.2,1.0,i,1.0,True,1872.199999988079,113.0,60.0,40.0,False,,322.22827671271534,[],"[960, 600]",ColorTask,95.0,32.0,,,HRV,HRV_0136,2022-11-30 18:19:51
,wl-rdm,150,421865,0.0-8.32-0.32,1.0,150.0,,,,,,,[],,,,,,56.4,1.0,u,0.0,False,2111.599999964237,127.0,60.0,40.0,False,,273.0816836970747,[],"[960, 600]",ColorTask,94.0,33.0,,,HRV,HRV_0136,2022-11-30 18:19:51
,wl-rdm,151,424948,0.0-8.33-0.33,1.0,151.0,,,,,,,[],,,,,,53.2,0.0,i,1.0,False,1692.0,102.0,60.0,40.0,False,,324.86034665209826,[],"[960, 600]",ColorTask,93.0,34.0,,,HRV,HRV_0136,2022-11-30 18:19:51
,wl-rdm,152,426982,0.0-8.34-0.34,1.0,152.0,,,,,,,[],,,,,,73.6,1.0,i,1.0,True,695.1000000238419,42.0,60.0,40.0,False,,280.78222167444187,[],"[960, 600]",ColorTask,94.0,35.0,,,HRV,HRV_0136,2022-11-30 18:19:51
,wl-rdm,153,430015,0.0-8.35-0.35,1.0,153.0,,,,,,,[],,,,,,53.2,1.0,i,1.0,True,1729.199999988079,104.0,60.0,40.0,False,,233.36118781363666,[],"[960, 600]",ColorTask,95.0,36.0,,,HRV,HRV_0136,2022-11-30 18:19:51
,wl-rdm,154,432532,0.0-8.36-0.36,1.0,154.0,,,,,,,[],,,,,,53.2,0.0,u,0.0,True,1061.3999999761581,64.0,60.0,40.0,False,,387.81286203024274,[],"[960, 600]",ColorTask,96.0,37.0,,,HRV,HRV_0136,2022-11-30 18:19:51
,wl-rdm,155,434749,0.0-8.37-0.37,1.0,155.0,,,,,,,[],,,,,,73.6,1.0,i,1.0,True,887.3000000119209,54.0,60.0,40.0,False,,266.75025002785134,[],"[960, 600]",ColorTask,97.0,38.0,,,HRV,HRV_0136,2022-11-30 18:19:51
,wl-rdm,156,436816,0.0-8.38-0.38,1.0,156.0,,,,,,,[],,,,,,73.6,0.0,u,0.0,True,764.4999999403954,46.0,60.0,40.0,False,,244.5191575424751,[],"[960, 600]",ColorTask,98.0,39.0,,,HRV,HRV_0136,2022-11-30 18:19:51
,wl-rdm,157,439366,0.0-8.39-0.39,1.0,157.0,,,,,,,[],,,,,,62.5,1.0,i,1.0,True,1176.6000000238419,71.0,60.0,40.0,False,,288.9829388670863,[],"[960, 600]",ColorTask,99.0,40.0,,,HRV,HRV_0136,2022-11-30 18:19:51
,wl-rdm,158,441699,0.0-8.40-0.40,1.0,158.0,,,,,,,[],,,,,,50.0,1.0,u,0.0,False,1056.2999999523163,64.0,60.0,40.0,False,,203.76823069178556,[],"[960, 600]",ColorTask,98.0,41.0,,,HRV,HRV_0136,2022-11-30 18:19:51
,wl-rdm,159,444017,0.0-8.41-0.41,1.0,159.0,,,,,,,[],,,,,,73.6,0.0,u,0.0,True,995.9000000357628,60.0,60.0,40.0,False,,257.6853240352412,[],"[960, 600]",ColorTask,99.0,42.0,,,HRV,HRV_0136,2022-11-30 18:19:51
,wl-rdm,160,446135,0.0-8.42-0.42,1.0,160.0,,,,,,,[],,,,,,73.6,0.0,u,0.0,True,709.8999999761581,43.0,60.0,40.0,False,,337.35848271998293,[],"[960, 600]",ColorTask,100.0,43.0,,,HRV,HRV_0136,2022-11-30 18:19:51
,wl-rdm,161,448034,0.0-8.43-0.43,1.0,161.0,,,,,,,[],,,,,,62.5,0.0,u,0.0,True,511.5999999642372,31.0,60.0,40.0,False,,331.419518645892,[],"[960, 600]",ColorTask,101.0,44.0,,,HRV,HRV_0136,2022-11-30 18:19:51
,wl-rdm,162,449851,0.0-8.44-0.44,1.0,162.0,,,,,,,[],,,,,,73.6,1.0,i,1.0,True,491.60000002384186,30.0,60.0,40.0,False,,264.719916406592,[],"[960, 600]",ColorTask,102.0,45.0,,,HRV,HRV_0136,2022-11-30 18:19:51
,wl-rdm,163,452117,0.0-8.45-0.45,1.0,163.0,,,,,,,[],,,,,,73.6,1.0,i,1.0,True,843.3000000119209,51.0,60.0,40.0,False,,384.1849946662586,[],"[960, 600]",ColorTask,103.0,46.0,,,HRV,HRV_0136,2022-11-30 18:19:51
,wl-rdm,164,454235,0.0-8.46-0.46,1.0,164.0,,,,,,,[],,,,,,62.5,0.0,u,0.0,True,759.3000000119209,46.0,60.0,40.0,False,,296.8243141666727,[],"[960, 600]",ColorTask,104.0,47.0,,,HRV,HRV_0136,2022-11-30 18:19:51
,wl-rdm,165,456270,0.0-8.47-0.47,1.0,165.0,,,,,,,[],,,,,,73.6,0.0,i,1.0,False,677.6999999880791,41.0,60.0,40.0,False,,283.60266981998717,[],"[960, 600]",ColorTask,103.0,48.0,,,HRV,HRV_0136,2022-11-30 18:19:51
,wl-rdm,166,458536,0.0-8.48-0.48,1.0,166.0,,,,,,,[],,,,,,62.5,1.0,i,1.0,True,830.9000000357628,50.0,60.0,40.0,False,,370.2714865038993,[],"[960, 600]",ColorTask,104.0,49.0,,,HRV,HRV_0136,2022-11-30 18:19:51
,wl-rdm,167,460686,0.0-8.49-0.49,1.0,167.0,,,,,,,[],,,,,,73.6,1.0,i,1.0,True,860.5999999642372,52.0,60.0,40.0,False,,211.88514996860894,[],"[960, 600]",ColorTask,105.0,50.0,,,HRV,HRV_0136,2022-11-30 18:19:51
,wl-rdm,168,462821,0.0-8.50-0.50,1.0,168.0,,,,,,,[],,,,,,62.5,1.0,i,1.0,True,754.5,46.0,60.0,40.0,False,,286.2486274706812,[],"[960, 600]",ColorTask,106.0,51.0,,,HRV,HRV_0136,2022-11-30 18:19:51
,wl-rdm,169,465187,0.0-8.51-0.51,1.0,169.0,,,,,,,[],,,,,,56.4,1.0,u,0.0,False,1046.0,63.0,60.0,40.0,False,,255.57923002018936,[],"[960, 600]",ColorTask,105.0,52.0,,,HRV,HRV_0136,2022-11-30 18:19:51
,wl-rdm,170,467071,0.0-8.52-0.52,1.0,170.0,,,,,,,[],,,,,,62.5,0.0,u,0.0,True,533.9000000357628,32.0,60.0,40.0,False,,272.1903553573834,[],"[960, 600]",ColorTask,106.0,53.0,,,HRV,HRV_0136,2022-11-30 18:19:51
,wl-rdm,171,469386,0.0-8.53-0.53,1.0,171.0,,,,,,,[],,,,,,62.5,0.0,u,0.0,True,1040.1000000238419,63.0,60.0,40.0,False,,210.17544895275128,[],"[960, 600]",ColorTask,107.0,54.0,,,HRV,HRV_0136,2022-11-30 18:19:51
,wl-rdm,172,471637,0.0-8.54-0.54,1.0,172.0,,,,,,,[],,,,,,56.4,0.0,u,0.0,True,771.3000000119209,47.0,60.0,40.0,False,,391.47483447847367,[],"[960, 600]",ColorTask,108.0,55.0,,,HRV,HRV_0136,2022-11-30 18:19:51
,wl-rdm,173,473838,0.0-8.55-0.55,1.0,173.0,,,,,,,[],,,,,,87.9,1.0,u,0.0,False,876.6000000238419,53.0,60.0,40.0,False,,235.57606180979414,[],"[960, 600]",ColorTask,107.0,56.0,,,HRV,HRV_0136,2022-11-30 18:19:51
,wl-rdm,174,475989,0.0-8.56-0.56,1.0,174.0,,,,,,,[],,,,,,73.6,0.0,u,0.0,True,679.0,41.0,60.0,40.0,False,,386.51345161709963,[],"[960, 600]",ColorTask,108.0,57.0,,,HRV,HRV_0136,2022-11-30 18:19:51
,wl-rdm,175,478373,0.0-8.57-0.57,1.0,175.0,,,,,,,[],,,,,,62.5,0.0,u,0.0,True,1094.2999999523163,66.0,60.0,40.0,False,,206.89835684040332,[],"[960, 600]",ColorTask,109.0,58.0,,,HRV,HRV_0136,2022-11-30 18:19:51
,wl-rdm,176,480455,0.0-8.58-0.58,1.0,176.0,,,,,,,[],,,,,,87.9,1.0,i,1.0,True,764.2000000476837,46.0,60.0,40.0,False,,241.6966115474218,[],"[960, 600]",ColorTask,110.0,59.0,,,HRV,HRV_0136,2022-11-30 18:19:51
,wl-rdm,177,483140,0.0-8.59-0.59,1.0,177.0,,,,,,,[],,,,,,56.4,1.0,u,0.0,False,1337.699999988079,81.0,60.0,40.0,False,,251.01186522659359,[],"[960, 600]",ColorTask,109.0,60.0,,,HRV,HRV_0136,2022-11-30 18:19:51
,wl-rdm,178,485272,0.0-8.60-0.60,1.0,178.0,,,,,,,[],,,,,,56.4,0.0,u,0.0,True,727.4000000357628,44.0,60.0,40.0,False,,324.5297898927589,[],"[960, 600]",ColorTask,110.0,61.0,,,HRV,HRV_0136,2022-11-30 18:19:51
,wl-rdm,179,487806,0.0-8.61-0.61,1.0,179.0,,,,,,,[],,,,,,56.4,1.0,i,1.0,True,1177.0,71.0,60.0,40.0,False,,275.8853451269124,[],"[960, 600]",ColorTask,111.0,62.0,,,HRV,HRV_0136,2022-11-30 18:19:51
,wl-rdm,180,489941,0.0-8.62-0.62,1.0,180.0,,,,,,,[],,,,,,53.2,0.0,u,0.0,True,727.0,44.0,60.0,40.0,False,,344.1702245897891,[],"[960, 600]",ColorTask,112.0,63.0,,,HRV,HRV_0136,2022-11-30 18:19:51
,wl-rdm,181,492156,0.0-8.63-0.63,1.0,181.0,,,,,,,[],,,,,,87.9,1.0,i,1.0,True,877.8000000119209,54.0,60.0,40.0,False,,272.30697687701013,[],"[960, 600]",ColorTask,113.0,64.0,,,HRV,HRV_0136,2022-11-30 18:19:51
,wl-rdm,182,494190,0.0-8.64-0.64,1.0,182.0,,,,,,,[],,,,,,87.9,0.0,u,0.0,True,648.5000000596046,39.0,60.0,40.0,False,,329.1126760158929,[],"[960, 600]",ColorTask,114.0,65.0,,,HRV,HRV_0136,2022-11-30 18:19:51
,wl-rdm,183,497158,0.0-8.65-0.65,1.0,183.0,,,,,,,[],,,,,,56.4,0.0,u,0.0,True,1693.800000011921,102.0,60.0,40.0,False,,208.77317375442854,[],"[960, 600]",ColorTask,115.0,66.0,,,HRV,HRV_0136,2022-11-30 18:19:51
,wl-rdm,184,500026,0.0-8.66-0.66,1.0,184.0,,,,,,,[],,,,,,56.4,1.0,i,1.0,True,1526.800000011921,92.0,60.0,40.0,False,,274.71873294538693,[],"[960, 600]",ColorTask,116.0,67.0,,,HRV,HRV_0136,2022-11-30 18:19:51
,wl-rdm,185,503342,0.0-8.67-0.67,1.0,185.0,,,,,,,[],,,,,,50.0,1.0,i,1.0,True,1948.3999999761581,117.0,60.0,40.0,False,,294.60434692380073,[],"[960, 600]",ColorTask,117.0,68.0,,,HRV,HRV_0136,2022-11-30 18:19:51
,wl-rdm,186,505910,0.0-8.68-0.68,1.0,186.0,,,,,,,[],,,,,,53.2,0.0,u,0.0,True,1136.199999988079,69.0,60.0,40.0,False,,348.06396962578464,[],"[960, 600]",ColorTask,118.0,69.0,,,HRV,HRV_0136,2022-11-30 18:19:51
,wl-rdm,187,507993,0.0-8.69-0.69,1.0,187.0,,,,,,,[],,,,,,53.2,0.0,u,0.0,True,706.8999999761581,43.0,60.0,40.0,False,,304.1916132189069,[],"[960, 600]",ColorTask,119.0,70.0,,,HRV,HRV_0136,2022-11-30 18:19:51
,wl-rdm,188,510093,0.0-8.70-0.70,1.0,188.0,,,,,,,[],,,,,,73.6,1.0,i,1.0,True,735.1999999880791,45.0,60.0,40.0,False,,296.7839872598836,[],"[960, 600]",ColorTask,120.0,71.0,,,HRV,HRV_0136,2022-11-30 18:19:51
,wl-rdm,189,512577,0.0-8.71-0.71,1.0,189.0,,,,,,,[],,,,,,62.5,1.0,i,1.0,True,1193.1000000238419,72.0,60.0,40.0,False,,209.16460452743,[],"[960, 600]",ColorTask,121.0,72.0,,,HRV,HRV_0136,2022-11-30 18:19:51
,wl-rdm,190,514694,0.0-8.72-0.72,1.0,190.0,,,,,,,[],,,,,,87.9,1.0,i,1.0,True,650.3999999761581,40.0,60.0,40.0,False,,393.08886700714044,[],"[960, 600]",ColorTask,122.0,73.0,,,HRV,HRV_0136,2022-11-30 18:19:51
,wl-rdm,191,516777,0.0-8.73-0.73,1.0,191.0,,,,,,,[],,,,,,87.9,0.0,u,0.0,True,659.5999999642372,40.0,60.0,40.0,False,,357.6964723853173,[],"[960, 600]",ColorTask,123.0,74.0,,,HRV,HRV_0136,2022-11-30 18:19:51
,wl-rdm,192,519077,0.0-8.74-0.74,1.0,192.0,,,,,,,[],,,,,,62.5,1.0,i,1.0,True,981.3000000119209,59.0,60.0,40.0,False,,267.32540045768445,[],"[960, 600]",ColorTask,124.0,75.0,,,HRV,HRV_0136,2022-11-30 18:19:51
,wl-rdm,193,521077,0.0-8.75-0.75,1.0,193.0,,,,,,,[],,,,,,87.9,0.0,u,0.0,True,642.5,39.0,60.0,40.0,False,,289.45068608294355,[],"[960, 600]",ColorTask,125.0,76.0,,,HRV,HRV_0136,2022-11-30 18:19:51
,wl-rdm,194,523110,0.0-8.76-0.76,1.0,194.0,,,,,,,[],,,,,,73.6,0.0,u,0.0,True,614.5000000596046,37.0,60.0,40.0,False,,341.4203868239427,[],"[960, 600]",ColorTask,126.0,77.0,,,HRV,HRV_0136,2022-11-30 18:19:51
,wl-rdm,195,526277,0.0-8.77-0.77,1.0,195.0,,,,,,,[],,,,,,50.0,1.0,u,0.0,False,1794.0,108.0,60.0,40.0,False,,314.75976553697535,[],"[960, 600]",ColorTask,125.0,78.0,,,HRV,HRV_0136,2022-11-30 18:19:51
,wl-rdm,196,529228,0.0-8.78-0.78,1.0,196.0,,,,,,,[],,,,,,53.2,0.0,i,1.0,False,1594.8999999761581,96.0,60.0,40.0,False,,271.257242162115,[],"[960, 600]",ColorTask,124.0,79.0,,,HRV,HRV_0136,2022-11-30 18:19:51
,wl-rdm,197,531178,0.0-8.79-0.79,1.0,197.0,,,,,,,[],,,,,,87.9,0.0,u,0.0,True,639.4000000357628,39.0,60.0,40.0,False,,219.88153580492474,[],"[960, 600]",ColorTask,125.0,80.0,,,HRV,HRV_0136,2022-11-30 18:19:51
,wl-rdm,198,534512,0.0-8.80-0.80,1.0,198.0,,,,,,,[],,,,,,56.4,1.0,i,1.0,True,1978.1000000238419,119.0,60.0,40.0,False,,275.70645902830427,[],"[960, 600]",ColorTask,126.0,81.0,,,HRV,HRV_0136,2022-11-30 18:19:51
,wl-rdm,199,536397,0.0-8.81-0.81,1.0,199.0,,,,,,,[],,,,,,87.9,0.0,u,0.0,True,610.2999999523163,37.0,60.0,40.0,False,,202.3065785898109,[],"[960, 600]",ColorTask,127.0,82.0,,,HRV,HRV_0136,2022-11-30 18:19:51
,wl-rdm,200,538263,0.0-8.82-0.82,1.0,200.0,,,,,,,[],,,,,,87.9,1.0,i,1.0,True,559.3000000119209,34.0,60.0,40.0,False,,243.14612089015964,[],"[960, 600]",ColorTask,128.0,83.0,,,HRV,HRV_0136,2022-11-30 18:19:51
,wl-rdm,201,540230,0.0-8.83-0.83,1.0,201.0,,,,,,,[],,,,,,56.4,0.0,u,0.0,True,665.3000000715256,40.0,60.0,40.0,False,,236.66078525139721,[],"[960, 600]",ColorTask,129.0,84.0,,,HRV,HRV_0136,2022-11-30 18:19:51
,wl-rdm,202,542163,0.0-8.84-0.84,1.0,202.0,,,,,,,[],,,,,,73.6,0.0,u,0.0,True,616.9000000357628,37.0,60.0,40.0,False,,263.98521311575064,[],"[960, 600]",ColorTask,130.0,85.0,,,HRV,HRV_0136,2022-11-30 18:19:51
,wl-rdm,203,544114,0.0-8.85-0.85,1.0,203.0,,,,,,,[],,,,,,87.9,1.0,i,1.0,True,645.7000000476837,39.0,60.0,40.0,False,,237.93306603319115,[],"[960, 600]",ColorTask,131.0,86.0,,,HRV,HRV_0136,2022-11-30 18:19:51
,wl-rdm,204,547031,0.0-8.86-0.86,1.0,204.0,,,,,,,[],,,,,,50.0,0.0,u,0.0,True,1581.0,95.0,60.0,40.0,False,,277.7923227271401,[],"[960, 600]",ColorTask,132.0,87.0,,,HRV,HRV_0136,2022-11-30 18:19:51
,wl-rdm,205,549198,0.0-8.87-0.87,1.0,205.0,,,,,,,[],,,,,,50.0,1.0,i,1.0,True,777.7999999523163,47.0,60.0,40.0,False,,321.57319141965627,[],"[960, 600]",ColorTask,133.0,88.0,,,HRV,HRV_0136,2022-11-30 18:19:51
,wl-rdm,206,552232,0.0-8.88-0.88,1.0,206.0,,,,,,,[],,,,,,56.4,0.0,u,0.0,True,1630.300000011921,98.0,60.0,40.0,False,,345.22300085175016,[],"[960, 600]",ColorTask,134.0,89.0,,,HRV,HRV_0136,2022-11-30 18:19:51
,wl-rdm,207,554315,0.0-8.89-0.89,1.0,207.0,,,,,,,[],,,,,,87.9,0.0,u,0.0,True,800.2999999523163,49.0,60.0,40.0,False,,211.05891532636008,[],"[960, 600]",ColorTask,135.0,90.0,,,HRV,HRV_0136,2022-11-30 18:19:51
,wl-rdm,208,557300,0.0-8.90-0.90,1.0,208.0,,,,,,,[],,,,,,56.4,1.0,i,1.0,True,1579.1000000238419,95.0,60.0,40.0,False,,343.4676736861787,[],"[960, 600]",ColorTask,136.0,91.0,,,HRV,HRV_0136,2022-11-30 18:19:51
,wl-rdm,209,559750,0.0-8.91-0.91,1.0,209.0,,,,,,,[],,,,,,62.5,1.0,i,1.0,True,1097.3999999761581,66.0,60.0,40.0,False,,284.25562956639124,[],"[960, 600]",ColorTask,137.0,92.0,,,HRV,HRV_0136,2022-11-30 18:19:51
,wl-rdm,210,561916,0.0-8.92-0.92,1.0,210.0,,,,,,,[],,,,,,53.2,1.0,u,0.0,False,708.6999999284744,43.0,60.0,40.0,False,,397.4289594641616,[],"[960, 600]",ColorTask,136.0,93.0,,,HRV,HRV_0136,2022-11-30 18:19:51
,wl-rdm,211,564833,0.0-8.93-0.93,1.0,211.0,,,,,,,[],,,,,,50.0,1.0,u,0.0,False,1620.800000011921,98.0,60.0,40.0,False,,205.03813239998593,[],"[960, 600]",ColorTask,135.0,94.0,,,HRV,HRV_0136,2022-11-30 18:19:51
,wl-rdm,212,567017,0.0-8.94-0.94,1.0,212.0,,,,,,,[],,,,,,50.0,1.0,u,0.0,False,845.0000000596046,51.0,60.0,40.0,False,,250.69146827499216,[],"[960, 600]",ColorTask,134.0,95.0,,,HRV,HRV_0136,2022-11-30 18:19:51
,wl-rdm,213,569551,0.0-8.95-0.95,1.0,213.0,,,,,,,[],,,,,,56.4,0.0,u,0.0,True,1212.699999988079,73.0,60.0,40.0,False,,255.43169566656232,[],"[960, 600]",ColorTask,135.0,96.0,,,HRV,HRV_0136,2022-11-30 18:19:51
,wl-rdm,214,571851,0.0-8.96-0.96,1.0,214.0,,,,,,,[],,,,,,73.6,0.0,u,0.0,True,948.8000000119209,57.0,60.0,40.0,False,,295.28839899401044,[],"[960, 600]",ColorTask,136.0,97.0,,,HRV,HRV_0136,2022-11-30 18:19:51
,wl-rdm,215,574701,0.0-8.97-0.97,1.0,215.0,,,,,,,[],,,,,,50.0,0.0,i,1.0,False,1492.699999988079,90.0,60.0,40.0,False,,288.4507009763691,[],"[960, 600]",ColorTask,135.0,98.0,,,HRV,HRV_0136,2022-11-30 18:19:51
,wl-rdm,216,578120,0.0-8.98-0.98,1.0,216.0,,,,,,,[],,,,,,50.0,0.0,i,1.0,False,2056.399999976158,124.0,60.0,40.0,False,,298.8417604842056,[],"[960, 600]",ColorTask,134.0,99.0,,,HRV,HRV_0136,2022-11-30 18:19:51
,wl-rdm,217,580903,0.0-8.99-0.99,1.0,217.0,,,,,,,[],,,,,,62.5,0.0,u,0.0,True,1513.199999988079,91.0,60.0,40.0,False,,203.6391985438044,[],"[960, 600]",ColorTask,135.0,100.0,,,HRV,HRV_0136,2022-11-30 18:19:51
,wl-rdm,218,583403,0.0-8.100-0.100,1.0,218.0,,,,,,,[],,,,,,50.0,1.0,i,1.0,True,1125.5999999642372,68.0,60.0,40.0,False,,271.8983312412107,[],"[960, 600]",ColorTask,136.0,101.0,,,HRV,HRV_0136,2022-11-30 18:19:51
,wl-rdm,219,586019,0.0-8.101-0.101,1.0,219.0,,,,,,,[],,,,,,53.2,0.0,u,0.0,True,1191.5,72.0,60.0,40.0,False,,348.5018480319942,[],"[960, 600]",ColorTask,137.0,102.0,,,HRV,HRV_0136,2022-11-30 18:19:51
,wl-rdm,220,588821,0.0-8.102-0.102,1.0,220.0,,,,,,,[],,,,,,50.0,0.0,i,1.0,False,1481.6000000238419,89.0,60.0,40.0,False,,255.42744760647486,[],"[960, 600]",ColorTask,136.0,103.0,,,HRV,HRV_0136,2022-11-30 18:19:51
,wl-rdm,221,591020,0.0-8.103-0.103,1.0,221.0,,,,,,,[],,,,,,62.5,0.0,u,0.0,True,876.6000000238419,53.0,60.0,40.0,False,,258.9587545308528,[],"[960, 600]",ColorTask,137.0,104.0,,,HRV,HRV_0136,2022-11-30 18:19:51
,wl-rdm,222,594371,0.0-8.104-0.104,1.0,222.0,,,,,,,[],,,,,,53.2,1.0,u,0.0,False,1901.1000000238419,115.0,60.0,40.0,False,,368.240323304464,[],"[960, 600]",ColorTask,136.0,105.0,,,HRV,HRV_0136,2022-11-30 18:19:51
,wl-rdm,223,597372,0.0-8.105-0.105,1.0,223.0,,,,,,,[],,,,,,53.2,1.0,u,0.0,False,1643.7999999523163,99.0,60.0,40.0,False,,287.79122459881626,[],"[960, 600]",ColorTask,135.0,106.0,,,HRV,HRV_0136,2022-11-30 18:19:51
,wl-rdm,224,599886,0.0-8.106-0.106,1.0,224.0,,,,,,,[],,,,,,62.5,1.0,i,1.0,True,1060.8999999761581,64.0,60.0,40.0,False,,354.6494020030883,[],"[960, 600]",ColorTask,136.0,107.0,,,HRV,HRV_0136,2022-11-30 18:19:51
,wl-rdm,225,602239,0.0-8.107-0.107,1.0,225.0,,,,,,,[],,,,,,73.6,1.0,i,1.0,True,1042.2000000476837,63.0,60.0,40.0,False,,236.17880472437935,[],"[960, 600]",ColorTask,137.0,108.0,,,HRV,HRV_0136,2022-11-30 18:19:51
,wl-html-button-response,226,604995,0.0-9.0-0.0,,,,,,,,,,2748.900000035763,,0,,,,,,,,,,,,,,,,,,,,<h3>End of this session. Thank you!</h3><br>,['Close window'],HRV,HRV_0136,2022-11-30 18:19:51
