trialN,stimuli,question,trialStartTime,trialStartTime_UNIX,stimulus1,rt,receivedResponse,rating,trialEndTime,trialDuration,stimulus1Loaded,exp,subjectId,date
0,"[{'imgObject': {}, 'id': 'blueberries', 'src': '/static/foodstim60/blueberries.jpg', 'key': 'NaN', 'origWidth': 411, 'origHeight': 411, 'width': 411, 'height': 411, 'widthPercent': 0.8, 'rescaleHeight': True, 'trialN': 0, 'loaded': True, 'loadedTime': 2405.5, 'positionName': 'CENTER', 'positionCoords': [754.5, 394.5]}]",Rate how much you want to eat this food from 0 (least) to 10 (most).,2297.600000023842,1669830164513,blueberries,2578.300000011921,True,6.5,4875.900000035763,2578.300000011921,True,HRV,HRV_0136,2022-11-30 17:44:41
1,"[{'imgObject': {}, 'id': 'cherry tomato', 'src': '/static/foodstim60/cherry tomato.jpg', 'key': 'NaN', 'origWidth': 410, 'origHeight': 410, 'width': 410, 'height': 410, 'widthPercent': 0.8, 'rescaleHeight': True, 'trialN': 1, 'loaded': True, 'loadedTime': 4904.700000047684, 'positionName': 'CENTER', 'positionCoords': [755, 395]}]",Rate how much you want to eat this food from 0 (least) to 10 (most).,4899.5,1669830167115,cherry tomato,2064.5,True,5.38,6964.0,2064.5,True,HRV,HRV_0136,2022-11-30 17:44:41
2,"[{'imgObject': {}, 'id': 'ice cream sundae 002', 'src': '/static/foodstim60/ice cream sundae 002.jpg', 'key': 'NaN', 'origWidth': 409, 'origHeight': 409, 'width': 409, 'height': 409, 'widthPercent': 0.8, 'rescaleHeight': True, 'trialN': 2, 'loaded': True, 'loadedTime': 6989.5, 'positionName': 'CENTER', 'positionCoords': [755.5, 395.5]}]",Rate how much you want to eat this food from 0 (least) to 10 (most).,6984.300000011921,1669830169199,ice cream sundae 002,3133.600000023842,True,5.07,10117.900000035763,3133.600000023842,True,HRV,HRV_0136,2022-11-30 17:44:41
3,"[{'imgObject': {}, 'id': 'olives', 'src': '/static/foodstim60/olives.jpg', 'key': 'NaN', 'origWidth': 410, 'origHeight': 410, 'width': 410, 'height': 410, 'widthPercent': 0.8, 'rescaleHeight': True, 'trialN': 3, 'loaded': True, 'loadedTime': 10138.700000047684, 'positionName': 'CENTER', 'positionCoords': [755, 395]}]",Rate how much you want to eat this food from 0 (least) to 10 (most).,10133.600000023842,1669830172348,olives,1816.199999988079,True,9.64,11949.800000011921,1816.199999988079,True,HRV,HRV_0136,2022-11-30 17:44:41
4,"[{'imgObject': {}, 'id': 'omelette', 'src': '/static/foodstim60/omelette.jpg', 'key': 'NaN', 'origWidth': 410, 'origHeight': 409, 'width': 410, 'height': 409, 'widthPercent': 0.8, 'rescaleHeight': True, 'trialN': 4, 'loaded': True, 'loadedTime': 11976.800000011921, 'positionName': 'CENTER', 'positionCoords': [755, 395.5]}]",Rate how much you want to eat this food from 0 (least) to 10 (most).,11971.300000011921,1669830174186,omelette,1804.699999988079,True,8.48,13776.0,1804.699999988079,True,HRV,HRV_0136,2022-11-30 17:44:41
5,"[{'imgObject': {}, 'id': 'popsicles', 'src': '/static/foodstim60/popsicles.jpg', 'key': 'NaN', 'origWidth': 410, 'origHeight': 410, 'width': 410, 'height': 410, 'widthPercent': 0.8, 'rescaleHeight': True, 'trialN': 5, 'loaded': True, 'loadedTime': 13790.300000011921, 'positionName': 'CENTER', 'positionCoords': [755, 395]}]",Rate how much you want to eat this food from 0 (least) to 10 (most).,13785.200000047684,1669830176000,popsicles,1310.5999999642372,True,3.6,15095.800000011921,1310.5999999642372,True,HRV,HRV_0136,2022-11-30 17:44:41
6,"[{'imgObject': {}, 'id': 'chickenfingers', 'src': '/static/foodstim60/chickenfingers.jpg', 'key': 'NaN', 'origWidth': 410, 'origHeight': 410, 'width': 410, 'height': 410, 'widthPercent': 0.8, 'rescaleHeight': True, 'trialN': 6, 'loaded': True, 'loadedTime': 15122.600000023842, 'positionName': 'CENTER', 'positionCoords': [755, 395]}]",Rate how much you want to eat this food from 0 (least) to 10 (most).,15117.900000035763,1669830177333,chickenfingers,1826.0999999642372,True,4.26,16944.0,1826.0999999642372,True,HRV,HRV_0136,2022-11-30 17:44:41
7,"[{'imgObject': {}, 'id': 'sweetpotato', 'src': '/static/foodstim60/sweetpotato.jpg', 'key': 'NaN', 'origWidth': 410, 'origHeight': 410, 'width': 410, 'height': 410, 'widthPercent': 0.8, 'rescaleHeight': True, 'trialN': 7, 'loaded': True, 'loadedTime': 16973.100000023842, 'positionName': 'CENTER', 'positionCoords': [755, 395]}]",Rate how much you want to eat this food from 0 (least) to 10 (most).,16967.900000035763,1669830179183,sweetpotato,1521.8999999761581,True,2.0300000000000002,18489.80000001192,1521.8999999761581,True,HRV,HRV_0136,2022-11-30 17:44:41
8,"[{'imgObject': {}, 'id': 'edamame', 'src': '/static/foodstim60/edamame.jpg', 'key': 'NaN', 'origWidth': 409, 'origHeight': 410, 'width': 409, 'height': 410, 'widthPercent': 0.8, 'rescaleHeight': True, 'trialN': 8, 'loaded': True, 'loadedTime': 18505.900000035763, 'positionName': 'CENTER', 'positionCoords': [755.5, 395]}]",Rate how much you want to eat this food from 0 (least) to 10 (most).,18501.30000001192,1669830180716,edamame,1660.699999988079,True,6.61,20162.0,1660.699999988079,True,HRV,HRV_0136,2022-11-30 17:44:41
9,"[{'imgObject': {}, 'id': 'rigatoni and sauce', 'src': '/static/foodstim60/rigatoni and sauce.jpg', 'key': 'NaN', 'origWidth': 410, 'origHeight': 411, 'width': 410, 'height': 411, 'widthPercent': 0.8, 'rescaleHeight': True, 'trialN': 9, 'loaded': True, 'loadedTime': 20191.5, 'positionName': 'CENTER', 'positionCoords': [755, 394.5]}]",Rate how much you want to eat this food from 0 (least) to 10 (most).,20186.0,1669830182401,rigatoni and sauce,2383.800000011921,True,3.98,22569.80000001192,2383.800000011921,True,HRV,HRV_0136,2022-11-30 17:44:41
10,"[{'imgObject': {}, 'id': 'sushi w_condiments', 'src': '/static/foodstim60/sushi w_condiments.jpg', 'key': 'NaN', 'origWidth': 410, 'origHeight': 410, 'width': 410, 'height': 410, 'widthPercent': 0.8, 'rescaleHeight': True, 'trialN': 10, 'loaded': True, 'loadedTime': 22591.200000047684, 'positionName': 'CENTER', 'positionCoords': [755, 395]}]",Rate how much you want to eat this food from 0 (least) to 10 (most).,22586.0,1669830184801,sushi w_condiments,1506.0,True,6.95,24092.0,1506.0,True,HRV,HRV_0136,2022-11-30 17:44:41
11,"[{'imgObject': {}, 'id': 'salmon', 'src': '/static/foodstim60/salmon.jpg', 'key': 'NaN', 'origWidth': 410, 'origHeight': 409, 'width': 410, 'height': 409, 'widthPercent': 0.8, 'rescaleHeight': True, 'trialN': 11, 'loaded': True, 'loadedTime': 24107.5, 'positionName': 'CENTER', 'positionCoords': [755, 395.5]}]",Rate how much you want to eat this food from 0 (least) to 10 (most).,24102.600000023842,1669830186317,salmon,1653.300000011921,True,6.69,25755.900000035763,1653.300000011921,True,HRV,HRV_0136,2022-11-30 17:44:41
12,"[{'imgObject': {}, 'id': 'yogurt no spoon', 'src': '/static/foodstim60/yogurt no spoon.jpg', 'key': 'NaN', 'origWidth': 411, 'origHeight': 410, 'width': 411, 'height': 410, 'widthPercent': 0.8, 'rescaleHeight': True, 'trialN': 12, 'loaded': True, 'loadedTime': 25775, 'positionName': 'CENTER', 'positionCoords': [754.5, 395]}]",Rate how much you want to eat this food from 0 (least) to 10 (most).,25769.80000001192,1669830187984,yogurt no spoon,2054.199999988079,True,5.93,27824.0,2054.199999988079,True,HRV,HRV_0136,2022-11-30 17:44:41
13,"[{'imgObject': {}, 'id': 'pear', 'src': '/static/foodstim60/pear.jpg', 'key': 'NaN', 'origWidth': 411, 'origHeight': 410, 'width': 411, 'height': 410, 'widthPercent': 0.8, 'rescaleHeight': True, 'trialN': 13, 'loaded': True, 'loadedTime': 27842.600000023842, 'positionName': 'CENTER', 'positionCoords': [754.5, 395]}]",Rate how much you want to eat this food from 0 (least) to 10 (most).,27837.30000001192,1669830190052,pear,1066.5,True,8.61,28903.80000001192,1066.5,True,HRV,HRV_0136,2022-11-30 17:44:41
14,"[{'imgObject': {}, 'id': 'roastedpotatoes', 'src': '/static/foodstim60/roastedpotatoes.jpg', 'key': 'NaN', 'origWidth': 409, 'origHeight': 410, 'width': 409, 'height': 410, 'widthPercent': 0.8, 'rescaleHeight': True, 'trialN': 14, 'loaded': True, 'loadedTime': 28925.600000023842, 'positionName': 'CENTER', 'positionCoords': [755.5, 395]}]",Rate how much you want to eat this food from 0 (least) to 10 (most).,28920.600000023842,1669830191135,roastedpotatoes,1493.3999999761581,True,1.18,30414.0,1493.3999999761581,True,HRV,HRV_0136,2022-11-30 17:44:41
15,"[{'imgObject': {}, 'id': 'mango', 'src': '/static/foodstim60/mango.jpg', 'key': 'NaN', 'origWidth': 411, 'origHeight': 411, 'width': 411, 'height': 411, 'widthPercent': 0.8, 'rescaleHeight': True, 'trialN': 15, 'loaded': True, 'loadedTime': 30444.400000035763, 'positionName': 'CENTER', 'positionCoords': [754.5, 394.5]}]",Rate how much you want to eat this food from 0 (least) to 10 (most).,30438.30000001192,1669830192653,mango,1531.699999988079,True,6.22,31970.0,1531.699999988079,True,HRV,HRV_0136,2022-11-30 17:44:41
16,"[{'imgObject': {}, 'id': 'salad w chicken', 'src': '/static/foodstim60/salad w chicken.jpg', 'key': 'NaN', 'origWidth': 411, 'origHeight': 411, 'width': 411, 'height': 411, 'widthPercent': 0.8, 'rescaleHeight': True, 'trialN': 16, 'loaded': True, 'loadedTime': 31993.400000035763, 'positionName': 'CENTER', 'positionCoords': [754.5, 394.5]}]",Rate how much you want to eat this food from 0 (least) to 10 (most).,31987.80000001192,1669830194202,salad w chicken,2374.199999988079,True,5.33,34362.0,2374.199999988079,True,HRV,HRV_0136,2022-11-30 17:44:41
17,"[{'imgObject': {}, 'id': 'tacos', 'src': '/static/foodstim60/tacos.jpg', 'key': 'NaN', 'origWidth': 411, 'origHeight': 411, 'width': 411, 'height': 411, 'widthPercent': 0.8, 'rescaleHeight': True, 'trialN': 17, 'loaded': True, 'loadedTime': 34377.5, 'positionName': 'CENTER', 'positionCoords': [754.5, 394.5]}]",Rate how much you want to eat this food from 0 (least) to 10 (most).,34372.30000001192,1669830196586,tacos,2119.5,True,3.98,36491.80000001192,2119.5,True,HRV,HRV_0136,2022-11-30 17:44:41
18,"[{'imgObject': {}, 'id': 'raisin bran w milk', 'src': '/static/foodstim60/raisin bran w milk.jpg', 'key': 'NaN', 'origWidth': 411, 'origHeight': 411, 'width': 411, 'height': 411, 'widthPercent': 0.8, 'rescaleHeight': True, 'trialN': 18, 'loaded': True, 'loadedTime': 36510.80000001192, 'positionName': 'CENTER', 'positionCoords': [754.5, 394.5]}]",Rate how much you want to eat this food from 0 (least) to 10 (most).,36505.40000003576,1669830198720,raisin bran w milk,1794.3999999761581,True,6.42,38299.80000001192,1794.3999999761581,True,HRV,HRV_0136,2022-11-30 17:44:41
19,"[{'imgObject': {}, 'id': 'luckycharms', 'src': '/static/foodstim60/luckycharms.jpg', 'key': 'NaN', 'origWidth': 410, 'origHeight': 409, 'width': 410, 'height': 409, 'widthPercent': 0.8, 'rescaleHeight': True, 'trialN': 19, 'loaded': True, 'loadedTime': 38329.10000002384, 'positionName': 'CENTER', 'positionCoords': [755, 395.5]}]",Rate how much you want to eat this food from 0 (least) to 10 (most).,38323.60000002384,1669830200538,luckycharms,2020.3999999761581,True,0.9500000000000001,40344.0,2020.3999999761581,True,HRV,HRV_0136,2022-11-30 17:44:41
20,"[{'imgObject': {}, 'id': 'froot loops w milk', 'src': '/static/foodstim60/froot loops w milk.jpg', 'key': 'NaN', 'origWidth': 410, 'origHeight': 410, 'width': 410, 'height': 410, 'widthPercent': 0.8, 'rescaleHeight': True, 'trialN': 20, 'loaded': True, 'loadedTime': 40362.700000047684, 'positionName': 'CENTER', 'positionCoords': [755, 395]}]",Rate how much you want to eat this food from 0 (least) to 10 (most).,40357.0,1669830202571,froot loops w milk,1448.9000000357628,True,0.97,41805.90000003576,1448.9000000357628,True,HRV,HRV_0136,2022-11-30 17:44:41
21,"[{'imgObject': {}, 'id': 'banana', 'src': '/static/foodstim60/banana.jpg', 'key': 'NaN', 'origWidth': 410, 'origHeight': 410, 'width': 410, 'height': 410, 'widthPercent': 0.8, 'rescaleHeight': True, 'trialN': 21, 'loaded': True, 'loadedTime': 41830.40000003576, 'positionName': 'CENTER', 'positionCoords': [755, 395]}]",Rate how much you want to eat this food from 0 (least) to 10 (most).,41824.5,1669830204039,banana,2225.300000011921,True,3.13,44049.80000001192,2225.300000011921,True,HRV,HRV_0136,2022-11-30 17:44:41
22,"[{'imgObject': {}, 'id': 'granola w milk', 'src': '/static/foodstim60/granola w milk.jpg', 'key': 'NaN', 'origWidth': 410, 'origHeight': 410, 'width': 410, 'height': 410, 'widthPercent': 0.8, 'rescaleHeight': True, 'trialN': 22, 'loaded': True, 'loadedTime': 44062.10000002384, 'positionName': 'CENTER', 'positionCoords': [755, 395]}]",Rate how much you want to eat this food from 0 (least) to 10 (most).,44057.200000047684,1669830206271,granola w milk,1856.5999999642372,True,4.5600000000000005,45913.80000001192,1856.5999999642372,True,HRV,HRV_0136,2022-11-30 17:44:41
23,"[{'imgObject': {}, 'id': 'avocado', 'src': '/static/foodstim60/avocado.jpg', 'key': 'NaN', 'origWidth': 409, 'origHeight': 409, 'width': 409, 'height': 409, 'widthPercent': 0.8, 'rescaleHeight': True, 'trialN': 23, 'loaded': True, 'loadedTime': 45928.80000001192, 'positionName': 'CENTER', 'positionCoords': [755.5, 395.5]}]",Rate how much you want to eat this food from 0 (least) to 10 (most).,45924.200000047684,1669830208138,avocado,1387.699999988079,True,5.39,47311.90000003576,1387.699999988079,True,HRV,HRV_0136,2022-11-30 17:44:41
24,"[{'imgObject': {}, 'id': 'chicken nuggets2', 'src': '/static/foodstim60/chicken nuggets2.jpg', 'key': 'NaN', 'origWidth': 410, 'origHeight': 409, 'width': 410, 'height': 409, 'widthPercent': 0.8, 'rescaleHeight': True, 'trialN': 24, 'loaded': True, 'loadedTime': 47329.60000002384, 'positionName': 'CENTER', 'positionCoords': [755, 395.5]}]",Rate how much you want to eat this food from 0 (least) to 10 (most).,47324.700000047684,1669830209539,chicken nuggets2,1327.2999999523163,True,6.45,48652.0,1327.2999999523163,True,HRV,HRV_0136,2022-11-30 17:44:41
25,"[{'imgObject': {}, 'id': 'baked potato', 'src': '/static/foodstim60/baked potato.jpg', 'key': 'NaN', 'origWidth': 409, 'origHeight': 410, 'width': 409, 'height': 410, 'widthPercent': 0.8, 'rescaleHeight': True, 'trialN': 25, 'loaded': True, 'loadedTime': 48679.30000001192, 'positionName': 'CENTER', 'positionCoords': [755.5, 395]}]",Rate how much you want to eat this food from 0 (least) to 10 (most).,48674.700000047684,1669830210889,baked potato,1825.2999999523163,True,0.04,50500.0,1825.2999999523163,True,HRV,HRV_0136,2022-11-30 17:44:41
26,"[{'imgObject': {}, 'id': 'eggs', 'src': '/static/foodstim60/eggs.jpg', 'key': 'NaN', 'origWidth': 409, 'origHeight': 409, 'width': 409, 'height': 409, 'widthPercent': 0.8, 'rescaleHeight': True, 'trialN': 26, 'loaded': True, 'loadedTime': 50513.30000001192, 'positionName': 'CENTER', 'positionCoords': [755.5, 395.5]}]",Rate how much you want to eat this food from 0 (least) to 10 (most).,50508.60000002384,1669830212722,eggs,1945.3999999761581,True,8.93,52454.0,1945.3999999761581,True,HRV,HRV_0136,2022-11-30 17:44:41
27,"[{'imgObject': {}, 'id': 'turkey sandwich', 'src': '/static/foodstim60/turkey sandwich.jpg', 'key': 'NaN', 'origWidth': 409, 'origHeight': 409, 'width': 409, 'height': 409, 'widthPercent': 0.8, 'rescaleHeight': True, 'trialN': 27, 'loaded': True, 'loadedTime': 52480.5, 'positionName': 'CENTER', 'positionCoords': [755.5, 395.5]}]",Rate how much you want to eat this food from 0 (least) to 10 (most).,52475.40000003576,1669830214689,turkey sandwich,1994.3999999761581,True,8.01,54469.80000001192,1994.3999999761581,True,HRV,HRV_0136,2022-11-30 17:44:41
28,"[{'imgObject': {}, 'id': 'steak', 'src': '/static/foodstim60/steak.jpg', 'key': 'NaN', 'origWidth': 410, 'origHeight': 410, 'width': 410, 'height': 410, 'widthPercent': 0.8, 'rescaleHeight': True, 'trialN': 28, 'loaded': True, 'loadedTime': 54498, 'positionName': 'CENTER', 'positionCoords': [755, 395]}]",Rate how much you want to eat this food from 0 (least) to 10 (most).,54492.700000047684,1669830216706,steak,1759.199999988079,True,8.96,56251.90000003576,1759.199999988079,True,HRV,HRV_0136,2022-11-30 17:44:41
29,"[{'imgObject': {}, 'id': 'apple slices', 'src': '/static/foodstim60/apple slices.jpg', 'key': 'NaN', 'origWidth': 409, 'origHeight': 410, 'width': 409, 'height': 410, 'widthPercent': 0.8, 'rescaleHeight': True, 'trialN': 29, 'loaded': True, 'loadedTime': 56281.30000001192, 'positionName': 'CENTER', 'positionCoords': [755.5, 395]}]",Rate how much you want to eat this food from 0 (least) to 10 (most).,56276.5,1669830218490,apple slices,1699.4000000357628,True,7.7,57975.90000003576,1699.4000000357628,True,HRV,HRV_0136,2022-11-30 17:44:41
30,"[{'imgObject': {}, 'id': 'bagel and cc', 'src': '/static/foodstim60/bagel and cc.jpg', 'key': 'NaN', 'origWidth': 410, 'origHeight': 410, 'width': 410, 'height': 410, 'widthPercent': 0.8, 'rescaleHeight': True, 'trialN': 30, 'loaded': True, 'loadedTime': 57998, 'positionName': 'CENTER', 'positionCoords': [755, 395]}]",Rate how much you want to eat this food from 0 (least) to 10 (most).,57993.0,1669830220207,bagel and cc,1638.800000011921,True,1.93,59631.80000001192,1638.800000011921,True,HRV,HRV_0136,2022-11-30 17:44:41
31,"[{'imgObject': {}, 'id': 'eggsalad', 'src': '/static/foodstim60/eggsalad.jpg', 'key': 'NaN', 'origWidth': 410, 'origHeight': 409, 'width': 410, 'height': 409, 'widthPercent': 0.8, 'rescaleHeight': True, 'trialN': 31, 'loaded': True, 'loadedTime': 59648.40000003576, 'positionName': 'CENTER', 'positionCoords': [755, 395.5]}]",Rate how much you want to eat this food from 0 (least) to 10 (most).,59643.30000001192,1669830221857,eggsalad,1788.800000011921,True,8.02,61432.10000002384,1788.800000011921,True,HRV,HRV_0136,2022-11-30 17:44:41
32,"[{'imgObject': {}, 'id': 'corn cob', 'src': '/static/foodstim60/corn cob.jpg', 'key': 'NaN', 'origWidth': 411, 'origHeight': 411, 'width': 411, 'height': 411, 'widthPercent': 0.8, 'rescaleHeight': True, 'trialN': 32, 'loaded': True, 'loadedTime': 61448.80000001192, 'positionName': 'CENTER', 'positionCoords': [754.5, 394.5]}]",Rate how much you want to eat this food from 0 (least) to 10 (most).,61443.60000002384,1669830223657,corn cob,1678.300000011921,True,5.26,63121.90000003576,1678.300000011921,True,HRV,HRV_0136,2022-11-30 17:44:41
33,"[{'imgObject': {}, 'id': 'seaweed', 'src': '/static/foodstim60/seaweed.jpg', 'key': 'NaN', 'origWidth': 410, 'origHeight': 410, 'width': 410, 'height': 410, 'widthPercent': 0.8, 'rescaleHeight': True, 'trialN': 33, 'loaded': True, 'loadedTime': 63150.200000047684, 'positionName': 'CENTER', 'positionCoords': [755, 395]}]",Rate how much you want to eat this food from 0 (least) to 10 (most).,63144.5,1669830225358,seaweed,1353.4000000357628,True,7.87,64497.90000003576,1353.4000000357628,True,HRV,HRV_0136,2022-11-30 17:44:41
34,"[{'imgObject': {}, 'id': 'burger', 'src': '/static/foodstim60/burger.jpg', 'key': 'NaN', 'origWidth': 409, 'origHeight': 409, 'width': 409, 'height': 409, 'widthPercent': 0.8, 'rescaleHeight': True, 'trialN': 34, 'loaded': True, 'loadedTime': 64516, 'positionName': 'CENTER', 'positionCoords': [755.5, 395.5]}]",Rate how much you want to eat this food from 0 (least) to 10 (most).,64511.10000002384,1669830226725,burger,1594.800000011921,True,9.85,66105.90000003576,1594.800000011921,True,HRV,HRV_0136,2022-11-30 17:44:41
35,"[{'imgObject': {}, 'id': 'rigatoni', 'src': '/static/foodstim60/rigatoni.jpg', 'key': 'NaN', 'origWidth': 411, 'origHeight': 411, 'width': 411, 'height': 411, 'widthPercent': 0.8, 'rescaleHeight': True, 'trialN': 35, 'loaded': True, 'loadedTime': 66133.20000004768, 'positionName': 'CENTER', 'positionCoords': [754.5, 394.5]}]",Rate how much you want to eat this food from 0 (least) to 10 (most).,66127.90000003576,1669830228341,rigatoni,1964.0,True,0.08,68091.90000003576,1964.0,True,HRV,HRV_0136,2022-11-30 17:44:41
36,"[{'imgObject': {}, 'id': 'grilled chicken strips', 'src': '/static/foodstim60/grilled chicken strips.jpg', 'key': 'NaN', 'origWidth': 410, 'origHeight': 411, 'width': 410, 'height': 411, 'widthPercent': 0.8, 'rescaleHeight': True, 'trialN': 36, 'loaded': True, 'loadedTime': 68117.60000002384, 'positionName': 'CENTER', 'positionCoords': [755, 394.5]}]",Rate how much you want to eat this food from 0 (least) to 10 (most).,68112.0,1669830230325,grilled chicken strips,1788.0,True,3.5500000000000003,69900.0,1788.0,True,HRV,HRV_0136,2022-11-30 17:44:41
37,"[{'imgObject': {}, 'id': 'turkeysandwich', 'src': '/static/foodstim60/turkeysandwich.jpg', 'key': 'NaN', 'origWidth': 409, 'origHeight': 409, 'width': 409, 'height': 409, 'widthPercent': 0.8, 'rescaleHeight': True, 'trialN': 37, 'loaded': True, 'loadedTime': 69917.10000002384, 'positionName': 'CENTER', 'positionCoords': [755.5, 395.5]}]",Rate how much you want to eat this food from 0 (least) to 10 (most).,69912.10000002384,1669830232125,turkeysandwich,1811.800000011921,True,7.66,71723.90000003576,1811.800000011921,True,HRV,HRV_0136,2022-11-30 17:44:41
38,"[{'imgObject': {}, 'id': 'bagel plain', 'src': '/static/foodstim60/bagel plain.jpg', 'key': 'NaN', 'origWidth': 410, 'origHeight': 410, 'width': 410, 'height': 410, 'widthPercent': 0.8, 'rescaleHeight': True, 'trialN': 38, 'loaded': True, 'loadedTime': 71750, 'positionName': 'CENTER', 'positionCoords': [755, 395]}]",Rate how much you want to eat this food from 0 (least) to 10 (most).,71745.20000004768,1669830233958,bagel plain,1102.5,True,1.2,72847.70000004768,1102.5,True,HRV,HRV_0136,2022-11-30 17:44:41
39,"[{'imgObject': {}, 'id': 'orange slices', 'src': '/static/foodstim60/orange slices.jpg', 'key': 'NaN', 'origWidth': 409, 'origHeight': 410, 'width': 409, 'height': 410, 'widthPercent': 0.8, 'rescaleHeight': True, 'trialN': 39, 'loaded': True, 'loadedTime': 72867.30000001192, 'positionName': 'CENTER', 'positionCoords': [755.5, 395]}]",Rate how much you want to eat this food from 0 (least) to 10 (most).,72862.20000004768,1669830235075,orange slices,1735.699999988079,True,6.36,74597.90000003576,1735.699999988079,True,HRV,HRV_0136,2022-11-30 17:44:41
40,"[{'imgObject': {}, 'id': 'kiwi', 'src': '/static/foodstim60/kiwi.jpg', 'key': 'NaN', 'origWidth': 410, 'origHeight': 410, 'width': 410, 'height': 410, 'widthPercent': 0.8, 'rescaleHeight': True, 'trialN': 40, 'loaded': True, 'loadedTime': 74616.90000003576, 'positionName': 'CENTER', 'positionCoords': [755, 395]}]",Rate how much you want to eat this food from 0 (least) to 10 (most).,74612.20000004768,1669830236823,kiwi,5221.799999952316,True,4.23,79834.0,5221.799999952316,True,HRV,HRV_0136,2022-11-30 17:44:41
41,"[{'imgObject': {}, 'id': 'strawberries', 'src': '/static/foodstim60/strawberries.jpg', 'key': 'NaN', 'origWidth': 410, 'origHeight': 410, 'width': 410, 'height': 410, 'widthPercent': 0.8, 'rescaleHeight': True, 'trialN': 41, 'loaded': True, 'loadedTime': 79851.30000001192, 'positionName': 'CENTER', 'positionCoords': [755, 395]}]",Rate how much you want to eat this food from 0 (least) to 10 (most).,79846.90000003576,1669830242053,strawberries,1009.0999999642372,True,6.0600000000000005,80856.0,1009.0999999642372,True,HRV,HRV_0136,2022-11-30 17:44:41
42,"[{'imgObject': {}, 'id': 'cocktailshrimp', 'src': '/static/foodstim60/cocktailshrimp.jpg', 'key': 'NaN', 'origWidth': 410, 'origHeight': 410, 'width': 410, 'height': 410, 'widthPercent': 0.8, 'rescaleHeight': True, 'trialN': 42, 'loaded': True, 'loadedTime': 80868.5, 'positionName': 'CENTER', 'positionCoords': [755, 395]}]",Rate how much you want to eat this food from 0 (least) to 10 (most).,80863.80000001192,1669830243069,cocktailshrimp,1804.199999988079,True,9.81,82668.0,1804.199999988079,True,HRV,HRV_0136,2022-11-30 17:44:41
43,"[{'imgObject': {}, 'id': 'cherries', 'src': '/static/foodstim60/cherries.jpg', 'key': 'NaN', 'origWidth': 410, 'origHeight': 411, 'width': 410, 'height': 411, 'widthPercent': 0.8, 'rescaleHeight': True, 'trialN': 43, 'loaded': True, 'loadedTime': 82685.80000001192, 'positionName': 'CENTER', 'positionCoords': [755, 394.5]}]",Rate how much you want to eat this food from 0 (least) to 10 (most).,82681.10000002384,1669830244885,cherries,2520.800000011921,True,5.72,85201.90000003576,2520.800000011921,True,HRV,HRV_0136,2022-11-30 17:44:41
44,"[{'imgObject': {}, 'id': 'hashbrowns', 'src': '/static/foodstim60/hashbrowns.jpg', 'key': 'NaN', 'origWidth': 411, 'origHeight': 410, 'width': 411, 'height': 410, 'widthPercent': 0.8, 'rescaleHeight': True, 'trialN': 44, 'loaded': True, 'loadedTime': 85220.20000004768, 'positionName': 'CENTER', 'positionCoords': [754.5, 395]}]",Rate how much you want to eat this food from 0 (least) to 10 (most).,85214.80000001192,1669830247417,hashbrowns,2559.199999988079,True,0.7000000000000001,87774.0,2559.199999988079,True,HRV,HRV_0136,2022-11-30 17:44:41
45,"[{'imgObject': {}, 'id': 'veggieswithdip', 'src': '/static/foodstim60/veggieswithdip.jpg', 'key': 'NaN', 'origWidth': 409, 'origHeight': 409, 'width': 409, 'height': 409, 'widthPercent': 0.8, 'rescaleHeight': True, 'trialN': 45, 'loaded': True, 'loadedTime': 87787, 'positionName': 'CENTER', 'positionCoords': [755.5, 395.5]}]",Rate how much you want to eat this food from 0 (least) to 10 (most).,87782.20000004768,1669830249984,veggieswithdip,1525.7999999523163,True,2.8000000000000003,89308.0,1525.7999999523163,True,HRV,HRV_0136,2022-11-30 17:44:41
46,"[{'imgObject': {}, 'id': 'Tribe humus pita', 'src': '/static/foodstim60/Tribe humus pita.jpg', 'key': 'NaN', 'origWidth': 411, 'origHeight': 411, 'width': 411, 'height': 411, 'widthPercent': 0.8, 'rescaleHeight': True, 'trialN': 46, 'loaded': True, 'loadedTime': 89337.80000001192, 'positionName': 'CENTER', 'positionCoords': [754.5, 394.5]}]",Rate how much you want to eat this food from 0 (least) to 10 (most).,89332.60000002384,1669830251533,Tribe humus pita,1755.199999988079,True,5.53,91087.80000001192,1755.199999988079,True,HRV,HRV_0136,2022-11-30 17:44:41
47,"[{'imgObject': {}, 'id': 'blackbeanswithrice', 'src': '/static/foodstim60/blackbeanswithrice.jpg', 'key': 'NaN', 'origWidth': 410, 'origHeight': 410, 'width': 410, 'height': 410, 'widthPercent': 0.8, 'rescaleHeight': True, 'trialN': 47, 'loaded': True, 'loadedTime': 91103.90000003576, 'positionName': 'CENTER', 'positionCoords': [755, 395]}]",Rate how much you want to eat this food from 0 (least) to 10 (most).,91099.30000001192,1669830253299,blackbeanswithrice,1540.699999988079,True,1.76,92640.0,1540.699999988079,True,HRV,HRV_0136,2022-11-30 17:44:41
48,"[{'imgObject': {}, 'id': 'Grapes', 'src': '/static/foodstim60/Grapes.jpg', 'key': 'NaN', 'origWidth': 411, 'origHeight': 411, 'width': 411, 'height': 411, 'widthPercent': 0.8, 'rescaleHeight': True, 'trialN': 48, 'loaded': True, 'loadedTime': 92654.80000001192, 'positionName': 'CENTER', 'positionCoords': [754.5, 394.5]}]",Rate how much you want to eat this food from 0 (least) to 10 (most).,92650.0,1669830254849,Grapes,1285.9000000357628,True,9.09,93935.90000003576,1285.9000000357628,True,HRV,HRV_0136,2022-11-30 17:44:41
49,"[{'imgObject': {}, 'id': 'cheerios', 'src': '/static/foodstim60/cheerios.jpg', 'key': 'NaN', 'origWidth': 409, 'origHeight': 410, 'width': 409, 'height': 410, 'widthPercent': 0.8, 'rescaleHeight': True, 'trialN': 49, 'loaded': True, 'loadedTime': 93955.30000001192, 'positionName': 'CENTER', 'positionCoords': [755.5, 395]}]",Rate how much you want to eat this food from 0 (least) to 10 (most).,93950.10000002384,1669830256149,cheerios,1851.800000011921,True,4.66,95801.90000003576,1851.800000011921,True,HRV,HRV_0136,2022-11-30 17:44:41
50,"[{'imgObject': {}, 'id': 'hotdog w must', 'src': '/static/foodstim60/hotdog w must.jpg', 'key': 'NaN', 'origWidth': 409, 'origHeight': 409, 'width': 409, 'height': 409, 'widthPercent': 0.8, 'rescaleHeight': True, 'trialN': 50, 'loaded': True, 'loadedTime': 95822, 'positionName': 'CENTER', 'positionCoords': [755.5, 395.5]}]",Rate how much you want to eat this food from 0 (least) to 10 (most).,95816.80000001192,1669830258015,hotdog w must,2889.199999988079,True,6.5200000000000005,98706.0,2889.199999988079,True,HRV,HRV_0136,2022-11-30 17:44:41
51,"[{'imgObject': {}, 'id': 'burrito', 'src': '/static/foodstim60/burrito.jpg', 'key': 'NaN', 'origWidth': 410, 'origHeight': 410, 'width': 410, 'height': 410, 'widthPercent': 0.8, 'rescaleHeight': True, 'trialN': 51, 'loaded': True, 'loadedTime': 98722.30000001192, 'positionName': 'CENTER', 'positionCoords': [755, 395]}]",Rate how much you want to eat this food from 0 (least) to 10 (most).,98717.30000001192,1669830260915,burrito,3658.699999988079,True,5.16,102376.0,3658.699999988079,True,HRV,HRV_0136,2022-11-30 17:44:41
52,"[{'imgObject': {}, 'id': 'mashed potato', 'src': '/static/foodstim60/mashed potato.jpg', 'key': 'NaN', 'origWidth': 409, 'origHeight': 409, 'width': 409, 'height': 409, 'widthPercent': 0.8, 'rescaleHeight': True, 'trialN': 52, 'loaded': True, 'loadedTime': 102389.5, 'positionName': 'CENTER', 'positionCoords': [755.5, 395.5]}]",Rate how much you want to eat this food from 0 (least) to 10 (most).,102385.0,1669830264582,mashed potato,1466.9000000357628,True,2.96,103851.90000003576,1466.9000000357628,True,HRV,HRV_0136,2022-11-30 17:44:41
53,"[{'imgObject': {}, 'id': 'shreddedwheatwithmilk', 'src': '/static/foodstim60/shreddedwheatwithmilk.jpg', 'key': 'NaN', 'origWidth': 410, 'origHeight': 410, 'width': 410, 'height': 410, 'widthPercent': 0.8, 'rescaleHeight': True, 'trialN': 53, 'loaded': True, 'loadedTime': 103873.10000002384, 'positionName': 'CENTER', 'positionCoords': [755, 395]}]",Rate how much you want to eat this food from 0 (least) to 10 (most).,103868.30000001192,1669830266065,shreddedwheatwithmilk,2167.699999988079,True,3.5700000000000003,106036.0,2167.699999988079,True,HRV,HRV_0136,2022-11-30 17:44:41
54,"[{'imgObject': {}, 'id': 'raspberries', 'src': '/static/foodstim60/raspberries.jpg', 'key': 'NaN', 'origWidth': 411, 'origHeight': 411, 'width': 411, 'height': 411, 'widthPercent': 0.8, 'rescaleHeight': True, 'trialN': 54, 'loaded': True, 'loadedTime': 106056.70000004768, 'positionName': 'CENTER', 'positionCoords': [754.5, 394.5]}]",Rate how much you want to eat this food from 0 (least) to 10 (most).,106052.30000001192,1669830268248,raspberries,1169.6000000238419,True,7.78,107221.90000003576,1169.6000000238419,True,HRV,HRV_0136,2022-11-30 17:44:41
55,"[{'imgObject': {}, 'id': 'fruitsalad', 'src': '/static/foodstim60/fruitsalad.jpg', 'key': 'NaN', 'origWidth': 410, 'origHeight': 410, 'width': 410, 'height': 410, 'widthPercent': 0.8, 'rescaleHeight': True, 'trialN': 55, 'loaded': True, 'loadedTime': 107240.70000004768, 'positionName': 'CENTER', 'positionCoords': [755, 395]}]",Rate how much you want to eat this food from 0 (least) to 10 (most).,107235.90000003576,1669830269432,fruitsalad,2210.099999964237,True,6.5200000000000005,109446.0,2210.099999964237,True,HRV,HRV_0136,2022-11-30 17:44:41
56,"[{'imgObject': {}, 'id': 'mac & cheese', 'src': '/static/foodstim60/mac & cheese.jpg', 'key': 'NaN', 'origWidth': 410, 'origHeight': 410, 'width': 410, 'height': 410, 'widthPercent': 0.8, 'rescaleHeight': True, 'trialN': 56, 'loaded': True, 'loadedTime': 109474, 'positionName': 'CENTER', 'positionCoords': [755, 395]}]",Rate how much you want to eat this food from 0 (least) to 10 (most).,109469.30000001192,1669830271665,mac & cheese,1844.6000000238419,True,9.05,111313.90000003576,1844.6000000238419,True,HRV,HRV_0136,2022-11-30 17:44:41
57,"[{'imgObject': {}, 'id': 'lox', 'src': '/static/foodstim60/lox.jpg', 'key': 'NaN', 'origWidth': 410, 'origHeight': 411, 'width': 410, 'height': 411, 'widthPercent': 0.8, 'rescaleHeight': True, 'trialN': 57, 'loaded': True, 'loadedTime': 111339.80000001192, 'positionName': 'CENTER', 'positionCoords': [755, 394.5]}]",Rate how much you want to eat this food from 0 (least) to 10 (most).,111335.70000004768,1669830273531,lox,3160.199999988079,True,10.0,114495.90000003576,3160.199999988079,True,HRV,HRV_0136,2022-11-30 17:44:41
58,"[{'imgObject': {}, 'id': 'fried eggs', 'src': '/static/foodstim60/fried eggs.jpg', 'key': 'NaN', 'origWidth': 410, 'origHeight': 410, 'width': 410, 'height': 410, 'widthPercent': 0.8, 'rescaleHeight': True, 'trialN': 58, 'loaded': True, 'loadedTime': 114525.20000004768, 'positionName': 'CENTER', 'positionCoords': [755, 395]}]",Rate how much you want to eat this food from 0 (least) to 10 (most).,114520.40000003576,1669830276715,fried eggs,2147.399999976158,True,8.89,116667.80000001192,2147.399999976158,True,HRV,HRV_0136,2022-11-30 17:44:41
59,"[{'imgObject': {}, 'id': 'cantaloupe', 'src': '/static/foodstim60/cantaloupe.jpg', 'key': 'NaN', 'origWidth': 409, 'origHeight': 409, 'width': 409, 'height': 409, 'widthPercent': 0.8, 'rescaleHeight': True, 'trialN': 59, 'loaded': True, 'loadedTime': 116690.30000001192, 'positionName': 'CENTER', 'positionCoords': [755.5, 395.5]}]",Rate how much you want to eat this food from 0 (least) to 10 (most).,116686.40000003576,1669830278881,cantaloupe,2171.599999964237,True,4.69,118858.0,2171.599999964237,True,HRV,HRV_0136,2022-11-30 17:44:41
