trialN,stimuli,trialStartTime,trialStartTime_UNIX,stimulus1,stimulus2,stimulus1Bid,stimulus2Bid,delta,selected,rt,rt_UNIX,rt_perfnow,receivedResponse,rsp,trialEndTime,trialDuration,trialEndTime_UNIX,trialDuration_UNIX,exp,subjectId,date
0,"[{'imgObject': {}, 'id': 'pear', 'src': '/static/foodstim60/pear.jpg', 'key': 'u', 'origWidth': 411, 'origHeight': 410, 'width': 411, 'height': 410, 'widthPercent': 0.45, 'rescaleHeight': False, 'trialN': 0, 'loaded': True, 'loadedTime': 4650.199999988079, 'positionName': 'LEFT', 'positionCoords': [510.6, 395], 'bid': 8.13}, {'imgObject': {}, 'id': 'chicken nuggets2', 'src': '/static/foodstim60/chicken nuggets2.jpg', 'key': 'i', 'origWidth': 410, 'origHeight': 409, 'width': 410, 'height': 409, 'widthPercent': 0.45, 'rescaleHeight': False, 'trialN': 0, 'loaded': True, 'loadedTime': 4657, 'positionName': 'RIGHT', 'positionCoords': [998.4, 395.5], 'bid': 7.72}]",4407.5,1669830437718,pear,chicken nuggets2,8.13,7.72,-0.41000000000000103,pear,1960.5,1968,1967.300000011921,True,u,6875.699999988079,2468.199999988079,1669830440186,2468,HRV,HRV_0136,2022-11-30 17:53:40
1,"[{'imgObject': {}, 'id': 'mango', 'src': '/static/foodstim60/mango.jpg', 'key': 'u', 'origWidth': 411, 'origHeight': 411, 'width': 411, 'height': 411, 'widthPercent': 0.45, 'rescaleHeight': False, 'trialN': 1, 'loaded': True, 'loadedTime': 6877.899999976158, 'positionName': 'LEFT', 'positionCoords': [510.6, 394.5], 'bid': 7.17}, {'imgObject': {}, 'id': 'corn cob', 'src': '/static/foodstim60/corn cob.jpg', 'key': 'i', 'origWidth': 411, 'origHeight': 411, 'width': 411, 'height': 411, 'widthPercent': 0.45, 'rescaleHeight': False, 'trialN': 1, 'loaded': True, 'loadedTime': 6878.099999964237, 'positionName': 'RIGHT', 'positionCoords': [998.4, 394.5], 'bid': 7.25}]",6876.199999988079,1669830440187,mango,corn cob,7.17,7.25,0.08000000000000007,corn cob,1395.800000011921,1401,1400.8999999761581,True,i,8779.199999988079,1903.0,1669830442090,1903,HRV,HRV_0136,2022-11-30 17:53:40
2,"[{'imgObject': {}, 'id': 'olives', 'src': '/static/foodstim60/olives.jpg', 'key': 'u', 'origWidth': 410, 'origHeight': 410, 'width': 410, 'height': 410, 'widthPercent': 0.45, 'rescaleHeight': False, 'trialN': 2, 'loaded': True, 'loadedTime': 8781.399999976158, 'positionName': 'LEFT', 'positionCoords': [511.6, 395], 'bid': 9.47}, {'imgObject': {}, 'id': 'Grapes', 'src': '/static/foodstim60/Grapes.jpg', 'key': 'i', 'origWidth': 411, 'origHeight': 411, 'width': 411, 'height': 411, 'widthPercent': 0.45, 'rescaleHeight': False, 'trialN': 2, 'loaded': True, 'loadedTime': 8781.699999988079, 'positionName': 'RIGHT', 'positionCoords': [998.4, 394.5], 'bid': 8.370000000000001}]",8779.599999964237,1669830442090,olives,Grapes,9.47,8.370000000000001,-1.0999999999999996,olives,964.4000000357628,970,969.3000000119209,True,u,10249.199999988079,1469.6000000238419,1669830443560,1470,HRV,HRV_0136,2022-11-30 17:53:40
3,"[{'imgObject': {}, 'id': 'tacos', 'src': '/static/foodstim60/tacos.jpg', 'key': 'u', 'origWidth': 411, 'origHeight': 411, 'width': 411, 'height': 411, 'widthPercent': 0.45, 'rescaleHeight': False, 'trialN': 3, 'loaded': True, 'loadedTime': 10251.399999976158, 'positionName': 'LEFT', 'positionCoords': [510.6, 394.5], 'bid': 4.32}, {'imgObject': {}, 'id': 'kiwi', 'src': '/static/foodstim60/kiwi.jpg', 'key': 'i', 'origWidth': 410, 'origHeight': 410, 'width': 410, 'height': 410, 'widthPercent': 0.45, 'rescaleHeight': False, 'trialN': 3, 'loaded': True, 'loadedTime': 10251.699999988079, 'positionName': 'RIGHT', 'positionCoords': [998.4, 395], 'bid': 4.22}]",10249.599999964237,1669830443560,tacos,kiwi,4.32,4.22,-0.10000000000000053,kiwi,1662.300000011921,1667,1667.0,True,i,12418.5,2168.900000035763,1669830445729,2169,HRV,HRV_0136,2022-11-30 17:53:40
4,"[{'imgObject': {}, 'id': 'lox', 'src': '/static/foodstim60/lox.jpg', 'key': 'u', 'origWidth': 410, 'origHeight': 411, 'width': 410, 'height': 411, 'widthPercent': 0.45, 'rescaleHeight': False, 'trialN': 4, 'loaded': True, 'loadedTime': 12420.800000011921, 'positionName': 'LEFT', 'positionCoords': [511.6, 394.5], 'bid': 9.81}, {'imgObject': {}, 'id': 'salmon', 'src': '/static/foodstim60/salmon.jpg', 'key': 'i', 'origWidth': 410, 'origHeight': 409, 'width': 410, 'height': 409, 'widthPercent': 0.45, 'rescaleHeight': False, 'trialN': 4, 'loaded': True, 'loadedTime': 12421.300000011921, 'positionName': 'RIGHT', 'positionCoords': [998.4, 395.5], 'bid': 9.61}]",12419.0,1669830445730,lox,salmon,9.81,9.61,-0.20000000000000107,lox,820.8999999761581,826,826.0,True,u,13745.399999976158,1326.3999999761581,1669830447056,1326,HRV,HRV_0136,2022-11-30 17:53:40
5,"[{'imgObject': {}, 'id': 'turkey sandwich', 'src': '/static/foodstim60/turkey sandwich.jpg', 'key': 'u', 'origWidth': 409, 'origHeight': 409, 'width': 409, 'height': 409, 'widthPercent': 0.45, 'rescaleHeight': False, 'trialN': 5, 'loaded': True, 'loadedTime': 13747.800000011921, 'positionName': 'LEFT', 'positionCoords': [512.6, 395.5], 'bid': 7.76}, {'imgObject': {}, 'id': 'chicken nuggets2', 'src': '/static/foodstim60/chicken nuggets2.jpg', 'key': 'i', 'origWidth': 410, 'origHeight': 409, 'width': 410, 'height': 409, 'widthPercent': 0.45, 'rescaleHeight': False, 'trialN': 5, 'loaded': True, 'loadedTime': 13748.300000011921, 'positionName': 'RIGHT', 'positionCoords': [998.4, 395.5], 'bid': 7.72}]",13745.899999976158,1669830447057,turkey sandwich,chicken nuggets2,7.76,7.72,-0.040000000000000036,turkey sandwich,2230.100000023842,2235,2235.199999988079,True,u,16481.30000001192,2735.400000035763,1669830449792,2735,HRV,HRV_0136,2022-11-30 17:53:40
6,"[{'imgObject': {}, 'id': 'raisin bran w milk', 'src': '/static/foodstim60/raisin bran w milk.jpg', 'key': 'u', 'origWidth': 411, 'origHeight': 411, 'width': 411, 'height': 411, 'widthPercent': 0.45, 'rescaleHeight': False, 'trialN': 6, 'loaded': True, 'loadedTime': 16483.69999998808, 'positionName': 'LEFT', 'positionCoords': [510.6, 394.5], 'bid': 5.67}, {'imgObject': {}, 'id': 'Tribe humus pita', 'src': '/static/foodstim60/Tribe humus pita.jpg', 'key': 'i', 'origWidth': 411, 'origHeight': 411, 'width': 411, 'height': 411, 'widthPercent': 0.45, 'rescaleHeight': False, 'trialN': 6, 'loaded': True, 'loadedTime': 16484, 'positionName': 'RIGHT', 'positionCoords': [998.4, 394.5], 'bid': 5.59}]",16481.80000001192,1669830449792,raisin bran w milk,Tribe humus pita,5.67,5.59,-0.08000000000000007,raisin bran w milk,2694.099999964237,2700,2699.399999976158,True,u,19681.399999976158,3199.599999964237,1669830452992,3200,HRV,HRV_0136,2022-11-30 17:53:40
7,"[{'imgObject': {}, 'id': 'chickenfingers', 'src': '/static/foodstim60/chickenfingers.jpg', 'key': 'u', 'origWidth': 410, 'origHeight': 410, 'width': 410, 'height': 410, 'widthPercent': 0.45, 'rescaleHeight': False, 'trialN': 7, 'loaded': True, 'loadedTime': 19683.599999964237, 'positionName': 'LEFT', 'positionCoords': [511.6, 395], 'bid': 6.6000000000000005}, {'imgObject': {}, 'id': 'omelette', 'src': '/static/foodstim60/omelette.jpg', 'key': 'i', 'origWidth': 410, 'origHeight': 409, 'width': 410, 'height': 409, 'widthPercent': 0.45, 'rescaleHeight': False, 'trialN': 7, 'loaded': True, 'loadedTime': 19683.899999976158, 'positionName': 'RIGHT', 'positionCoords': [998.4, 395.5], 'bid': 8.91}]",19681.899999976158,1669830452992,chickenfingers,omelette,6.6000000000000005,8.91,2.3099999999999996,omelette,1446,1452,1451.699999988079,True,i,21634.69999998808,1952.800000011921,1669830454945,1953,HRV,HRV_0136,2022-11-30 17:53:40
8,"[{'imgObject': {}, 'id': 'roastedpotatoes', 'src': '/static/foodstim60/roastedpotatoes.jpg', 'key': 'u', 'origWidth': 409, 'origHeight': 410, 'width': 409, 'height': 410, 'widthPercent': 0.45, 'rescaleHeight': False, 'trialN': 8, 'loaded': True, 'loadedTime': 21637.30000001192, 'positionName': 'LEFT', 'positionCoords': [512.6, 395], 'bid': 1.65}, {'imgObject': {}, 'id': 'sweetpotato', 'src': '/static/foodstim60/sweetpotato.jpg', 'key': 'i', 'origWidth': 410, 'origHeight': 410, 'width': 410, 'height': 410, 'widthPercent': 0.45, 'rescaleHeight': False, 'trialN': 8, 'loaded': True, 'loadedTime': 21637.80000001192, 'positionName': 'RIGHT', 'positionCoords': [998.4, 395], 'bid': 2.85}]",21635.19999998808,1669830454946,roastedpotatoes,sweetpotato,1.65,2.85,1.2000000000000002,sweetpotato,1612.800000011921,1618,1618.3999999761581,True,i,23754.30000001192,2119.100000023842,1669830457065,2119,HRV,HRV_0136,2022-11-30 17:53:40
9,"[{'imgObject': {}, 'id': 'cocktailshrimp', 'src': '/static/foodstim60/cocktailshrimp.jpg', 'key': 'u', 'origWidth': 410, 'origHeight': 410, 'width': 410, 'height': 410, 'widthPercent': 0.45, 'rescaleHeight': False, 'trialN': 9, 'loaded': True, 'loadedTime': 23756.599999964237, 'positionName': 'LEFT', 'positionCoords': [511.6, 395], 'bid': 9.93}, {'imgObject': {}, 'id': 'Grapes', 'src': '/static/foodstim60/Grapes.jpg', 'key': 'i', 'origWidth': 411, 'origHeight': 411, 'width': 411, 'height': 411, 'widthPercent': 0.45, 'rescaleHeight': False, 'trialN': 9, 'loaded': True, 'loadedTime': 23757.099999964237, 'positionName': 'RIGHT', 'positionCoords': [998.4, 394.5], 'bid': 8.370000000000001}]",23754.80000001192,1669830457065,cocktailshrimp,Grapes,9.93,8.370000000000001,-1.5599999999999987,cocktailshrimp,1021.1999999880791,1026,1026.2999999523163,True,u,25281.399999976158,1526.5999999642372,1669830458592,1527,HRV,HRV_0136,2022-11-30 17:53:40
10,"[{'imgObject': {}, 'id': 'ice cream sundae 002', 'src': '/static/foodstim60/ice cream sundae 002.jpg', 'key': 'u', 'origWidth': 409, 'origHeight': 409, 'width': 409, 'height': 409, 'widthPercent': 0.45, 'rescaleHeight': False, 'trialN': 10, 'loaded': True, 'loadedTime': 25283.599999964237, 'positionName': 'LEFT', 'positionCoords': [512.6, 395.5], 'bid': 4.88}, {'imgObject': {}, 'id': 'orange slices', 'src': '/static/foodstim60/orange slices.jpg', 'key': 'i', 'origWidth': 409, 'origHeight': 410, 'width': 409, 'height': 410, 'widthPercent': 0.45, 'rescaleHeight': False, 'trialN': 10, 'loaded': True, 'loadedTime': 25283.80000001192, 'positionName': 'RIGHT', 'positionCoords': [998.4, 395], 'bid': 5.86}]",25281.80000001192,1669830458592,ice cream sundae 002,orange slices,4.88,5.86,0.9800000000000004,orange slices,2854.199999988079,2859,2859.2999999523163,True,i,28641.399999976158,3359.599999964237,1669830461952,3360,HRV,HRV_0136,2022-11-30 17:53:40
11,"[{'imgObject': {}, 'id': 'steak', 'src': '/static/foodstim60/steak.jpg', 'key': 'u', 'origWidth': 410, 'origHeight': 410, 'width': 410, 'height': 410, 'widthPercent': 0.45, 'rescaleHeight': False, 'trialN': 11, 'loaded': True, 'loadedTime': 28643.69999998808, 'positionName': 'LEFT', 'positionCoords': [511.6, 395], 'bid': 9}, {'imgObject': {}, 'id': 'edamame', 'src': '/static/foodstim60/edamame.jpg', 'key': 'i', 'origWidth': 409, 'origHeight': 410, 'width': 409, 'height': 410, 'widthPercent': 0.45, 'rescaleHeight': False, 'trialN': 11, 'loaded': True, 'loadedTime': 28643.899999976158, 'positionName': 'RIGHT', 'positionCoords': [998.4, 395], 'bid': 6.61}]",28641.899999976158,1669830461952,steak,edamame,9.0,6.61,-2.3899999999999997,steak,2310.100000023842,2315,2315.5,True,u,31459.30000001192,2817.400000035763,1669830464769,2817,HRV,HRV_0136,2022-11-30 17:53:40
12,"[{'imgObject': {}, 'id': 'banana', 'src': '/static/foodstim60/banana.jpg', 'key': 'u', 'origWidth': 410, 'origHeight': 410, 'width': 410, 'height': 410, 'widthPercent': 0.45, 'rescaleHeight': False, 'trialN': 12, 'loaded': True, 'loadedTime': 31461.599999964237, 'positionName': 'LEFT', 'positionCoords': [511.6, 395], 'bid': 2.56}, {'imgObject': {}, 'id': 'popsicles', 'src': '/static/foodstim60/popsicles.jpg', 'key': 'i', 'origWidth': 410, 'origHeight': 410, 'width': 410, 'height': 410, 'widthPercent': 0.45, 'rescaleHeight': False, 'trialN': 12, 'loaded': True, 'loadedTime': 31461.80000001192, 'positionName': 'RIGHT', 'positionCoords': [998.4, 395], 'bid': 1.31}]",31459.899999976158,1669830464770,banana,popsicles,2.56,1.31,-1.25,popsicles,2731.900000035763,2738,2738.0,True,i,34698.09999996424,3238.199999988079,1669830468008,3238,HRV,HRV_0136,2022-11-30 17:53:40
13,"[{'imgObject': {}, 'id': 'sweetpotato', 'src': '/static/foodstim60/sweetpotato.jpg', 'key': 'u', 'origWidth': 410, 'origHeight': 410, 'width': 410, 'height': 410, 'widthPercent': 0.45, 'rescaleHeight': False, 'trialN': 13, 'loaded': True, 'loadedTime': 34700.30000001192, 'positionName': 'LEFT', 'positionCoords': [511.6, 395], 'bid': 2.85}, {'imgObject': {}, 'id': 'corn cob', 'src': '/static/foodstim60/corn cob.jpg', 'key': 'i', 'origWidth': 411, 'origHeight': 411, 'width': 411, 'height': 411, 'widthPercent': 0.45, 'rescaleHeight': False, 'trialN': 13, 'loaded': True, 'loadedTime': 34700.80000001192, 'positionName': 'RIGHT', 'positionCoords': [998.4, 394.5], 'bid': 7.25}]",34698.69999998808,1669830468009,sweetpotato,corn cob,2.85,7.25,4.4,corn cob,1909.300000011921,1914,1914.6000000238419,True,i,37113.59999996424,2414.899999976158,1669830470423,2414,HRV,HRV_0136,2022-11-30 17:53:40
14,"[{'imgObject': {}, 'id': 'bagel and cc', 'src': '/static/foodstim60/bagel and cc.jpg', 'key': 'u', 'origWidth': 410, 'origHeight': 410, 'width': 410, 'height': 410, 'widthPercent': 0.45, 'rescaleHeight': False, 'trialN': 14, 'loaded': True, 'loadedTime': 37115.80000001192, 'positionName': 'LEFT', 'positionCoords': [511.6, 395], 'bid': 2.18}, {'imgObject': {}, 'id': 'hashbrowns', 'src': '/static/foodstim60/hashbrowns.jpg', 'key': 'i', 'origWidth': 411, 'origHeight': 410, 'width': 411, 'height': 410, 'widthPercent': 0.45, 'rescaleHeight': False, 'trialN': 14, 'loaded': True, 'loadedTime': 37116.30000001192, 'positionName': 'RIGHT', 'positionCoords': [998.4, 395], 'bid': 2.16}]",37114.09999996424,1669830470424,bagel and cc,hashbrowns,2.18,2.16,-0.020000000000000018,bagel and cc,2349.800000011921,2355,2354.800000011921,True,u,39969.30000001192,2855.2000000476837,1669830473279,2855,HRV,HRV_0136,2022-11-30 17:53:40
15,"[{'imgObject': {}, 'id': 'strawberries', 'src': '/static/foodstim60/strawberries.jpg', 'key': 'u', 'origWidth': 410, 'origHeight': 410, 'width': 410, 'height': 410, 'widthPercent': 0.45, 'rescaleHeight': False, 'trialN': 15, 'loaded': True, 'loadedTime': 39971.59999996424, 'positionName': 'LEFT', 'positionCoords': [511.6, 395], 'bid': 6.87}, {'imgObject': {}, 'id': 'chicken nuggets2', 'src': '/static/foodstim60/chicken nuggets2.jpg', 'key': 'i', 'origWidth': 410, 'origHeight': 409, 'width': 410, 'height': 409, 'widthPercent': 0.45, 'rescaleHeight': False, 'trialN': 15, 'loaded': True, 'loadedTime': 39971.89999997616, 'positionName': 'RIGHT', 'positionCoords': [998.4, 395.5], 'bid': 7.72}]",39969.80000001192,1669830473280,strawberries,chicken nuggets2,6.87,7.72,0.8499999999999996,chicken nuggets2,2870.099999964237,2874,2874.099999964237,True,i,43344.09999996424,3374.2999999523163,1669830476654,3374,HRV,HRV_0136,2022-11-30 17:53:40
16,"[{'imgObject': {}, 'id': 'hotdog w must', 'src': '/static/foodstim60/hotdog w must.jpg', 'key': 'u', 'origWidth': 409, 'origHeight': 409, 'width': 409, 'height': 409, 'widthPercent': 0.45, 'rescaleHeight': False, 'trialN': 16, 'loaded': True, 'loadedTime': 43346.39999997616, 'positionName': 'LEFT', 'positionCoords': [512.6, 395.5], 'bid': 7.29}, {'imgObject': {}, 'id': 'turkeysandwich', 'src': '/static/foodstim60/turkeysandwich.jpg', 'key': 'i', 'origWidth': 409, 'origHeight': 409, 'width': 409, 'height': 409, 'widthPercent': 0.45, 'rescaleHeight': False, 'trialN': 16, 'loaded': True, 'loadedTime': 43346.69999998808, 'positionName': 'RIGHT', 'positionCoords': [998.4, 395.5], 'bid': 7.47}]",43344.59999996424,1669830476654,hotdog w must,turkeysandwich,7.29,7.47,0.17999999999999972,turkeysandwich,1247.4000000357628,1253,1252.9000000357628,True,i,45097.89999997616,1753.300000011921,1669830478408,1754,HRV,HRV_0136,2022-11-30 17:53:40
17,"[{'imgObject': {}, 'id': 'burrito', 'src': '/static/foodstim60/burrito.jpg', 'key': 'u', 'origWidth': 410, 'origHeight': 410, 'width': 410, 'height': 410, 'widthPercent': 0.45, 'rescaleHeight': False, 'trialN': 17, 'loaded': True, 'loadedTime': 45100.19999998808, 'positionName': 'LEFT', 'positionCoords': [511.6, 395], 'bid': 4.72}, {'imgObject': {}, 'id': 'bagel plain', 'src': '/static/foodstim60/bagel plain.jpg', 'key': 'i', 'origWidth': 410, 'origHeight': 410, 'width': 410, 'height': 410, 'widthPercent': 0.45, 'rescaleHeight': False, 'trialN': 17, 'loaded': True, 'loadedTime': 45100.39999997616, 'positionName': 'RIGHT', 'positionCoords': [998.4, 395], 'bid': 1.76}]",45098.39999997616,1669830478408,burrito,bagel plain,4.72,1.76,-2.96,burrito,1517.5,1522,1522.4000000357628,True,u,47121.0,2022.6000000238419,1669830480431,2023,HRV,HRV_0136,2022-11-30 17:53:40
18,"[{'imgObject': {}, 'id': 'kiwi', 'src': '/static/foodstim60/kiwi.jpg', 'key': 'u', 'origWidth': 410, 'origHeight': 410, 'width': 410, 'height': 410, 'widthPercent': 0.45, 'rescaleHeight': False, 'trialN': 18, 'loaded': True, 'loadedTime': 47123.39999997616, 'positionName': 'LEFT', 'positionCoords': [511.6, 395], 'bid': 4.22}, {'imgObject': {}, 'id': 'baked potato', 'src': '/static/foodstim60/baked potato.jpg', 'key': 'i', 'origWidth': 409, 'origHeight': 410, 'width': 409, 'height': 410, 'widthPercent': 0.45, 'rescaleHeight': False, 'trialN': 18, 'loaded': True, 'loadedTime': 47123.80000001192, 'positionName': 'RIGHT', 'positionCoords': [998.4, 395], 'bid': 0.65}]",47121.5,1669830480431,kiwi,baked potato,4.22,0.65,-3.57,kiwi,1022.3999999761581,1027,1026.5999999642372,True,u,48648.19999998808,1526.699999988079,1669830481958,1527,HRV,HRV_0136,2022-11-30 17:53:40
19,"[{'imgObject': {}, 'id': 'burrito', 'src': '/static/foodstim60/burrito.jpg', 'key': 'u', 'origWidth': 410, 'origHeight': 410, 'width': 410, 'height': 410, 'widthPercent': 0.45, 'rescaleHeight': False, 'trialN': 19, 'loaded': True, 'loadedTime': 48650.5, 'positionName': 'LEFT', 'positionCoords': [511.6, 395], 'bid': 4.72}, {'imgObject': {}, 'id': 'veggieswithdip', 'src': '/static/foodstim60/veggieswithdip.jpg', 'key': 'i', 'origWidth': 409, 'origHeight': 409, 'width': 409, 'height': 409, 'widthPercent': 0.45, 'rescaleHeight': False, 'trialN': 19, 'loaded': True, 'loadedTime': 48650.80000001192, 'positionName': 'RIGHT', 'positionCoords': [998.4, 395.5], 'bid': 4.65}]",48648.69999998808,1669830481958,burrito,veggieswithdip,4.72,4.65,-0.0699999999999994,burrito,1407.1000000238419,1410,1410.199999988079,True,u,50559.09999996424,1910.3999999761581,1669830483869,1911,HRV,HRV_0136,2022-11-30 17:53:40
20,"[{'imgObject': {}, 'id': 'raspberries', 'src': '/static/foodstim60/raspberries.jpg', 'key': 'u', 'origWidth': 411, 'origHeight': 411, 'width': 411, 'height': 411, 'widthPercent': 0.45, 'rescaleHeight': False, 'trialN': 20, 'loaded': True, 'loadedTime': 50561.30000001192, 'positionName': 'LEFT', 'positionCoords': [510.6, 394.5], 'bid': 6.32}, {'imgObject': {}, 'id': 'fruitsalad', 'src': '/static/foodstim60/fruitsalad.jpg', 'key': 'i', 'origWidth': 410, 'origHeight': 410, 'width': 410, 'height': 410, 'widthPercent': 0.45, 'rescaleHeight': False, 'trialN': 20, 'loaded': True, 'loadedTime': 50561.59999996424, 'positionName': 'RIGHT', 'positionCoords': [998.4, 395], 'bid': 5.25}]",50559.59999996424,1669830483869,raspberries,fruitsalad,6.32,5.25,-1.0700000000000003,raspberries,1728.2000000476837,1732,1731.800000011921,True,u,52791.69999998808,2232.100000023842,1669830486101,2232,HRV,HRV_0136,2022-11-30 17:53:40
21,"[{'imgObject': {}, 'id': 'blackbeanswithrice', 'src': '/static/foodstim60/blackbeanswithrice.jpg', 'key': 'u', 'origWidth': 410, 'origHeight': 410, 'width': 410, 'height': 410, 'widthPercent': 0.45, 'rescaleHeight': False, 'trialN': 21, 'loaded': True, 'loadedTime': 52793.39999997616, 'positionName': 'LEFT', 'positionCoords': [511.6, 395], 'bid': 3.42}, {'imgObject': {}, 'id': 'tacos', 'src': '/static/foodstim60/tacos.jpg', 'key': 'i', 'origWidth': 411, 'origHeight': 411, 'width': 411, 'height': 411, 'widthPercent': 0.45, 'rescaleHeight': False, 'trialN': 21, 'loaded': True, 'loadedTime': 52793.69999998808, 'positionName': 'RIGHT', 'positionCoords': [998.4, 394.5], 'bid': 4.32}]",52792.09999996424,1669830486101,blackbeanswithrice,tacos,3.42,4.32,0.9000000000000004,tacos,1367.7000000476837,1373,1372.5,True,i,54665.19999998808,1873.1000000238419,1669830487975,1874,HRV,HRV_0136,2022-11-30 17:53:40
22,"[{'imgObject': {}, 'id': 'bagel plain', 'src': '/static/foodstim60/bagel plain.jpg', 'key': 'u', 'origWidth': 410, 'origHeight': 410, 'width': 410, 'height': 410, 'widthPercent': 0.45, 'rescaleHeight': False, 'trialN': 22, 'loaded': True, 'loadedTime': 54666.69999998808, 'positionName': 'LEFT', 'positionCoords': [511.6, 395], 'bid': 1.76}, {'imgObject': {}, 'id': 'rigatoni', 'src': '/static/foodstim60/rigatoni.jpg', 'key': 'i', 'origWidth': 411, 'origHeight': 411, 'width': 411, 'height': 411, 'widthPercent': 0.45, 'rescaleHeight': False, 'trialN': 22, 'loaded': True, 'loadedTime': 54667.19999998808, 'positionName': 'RIGHT', 'positionCoords': [998.4, 394.5], 'bid': 0.12}]",54665.59999996424,1669830487975,bagel plain,rigatoni,1.76,0.12,-1.6400000000000001,bagel plain,1198.2000000476837,1203,1203.1000000238419,True,u,56369.30000001192,1703.7000000476837,1669830489679,1704,HRV,HRV_0136,2022-11-30 17:53:40
23,"[{'imgObject': {}, 'id': 'omelette', 'src': '/static/foodstim60/omelette.jpg', 'key': 'u', 'origWidth': 410, 'origHeight': 409, 'width': 410, 'height': 409, 'widthPercent': 0.45, 'rescaleHeight': False, 'trialN': 23, 'loaded': True, 'loadedTime': 56371.5, 'positionName': 'LEFT', 'positionCoords': [511.6, 395.5], 'bid': 8.91}, {'imgObject': {}, 'id': 'lox', 'src': '/static/foodstim60/lox.jpg', 'key': 'i', 'origWidth': 410, 'origHeight': 411, 'width': 410, 'height': 411, 'widthPercent': 0.45, 'rescaleHeight': False, 'trialN': 23, 'loaded': True, 'loadedTime': 56371.80000001192, 'positionName': 'RIGHT', 'positionCoords': [998.4, 394.5], 'bid': 9.81}]",56369.69999998808,1669830489679,omelette,lox,8.91,9.81,0.9000000000000004,lox,1238.1000000238419,1242,1241.800000011921,True,i,58111.80000001192,1742.1000000238419,1669830491421,1742,HRV,HRV_0136,2022-11-30 17:53:40
24,"[{'imgObject': {}, 'id': 'avocado', 'src': '/static/foodstim60/avocado.jpg', 'key': 'u', 'origWidth': 409, 'origHeight': 409, 'width': 409, 'height': 409, 'widthPercent': 0.45, 'rescaleHeight': False, 'trialN': 24, 'loaded': True, 'loadedTime': 58114, 'positionName': 'LEFT', 'positionCoords': [512.6, 395.5], 'bid': 5.33}, {'imgObject': {}, 'id': 'salmon', 'src': '/static/foodstim60/salmon.jpg', 'key': 'i', 'origWidth': 410, 'origHeight': 409, 'width': 410, 'height': 409, 'widthPercent': 0.45, 'rescaleHeight': False, 'trialN': 24, 'loaded': True, 'loadedTime': 58114.30000001192, 'positionName': 'RIGHT', 'positionCoords': [998.4, 395.5], 'bid': 9.61}]",58112.19999998808,1669830491421,avocado,salmon,5.33,9.61,4.279999999999999,avocado,871.8000000119209,877,876.8999999761581,True,u,59489.39999997616,1377.199999988079,1669830492799,1378,HRV,HRV_0136,2022-11-30 17:53:40
25,"[{'imgObject': {}, 'id': 'omelette', 'src': '/static/foodstim60/omelette.jpg', 'key': 'u', 'origWidth': 410, 'origHeight': 409, 'width': 410, 'height': 409, 'widthPercent': 0.45, 'rescaleHeight': False, 'trialN': 25, 'loaded': True, 'loadedTime': 59491.59999996424, 'positionName': 'LEFT', 'positionCoords': [511.6, 395.5], 'bid': 8.91}, {'imgObject': {}, 'id': 'burrito', 'src': '/static/foodstim60/burrito.jpg', 'key': 'i', 'origWidth': 410, 'origHeight': 410, 'width': 410, 'height': 410, 'widthPercent': 0.45, 'rescaleHeight': False, 'trialN': 25, 'loaded': True, 'loadedTime': 59491.89999997616, 'positionName': 'RIGHT', 'positionCoords': [998.4, 395], 'bid': 4.72}]",59489.89999997616,1669830492799,omelette,burrito,8.91,4.72,-4.19,omelette,1878.1000000238419,1883,1883.4000000357628,True,u,61874.19999998808,2384.300000011921,1669830495183,2384,HRV,HRV_0136,2022-11-30 17:53:40
26,"[{'imgObject': {}, 'id': 'baked potato', 'src': '/static/foodstim60/baked potato.jpg', 'key': 'u', 'origWidth': 409, 'origHeight': 410, 'width': 409, 'height': 410, 'widthPercent': 0.45, 'rescaleHeight': False, 'trialN': 26, 'loaded': True, 'loadedTime': 61876.39999997616, 'positionName': 'LEFT', 'positionCoords': [512.6, 395], 'bid': 0.65}, {'imgObject': {}, 'id': 'bagel and cc', 'src': '/static/foodstim60/bagel and cc.jpg', 'key': 'i', 'origWidth': 410, 'origHeight': 410, 'width': 410, 'height': 410, 'widthPercent': 0.45, 'rescaleHeight': False, 'trialN': 26, 'loaded': True, 'loadedTime': 61876.89999997616, 'positionName': 'RIGHT', 'positionCoords': [998.4, 395], 'bid': 2.18}]",61874.59999996424,1669830495184,baked potato,bagel and cc,0.65,2.18,1.5300000000000002,bagel and cc,1525.2000000476837,1533,1533.1000000238419,True,i,63909.19999998808,2034.6000000238419,1669830497218,2034,HRV,HRV_0136,2022-11-30 17:53:40
27,"[{'imgObject': {}, 'id': 'shreddedwheatwithmilk', 'src': '/static/foodstim60/shreddedwheatwithmilk.jpg', 'key': 'u', 'origWidth': 410, 'origHeight': 410, 'width': 410, 'height': 410, 'widthPercent': 0.45, 'rescaleHeight': False, 'trialN': 27, 'loaded': True, 'loadedTime': 63911.39999997616, 'positionName': 'LEFT', 'positionCoords': [511.6, 395], 'bid': 4.08}, {'imgObject': {}, 'id': 'sushi w_condiments', 'src': '/static/foodstim60/sushi w_condiments.jpg', 'key': 'i', 'origWidth': 410, 'origHeight': 410, 'width': 410, 'height': 410, 'widthPercent': 0.45, 'rescaleHeight': False, 'trialN': 27, 'loaded': True, 'loadedTime': 63911.89999997616, 'positionName': 'RIGHT', 'positionCoords': [998.4, 395], 'bid': 8.19}]",63909.59999996424,1669830497219,shreddedwheatwithmilk,sushi w_condiments,4.08,8.19,4.109999999999999,sushi w_condiments,1562.4000000357628,1567,1567.4000000357628,True,i,65979.0,2069.400000035763,1669830499288,2069,HRV,HRV_0136,2022-11-30 17:53:40
28,"[{'imgObject': {}, 'id': 'cocktailshrimp', 'src': '/static/foodstim60/cocktailshrimp.jpg', 'key': 'u', 'origWidth': 410, 'origHeight': 410, 'width': 410, 'height': 410, 'widthPercent': 0.45, 'rescaleHeight': False, 'trialN': 28, 'loaded': True, 'loadedTime': 65981.30000001192, 'positionName': 'LEFT', 'positionCoords': [511.6, 395], 'bid': 9.93}, {'imgObject': {}, 'id': 'salmon', 'src': '/static/foodstim60/salmon.jpg', 'key': 'i', 'origWidth': 410, 'origHeight': 409, 'width': 410, 'height': 409, 'widthPercent': 0.45, 'rescaleHeight': False, 'trialN': 28, 'loaded': True, 'loadedTime': 65981.59999996424, 'positionName': 'RIGHT', 'positionCoords': [998.4, 395.5], 'bid': 9.61}]",65979.39999997616,1669830499288,cocktailshrimp,salmon,9.93,9.61,-0.3200000000000003,cocktailshrimp,916.8000000119209,923,922.9000000357628,True,u,67402.69999998808,1423.300000011921,1669830500712,1424,HRV,HRV_0136,2022-11-30 17:53:40
29,"[{'imgObject': {}, 'id': 'blueberries', 'src': '/static/foodstim60/blueberries.jpg', 'key': 'u', 'origWidth': 411, 'origHeight': 411, 'width': 411, 'height': 411, 'widthPercent': 0.45, 'rescaleHeight': False, 'trialN': 29, 'loaded': True, 'loadedTime': 67404.69999998808, 'positionName': 'LEFT', 'positionCoords': [510.6, 394.5], 'bid': 6.15}, {'imgObject': {}, 'id': 'apple slices', 'src': '/static/foodstim60/apple slices.jpg', 'key': 'i', 'origWidth': 409, 'origHeight': 410, 'width': 409, 'height': 410, 'widthPercent': 0.45, 'rescaleHeight': False, 'trialN': 29, 'loaded': True, 'loadedTime': 67405, 'positionName': 'RIGHT', 'positionCoords': [998.4, 395], 'bid': 6.34}]",67403.09999996424,1669830500712,blueberries,apple slices,6.15,6.34,0.1899999999999995,blueberries,3068.900000035763,3074,3073.900000035763,True,u,70978.80000001192,3575.7000000476837,1669830504288,3576,HRV,HRV_0136,2022-11-30 17:53:40
30,"[{'imgObject': {}, 'id': 'rigatoni', 'src': '/static/foodstim60/rigatoni.jpg', 'key': 'u', 'origWidth': 411, 'origHeight': 411, 'width': 411, 'height': 411, 'widthPercent': 0.45, 'rescaleHeight': False, 'trialN': 30, 'loaded': True, 'loadedTime': 70981.09999996424, 'positionName': 'LEFT', 'positionCoords': [510.6, 394.5], 'bid': 0.12}, {'imgObject': {}, 'id': 'banana', 'src': '/static/foodstim60/banana.jpg', 'key': 'i', 'origWidth': 410, 'origHeight': 410, 'width': 410, 'height': 410, 'widthPercent': 0.45, 'rescaleHeight': False, 'trialN': 30, 'loaded': True, 'loadedTime': 70981.59999996424, 'positionName': 'RIGHT', 'positionCoords': [998.4, 395], 'bid': 2.56}]",70979.30000001192,1669830504288,rigatoni,banana,0.12,2.56,2.44,banana,1604.5,1610,1609.5,True,i,73089.19999998808,2109.899999976158,1669830506398,2110,HRV,HRV_0136,2022-11-30 17:53:40
31,"[{'imgObject': {}, 'id': 'cocktailshrimp', 'src': '/static/foodstim60/cocktailshrimp.jpg', 'key': 'u', 'origWidth': 410, 'origHeight': 410, 'width': 410, 'height': 410, 'widthPercent': 0.45, 'rescaleHeight': False, 'trialN': 31, 'loaded': True, 'loadedTime': 73091.39999997616, 'positionName': 'LEFT', 'positionCoords': [511.6, 395], 'bid': 9.93}, {'imgObject': {}, 'id': 'turkeysandwich', 'src': '/static/foodstim60/turkeysandwich.jpg', 'key': 'i', 'origWidth': 409, 'origHeight': 409, 'width': 409, 'height': 409, 'widthPercent': 0.45, 'rescaleHeight': False, 'trialN': 31, 'loaded': True, 'loadedTime': 73091.80000001192, 'positionName': 'RIGHT', 'positionCoords': [998.4, 395.5], 'bid': 7.47}]",73089.69999998808,1669830506399,cocktailshrimp,turkeysandwich,9.93,7.47,-2.46,cocktailshrimp,1198.3999999761581,1203,1203.3999999761581,True,u,74794.19999998808,1704.5,1669830508103,1704,HRV,HRV_0136,2022-11-30 17:53:40
32,"[{'imgObject': {}, 'id': 'yogurt no spoon', 'src': '/static/foodstim60/yogurt no spoon.jpg', 'key': 'u', 'origWidth': 411, 'origHeight': 410, 'width': 411, 'height': 410, 'widthPercent': 0.45, 'rescaleHeight': False, 'trialN': 32, 'loaded': True, 'loadedTime': 74796.59999996424, 'positionName': 'LEFT', 'positionCoords': [510.6, 395], 'bid': 5.6000000000000005}, {'imgObject': {}, 'id': 'Tribe humus pita', 'src': '/static/foodstim60/Tribe humus pita.jpg', 'key': 'i', 'origWidth': 411, 'origHeight': 411, 'width': 411, 'height': 411, 'widthPercent': 0.45, 'rescaleHeight': False, 'trialN': 32, 'loaded': True, 'loadedTime': 74797.19999998808, 'positionName': 'RIGHT', 'positionCoords': [998.4, 394.5], 'bid': 5.59}]",74794.69999998808,1669830508103,yogurt no spoon,Tribe humus pita,5.6000000000000005,5.59,-0.010000000000000675,Tribe humus pita,2797.300000011921,2803,2802.800000011921,True,i,78099.30000001192,3304.600000023842,1669830511408,3305,HRV,HRV_0136,2022-11-30 17:53:40
33,"[{'imgObject': {}, 'id': 'avocado', 'src': '/static/foodstim60/avocado.jpg', 'key': 'u', 'origWidth': 409, 'origHeight': 409, 'width': 409, 'height': 409, 'widthPercent': 0.45, 'rescaleHeight': False, 'trialN': 33, 'loaded': True, 'loadedTime': 78101.5, 'positionName': 'LEFT', 'positionCoords': [512.6, 395.5], 'bid': 5.33}, {'imgObject': {}, 'id': 'sweetpotato', 'src': '/static/foodstim60/sweetpotato.jpg', 'key': 'i', 'origWidth': 410, 'origHeight': 410, 'width': 410, 'height': 410, 'widthPercent': 0.45, 'rescaleHeight': False, 'trialN': 33, 'loaded': True, 'loadedTime': 78101.80000001192, 'positionName': 'RIGHT', 'positionCoords': [998.4, 395], 'bid': 2.85}]",78099.69999998808,1669830511408,avocado,sweetpotato,5.33,2.85,-2.48,avocado,2380.100000023842,2386,2385.199999988079,True,u,80986.39999997616,2886.699999988079,1669830514295,2887,HRV,HRV_0136,2022-11-30 17:53:40
34,"[{'imgObject': {}, 'id': 'raisin bran w milk', 'src': '/static/foodstim60/raisin bran w milk.jpg', 'key': 'u', 'origWidth': 411, 'origHeight': 411, 'width': 411, 'height': 411, 'widthPercent': 0.45, 'rescaleHeight': False, 'trialN': 34, 'loaded': True, 'loadedTime': 80988.59999996424, 'positionName': 'LEFT', 'positionCoords': [510.6, 394.5], 'bid': 5.67}, {'imgObject': {}, 'id': 'fruitsalad', 'src': '/static/foodstim60/fruitsalad.jpg', 'key': 'i', 'origWidth': 410, 'origHeight': 410, 'width': 410, 'height': 410, 'widthPercent': 0.45, 'rescaleHeight': False, 'trialN': 34, 'loaded': True, 'loadedTime': 80988.89999997616, 'positionName': 'RIGHT', 'positionCoords': [998.4, 395], 'bid': 5.25}]",80986.89999997616,1669830514295,raisin bran w milk,fruitsalad,5.67,5.25,-0.41999999999999993,NaN,NaN,NaN,,False,NaN,84988.5,4001.600000023842,1669830518297,4002,HRV,HRV_0136,2022-11-30 17:53:40
35,"[{'imgObject': {}, 'id': 'hotdog w must', 'src': '/static/foodstim60/hotdog w must.jpg', 'key': 'u', 'origWidth': 409, 'origHeight': 409, 'width': 409, 'height': 409, 'widthPercent': 0.45, 'rescaleHeight': False, 'trialN': 35, 'loaded': True, 'loadedTime': 84990.80000001192, 'positionName': 'LEFT', 'positionCoords': [512.6, 395.5], 'bid': 7.29}, {'imgObject': {}, 'id': 'chickenfingers', 'src': '/static/foodstim60/chickenfingers.jpg', 'key': 'i', 'origWidth': 410, 'origHeight': 410, 'width': 410, 'height': 410, 'widthPercent': 0.45, 'rescaleHeight': False, 'trialN': 35, 'loaded': True, 'loadedTime': 84991.39999997616, 'positionName': 'RIGHT', 'positionCoords': [998.4, 395], 'bid': 6.6000000000000005}]",84989.0,1669830518297,hotdog w must,chickenfingers,7.29,6.6000000000000005,-0.6899999999999995,chickenfingers,2763,2769,2768.399999976158,True,i,88257.80000001192,3268.800000011921,1669830521566,3269,HRV,HRV_0136,2022-11-30 17:53:40
36,"[{'imgObject': {}, 'id': 'Grapes', 'src': '/static/foodstim60/Grapes.jpg', 'key': 'u', 'origWidth': 411, 'origHeight': 411, 'width': 411, 'height': 411, 'widthPercent': 0.45, 'rescaleHeight': False, 'trialN': 36, 'loaded': True, 'loadedTime': 88260, 'positionName': 'LEFT', 'positionCoords': [510.6, 394.5], 'bid': 8.370000000000001}, {'imgObject': {}, 'id': 'kiwi', 'src': '/static/foodstim60/kiwi.jpg', 'key': 'i', 'origWidth': 410, 'origHeight': 410, 'width': 410, 'height': 410, 'widthPercent': 0.45, 'rescaleHeight': False, 'trialN': 36, 'loaded': True, 'loadedTime': 88260.39999997616, 'positionName': 'RIGHT', 'positionCoords': [998.4, 395], 'bid': 4.22}]",88258.19999998808,1669830521567,Grapes,kiwi,8.370000000000001,4.22,-4.150000000000001,Grapes,2805.699999988079,2811,2811.800000011921,True,u,91570.30000001192,3312.100000023842,1669830524879,3312,HRV,HRV_0136,2022-11-30 17:53:40
37,"[{'imgObject': {}, 'id': 'grilled chicken strips', 'src': '/static/foodstim60/grilled chicken strips.jpg', 'key': 'u', 'origWidth': 410, 'origHeight': 411, 'width': 410, 'height': 411, 'widthPercent': 0.45, 'rescaleHeight': False, 'trialN': 37, 'loaded': True, 'loadedTime': 91572.59999996424, 'positionName': 'LEFT', 'positionCoords': [511.6, 394.5], 'bid': 3.51}, {'imgObject': {}, 'id': 'cheerios', 'src': '/static/foodstim60/cheerios.jpg', 'key': 'i', 'origWidth': 409, 'origHeight': 410, 'width': 409, 'height': 410, 'widthPercent': 0.45, 'rescaleHeight': False, 'trialN': 37, 'loaded': True, 'loadedTime': 91572.89999997616, 'positionName': 'RIGHT', 'positionCoords': [998.4, 395], 'bid': 3.6}]",91570.80000001192,1669830524879,grilled chicken strips,cheerios,3.51,3.6,0.0900000000000003,grilled chicken strips,1693.0999999642372,1698,1698.199999988079,True,u,93769.39999997616,2198.599999964237,1669830527078,2199,HRV,HRV_0136,2022-11-30 17:53:40
38,"[{'imgObject': {}, 'id': 'cherry tomato', 'src': '/static/foodstim60/cherry tomato.jpg', 'key': 'u', 'origWidth': 410, 'origHeight': 410, 'width': 410, 'height': 410, 'widthPercent': 0.45, 'rescaleHeight': False, 'trialN': 38, 'loaded': True, 'loadedTime': 93771.5, 'positionName': 'LEFT', 'positionCoords': [511.6, 395], 'bid': 5.3}, {'imgObject': {}, 'id': 'banana', 'src': '/static/foodstim60/banana.jpg', 'key': 'i', 'origWidth': 410, 'origHeight': 410, 'width': 410, 'height': 410, 'widthPercent': 0.45, 'rescaleHeight': False, 'trialN': 38, 'loaded': True, 'loadedTime': 93771.69999998808, 'positionName': 'RIGHT', 'positionCoords': [998.4, 395], 'bid': 2.56}]",93769.69999998808,1669830527078,cherry tomato,banana,5.3,2.56,-2.7399999999999998,NaN,NaN,NaN,,False,NaN,97770.19999998808,4000.5,1669830531078,4000,HRV,HRV_0136,2022-11-30 17:53:40
39,"[{'imgObject': {}, 'id': 'sushi w_condiments', 'src': '/static/foodstim60/sushi w_condiments.jpg', 'key': 'u', 'origWidth': 410, 'origHeight': 410, 'width': 410, 'height': 410, 'widthPercent': 0.45, 'rescaleHeight': False, 'trialN': 39, 'loaded': True, 'loadedTime': 97772.39999997616, 'positionName': 'LEFT', 'positionCoords': [511.6, 395], 'bid': 8.19}, {'imgObject': {}, 'id': 'pear', 'src': '/static/foodstim60/pear.jpg', 'key': 'i', 'origWidth': 411, 'origHeight': 410, 'width': 411, 'height': 410, 'widthPercent': 0.45, 'rescaleHeight': False, 'trialN': 39, 'loaded': True, 'loadedTime': 97772.80000001192, 'positionName': 'RIGHT', 'positionCoords': [998.4, 395], 'bid': 8.13}]",97770.59999996424,1669830531079,sushi w_condiments,pear,8.19,8.13,-0.05999999999999872,pear,117.5,123,123.10000002384186,True,i,98394.69999998808,624.1000000238419,1669830531703,624,HRV,HRV_0136,2022-11-30 17:53:40
40,"[{'imgObject': {}, 'id': 'eggsalad', 'src': '/static/foodstim60/eggsalad.jpg', 'key': 'u', 'origWidth': 410, 'origHeight': 409, 'width': 410, 'height': 409, 'widthPercent': 0.45, 'rescaleHeight': False, 'trialN': 40, 'loaded': True, 'loadedTime': 98397, 'positionName': 'LEFT', 'positionCoords': [511.6, 395.5], 'bid': 8.82}, {'imgObject': {}, 'id': 'salmon', 'src': '/static/foodstim60/salmon.jpg', 'key': 'i', 'origWidth': 410, 'origHeight': 409, 'width': 410, 'height': 409, 'widthPercent': 0.45, 'rescaleHeight': False, 'trialN': 40, 'loaded': True, 'loadedTime': 98397.39999997616, 'positionName': 'RIGHT', 'positionCoords': [998.4, 395.5], 'bid': 9.61}]",98395.19999998808,1669830531703,eggsalad,salmon,8.82,9.61,0.7899999999999991,eggsalad,1156.800000011921,1162,1161.800000011921,True,u,100058.0,1662.800000011921,1669830533366,1663,HRV,HRV_0136,2022-11-30 17:53:40
41,"[{'imgObject': {}, 'id': 'Tribe humus pita', 'src': '/static/foodstim60/Tribe humus pita.jpg', 'key': 'u', 'origWidth': 411, 'origHeight': 411, 'width': 411, 'height': 411, 'widthPercent': 0.45, 'rescaleHeight': False, 'trialN': 41, 'loaded': True, 'loadedTime': 100060.19999998808, 'positionName': 'LEFT', 'positionCoords': [510.6, 394.5], 'bid': 5.59}, {'imgObject': {}, 'id': 'strawberries', 'src': '/static/foodstim60/strawberries.jpg', 'key': 'i', 'origWidth': 410, 'origHeight': 410, 'width': 410, 'height': 410, 'widthPercent': 0.45, 'rescaleHeight': False, 'trialN': 41, 'loaded': True, 'loadedTime': 100060.5, 'positionName': 'RIGHT', 'positionCoords': [998.4, 395], 'bid': 6.87}]",100058.39999997616,1669830533366,Tribe humus pita,strawberries,5.59,6.87,1.2800000000000002,strawberries,1365.6000000238419,1371,1370.9000000357628,True,i,101929.69999998808,1871.300000011921,1669830535238,1872,HRV,HRV_0136,2022-11-30 17:53:40
42,"[{'imgObject': {}, 'id': 'fruitsalad', 'src': '/static/foodstim60/fruitsalad.jpg', 'key': 'u', 'origWidth': 410, 'origHeight': 410, 'width': 410, 'height': 410, 'widthPercent': 0.45, 'rescaleHeight': False, 'trialN': 42, 'loaded': True, 'loadedTime': 101932, 'positionName': 'LEFT', 'positionCoords': [511.6, 395], 'bid': 5.25}, {'imgObject': {}, 'id': 'cherry tomato', 'src': '/static/foodstim60/cherry tomato.jpg', 'key': 'i', 'origWidth': 410, 'origHeight': 410, 'width': 410, 'height': 410, 'widthPercent': 0.45, 'rescaleHeight': False, 'trialN': 42, 'loaded': True, 'loadedTime': 101932.30000001192, 'positionName': 'RIGHT', 'positionCoords': [998.4, 395], 'bid': 5.3}]",101930.19999998808,1669830535238,fruitsalad,cherry tomato,5.25,5.3,0.04999999999999982,fruitsalad,1453.699999988079,1459,1459.0,True,u,103889.59999996424,1959.3999999761581,1669830537197,1959,HRV,HRV_0136,2022-11-30 17:53:40
43,"[{'imgObject': {}, 'id': 'shreddedwheatwithmilk', 'src': '/static/foodstim60/shreddedwheatwithmilk.jpg', 'key': 'u', 'origWidth': 410, 'origHeight': 410, 'width': 410, 'height': 410, 'widthPercent': 0.45, 'rescaleHeight': False, 'trialN': 43, 'loaded': True, 'loadedTime': 103891.69999998808, 'positionName': 'LEFT', 'positionCoords': [511.6, 395], 'bid': 4.08}, {'imgObject': {}, 'id': 'salad w chicken', 'src': '/static/foodstim60/salad w chicken.jpg', 'key': 'i', 'origWidth': 411, 'origHeight': 411, 'width': 411, 'height': 411, 'widthPercent': 0.45, 'rescaleHeight': False, 'trialN': 43, 'loaded': True, 'loadedTime': 103891.89999997616, 'positionName': 'RIGHT', 'positionCoords': [998.4, 394.5], 'bid': 5.0200000000000005}]",103890.09999996424,1669830537198,shreddedwheatwithmilk,salad w chicken,4.08,5.0200000000000005,0.9400000000000004,salad w chicken,1261.9000000357628,1267,1267.0,True,i,105658.59999996424,1768.5,1669830538966,1768,HRV,HRV_0136,2022-11-30 17:53:40
44,"[{'imgObject': {}, 'id': 'hashbrowns', 'src': '/static/foodstim60/hashbrowns.jpg', 'key': 'u', 'origWidth': 411, 'origHeight': 410, 'width': 411, 'height': 410, 'widthPercent': 0.45, 'rescaleHeight': False, 'trialN': 44, 'loaded': True, 'loadedTime': 105660.80000001192, 'positionName': 'LEFT', 'positionCoords': [510.6, 395], 'bid': 2.16}, {'imgObject': {}, 'id': 'salad w chicken', 'src': '/static/foodstim60/salad w chicken.jpg', 'key': 'i', 'origWidth': 411, 'origHeight': 411, 'width': 411, 'height': 411, 'widthPercent': 0.45, 'rescaleHeight': False, 'trialN': 44, 'loaded': True, 'loadedTime': 105661.19999998808, 'positionName': 'RIGHT', 'positionCoords': [998.4, 394.5], 'bid': 5.0200000000000005}]",105659.09999996424,1669830538967,hashbrowns,salad w chicken,2.16,5.0200000000000005,2.8600000000000003,salad w chicken,900.9000000357628,906,906.0,True,i,107066.39999997616,1407.300000011921,1669830540374,1407,HRV,HRV_0136,2022-11-30 17:53:40
45,"[{'imgObject': {}, 'id': 'orange slices', 'src': '/static/foodstim60/orange slices.jpg', 'key': 'u', 'origWidth': 409, 'origHeight': 410, 'width': 409, 'height': 410, 'widthPercent': 0.45, 'rescaleHeight': False, 'trialN': 45, 'loaded': True, 'loadedTime': 107068.59999996424, 'positionName': 'LEFT', 'positionCoords': [512.6, 395], 'bid': 5.86}, {'imgObject': {}, 'id': 'blueberries', 'src': '/static/foodstim60/blueberries.jpg', 'key': 'i', 'origWidth': 411, 'origHeight': 411, 'width': 411, 'height': 411, 'widthPercent': 0.45, 'rescaleHeight': False, 'trialN': 45, 'loaded': True, 'loadedTime': 107068.89999997616, 'positionName': 'RIGHT', 'positionCoords': [998.4, 394.5], 'bid': 6.15}]",107066.80000001192,1669830540375,orange slices,blueberries,5.86,6.15,0.29000000000000004,orange slices,1733,1739,1739.0999999642372,True,u,109306.30000001192,2239.5,1669830542614,2239,HRV,HRV_0136,2022-11-30 17:53:40
46,"[{'imgObject': {}, 'id': 'turkeysandwich', 'src': '/static/foodstim60/turkeysandwich.jpg', 'key': 'u', 'origWidth': 409, 'origHeight': 409, 'width': 409, 'height': 409, 'widthPercent': 0.45, 'rescaleHeight': False, 'trialN': 46, 'loaded': True, 'loadedTime': 109308.5, 'positionName': 'LEFT', 'positionCoords': [512.6, 395.5], 'bid': 7.47}, {'imgObject': {}, 'id': 'eggs', 'src': '/static/foodstim60/eggs.jpg', 'key': 'i', 'origWidth': 409, 'origHeight': 409, 'width': 409, 'height': 409, 'widthPercent': 0.45, 'rescaleHeight': False, 'trialN': 46, 'loaded': True, 'loadedTime': 109308.89999997616, 'positionName': 'RIGHT', 'positionCoords': [998.4, 395.5], 'bid': 9.35}]",109306.80000001192,1669830542615,turkeysandwich,eggs,7.47,9.35,1.88,turkeysandwich,1861,1866,1866.5,True,u,111674.0,2367.199999988079,1669830544982,2367,HRV,HRV_0136,2022-11-30 17:53:40
47,"[{'imgObject': {}, 'id': 'baked potato', 'src': '/static/foodstim60/baked potato.jpg', 'key': 'u', 'origWidth': 409, 'origHeight': 410, 'width': 409, 'height': 410, 'widthPercent': 0.45, 'rescaleHeight': False, 'trialN': 47, 'loaded': True, 'loadedTime': 111676.09999996424, 'positionName': 'LEFT', 'positionCoords': [512.6, 395], 'bid': 0.65}, {'imgObject': {}, 'id': 'luckycharms', 'src': '/static/foodstim60/luckycharms.jpg', 'key': 'i', 'origWidth': 410, 'origHeight': 409, 'width': 410, 'height': 409, 'widthPercent': 0.45, 'rescaleHeight': False, 'trialN': 47, 'loaded': True, 'loadedTime': 111676.39999997616, 'positionName': 'RIGHT', 'positionCoords': [998.4, 395.5], 'bid': 0.47}]",111674.30000001192,1669830544982,baked potato,luckycharms,0.65,0.47,-0.18000000000000005,luckycharms,1989.5999999642372,1994,1994.5999999642372,True,i,114169.5,2495.199999988079,1669830547477,2495,HRV,HRV_0136,2022-11-30 17:53:40
48,"[{'imgObject': {}, 'id': 'olives', 'src': '/static/foodstim60/olives.jpg', 'key': 'u', 'origWidth': 410, 'origHeight': 410, 'width': 410, 'height': 410, 'widthPercent': 0.45, 'rescaleHeight': False, 'trialN': 48, 'loaded': True, 'loadedTime': 114171.69999998808, 'positionName': 'LEFT', 'positionCoords': [511.6, 395], 'bid': 9.47}, {'imgObject': {}, 'id': 'burger', 'src': '/static/foodstim60/burger.jpg', 'key': 'i', 'origWidth': 409, 'origHeight': 409, 'width': 409, 'height': 409, 'widthPercent': 0.45, 'rescaleHeight': False, 'trialN': 48, 'loaded': True, 'loadedTime': 114172.09999996424, 'positionName': 'RIGHT', 'positionCoords': [998.4, 395.5], 'bid': 9.54}]",114170.0,1669830547478,olives,burger,9.47,9.54,0.06999999999999851,burger,2093.899999976158,2099,2099.0,True,i,116769.39999997616,2599.399999976158,1669830550077,2599,HRV,HRV_0136,2022-11-30 17:53:40
49,"[{'imgObject': {}, 'id': 'burger', 'src': '/static/foodstim60/burger.jpg', 'key': 'u', 'origWidth': 409, 'origHeight': 409, 'width': 409, 'height': 409, 'widthPercent': 0.45, 'rescaleHeight': False, 'trialN': 49, 'loaded': True, 'loadedTime': 116771.5, 'positionName': 'LEFT', 'positionCoords': [512.6, 395.5], 'bid': 9.54}, {'imgObject': {}, 'id': 'cherry tomato', 'src': '/static/foodstim60/cherry tomato.jpg', 'key': 'i', 'origWidth': 410, 'origHeight': 410, 'width': 410, 'height': 410, 'widthPercent': 0.45, 'rescaleHeight': False, 'trialN': 49, 'loaded': True, 'loadedTime': 116772.09999996424, 'positionName': 'RIGHT', 'positionCoords': [998.4, 395], 'bid': 5.3}]",116769.80000001192,1669830550077,burger,cherry tomato,9.54,5.3,-4.239999999999999,burger,982.1999999880791,987,987.1999999880791,True,u,118257.69999998808,1487.8999999761581,1669830551565,1488,HRV,HRV_0136,2022-11-30 17:53:40
50,"[{'imgObject': {}, 'id': 'mashed potato', 'src': '/static/foodstim60/mashed potato.jpg', 'key': 'u', 'origWidth': 409, 'origHeight': 409, 'width': 409, 'height': 409, 'widthPercent': 0.45, 'rescaleHeight': False, 'trialN': 50, 'loaded': True, 'loadedTime': 118260, 'positionName': 'LEFT', 'positionCoords': [512.6, 395.5], 'bid': 0.6}, {'imgObject': {}, 'id': 'rigatoni', 'src': '/static/foodstim60/rigatoni.jpg', 'key': 'i', 'origWidth': 411, 'origHeight': 411, 'width': 411, 'height': 411, 'widthPercent': 0.45, 'rescaleHeight': False, 'trialN': 50, 'loaded': True, 'loadedTime': 118260.39999997616, 'positionName': 'RIGHT', 'positionCoords': [998.4, 394.5], 'bid': 0.12}]",118258.19999998808,1669830551566,mashed potato,rigatoni,0.6,0.12,-0.48,mashed potato,2317.699999988079,2323,2323.199999988079,True,u,121081.89999997616,2823.699999988079,1669830554389,2823,HRV,HRV_0136,2022-11-30 17:53:40
51,"[{'imgObject': {}, 'id': 'eggsalad', 'src': '/static/foodstim60/eggsalad.jpg', 'key': 'u', 'origWidth': 410, 'origHeight': 409, 'width': 410, 'height': 409, 'widthPercent': 0.45, 'rescaleHeight': False, 'trialN': 51, 'loaded': True, 'loadedTime': 121084.09999996424, 'positionName': 'LEFT', 'positionCoords': [511.6, 395.5], 'bid': 8.82}, {'imgObject': {}, 'id': 'Grapes', 'src': '/static/foodstim60/Grapes.jpg', 'key': 'i', 'origWidth': 411, 'origHeight': 411, 'width': 411, 'height': 411, 'widthPercent': 0.45, 'rescaleHeight': False, 'trialN': 51, 'loaded': True, 'loadedTime': 121084.39999997616, 'positionName': 'RIGHT', 'positionCoords': [998.4, 394.5], 'bid': 8.370000000000001}]",121082.30000001192,1669830554390,eggsalad,Grapes,8.82,8.370000000000001,-0.4499999999999993,eggsalad,933.6999999880791,939,939.2999999523163,True,u,122521.80000001192,1439.5,1669830555829,1439,HRV,HRV_0136,2022-11-30 17:53:40
52,"[{'imgObject': {}, 'id': 'rigatoni', 'src': '/static/foodstim60/rigatoni.jpg', 'key': 'u', 'origWidth': 411, 'origHeight': 411, 'width': 411, 'height': 411, 'widthPercent': 0.45, 'rescaleHeight': False, 'trialN': 52, 'loaded': True, 'loadedTime': 122524, 'positionName': 'LEFT', 'positionCoords': [510.6, 394.5], 'bid': 0.12}, {'imgObject': {}, 'id': 'raisin bran w milk', 'src': '/static/foodstim60/raisin bran w milk.jpg', 'key': 'i', 'origWidth': 411, 'origHeight': 411, 'width': 411, 'height': 411, 'widthPercent': 0.45, 'rescaleHeight': False, 'trialN': 52, 'loaded': True, 'loadedTime': 122524.30000001192, 'positionName': 'RIGHT', 'positionCoords': [998.4, 394.5], 'bid': 5.67}]",122522.30000001192,1669830555830,rigatoni,raisin bran w milk,0.12,5.67,5.55,raisin bran w milk,2789.699999988079,2796,2796.0,True,i,125819.30000001192,3297.0,1669830559127,3297,HRV,HRV_0136,2022-11-30 17:53:40
53,"[{'imgObject': {}, 'id': 'grilled chicken strips', 'src': '/static/foodstim60/grilled chicken strips.jpg', 'key': 'u', 'origWidth': 410, 'origHeight': 411, 'width': 410, 'height': 411, 'widthPercent': 0.45, 'rescaleHeight': False, 'trialN': 53, 'loaded': True, 'loadedTime': 125821.59999996424, 'positionName': 'LEFT', 'positionCoords': [511.6, 394.5], 'bid': 3.51}, {'imgObject': {}, 'id': 'veggieswithdip', 'src': '/static/foodstim60/veggieswithdip.jpg', 'key': 'i', 'origWidth': 409, 'origHeight': 409, 'width': 409, 'height': 409, 'widthPercent': 0.45, 'rescaleHeight': False, 'trialN': 53, 'loaded': True, 'loadedTime': 125822, 'positionName': 'RIGHT', 'positionCoords': [998.4, 395.5], 'bid': 4.65}]",125819.80000001192,1669830559127,grilled chicken strips,veggieswithdip,3.51,4.65,1.1400000000000006,veggieswithdip,1364.199999988079,1369,1369.5,True,i,127689.59999996424,1869.7999999523163,1669830560997,1870,HRV,HRV_0136,2022-11-30 17:53:40
54,"[{'imgObject': {}, 'id': 'yogurt no spoon', 'src': '/static/foodstim60/yogurt no spoon.jpg', 'key': 'u', 'origWidth': 411, 'origHeight': 410, 'width': 411, 'height': 410, 'widthPercent': 0.45, 'rescaleHeight': False, 'trialN': 54, 'loaded': True, 'loadedTime': 127691.80000001192, 'positionName': 'LEFT', 'positionCoords': [510.6, 395], 'bid': 5.6000000000000005}, {'imgObject': {}, 'id': 'apple slices', 'src': '/static/foodstim60/apple slices.jpg', 'key': 'i', 'origWidth': 409, 'origHeight': 410, 'width': 409, 'height': 410, 'widthPercent': 0.45, 'rescaleHeight': False, 'trialN': 54, 'loaded': True, 'loadedTime': 127692.30000001192, 'positionName': 'RIGHT', 'positionCoords': [998.4, 395], 'bid': 6.34}]",127690.09999996424,1669830560997,yogurt no spoon,apple slices,5.6000000000000005,6.34,0.7399999999999993,apple slices,2373.900000035763,2379,2379.300000011921,True,i,130569.59999996424,2879.5,1669830563877,2880,HRV,HRV_0136,2022-11-30 17:53:40
55,"[{'imgObject': {}, 'id': 'olives', 'src': '/static/foodstim60/olives.jpg', 'key': 'u', 'origWidth': 410, 'origHeight': 410, 'width': 410, 'height': 410, 'widthPercent': 0.45, 'rescaleHeight': False, 'trialN': 55, 'loaded': True, 'loadedTime': 130571.89999997616, 'positionName': 'LEFT', 'positionCoords': [511.6, 395], 'bid': 9.47}, {'imgObject': {}, 'id': 'fruitsalad', 'src': '/static/foodstim60/fruitsalad.jpg', 'key': 'i', 'origWidth': 410, 'origHeight': 410, 'width': 410, 'height': 410, 'widthPercent': 0.45, 'rescaleHeight': False, 'trialN': 55, 'loaded': True, 'loadedTime': 130572.19999998808, 'positionName': 'RIGHT', 'positionCoords': [998.4, 395], 'bid': 5.25}]",130570.09999996424,1669830563877,olives,fruitsalad,9.47,5.25,-4.220000000000001,olives,1645.9000000357628,1651,1651.0,True,u,132721.5,2151.400000035763,1669830566028,2151,HRV,HRV_0136,2022-11-30 17:53:40
56,"[{'imgObject': {}, 'id': 'rigatoni', 'src': '/static/foodstim60/rigatoni.jpg', 'key': 'u', 'origWidth': 411, 'origHeight': 411, 'width': 411, 'height': 411, 'widthPercent': 0.45, 'rescaleHeight': False, 'trialN': 56, 'loaded': True, 'loadedTime': 132723.69999998808, 'positionName': 'LEFT', 'positionCoords': [510.6, 394.5], 'bid': 0.12}, {'imgObject': {}, 'id': 'cheerios', 'src': '/static/foodstim60/cheerios.jpg', 'key': 'i', 'origWidth': 409, 'origHeight': 410, 'width': 409, 'height': 410, 'widthPercent': 0.45, 'rescaleHeight': False, 'trialN': 56, 'loaded': True, 'loadedTime': 132724, 'positionName': 'RIGHT', 'positionCoords': [998.4, 395], 'bid': 3.6}]",132721.89999997616,1669830566029,rigatoni,cheerios,0.12,3.6,3.48,cheerios,1126.1000000238419,1131,1131.1000000238419,True,i,134353.89999997616,1632.0,1669830567661,1632,HRV,HRV_0136,2022-11-30 17:53:40
57,"[{'imgObject': {}, 'id': 'rigatoni and sauce', 'src': '/static/foodstim60/rigatoni and sauce.jpg', 'key': 'u', 'origWidth': 410, 'origHeight': 411, 'width': 410, 'height': 411, 'widthPercent': 0.45, 'rescaleHeight': False, 'trialN': 57, 'loaded': True, 'loadedTime': 134356.09999996424, 'positionName': 'LEFT', 'positionCoords': [511.6, 394.5], 'bid': 3.88}, {'imgObject': {}, 'id': 'luckycharms', 'src': '/static/foodstim60/luckycharms.jpg', 'key': 'i', 'origWidth': 410, 'origHeight': 409, 'width': 410, 'height': 409, 'widthPercent': 0.45, 'rescaleHeight': False, 'trialN': 57, 'loaded': True, 'loadedTime': 134356.39999997616, 'positionName': 'RIGHT', 'positionCoords': [998.4, 395.5], 'bid': 0.47}]",134354.39999997616,1669830567661,rigatoni and sauce,luckycharms,3.88,0.47,-3.41,rigatoni and sauce,1093.6000000238419,1100,1099.300000011921,True,u,135953.89999997616,1599.5,1669830569261,1600,HRV,HRV_0136,2022-11-30 17:53:40
58,"[{'imgObject': {}, 'id': 'raisin bran w milk', 'src': '/static/foodstim60/raisin bran w milk.jpg', 'key': 'u', 'origWidth': 411, 'origHeight': 411, 'width': 411, 'height': 411, 'widthPercent': 0.45, 'rescaleHeight': False, 'trialN': 58, 'loaded': True, 'loadedTime': 135956.19999998808, 'positionName': 'LEFT', 'positionCoords': [510.6, 394.5], 'bid': 5.67}, {'imgObject': {}, 'id': 'cantaloupe', 'src': '/static/foodstim60/cantaloupe.jpg', 'key': 'i', 'origWidth': 409, 'origHeight': 409, 'width': 409, 'height': 409, 'widthPercent': 0.45, 'rescaleHeight': False, 'trialN': 58, 'loaded': True, 'loadedTime': 135956.5, 'positionName': 'RIGHT', 'positionCoords': [998.4, 395.5], 'bid': 5.7700000000000005}]",135954.30000001192,1669830569261,raisin bran w milk,cantaloupe,5.67,5.7700000000000005,0.10000000000000053,cantaloupe,2965.699999988079,2971,2971.399999976158,True,i,139427.09999996424,3472.7999999523163,1669830572734,3473,HRV,HRV_0136,2022-11-30 17:53:40
59,"[{'imgObject': {}, 'id': 'grilled chicken strips', 'src': '/static/foodstim60/grilled chicken strips.jpg', 'key': 'u', 'origWidth': 410, 'origHeight': 411, 'width': 410, 'height': 411, 'widthPercent': 0.45, 'rescaleHeight': False, 'trialN': 59, 'loaded': True, 'loadedTime': 139429.30000001192, 'positionName': 'LEFT', 'positionCoords': [511.6, 394.5], 'bid': 3.51}, {'imgObject': {}, 'id': 'granola w milk', 'src': '/static/foodstim60/granola w milk.jpg', 'key': 'i', 'origWidth': 410, 'origHeight': 410, 'width': 410, 'height': 410, 'widthPercent': 0.45, 'rescaleHeight': False, 'trialN': 59, 'loaded': True, 'loadedTime': 139429.69999998808, 'positionName': 'RIGHT', 'positionCoords': [998.4, 395], 'bid': 3.13}]",139427.5,1669830572734,grilled chicken strips,granola w milk,3.51,3.13,-0.3799999999999999,grilled chicken strips,2060.5,2066,2065.800000011921,True,u,141994.09999996424,2566.599999964237,1669830575301,2567,HRV,HRV_0136,2022-11-30 17:53:40
60,"[{'imgObject': {}, 'id': 'yogurt no spoon', 'src': '/static/foodstim60/yogurt no spoon.jpg', 'key': 'u', 'origWidth': 411, 'origHeight': 410, 'width': 411, 'height': 410, 'widthPercent': 0.45, 'rescaleHeight': False, 'trialN': 60, 'loaded': True, 'loadedTime': 141996.39999997616, 'positionName': 'LEFT', 'positionCoords': [510.6, 395], 'bid': 5.6000000000000005}, {'imgObject': {}, 'id': 'cantaloupe', 'src': '/static/foodstim60/cantaloupe.jpg', 'key': 'i', 'origWidth': 409, 'origHeight': 409, 'width': 409, 'height': 409, 'widthPercent': 0.45, 'rescaleHeight': False, 'trialN': 60, 'loaded': True, 'loadedTime': 141996.69999998808, 'positionName': 'RIGHT', 'positionCoords': [998.4, 395.5], 'bid': 5.7700000000000005}]",141994.59999996424,1669830575301,yogurt no spoon,cantaloupe,5.6000000000000005,5.7700000000000005,0.16999999999999993,yogurt no spoon,1941.4000000357628,1947,1947.1000000238419,True,u,144442.19999998808,2447.600000023842,1669830577749,2448,HRV,HRV_0136,2022-11-30 17:53:40
61,"[{'imgObject': {}, 'id': 'baked potato', 'src': '/static/foodstim60/baked potato.jpg', 'key': 'u', 'origWidth': 409, 'origHeight': 410, 'width': 409, 'height': 410, 'widthPercent': 0.45, 'rescaleHeight': False, 'trialN': 61, 'loaded': True, 'loadedTime': 144444.5, 'positionName': 'LEFT', 'positionCoords': [512.6, 395], 'bid': 0.65}, {'imgObject': {}, 'id': 'blueberries', 'src': '/static/foodstim60/blueberries.jpg', 'key': 'i', 'origWidth': 411, 'origHeight': 411, 'width': 411, 'height': 411, 'widthPercent': 0.45, 'rescaleHeight': False, 'trialN': 61, 'loaded': True, 'loadedTime': 144444.69999998808, 'positionName': 'RIGHT', 'positionCoords': [998.4, 394.5], 'bid': 6.15}]",144442.69999998808,1669830577749,baked potato,blueberries,0.65,6.15,5.5,blueberries,1085.300000011921,1091,1090.3999999761581,True,i,146033.89999997616,1591.199999988079,1669830579341,1592,HRV,HRV_0136,2022-11-30 17:53:40
62,"[{'imgObject': {}, 'id': 'mashed potato', 'src': '/static/foodstim60/mashed potato.jpg', 'key': 'u', 'origWidth': 409, 'origHeight': 409, 'width': 409, 'height': 409, 'widthPercent': 0.45, 'rescaleHeight': False, 'trialN': 62, 'loaded': True, 'loadedTime': 146036.19999998808, 'positionName': 'LEFT', 'positionCoords': [512.6, 395.5], 'bid': 0.6}, {'imgObject': {}, 'id': 'orange slices', 'src': '/static/foodstim60/orange slices.jpg', 'key': 'i', 'origWidth': 409, 'origHeight': 410, 'width': 409, 'height': 410, 'widthPercent': 0.45, 'rescaleHeight': False, 'trialN': 62, 'loaded': True, 'loadedTime': 146036.59999996424, 'positionName': 'RIGHT', 'positionCoords': [998.4, 395], 'bid': 5.86}]",146034.39999997616,1669830579341,mashed potato,orange slices,0.6,5.86,5.260000000000001,orange slices,981.5,987,987.1000000238419,True,i,147521.80000001192,1487.4000000357628,1669830580828,1487,HRV,HRV_0136,2022-11-30 17:53:40
63,"[{'imgObject': {}, 'id': 'chickenfingers', 'src': '/static/foodstim60/chickenfingers.jpg', 'key': 'u', 'origWidth': 410, 'origHeight': 410, 'width': 410, 'height': 410, 'widthPercent': 0.45, 'rescaleHeight': False, 'trialN': 63, 'loaded': True, 'loadedTime': 147523.89999997616, 'positionName': 'LEFT', 'positionCoords': [511.6, 395], 'bid': 6.6000000000000005}, {'imgObject': {}, 'id': 'avocado', 'src': '/static/foodstim60/avocado.jpg', 'key': 'i', 'origWidth': 409, 'origHeight': 409, 'width': 409, 'height': 409, 'widthPercent': 0.45, 'rescaleHeight': False, 'trialN': 63, 'loaded': True, 'loadedTime': 147524.39999997616, 'positionName': 'RIGHT', 'positionCoords': [998.4, 395.5], 'bid': 5.33}]",147522.19999998808,1669830580829,chickenfingers,avocado,6.6000000000000005,5.33,-1.2700000000000005,chickenfingers,1173.699999988079,1179,1178.8999999761581,True,u,149201.30000001192,1679.1000000238419,1669830582508,1679,HRV,HRV_0136,2022-11-30 17:53:40
64,"[{'imgObject': {}, 'id': 'raspberries', 'src': '/static/foodstim60/raspberries.jpg', 'key': 'u', 'origWidth': 411, 'origHeight': 411, 'width': 411, 'height': 411, 'widthPercent': 0.45, 'rescaleHeight': False, 'trialN': 64, 'loaded': True, 'loadedTime': 149203.19999998808, 'positionName': 'LEFT', 'positionCoords': [510.6, 394.5], 'bid': 6.32}, {'imgObject': {}, 'id': 'popsicles', 'src': '/static/foodstim60/popsicles.jpg', 'key': 'i', 'origWidth': 410, 'origHeight': 410, 'width': 410, 'height': 410, 'widthPercent': 0.45, 'rescaleHeight': False, 'trialN': 64, 'loaded': True, 'loadedTime': 149203.39999997616, 'positionName': 'RIGHT', 'positionCoords': [998.4, 395], 'bid': 1.31}]",149201.69999998808,1669830582508,raspberries,popsicles,6.32,1.31,-5.01,raspberries,1078.199999988079,1083,1082.8999999761581,True,u,150785.89999997616,1584.199999988079,1669830584092,1584,HRV,HRV_0136,2022-11-30 17:53:40
65,"[{'imgObject': {}, 'id': 'blueberries', 'src': '/static/foodstim60/blueberries.jpg', 'key': 'u', 'origWidth': 411, 'origHeight': 411, 'width': 411, 'height': 411, 'widthPercent': 0.45, 'rescaleHeight': False, 'trialN': 65, 'loaded': True, 'loadedTime': 150788.19999998808, 'positionName': 'LEFT', 'positionCoords': [510.6, 394.5], 'bid': 6.15}, {'imgObject': {}, 'id': 'salad w chicken', 'src': '/static/foodstim60/salad w chicken.jpg', 'key': 'i', 'origWidth': 411, 'origHeight': 411, 'width': 411, 'height': 411, 'widthPercent': 0.45, 'rescaleHeight': False, 'trialN': 65, 'loaded': True, 'loadedTime': 150788.5, 'positionName': 'RIGHT', 'positionCoords': [998.4, 394.5], 'bid': 5.0200000000000005}]",150786.39999997616,1669830584093,blueberries,salad w chicken,6.15,5.0200000000000005,-1.13,salad w chicken,1221.6000000238419,1227,1226.800000011921,True,i,152514.0,1727.6000000238419,1669830585820,1727,HRV,HRV_0136,2022-11-30 17:53:40
66,"[{'imgObject': {}, 'id': 'burger', 'src': '/static/foodstim60/burger.jpg', 'key': 'u', 'origWidth': 409, 'origHeight': 409, 'width': 409, 'height': 409, 'widthPercent': 0.45, 'rescaleHeight': False, 'trialN': 66, 'loaded': True, 'loadedTime': 152516.30000001192, 'positionName': 'LEFT', 'positionCoords': [512.6, 395.5], 'bid': 9.54}, {'imgObject': {}, 'id': 'mango', 'src': '/static/foodstim60/mango.jpg', 'key': 'i', 'origWidth': 411, 'origHeight': 411, 'width': 411, 'height': 411, 'widthPercent': 0.45, 'rescaleHeight': False, 'trialN': 66, 'loaded': True, 'loadedTime': 152516.59999996424, 'positionName': 'RIGHT', 'positionCoords': [998.4, 394.5], 'bid': 7.17}]",152514.5,1669830585821,burger,mango,9.54,7.17,-2.369999999999999,burger,821.3999999761581,826,826.5,True,u,153841.30000001192,1326.800000011921,1669830587148,1327,HRV,HRV_0136,2022-11-30 17:53:40
67,"[{'imgObject': {}, 'id': 'sweetpotato', 'src': '/static/foodstim60/sweetpotato.jpg', 'key': 'u', 'origWidth': 410, 'origHeight': 410, 'width': 410, 'height': 410, 'widthPercent': 0.45, 'rescaleHeight': False, 'trialN': 67, 'loaded': True, 'loadedTime': 153843.59999996424, 'positionName': 'LEFT', 'positionCoords': [511.6, 395], 'bid': 2.85}, {'imgObject': {}, 'id': 'banana', 'src': '/static/foodstim60/banana.jpg', 'key': 'i', 'origWidth': 410, 'origHeight': 410, 'width': 410, 'height': 410, 'widthPercent': 0.45, 'rescaleHeight': False, 'trialN': 67, 'loaded': True, 'loadedTime': 153844.09999996424, 'positionName': 'RIGHT', 'positionCoords': [998.4, 395], 'bid': 2.56}]",153841.89999997616,1669830587148,sweetpotato,banana,2.85,2.56,-0.29000000000000004,banana,1077.9000000357628,1084,1083.800000011921,True,i,155427.30000001192,1585.4000000357628,1669830588734,1586,HRV,HRV_0136,2022-11-30 17:53:40
68,"[{'imgObject': {}, 'id': 'hotdog w must', 'src': '/static/foodstim60/hotdog w must.jpg', 'key': 'u', 'origWidth': 409, 'origHeight': 409, 'width': 409, 'height': 409, 'widthPercent': 0.45, 'rescaleHeight': False, 'trialN': 68, 'loaded': True, 'loadedTime': 155429.59999996424, 'positionName': 'LEFT', 'positionCoords': [512.6, 395.5], 'bid': 7.29}, {'imgObject': {}, 'id': 'steak', 'src': '/static/foodstim60/steak.jpg', 'key': 'i', 'origWidth': 410, 'origHeight': 410, 'width': 410, 'height': 410, 'widthPercent': 0.45, 'rescaleHeight': False, 'trialN': 68, 'loaded': True, 'loadedTime': 155430, 'positionName': 'RIGHT', 'positionCoords': [998.4, 395], 'bid': 9}]",155427.80000001192,1669830588734,hotdog w must,steak,7.29,9.0,1.71,hotdog w must,876.1999999880791,882,881.5,True,u,156809.69999998808,1381.8999999761581,1669830590116,1382,HRV,HRV_0136,2022-11-30 17:53:40
69,"[{'imgObject': {}, 'id': 'mac & cheese', 'src': '/static/foodstim60/mac & cheese.jpg', 'key': 'u', 'origWidth': 410, 'origHeight': 410, 'width': 410, 'height': 410, 'widthPercent': 0.45, 'rescaleHeight': False, 'trialN': 69, 'loaded': True, 'loadedTime': 156812, 'positionName': 'LEFT', 'positionCoords': [511.6, 395], 'bid': 9.97}, {'imgObject': {}, 'id': 'cocktailshrimp', 'src': '/static/foodstim60/cocktailshrimp.jpg', 'key': 'i', 'origWidth': 410, 'origHeight': 410, 'width': 410, 'height': 410, 'widthPercent': 0.45, 'rescaleHeight': False, 'trialN': 69, 'loaded': True, 'loadedTime': 156812.30000001192, 'positionName': 'RIGHT', 'positionCoords': [998.4, 395], 'bid': 9.93}]",156810.19999998808,1669830590116,mac & cheese,cocktailshrimp,9.97,9.93,-0.040000000000000924,cocktailshrimp,805.8000000119209,811,810.6000000238419,True,i,158121.09999996424,1310.8999999761581,1669830591427,1311,HRV,HRV_0136,2022-11-30 17:53:40
70,"[{'imgObject': {}, 'id': 'chicken nuggets2', 'src': '/static/foodstim60/chicken nuggets2.jpg', 'key': 'u', 'origWidth': 410, 'origHeight': 409, 'width': 410, 'height': 409, 'widthPercent': 0.45, 'rescaleHeight': False, 'trialN': 70, 'loaded': True, 'loadedTime': 158123.30000001192, 'positionName': 'LEFT', 'positionCoords': [511.6, 395.5], 'bid': 7.72}, {'imgObject': {}, 'id': 'olives', 'src': '/static/foodstim60/olives.jpg', 'key': 'i', 'origWidth': 410, 'origHeight': 410, 'width': 410, 'height': 410, 'widthPercent': 0.45, 'rescaleHeight': False, 'trialN': 70, 'loaded': True, 'loadedTime': 158123.5, 'positionName': 'RIGHT', 'positionCoords': [998.4, 395], 'bid': 9.47}]",158121.5,1669830591428,chicken nuggets2,olives,7.72,9.47,1.7500000000000009,NaN,NaN,NaN,,False,NaN,162122.80000001192,4001.300000011921,1669830595429,4001,HRV,HRV_0136,2022-11-30 17:53:40
71,"[{'imgObject': {}, 'id': 'salad w chicken', 'src': '/static/foodstim60/salad w chicken.jpg', 'key': 'u', 'origWidth': 411, 'origHeight': 411, 'width': 411, 'height': 411, 'widthPercent': 0.45, 'rescaleHeight': False, 'trialN': 71, 'loaded': True, 'loadedTime': 162125.09999996424, 'positionName': 'LEFT', 'positionCoords': [510.6, 394.5], 'bid': 5.0200000000000005}, {'imgObject': {}, 'id': 'ice cream sundae 002', 'src': '/static/foodstim60/ice cream sundae 002.jpg', 'key': 'i', 'origWidth': 409, 'origHeight': 409, 'width': 409, 'height': 409, 'widthPercent': 0.45, 'rescaleHeight': False, 'trialN': 71, 'loaded': True, 'loadedTime': 162125.59999996424, 'positionName': 'RIGHT', 'positionCoords': [998.4, 395.5], 'bid': 4.88}]",162123.30000001192,1669830595429,salad w chicken,ice cream sundae 002,5.0200000000000005,4.88,-0.14000000000000057,salad w chicken,1172.699999988079,1178,1177.8999999761581,True,u,163801.59999996424,1678.2999999523163,1669830597108,1679,HRV,HRV_0136,2022-11-30 17:53:40
72,"[{'imgObject': {}, 'id': 'eggsalad', 'src': '/static/foodstim60/eggsalad.jpg', 'key': 'u', 'origWidth': 410, 'origHeight': 409, 'width': 410, 'height': 409, 'widthPercent': 0.45, 'rescaleHeight': False, 'trialN': 72, 'loaded': True, 'loadedTime': 163803.80000001192, 'positionName': 'LEFT', 'positionCoords': [511.6, 395.5], 'bid': 8.82}, {'imgObject': {}, 'id': 'mango', 'src': '/static/foodstim60/mango.jpg', 'key': 'i', 'origWidth': 411, 'origHeight': 411, 'width': 411, 'height': 411, 'widthPercent': 0.45, 'rescaleHeight': False, 'trialN': 72, 'loaded': True, 'loadedTime': 163804.30000001192, 'positionName': 'RIGHT', 'positionCoords': [998.4, 394.5], 'bid': 7.17}]",163802.0,1669830597108,eggsalad,mango,8.82,7.17,-1.6500000000000004,eggsalad,798.0999999642372,803,803.1999999880791,True,u,165106.69999998808,1304.699999988079,1669830598413,1305,HRV,HRV_0136,2022-11-30 17:53:40
73,"[{'imgObject': {}, 'id': 'cherries', 'src': '/static/foodstim60/cherries.jpg', 'key': 'u', 'origWidth': 410, 'origHeight': 411, 'width': 410, 'height': 411, 'widthPercent': 0.45, 'rescaleHeight': False, 'trialN': 73, 'loaded': True, 'loadedTime': 165108.89999997616, 'positionName': 'LEFT', 'positionCoords': [511.6, 394.5], 'bid': 5.39}, {'imgObject': {}, 'id': 'cherry tomato', 'src': '/static/foodstim60/cherry tomato.jpg', 'key': 'i', 'origWidth': 410, 'origHeight': 410, 'width': 410, 'height': 410, 'widthPercent': 0.45, 'rescaleHeight': False, 'trialN': 73, 'loaded': True, 'loadedTime': 165109.19999998808, 'positionName': 'RIGHT', 'positionCoords': [998.4, 395], 'bid': 5.3}]",165107.19999998808,1669830598413,cherries,cherry tomato,5.39,5.3,-0.08999999999999986,cherries,788.8999999761581,795,794.6000000238419,True,u,166402.30000001192,1295.1000000238419,1669830599708,1295,HRV,HRV_0136,2022-11-30 17:53:40
74,"[{'imgObject': {}, 'id': 'burger', 'src': '/static/foodstim60/burger.jpg', 'key': 'u', 'origWidth': 409, 'origHeight': 409, 'width': 409, 'height': 409, 'widthPercent': 0.45, 'rescaleHeight': False, 'trialN': 74, 'loaded': True, 'loadedTime': 166404.5, 'positionName': 'LEFT', 'positionCoords': [512.6, 395.5], 'bid': 9.54}, {'imgObject': {}, 'id': 'turkey sandwich', 'src': '/static/foodstim60/turkey sandwich.jpg', 'key': 'i', 'origWidth': 409, 'origHeight': 409, 'width': 409, 'height': 409, 'widthPercent': 0.45, 'rescaleHeight': False, 'trialN': 74, 'loaded': True, 'loadedTime': 166404.80000001192, 'positionName': 'RIGHT', 'positionCoords': [998.4, 395.5], 'bid': 7.76}]",166402.69999998808,1669830599709,burger,turkey sandwich,9.54,7.76,-1.7799999999999994,burger,1501.300000011921,1506,1506.800000011921,True,u,168409.80000001192,2007.1000000238419,1669830601716,2007,HRV,HRV_0136,2022-11-30 17:53:40
75,"[{'imgObject': {}, 'id': 'luckycharms', 'src': '/static/foodstim60/luckycharms.jpg', 'key': 'u', 'origWidth': 410, 'origHeight': 409, 'width': 410, 'height': 409, 'widthPercent': 0.45, 'rescaleHeight': False, 'trialN': 75, 'loaded': True, 'loadedTime': 168412, 'positionName': 'LEFT', 'positionCoords': [511.6, 395.5], 'bid': 0.47}, {'imgObject': {}, 'id': 'cantaloupe', 'src': '/static/foodstim60/cantaloupe.jpg', 'key': 'i', 'origWidth': 409, 'origHeight': 409, 'width': 409, 'height': 409, 'widthPercent': 0.45, 'rescaleHeight': False, 'trialN': 75, 'loaded': True, 'loadedTime': 168412.30000001192, 'positionName': 'RIGHT', 'positionCoords': [998.4, 395.5], 'bid': 5.7700000000000005}]",168410.19999998808,1669830601716,luckycharms,cantaloupe,0.47,5.7700000000000005,5.300000000000001,luckycharms,869.8000000119209,875,874.8000000119209,True,u,169786.5,1376.300000011921,1669830603092,1376,HRV,HRV_0136,2022-11-30 17:53:40
76,"[{'imgObject': {}, 'id': 'grilled chicken strips', 'src': '/static/foodstim60/grilled chicken strips.jpg', 'key': 'u', 'origWidth': 410, 'origHeight': 411, 'width': 410, 'height': 411, 'widthPercent': 0.45, 'rescaleHeight': False, 'trialN': 76, 'loaded': True, 'loadedTime': 169788.89999997616, 'positionName': 'LEFT', 'positionCoords': [511.6, 394.5], 'bid': 3.51}, {'imgObject': {}, 'id': 'yogurt no spoon', 'src': '/static/foodstim60/yogurt no spoon.jpg', 'key': 'i', 'origWidth': 411, 'origHeight': 410, 'width': 411, 'height': 410, 'widthPercent': 0.45, 'rescaleHeight': False, 'trialN': 76, 'loaded': True, 'loadedTime': 169789.30000001192, 'positionName': 'RIGHT', 'positionCoords': [998.4, 395], 'bid': 5.6000000000000005}]",169787.0,1669830603093,grilled chicken strips,yogurt no spoon,3.51,5.6000000000000005,2.0900000000000007,yogurt no spoon,1164.800000011921,1184,1183.8999999761581,True,i,171471.39999997616,1684.3999999761581,1669830604777,1684,HRV,HRV_0136,2022-11-30 17:53:40
77,"[{'imgObject': {}, 'id': 'orange slices', 'src': '/static/foodstim60/orange slices.jpg', 'key': 'u', 'origWidth': 409, 'origHeight': 410, 'width': 409, 'height': 410, 'widthPercent': 0.45, 'rescaleHeight': False, 'trialN': 77, 'loaded': True, 'loadedTime': 171473.59999996424, 'positionName': 'LEFT', 'positionCoords': [512.6, 395], 'bid': 5.86}, {'imgObject': {}, 'id': 'avocado', 'src': '/static/foodstim60/avocado.jpg', 'key': 'i', 'origWidth': 409, 'origHeight': 409, 'width': 409, 'height': 409, 'widthPercent': 0.45, 'rescaleHeight': False, 'trialN': 77, 'loaded': True, 'loadedTime': 171474, 'positionName': 'RIGHT', 'positionCoords': [998.4, 395.5], 'bid': 5.33}]",171471.80000001192,1669830604778,orange slices,avocado,5.86,5.33,-0.5300000000000002,avocado,1096.199999988079,1100,1100.699999988079,True,i,173073.19999998808,1601.3999999761581,1669830606379,1601,HRV,HRV_0136,2022-11-30 17:53:40
78,"[{'imgObject': {}, 'id': 'bagel and cc', 'src': '/static/foodstim60/bagel and cc.jpg', 'key': 'u', 'origWidth': 410, 'origHeight': 410, 'width': 410, 'height': 410, 'widthPercent': 0.45, 'rescaleHeight': False, 'trialN': 78, 'loaded': True, 'loadedTime': 173075.59999996424, 'positionName': 'LEFT', 'positionCoords': [511.6, 395], 'bid': 2.18}, {'imgObject': {}, 'id': 'seaweed', 'src': '/static/foodstim60/seaweed.jpg', 'key': 'i', 'origWidth': 410, 'origHeight': 410, 'width': 410, 'height': 410, 'widthPercent': 0.45, 'rescaleHeight': False, 'trialN': 78, 'loaded': True, 'loadedTime': 173075.89999997616, 'positionName': 'RIGHT', 'positionCoords': [998.4, 395], 'bid': 7.01}]",173073.69999998808,1669830606379,bagel and cc,seaweed,2.18,7.01,4.83,seaweed,2294.300000011921,2300,2299.300000011921,True,i,175873.59999996424,2799.899999976158,1669830609179,2800,HRV,HRV_0136,2022-11-30 17:53:40
79,"[{'imgObject': {}, 'id': 'veggieswithdip', 'src': '/static/foodstim60/veggieswithdip.jpg', 'key': 'u', 'origWidth': 409, 'origHeight': 409, 'width': 409, 'height': 409, 'widthPercent': 0.45, 'rescaleHeight': False, 'trialN': 79, 'loaded': True, 'loadedTime': 175875.80000001192, 'positionName': 'LEFT', 'positionCoords': [512.6, 395.5], 'bid': 4.65}, {'imgObject': {}, 'id': 'raisin bran w milk', 'src': '/static/foodstim60/raisin bran w milk.jpg', 'key': 'i', 'origWidth': 411, 'origHeight': 411, 'width': 411, 'height': 411, 'widthPercent': 0.45, 'rescaleHeight': False, 'trialN': 79, 'loaded': True, 'loadedTime': 175876, 'positionName': 'RIGHT', 'positionCoords': [998.4, 394.5], 'bid': 5.67}]",175874.09999996424,1669830609180,veggieswithdip,raisin bran w milk,4.65,5.67,1.0199999999999996,raisin bran w milk,1845.800000011921,1851,1851.2000000476837,True,i,178226.69999998808,2352.600000023842,1669830611532,2352,HRV,HRV_0136,2022-11-30 17:53:40
80,"[{'imgObject': {}, 'id': 'corn cob', 'src': '/static/foodstim60/corn cob.jpg', 'key': 'u', 'origWidth': 411, 'origHeight': 411, 'width': 411, 'height': 411, 'widthPercent': 0.45, 'rescaleHeight': False, 'trialN': 80, 'loaded': True, 'loadedTime': 178228.80000001192, 'positionName': 'LEFT', 'positionCoords': [510.6, 394.5], 'bid': 7.25}, {'imgObject': {}, 'id': 'omelette', 'src': '/static/foodstim60/omelette.jpg', 'key': 'i', 'origWidth': 410, 'origHeight': 409, 'width': 410, 'height': 409, 'widthPercent': 0.45, 'rescaleHeight': False, 'trialN': 80, 'loaded': True, 'loadedTime': 178229.30000001192, 'positionName': 'RIGHT', 'positionCoords': [998.4, 395.5], 'bid': 8.91}]",178227.19999998808,1669830611533,corn cob,omelette,7.25,8.91,1.6600000000000001,omelette,1476.800000011921,1482,1481.8999999761581,True,i,180209.39999997616,1982.199999988079,1669830613515,1982,HRV,HRV_0136,2022-11-30 17:53:40
81,"[{'imgObject': {}, 'id': 'sushi w_condiments', 'src': '/static/foodstim60/sushi w_condiments.jpg', 'key': 'u', 'origWidth': 410, 'origHeight': 410, 'width': 410, 'height': 410, 'widthPercent': 0.45, 'rescaleHeight': False, 'trialN': 81, 'loaded': True, 'loadedTime': 180211.69999998808, 'positionName': 'LEFT', 'positionCoords': [511.6, 395], 'bid': 8.19}, {'imgObject': {}, 'id': 'lox', 'src': '/static/foodstim60/lox.jpg', 'key': 'i', 'origWidth': 410, 'origHeight': 411, 'width': 410, 'height': 411, 'widthPercent': 0.45, 'rescaleHeight': False, 'trialN': 81, 'loaded': True, 'loadedTime': 180212.19999998808, 'positionName': 'RIGHT', 'positionCoords': [998.4, 394.5], 'bid': 9.81}]",180209.89999997616,1669830613515,sushi w_condiments,lox,8.19,9.81,1.620000000000001,lox,1078.1000000238419,1084,1083.300000011921,True,i,181794.09999996424,1584.199999988079,1669830615100,1585,HRV,HRV_0136,2022-11-30 17:53:40
82,"[{'imgObject': {}, 'id': 'cherries', 'src': '/static/foodstim60/cherries.jpg', 'key': 'u', 'origWidth': 410, 'origHeight': 411, 'width': 410, 'height': 411, 'widthPercent': 0.45, 'rescaleHeight': False, 'trialN': 82, 'loaded': True, 'loadedTime': 181796.30000001192, 'positionName': 'LEFT', 'positionCoords': [511.6, 394.5], 'bid': 5.39}, {'imgObject': {}, 'id': 'edamame', 'src': '/static/foodstim60/edamame.jpg', 'key': 'i', 'origWidth': 409, 'origHeight': 410, 'width': 409, 'height': 410, 'widthPercent': 0.45, 'rescaleHeight': False, 'trialN': 82, 'loaded': True, 'loadedTime': 181796.59999996424, 'positionName': 'RIGHT', 'positionCoords': [998.4, 395], 'bid': 6.61}]",181794.59999996424,1669830615100,cherries,edamame,5.39,6.61,1.2200000000000006,cherries,1781.2000000476837,1786,1786.0,True,u,184080.89999997616,2286.300000011921,1669830617386,2286,HRV,HRV_0136,2022-11-30 17:53:40
83,"[{'imgObject': {}, 'id': 'roastedpotatoes', 'src': '/static/foodstim60/roastedpotatoes.jpg', 'key': 'u', 'origWidth': 409, 'origHeight': 410, 'width': 409, 'height': 410, 'widthPercent': 0.45, 'rescaleHeight': False, 'trialN': 83, 'loaded': True, 'loadedTime': 184083.09999996424, 'positionName': 'LEFT', 'positionCoords': [512.6, 395], 'bid': 1.65}, {'imgObject': {}, 'id': 'froot loops w milk', 'src': '/static/foodstim60/froot loops w milk.jpg', 'key': 'i', 'origWidth': 410, 'origHeight': 410, 'width': 410, 'height': 410, 'widthPercent': 0.45, 'rescaleHeight': False, 'trialN': 83, 'loaded': True, 'loadedTime': 184083.39999997616, 'positionName': 'RIGHT', 'positionCoords': [998.4, 395], 'bid': 2.07}]",184081.30000001192,1669830617387,roastedpotatoes,froot loops w milk,1.65,2.07,0.41999999999999993,roastedpotatoes,1030.699999988079,1036,1036.199999988079,True,u,185619.19999998808,1537.8999999761581,1669830618925,1538,HRV,HRV_0136,2022-11-30 17:53:40
84,"[{'imgObject': {}, 'id': 'ice cream sundae 002', 'src': '/static/foodstim60/ice cream sundae 002.jpg', 'key': 'u', 'origWidth': 409, 'origHeight': 409, 'width': 409, 'height': 409, 'widthPercent': 0.45, 'rescaleHeight': False, 'trialN': 84, 'loaded': True, 'loadedTime': 185621.59999996424, 'positionName': 'LEFT', 'positionCoords': [512.6, 395.5], 'bid': 4.88}, {'imgObject': {}, 'id': 'froot loops w milk', 'src': '/static/foodstim60/froot loops w milk.jpg', 'key': 'i', 'origWidth': 410, 'origHeight': 410, 'width': 410, 'height': 410, 'widthPercent': 0.45, 'rescaleHeight': False, 'trialN': 84, 'loaded': True, 'loadedTime': 185621.89999997616, 'positionName': 'RIGHT', 'positionCoords': [998.4, 395], 'bid': 2.07}]",185619.69999998808,1669830618925,ice cream sundae 002,froot loops w milk,4.88,2.07,-2.81,ice cream sundae 002,2412.199999988079,2418,2417.699999988079,True,u,188539.19999998808,2919.5,1669830621845,2920,HRV,HRV_0136,2022-11-30 17:53:40
85,"[{'imgObject': {}, 'id': 'roastedpotatoes', 'src': '/static/foodstim60/roastedpotatoes.jpg', 'key': 'u', 'origWidth': 409, 'origHeight': 410, 'width': 409, 'height': 410, 'widthPercent': 0.45, 'rescaleHeight': False, 'trialN': 85, 'loaded': True, 'loadedTime': 188541.5, 'positionName': 'LEFT', 'positionCoords': [512.6, 395], 'bid': 1.65}, {'imgObject': {}, 'id': 'cheerios', 'src': '/static/foodstim60/cheerios.jpg', 'key': 'i', 'origWidth': 409, 'origHeight': 410, 'width': 409, 'height': 410, 'widthPercent': 0.45, 'rescaleHeight': False, 'trialN': 85, 'loaded': True, 'loadedTime': 188541.89999997616, 'positionName': 'RIGHT', 'positionCoords': [998.4, 395], 'bid': 3.6}]",188539.80000001192,1669830621845,roastedpotatoes,cheerios,1.65,3.6,1.9500000000000002,cheerios,1012.1999999880791,1017,1017.1999999880791,True,i,190059.09999996424,1519.2999999523163,1669830623364,1519,HRV,HRV_0136,2022-11-30 17:53:40
86,"[{'imgObject': {}, 'id': 'salad w chicken', 'src': '/static/foodstim60/salad w chicken.jpg', 'key': 'u', 'origWidth': 411, 'origHeight': 411, 'width': 411, 'height': 411, 'widthPercent': 0.45, 'rescaleHeight': False, 'trialN': 86, 'loaded': True, 'loadedTime': 190061.30000001192, 'positionName': 'LEFT', 'positionCoords': [510.6, 394.5], 'bid': 5.0200000000000005}, {'imgObject': {}, 'id': 'eggs', 'src': '/static/foodstim60/eggs.jpg', 'key': 'i', 'origWidth': 409, 'origHeight': 409, 'width': 409, 'height': 409, 'widthPercent': 0.45, 'rescaleHeight': False, 'trialN': 86, 'loaded': True, 'loadedTime': 190061.80000001192, 'positionName': 'RIGHT', 'positionCoords': [998.4, 395.5], 'bid': 9.35}]",190059.5,1669830623365,salad w chicken,eggs,5.0200000000000005,9.35,4.329999999999999,salad w chicken,1380.300000011921,1385,1385.3999999761581,True,u,191946.19999998808,1886.699999988079,1669830625251,1886,HRV,HRV_0136,2022-11-30 17:53:40
87,"[{'imgObject': {}, 'id': 'chickenfingers', 'src': '/static/foodstim60/chickenfingers.jpg', 'key': 'u', 'origWidth': 410, 'origHeight': 410, 'width': 410, 'height': 410, 'widthPercent': 0.45, 'rescaleHeight': False, 'trialN': 87, 'loaded': True, 'loadedTime': 191948.39999997616, 'positionName': 'LEFT', 'positionCoords': [511.6, 395], 'bid': 6.6000000000000005}, {'imgObject': {}, 'id': 'edamame', 'src': '/static/foodstim60/edamame.jpg', 'key': 'i', 'origWidth': 409, 'origHeight': 410, 'width': 409, 'height': 410, 'widthPercent': 0.45, 'rescaleHeight': False, 'trialN': 87, 'loaded': True, 'loadedTime': 191948.80000001192, 'positionName': 'RIGHT', 'positionCoords': [998.4, 395], 'bid': 6.61}]",191946.80000001192,1669830625252,chickenfingers,edamame,6.6000000000000005,6.61,0.009999999999999787,chickenfingers,1541.199999988079,1546,1546.3999999761581,True,u,193993.59999996424,2046.7999999523163,1669830627299,2047,HRV,HRV_0136,2022-11-30 17:53:40
88,"[{'imgObject': {}, 'id': 'cocktailshrimp', 'src': '/static/foodstim60/cocktailshrimp.jpg', 'key': 'u', 'origWidth': 410, 'origHeight': 410, 'width': 410, 'height': 410, 'widthPercent': 0.45, 'rescaleHeight': False, 'trialN': 88, 'loaded': True, 'loadedTime': 193995.69999998808, 'positionName': 'LEFT', 'positionCoords': [511.6, 395], 'bid': 9.93}, {'imgObject': {}, 'id': 'steak', 'src': '/static/foodstim60/steak.jpg', 'key': 'i', 'origWidth': 410, 'origHeight': 410, 'width': 410, 'height': 410, 'widthPercent': 0.45, 'rescaleHeight': False, 'trialN': 88, 'loaded': True, 'loadedTime': 193995.89999997616, 'positionName': 'RIGHT', 'positionCoords': [998.4, 395], 'bid': 9}]",193993.89999997616,1669830627299,cocktailshrimp,steak,9.93,9.0,-0.9299999999999997,steak,1534.1000000238419,1539,1539.199999988079,True,i,196033.5,2039.6000000238419,1669830629339,2040,HRV,HRV_0136,2022-11-30 17:53:40
89,"[{'imgObject': {}, 'id': 'Grapes', 'src': '/static/foodstim60/Grapes.jpg', 'key': 'u', 'origWidth': 411, 'origHeight': 411, 'width': 411, 'height': 411, 'widthPercent': 0.45, 'rescaleHeight': False, 'trialN': 89, 'loaded': True, 'loadedTime': 196035.69999998808, 'positionName': 'LEFT', 'positionCoords': [510.6, 394.5], 'bid': 8.370000000000001}, {'imgObject': {}, 'id': 'fried eggs', 'src': '/static/foodstim60/fried eggs.jpg', 'key': 'i', 'origWidth': 410, 'origHeight': 410, 'width': 410, 'height': 410, 'widthPercent': 0.45, 'rescaleHeight': False, 'trialN': 89, 'loaded': True, 'loadedTime': 196036.19999998808, 'positionName': 'RIGHT', 'positionCoords': [998.4, 395], 'bid': 8.65}]",196033.89999997616,1669830629339,Grapes,fried eggs,8.370000000000001,8.65,0.27999999999999936,NaN,NaN,NaN,,False,NaN,200035.89999997616,4002.0,1669830633341,4002,HRV,HRV_0136,2022-11-30 17:53:40
90,"[{'imgObject': {}, 'id': 'pear', 'src': '/static/foodstim60/pear.jpg', 'key': 'u', 'origWidth': 411, 'origHeight': 410, 'width': 411, 'height': 410, 'widthPercent': 0.45, 'rescaleHeight': False, 'trialN': 90, 'loaded': True, 'loadedTime': 202828.09999996424, 'positionName': 'LEFT', 'positionCoords': [510.6, 395], 'bid': 8.13}, {'imgObject': {}, 'id': 'salmon', 'src': '/static/foodstim60/salmon.jpg', 'key': 'i', 'origWidth': 410, 'origHeight': 409, 'width': 410, 'height': 409, 'widthPercent': 0.45, 'rescaleHeight': False, 'trialN': 90, 'loaded': True, 'loadedTime': 202828.59999996424, 'positionName': 'RIGHT', 'positionCoords': [998.4, 395.5], 'bid': 9.61}]",202827.19999998808,1669830636132,pear,salmon,8.13,9.61,1.4799999999999986,salmon,3484.699999988079,3490,3489.699999988079,True,i,206818.59999996424,3991.399999976158,1669830640123,3991,HRV,HRV_0136,2022-11-30 17:53:40
91,"[{'imgObject': {}, 'id': 'salad w chicken', 'src': '/static/foodstim60/salad w chicken.jpg', 'key': 'u', 'origWidth': 411, 'origHeight': 411, 'width': 411, 'height': 411, 'widthPercent': 0.45, 'rescaleHeight': False, 'trialN': 91, 'loaded': True, 'loadedTime': 206821, 'positionName': 'LEFT', 'positionCoords': [510.6, 394.5], 'bid': 5.0200000000000005}, {'imgObject': {}, 'id': 'burrito', 'src': '/static/foodstim60/burrito.jpg', 'key': 'i', 'origWidth': 410, 'origHeight': 410, 'width': 410, 'height': 410, 'widthPercent': 0.45, 'rescaleHeight': False, 'trialN': 91, 'loaded': True, 'loadedTime': 206821.30000001192, 'positionName': 'RIGHT', 'positionCoords': [998.4, 395], 'bid': 4.72}]",206819.0,1669830640124,salad w chicken,burrito,5.0200000000000005,4.72,-0.3000000000000007,salad w chicken,796.8999999761581,802,801.8999999761581,True,u,208121.09999996424,1302.0999999642372,1669830641426,1302,HRV,HRV_0136,2022-11-30 17:53:40
92,"[{'imgObject': {}, 'id': 'blueberries', 'src': '/static/foodstim60/blueberries.jpg', 'key': 'u', 'origWidth': 411, 'origHeight': 411, 'width': 411, 'height': 411, 'widthPercent': 0.45, 'rescaleHeight': False, 'trialN': 92, 'loaded': True, 'loadedTime': 208123.39999997616, 'positionName': 'LEFT', 'positionCoords': [510.6, 394.5], 'bid': 6.15}, {'imgObject': {}, 'id': 'cherries', 'src': '/static/foodstim60/cherries.jpg', 'key': 'i', 'origWidth': 410, 'origHeight': 411, 'width': 410, 'height': 411, 'widthPercent': 0.45, 'rescaleHeight': False, 'trialN': 92, 'loaded': True, 'loadedTime': 208123.80000001192, 'positionName': 'RIGHT', 'positionCoords': [998.4, 394.5], 'bid': 5.39}]",208121.59999996424,1669830641426,blueberries,cherries,6.15,5.39,-0.7600000000000007,cherries,878.2000000476837,884,883.3000000119209,True,i,209505.19999998808,1383.6000000238419,1669830642810,1384,HRV,HRV_0136,2022-11-30 17:53:40
93,"[{'imgObject': {}, 'id': 'luckycharms', 'src': '/static/foodstim60/luckycharms.jpg', 'key': 'u', 'origWidth': 410, 'origHeight': 409, 'width': 410, 'height': 409, 'widthPercent': 0.45, 'rescaleHeight': False, 'trialN': 93, 'loaded': True, 'loadedTime': 209507.30000001192, 'positionName': 'LEFT', 'positionCoords': [511.6, 395.5], 'bid': 0.47}, {'imgObject': {}, 'id': 'froot loops w milk', 'src': '/static/foodstim60/froot loops w milk.jpg', 'key': 'i', 'origWidth': 410, 'origHeight': 410, 'width': 410, 'height': 410, 'widthPercent': 0.45, 'rescaleHeight': False, 'trialN': 93, 'loaded': True, 'loadedTime': 209507.59999996424, 'positionName': 'RIGHT', 'positionCoords': [998.4, 395], 'bid': 2.07}]",209505.5,1669830642810,luckycharms,froot loops w milk,0.47,2.07,1.5999999999999999,froot loops w milk,1798.5,1804,1803.800000011921,True,i,211809.69999998808,2304.199999988079,1669830645114,2304,HRV,HRV_0136,2022-11-30 17:53:40
94,"[{'imgObject': {}, 'id': 'turkeysandwich', 'src': '/static/foodstim60/turkeysandwich.jpg', 'key': 'u', 'origWidth': 409, 'origHeight': 409, 'width': 409, 'height': 409, 'widthPercent': 0.45, 'rescaleHeight': False, 'trialN': 94, 'loaded': True, 'loadedTime': 211811.89999997616, 'positionName': 'LEFT', 'positionCoords': [512.6, 395.5], 'bid': 7.47}, {'imgObject': {}, 'id': 'edamame', 'src': '/static/foodstim60/edamame.jpg', 'key': 'i', 'origWidth': 409, 'origHeight': 410, 'width': 409, 'height': 410, 'widthPercent': 0.45, 'rescaleHeight': False, 'trialN': 94, 'loaded': True, 'loadedTime': 211812.39999997616, 'positionName': 'RIGHT', 'positionCoords': [998.4, 395], 'bid': 6.61}]",211810.09999996424,1669830645115,turkeysandwich,edamame,7.47,6.61,-0.8599999999999994,turkeysandwich,1205.9000000357628,1211,1211.7000000476837,True,u,213522.5,1712.4000000357628,1669830646827,1712,HRV,HRV_0136,2022-11-30 17:53:40
95,"[{'imgObject': {}, 'id': 'bagel plain', 'src': '/static/foodstim60/bagel plain.jpg', 'key': 'u', 'origWidth': 410, 'origHeight': 410, 'width': 410, 'height': 410, 'widthPercent': 0.45, 'rescaleHeight': False, 'trialN': 95, 'loaded': True, 'loadedTime': 213524.59999996424, 'positionName': 'LEFT', 'positionCoords': [511.6, 395], 'bid': 1.76}, {'imgObject': {}, 'id': 'froot loops w milk', 'src': '/static/foodstim60/froot loops w milk.jpg', 'key': 'i', 'origWidth': 410, 'origHeight': 410, 'width': 410, 'height': 410, 'widthPercent': 0.45, 'rescaleHeight': False, 'trialN': 95, 'loaded': True, 'loadedTime': 213525.09999996424, 'positionName': 'RIGHT', 'positionCoords': [998.4, 395], 'bid': 2.07}]",213523.0,1669830646827,bagel plain,froot loops w milk,1.76,2.07,0.30999999999999983,bagel plain,1772.8999999761581,1778,1777.8999999761581,True,u,215801.19999998808,2278.199999988079,1669830649106,2279,HRV,HRV_0136,2022-11-30 17:53:40
96,"[{'imgObject': {}, 'id': 'fried eggs', 'src': '/static/foodstim60/fried eggs.jpg', 'key': 'u', 'origWidth': 410, 'origHeight': 410, 'width': 410, 'height': 410, 'widthPercent': 0.45, 'rescaleHeight': False, 'trialN': 96, 'loaded': True, 'loadedTime': 215803.30000001192, 'positionName': 'LEFT', 'positionCoords': [511.6, 395], 'bid': 8.65}, {'imgObject': {}, 'id': 'mac & cheese', 'src': '/static/foodstim60/mac & cheese.jpg', 'key': 'i', 'origWidth': 410, 'origHeight': 410, 'width': 410, 'height': 410, 'widthPercent': 0.45, 'rescaleHeight': False, 'trialN': 96, 'loaded': True, 'loadedTime': 215803.69999998808, 'positionName': 'RIGHT', 'positionCoords': [998.4, 395], 'bid': 9.97}]",215801.59999996424,1669830649106,fried eggs,mac & cheese,8.65,9.97,1.3200000000000003,mac & cheese,1454.4000000357628,1460,1459.9000000357628,True,i,217761.89999997616,1960.300000011921,1669830651066,1960,HRV,HRV_0136,2022-11-30 17:53:40
97,"[{'imgObject': {}, 'id': 'sweetpotato', 'src': '/static/foodstim60/sweetpotato.jpg', 'key': 'u', 'origWidth': 410, 'origHeight': 410, 'width': 410, 'height': 410, 'widthPercent': 0.45, 'rescaleHeight': False, 'trialN': 97, 'loaded': True, 'loadedTime': 217764.19999998808, 'positionName': 'LEFT', 'positionCoords': [511.6, 395], 'bid': 2.85}, {'imgObject': {}, 'id': 'bagel and cc', 'src': '/static/foodstim60/bagel and cc.jpg', 'key': 'i', 'origWidth': 410, 'origHeight': 410, 'width': 410, 'height': 410, 'widthPercent': 0.45, 'rescaleHeight': False, 'trialN': 97, 'loaded': True, 'loadedTime': 217764.5, 'positionName': 'RIGHT', 'positionCoords': [998.4, 395], 'bid': 2.18}]",217762.39999997616,1669830651067,sweetpotato,bagel and cc,2.85,2.18,-0.6699999999999999,bagel and cc,1573.5,1577,1577.4000000357628,True,i,219840.19999998808,2077.800000011921,1669830653145,2078,HRV,HRV_0136,2022-11-30 17:53:40
98,"[{'imgObject': {}, 'id': 'popsicles', 'src': '/static/foodstim60/popsicles.jpg', 'key': 'u', 'origWidth': 410, 'origHeight': 410, 'width': 410, 'height': 410, 'widthPercent': 0.45, 'rescaleHeight': False, 'trialN': 98, 'loaded': True, 'loadedTime': 219842.39999997616, 'positionName': 'LEFT', 'positionCoords': [511.6, 395], 'bid': 1.31}, {'imgObject': {}, 'id': 'roastedpotatoes', 'src': '/static/foodstim60/roastedpotatoes.jpg', 'key': 'i', 'origWidth': 409, 'origHeight': 410, 'width': 409, 'height': 410, 'widthPercent': 0.45, 'rescaleHeight': False, 'trialN': 98, 'loaded': True, 'loadedTime': 219842.89999997616, 'positionName': 'RIGHT', 'positionCoords': [998.4, 395], 'bid': 1.65}]",219840.69999998808,1669830653145,popsicles,roastedpotatoes,1.31,1.65,0.33999999999999986,roastedpotatoes,879.1999999880791,884,884.1999999880791,True,i,221225.5,1384.800000011921,1669830654530,1385,HRV,HRV_0136,2022-11-30 17:53:40
99,"[{'imgObject': {}, 'id': 'popsicles', 'src': '/static/foodstim60/popsicles.jpg', 'key': 'u', 'origWidth': 410, 'origHeight': 410, 'width': 410, 'height': 410, 'widthPercent': 0.45, 'rescaleHeight': False, 'trialN': 99, 'loaded': True, 'loadedTime': 221227.80000001192, 'positionName': 'LEFT', 'positionCoords': [511.6, 395], 'bid': 1.31}, {'imgObject': {}, 'id': 'grilled chicken strips', 'src': '/static/foodstim60/grilled chicken strips.jpg', 'key': 'i', 'origWidth': 410, 'origHeight': 411, 'width': 410, 'height': 411, 'widthPercent': 0.45, 'rescaleHeight': False, 'trialN': 99, 'loaded': True, 'loadedTime': 221228.30000001192, 'positionName': 'RIGHT', 'positionCoords': [998.4, 394.5], 'bid': 3.51}]",221225.89999997616,1669830654530,popsicles,grilled chicken strips,1.31,3.51,2.1999999999999997,grilled chicken strips,1110.1000000238419,1119,1119.0,True,i,222846.19999998808,1620.300000011921,1669830656151,1621,HRV,HRV_0136,2022-11-30 17:53:40
100,"[{'imgObject': {}, 'id': 'omelette', 'src': '/static/foodstim60/omelette.jpg', 'key': 'u', 'origWidth': 410, 'origHeight': 409, 'width': 410, 'height': 409, 'widthPercent': 0.45, 'rescaleHeight': False, 'trialN': 100, 'loaded': True, 'loadedTime': 222848.5, 'positionName': 'LEFT', 'positionCoords': [511.6, 395.5], 'bid': 8.91}, {'imgObject': {}, 'id': 'fried eggs', 'src': '/static/foodstim60/fried eggs.jpg', 'key': 'i', 'origWidth': 410, 'origHeight': 410, 'width': 410, 'height': 410, 'widthPercent': 0.45, 'rescaleHeight': False, 'trialN': 100, 'loaded': True, 'loadedTime': 222848.69999998808, 'positionName': 'RIGHT', 'positionCoords': [998.4, 395], 'bid': 8.65}]",222846.69999998808,1669830656151,omelette,fried eggs,8.91,8.65,-0.2599999999999998,omelette,1841.199999988079,1847,1846.6000000238419,True,u,225193.5,2346.800000011921,1669830658498,2347,HRV,HRV_0136,2022-11-30 17:53:40
101,"[{'imgObject': {}, 'id': 'granola w milk', 'src': '/static/foodstim60/granola w milk.jpg', 'key': 'u', 'origWidth': 410, 'origHeight': 410, 'width': 410, 'height': 410, 'widthPercent': 0.45, 'rescaleHeight': False, 'trialN': 101, 'loaded': True, 'loadedTime': 225195.69999998808, 'positionName': 'LEFT', 'positionCoords': [511.6, 395], 'bid': 3.13}, {'imgObject': {}, 'id': 'blackbeanswithrice', 'src': '/static/foodstim60/blackbeanswithrice.jpg', 'key': 'i', 'origWidth': 410, 'origHeight': 410, 'width': 410, 'height': 410, 'widthPercent': 0.45, 'rescaleHeight': False, 'trialN': 101, 'loaded': True, 'loadedTime': 225196, 'positionName': 'RIGHT', 'positionCoords': [998.4, 395], 'bid': 3.42}]",225193.89999997616,1669830658498,granola w milk,blackbeanswithrice,3.13,3.42,0.29000000000000004,granola w milk,2622.100000023842,2633,2633.400000035763,True,u,228329.30000001192,3135.400000035763,1669830661633,3135,HRV,HRV_0136,2022-11-30 17:53:40
102,"[{'imgObject': {}, 'id': 'corn cob', 'src': '/static/foodstim60/corn cob.jpg', 'key': 'u', 'origWidth': 411, 'origHeight': 411, 'width': 411, 'height': 411, 'widthPercent': 0.45, 'rescaleHeight': False, 'trialN': 102, 'loaded': True, 'loadedTime': 228331.59999996424, 'positionName': 'LEFT', 'positionCoords': [510.6, 394.5], 'bid': 7.25}, {'imgObject': {}, 'id': 'turkeysandwich', 'src': '/static/foodstim60/turkeysandwich.jpg', 'key': 'i', 'origWidth': 409, 'origHeight': 409, 'width': 409, 'height': 409, 'widthPercent': 0.45, 'rescaleHeight': False, 'trialN': 102, 'loaded': True, 'loadedTime': 228331.89999997616, 'positionName': 'RIGHT', 'positionCoords': [998.4, 395.5], 'bid': 7.47}]",228329.80000001192,1669830661634,corn cob,turkeysandwich,7.25,7.47,0.21999999999999975,turkeysandwich,1702.0999999642372,1706,1706.5999999642372,True,i,230536.80000001192,2207.0,1669830663841,2207,HRV,HRV_0136,2022-11-30 17:53:40
103,"[{'imgObject': {}, 'id': 'tacos', 'src': '/static/foodstim60/tacos.jpg', 'key': 'u', 'origWidth': 411, 'origHeight': 411, 'width': 411, 'height': 411, 'widthPercent': 0.45, 'rescaleHeight': False, 'trialN': 103, 'loaded': True, 'loadedTime': 230538.89999997616, 'positionName': 'LEFT', 'positionCoords': [510.6, 394.5], 'bid': 4.32}, {'imgObject': {}, 'id': 'popsicles', 'src': '/static/foodstim60/popsicles.jpg', 'key': 'i', 'origWidth': 410, 'origHeight': 410, 'width': 410, 'height': 410, 'widthPercent': 0.45, 'rescaleHeight': False, 'trialN': 103, 'loaded': True, 'loadedTime': 230539.30000001192, 'positionName': 'RIGHT', 'positionCoords': [998.4, 395], 'bid': 1.31}]",230537.19999998808,1669830663841,tacos,popsicles,4.32,1.31,-3.0100000000000002,tacos,1230.800000011921,1236,1236.1000000238419,True,u,232273.89999997616,1736.699999988079,1669830665578,1737,HRV,HRV_0136,2022-11-30 17:53:40
104,"[{'imgObject': {}, 'id': 'strawberries', 'src': '/static/foodstim60/strawberries.jpg', 'key': 'u', 'origWidth': 410, 'origHeight': 410, 'width': 410, 'height': 410, 'widthPercent': 0.45, 'rescaleHeight': False, 'trialN': 104, 'loaded': True, 'loadedTime': 232276.30000001192, 'positionName': 'LEFT', 'positionCoords': [511.6, 395], 'bid': 6.87}, {'imgObject': {}, 'id': 'hashbrowns', 'src': '/static/foodstim60/hashbrowns.jpg', 'key': 'i', 'origWidth': 411, 'origHeight': 410, 'width': 411, 'height': 410, 'widthPercent': 0.45, 'rescaleHeight': False, 'trialN': 104, 'loaded': True, 'loadedTime': 232276.69999998808, 'positionName': 'RIGHT', 'positionCoords': [998.4, 395], 'bid': 2.16}]",232274.39999997616,1669830665578,strawberries,hashbrowns,6.87,2.16,-4.71,strawberries,1173.6000000238419,1179,1178.699999988079,True,u,233954.0,1679.6000000238419,1669830667258,1680,HRV,HRV_0136,2022-11-30 17:53:40
105,"[{'imgObject': {}, 'id': 'raspberries', 'src': '/static/foodstim60/raspberries.jpg', 'key': 'u', 'origWidth': 411, 'origHeight': 411, 'width': 411, 'height': 411, 'widthPercent': 0.45, 'rescaleHeight': False, 'trialN': 105, 'loaded': True, 'loadedTime': 233956.19999998808, 'positionName': 'LEFT', 'positionCoords': [510.6, 394.5], 'bid': 6.32}, {'imgObject': {}, 'id': 'Tribe humus pita', 'src': '/static/foodstim60/Tribe humus pita.jpg', 'key': 'i', 'origWidth': 411, 'origHeight': 411, 'width': 411, 'height': 411, 'widthPercent': 0.45, 'rescaleHeight': False, 'trialN': 105, 'loaded': True, 'loadedTime': 233956.59999996424, 'positionName': 'RIGHT', 'positionCoords': [998.4, 394.5], 'bid': 5.59}]",233954.5,1669830667258,raspberries,Tribe humus pita,6.32,5.59,-0.7300000000000004,Tribe humus pita,2333.5,2339,2339.0,True,i,236794.5,2840.0,1669830670098,2840,HRV,HRV_0136,2022-11-30 17:53:40
106,"[{'imgObject': {}, 'id': 'cherry tomato', 'src': '/static/foodstim60/cherry tomato.jpg', 'key': 'u', 'origWidth': 410, 'origHeight': 410, 'width': 410, 'height': 410, 'widthPercent': 0.45, 'rescaleHeight': False, 'trialN': 106, 'loaded': True, 'loadedTime': 236796.69999998808, 'positionName': 'LEFT', 'positionCoords': [511.6, 395], 'bid': 5.3}, {'imgObject': {}, 'id': 'apple slices', 'src': '/static/foodstim60/apple slices.jpg', 'key': 'i', 'origWidth': 409, 'origHeight': 410, 'width': 409, 'height': 410, 'widthPercent': 0.45, 'rescaleHeight': False, 'trialN': 106, 'loaded': True, 'loadedTime': 236797, 'positionName': 'RIGHT', 'positionCoords': [998.4, 395], 'bid': 6.34}]",236795.0,1669830670099,cherry tomato,apple slices,5.3,6.34,1.04,apple slices,1133,1138,1138.699999988079,True,i,238433.80000001192,1638.800000011921,1669830671738,1639,HRV,HRV_0136,2022-11-30 17:53:40
107,"[{'imgObject': {}, 'id': 'mac & cheese', 'src': '/static/foodstim60/mac & cheese.jpg', 'key': 'u', 'origWidth': 410, 'origHeight': 410, 'width': 410, 'height': 410, 'widthPercent': 0.45, 'rescaleHeight': False, 'trialN': 107, 'loaded': True, 'loadedTime': 238436.09999996424, 'positionName': 'LEFT', 'positionCoords': [511.6, 395], 'bid': 9.97}, {'imgObject': {}, 'id': 'lox', 'src': '/static/foodstim60/lox.jpg', 'key': 'i', 'origWidth': 410, 'origHeight': 411, 'width': 410, 'height': 411, 'widthPercent': 0.45, 'rescaleHeight': False, 'trialN': 107, 'loaded': True, 'loadedTime': 238436.30000001192, 'positionName': 'RIGHT', 'positionCoords': [998.4, 394.5], 'bid': 9.81}]",238434.30000001192,1669830671738,mac & cheese,lox,9.97,9.81,-0.16000000000000014,lox,2309.599999964237,2315,2314.699999988079,True,i,241249.19999998808,2814.899999976158,1669830674553,2815,HRV,HRV_0136,2022-11-30 17:53:40
