trialN,stimuli,trialStartTime,trialStartTime_UNIX,stimulus1,stimulus2,stimulus1Bid,stimulus2Bid,delta,selected,rt,rt_UNIX,rt_perfnow,receivedResponse,rsp,trialEndTime,trialDuration,trialEndTime_UNIX,trialDuration_UNIX,exp,subjectId,date
0,"[{'imgObject': {}, 'id': 'rigatoni', 'src': '/static/foodstim60/rigatoni.jpg', 'key': 'u', 'origWidth': 411, 'origHeight': 411, 'width': 411, 'height': 411, 'widthPercent': 0.45, 'rescaleHeight': False, 'trialN': 0, 'loaded': True, 'loadedTime': 2808.0999999940395, 'positionName': 'LEFT', 'positionCoords': [244.68, 178.5], 'bid': 8.9}, {'imgObject': {}, 'id': 'corn cob', 'src': '/static/foodstim60/corn cob.jpg', 'key': 'i', 'origWidth': 411, 'origHeight': 411, 'width': 411, 'height': 411, 'widthPercent': 0.45, 'rescaleHeight': False, 'trialN': 0, 'loaded': True, 'loadedTime': 2871.7999999970198, 'positionName': 'RIGHT', 'positionCoords': [710.32, 178.5], 'bid': 0.92}]",3884.0,1669832441945,rigatoni,corn cob,8.9,0.92,-7.98,rigatoni,647.7999999970198,649,650.0,True,u,5035.399999991059,1151.3999999910593,1669832443096,1151,HRV,HRV_0182,2022-11-30 18:25:02
1,"[{'imgObject': {}, 'id': 'mashed potato', 'src': '/static/foodstim60/mashed potato.jpg', 'key': 'u', 'origWidth': 409, 'origHeight': 409, 'width': 409, 'height': 409, 'widthPercent': 0.45, 'rescaleHeight': False, 'trialN': 1, 'loaded': True, 'loadedTime': 2941.8999999910593, 'positionName': 'LEFT', 'positionCoords': [246.68, 179.5], 'bid': 9.5}, {'imgObject': {}, 'id': 'turkey sandwich', 'src': '/static/foodstim60/turkey sandwich.jpg', 'key': 'i', 'origWidth': 409, 'origHeight': 409, 'width': 409, 'height': 409, 'widthPercent': 0.45, 'rescaleHeight': False, 'trialN': 1, 'loaded': True, 'loadedTime': 2942.5999999940395, 'positionName': 'RIGHT', 'positionCoords': [710.32, 179.5], 'bid': 9.17}]",5035.5999999940395,1669832443096,mashed potato,turkey sandwich,9.5,9.17,-0.33000000000000007,mashed potato,671.0,672,671.5,True,u,6209.899999991059,1174.2999999970198,1669832444270,1174,HRV,HRV_0182,2022-11-30 18:25:02
2,"[{'imgObject': {}, 'id': 'mac & cheese', 'src': '/static/foodstim60/mac & cheese.jpg', 'key': 'u', 'origWidth': 410, 'origHeight': 410, 'width': 410, 'height': 410, 'widthPercent': 0.45, 'rescaleHeight': False, 'trialN': 2, 'loaded': True, 'loadedTime': 2987.7999999970198, 'positionName': 'LEFT', 'positionCoords': [245.68, 179], 'bid': 9.43}, {'imgObject': {}, 'id': 'chicken nuggets2', 'src': '/static/foodstim60/chicken nuggets2.jpg', 'key': 'i', 'origWidth': 410, 'origHeight': 409, 'width': 410, 'height': 409, 'widthPercent': 0.45, 'rescaleHeight': False, 'trialN': 2, 'loaded': True, 'loadedTime': 2994, 'positionName': 'RIGHT', 'positionCoords': [710.32, 179.5], 'bid': 9.14}]",6210.0999999940395,1669832444271,mac & cheese,chicken nuggets2,9.43,9.14,-0.28999999999999915,mac & cheese,561.0,564,564.0,True,u,7285.5999999940395,1075.5,1669832445346,1075,HRV,HRV_0182,2022-11-30 18:25:02
3,"[{'imgObject': {}, 'id': 'avocado', 'src': '/static/foodstim60/avocado.jpg', 'key': 'u', 'origWidth': 409, 'origHeight': 409, 'width': 409, 'height': 409, 'widthPercent': 0.45, 'rescaleHeight': False, 'trialN': 3, 'loaded': True, 'loadedTime': 3009.0999999940395, 'positionName': 'LEFT', 'positionCoords': [246.68, 179.5], 'bid': 1.32}, {'imgObject': {}, 'id': 'baked potato', 'src': '/static/foodstim60/baked potato.jpg', 'key': 'i', 'origWidth': 409, 'origHeight': 410, 'width': 409, 'height': 410, 'widthPercent': 0.45, 'rescaleHeight': False, 'trialN': 3, 'loaded': True, 'loadedTime': 3025.8999999910593, 'positionName': 'RIGHT', 'positionCoords': [710.32, 179], 'bid': 8.92}]",7286.29999999702,1669832445347,avocado,baked potato,1.32,8.92,7.6,baked potato,585.0,585,585.7000000029802,True,i,8379.79999999702,1093.5,1669832446440,1093,HRV,HRV_0182,2022-11-30 18:25:02
4,"[{'imgObject': {}, 'id': 'fruitsalad', 'src': '/static/foodstim60/fruitsalad.jpg', 'key': 'u', 'origWidth': 410, 'origHeight': 410, 'width': 410, 'height': 410, 'widthPercent': 0.45, 'rescaleHeight': False, 'trialN': 4, 'loaded': True, 'loadedTime': 3061.7999999970198, 'positionName': 'LEFT', 'positionCoords': [245.68, 179], 'bid': 9.08}, {'imgObject': {}, 'id': 'bagel plain', 'src': '/static/foodstim60/bagel plain.jpg', 'key': 'i', 'origWidth': 410, 'origHeight': 410, 'width': 410, 'height': 410, 'widthPercent': 0.45, 'rescaleHeight': False, 'trialN': 4, 'loaded': True, 'loadedTime': 3100.5, 'positionName': 'RIGHT', 'positionCoords': [710.32, 179], 'bid': 9.11}]",8380.0,1669832446441,fruitsalad,bagel plain,9.08,9.11,0.02999999999999936,fruitsalad,835.8999999910593,836,836.5999999940395,True,u,9724.39999999106,1344.3999999910593,1669832447785,1344,HRV,HRV_0182,2022-11-30 18:25:02
5,"[{'imgObject': {}, 'id': 'fruitsalad', 'src': '/static/foodstim60/fruitsalad.jpg', 'key': 'u', 'origWidth': 410, 'origHeight': 410, 'width': 410, 'height': 410, 'widthPercent': 0.45, 'rescaleHeight': False, 'trialN': 5, 'loaded': True, 'loadedTime': 3066.3999999910593, 'positionName': 'LEFT', 'positionCoords': [245.68, 179], 'bid': 9.08}, {'imgObject': {}, 'id': 'roastedpotatoes', 'src': '/static/foodstim60/roastedpotatoes.jpg', 'key': 'i', 'origWidth': 409, 'origHeight': 410, 'width': 409, 'height': 410, 'widthPercent': 0.45, 'rescaleHeight': False, 'trialN': 5, 'loaded': True, 'loadedTime': 3138.5, 'positionName': 'RIGHT', 'positionCoords': [710.32, 179], 'bid': 9.17}]",9724.79999999702,1669832447785,fruitsalad,roastedpotatoes,9.08,9.17,0.08999999999999986,roastedpotatoes,694.2000000029802,695,694.7000000029802,True,i,10927.09999999404,1202.2999999970198,1669832448988,1203,HRV,HRV_0182,2022-11-30 18:25:02
6,"[{'imgObject': {}, 'id': 'granola w milk', 'src': '/static/foodstim60/granola w milk.jpg', 'key': 'u', 'origWidth': 410, 'origHeight': 410, 'width': 410, 'height': 410, 'widthPercent': 0.45, 'rescaleHeight': False, 'trialN': 6, 'loaded': True, 'loadedTime': 3172.8999999910593, 'positionName': 'LEFT', 'positionCoords': [245.68, 179], 'bid': 8.85}, {'imgObject': {}, 'id': 'burrito', 'src': '/static/foodstim60/burrito.jpg', 'key': 'i', 'origWidth': 410, 'origHeight': 410, 'width': 410, 'height': 410, 'widthPercent': 0.45, 'rescaleHeight': False, 'trialN': 6, 'loaded': True, 'loadedTime': 3261.0999999940395, 'positionName': 'RIGHT', 'positionCoords': [710.32, 179], 'bid': 9.11}]",10927.39999999106,1669832448988,granola w milk,burrito,8.85,9.11,0.2599999999999998,burrito,829.4000000059605,834,833.9000000059605,True,i,12275.79999999702,1348.4000000059605,1669832450336,1348,HRV,HRV_0182,2022-11-30 18:25:02
7,"[{'imgObject': {}, 'id': 'cherries', 'src': '/static/foodstim60/cherries.jpg', 'key': 'u', 'origWidth': 410, 'origHeight': 411, 'width': 410, 'height': 411, 'widthPercent': 0.45, 'rescaleHeight': False, 'trialN': 7, 'loaded': True, 'loadedTime': 3268.7000000029802, 'positionName': 'LEFT', 'positionCoords': [245.68, 178.5], 'bid': 5.1000000000000005}, {'imgObject': {}, 'id': 'blueberries', 'src': '/static/foodstim60/blueberries.jpg', 'key': 'i', 'origWidth': 411, 'origHeight': 411, 'width': 411, 'height': 411, 'widthPercent': 0.45, 'rescaleHeight': False, 'trialN': 7, 'loaded': True, 'loadedTime': 3289.5, 'positionName': 'RIGHT', 'positionCoords': [710.32, 178.5], 'bid': 4.95}]",12276.59999999404,1669832450337,cherries,blueberries,5.1000000000000005,4.95,-0.15000000000000036,cherries,1069.4000000059605,1072,1071.7000000029802,True,u,13858.79999999702,1582.2000000029802,1669832451919,1582,HRV,HRV_0182,2022-11-30 18:25:02
8,"[{'imgObject': {}, 'id': 'blueberries', 'src': '/static/foodstim60/blueberries.jpg', 'key': 'u', 'origWidth': 411, 'origHeight': 411, 'width': 411, 'height': 411, 'widthPercent': 0.45, 'rescaleHeight': False, 'trialN': 8, 'loaded': True, 'loadedTime': 3288.8999999910593, 'positionName': 'LEFT', 'positionCoords': [244.68, 178.5], 'bid': 4.95}, {'imgObject': {}, 'id': 'blackbeanswithrice', 'src': '/static/foodstim60/blackbeanswithrice.jpg', 'key': 'i', 'origWidth': 410, 'origHeight': 410, 'width': 410, 'height': 410, 'widthPercent': 0.45, 'rescaleHeight': False, 'trialN': 8, 'loaded': True, 'loadedTime': 3316.5, 'positionName': 'RIGHT', 'positionCoords': [710.32, 179], 'bid': 4.89}]",13859.79999999702,1669832451920,blueberries,blackbeanswithrice,4.95,4.89,-0.0600000000000005,blackbeanswithrice,882.2999999970198,883,882.7000000029802,True,i,15262.20000000298,1402.4000000059605,1669832453322,1402,HRV,HRV_0182,2022-11-30 18:25:02
9,"[{'imgObject': {}, 'id': 'edamame', 'src': '/static/foodstim60/edamame.jpg', 'key': 'u', 'origWidth': 409, 'origHeight': 410, 'width': 409, 'height': 410, 'widthPercent': 0.45, 'rescaleHeight': False, 'trialN': 9, 'loaded': True, 'loadedTime': 3354.5, 'positionName': 'LEFT', 'positionCoords': [246.68, 179], 'bid': 0.88}, {'imgObject': {}, 'id': 'corn cob', 'src': '/static/foodstim60/corn cob.jpg', 'key': 'i', 'origWidth': 411, 'origHeight': 411, 'width': 411, 'height': 411, 'widthPercent': 0.45, 'rescaleHeight': False, 'trialN': 9, 'loaded': True, 'loadedTime': 2875, 'positionName': 'RIGHT', 'positionCoords': [710.32, 178.5], 'bid': 0.92}]",15262.79999999702,1669832453323,edamame,corn cob,0.88,0.92,0.040000000000000036,corn cob,1397.5999999940395,1399,1399.0,True,i,17173.59999999404,1910.7999999970198,1669832455234,1911,HRV,HRV_0182,2022-11-30 18:25:02
10,"[{'imgObject': {}, 'id': 'blackbeanswithrice', 'src': '/static/foodstim60/blackbeanswithrice.jpg', 'key': 'u', 'origWidth': 410, 'origHeight': 410, 'width': 410, 'height': 410, 'widthPercent': 0.45, 'rescaleHeight': False, 'trialN': 10, 'loaded': True, 'loadedTime': 3319.2000000029802, 'positionName': 'LEFT', 'positionCoords': [245.68, 179], 'bid': 4.89}, {'imgObject': {}, 'id': 'cherry tomato', 'src': '/static/foodstim60/cherry tomato.jpg', 'key': 'i', 'origWidth': 410, 'origHeight': 410, 'width': 410, 'height': 410, 'widthPercent': 0.45, 'rescaleHeight': False, 'trialN': 10, 'loaded': True, 'loadedTime': 3383.2999999970198, 'positionName': 'RIGHT', 'positionCoords': [710.32, 179], 'bid': 0.56}]",17174.0,1669832455234,blackbeanswithrice,cherry tomato,4.89,0.56,-4.33,blackbeanswithrice,644.5999999940395,647,646.5999999940395,True,u,18328.5,1154.5,1669832456389,1155,HRV,HRV_0182,2022-11-30 18:25:02
11,"[{'imgObject': {}, 'id': 'sushi w_condiments', 'src': '/static/foodstim60/sushi w_condiments.jpg', 'key': 'u', 'origWidth': 410, 'origHeight': 410, 'width': 410, 'height': 410, 'widthPercent': 0.45, 'rescaleHeight': False, 'trialN': 11, 'loaded': True, 'loadedTime': 3389.2999999970198, 'positionName': 'LEFT', 'positionCoords': [245.68, 179], 'bid': 5.1000000000000005}, {'imgObject': {}, 'id': 'mango', 'src': '/static/foodstim60/mango.jpg', 'key': 'i', 'origWidth': 411, 'origHeight': 411, 'width': 411, 'height': 411, 'widthPercent': 0.45, 'rescaleHeight': False, 'trialN': 11, 'loaded': True, 'loadedTime': 3414.5999999940395, 'positionName': 'RIGHT', 'positionCoords': [710.32, 178.5], 'bid': 4.97}]",18328.89999999106,1669832456389,sushi w_condiments,mango,5.1000000000000005,4.97,-0.13000000000000078,mango,1056.7000000029802,1058,1057.5,True,i,19893.89999999106,1565.0,1669832457954,1565,HRV,HRV_0182,2022-11-30 18:25:02
12,"[{'imgObject': {}, 'id': 'mango', 'src': '/static/foodstim60/mango.jpg', 'key': 'u', 'origWidth': 411, 'origHeight': 411, 'width': 411, 'height': 411, 'widthPercent': 0.45, 'rescaleHeight': False, 'trialN': 12, 'loaded': True, 'loadedTime': 3412.5, 'positionName': 'LEFT', 'positionCoords': [244.68, 178.5], 'bid': 4.97}, {'imgObject': {}, 'id': 'grilled chicken strips', 'src': '/static/foodstim60/grilled chicken strips.jpg', 'key': 'i', 'origWidth': 410, 'origHeight': 411, 'width': 410, 'height': 411, 'widthPercent': 0.45, 'rescaleHeight': False, 'trialN': 12, 'loaded': True, 'loadedTime': 3416.7000000029802, 'positionName': 'RIGHT', 'positionCoords': [710.32, 178.5], 'bid': 1.23}]",19894.20000000298,1669832457954,mango,grilled chicken strips,4.97,1.23,-3.7399999999999998,mango,1229.3999999910593,1230,1230.0999999940395,True,u,21631.29999999702,1737.0999999940395,1669832459692,1738,HRV,HRV_0182,2022-11-30 18:25:02
13,"[{'imgObject': {}, 'id': 'apple slices', 'src': '/static/foodstim60/apple slices.jpg', 'key': 'u', 'origWidth': 409, 'origHeight': 410, 'width': 409, 'height': 410, 'widthPercent': 0.45, 'rescaleHeight': False, 'trialN': 13, 'loaded': True, 'loadedTime': 3455.8999999910593, 'positionName': 'LEFT', 'positionCoords': [246.68, 179], 'bid': 5}, {'imgObject': {}, 'id': 'fried eggs', 'src': '/static/foodstim60/fried eggs.jpg', 'key': 'i', 'origWidth': 410, 'origHeight': 410, 'width': 410, 'height': 410, 'widthPercent': 0.45, 'rescaleHeight': False, 'trialN': 13, 'loaded': True, 'loadedTime': 3487, 'positionName': 'RIGHT', 'positionCoords': [710.32, 179], 'bid': 5}]",21631.59999999404,1669832459692,apple slices,fried eggs,5.0,5.0,0.0,fried eggs,836.0,836,836.5,True,i,22973.70000000298,1342.1000000089407,1669832461034,1342,HRV,HRV_0182,2022-11-30 18:25:02
14,"[{'imgObject': {}, 'id': 'Grapes', 'src': '/static/foodstim60/Grapes.jpg', 'key': 'u', 'origWidth': 411, 'origHeight': 411, 'width': 411, 'height': 411, 'widthPercent': 0.45, 'rescaleHeight': False, 'trialN': 14, 'loaded': True, 'loadedTime': 3487.7999999970198, 'positionName': 'LEFT', 'positionCoords': [244.68, 178.5], 'bid': 4.97}, {'imgObject': {}, 'id': 'eggs', 'src': '/static/foodstim60/eggs.jpg', 'key': 'i', 'origWidth': 409, 'origHeight': 409, 'width': 409, 'height': 409, 'widthPercent': 0.45, 'rescaleHeight': False, 'trialN': 14, 'loaded': True, 'loadedTime': 3526.3999999910593, 'positionName': 'RIGHT', 'positionCoords': [710.32, 179.5], 'bid': 4.91}]",22974.59999999404,1669832461035,Grapes,eggs,4.97,4.91,-0.05999999999999961,eggs,1371.2000000029802,1373,1373.5,True,i,24851.0,1876.4000000059605,1669832462911,1876,HRV,HRV_0182,2022-11-30 18:25:02
15,"[{'imgObject': {}, 'id': 'burger', 'src': '/static/foodstim60/burger.jpg', 'key': 'u', 'origWidth': 409, 'origHeight': 409, 'width': 409, 'height': 409, 'widthPercent': 0.45, 'rescaleHeight': False, 'trialN': 15, 'loaded': True, 'loadedTime': 3526.5, 'positionName': 'LEFT', 'positionCoords': [246.68, 179.5], 'bid': 8.35}, {'imgObject': {}, 'id': 'cherries', 'src': '/static/foodstim60/cherries.jpg', 'key': 'i', 'origWidth': 410, 'origHeight': 411, 'width': 410, 'height': 411, 'widthPercent': 0.45, 'rescaleHeight': False, 'trialN': 15, 'loaded': True, 'loadedTime': 3266, 'positionName': 'RIGHT', 'positionCoords': [710.32, 178.5], 'bid': 5.1000000000000005}]",24851.29999999702,1669832462912,burger,cherries,8.35,5.1000000000000005,-3.249999999999999,burger,952.0,954,954.7000000029802,True,u,26322.39999999106,1471.0999999940395,1669832464383,1471,HRV,HRV_0182,2022-11-30 18:25:02
16,"[{'imgObject': {}, 'id': 'cherries', 'src': '/static/foodstim60/cherries.jpg', 'key': 'u', 'origWidth': 410, 'origHeight': 411, 'width': 410, 'height': 411, 'widthPercent': 0.45, 'rescaleHeight': False, 'trialN': 16, 'loaded': True, 'loadedTime': 3270.5999999940395, 'positionName': 'LEFT', 'positionCoords': [245.68, 178.5], 'bid': 5.1000000000000005}, {'imgObject': {}, 'id': 'fried eggs', 'src': '/static/foodstim60/fried eggs.jpg', 'key': 'i', 'origWidth': 410, 'origHeight': 410, 'width': 410, 'height': 410, 'widthPercent': 0.45, 'rescaleHeight': False, 'trialN': 16, 'loaded': True, 'loadedTime': 3487.3999999910593, 'positionName': 'RIGHT', 'positionCoords': [710.32, 179], 'bid': 5}]",26322.89999999106,1669832464383,cherries,fried eggs,5.1000000000000005,5.0,-0.10000000000000053,fried eggs,737.7000000029802,738,738.2000000029802,True,i,27572.59999999404,1249.7000000029802,1669832465633,1250,HRV,HRV_0182,2022-11-30 18:25:02
17,"[{'imgObject': {}, 'id': 'bagel and cc', 'src': '/static/foodstim60/bagel and cc.jpg', 'key': 'u', 'origWidth': 410, 'origHeight': 410, 'width': 410, 'height': 410, 'widthPercent': 0.45, 'rescaleHeight': False, 'trialN': 17, 'loaded': True, 'loadedTime': 3558.3999999910593, 'positionName': 'LEFT', 'positionCoords': [245.68, 179], 'bid': 8.92}, {'imgObject': {}, 'id': 'olives', 'src': '/static/foodstim60/olives.jpg', 'key': 'i', 'origWidth': 410, 'origHeight': 410, 'width': 410, 'height': 410, 'widthPercent': 0.45, 'rescaleHeight': False, 'trialN': 17, 'loaded': True, 'loadedTime': 3560.5999999940395, 'positionName': 'RIGHT', 'positionCoords': [710.32, 179], 'bid': 8.950000000000001}]",27573.0,1669832465633,bagel and cc,olives,8.92,8.950000000000001,0.030000000000001137,olives,808.0,810,809.5,True,i,28885.79999999702,1312.7999999970198,1669832466946,1313,HRV,HRV_0182,2022-11-30 18:25:02
18,"[{'imgObject': {}, 'id': 'bagel plain', 'src': '/static/foodstim60/bagel plain.jpg', 'key': 'u', 'origWidth': 410, 'origHeight': 410, 'width': 410, 'height': 410, 'widthPercent': 0.45, 'rescaleHeight': False, 'trialN': 18, 'loaded': True, 'loadedTime': 3094.2000000029802, 'positionName': 'LEFT', 'positionCoords': [245.68, 179], 'bid': 9.11}, {'imgObject': {}, 'id': 'mashed potato', 'src': '/static/foodstim60/mashed potato.jpg', 'key': 'i', 'origWidth': 409, 'origHeight': 409, 'width': 409, 'height': 409, 'widthPercent': 0.45, 'rescaleHeight': False, 'trialN': 18, 'loaded': True, 'loadedTime': 2911.0999999940395, 'positionName': 'RIGHT', 'positionCoords': [710.32, 179.5], 'bid': 9.5}]",28886.09999999404,1669832466946,bagel plain,mashed potato,9.11,9.5,0.39000000000000057,mashed potato,616.2999999970198,617,616.7999999970198,True,i,30023.0,1136.9000000059605,1669832468083,1137,HRV,HRV_0182,2022-11-30 18:25:02
19,"[{'imgObject': {}, 'id': 'salad w chicken', 'src': '/static/foodstim60/salad w chicken.jpg', 'key': 'u', 'origWidth': 411, 'origHeight': 411, 'width': 411, 'height': 411, 'widthPercent': 0.45, 'rescaleHeight': False, 'trialN': 19, 'loaded': True, 'loadedTime': 3595.3999999910593, 'positionName': 'LEFT', 'positionCoords': [244.68, 178.5], 'bid': 8.99}, {'imgObject': {}, 'id': 'rigatoni and sauce', 'src': '/static/foodstim60/rigatoni and sauce.jpg', 'key': 'i', 'origWidth': 410, 'origHeight': 411, 'width': 410, 'height': 411, 'widthPercent': 0.45, 'rescaleHeight': False, 'trialN': 19, 'loaded': True, 'loadedTime': 3597.7999999970198, 'positionName': 'RIGHT', 'positionCoords': [710.32, 178.5], 'bid': 9.04}]",30023.59999999404,1669832468084,salad w chicken,rigatoni and sauce,8.99,9.04,0.049999999999998934,salad w chicken,1172.5,1174,1174.4000000059605,True,u,31713.59999999404,1690.0,1669832469774,1690,HRV,HRV_0182,2022-11-30 18:25:02
20,"[{'imgObject': {}, 'id': 'pear', 'src': '/static/foodstim60/pear.jpg', 'key': 'u', 'origWidth': 411, 'origHeight': 410, 'width': 411, 'height': 410, 'widthPercent': 0.45, 'rescaleHeight': False, 'trialN': 20, 'loaded': True, 'loadedTime': 3627.7000000029802, 'positionName': 'LEFT', 'positionCoords': [244.68, 179], 'bid': 4.95}, {'imgObject': {}, 'id': 'cocktailshrimp', 'src': '/static/foodstim60/cocktailshrimp.jpg', 'key': 'i', 'origWidth': 410, 'origHeight': 410, 'width': 410, 'height': 410, 'widthPercent': 0.45, 'rescaleHeight': False, 'trialN': 20, 'loaded': True, 'loadedTime': 3627.8999999910593, 'positionName': 'RIGHT', 'positionCoords': [710.32, 179], 'bid': 4.95}]",31714.20000000298,1669832469774,pear,cocktailshrimp,4.95,4.95,0.0,pear,1584.0999999940395,1586,1585.7999999970198,True,u,33807.5,2093.2999999970198,1669832471868,2094,HRV,HRV_0182,2022-11-30 18:25:02
21,"[{'imgObject': {}, 'id': 'tacos', 'src': '/static/foodstim60/tacos.jpg', 'key': 'u', 'origWidth': 411, 'origHeight': 411, 'width': 411, 'height': 411, 'widthPercent': 0.45, 'rescaleHeight': False, 'trialN': 21, 'loaded': True, 'loadedTime': 3632.7999999970198, 'positionName': 'LEFT', 'positionCoords': [244.68, 178.5], 'bid': 9.14}, {'imgObject': {}, 'id': 'luckycharms', 'src': '/static/foodstim60/luckycharms.jpg', 'key': 'i', 'origWidth': 410, 'origHeight': 409, 'width': 410, 'height': 409, 'widthPercent': 0.45, 'rescaleHeight': False, 'trialN': 21, 'loaded': True, 'loadedTime': 3677.5999999940395, 'positionName': 'RIGHT', 'positionCoords': [710.32, 179.5], 'bid': 8.86}]",33807.89999999106,1669832471868,tacos,luckycharms,9.14,8.86,-0.28000000000000114,tacos,783.8000000119209,786,786.4000000059605,True,u,35109.89999999106,1302.0,1669832473170,1302,HRV,HRV_0182,2022-11-30 18:25:02
22,"[{'imgObject': {}, 'id': 'tacos', 'src': '/static/foodstim60/tacos.jpg', 'key': 'u', 'origWidth': 411, 'origHeight': 411, 'width': 411, 'height': 411, 'widthPercent': 0.45, 'rescaleHeight': False, 'trialN': 22, 'loaded': True, 'loadedTime': 3630.5, 'positionName': 'LEFT', 'positionCoords': [244.68, 178.5], 'bid': 9.14}, {'imgObject': {}, 'id': 'bagel plain', 'src': '/static/foodstim60/bagel plain.jpg', 'key': 'i', 'origWidth': 410, 'origHeight': 410, 'width': 410, 'height': 410, 'widthPercent': 0.45, 'rescaleHeight': False, 'trialN': 22, 'loaded': True, 'loadedTime': 3100.2000000029802, 'positionName': 'RIGHT', 'positionCoords': [710.32, 179], 'bid': 9.11}]",35110.09999999404,1669832473170,tacos,bagel plain,9.14,9.11,-0.030000000000001137,tacos,864.2999999970198,866,865.7000000029802,True,u,36483.09999999404,1373.0,1669832474543,1373,HRV,HRV_0182,2022-11-30 18:25:02
23,"[{'imgObject': {}, 'id': 'cherries', 'src': '/static/foodstim60/cherries.jpg', 'key': 'u', 'origWidth': 410, 'origHeight': 411, 'width': 410, 'height': 411, 'widthPercent': 0.45, 'rescaleHeight': False, 'trialN': 23, 'loaded': True, 'loadedTime': 3271.2999999970198, 'positionName': 'LEFT', 'positionCoords': [245.68, 178.5], 'bid': 5.1000000000000005}, {'imgObject': {}, 'id': 'rigatoni and sauce', 'src': '/static/foodstim60/rigatoni and sauce.jpg', 'key': 'i', 'origWidth': 410, 'origHeight': 411, 'width': 410, 'height': 411, 'widthPercent': 0.45, 'rescaleHeight': False, 'trialN': 23, 'loaded': True, 'loadedTime': 3600, 'positionName': 'RIGHT', 'positionCoords': [710.32, 178.5], 'bid': 9.04}]",36483.70000000298,1669832474544,cherries,rigatoni and sauce,5.1000000000000005,9.04,3.9399999999999986,rigatoni and sauce,559.6999999880791,563,563.0,True,i,37548.70000000298,1065.0,1669832475609,1065,HRV,HRV_0182,2022-11-30 18:25:02
24,"[{'imgObject': {}, 'id': 'cherry tomato', 'src': '/static/foodstim60/cherry tomato.jpg', 'key': 'u', 'origWidth': 410, 'origHeight': 410, 'width': 410, 'height': 410, 'widthPercent': 0.45, 'rescaleHeight': False, 'trialN': 24, 'loaded': True, 'loadedTime': 3383, 'positionName': 'LEFT', 'positionCoords': [245.68, 179], 'bid': 0.56}, {'imgObject': {}, 'id': 'avocado', 'src': '/static/foodstim60/avocado.jpg', 'key': 'i', 'origWidth': 409, 'origHeight': 409, 'width': 409, 'height': 409, 'widthPercent': 0.45, 'rescaleHeight': False, 'trialN': 24, 'loaded': True, 'loadedTime': 3020.7999999970198, 'positionName': 'RIGHT', 'positionCoords': [710.32, 179.5], 'bid': 1.32}]",37549.0,1669832475609,cherry tomato,avocado,0.56,1.32,0.76,avocado,891.5999999940395,893,892.5999999940395,True,i,38955.89999999106,1406.8999999910593,1669832477016,1407,HRV,HRV_0182,2022-11-30 18:25:02
25,"[{'imgObject': {}, 'id': 'rigatoni and sauce', 'src': '/static/foodstim60/rigatoni and sauce.jpg', 'key': 'u', 'origWidth': 410, 'origHeight': 411, 'width': 410, 'height': 411, 'widthPercent': 0.45, 'rescaleHeight': False, 'trialN': 25, 'loaded': True, 'loadedTime': 3600.3999999910593, 'positionName': 'LEFT', 'positionCoords': [245.68, 178.5], 'bid': 9.04}, {'imgObject': {}, 'id': 'eggs', 'src': '/static/foodstim60/eggs.jpg', 'key': 'i', 'origWidth': 409, 'origHeight': 409, 'width': 409, 'height': 409, 'widthPercent': 0.45, 'rescaleHeight': False, 'trialN': 25, 'loaded': True, 'loadedTime': 3526.0999999940395, 'positionName': 'RIGHT', 'positionCoords': [710.32, 179.5], 'bid': 4.91}]",38956.29999999702,1669832477017,rigatoni and sauce,eggs,9.04,4.91,-4.129999999999999,rigatoni and sauce,703.7000000029802,705,705.2999999970198,True,u,40171.20000000298,1214.9000000059605,1669832478231,1214,HRV,HRV_0182,2022-11-30 18:25:02
26,"[{'imgObject': {}, 'id': 'mango', 'src': '/static/foodstim60/mango.jpg', 'key': 'u', 'origWidth': 411, 'origHeight': 411, 'width': 411, 'height': 411, 'widthPercent': 0.45, 'rescaleHeight': False, 'trialN': 26, 'loaded': True, 'loadedTime': 3414.7999999970198, 'positionName': 'LEFT', 'positionCoords': [244.68, 178.5], 'bid': 4.97}, {'imgObject': {}, 'id': 'froot loops w milk', 'src': '/static/foodstim60/froot loops w milk.jpg', 'key': 'i', 'origWidth': 410, 'origHeight': 410, 'width': 410, 'height': 410, 'widthPercent': 0.45, 'rescaleHeight': False, 'trialN': 26, 'loaded': True, 'loadedTime': 3680.8999999910593, 'positionName': 'RIGHT', 'positionCoords': [710.32, 179], 'bid': 9.26}]",40171.59999999404,1669832478232,mango,froot loops w milk,4.97,9.26,4.29,froot loops w milk,799.6000000089407,800,800.0,True,i,41480.89999999106,1309.2999999970198,1669832479541,1309,HRV,HRV_0182,2022-11-30 18:25:02
27,"[{'imgObject': {}, 'id': 'omelette', 'src': '/static/foodstim60/omelette.jpg', 'key': 'u', 'origWidth': 410, 'origHeight': 409, 'width': 410, 'height': 409, 'widthPercent': 0.45, 'rescaleHeight': False, 'trialN': 27, 'loaded': True, 'loadedTime': 3691.3999999910593, 'positionName': 'LEFT', 'positionCoords': [245.68, 179.5], 'bid': 4.79}, {'imgObject': {}, 'id': 'seaweed', 'src': '/static/foodstim60/seaweed.jpg', 'key': 'i', 'origWidth': 410, 'origHeight': 410, 'width': 410, 'height': 410, 'widthPercent': 0.45, 'rescaleHeight': False, 'trialN': 27, 'loaded': True, 'loadedTime': 3698.2999999970198, 'positionName': 'RIGHT', 'positionCoords': [710.32, 179], 'bid': 0.71}]",41481.29999999702,1669832479541,omelette,seaweed,4.79,0.71,-4.08,omelette,1064.9000000059605,1066,1065.5,True,u,43057.29999999702,1576.0,1669832481117,1576,HRV,HRV_0182,2022-11-30 18:25:02
28,"[{'imgObject': {}, 'id': 'mac & cheese', 'src': '/static/foodstim60/mac & cheese.jpg', 'key': 'u', 'origWidth': 410, 'origHeight': 410, 'width': 410, 'height': 410, 'widthPercent': 0.45, 'rescaleHeight': False, 'trialN': 28, 'loaded': True, 'loadedTime': 2983.3999999910593, 'positionName': 'LEFT', 'positionCoords': [245.68, 179], 'bid': 9.43}, {'imgObject': {}, 'id': 'raisin bran w milk', 'src': '/static/foodstim60/raisin bran w milk.jpg', 'key': 'i', 'origWidth': 411, 'origHeight': 411, 'width': 411, 'height': 411, 'widthPercent': 0.45, 'rescaleHeight': False, 'trialN': 28, 'loaded': True, 'loadedTime': 3702.2000000029802, 'positionName': 'RIGHT', 'positionCoords': [710.32, 178.5], 'bid': 8.950000000000001}]",43057.5,1669832481118,mac & cheese,raisin bran w milk,9.43,8.950000000000001,-0.47999999999999865,mac & cheese,539.0,539,539.5999999940395,True,u,44102.20000000298,1044.7000000029802,1669832482162,1044,HRV,HRV_0182,2022-11-30 18:25:02
29,"[{'imgObject': {}, 'id': 'olives', 'src': '/static/foodstim60/olives.jpg', 'key': 'u', 'origWidth': 410, 'origHeight': 410, 'width': 410, 'height': 410, 'widthPercent': 0.45, 'rescaleHeight': False, 'trialN': 29, 'loaded': True, 'loadedTime': 3560.0999999940395, 'positionName': 'LEFT', 'positionCoords': [245.68, 179], 'bid': 8.950000000000001}, {'imgObject': {}, 'id': 'ice cream sundae 002', 'src': '/static/foodstim60/ice cream sundae 002.jpg', 'key': 'i', 'origWidth': 409, 'origHeight': 409, 'width': 409, 'height': 409, 'widthPercent': 0.45, 'rescaleHeight': False, 'trialN': 29, 'loaded': True, 'loadedTime': 3707, 'positionName': 'RIGHT', 'positionCoords': [710.32, 179.5], 'bid': 9.42}]",44102.5,1669832482163,olives,ice cream sundae 002,8.950000000000001,9.42,0.46999999999999886,olives,600.7999999970198,601,601.3999999910593,True,u,45212.20000000298,1109.7000000029802,1669832483272,1109,HRV,HRV_0182,2022-11-30 18:25:02
30,"[{'imgObject': {}, 'id': 'hotdog w must', 'src': '/static/foodstim60/hotdog w must.jpg', 'key': 'u', 'origWidth': 409, 'origHeight': 409, 'width': 409, 'height': 409, 'widthPercent': 0.45, 'rescaleHeight': False, 'trialN': 30, 'loaded': True, 'loadedTime': 3793.7999999970198, 'positionName': 'LEFT', 'positionCoords': [246.68, 179.5], 'bid': 8.92}, {'imgObject': {}, 'id': 'turkey sandwich', 'src': '/static/foodstim60/turkey sandwich.jpg', 'key': 'i', 'origWidth': 409, 'origHeight': 409, 'width': 409, 'height': 409, 'widthPercent': 0.45, 'rescaleHeight': False, 'trialN': 30, 'loaded': True, 'loadedTime': 2948.2999999970198, 'positionName': 'RIGHT', 'positionCoords': [710.32, 179.5], 'bid': 9.17}]",45212.5,1669832483273,hotdog w must,turkey sandwich,8.92,9.17,0.25,turkey sandwich,786.7000000029802,787,787.3999999910593,True,i,46511.5,1299.0,1669832484572,1299,HRV,HRV_0182,2022-11-30 18:25:02
31,"[{'imgObject': {}, 'id': 'banana', 'src': '/static/foodstim60/banana.jpg', 'key': 'u', 'origWidth': 410, 'origHeight': 410, 'width': 410, 'height': 410, 'widthPercent': 0.45, 'rescaleHeight': False, 'trialN': 31, 'loaded': True, 'loadedTime': 3824.0999999940395, 'positionName': 'LEFT', 'positionCoords': [245.68, 179], 'bid': 5.0200000000000005}, {'imgObject': {}, 'id': 'hotdog w must', 'src': '/static/foodstim60/hotdog w must.jpg', 'key': 'i', 'origWidth': 409, 'origHeight': 409, 'width': 409, 'height': 409, 'widthPercent': 0.45, 'rescaleHeight': False, 'trialN': 31, 'loaded': True, 'loadedTime': 3793.2999999970198, 'positionName': 'RIGHT', 'positionCoords': [710.32, 179.5], 'bid': 8.92}]",46511.79999999702,1669832484572,banana,hotdog w must,5.0200000000000005,8.92,3.8999999999999995,hotdog w must,862.0999999940395,863,862.7999999970198,True,i,47896.70000000298,1384.9000000059605,1669832485957,1385,HRV,HRV_0182,2022-11-30 18:25:02
32,"[{'imgObject': {}, 'id': 'shreddedwheatwithmilk', 'src': '/static/foodstim60/shreddedwheatwithmilk.jpg', 'key': 'u', 'origWidth': 410, 'origHeight': 410, 'width': 410, 'height': 410, 'widthPercent': 0.45, 'rescaleHeight': False, 'trialN': 32, 'loaded': True, 'loadedTime': 3829, 'positionName': 'LEFT', 'positionCoords': [245.68, 179], 'bid': 8.92}, {'imgObject': {}, 'id': 'turkeysandwich', 'src': '/static/foodstim60/turkeysandwich.jpg', 'key': 'i', 'origWidth': 409, 'origHeight': 409, 'width': 409, 'height': 409, 'widthPercent': 0.45, 'rescaleHeight': False, 'trialN': 32, 'loaded': True, 'loadedTime': 3834.2000000029802, 'positionName': 'RIGHT', 'positionCoords': [710.32, 179.5], 'bid': 8.98}]",47896.89999999106,1669832485957,shreddedwheatwithmilk,turkeysandwich,8.92,8.98,0.0600000000000005,turkeysandwich,872.9000000059605,873,873.3000000119209,True,i,49286.59999999404,1389.7000000029802,1669832487347,1390,HRV,HRV_0182,2022-11-30 18:25:02
33,"[{'imgObject': {}, 'id': 'chicken nuggets2', 'src': '/static/foodstim60/chicken nuggets2.jpg', 'key': 'u', 'origWidth': 410, 'origHeight': 409, 'width': 410, 'height': 409, 'widthPercent': 0.45, 'rescaleHeight': False, 'trialN': 33, 'loaded': True, 'loadedTime': 3005.0999999940395, 'positionName': 'LEFT', 'positionCoords': [245.68, 179.5], 'bid': 9.14}, {'imgObject': {}, 'id': 'turkey sandwich', 'src': '/static/foodstim60/turkey sandwich.jpg', 'key': 'i', 'origWidth': 409, 'origHeight': 409, 'width': 409, 'height': 409, 'widthPercent': 0.45, 'rescaleHeight': False, 'trialN': 33, 'loaded': True, 'loadedTime': 2948.7999999970198, 'positionName': 'RIGHT', 'positionCoords': [710.32, 179.5], 'bid': 9.17}]",49286.70000000298,1669832487347,chicken nuggets2,turkey sandwich,9.14,9.17,0.02999999999999936,chicken nuggets2,1618.2999999970198,1620,1619.5999999940395,True,u,51412.0,2125.2999999970198,1669832489472,2125,HRV,HRV_0182,2022-11-30 18:25:02
34,"[{'imgObject': {}, 'id': 'mac & cheese', 'src': '/static/foodstim60/mac & cheese.jpg', 'key': 'u', 'origWidth': 410, 'origHeight': 410, 'width': 410, 'height': 410, 'widthPercent': 0.45, 'rescaleHeight': False, 'trialN': 34, 'loaded': True, 'loadedTime': 2990.0999999940395, 'positionName': 'LEFT', 'positionCoords': [245.68, 179], 'bid': 9.43}, {'imgObject': {}, 'id': 'banana', 'src': '/static/foodstim60/banana.jpg', 'key': 'i', 'origWidth': 410, 'origHeight': 410, 'width': 410, 'height': 410, 'widthPercent': 0.45, 'rescaleHeight': False, 'trialN': 34, 'loaded': True, 'loadedTime': 3826.3999999910593, 'positionName': 'RIGHT', 'positionCoords': [710.32, 179], 'bid': 5.0200000000000005}]",51412.20000000298,1669832489472,mac & cheese,banana,9.43,5.0200000000000005,-4.409999999999999,mac & cheese,542.5999999940395,544,543.7999999970198,True,u,52461.5,1049.2999999970198,1669832490522,1050,HRV,HRV_0182,2022-11-30 18:25:02
35,"[{'imgObject': {}, 'id': 'burrito', 'src': '/static/foodstim60/burrito.jpg', 'key': 'u', 'origWidth': 410, 'origHeight': 410, 'width': 410, 'height': 410, 'widthPercent': 0.45, 'rescaleHeight': False, 'trialN': 35, 'loaded': True, 'loadedTime': 3246, 'positionName': 'LEFT', 'positionCoords': [245.68, 179], 'bid': 9.11}, {'imgObject': {}, 'id': 'bagel and cc', 'src': '/static/foodstim60/bagel and cc.jpg', 'key': 'i', 'origWidth': 410, 'origHeight': 410, 'width': 410, 'height': 410, 'widthPercent': 0.45, 'rescaleHeight': False, 'trialN': 35, 'loaded': True, 'loadedTime': 3558.2000000029802, 'positionName': 'RIGHT', 'positionCoords': [710.32, 179], 'bid': 8.92}]",52461.79999999702,1669832490522,burrito,bagel and cc,9.11,8.92,-0.1899999999999995,burrito,535.5999999940395,536,536.0,True,u,53507.59999999404,1045.7999999970198,1669832491568,1046,HRV,HRV_0182,2022-11-30 18:25:02
36,"[{'imgObject': {}, 'id': 'yogurt no spoon', 'src': '/static/foodstim60/yogurt no spoon.jpg', 'key': 'u', 'origWidth': 411, 'origHeight': 410, 'width': 411, 'height': 410, 'widthPercent': 0.45, 'rescaleHeight': False, 'trialN': 36, 'loaded': True, 'loadedTime': 3835.5, 'positionName': 'LEFT', 'positionCoords': [244.68, 179], 'bid': 1.2}, {'imgObject': {}, 'id': 'steak', 'src': '/static/foodstim60/steak.jpg', 'key': 'i', 'origWidth': 410, 'origHeight': 410, 'width': 410, 'height': 410, 'widthPercent': 0.45, 'rescaleHeight': False, 'trialN': 36, 'loaded': True, 'loadedTime': 3840.3999999910593, 'positionName': 'RIGHT', 'positionCoords': [710.32, 179], 'bid': 0.75}]",53508.0,1669832491568,yogurt no spoon,steak,1.2,0.75,-0.44999999999999996,yogurt no spoon,922.5999999940395,923,923.0999999940395,True,u,54942.5,1434.5,1669832493003,1435,HRV,HRV_0182,2022-11-30 18:25:02
37,"[{'imgObject': {}, 'id': 'granola w milk', 'src': '/static/foodstim60/granola w milk.jpg', 'key': 'u', 'origWidth': 410, 'origHeight': 410, 'width': 410, 'height': 410, 'widthPercent': 0.45, 'rescaleHeight': False, 'trialN': 37, 'loaded': True, 'loadedTime': 3172.5999999940395, 'positionName': 'LEFT', 'positionCoords': [245.68, 179], 'bid': 8.85}, {'imgObject': {}, 'id': 'veggieswithdip', 'src': '/static/foodstim60/veggieswithdip.jpg', 'key': 'i', 'origWidth': 409, 'origHeight': 409, 'width': 409, 'height': 409, 'widthPercent': 0.45, 'rescaleHeight': False, 'trialN': 37, 'loaded': True, 'loadedTime': 3841.5999999940395, 'positionName': 'RIGHT', 'positionCoords': [710.32, 179.5], 'bid': 5.04}]",54942.70000000298,1669832493003,granola w milk,veggieswithdip,8.85,5.04,-3.8099999999999996,granola w milk,1643.5999999940395,1644,1644.5,True,u,57091.09999999404,2148.3999999910593,1669832495151,2148,HRV,HRV_0182,2022-11-30 18:25:02
38,"[{'imgObject': {}, 'id': 'popsicles', 'src': '/static/foodstim60/popsicles.jpg', 'key': 'u', 'origWidth': 410, 'origHeight': 410, 'width': 410, 'height': 410, 'widthPercent': 0.45, 'rescaleHeight': False, 'trialN': 38, 'loaded': True, 'loadedTime': 3879.0999999940395, 'positionName': 'LEFT', 'positionCoords': [245.68, 179], 'bid': 0.81}, {'imgObject': {}, 'id': 'hashbrowns', 'src': '/static/foodstim60/hashbrowns.jpg', 'key': 'i', 'origWidth': 411, 'origHeight': 410, 'width': 411, 'height': 410, 'widthPercent': 0.45, 'rescaleHeight': False, 'trialN': 38, 'loaded': True, 'loadedTime': 3139.2000000029802, 'positionName': 'RIGHT', 'positionCoords': [710.32, 179], 'bid': 4.86}]",57091.20000000298,1669832495151,popsicles,hashbrowns,0.81,4.86,4.050000000000001,hashbrowns,1117.699999988079,1125,1124.7999999970198,True,i,58719.5,1628.2999999970198,1669832496780,1629,HRV,HRV_0182,2022-11-30 18:25:02
39,"[{'imgObject': {}, 'id': 'hotdog w must', 'src': '/static/foodstim60/hotdog w must.jpg', 'key': 'u', 'origWidth': 409, 'origHeight': 409, 'width': 409, 'height': 409, 'widthPercent': 0.45, 'rescaleHeight': False, 'trialN': 39, 'loaded': True, 'loadedTime': 3793, 'positionName': 'LEFT', 'positionCoords': [246.68, 179.5], 'bid': 8.92}, {'imgObject': {}, 'id': 'salmon', 'src': '/static/foodstim60/salmon.jpg', 'key': 'i', 'origWidth': 410, 'origHeight': 409, 'width': 410, 'height': 409, 'widthPercent': 0.45, 'rescaleHeight': False, 'trialN': 39, 'loaded': True, 'loadedTime': 3206.7999999970198, 'positionName': 'RIGHT', 'positionCoords': [710.32, 179.5], 'bid': 1.04}]",58719.89999999106,1669832496780,hotdog w must,salmon,8.92,1.04,-7.88,hotdog w must,819.0,822,821.9000000059605,True,u,60043.20000000298,1323.300000011921,1669832498103,1323,HRV,HRV_0182,2022-11-30 18:25:02
40,"[{'imgObject': {}, 'id': 'bagel plain', 'src': '/static/foodstim60/bagel plain.jpg', 'key': 'u', 'origWidth': 410, 'origHeight': 410, 'width': 410, 'height': 410, 'widthPercent': 0.45, 'rescaleHeight': False, 'trialN': 40, 'loaded': True, 'loadedTime': 3067.2999999970198, 'positionName': 'LEFT', 'positionCoords': [245.68, 179], 'bid': 9.11}, {'imgObject': {}, 'id': 'froot loops w milk', 'src': '/static/foodstim60/froot loops w milk.jpg', 'key': 'i', 'origWidth': 410, 'origHeight': 410, 'width': 410, 'height': 410, 'widthPercent': 0.45, 'rescaleHeight': False, 'trialN': 40, 'loaded': True, 'loadedTime': 3687, 'positionName': 'RIGHT', 'positionCoords': [710.32, 179], 'bid': 9.26}]",60043.70000000298,1669832498104,bagel plain,froot loops w milk,9.11,9.26,0.15000000000000036,froot loops w milk,1037.5999999940395,1041,1041.0999999940395,True,i,61591.20000000298,1547.5,1669832499651,1547,HRV,HRV_0182,2022-11-30 18:25:02
41,"[{'imgObject': {}, 'id': 'eggsalad', 'src': '/static/foodstim60/eggsalad.jpg', 'key': 'u', 'origWidth': 410, 'origHeight': 409, 'width': 410, 'height': 409, 'widthPercent': 0.45, 'rescaleHeight': False, 'trialN': 41, 'loaded': True, 'loadedTime': 3244.5999999940395, 'positionName': 'LEFT', 'positionCoords': [245.68, 179.5], 'bid': 4.92}, {'imgObject': {}, 'id': 'sweetpotato', 'src': '/static/foodstim60/sweetpotato.jpg', 'key': 'i', 'origWidth': 410, 'origHeight': 410, 'width': 410, 'height': 410, 'widthPercent': 0.45, 'rescaleHeight': False, 'trialN': 41, 'loaded': True, 'loadedTime': 3276.8999999910593, 'positionName': 'RIGHT', 'positionCoords': [710.32, 179], 'bid': 4.83}]",61591.5,1669832499652,eggsalad,sweetpotato,4.92,4.83,-0.08999999999999986,eggsalad,1053.0999999940395,1055,1054.8999999910593,True,u,63170.09999999404,1578.5999999940395,1669832501230,1578,HRV,HRV_0182,2022-11-30 18:25:02
42,"[{'imgObject': {}, 'id': 'mashed potato', 'src': '/static/foodstim60/mashed potato.jpg', 'key': 'u', 'origWidth': 409, 'origHeight': 409, 'width': 409, 'height': 409, 'widthPercent': 0.45, 'rescaleHeight': False, 'trialN': 42, 'loaded': True, 'loadedTime': 2913.3999999910593, 'positionName': 'LEFT', 'positionCoords': [246.68, 179.5], 'bid': 9.5}, {'imgObject': {}, 'id': 'mac & cheese', 'src': '/static/foodstim60/mac & cheese.jpg', 'key': 'i', 'origWidth': 410, 'origHeight': 410, 'width': 410, 'height': 410, 'widthPercent': 0.45, 'rescaleHeight': False, 'trialN': 42, 'loaded': True, 'loadedTime': 2987.5, 'positionName': 'RIGHT', 'positionCoords': [710.32, 179], 'bid': 9.43}]",63170.20000000298,1669832501230,mashed potato,mac & cheese,9.5,9.43,-0.07000000000000028,mashed potato,673.1999999880791,676,676.0,True,u,64359.29999999702,1189.0999999940395,1669832502419,1189,HRV,HRV_0182,2022-11-30 18:25:02
43,"[{'imgObject': {}, 'id': 'seaweed', 'src': '/static/foodstim60/seaweed.jpg', 'key': 'u', 'origWidth': 410, 'origHeight': 410, 'width': 410, 'height': 410, 'widthPercent': 0.45, 'rescaleHeight': False, 'trialN': 43, 'loaded': True, 'loadedTime': 3698.5, 'positionName': 'LEFT', 'positionCoords': [245.68, 179], 'bid': 0.71}, {'imgObject': {}, 'id': 'eggs', 'src': '/static/foodstim60/eggs.jpg', 'key': 'i', 'origWidth': 409, 'origHeight': 409, 'width': 409, 'height': 409, 'widthPercent': 0.45, 'rescaleHeight': False, 'trialN': 43, 'loaded': True, 'loadedTime': 3524.5999999940395, 'positionName': 'RIGHT', 'positionCoords': [710.32, 179.5], 'bid': 4.91}]",64359.79999999702,1669832502420,seaweed,eggs,0.71,4.91,4.2,eggs,761.9000000059605,763,763.2000000029802,True,i,65645.70000000298,1285.9000000059605,1669832503706,1286,HRV,HRV_0182,2022-11-30 18:25:02
44,"[{'imgObject': {}, 'id': 'blackbeanswithrice', 'src': '/static/foodstim60/blackbeanswithrice.jpg', 'key': 'u', 'origWidth': 410, 'origHeight': 410, 'width': 410, 'height': 410, 'widthPercent': 0.45, 'rescaleHeight': False, 'trialN': 44, 'loaded': True, 'loadedTime': 3321.3999999910593, 'positionName': 'LEFT', 'positionCoords': [245.68, 179], 'bid': 4.89}, {'imgObject': {}, 'id': 'kiwi', 'src': '/static/foodstim60/kiwi.jpg', 'key': 'i', 'origWidth': 410, 'origHeight': 410, 'width': 410, 'height': 410, 'widthPercent': 0.45, 'rescaleHeight': False, 'trialN': 44, 'loaded': True, 'loadedTime': 3350, 'positionName': 'RIGHT', 'positionCoords': [710.32, 179], 'bid': 0.9}]",65646.29999999702,1669832503707,blackbeanswithrice,kiwi,4.89,0.9,-3.9899999999999998,blackbeanswithrice,825.7000000029802,827,827.5,True,u,66988.29999999702,1342.0,1669832505049,1342,HRV,HRV_0182,2022-11-30 18:25:02
45,"[{'imgObject': {}, 'id': 'yogurt no spoon', 'src': '/static/foodstim60/yogurt no spoon.jpg', 'key': 'u', 'origWidth': 411, 'origHeight': 410, 'width': 411, 'height': 410, 'widthPercent': 0.45, 'rescaleHeight': False, 'trialN': 45, 'loaded': True, 'loadedTime': 3837.7999999970198, 'positionName': 'LEFT', 'positionCoords': [244.68, 179], 'bid': 1.2}, {'imgObject': {}, 'id': 'eggsalad', 'src': '/static/foodstim60/eggsalad.jpg', 'key': 'i', 'origWidth': 410, 'origHeight': 409, 'width': 410, 'height': 409, 'widthPercent': 0.45, 'rescaleHeight': False, 'trialN': 45, 'loaded': True, 'loadedTime': 3245.0999999940395, 'positionName': 'RIGHT', 'positionCoords': [710.32, 179.5], 'bid': 4.92}]",66988.89999999106,1669832505049,yogurt no spoon,eggsalad,1.2,4.92,3.7199999999999998,eggsalad,1335.4000000059605,1339,1338.9000000059605,True,i,68850.5,1861.6000000089407,1669832506911,1862,HRV,HRV_0182,2022-11-30 18:25:02
46,"[{'imgObject': {}, 'id': 'cocktailshrimp', 'src': '/static/foodstim60/cocktailshrimp.jpg', 'key': 'u', 'origWidth': 410, 'origHeight': 410, 'width': 410, 'height': 410, 'widthPercent': 0.45, 'rescaleHeight': False, 'trialN': 46, 'loaded': True, 'loadedTime': 3630.3999999910593, 'positionName': 'LEFT', 'positionCoords': [245.68, 179], 'bid': 4.95}, {'imgObject': {}, 'id': 'Grapes', 'src': '/static/foodstim60/Grapes.jpg', 'key': 'i', 'origWidth': 411, 'origHeight': 411, 'width': 411, 'height': 411, 'widthPercent': 0.45, 'rescaleHeight': False, 'trialN': 46, 'loaded': True, 'loadedTime': 3489.5, 'positionName': 'RIGHT', 'positionCoords': [710.32, 178.5], 'bid': 4.97}]",68851.09999999404,1669832506911,cocktailshrimp,Grapes,4.95,4.97,0.019999999999999574,cocktailshrimp,880.7999999970198,887,886.5,True,u,70251.59999999404,1400.5,1669832508312,1401,HRV,HRV_0182,2022-11-30 18:25:02
47,"[{'imgObject': {}, 'id': 'eggsalad', 'src': '/static/foodstim60/eggsalad.jpg', 'key': 'u', 'origWidth': 410, 'origHeight': 409, 'width': 410, 'height': 409, 'widthPercent': 0.45, 'rescaleHeight': False, 'trialN': 47, 'loaded': True, 'loadedTime': 3245, 'positionName': 'LEFT', 'positionCoords': [245.68, 179.5], 'bid': 4.92}, {'imgObject': {}, 'id': 'orange slices', 'src': '/static/foodstim60/orange slices.jpg', 'key': 'i', 'origWidth': 409, 'origHeight': 410, 'width': 409, 'height': 410, 'widthPercent': 0.45, 'rescaleHeight': False, 'trialN': 47, 'loaded': True, 'loadedTime': 3524.2000000029802, 'positionName': 'RIGHT', 'positionCoords': [710.32, 179], 'bid': 4.92}]",70252.09999999404,1669832508312,eggsalad,orange slices,4.92,4.92,0.0,eggsalad,1078.4000000059605,1083,1082.7999999970198,True,u,71847.39999999106,1595.2999999970198,1669832509908,1596,HRV,HRV_0182,2022-11-30 18:25:02
48,"[{'imgObject': {}, 'id': 'raspberries', 'src': '/static/foodstim60/raspberries.jpg', 'key': 'u', 'origWidth': 411, 'origHeight': 411, 'width': 411, 'height': 411, 'widthPercent': 0.45, 'rescaleHeight': False, 'trialN': 48, 'loaded': True, 'loadedTime': 3741.8999999910593, 'positionName': 'LEFT', 'positionCoords': [244.68, 178.5], 'bid': 4.88}, {'imgObject': {}, 'id': 'cocktailshrimp', 'src': '/static/foodstim60/cocktailshrimp.jpg', 'key': 'i', 'origWidth': 410, 'origHeight': 410, 'width': 410, 'height': 410, 'widthPercent': 0.45, 'rescaleHeight': False, 'trialN': 48, 'loaded': True, 'loadedTime': 3629.2999999970198, 'positionName': 'RIGHT', 'positionCoords': [710.32, 179], 'bid': 4.95}]",71847.89999999106,1669832509908,raspberries,cocktailshrimp,4.88,4.95,0.07000000000000028,cocktailshrimp,698.7000000029802,704,703.9000000059605,True,i,73062.39999999106,1214.5,1669832511122,1214,HRV,HRV_0182,2022-11-30 18:25:02
49,"[{'imgObject': {}, 'id': 'edamame', 'src': '/static/foodstim60/edamame.jpg', 'key': 'u', 'origWidth': 409, 'origHeight': 410, 'width': 409, 'height': 410, 'widthPercent': 0.45, 'rescaleHeight': False, 'trialN': 49, 'loaded': True, 'loadedTime': 3353, 'positionName': 'LEFT', 'positionCoords': [246.68, 179], 'bid': 0.88}, {'imgObject': {}, 'id': 'avocado', 'src': '/static/foodstim60/avocado.jpg', 'key': 'i', 'origWidth': 409, 'origHeight': 409, 'width': 409, 'height': 409, 'widthPercent': 0.45, 'rescaleHeight': False, 'trialN': 49, 'loaded': True, 'loadedTime': 3005.2999999970198, 'positionName': 'RIGHT', 'positionCoords': [710.32, 179.5], 'bid': 1.32}]",73062.89999999106,1669832511123,edamame,avocado,0.88,1.32,0.44000000000000006,avocado,1118.4000000059605,1120,1119.800000011921,True,i,74704.59999999404,1641.7000000029802,1669832512765,1642,HRV,HRV_0182,2022-11-30 18:25:02
50,"[{'imgObject': {}, 'id': 'rigatoni', 'src': '/static/foodstim60/rigatoni.jpg', 'key': 'u', 'origWidth': 411, 'origHeight': 411, 'width': 411, 'height': 411, 'widthPercent': 0.45, 'rescaleHeight': False, 'trialN': 50, 'loaded': True, 'loadedTime': 2806.8999999910593, 'positionName': 'LEFT', 'positionCoords': [244.68, 178.5], 'bid': 8.9}, {'imgObject': {}, 'id': 'shreddedwheatwithmilk', 'src': '/static/foodstim60/shreddedwheatwithmilk.jpg', 'key': 'i', 'origWidth': 410, 'origHeight': 410, 'width': 410, 'height': 410, 'widthPercent': 0.45, 'rescaleHeight': False, 'trialN': 50, 'loaded': True, 'loadedTime': 3829.3999999910593, 'positionName': 'RIGHT', 'positionCoords': [710.32, 179], 'bid': 8.92}]",74705.29999999702,1669832512765,rigatoni,shreddedwheatwithmilk,8.9,8.92,0.019999999999999574,rigatoni,887.9000000059605,890,889.2999999970198,True,u,76103.89999999106,1398.5999999940395,1669832514164,1399,HRV,HRV_0182,2022-11-30 18:25:02
51,"[{'imgObject': {}, 'id': 'cherry tomato', 'src': '/static/foodstim60/cherry tomato.jpg', 'key': 'u', 'origWidth': 410, 'origHeight': 410, 'width': 410, 'height': 410, 'widthPercent': 0.45, 'rescaleHeight': False, 'trialN': 51, 'loaded': True, 'loadedTime': 3355.2999999970198, 'positionName': 'LEFT', 'positionCoords': [245.68, 179], 'bid': 0.56}, {'imgObject': {}, 'id': 'steak', 'src': '/static/foodstim60/steak.jpg', 'key': 'i', 'origWidth': 410, 'origHeight': 410, 'width': 410, 'height': 410, 'widthPercent': 0.45, 'rescaleHeight': False, 'trialN': 51, 'loaded': True, 'loadedTime': 3839.8999999910593, 'positionName': 'RIGHT', 'positionCoords': [710.32, 179], 'bid': 0.75}]",76104.39999999106,1669832514164,cherry tomato,steak,0.56,0.75,0.18999999999999995,cherry tomato,915.7000000029802,917,916.8000000119209,True,u,77523.59999999404,1419.2000000029802,1669832515584,1420,HRV,HRV_0182,2022-11-30 18:25:02
52,"[{'imgObject': {}, 'id': 'cocktailshrimp', 'src': '/static/foodstim60/cocktailshrimp.jpg', 'key': 'u', 'origWidth': 410, 'origHeight': 410, 'width': 410, 'height': 410, 'widthPercent': 0.45, 'rescaleHeight': False, 'trialN': 52, 'loaded': True, 'loadedTime': 3630.2000000029802, 'positionName': 'LEFT', 'positionCoords': [245.68, 179], 'bid': 4.95}, {'imgObject': {}, 'id': 'tacos', 'src': '/static/foodstim60/tacos.jpg', 'key': 'i', 'origWidth': 411, 'origHeight': 411, 'width': 411, 'height': 411, 'widthPercent': 0.45, 'rescaleHeight': False, 'trialN': 52, 'loaded': True, 'loadedTime': 3633.2999999970198, 'positionName': 'RIGHT', 'positionCoords': [710.32, 178.5], 'bid': 9.14}]",77524.0,1669832515584,cocktailshrimp,tacos,4.95,9.14,4.19,tacos,727.0999999940395,729,729.3999999910593,True,i,78756.20000000298,1232.2000000029802,1669832516816,1232,HRV,HRV_0182,2022-11-30 18:25:02
53,"[{'imgObject': {}, 'id': 'Grapes', 'src': '/static/foodstim60/Grapes.jpg', 'key': 'u', 'origWidth': 411, 'origHeight': 411, 'width': 411, 'height': 411, 'widthPercent': 0.45, 'rescaleHeight': False, 'trialN': 53, 'loaded': True, 'loadedTime': 3490.2000000029802, 'positionName': 'LEFT', 'positionCoords': [244.68, 178.5], 'bid': 4.97}, {'imgObject': {}, 'id': 'blueberries', 'src': '/static/foodstim60/blueberries.jpg', 'key': 'i', 'origWidth': 411, 'origHeight': 411, 'width': 411, 'height': 411, 'widthPercent': 0.45, 'rescaleHeight': False, 'trialN': 53, 'loaded': True, 'loadedTime': 3289.7000000029802, 'positionName': 'RIGHT', 'positionCoords': [710.32, 178.5], 'bid': 4.95}]",78756.39999999106,1669832516816,Grapes,blueberries,4.97,4.95,-0.019999999999999574,Grapes,1067.300000011921,1072,1071.2000000029802,True,u,80343.20000000298,1586.800000011921,1669832518403,1587,HRV,HRV_0182,2022-11-30 18:25:02
54,"[{'imgObject': {}, 'id': 'raspberries', 'src': '/static/foodstim60/raspberries.jpg', 'key': 'u', 'origWidth': 411, 'origHeight': 411, 'width': 411, 'height': 411, 'widthPercent': 0.45, 'rescaleHeight': False, 'trialN': 54, 'loaded': True, 'loadedTime': 3708.5, 'positionName': 'LEFT', 'positionCoords': [244.68, 178.5], 'bid': 4.88}, {'imgObject': {}, 'id': 'hashbrowns', 'src': '/static/foodstim60/hashbrowns.jpg', 'key': 'i', 'origWidth': 411, 'origHeight': 410, 'width': 411, 'height': 410, 'widthPercent': 0.45, 'rescaleHeight': False, 'trialN': 54, 'loaded': True, 'loadedTime': 3140.8999999910593, 'positionName': 'RIGHT', 'positionCoords': [710.32, 179], 'bid': 4.86}]",80343.5,1669832518403,raspberries,hashbrowns,4.88,4.86,-0.019999999999999574,hashbrowns,732.0999999940395,733,732.7000000029802,True,i,81590.0,1246.5,1669832519650,1247,HRV,HRV_0182,2022-11-30 18:25:02
55,"[{'imgObject': {}, 'id': 'strawberries', 'src': '/static/foodstim60/strawberries.jpg', 'key': 'u', 'origWidth': 410, 'origHeight': 410, 'width': 410, 'height': 410, 'widthPercent': 0.45, 'rescaleHeight': False, 'trialN': 55, 'loaded': True, 'loadedTime': 3745.7000000029802, 'positionName': 'LEFT', 'positionCoords': [245.68, 179], 'bid': 4.97}, {'imgObject': {}, 'id': 'cantaloupe', 'src': '/static/foodstim60/cantaloupe.jpg', 'key': 'i', 'origWidth': 409, 'origHeight': 409, 'width': 409, 'height': 409, 'widthPercent': 0.45, 'rescaleHeight': False, 'trialN': 55, 'loaded': True, 'loadedTime': 3786, 'positionName': 'RIGHT', 'positionCoords': [710.32, 179.5], 'bid': 5.05}]",81590.39999999106,1669832519650,strawberries,cantaloupe,4.97,5.05,0.08000000000000007,cantaloupe,841.3000000119209,843,842.1000000089407,True,i,82949.59999999404,1359.2000000029802,1669832521010,1360,HRV,HRV_0182,2022-11-30 18:25:02
56,"[{'imgObject': {}, 'id': 'avocado', 'src': '/static/foodstim60/avocado.jpg', 'key': 'u', 'origWidth': 409, 'origHeight': 409, 'width': 409, 'height': 409, 'widthPercent': 0.45, 'rescaleHeight': False, 'trialN': 56, 'loaded': True, 'loadedTime': 3010.5999999940395, 'positionName': 'LEFT', 'positionCoords': [246.68, 179.5], 'bid': 1.32}, {'imgObject': {}, 'id': 'grilled chicken strips', 'src': '/static/foodstim60/grilled chicken strips.jpg', 'key': 'i', 'origWidth': 410, 'origHeight': 411, 'width': 410, 'height': 411, 'widthPercent': 0.45, 'rescaleHeight': False, 'trialN': 56, 'loaded': True, 'loadedTime': 3415.2999999970198, 'positionName': 'RIGHT', 'positionCoords': [710.32, 178.5], 'bid': 1.23}]",82950.20000000298,1669832521010,avocado,grilled chicken strips,1.32,1.23,-0.09000000000000008,avocado,990.0999999940395,991,990.7999999970198,True,u,84452.29999999702,1502.0999999940395,1669832522512,1502,HRV,HRV_0182,2022-11-30 18:25:02
57,"[{'imgObject': {}, 'id': 'popsicles', 'src': '/static/foodstim60/popsicles.jpg', 'key': 'u', 'origWidth': 410, 'origHeight': 410, 'width': 410, 'height': 410, 'widthPercent': 0.45, 'rescaleHeight': False, 'trialN': 57, 'loaded': True, 'loadedTime': 3879.3999999910593, 'positionName': 'LEFT', 'positionCoords': [245.68, 179], 'bid': 0.81}, {'imgObject': {}, 'id': 'kiwi', 'src': '/static/foodstim60/kiwi.jpg', 'key': 'i', 'origWidth': 410, 'origHeight': 410, 'width': 410, 'height': 410, 'widthPercent': 0.45, 'rescaleHeight': False, 'trialN': 57, 'loaded': True, 'loadedTime': 3323.3999999910593, 'positionName': 'RIGHT', 'positionCoords': [710.32, 179], 'bid': 0.9}]",84452.79999999702,1669832522513,popsicles,kiwi,0.81,0.9,0.08999999999999997,kiwi,1080.2999999970198,1082,1081.7999999970198,True,i,86047.89999999106,1595.0999999940395,1669832524108,1595,HRV,HRV_0182,2022-11-30 18:25:02
58,"[{'imgObject': {}, 'id': 'blackbeanswithrice', 'src': '/static/foodstim60/blackbeanswithrice.jpg', 'key': 'u', 'origWidth': 410, 'origHeight': 410, 'width': 410, 'height': 410, 'widthPercent': 0.45, 'rescaleHeight': False, 'trialN': 58, 'loaded': True, 'loadedTime': 3290, 'positionName': 'LEFT', 'positionCoords': [245.68, 179], 'bid': 4.89}, {'imgObject': {}, 'id': 'salad w chicken', 'src': '/static/foodstim60/salad w chicken.jpg', 'key': 'i', 'origWidth': 411, 'origHeight': 411, 'width': 411, 'height': 411, 'widthPercent': 0.45, 'rescaleHeight': False, 'trialN': 58, 'loaded': True, 'loadedTime': 3597.5, 'positionName': 'RIGHT', 'positionCoords': [710.32, 178.5], 'bid': 8.99}]",86048.20000000298,1669832524108,blackbeanswithrice,salad w chicken,4.89,8.99,4.1000000000000005,salad w chicken,536.6999999880791,538,537.2999999970198,True,i,87094.0,1045.7999999970198,1669832525154,1046,HRV,HRV_0182,2022-11-30 18:25:02
59,"[{'imgObject': {}, 'id': 'luckycharms', 'src': '/static/foodstim60/luckycharms.jpg', 'key': 'u', 'origWidth': 410, 'origHeight': 409, 'width': 410, 'height': 409, 'widthPercent': 0.45, 'rescaleHeight': False, 'trialN': 59, 'loaded': True, 'loadedTime': 3633.7999999970198, 'positionName': 'LEFT', 'positionCoords': [245.68, 179.5], 'bid': 8.86}, {'imgObject': {}, 'id': 'hotdog w must', 'src': '/static/foodstim60/hotdog w must.jpg', 'key': 'i', 'origWidth': 409, 'origHeight': 409, 'width': 409, 'height': 409, 'widthPercent': 0.45, 'rescaleHeight': False, 'trialN': 59, 'loaded': True, 'loadedTime': 3793.5999999940395, 'positionName': 'RIGHT', 'positionCoords': [710.32, 179.5], 'bid': 8.92}]",87094.20000000298,1669832525154,luckycharms,hotdog w must,8.86,8.92,0.0600000000000005,hotdog w must,1632.0,1635,1634.699999988079,True,i,89234.79999999702,2140.5999999940395,1669832527295,2141,HRV,HRV_0182,2022-11-30 18:25:02
60,"[{'imgObject': {}, 'id': 'sushi w_condiments', 'src': '/static/foodstim60/sushi w_condiments.jpg', 'key': 'u', 'origWidth': 410, 'origHeight': 410, 'width': 410, 'height': 410, 'widthPercent': 0.45, 'rescaleHeight': False, 'trialN': 60, 'loaded': True, 'loadedTime': 3411.8999999910593, 'positionName': 'LEFT', 'positionCoords': [245.68, 179], 'bid': 5.1000000000000005}, {'imgObject': {}, 'id': 'cherry tomato', 'src': '/static/foodstim60/cherry tomato.jpg', 'key': 'i', 'origWidth': 410, 'origHeight': 410, 'width': 410, 'height': 410, 'widthPercent': 0.45, 'rescaleHeight': False, 'trialN': 60, 'loaded': True, 'loadedTime': 3386.0999999940395, 'positionName': 'RIGHT', 'positionCoords': [710.32, 179], 'bid': 0.56}]",89236.70000000298,1669832527297,sushi w_condiments,cherry tomato,5.1000000000000005,0.56,-4.540000000000001,sushi w_condiments,1340.3999999910593,1341,1341.0,True,u,91097.59999999404,1860.8999999910593,1669832529158,1861,HRV,HRV_0182,2022-11-30 18:25:02
61,"[{'imgObject': {}, 'id': 'eggs', 'src': '/static/foodstim60/eggs.jpg', 'key': 'u', 'origWidth': 409, 'origHeight': 409, 'width': 409, 'height': 409, 'widthPercent': 0.45, 'rescaleHeight': False, 'trialN': 61, 'loaded': True, 'loadedTime': 3525.7000000029802, 'positionName': 'LEFT', 'positionCoords': [246.68, 179.5], 'bid': 4.91}, {'imgObject': {}, 'id': 'corn cob', 'src': '/static/foodstim60/corn cob.jpg', 'key': 'i', 'origWidth': 411, 'origHeight': 411, 'width': 411, 'height': 411, 'widthPercent': 0.45, 'rescaleHeight': False, 'trialN': 61, 'loaded': True, 'loadedTime': 2873.5999999940395, 'positionName': 'RIGHT', 'positionCoords': [710.32, 178.5], 'bid': 0.92}]",91097.89999999106,1669832529158,eggs,corn cob,4.91,0.92,-3.99,eggs,790.5,792,792.3000000119209,True,u,92400.39999999106,1302.5,1669832530460,1302,HRV,HRV_0182,2022-11-30 18:25:02
62,"[{'imgObject': {}, 'id': 'burger', 'src': '/static/foodstim60/burger.jpg', 'key': 'u', 'origWidth': 409, 'origHeight': 409, 'width': 409, 'height': 409, 'widthPercent': 0.45, 'rescaleHeight': False, 'trialN': 62, 'loaded': True, 'loadedTime': 3527.7000000029802, 'positionName': 'LEFT', 'positionCoords': [246.68, 179.5], 'bid': 8.35}, {'imgObject': {}, 'id': 'steak', 'src': '/static/foodstim60/steak.jpg', 'key': 'i', 'origWidth': 410, 'origHeight': 410, 'width': 410, 'height': 410, 'widthPercent': 0.45, 'rescaleHeight': False, 'trialN': 62, 'loaded': True, 'loadedTime': 3840.2000000029802, 'positionName': 'RIGHT', 'positionCoords': [710.32, 179], 'bid': 0.75}]",92400.70000000298,1669832530461,burger,steak,8.35,0.75,-7.6,burger,817.0,818,818.0,True,u,93727.89999999106,1327.199999988079,1669832531788,1327,HRV,HRV_0182,2022-11-30 18:25:02
63,"[{'imgObject': {}, 'id': 'burger', 'src': '/static/foodstim60/burger.jpg', 'key': 'u', 'origWidth': 409, 'origHeight': 409, 'width': 409, 'height': 409, 'widthPercent': 0.45, 'rescaleHeight': False, 'trialN': 63, 'loaded': True, 'loadedTime': 3528.0999999940395, 'positionName': 'LEFT', 'positionCoords': [246.68, 179.5], 'bid': 8.35}, {'imgObject': {}, 'id': 'Grapes', 'src': '/static/foodstim60/Grapes.jpg', 'key': 'i', 'origWidth': 411, 'origHeight': 411, 'width': 411, 'height': 411, 'widthPercent': 0.45, 'rescaleHeight': False, 'trialN': 63, 'loaded': True, 'loadedTime': 3490.2000000029802, 'positionName': 'RIGHT', 'positionCoords': [710.32, 178.5], 'bid': 4.97}]",93728.09999999404,1669832531788,burger,Grapes,8.35,4.97,-3.38,burger,633.9000000059605,636,635.5,True,u,94870.20000000298,1142.1000000089407,1669832532930,1142,HRV,HRV_0182,2022-11-30 18:25:02
64,"[{'imgObject': {}, 'id': 'omelette', 'src': '/static/foodstim60/omelette.jpg', 'key': 'u', 'origWidth': 410, 'origHeight': 409, 'width': 410, 'height': 409, 'widthPercent': 0.45, 'rescaleHeight': False, 'trialN': 64, 'loaded': True, 'loadedTime': 3688.5, 'positionName': 'LEFT', 'positionCoords': [245.68, 179.5], 'bid': 4.79}, {'imgObject': {}, 'id': 'olives', 'src': '/static/foodstim60/olives.jpg', 'key': 'i', 'origWidth': 410, 'origHeight': 410, 'width': 410, 'height': 410, 'widthPercent': 0.45, 'rescaleHeight': False, 'trialN': 64, 'loaded': True, 'loadedTime': 3558.7000000029802, 'positionName': 'RIGHT', 'positionCoords': [710.32, 179], 'bid': 8.950000000000001}]",94870.5,1669832532930,omelette,olives,4.79,8.950000000000001,4.160000000000001,omelette,579.5999999940395,581,580.0999999940395,True,u,95962.39999999106,1091.8999999910593,1669832534022,1092,HRV,HRV_0182,2022-11-30 18:25:02
65,"[{'imgObject': {}, 'id': 'seaweed', 'src': '/static/foodstim60/seaweed.jpg', 'key': 'u', 'origWidth': 410, 'origHeight': 410, 'width': 410, 'height': 410, 'widthPercent': 0.45, 'rescaleHeight': False, 'trialN': 65, 'loaded': True, 'loadedTime': 3697.7000000029802, 'positionName': 'LEFT', 'positionCoords': [245.68, 179], 'bid': 0.71}, {'imgObject': {}, 'id': 'steak', 'src': '/static/foodstim60/steak.jpg', 'key': 'i', 'origWidth': 410, 'origHeight': 410, 'width': 410, 'height': 410, 'widthPercent': 0.45, 'rescaleHeight': False, 'trialN': 65, 'loaded': True, 'loadedTime': 3840, 'positionName': 'RIGHT', 'positionCoords': [710.32, 179], 'bid': 0.75}]",95962.70000000298,1669832534023,seaweed,steak,0.71,0.75,0.040000000000000036,seaweed,996.0999999940395,996,996.5,True,u,97476.39999999106,1513.699999988079,1669832535536,1513,HRV,HRV_0182,2022-11-30 18:25:02
66,"[{'imgObject': {}, 'id': 'mashed potato', 'src': '/static/foodstim60/mashed potato.jpg', 'key': 'u', 'origWidth': 409, 'origHeight': 409, 'width': 409, 'height': 409, 'widthPercent': 0.45, 'rescaleHeight': False, 'trialN': 66, 'loaded': True, 'loadedTime': 2912.3999999910593, 'positionName': 'LEFT', 'positionCoords': [246.68, 179.5], 'bid': 9.5}, {'imgObject': {}, 'id': 'veggieswithdip', 'src': '/static/foodstim60/veggieswithdip.jpg', 'key': 'i', 'origWidth': 409, 'origHeight': 409, 'width': 409, 'height': 409, 'widthPercent': 0.45, 'rescaleHeight': False, 'trialN': 66, 'loaded': True, 'loadedTime': 3841.7999999970198, 'positionName': 'RIGHT', 'positionCoords': [710.32, 179.5], 'bid': 5.04}]",97476.59999999404,1669832535537,mashed potato,veggieswithdip,9.5,5.04,-4.46,mashed potato,764.7999999970198,766,766.2000000029802,True,u,98758.39999999106,1281.7999999970198,1669832536818,1281,HRV,HRV_0182,2022-11-30 18:25:02
67,"[{'imgObject': {}, 'id': 'bagel plain', 'src': '/static/foodstim60/bagel plain.jpg', 'key': 'u', 'origWidth': 410, 'origHeight': 410, 'width': 410, 'height': 410, 'widthPercent': 0.45, 'rescaleHeight': False, 'trialN': 67, 'loaded': True, 'loadedTime': 3099.7999999970198, 'positionName': 'LEFT', 'positionCoords': [245.68, 179], 'bid': 9.11}, {'imgObject': {}, 'id': 'eggsalad', 'src': '/static/foodstim60/eggsalad.jpg', 'key': 'i', 'origWidth': 410, 'origHeight': 409, 'width': 410, 'height': 409, 'widthPercent': 0.45, 'rescaleHeight': False, 'trialN': 67, 'loaded': True, 'loadedTime': 3244.7999999970198, 'positionName': 'RIGHT', 'positionCoords': [710.32, 179.5], 'bid': 4.92}]",98759.0,1669832536819,bagel plain,eggsalad,9.11,4.92,-4.1899999999999995,eggsalad,793.5999999940395,795,794.7000000029802,True,i,100059.79999999702,1300.7999999970198,1669832538120,1301,HRV,HRV_0182,2022-11-30 18:25:02
68,"[{'imgObject': {}, 'id': 'omelette', 'src': '/static/foodstim60/omelette.jpg', 'key': 'u', 'origWidth': 410, 'origHeight': 409, 'width': 410, 'height': 409, 'widthPercent': 0.45, 'rescaleHeight': False, 'trialN': 68, 'loaded': True, 'loadedTime': 3690.5999999940395, 'positionName': 'LEFT', 'positionCoords': [245.68, 179.5], 'bid': 4.79}, {'imgObject': {}, 'id': 'sweetpotato', 'src': '/static/foodstim60/sweetpotato.jpg', 'key': 'i', 'origWidth': 410, 'origHeight': 410, 'width': 410, 'height': 410, 'widthPercent': 0.45, 'rescaleHeight': False, 'trialN': 68, 'loaded': True, 'loadedTime': 3287.5, 'positionName': 'RIGHT', 'positionCoords': [710.32, 179], 'bid': 4.83}]",100060.0,1669832538120,omelette,sweetpotato,4.79,4.83,0.040000000000000036,omelette,842.0,844,844.0999999940395,True,u,101411.79999999702,1351.7999999970198,1669832539472,1352,HRV,HRV_0182,2022-11-30 18:25:02
69,"[{'imgObject': {}, 'id': 'apple slices', 'src': '/static/foodstim60/apple slices.jpg', 'key': 'u', 'origWidth': 409, 'origHeight': 410, 'width': 409, 'height': 410, 'widthPercent': 0.45, 'rescaleHeight': False, 'trialN': 69, 'loaded': True, 'loadedTime': 3456.5, 'positionName': 'LEFT', 'positionCoords': [246.68, 179], 'bid': 5}, {'imgObject': {}, 'id': 'ice cream sundae 002', 'src': '/static/foodstim60/ice cream sundae 002.jpg', 'key': 'i', 'origWidth': 409, 'origHeight': 409, 'width': 409, 'height': 409, 'widthPercent': 0.45, 'rescaleHeight': False, 'trialN': 69, 'loaded': True, 'loadedTime': 3706.8999999910593, 'positionName': 'RIGHT', 'positionCoords': [710.32, 179.5], 'bid': 9.42}]",101412.39999999106,1669832539472,apple slices,ice cream sundae 002,5.0,9.42,4.42,ice cream sundae 002,726.1000000089407,728,727.5,True,i,102649.5,1237.1000000089407,1669832540709,1237,HRV,HRV_0182,2022-11-30 18:25:02
70,"[{'imgObject': {}, 'id': 'roastedpotatoes', 'src': '/static/foodstim60/roastedpotatoes.jpg', 'key': 'u', 'origWidth': 409, 'origHeight': 410, 'width': 409, 'height': 410, 'widthPercent': 0.45, 'rescaleHeight': False, 'trialN': 70, 'loaded': True, 'loadedTime': 3102.0999999940395, 'positionName': 'LEFT', 'positionCoords': [246.68, 179], 'bid': 9.17}, {'imgObject': {}, 'id': 'strawberries', 'src': '/static/foodstim60/strawberries.jpg', 'key': 'i', 'origWidth': 410, 'origHeight': 410, 'width': 410, 'height': 410, 'widthPercent': 0.45, 'rescaleHeight': False, 'trialN': 70, 'loaded': True, 'loadedTime': 3743, 'positionName': 'RIGHT', 'positionCoords': [710.32, 179], 'bid': 4.97}]",102649.59999999404,1669832540710,roastedpotatoes,strawberries,9.17,4.97,-4.2,roastedpotatoes,808.7000000029802,810,810.4000000059605,True,u,103964.89999999106,1315.2999999970198,1669832542025,1315,HRV,HRV_0182,2022-11-30 18:25:02
71,"[{'imgObject': {}, 'id': 'roastedpotatoes', 'src': '/static/foodstim60/roastedpotatoes.jpg', 'key': 'u', 'origWidth': 409, 'origHeight': 410, 'width': 409, 'height': 410, 'widthPercent': 0.45, 'rescaleHeight': False, 'trialN': 71, 'loaded': True, 'loadedTime': 3100.7000000029802, 'positionName': 'LEFT', 'positionCoords': [246.68, 179], 'bid': 9.17}, {'imgObject': {}, 'id': 'Tribe humus pita', 'src': '/static/foodstim60/Tribe humus pita.jpg', 'key': 'i', 'origWidth': 411, 'origHeight': 411, 'width': 411, 'height': 411, 'widthPercent': 0.45, 'rescaleHeight': False, 'trialN': 71, 'loaded': True, 'loadedTime': 3788.7000000029802, 'positionName': 'RIGHT', 'positionCoords': [710.32, 178.5], 'bid': 8.96}]",103965.20000000298,1669832542025,roastedpotatoes,Tribe humus pita,9.17,8.96,-0.20999999999999908,roastedpotatoes,1026.5,1027,1027.0,True,u,105501.29999999702,1536.0999999940395,1669832543561,1536,HRV,HRV_0182,2022-11-30 18:25:02
72,"[{'imgObject': {}, 'id': 'banana', 'src': '/static/foodstim60/banana.jpg', 'key': 'u', 'origWidth': 410, 'origHeight': 410, 'width': 410, 'height': 410, 'widthPercent': 0.45, 'rescaleHeight': False, 'trialN': 72, 'loaded': True, 'loadedTime': 3826.5999999940395, 'positionName': 'LEFT', 'positionCoords': [245.68, 179], 'bid': 5.0200000000000005}, {'imgObject': {}, 'id': 'sweetpotato', 'src': '/static/foodstim60/sweetpotato.jpg', 'key': 'i', 'origWidth': 410, 'origHeight': 410, 'width': 410, 'height': 410, 'widthPercent': 0.45, 'rescaleHeight': False, 'trialN': 72, 'loaded': True, 'loadedTime': 3277.0999999940395, 'positionName': 'RIGHT', 'positionCoords': [710.32, 179], 'bid': 4.83}]",105501.5,1669832543562,banana,sweetpotato,5.0200000000000005,4.83,-0.1900000000000004,sweetpotato,884.7000000029802,885,885.2999999970198,True,i,106895.09999999404,1393.5999999940395,1669832544955,1393,HRV,HRV_0182,2022-11-30 18:25:02
73,"[{'imgObject': {}, 'id': 'chickenfingers', 'src': '/static/foodstim60/chickenfingers.jpg', 'key': 'u', 'origWidth': 410, 'origHeight': 410, 'width': 410, 'height': 410, 'widthPercent': 0.45, 'rescaleHeight': False, 'trialN': 73, 'loaded': True, 'loadedTime': 3790.5999999940395, 'positionName': 'LEFT', 'positionCoords': [245.68, 179], 'bid': 9.33}, {'imgObject': {}, 'id': 'burrito', 'src': '/static/foodstim60/burrito.jpg', 'key': 'i', 'origWidth': 410, 'origHeight': 410, 'width': 410, 'height': 410, 'widthPercent': 0.45, 'rescaleHeight': False, 'trialN': 73, 'loaded': True, 'loadedTime': 3258.2000000029802, 'positionName': 'RIGHT', 'positionCoords': [710.32, 179], 'bid': 9.11}]",106895.39999999106,1669832544955,chickenfingers,burrito,9.33,9.11,-0.22000000000000064,burrito,626.3000000119209,628,627.7000000029802,True,i,108027.59999999404,1132.2000000029802,1669832546088,1133,HRV,HRV_0182,2022-11-30 18:25:02
74,"[{'imgObject': {}, 'id': 'cherry tomato', 'src': '/static/foodstim60/cherry tomato.jpg', 'key': 'u', 'origWidth': 410, 'origHeight': 410, 'width': 410, 'height': 410, 'widthPercent': 0.45, 'rescaleHeight': False, 'trialN': 74, 'loaded': True, 'loadedTime': 3383.5, 'positionName': 'LEFT', 'positionCoords': [245.68, 179], 'bid': 0.56}, {'imgObject': {}, 'id': 'lox', 'src': '/static/foodstim60/lox.jpg', 'key': 'i', 'origWidth': 410, 'origHeight': 411, 'width': 410, 'height': 411, 'widthPercent': 0.45, 'rescaleHeight': False, 'trialN': 74, 'loaded': True, 'loadedTime': 3844, 'positionName': 'RIGHT', 'positionCoords': [710.32, 178.5], 'bid': 0.54}]",108028.20000000298,1669832546088,cherry tomato,lox,0.56,0.54,-0.020000000000000018,lox,1184.0999999940395,1186,1185.7999999970198,True,i,109716.59999999404,1688.3999999910593,1669832547777,1689,HRV,HRV_0182,2022-11-30 18:25:02
75,"[{'imgObject': {}, 'id': 'chickenfingers', 'src': '/static/foodstim60/chickenfingers.jpg', 'key': 'u', 'origWidth': 410, 'origHeight': 410, 'width': 410, 'height': 410, 'widthPercent': 0.45, 'rescaleHeight': False, 'trialN': 75, 'loaded': True, 'loadedTime': 3790.7000000029802, 'positionName': 'LEFT', 'positionCoords': [245.68, 179], 'bid': 9.33}, {'imgObject': {}, 'id': 'mac & cheese', 'src': '/static/foodstim60/mac & cheese.jpg', 'key': 'i', 'origWidth': 410, 'origHeight': 410, 'width': 410, 'height': 410, 'widthPercent': 0.45, 'rescaleHeight': False, 'trialN': 75, 'loaded': True, 'loadedTime': 2990.3999999910593, 'positionName': 'RIGHT', 'positionCoords': [710.32, 179], 'bid': 9.43}]",109717.0,1669832547777,chickenfingers,mac & cheese,9.33,9.43,0.09999999999999964,chickenfingers,606.7999999970198,610,610.0999999940395,True,u,110841.0,1124.0,1669832548901,1124,HRV,HRV_0182,2022-11-30 18:25:02
76,"[{'imgObject': {}, 'id': 'steak', 'src': '/static/foodstim60/steak.jpg', 'key': 'u', 'origWidth': 410, 'origHeight': 410, 'width': 410, 'height': 410, 'widthPercent': 0.45, 'rescaleHeight': False, 'trialN': 76, 'loaded': True, 'loadedTime': 3840.2000000029802, 'positionName': 'LEFT', 'positionCoords': [245.68, 179], 'bid': 0.75}, {'imgObject': {}, 'id': 'sweetpotato', 'src': '/static/foodstim60/sweetpotato.jpg', 'key': 'i', 'origWidth': 410, 'origHeight': 410, 'width': 410, 'height': 410, 'widthPercent': 0.45, 'rescaleHeight': False, 'trialN': 76, 'loaded': True, 'loadedTime': 3276.3999999910593, 'positionName': 'RIGHT', 'positionCoords': [710.32, 179], 'bid': 4.83}]",110841.5,1669832548902,steak,sweetpotato,0.75,4.83,4.08,sweetpotato,1119.2999999970198,1120,1120.0,True,i,112475.89999999106,1634.3999999910593,1669832550536,1634,HRV,HRV_0182,2022-11-30 18:25:02
77,"[{'imgObject': {}, 'id': 'mashed potato', 'src': '/static/foodstim60/mashed potato.jpg', 'key': 'u', 'origWidth': 409, 'origHeight': 409, 'width': 409, 'height': 409, 'widthPercent': 0.45, 'rescaleHeight': False, 'trialN': 77, 'loaded': True, 'loadedTime': 2875.7999999970198, 'positionName': 'LEFT', 'positionCoords': [246.68, 179.5], 'bid': 9.5}, {'imgObject': {}, 'id': 'ice cream sundae 002', 'src': '/static/foodstim60/ice cream sundae 002.jpg', 'key': 'i', 'origWidth': 409, 'origHeight': 409, 'width': 409, 'height': 409, 'widthPercent': 0.45, 'rescaleHeight': False, 'trialN': 77, 'loaded': True, 'loadedTime': 3707.8999999910593, 'positionName': 'RIGHT', 'positionCoords': [710.32, 179.5], 'bid': 9.42}]",112476.09999999404,1669832550536,mashed potato,ice cream sundae 002,9.5,9.42,-0.08000000000000007,ice cream sundae 002,583.0,584,583.4000000059605,True,i,113567.5,1091.4000000059605,1669832551628,1092,HRV,HRV_0182,2022-11-30 18:25:02
78,"[{'imgObject': {}, 'id': 'seaweed', 'src': '/static/foodstim60/seaweed.jpg', 'key': 'u', 'origWidth': 410, 'origHeight': 410, 'width': 410, 'height': 410, 'widthPercent': 0.45, 'rescaleHeight': False, 'trialN': 78, 'loaded': True, 'loadedTime': 3691.7999999970198, 'positionName': 'LEFT', 'positionCoords': [245.68, 179], 'bid': 0.71}, {'imgObject': {}, 'id': 'cherries', 'src': '/static/foodstim60/cherries.jpg', 'key': 'i', 'origWidth': 410, 'origHeight': 411, 'width': 410, 'height': 411, 'widthPercent': 0.45, 'rescaleHeight': False, 'trialN': 78, 'loaded': True, 'loadedTime': 3271.8999999910593, 'positionName': 'RIGHT', 'positionCoords': [710.32, 178.5], 'bid': 5.1000000000000005}]",113567.70000000298,1669832551628,seaweed,cherries,0.71,5.1000000000000005,4.390000000000001,cherries,701.7999999970198,702,702.6999999880791,True,i,114784.5,1216.7999999970198,1669832552845,1217,HRV,HRV_0182,2022-11-30 18:25:02
79,"[{'imgObject': {}, 'id': 'tacos', 'src': '/static/foodstim60/tacos.jpg', 'key': 'u', 'origWidth': 411, 'origHeight': 411, 'width': 411, 'height': 411, 'widthPercent': 0.45, 'rescaleHeight': False, 'trialN': 79, 'loaded': True, 'loadedTime': 3633.7000000029802, 'positionName': 'LEFT', 'positionCoords': [244.68, 178.5], 'bid': 9.14}, {'imgObject': {}, 'id': 'baked potato', 'src': '/static/foodstim60/baked potato.jpg', 'key': 'i', 'origWidth': 409, 'origHeight': 410, 'width': 409, 'height': 410, 'widthPercent': 0.45, 'rescaleHeight': False, 'trialN': 79, 'loaded': True, 'loadedTime': 3024.2000000029802, 'positionName': 'RIGHT', 'positionCoords': [710.32, 179], 'bid': 8.92}]",114784.79999999702,1669832552845,tacos,baked potato,9.14,8.92,-0.22000000000000064,tacos,753.2999999970198,754,754.2999999970198,True,u,116053.59999999404,1268.7999999970198,1669832554114,1269,HRV,HRV_0182,2022-11-30 18:25:02
80,"[{'imgObject': {}, 'id': 'turkeysandwich', 'src': '/static/foodstim60/turkeysandwich.jpg', 'key': 'u', 'origWidth': 409, 'origHeight': 409, 'width': 409, 'height': 409, 'widthPercent': 0.45, 'rescaleHeight': False, 'trialN': 80, 'loaded': True, 'loadedTime': 3834.5, 'positionName': 'LEFT', 'positionCoords': [246.68, 179.5], 'bid': 8.98}, {'imgObject': {}, 'id': 'raspberries', 'src': '/static/foodstim60/raspberries.jpg', 'key': 'i', 'origWidth': 411, 'origHeight': 411, 'width': 411, 'height': 411, 'widthPercent': 0.45, 'rescaleHeight': False, 'trialN': 80, 'loaded': True, 'loadedTime': 3742.0999999940395, 'positionName': 'RIGHT', 'positionCoords': [710.32, 178.5], 'bid': 4.88}]",116054.0,1669832554114,turkeysandwich,raspberries,8.98,4.88,-4.1000000000000005,turkeysandwich,626.5,628,627.7000000029802,True,u,117202.0,1148.0,1669832555262,1148,HRV,HRV_0182,2022-11-30 18:25:02
81,"[{'imgObject': {}, 'id': 'eggsalad', 'src': '/static/foodstim60/eggsalad.jpg', 'key': 'u', 'origWidth': 410, 'origHeight': 409, 'width': 410, 'height': 409, 'widthPercent': 0.45, 'rescaleHeight': False, 'trialN': 81, 'loaded': True, 'loadedTime': 3244.2999999970198, 'positionName': 'LEFT', 'positionCoords': [245.68, 179.5], 'bid': 4.92}, {'imgObject': {}, 'id': 'popsicles', 'src': '/static/foodstim60/popsicles.jpg', 'key': 'i', 'origWidth': 410, 'origHeight': 410, 'width': 410, 'height': 410, 'widthPercent': 0.45, 'rescaleHeight': False, 'trialN': 81, 'loaded': True, 'loadedTime': 3879.2000000029802, 'positionName': 'RIGHT', 'positionCoords': [710.32, 179], 'bid': 0.81}]",117202.70000000298,1669832555263,eggsalad,popsicles,4.92,0.81,-4.109999999999999,eggsalad,572.7999999970198,573,573.5,True,u,118296.20000000298,1093.5,1669832556356,1093,HRV,HRV_0182,2022-11-30 18:25:02
82,"[{'imgObject': {}, 'id': 'tacos', 'src': '/static/foodstim60/tacos.jpg', 'key': 'u', 'origWidth': 411, 'origHeight': 411, 'width': 411, 'height': 411, 'widthPercent': 0.45, 'rescaleHeight': False, 'trialN': 82, 'loaded': True, 'loadedTime': 3633.0999999940395, 'positionName': 'LEFT', 'positionCoords': [244.68, 178.5], 'bid': 9.14}, {'imgObject': {}, 'id': 'burrito', 'src': '/static/foodstim60/burrito.jpg', 'key': 'i', 'origWidth': 410, 'origHeight': 410, 'width': 410, 'height': 410, 'widthPercent': 0.45, 'rescaleHeight': False, 'trialN': 82, 'loaded': True, 'loadedTime': 3259.7000000029802, 'positionName': 'RIGHT', 'positionCoords': [710.32, 179], 'bid': 9.11}]",118296.79999999702,1669832556357,tacos,burrito,9.14,9.11,-0.030000000000001137,tacos,577.7000000029802,581,580.9000000059605,True,u,119391.09999999404,1094.2999999970198,1669832557451,1094,HRV,HRV_0182,2022-11-30 18:25:02
83,"[{'imgObject': {}, 'id': 'rigatoni and sauce', 'src': '/static/foodstim60/rigatoni and sauce.jpg', 'key': 'u', 'origWidth': 410, 'origHeight': 411, 'width': 410, 'height': 411, 'widthPercent': 0.45, 'rescaleHeight': False, 'trialN': 83, 'loaded': True, 'loadedTime': 3600.8999999910593, 'positionName': 'LEFT', 'positionCoords': [245.68, 178.5], 'bid': 9.04}, {'imgObject': {}, 'id': 'turkeysandwich', 'src': '/static/foodstim60/turkeysandwich.jpg', 'key': 'i', 'origWidth': 409, 'origHeight': 409, 'width': 409, 'height': 409, 'widthPercent': 0.45, 'rescaleHeight': False, 'trialN': 83, 'loaded': True, 'loadedTime': 3834.7999999970198, 'positionName': 'RIGHT', 'positionCoords': [710.32, 179.5], 'bid': 8.98}]",119391.59999999404,1669832557452,rigatoni and sauce,turkeysandwich,9.04,8.98,-0.05999999999999872,rigatoni and sauce,605.5,606,605.9000000059605,True,u,120511.29999999702,1119.7000000029802,1669832558571,1119,HRV,HRV_0182,2022-11-30 18:25:02
84,"[{'imgObject': {}, 'id': 'edamame', 'src': '/static/foodstim60/edamame.jpg', 'key': 'u', 'origWidth': 409, 'origHeight': 410, 'width': 409, 'height': 410, 'widthPercent': 0.45, 'rescaleHeight': False, 'trialN': 84, 'loaded': True, 'loadedTime': 3354.2000000029802, 'positionName': 'LEFT', 'positionCoords': [246.68, 179], 'bid': 0.88}, {'imgObject': {}, 'id': 'granola w milk', 'src': '/static/foodstim60/granola w milk.jpg', 'key': 'i', 'origWidth': 410, 'origHeight': 410, 'width': 410, 'height': 410, 'widthPercent': 0.45, 'rescaleHeight': False, 'trialN': 84, 'loaded': True, 'loadedTime': 3172.5, 'positionName': 'RIGHT', 'positionCoords': [710.32, 179], 'bid': 8.85}]",120511.5,1669832558572,edamame,granola w milk,0.88,8.85,7.97,granola w milk,1317.7999999970198,1318,1318.3999999910593,True,i,122343.0,1831.5,1669832560403,1831,HRV,HRV_0182,2022-11-30 18:25:02
85,"[{'imgObject': {}, 'id': 'popsicles', 'src': '/static/foodstim60/popsicles.jpg', 'key': 'u', 'origWidth': 410, 'origHeight': 410, 'width': 410, 'height': 410, 'widthPercent': 0.45, 'rescaleHeight': False, 'trialN': 85, 'loaded': True, 'loadedTime': 3879.5, 'positionName': 'LEFT', 'positionCoords': [245.68, 179], 'bid': 0.81}, {'imgObject': {}, 'id': 'cheerios', 'src': '/static/foodstim60/cheerios.jpg', 'key': 'i', 'origWidth': 409, 'origHeight': 410, 'width': 409, 'height': 410, 'widthPercent': 0.45, 'rescaleHeight': False, 'trialN': 85, 'loaded': True, 'loadedTime': 3844.2999999970198, 'positionName': 'RIGHT', 'positionCoords': [710.32, 179], 'bid': 8.8}]",122343.39999999106,1669832560403,popsicles,cheerios,0.81,8.8,7.99,cheerios,1128.7000000029802,1130,1129.300000011921,True,i,123983.79999999702,1640.4000000059605,1669832562044,1641,HRV,HRV_0182,2022-11-30 18:25:02
86,"[{'imgObject': {}, 'id': 'raspberries', 'src': '/static/foodstim60/raspberries.jpg', 'key': 'u', 'origWidth': 411, 'origHeight': 411, 'width': 411, 'height': 411, 'widthPercent': 0.45, 'rescaleHeight': False, 'trialN': 86, 'loaded': True, 'loadedTime': 3741.7999999970198, 'positionName': 'LEFT', 'positionCoords': [244.68, 178.5], 'bid': 4.88}, {'imgObject': {}, 'id': 'sweetpotato', 'src': '/static/foodstim60/sweetpotato.jpg', 'key': 'i', 'origWidth': 410, 'origHeight': 410, 'width': 410, 'height': 410, 'widthPercent': 0.45, 'rescaleHeight': False, 'trialN': 86, 'loaded': True, 'loadedTime': 3272.7999999970198, 'positionName': 'RIGHT', 'positionCoords': [710.32, 179], 'bid': 4.83}]",123984.5,1669832562045,raspberries,sweetpotato,4.88,4.83,-0.04999999999999982,sweetpotato,707.5,708,708.0999999940395,True,i,125203.59999999404,1219.0999999940395,1669832563264,1219,HRV,HRV_0182,2022-11-30 18:25:02
87,"[{'imgObject': {}, 'id': 'mashed potato', 'src': '/static/foodstim60/mashed potato.jpg', 'key': 'u', 'origWidth': 409, 'origHeight': 409, 'width': 409, 'height': 409, 'widthPercent': 0.45, 'rescaleHeight': False, 'trialN': 87, 'loaded': True, 'loadedTime': 2907.5, 'positionName': 'LEFT', 'positionCoords': [246.68, 179.5], 'bid': 9.5}, {'imgObject': {}, 'id': 'Tribe humus pita', 'src': '/static/foodstim60/Tribe humus pita.jpg', 'key': 'i', 'origWidth': 411, 'origHeight': 411, 'width': 411, 'height': 411, 'widthPercent': 0.45, 'rescaleHeight': False, 'trialN': 87, 'loaded': True, 'loadedTime': 3788.7999999970198, 'positionName': 'RIGHT', 'positionCoords': [710.32, 178.5], 'bid': 8.96}]",125203.89999999106,1669832563264,mashed potato,Tribe humus pita,9.5,8.96,-0.5399999999999991,mashed potato,851.3000000119209,853,853.2000000029802,True,u,126566.20000000298,1362.300000011921,1669832564626,1362,HRV,HRV_0182,2022-11-30 18:25:02
88,"[{'imgObject': {}, 'id': 'fried eggs', 'src': '/static/foodstim60/fried eggs.jpg', 'key': 'u', 'origWidth': 410, 'origHeight': 410, 'width': 410, 'height': 410, 'widthPercent': 0.45, 'rescaleHeight': False, 'trialN': 88, 'loaded': True, 'loadedTime': 3487.7000000029802, 'positionName': 'LEFT', 'positionCoords': [245.68, 179], 'bid': 5}, {'imgObject': {}, 'id': 'luckycharms', 'src': '/static/foodstim60/luckycharms.jpg', 'key': 'i', 'origWidth': 410, 'origHeight': 409, 'width': 410, 'height': 409, 'widthPercent': 0.45, 'rescaleHeight': False, 'trialN': 88, 'loaded': True, 'loadedTime': 3675.8999999910593, 'positionName': 'RIGHT', 'positionCoords': [710.32, 179.5], 'bid': 8.86}]",126566.39999999106,1669832564626,fried eggs,luckycharms,5.0,8.86,3.8599999999999994,fried eggs,847.9000000059605,849,848.5,True,u,127925.59999999404,1359.2000000029802,1669832565986,1360,HRV,HRV_0182,2022-11-30 18:25:02
89,"[{'imgObject': {}, 'id': 'sushi w_condiments', 'src': '/static/foodstim60/sushi w_condiments.jpg', 'key': 'u', 'origWidth': 410, 'origHeight': 410, 'width': 410, 'height': 410, 'widthPercent': 0.45, 'rescaleHeight': False, 'trialN': 89, 'loaded': True, 'loadedTime': 3412.2000000029802, 'positionName': 'LEFT', 'positionCoords': [245.68, 179], 'bid': 5.1000000000000005}, {'imgObject': {}, 'id': 'cantaloupe', 'src': '/static/foodstim60/cantaloupe.jpg', 'key': 'i', 'origWidth': 409, 'origHeight': 409, 'width': 409, 'height': 409, 'widthPercent': 0.45, 'rescaleHeight': False, 'trialN': 89, 'loaded': True, 'loadedTime': 3786.7999999970198, 'positionName': 'RIGHT', 'positionCoords': [710.32, 179.5], 'bid': 5.05}]",127925.79999999702,1669832565986,sushi w_condiments,cantaloupe,5.1000000000000005,5.05,-0.05000000000000071,sushi w_condiments,696.4000000059605,699,698.7999999970198,True,u,129142.5,1216.7000000029802,1669832567203,1217,HRV,HRV_0182,2022-11-30 18:25:02
90,"[{'imgObject': {}, 'id': 'cheerios', 'src': '/static/foodstim60/cheerios.jpg', 'key': 'u', 'origWidth': 409, 'origHeight': 410, 'width': 409, 'height': 410, 'widthPercent': 0.45, 'rescaleHeight': False, 'trialN': 90, 'loaded': True, 'loadedTime': 3874.7999999970198, 'positionName': 'LEFT', 'positionCoords': [246.68, 179], 'bid': 8.8}, {'imgObject': {}, 'id': 'bagel plain', 'src': '/static/foodstim60/bagel plain.jpg', 'key': 'i', 'origWidth': 410, 'origHeight': 410, 'width': 410, 'height': 410, 'widthPercent': 0.45, 'rescaleHeight': False, 'trialN': 90, 'loaded': True, 'loadedTime': 3100.5, 'positionName': 'RIGHT', 'positionCoords': [710.32, 179], 'bid': 9.11}]",134230.5,1669832572291,cheerios,bagel plain,8.8,9.11,0.3099999999999987,cheerios,1590.5,1591,1591.8999999910593,True,u,136328.09999999404,2097.5999999940395,1669832574388,2097,HRV,HRV_0182,2022-11-30 18:25:02
91,"[{'imgObject': {}, 'id': 'lox', 'src': '/static/foodstim60/lox.jpg', 'key': 'u', 'origWidth': 410, 'origHeight': 411, 'width': 410, 'height': 411, 'widthPercent': 0.45, 'rescaleHeight': False, 'trialN': 91, 'loaded': True, 'loadedTime': 3844, 'positionName': 'LEFT', 'positionCoords': [245.68, 178.5], 'bid': 0.54}, {'imgObject': {}, 'id': 'seaweed', 'src': '/static/foodstim60/seaweed.jpg', 'key': 'i', 'origWidth': 410, 'origHeight': 410, 'width': 410, 'height': 410, 'widthPercent': 0.45, 'rescaleHeight': False, 'trialN': 91, 'loaded': True, 'loadedTime': 3698.7000000029802, 'positionName': 'RIGHT', 'positionCoords': [710.32, 179], 'bid': 0.71}]",136328.70000000298,1669832574389,lox,seaweed,0.54,0.71,0.16999999999999993,lox,930.8999999910593,932,931.8999999910593,True,u,137778.0,1449.2999999970198,1669832575838,1449,HRV,HRV_0182,2022-11-30 18:25:02
92,"[{'imgObject': {}, 'id': 'kiwi', 'src': '/static/foodstim60/kiwi.jpg', 'key': 'u', 'origWidth': 410, 'origHeight': 410, 'width': 410, 'height': 410, 'widthPercent': 0.45, 'rescaleHeight': False, 'trialN': 92, 'loaded': True, 'loadedTime': 3352.7000000029802, 'positionName': 'LEFT', 'positionCoords': [245.68, 179], 'bid': 0.9}, {'imgObject': {}, 'id': 'luckycharms', 'src': '/static/foodstim60/luckycharms.jpg', 'key': 'i', 'origWidth': 410, 'origHeight': 409, 'width': 410, 'height': 409, 'widthPercent': 0.45, 'rescaleHeight': False, 'trialN': 92, 'loaded': True, 'loadedTime': 3677.8999999910593, 'positionName': 'RIGHT', 'positionCoords': [710.32, 179.5], 'bid': 8.86}]",137781.89999999106,1669832575842,kiwi,luckycharms,0.9,8.86,7.959999999999999,luckycharms,1238.9000000059605,1239,1239.5,True,i,139523.20000000298,1741.300000011921,1669832577583,1741,HRV,HRV_0182,2022-11-30 18:25:02
93,"[{'imgObject': {}, 'id': 'grilled chicken strips', 'src': '/static/foodstim60/grilled chicken strips.jpg', 'key': 'u', 'origWidth': 410, 'origHeight': 411, 'width': 410, 'height': 411, 'widthPercent': 0.45, 'rescaleHeight': False, 'trialN': 93, 'loaded': True, 'loadedTime': 3454.0999999940395, 'positionName': 'LEFT', 'positionCoords': [245.68, 178.5], 'bid': 1.23}, {'imgObject': {}, 'id': 'salmon', 'src': '/static/foodstim60/salmon.jpg', 'key': 'i', 'origWidth': 410, 'origHeight': 409, 'width': 410, 'height': 409, 'widthPercent': 0.45, 'rescaleHeight': False, 'trialN': 93, 'loaded': True, 'loadedTime': 3209.3999999910593, 'positionName': 'RIGHT', 'positionCoords': [710.32, 179.5], 'bid': 1.04}]",139523.59999999404,1669832577584,grilled chicken strips,salmon,1.23,1.04,-0.18999999999999995,grilled chicken strips,940.2000000029802,940,940.7000000029802,True,u,140970.89999999106,1447.2999999970198,1669832579031,1447,HRV,HRV_0182,2022-11-30 18:25:02
94,"[{'imgObject': {}, 'id': 'omelette', 'src': '/static/foodstim60/omelette.jpg', 'key': 'u', 'origWidth': 410, 'origHeight': 409, 'width': 410, 'height': 409, 'widthPercent': 0.45, 'rescaleHeight': False, 'trialN': 94, 'loaded': True, 'loadedTime': 3690.7999999970198, 'positionName': 'LEFT', 'positionCoords': [245.68, 179.5], 'bid': 4.79}, {'imgObject': {}, 'id': 'orange slices', 'src': '/static/foodstim60/orange slices.jpg', 'key': 'i', 'origWidth': 409, 'origHeight': 410, 'width': 409, 'height': 410, 'widthPercent': 0.45, 'rescaleHeight': False, 'trialN': 94, 'loaded': True, 'loadedTime': 3524.3999999910593, 'positionName': 'RIGHT', 'positionCoords': [710.32, 179], 'bid': 4.92}]",140971.20000000298,1669832579031,omelette,orange slices,4.79,4.92,0.1299999999999999,omelette,582.6999999880791,583,583.1999999880791,True,u,142068.20000000298,1097.0,1669832580128,1097,HRV,HRV_0182,2022-11-30 18:25:02
95,"[{'imgObject': {}, 'id': 'burger', 'src': '/static/foodstim60/burger.jpg', 'key': 'u', 'origWidth': 409, 'origHeight': 409, 'width': 409, 'height': 409, 'widthPercent': 0.45, 'rescaleHeight': False, 'trialN': 95, 'loaded': True, 'loadedTime': 3528.2000000029802, 'positionName': 'LEFT', 'positionCoords': [246.68, 179.5], 'bid': 8.35}, {'imgObject': {}, 'id': 'fruitsalad', 'src': '/static/foodstim60/fruitsalad.jpg', 'key': 'i', 'origWidth': 410, 'origHeight': 410, 'width': 410, 'height': 410, 'widthPercent': 0.45, 'rescaleHeight': False, 'trialN': 95, 'loaded': True, 'loadedTime': 3061.2999999970198, 'positionName': 'RIGHT', 'positionCoords': [710.32, 179], 'bid': 9.08}]",142068.59999999404,1669832580129,burger,fruitsalad,8.35,9.08,0.7300000000000004,burger,721.1000000089407,723,723.0,True,u,143299.39999999106,1230.7999999970198,1669832581359,1230,HRV,HRV_0182,2022-11-30 18:25:02
96,"[{'imgObject': {}, 'id': 'ice cream sundae 002', 'src': '/static/foodstim60/ice cream sundae 002.jpg', 'key': 'u', 'origWidth': 409, 'origHeight': 409, 'width': 409, 'height': 409, 'widthPercent': 0.45, 'rescaleHeight': False, 'trialN': 96, 'loaded': True, 'loadedTime': 3706.3999999910593, 'positionName': 'LEFT', 'positionCoords': [246.68, 179.5], 'bid': 9.42}, {'imgObject': {}, 'id': 'chickenfingers', 'src': '/static/foodstim60/chickenfingers.jpg', 'key': 'i', 'origWidth': 410, 'origHeight': 410, 'width': 410, 'height': 410, 'widthPercent': 0.45, 'rescaleHeight': False, 'trialN': 96, 'loaded': True, 'loadedTime': 3789.2999999970198, 'positionName': 'RIGHT', 'positionCoords': [710.32, 179], 'bid': 9.33}]",143299.89999999106,1669832581360,ice cream sundae 002,chickenfingers,9.42,9.33,-0.08999999999999986,chickenfingers,1238.4000000059605,1246,1246.0,True,i,145051.20000000298,1751.300000011921,1669832583111,1751,HRV,HRV_0182,2022-11-30 18:25:02
97,"[{'imgObject': {}, 'id': 'roastedpotatoes', 'src': '/static/foodstim60/roastedpotatoes.jpg', 'key': 'u', 'origWidth': 409, 'origHeight': 410, 'width': 409, 'height': 410, 'widthPercent': 0.45, 'rescaleHeight': False, 'trialN': 97, 'loaded': True, 'loadedTime': 3101.7999999970198, 'positionName': 'LEFT', 'positionCoords': [246.68, 179], 'bid': 9.17}, {'imgObject': {}, 'id': 'shreddedwheatwithmilk', 'src': '/static/foodstim60/shreddedwheatwithmilk.jpg', 'key': 'i', 'origWidth': 410, 'origHeight': 410, 'width': 410, 'height': 410, 'widthPercent': 0.45, 'rescaleHeight': False, 'trialN': 97, 'loaded': True, 'loadedTime': 3827.2000000029802, 'positionName': 'RIGHT', 'positionCoords': [710.32, 179], 'bid': 8.92}]",145051.59999999404,1669832583112,roastedpotatoes,shreddedwheatwithmilk,9.17,8.92,-0.25,roastedpotatoes,970.0,971,970.9000000059605,True,u,146531.09999999404,1479.5,1669832584591,1479,HRV,HRV_0182,2022-11-30 18:25:02
98,"[{'imgObject': {}, 'id': 'salad w chicken', 'src': '/static/foodstim60/salad w chicken.jpg', 'key': 'u', 'origWidth': 411, 'origHeight': 411, 'width': 411, 'height': 411, 'widthPercent': 0.45, 'rescaleHeight': False, 'trialN': 98, 'loaded': True, 'loadedTime': 3589.5999999940395, 'positionName': 'LEFT', 'positionCoords': [244.68, 178.5], 'bid': 8.99}, {'imgObject': {}, 'id': 'Tribe humus pita', 'src': '/static/foodstim60/Tribe humus pita.jpg', 'key': 'i', 'origWidth': 411, 'origHeight': 411, 'width': 411, 'height': 411, 'widthPercent': 0.45, 'rescaleHeight': False, 'trialN': 98, 'loaded': True, 'loadedTime': 3789.0999999940395, 'positionName': 'RIGHT', 'positionCoords': [710.32, 178.5], 'bid': 8.96}]",146531.29999999702,1669832584591,salad w chicken,Tribe humus pita,8.99,8.96,-0.02999999999999936,salad w chicken,550.2000000029802,551,550.7000000029802,True,u,147596.29999999702,1065.0,1669832585656,1065,HRV,HRV_0182,2022-11-30 18:25:02
99,"[{'imgObject': {}, 'id': 'lox', 'src': '/static/foodstim60/lox.jpg', 'key': 'u', 'origWidth': 410, 'origHeight': 411, 'width': 410, 'height': 411, 'widthPercent': 0.45, 'rescaleHeight': False, 'trialN': 99, 'loaded': True, 'loadedTime': 3843.7000000029802, 'positionName': 'LEFT', 'positionCoords': [245.68, 178.5], 'bid': 0.54}, {'imgObject': {}, 'id': 'kiwi', 'src': '/static/foodstim60/kiwi.jpg', 'key': 'i', 'origWidth': 410, 'origHeight': 410, 'width': 410, 'height': 410, 'widthPercent': 0.45, 'rescaleHeight': False, 'trialN': 99, 'loaded': True, 'loadedTime': 3352.3999999910593, 'positionName': 'RIGHT', 'positionCoords': [710.32, 179], 'bid': 0.9}]",147596.5,1669832585657,lox,kiwi,0.54,0.9,0.36,kiwi,1064.2000000029802,1064,1064.7000000029802,True,i,149175.59999999404,1579.0999999940395,1669832587236,1579,HRV,HRV_0182,2022-11-30 18:25:02
100,"[{'imgObject': {}, 'id': 'rigatoni', 'src': '/static/foodstim60/rigatoni.jpg', 'key': 'u', 'origWidth': 411, 'origHeight': 411, 'width': 411, 'height': 411, 'widthPercent': 0.45, 'rescaleHeight': False, 'trialN': 100, 'loaded': True, 'loadedTime': 2802.2999999970198, 'positionName': 'LEFT', 'positionCoords': [244.68, 178.5], 'bid': 8.9}, {'imgObject': {}, 'id': 'chicken nuggets2', 'src': '/static/foodstim60/chicken nuggets2.jpg', 'key': 'i', 'origWidth': 410, 'origHeight': 409, 'width': 410, 'height': 409, 'widthPercent': 0.45, 'rescaleHeight': False, 'trialN': 100, 'loaded': True, 'loadedTime': 3003.3999999910593, 'positionName': 'RIGHT', 'positionCoords': [710.32, 179.5], 'bid': 9.14}]",149175.79999999702,1669832587236,rigatoni,chicken nuggets2,8.9,9.14,0.2400000000000002,chicken nuggets2,699.2999999970198,700,700.4000000059605,True,i,150379.70000000298,1203.9000000059605,1669832588440,1204,HRV,HRV_0182,2022-11-30 18:25:02
101,"[{'imgObject': {}, 'id': 'raspberries', 'src': '/static/foodstim60/raspberries.jpg', 'key': 'u', 'origWidth': 411, 'origHeight': 411, 'width': 411, 'height': 411, 'widthPercent': 0.45, 'rescaleHeight': False, 'trialN': 101, 'loaded': True, 'loadedTime': 3710.7999999970198, 'positionName': 'LEFT', 'positionCoords': [244.68, 178.5], 'bid': 4.88}, {'imgObject': {}, 'id': 'lox', 'src': '/static/foodstim60/lox.jpg', 'key': 'i', 'origWidth': 410, 'origHeight': 411, 'width': 410, 'height': 411, 'widthPercent': 0.45, 'rescaleHeight': False, 'trialN': 101, 'loaded': True, 'loadedTime': 3842.5, 'positionName': 'RIGHT', 'positionCoords': [710.32, 178.5], 'bid': 0.54}]",150379.89999999106,1669832588440,raspberries,lox,4.88,0.54,-4.34,lox,1195.800000011921,1196,1196.4000000059605,True,i,152082.79999999702,1702.9000000059605,1669832590143,1703,HRV,HRV_0182,2022-11-30 18:25:02
102,"[{'imgObject': {}, 'id': 'veggieswithdip', 'src': '/static/foodstim60/veggieswithdip.jpg', 'key': 'u', 'origWidth': 409, 'origHeight': 409, 'width': 409, 'height': 409, 'widthPercent': 0.45, 'rescaleHeight': False, 'trialN': 102, 'loaded': True, 'loadedTime': 3840.3999999910593, 'positionName': 'LEFT', 'positionCoords': [246.68, 179.5], 'bid': 5.04}, {'imgObject': {}, 'id': 'hashbrowns', 'src': '/static/foodstim60/hashbrowns.jpg', 'key': 'i', 'origWidth': 411, 'origHeight': 410, 'width': 411, 'height': 410, 'widthPercent': 0.45, 'rescaleHeight': False, 'trialN': 102, 'loaded': True, 'loadedTime': 3140.5999999940395, 'positionName': 'RIGHT', 'positionCoords': [710.32, 179], 'bid': 4.86}]",152083.09999999404,1669832590143,veggieswithdip,hashbrowns,5.04,4.86,-0.17999999999999972,hashbrowns,1094.0,1095,1094.9000000059605,True,i,153692.20000000298,1609.1000000089407,1669832591752,1609,HRV,HRV_0182,2022-11-30 18:25:02
103,"[{'imgObject': {}, 'id': 'raisin bran w milk', 'src': '/static/foodstim60/raisin bran w milk.jpg', 'key': 'u', 'origWidth': 411, 'origHeight': 411, 'width': 411, 'height': 411, 'widthPercent': 0.45, 'rescaleHeight': False, 'trialN': 103, 'loaded': True, 'loadedTime': 3703.5, 'positionName': 'LEFT', 'positionCoords': [244.68, 178.5], 'bid': 8.950000000000001}, {'imgObject': {}, 'id': 'baked potato', 'src': '/static/foodstim60/baked potato.jpg', 'key': 'i', 'origWidth': 409, 'origHeight': 410, 'width': 409, 'height': 410, 'widthPercent': 0.45, 'rescaleHeight': False, 'trialN': 103, 'loaded': True, 'loadedTime': 3026.2000000029802, 'positionName': 'RIGHT', 'positionCoords': [710.32, 179], 'bid': 8.92}]",153692.29999999702,1669832591752,raisin bran w milk,baked potato,8.950000000000001,8.92,-0.030000000000001137,baked potato,862.0,863,862.5999999940395,True,i,155059.09999999404,1366.7999999970198,1669832593119,1367,HRV,HRV_0182,2022-11-30 18:25:02
104,"[{'imgObject': {}, 'id': 'blueberries', 'src': '/static/foodstim60/blueberries.jpg', 'key': 'u', 'origWidth': 411, 'origHeight': 411, 'width': 411, 'height': 411, 'widthPercent': 0.45, 'rescaleHeight': False, 'trialN': 104, 'loaded': True, 'loadedTime': 3289.5, 'positionName': 'LEFT', 'positionCoords': [244.68, 178.5], 'bid': 4.95}, {'imgObject': {}, 'id': 'pear', 'src': '/static/foodstim60/pear.jpg', 'key': 'i', 'origWidth': 411, 'origHeight': 410, 'width': 411, 'height': 410, 'widthPercent': 0.45, 'rescaleHeight': False, 'trialN': 104, 'loaded': True, 'loadedTime': 3626.8999999910593, 'positionName': 'RIGHT', 'positionCoords': [710.32, 179], 'bid': 4.95}]",155059.70000000298,1669832593120,blueberries,pear,4.95,4.95,0.0,blueberries,1392.5999999940395,1394,1394.5999999940395,True,u,156967.20000000298,1907.5,1669832595027,1907,HRV,HRV_0182,2022-11-30 18:25:02
105,"[{'imgObject': {}, 'id': 'blueberries', 'src': '/static/foodstim60/blueberries.jpg', 'key': 'u', 'origWidth': 411, 'origHeight': 411, 'width': 411, 'height': 411, 'widthPercent': 0.45, 'rescaleHeight': False, 'trialN': 105, 'loaded': True, 'loadedTime': 3287.7000000029802, 'positionName': 'LEFT', 'positionCoords': [244.68, 178.5], 'bid': 4.95}, {'imgObject': {}, 'id': 'chicken nuggets2', 'src': '/static/foodstim60/chicken nuggets2.jpg', 'key': 'i', 'origWidth': 410, 'origHeight': 409, 'width': 410, 'height': 409, 'widthPercent': 0.45, 'rescaleHeight': False, 'trialN': 105, 'loaded': True, 'loadedTime': 3001, 'positionName': 'RIGHT', 'positionCoords': [710.32, 179.5], 'bid': 9.14}]",156967.39999999106,1669832595027,blueberries,chicken nuggets2,4.95,9.14,4.19,chicken nuggets2,541.9000000059605,543,542.4000000059605,True,i,158017.29999999702,1049.9000000059605,1669832596077,1050,HRV,HRV_0182,2022-11-30 18:25:02
106,"[{'imgObject': {}, 'id': 'luckycharms', 'src': '/static/foodstim60/luckycharms.jpg', 'key': 'u', 'origWidth': 410, 'origHeight': 409, 'width': 410, 'height': 409, 'widthPercent': 0.45, 'rescaleHeight': False, 'trialN': 106, 'loaded': True, 'loadedTime': 3679.0999999940395, 'positionName': 'LEFT', 'positionCoords': [245.68, 179.5], 'bid': 8.86}, {'imgObject': {}, 'id': 'rigatoni', 'src': '/static/foodstim60/rigatoni.jpg', 'key': 'i', 'origWidth': 411, 'origHeight': 411, 'width': 411, 'height': 411, 'widthPercent': 0.45, 'rescaleHeight': False, 'trialN': 106, 'loaded': True, 'loadedTime': 2808.3999999910593, 'positionName': 'RIGHT', 'positionCoords': [710.32, 178.5], 'bid': 8.9}]",158017.39999999106,1669832596077,luckycharms,rigatoni,8.86,8.9,0.040000000000000924,rigatoni,678.4000000059605,679,678.9000000059605,True,i,159205.39999999106,1188.0,1669832597265,1188,HRV,HRV_0182,2022-11-30 18:25:02
107,"[{'imgObject': {}, 'id': 'cocktailshrimp', 'src': '/static/foodstim60/cocktailshrimp.jpg', 'key': 'u', 'origWidth': 410, 'origHeight': 410, 'width': 410, 'height': 410, 'widthPercent': 0.45, 'rescaleHeight': False, 'trialN': 107, 'loaded': True, 'loadedTime': 3630.0999999940395, 'positionName': 'LEFT', 'positionCoords': [245.68, 179], 'bid': 4.95}, {'imgObject': {}, 'id': 'sushi w_condiments', 'src': '/static/foodstim60/sushi w_condiments.jpg', 'key': 'i', 'origWidth': 410, 'origHeight': 410, 'width': 410, 'height': 410, 'widthPercent': 0.45, 'rescaleHeight': False, 'trialN': 107, 'loaded': True, 'loadedTime': 3389, 'positionName': 'RIGHT', 'positionCoords': [710.32, 179], 'bid': 5.1000000000000005}]",159205.79999999702,1669832597266,cocktailshrimp,sushi w_condiments,4.95,5.1000000000000005,0.15000000000000036,sushi w_condiments,997.5,1001,1001.2000000029802,True,i,160724.5,1518.7000000029802,1669832598785,1519,HRV,HRV_0182,2022-11-30 18:25:02
108,"[{'imgObject': {}, 'id': 'baked potato', 'src': '/static/foodstim60/baked potato.jpg', 'key': 'u', 'origWidth': 409, 'origHeight': 410, 'width': 409, 'height': 410, 'widthPercent': 0.45, 'rescaleHeight': False, 'trialN': 108, 'loaded': True, 'loadedTime': 3021.0999999940395, 'positionName': 'LEFT', 'positionCoords': [246.68, 179], 'bid': 8.92}, {'imgObject': {}, 'id': 'rigatoni and sauce', 'src': '/static/foodstim60/rigatoni and sauce.jpg', 'key': 'i', 'origWidth': 410, 'origHeight': 411, 'width': 410, 'height': 411, 'widthPercent': 0.45, 'rescaleHeight': False, 'trialN': 108, 'loaded': True, 'loadedTime': 3601.3999999910593, 'positionName': 'RIGHT', 'positionCoords': [710.32, 178.5], 'bid': 9.04}]",160724.70000000298,1669832598785,baked potato,rigatoni and sauce,8.92,9.04,0.11999999999999922,rigatoni and sauce,773.6999999880791,774,774.2999999970198,True,i,162007.0,1282.2999999970198,1669832600067,1282,HRV,HRV_0182,2022-11-30 18:25:02
