success,trial_type,trial_index,time_elapsed,internal_node_id,Block,TrialNumber,TrialTime,trialTimeDiff,FPS_avg,FPS_med,FPS_mode,TrialDur,winResizeTime,rt,block,button_pressed,MotCoh,MotDir,ColCoh,Color,ChoiceKey,Choice,Accuracy,RT,nFrames,FPS,PPD,missTrial,missTrialMsg,onsetDelay,fullScreenExitTime,canvCenter,TrialType,Score,BlockTrial,stimulus,button_labels,exp,subjectId,date
True,fullscreen,0,3188,0.0-0.0,0.0,1.0,,,,,,,,,,,,,,,,,,,,,,,,,,,,,,,,HRV,HRV_0182,2022-11-30 18:48:58
,wl-check-fps,1,8197,0.0-1.0,0.0,2.0,"[3823.9, 3840.6, 3857.4, 3874, 3890.8, 3907.9, 3924.3, 3941.7, 3960.2, 3975.3, 3991.8, 4012.6, 4024.1, 4040.4, 4057.7, 4073.4, 4091.5, 4108.6, 4124.6, 4141.3, 4158.3, 4174.7, 4191.9, 4209.4, 4224.7, 4242.9, 4258.9, 4274.9, 4292.1, 4308.6, 4324.5, 4340.3, 4357.2, 4374.1, 4390.5, 4407.4, 4424.9, 4441.8, 4457.9, 4474.1, 4492, 4508.7, 4524.1, 4540.6, 4559.2, 4574.8, 4591.5, 4610.7, 4633.6, 4641.1, 4657.6, 4673.8, 4690.5, 4707.6, 4724.6, 4740.9, 4758, 4774.7, 4792.8, 4807.4, 4824.5, 4841.2, 4858.7, 4875.6, 4892.6, 4908.7, 4927.8, 4944.4, 4959, 4975.1, 4992, 5009.5, 5025.2, 5041.3, 5058.4, 5074.9, 5090.7, 5107.4, 5123.8, 5141.3, 5158.6, 5175.1, 5191.9, 5208.8, 5225.3, 5241.8, 5258.6, 5275.3, 5291.9, 5309.4, 5325.2, 5341.8, 5359, 5375.5, 5393.7, 5408.7, 5425.3, 5442.8, 5459, 5475.2, 5492.1, 5507.9, 5524.4, 5541, 5557.7, 5578.4, 5591.9, 5608.6, 5625.6, 5641.7, 5659.5, 5674.7, 5699.1, 5709.2, 5725.1, 5741.8, 5758.3, 5775.7, 5792.2, 5809.2, 5825.6, 5842.3, 5859, 5875.2, 5891.6, 5909, 5926.2, 5941.9, 5959, 5976.8, 5992.3, 6008.8, 6025.6, 6042.4, 6058.9, 6075.8, 6093.3, 6108.1, 6124.7, 6141, 6158, 6174.5, 6192.2, 6209.1, 6225.7, 6242.2, 6259.2, 6275.7, 6292.7, 6309.4, 6325.9, 6341.9, 6359, 6375.8, 6392.4, 6409, 6425.6, 6442.3, 6458.5, 6475.5, 6491.9, 6509.1, 6527.7, 6542.5, 6559.8, 6576.7, 6592.5, 6609.1, 6625.9, 6642.9, 6659.3, 6675.2, 6692.6, 6708.9, 6728.1, 6742.4, 6760.3, 6776.8, 6793.1, 6810.5, 6825.1, 6841.5, 6859.3, 6875.7, 6892.7, 6909.3, 6926.1, 6943, 6959.3, 6977.2, 6993.2, 7009.4, 7026.2, 7042.6, 7059.6, 7076, 7092.8, 7110.6, 7126.7, 7142.9, 7159.7, 7175.5, 7191.7, 7208.7, 7225.3, 7242.6, 7259.5, 7276.3, 7292.9, 7309.3, 7326.3, 7342.9, 7359.3, 7377.3, 7393.3, 7409.5, 7426.1, 7442.6, 7459.6, 7477, 7493.6, 7510.4, 7527.3, 7544.6, 7561.3, 7578.7, 7593.8, 7611.1, 7627.7, 7642.4, 7661.2, 7678.1, 7692.7, 7709.4, 7729.3, 7744.9, 7761.6, 7777, 7792.8, 7809.7, 7825.8, 7844.2, 7860.7, 7877.8, 7894.6, 7909.8, 7928.6, 7944.3, 7961.1, 7978.5, 7993.4, 8009.3, 8025.7, 8043, 8061.4, 8078.6, 8095.1, 8111.2, 8127, 8144.8, 8161.5, 8178, 8194.5, 8210.1, 8228.4, 8244.6, 8259.8, 8278.9, 8295.1, 8312.8, 8329.5, 8345.6, 8360.7, 8378.8, 8394.4, 8411.5, 8427.4, 8447.3, 8460.9, 8478.5, 8495.6, 8513.5, 8527.2, 8544.6, 8560.6, 8577.1, 8593.1, 8609.9, 8626.6, 8642.7, 8659.2, 8676.7, 8694.4, 8709.8, 8728, 8743.2, 8759.6, 8778.2, 8793.1, 8808.6]","[2.7, 16.7, 16.8, 16.6, 16.8, 17.1, 16.4, 17.4, 18.5, 15.1, 16.5, 20.8, 11.5, 16.3, 17.3, 15.7, 18.1, 17.1, 16, 16.7, 17, 16.4, 17.2, 17.5, 15.3, 18.2, 16, 16, 17.2, 16.5, 15.9, 15.8, 16.9, 16.9, 16.4, 16.9, 17.5, 16.9, 16.1, 16.2, 17.9, 16.7, 15.4, 16.5, 18.6, 15.6, 16.7, 19.2, 22.9, 7.5, 16.5, 16.2, 16.7, 17.1, 17, 16.3, 17.1, 16.7, 18.1, 14.6, 17.1, 16.7, 17.5, 16.9, 17, 16.1, 19.1, 16.6, 14.6, 16.1, 16.9, 17.5, 15.7, 16.1, 17.1, 16.5, 15.8, 16.7, 16.4, 17.5, 17.3, 16.5, 16.8, 16.9, 16.5, 16.5, 16.8, 16.7, 16.6, 17.5, 15.8, 16.6, 17.2, 16.5, 18.2, 15, 16.6, 17.5, 16.2, 16.2, 16.9, 15.8, 16.5, 16.6, 16.7, 20.7, 13.5, 16.7, 17, 16.1, 17.8, 15.2, 24.4, 10.1, 15.9, 16.7, 16.5, 17.4, 16.5, 17, 16.4, 16.7, 16.7, 16.2, 16.4, 17.4, 17.2, 15.7, 17.1, 17.8, 15.5, 16.5, 16.8, 16.8, 16.5, 16.9, 17.5, 14.8, 16.6, 16.3, 17, 16.5, 17.7, 16.9, 16.6, 16.5, 17, 16.5, 17, 16.7, 16.5, 16, 17.1, 16.8, 16.6, 16.6, 16.6, 16.7, 16.2, 17, 16.4, 17.2, 18.6, 14.8, 17.3, 16.9, 15.8, 16.6, 16.8, 17, 16.4, 15.9, 17.4, 16.3, 19.2, 14.3, 17.9, 16.5, 16.3, 17.4, 14.6, 16.4, 17.8, 16.4, 17, 16.6, 16.8, 16.9, 16.3, 17.9, 16, 16.2, 16.8, 16.4, 17, 16.4, 16.8, 17.8, 16.1, 16.2, 16.8, 15.8, 16.2, 17, 16.6, 17.3, 16.9, 16.8, 16.6, 16.4, 17, 16.6, 16.4, 18, 16, 16.2, 16.6, 16.5, 17, 17.4, 16.6, 16.8, 16.9, 17.3, 16.7, 17.4, 15.1, 17.3, 16.6, 14.7, 18.8, 16.9, 14.6, 16.7, 19.9, 15.6, 16.7, 15.4, 15.8, 16.9, 16.1, 18.4, 16.5, 17.1, 16.8, 15.2, 18.8, 15.7, 16.8, 17.4, 14.9, 15.9, 16.4, 17.3, 18.4, 17.2, 16.5, 16.1, 15.8, 17.8, 16.7, 16.5, 16.5, 15.6, 18.3, 16.2, 15.2, 19.1, 16.2, 17.7, 16.7, 16.1, 15.1, 18.1, 15.6, 17.1, 15.9, 19.9, 13.6, 17.6, 17.1, 17.9, 13.7, 17.4, 16, 16.5, 16, 16.8, 16.7, 16.1, 16.5, 17.5, 17.7, 15.4, 18.2, 15.2, 16.4, 18.6, 14.9, 15.5]",60.0,60.0,61.0,5004.3,[],,,,,,,,,,,,,,,,,,,,,,,,,HRV,HRV_0182,2022-11-30 18:48:58
,wl-html-keyboard-response,2,20936,0.0-2.0-0.0,0.0,3.0,,,,,,,,10722.300000011921,0.0,0,,,,,,,,,,,,,,,,,,,,,,HRV,HRV_0182,2022-11-30 18:48:58
,wl-rdm,3,27671,0.0-3.0-0.0,0.0,4.0,,,,,,,[],,,,0.0,0.0,87.9,0.0,u,0.0,True,1133.800000011921,68.0,61.0,40.0,False,,3000.0,[],"[683, 384]",ColorTask_Demo,,,,,HRV,HRV_0182,2022-11-30 18:48:58
,wl-rdm,4,32439,0.0-3.0-1.0,0.0,5.0,,,,,,,[],,,,0.0,0.0,87.9,1.0,i,1.0,True,679.8999999910593,41.0,61.0,40.0,False,,2000.0,[],"[683, 384]",ColorTask_Demo,,,,,HRV,HRV_0182,2022-11-30 18:48:58
,wl-html-keyboard-response,5,38067,0.0-3.0-2.0,0.0,6.0,,,,,,,,3624.0,0.0,1,,,,,,,,,,,,,,,,,,,,,,HRV,HRV_0182,2022-11-30 18:48:58
,wl-html-keyboard-response,6,46058,0.0-4.0-0.0,0.0,7.0,,,,,,,,5975.0,0.0,0,,,,,,,,,,,,,,,,,,,,,,HRV,HRV_0182,2022-11-30 18:48:58
,wl-html-keyboard-response,7,54196,0.0-5.0-0.0,0.0,8.0,,,,,,,,6129.0999999940395,0.0,0,,,,,,,,,,,,,,,,,,,,,,HRV,HRV_0182,2022-11-30 18:48:58
,wl-rdm,8,56401,0.0-6.0-0.0,0.0,9.0,,,,,,,[],,,,,,87.9,0.0,u,0.0,True,836.1000000089407,50.0,61.0,40.0,False,,298.418302415051,[],"[683, 384]",ColorTask,1.0,1.0,,,HRV,HRV_0182,2022-11-30 18:48:58
,wl-rdm,9,58651,0.0-6.1-0.1,0.0,10.0,,,,,,,[],,,,,,62.5,1.0,i,1.0,True,968.5,58.0,61.0,40.0,False,,205.45962885683593,[],"[683, 384]",ColorTask,2.0,2.0,,,HRV,HRV_0182,2022-11-30 18:48:58
,wl-rdm,10,60703,0.0-6.2-0.2,0.0,11.0,,,,,,,[],,,,,,73.6,1.0,i,1.0,True,721.0999999940395,44.0,61.0,40.0,False,,260.2892408057446,[],"[683, 384]",ColorTask,3.0,3.0,,,HRV,HRV_0182,2022-11-30 18:48:58
,wl-rdm,11,62688,0.0-6.3-0.3,0.0,12.0,,,,,,,[],,,,,,56.4,1.0,i,1.0,True,570.0000000149012,35.0,61.0,40.0,False,,343.3784990977323,[],"[683, 384]",ColorTask,4.0,4.0,,,HRV,HRV_0182,2022-11-30 18:48:58
,wl-rdm,12,64622,0.0-6.4-0.4,0.0,13.0,,,,,,,[],,,,,,62.5,1.0,i,1.0,True,573.0,34.0,61.0,40.0,False,,286.74452456019856,[],"[683, 384]",ColorTask,5.0,5.0,,,HRV,HRV_0182,2022-11-30 18:48:58
,wl-rdm,13,66557,0.0-6.5-0.5,0.0,14.0,,,,,,,[],,,,,,53.2,0.0,i,1.0,False,615.7999999821186,37.0,61.0,40.0,False,,238.2213760893243,[],"[683, 384]",ColorTask,4.0,6.0,,,HRV,HRV_0182,2022-11-30 18:48:58
,wl-rdm,14,68540,0.0-6.6-0.6,0.0,15.0,,,,,,,[],,,,,,87.9,1.0,i,1.0,True,576.8999999910593,35.0,61.0,40.0,False,,330.05097378144256,[],"[683, 384]",ColorTask,5.0,7.0,,,HRV,HRV_0182,2022-11-30 18:48:58
,wl-rdm,15,70523,0.0-6.7-0.7,0.0,16.0,,,,,,,[],,,,,,50.0,0.0,u,0.0,True,647.2999999970198,39.0,61.0,40.0,False,,250.9148252193679,[],"[683, 384]",ColorTask,6.0,8.0,,,HRV,HRV_0182,2022-11-30 18:48:58
,wl-rdm,16,72408,0.0-6.8-0.8,0.0,17.0,,,,,,,[],,,,,,73.6,0.0,u,0.0,True,613.5000000149012,37.0,61.0,40.0,False,,210.04598947577279,[],"[683, 384]",ColorTask,7.0,9.0,,,HRV,HRV_0182,2022-11-30 18:48:58
,wl-rdm,17,74343,0.0-6.9-0.9,0.0,18.0,,,,,,,[],,,,,,73.6,1.0,i,1.0,True,612.7999999970198,37.0,61.0,40.0,False,,256.59657800296,[],"[683, 384]",ColorTask,8.0,10.0,,,HRV,HRV_0182,2022-11-30 18:48:58
,wl-rdm,18,76260,0.0-6.10-0.10,0.0,19.0,,,,,,,[],,,,,,50.0,0.0,i,1.0,False,556.8999999910593,34.0,61.0,40.0,False,,299.58734103385666,[],"[683, 384]",ColorTask,7.0,11.0,,,HRV,HRV_0182,2022-11-30 18:48:58
,wl-rdm,19,78265,0.0-6.11-0.11,0.0,20.0,,,,,,,[],,,,,,62.5,1.0,i,1.0,True,724.6000000089407,44.0,61.0,40.0,False,,207.9317224766085,[],"[683, 384]",ColorTask,8.0,12.0,,,HRV,HRV_0182,2022-11-30 18:48:58
,wl-rdm,20,80428,0.0-6.12-0.12,0.0,21.0,,,,,,,[],,,,,,62.5,0.0,i,1.0,False,891.5999999940395,54.0,61.0,40.0,False,,205.99238398500142,[],"[683, 384]",ColorTask,7.0,13.0,,,HRV,HRV_0182,2022-11-30 18:48:58
,wl-rdm,21,82462,0.0-6.13-0.13,0.0,22.0,,,,,,,[],,,,,,87.9,0.0,u,0.0,True,553.4000000208616,34.0,61.0,40.0,False,,399.4843653041271,[],"[683, 384]",ColorTask,8.0,14.0,,,HRV,HRV_0182,2022-11-30 18:48:58
,wl-rdm,22,84529,0.0-6.14-0.14,0.0,23.0,,,,,,,[],,,,,,53.2,0.0,i,1.0,False,690.9000000059605,42.0,61.0,40.0,False,,292.70922884363546,[],"[683, 384]",ColorTask,7.0,15.0,,,HRV,HRV_0182,2022-11-30 18:48:58
,wl-rdm,23,86883,0.0-6.15-0.15,0.0,24.0,,,,,,,[],,,,,,62.5,0.0,i,1.0,False,940.7999999970198,57.0,61.0,40.0,False,,337.8039190928136,[],"[683, 384]",ColorTask,6.0,16.0,,,HRV,HRV_0182,2022-11-30 18:48:58
,wl-rdm,24,89032,0.0-6.16-0.16,0.0,25.0,,,,,,,[],,,,,,73.6,0.0,u,0.0,True,855.0,52.0,61.0,40.0,False,,232.72412266974013,[],"[683, 384]",ColorTask,7.0,17.0,,,HRV,HRV_0182,2022-11-30 18:48:58
,wl-rdm,25,91232,0.0-6.17-0.17,0.0,26.0,,,,,,,[],,,,,,53.2,0.0,u,0.0,True,748.4000000059605,45.0,61.0,40.0,False,,370.11525245522427,[],"[683, 384]",ColorTask,8.0,18.0,,,HRV,HRV_0182,2022-11-30 18:48:58
,wl-rdm,26,93150,0.0-6.18-0.18,0.0,27.0,,,,,,,[],,,,,,62.5,1.0,i,1.0,True,516.5,31.0,61.0,40.0,False,,328.37280062163336,[],"[683, 384]",ColorTask,9.0,19.0,,,HRV,HRV_0182,2022-11-30 18:48:58
,wl-rdm,27,95135,0.0-6.19-0.19,0.0,28.0,,,,,,,[],,,,,,73.6,1.0,i,1.0,True,633.5999999940395,38.0,61.0,40.0,False,,275.8702493301972,[],"[683, 384]",ColorTask,10.0,20.0,,,HRV,HRV_0182,2022-11-30 18:48:58
,wl-rdm,28,97069,0.0-6.20-0.20,0.0,29.0,,,,,,,[],,,,,,53.2,0.0,i,1.0,False,608.3999999910593,37.0,61.0,40.0,False,,253.18254407623925,[],"[683, 384]",ColorTask,9.0,21.0,,,HRV,HRV_0182,2022-11-30 18:48:58
,wl-rdm,29,99221,0.0-6.21-0.21,0.0,30.0,,,,,,,[],,,,,,50.0,1.0,u,0.0,False,837.3000000119209,50.0,61.0,40.0,False,,248.55518427815736,[],"[683, 384]",ColorTask,8.0,22.0,,,HRV,HRV_0182,2022-11-30 18:48:58
,wl-rdm,30,101254,0.0-6.22-0.22,0.0,31.0,,,,,,,[],,,,,,62.5,0.0,i,1.0,False,625.8999999910593,38.0,61.0,40.0,False,,302.8653702715987,[],"[683, 384]",ColorTask,7.0,23.0,,,HRV,HRV_0182,2022-11-30 18:48:58
,wl-rdm,31,103188,0.0-6.23-0.23,0.0,32.0,,,,,,,[],,,,,,87.9,1.0,i,1.0,True,554.8000000119209,34.0,61.0,40.0,False,,305.8108348527833,[],"[683, 384]",ColorTask,8.0,24.0,,,HRV,HRV_0182,2022-11-30 18:48:58
,wl-rdm,32,105522,0.0-6.24-0.24,0.0,33.0,,,,,,,[],,,,,,50.0,1.0,u,0.0,False,870.2000000029802,53.0,61.0,40.0,False,,393.8001925362838,[],"[683, 384]",ColorTask,7.0,25.0,,,HRV,HRV_0182,2022-11-30 18:48:58
,wl-rdm,33,107423,0.0-6.25-0.25,0.0,34.0,,,,,,,[],,,,,,56.4,1.0,i,1.0,True,597.6000000089407,36.0,61.0,40.0,False,,232.2734684468967,[],"[683, 384]",ColorTask,8.0,26.0,,,HRV,HRV_0182,2022-11-30 18:48:58
,wl-rdm,34,109408,0.0-6.26-0.26,0.0,35.0,,,,,,,[],,,,,,87.9,1.0,i,1.0,True,627.7999999970198,38.0,61.0,40.0,False,,266.8326280340242,[],"[683, 384]",ColorTask,9.0,27.0,,,HRV,HRV_0182,2022-11-30 18:48:58
,wl-rdm,35,111325,0.0-6.27-0.27,0.0,36.0,,,,,,,[],,,,,,87.9,0.0,u,0.0,True,613.3000000119209,37.0,61.0,40.0,False,,218.93631022933934,[],"[683, 384]",ColorTask,10.0,28.0,,,HRV,HRV_0182,2022-11-30 18:48:58
,wl-rdm,36,113910,0.0-6.28-0.28,0.0,37.0,,,,,,,[],,,,,,53.2,0.0,i,1.0,False,1192.5,72.0,61.0,40.0,False,,313.4694387517359,[],"[683, 384]",ColorTask,9.0,29.0,,,HRV,HRV_0182,2022-11-30 18:48:58
,wl-rdm,37,115827,0.0-6.29-0.29,0.0,38.0,,,,,,,[],,,,,,56.4,0.0,i,1.0,False,514.4999999850988,31.0,61.0,40.0,False,,348.8122739672399,[],"[683, 384]",ColorTask,8.0,30.0,,,HRV,HRV_0182,2022-11-30 18:48:58
,wl-rdm,38,118011,0.0-6.30-0.30,0.0,39.0,,,,,,,[],,,,,,56.4,0.0,u,0.0,True,864.8999999910593,52.0,61.0,40.0,False,,265.06495140285176,[],"[683, 384]",ColorTask,9.0,31.0,,,HRV,HRV_0182,2022-11-30 18:48:58
,wl-rdm,39,119946,0.0-6.31-0.31,0.0,40.0,,,,,,,[],,,,,,62.5,1.0,i,1.0,True,553.0999999940395,33.0,61.0,40.0,False,,308.28007008480654,[],"[683, 384]",ColorTask,10.0,32.0,,,HRV,HRV_0182,2022-11-30 18:48:58
,wl-rdm,40,121930,0.0-6.32-0.32,0.0,41.0,,,,,,,[],,,,,,50.0,0.0,i,1.0,False,695.9000000059605,42.0,61.0,40.0,False,,206.885260539491,[],"[683, 384]",ColorTask,9.0,33.0,,,HRV,HRV_0182,2022-11-30 18:48:58
,wl-rdm,41,123898,0.0-6.33-0.33,0.0,42.0,,,,,,,[],,,,,,53.2,0.0,i,1.0,False,646.2000000029802,39.0,61.0,40.0,False,,223.94855473491268,[],"[683, 384]",ColorTask,8.0,34.0,,,HRV,HRV_0182,2022-11-30 18:48:58
,wl-rdm,42,125698,0.0-6.34-0.34,0.0,43.0,,,,,,,[],,,,,,87.9,0.0,u,0.0,True,522.2000000029802,32.0,61.0,40.0,False,,208.80518005972831,[],"[683, 384]",ColorTask,9.0,35.0,,,HRV,HRV_0182,2022-11-30 18:48:58
,wl-rdm,43,128083,0.0-6.35-0.35,0.0,44.0,,,,,,,[],,,,,,53.2,1.0,u,0.0,False,927.5,56.0,61.0,40.0,False,,383.69020979657455,[],"[683, 384]",ColorTask,8.0,36.0,,,HRV,HRV_0182,2022-11-30 18:48:58
,wl-rdm,44,129933,0.0-6.36-0.36,0.0,45.0,,,,,,,[],,,,,,56.4,1.0,i,1.0,True,508.49999998509884,31.0,61.0,40.0,False,,250.17935877653716,[],"[683, 384]",ColorTask,9.0,37.0,,,HRV,HRV_0182,2022-11-30 18:48:58
,wl-rdm,45,132018,0.0-6.37-0.37,0.0,46.0,,,,,,,[],,,,,,50.0,0.0,i,1.0,False,755.8000000119209,46.0,61.0,40.0,False,,257.2118677236485,[],"[683, 384]",ColorTask,8.0,38.0,,,HRV,HRV_0182,2022-11-30 18:48:58
,wl-rdm,46,133952,0.0-6.38-0.38,0.0,47.0,,,,,,,[],,,,,,50.0,0.0,u,0.0,True,564.7000000029802,34.0,61.0,40.0,False,,285.6241680911245,[],"[683, 384]",ColorTask,9.0,39.0,,,HRV,HRV_0182,2022-11-30 18:48:58
,wl-rdm,47,135736,0.0-6.39-0.39,0.0,48.0,,,,,,,[],,,,,,73.6,0.0,u,0.0,True,502.7999999821186,30.0,61.0,40.0,False,,211.8010552824395,[],"[683, 384]",ColorTask,10.0,40.0,,,HRV,HRV_0182,2022-11-30 18:48:58
,wl-rdm,48,137804,0.0-6.40-0.40,0.0,49.0,,,,,,,[],,,,,,62.5,0.0,u,0.0,True,716.0999999940395,43.0,61.0,40.0,False,,276.6569832343529,[],"[683, 384]",ColorTask,11.0,41.0,,,HRV,HRV_0182,2022-11-30 18:48:58
,wl-rdm,49,140022,0.0-6.41-0.41,0.0,50.0,,,,,,,[],,,,,,50.0,1.0,i,1.0,True,885.5999999940395,53.0,61.0,40.0,False,,260.56664507407766,[],"[683, 384]",ColorTask,12.0,42.0,,,HRV,HRV_0182,2022-11-30 18:48:58
,wl-rdm,50,142040,0.0-6.42-0.42,0.0,51.0,,,,,,,[],,,,,,56.4,0.0,i,1.0,False,664.7000000178814,40.0,61.0,40.0,False,,271.6024441136573,[],"[683, 384]",ColorTask,11.0,43.0,,,HRV,HRV_0182,2022-11-30 18:48:58
,wl-rdm,51,144074,0.0-6.43-0.43,0.0,52.0,,,,,,,[],,,,,,87.9,1.0,i,1.0,True,703.5,43.0,61.0,40.0,False,,265.87062642014985,[],"[683, 384]",ColorTask,12.0,44.0,,,HRV,HRV_0182,2022-11-30 18:48:58
,wl-rdm,52,145941,0.0-6.44-0.44,0.0,53.0,,,,,,,[],,,,,,73.6,0.0,u,0.0,True,530.6000000089407,32.0,61.0,40.0,False,,259.4010605629385,[],"[683, 384]",ColorTask,13.0,45.0,,,HRV,HRV_0182,2022-11-30 18:48:58
,wl-rdm,53,147808,0.0-6.45-0.45,0.0,54.0,,,,,,,[],,,,,,56.4,1.0,i,1.0,True,530.2999999970198,32.0,61.0,40.0,False,,270.89853847925554,[],"[683, 384]",ColorTask,14.0,46.0,,,HRV,HRV_0182,2022-11-30 18:48:58
,wl-rdm,54,149827,0.0-6.46-0.46,0.0,55.0,,,,,,,[],,,,,,50.0,0.0,u,0.0,True,652.6000000089407,39.0,61.0,40.0,False,,292.25086296913014,[],"[683, 384]",ColorTask,15.0,47.0,,,HRV,HRV_0182,2022-11-30 18:48:58
,wl-rdm,55,151661,0.0-6.47-0.47,0.0,56.0,,,,,,,[],,,,,,87.9,1.0,i,1.0,True,530.5999999940395,32.0,61.0,40.0,False,,247.11497155520735,[],"[683, 384]",ColorTask,16.0,48.0,,,HRV,HRV_0182,2022-11-30 18:48:58
,wl-rdm,56,153561,0.0-6.48-0.48,0.0,57.0,,,,,,,[],,,,,,87.9,0.0,u,0.0,True,504.3999999910593,31.0,61.0,40.0,False,,316.4447244859304,[],"[683, 384]",ColorTask,17.0,49.0,,,HRV,HRV_0182,2022-11-30 18:48:58
,wl-rdm,57,155523,0.0-6.49-0.49,0.0,58.0,,,,,,,[],,,,,,53.2,1.0,i,1.0,True,587.9000000059605,36.0,61.0,40.0,False,,288.30036049675897,[],"[683, 384]",ColorTask,18.0,50.0,,,HRV,HRV_0182,2022-11-30 18:48:58
,wl-rdm,58,157513,0.0-6.50-0.50,0.0,59.0,,,,,,,[],,,,,,62.5,1.0,i,1.0,True,722.5000000149012,44.0,61.0,40.0,False,,212.27263084286767,[],"[683, 384]",ColorTask,19.0,51.0,,,HRV,HRV_0182,2022-11-30 18:48:58
,wl-rdm,59,159614,0.0-6.51-0.51,0.0,60.0,,,,,,,[],,,,,,87.9,0.0,u,0.0,True,735.7999999821186,45.0,61.0,40.0,False,,291.5274803549604,[],"[683, 384]",ColorTask,20.0,52.0,,,HRV,HRV_0182,2022-11-30 18:48:58
,wl-rdm,60,161649,0.0-6.52-0.52,0.0,61.0,,,,,,,[],,,,,,56.4,0.0,i,1.0,False,689.7000000029802,42.0,61.0,40.0,False,,253.5003442100393,[],"[683, 384]",ColorTask,19.0,53.0,,,HRV,HRV_0182,2022-11-30 18:48:58
,wl-rdm,61,163715,0.0-6.53-0.53,0.0,62.0,,,,,,,[],,,,,,56.4,1.0,i,1.0,True,681.4000000208616,41.0,61.0,40.0,False,,303.49403838578064,[],"[683, 384]",ColorTask,20.0,54.0,,,HRV,HRV_0182,2022-11-30 18:48:58
,wl-rdm,62,165733,0.0-6.54-0.54,0.0,63.0,,,,,,,[],,,,,,56.4,0.0,u,0.0,True,608.7000000029802,37.0,61.0,40.0,False,,348.1746271011214,[],"[683, 384]",ColorTask,21.0,55.0,,,HRV,HRV_0182,2022-11-30 18:48:58
,wl-rdm,63,167701,0.0-6.55-0.55,0.0,64.0,,,,,,,[],,,,,,53.2,1.0,i,1.0,True,612.0999999940395,37.0,61.0,40.0,False,,282.9417749815257,[],"[683, 384]",ColorTask,22.0,56.0,,,HRV,HRV_0182,2022-11-30 18:48:58
,wl-rdm,64,169651,0.0-6.56-0.56,0.0,65.0,,,,,,,[],,,,,,73.6,0.0,u,0.0,True,568.5,34.0,61.0,40.0,False,,306.04610971310626,[],"[683, 384]",ColorTask,23.0,57.0,,,HRV,HRV_0182,2022-11-30 18:48:58
,wl-rdm,65,171737,0.0-6.57-0.57,0.0,66.0,,,,,,,[],,,,,,50.0,0.0,u,0.0,True,699.3000000119209,42.0,61.0,40.0,False,,305.59635625088475,[],"[683, 384]",ColorTask,24.0,58.0,,,HRV,HRV_0182,2022-11-30 18:48:58
,wl-rdm,66,173636,0.0-6.58-0.58,0.0,67.0,,,,,,,[],,,,,,53.2,1.0,u,0.0,False,620.5,37.0,61.0,40.0,False,,204.01304213187288,[],"[683, 384]",ColorTask,23.0,59.0,,,HRV,HRV_0182,2022-11-30 18:48:58
,wl-rdm,67,175421,0.0-6.59-0.59,0.0,68.0,,,,,,,[],,,,,,56.4,1.0,i,1.0,True,454.50000001490116,28.0,61.0,40.0,False,,259.15410050111774,[],"[683, 384]",ColorTask,24.0,60.0,,,HRV,HRV_0182,2022-11-30 18:48:58
,wl-rdm,68,177288,0.0-6.60-0.60,0.0,69.0,,,,,,,[],,,,,,53.2,1.0,i,1.0,True,523.4000000059605,32.0,61.0,40.0,False,,262.6057652543303,[],"[683, 384]",ColorTask,25.0,61.0,,,HRV,HRV_0182,2022-11-30 18:48:58
,wl-rdm,69,179222,0.0-6.61-0.61,0.0,70.0,,,,,,,[],,,,,,73.6,0.0,u,0.0,True,498.19999998807907,30.0,61.0,40.0,False,,353.65925461156735,[],"[683, 384]",ColorTask,26.0,62.0,,,HRV,HRV_0182,2022-11-30 18:48:58
,wl-rdm,70,181223,0.0-6.62-0.62,0.0,71.0,,,,,,,[],,,,,,73.6,0.0,u,0.0,True,658.2999999970198,40.0,61.0,40.0,False,,269.39868125634115,[],"[683, 384]",ColorTask,27.0,63.0,,,HRV,HRV_0182,2022-11-30 18:48:58
,wl-rdm,71,183114,0.0-6.63-0.63,0.0,72.0,,,,,,,[],,,,,,73.6,1.0,i,1.0,True,530.3999999910593,32.0,61.0,40.0,False,,258.77747330016894,[],"[683, 384]",ColorTask,28.0,64.0,,,HRV,HRV_0182,2022-11-30 18:48:58
,wl-rdm,72,184992,0.0-6.64-0.64,0.0,73.0,,,,,,,[],,,,,,73.6,1.0,i,1.0,True,508.99999998509884,31.0,61.0,40.0,False,,291.75685386535673,[],"[683, 384]",ColorTask,29.0,65.0,,,HRV,HRV_0182,2022-11-30 18:48:58
,wl-rdm,73,187160,0.0-6.65-0.65,0.0,74.0,,,,,,,[],,,,,,56.4,0.0,i,1.0,False,857.0999999940395,52.0,61.0,40.0,False,,249.76214177633491,[],"[683, 384]",ColorTask,28.0,66.0,,,HRV,HRV_0182,2022-11-30 18:48:58
,wl-rdm,74,188878,0.0-6.66-0.66,0.0,75.0,,,,,,,[],,,,,,62.5,0.0,u,0.0,True,396.00000001490116,24.0,61.0,40.0,False,,228.8870970785258,[],"[683, 384]",ColorTask,29.0,67.0,,,HRV,HRV_0182,2022-11-30 18:48:58
,wl-rdm,75,190827,0.0-6.67-0.67,0.0,76.0,,,,,,,[],,,,,,87.9,1.0,i,1.0,True,546.9000000059605,33.0,61.0,40.0,False,,316.025760570776,[],"[683, 384]",ColorTask,30.0,68.0,,,HRV,HRV_0182,2022-11-30 18:48:58
,wl-rdm,76,192696,0.0-6.68-0.68,0.0,77.0,,,,,,,[],,,,,,53.2,1.0,i,1.0,True,512.1000000089407,31.0,61.0,40.0,False,,298.8436515118734,[],"[683, 384]",ColorTask,31.0,69.0,,,HRV,HRV_0182,2022-11-30 18:48:58
,wl-rdm,77,194595,0.0-6.69-0.69,0.0,78.0,,,,,,,[],,,,,,73.6,1.0,i,1.0,True,505.30000001192093,30.0,61.0,40.0,False,,304.1011300160038,[],"[683, 384]",ColorTask,32.0,70.0,,,HRV,HRV_0182,2022-11-30 18:48:58
,wl-rdm,78,196697,0.0-6.70-0.70,0.0,79.0,,,,,,,[],,,,,,53.2,1.0,i,1.0,True,718.7999999970198,43.0,61.0,40.0,False,,314.39562338923713,[],"[683, 384]",ColorTask,33.0,71.0,,,HRV,HRV_0182,2022-11-30 18:48:58
,wl-rdm,79,198631,0.0-6.71-0.71,0.0,80.0,,,,,,,[],,,,,,73.6,1.0,i,1.0,True,477.79999999701977,29.0,61.0,40.0,False,,369.92075432305097,[],"[683, 384]",ColorTask,34.0,72.0,,,HRV,HRV_0182,2022-11-30 18:48:58
,wl-rdm,80,200448,0.0-6.72-0.72,0.0,81.0,,,,,,,[],,,,,,62.5,1.0,i,1.0,True,392.80000001192093,24.0,61.0,40.0,False,,344.4318557601789,[],"[683, 384]",ColorTask,35.0,73.0,,,HRV,HRV_0182,2022-11-30 18:48:58
,wl-rdm,81,202833,0.0-6.73-0.73,0.0,82.0,,,,,,,[],,,,,,50.0,1.0,u,0.0,False,1025.3999999910593,62.0,61.0,40.0,False,,297.7590217268953,[],"[683, 384]",ColorTask,34.0,74.0,,,HRV,HRV_0182,2022-11-30 18:48:58
,wl-rdm,82,204701,0.0-6.74-0.74,0.0,83.0,,,,,,,[],,,,,,56.4,0.0,i,1.0,False,517.1000000089407,31.0,61.0,40.0,False,,287.3042545167524,[],"[683, 384]",ColorTask,33.0,75.0,,,HRV,HRV_0182,2022-11-30 18:48:58
,wl-rdm,83,206687,0.0-6.75-0.75,0.0,84.0,,,,,,,[],,,,,,56.4,1.0,i,1.0,True,676.7000000029802,41.0,61.0,40.0,False,,229.49284579546762,[],"[683, 384]",ColorTask,34.0,76.0,,,HRV,HRV_0182,2022-11-30 18:48:58
,wl-rdm,84,208519,0.0-6.76-0.76,0.0,85.0,,,,,,,[],,,,,,50.0,0.0,i,1.0,False,495.80000001192093,30.0,61.0,40.0,False,,258.1829130115941,[],"[683, 384]",ColorTask,33.0,77.0,,,HRV,HRV_0182,2022-11-30 18:48:58
,wl-rdm,85,210453,0.0-6.77-0.77,0.0,86.0,,,,,,,[],,,,,,53.2,0.0,i,1.0,False,555.8000000119209,33.0,61.0,40.0,False,,305.29119388468035,[],"[683, 384]",ColorTask,32.0,78.0,,,HRV,HRV_0182,2022-11-30 18:48:58
,wl-rdm,86,212658,0.0-6.78-0.78,0.0,87.0,,,,,,,[],,,,,,73.6,0.0,u,0.0,True,815.5999999940395,49.0,61.0,40.0,False,,276.40639440469,[],"[683, 384]",ColorTask,33.0,79.0,,,HRV,HRV_0182,2022-11-30 18:48:58
,wl-rdm,87,214455,0.0-6.79-0.79,0.0,88.0,,,,,,,[],,,,,,87.9,0.0,u,0.0,True,460.1000000089407,28.0,61.0,40.0,False,,266.4113824613436,[],"[683, 384]",ColorTask,34.0,80.0,,,HRV,HRV_0182,2022-11-30 18:48:58
,wl-rdm,88,216406,0.0-6.80-0.80,0.0,89.0,,,,,,,[],,,,,,56.4,1.0,i,1.0,True,553.5,34.0,61.0,40.0,False,,308.81786859114493,[],"[683, 384]",ColorTask,35.0,81.0,,,HRV,HRV_0182,2022-11-30 18:48:58
,wl-rdm,89,218307,0.0-6.81-0.81,0.0,90.0,,,,,,,[],,,,,,87.9,1.0,i,1.0,True,477.29999999701977,29.0,61.0,40.0,False,,349.1776970641384,[],"[683, 384]",ColorTask,36.0,82.0,,,HRV,HRV_0182,2022-11-30 18:48:58
,wl-rdm,90,220107,0.0-6.82-0.82,0.0,91.0,,,,,,,[],,,,,,73.6,1.0,i,1.0,True,441.09999999403954,27.0,61.0,40.0,False,,278.3180836250991,[],"[683, 384]",ColorTask,37.0,83.0,,,HRV,HRV_0182,2022-11-30 18:48:58
,wl-rdm,91,221976,0.0-6.83-0.83,0.0,92.0,,,,,,,[],,,,,,50.0,1.0,i,1.0,True,558.5,34.0,61.0,40.0,False,,247.78026183617658,[],"[683, 384]",ColorTask,38.0,84.0,,,HRV,HRV_0182,2022-11-30 18:48:58
,wl-rdm,92,223810,0.0-6.84-0.84,0.0,93.0,,,,,,,[],,,,,,87.9,0.0,u,0.0,True,504.90000000596046,31.0,61.0,40.0,False,,252.55784702655512,[],"[683, 384]",ColorTask,39.0,85.0,,,HRV,HRV_0182,2022-11-30 18:48:58
,wl-rdm,93,225794,0.0-6.85-0.85,0.0,94.0,,,,,,,[],,,,,,53.2,1.0,i,1.0,True,620.1999999880791,37.0,61.0,40.0,False,,287.15923605211566,[],"[683, 384]",ColorTask,40.0,86.0,,,HRV,HRV_0182,2022-11-30 18:48:58
,wl-rdm,94,227628,0.0-6.86-0.86,0.0,95.0,,,,,,,[],,,,,,56.4,1.0,i,1.0,True,526.3000000119209,32.0,61.0,40.0,False,,222.648294135405,[],"[683, 384]",ColorTask,41.0,87.0,,,HRV,HRV_0182,2022-11-30 18:48:58
,wl-rdm,95,229629,0.0-6.87-0.87,0.0,96.0,,,,,,,[],,,,,,87.9,0.0,u,0.0,True,657.0,40.0,61.0,40.0,False,,260.81027537509647,[],"[683, 384]",ColorTask,42.0,88.0,,,HRV,HRV_0182,2022-11-30 18:48:58
,wl-rdm,96,231713,0.0-6.88-0.88,0.0,97.0,,,,,,,[],,,,,,73.6,1.0,i,1.0,True,692.7999999970198,42.0,61.0,40.0,False,,286.992713664201,[],"[683, 384]",ColorTask,43.0,89.0,,,HRV,HRV_0182,2022-11-30 18:48:58
,wl-rdm,97,233597,0.0-6.89-0.89,0.0,98.0,,,,,,,[],,,,,,62.5,1.0,u,0.0,False,472.90000000596046,29.0,61.0,40.0,False,,339.30129050200105,[],"[683, 384]",ColorTask,42.0,90.0,,,HRV,HRV_0182,2022-11-30 18:48:58
,wl-rdm,98,235615,0.0-6.90-0.90,0.0,99.0,,,,,,,[],,,,,,53.2,1.0,i,1.0,True,613.8000000119209,37.0,61.0,40.0,False,,325.08619174231194,[],"[683, 384]",ColorTask,43.0,91.0,,,HRV,HRV_0182,2022-11-30 18:48:58
,wl-rdm,99,237732,0.0-6.91-0.91,0.0,100.0,,,,,,,[],,,,,,62.5,0.0,u,0.0,True,659.2000000029802,40.0,61.0,40.0,False,,394.44202965034447,[],"[683, 384]",ColorTask,44.0,92.0,,,HRV,HRV_0182,2022-11-30 18:48:58
,wl-rdm,100,239600,0.0-6.92-0.92,0.0,101.0,,,,,,,[],,,,,,62.5,0.0,i,1.0,False,564.7999999970198,34.0,61.0,40.0,False,,230.54927512289098,[],"[683, 384]",ColorTask,43.0,93.0,,,HRV,HRV_0182,2022-11-30 18:48:58
,wl-rdm,101,241555,0.0-6.93-0.93,0.0,102.0,,,,,,,[],,,,,,50.0,1.0,i,1.0,True,498.09999999403954,30.0,61.0,40.0,False,,399.65367459127384,[],"[683, 384]",ColorTask,44.0,94.0,,,HRV,HRV_0182,2022-11-30 18:48:58
,wl-rdm,102,243368,0.0-6.94-0.94,0.0,103.0,,,,,,,[],,,,,,62.5,0.0,u,0.0,True,478.19999998807907,29.0,61.0,40.0,False,,262.1728588710426,[],"[683, 384]",ColorTask,45.0,95.0,,,HRV,HRV_0182,2022-11-30 18:48:58
,wl-rdm,103,245269,0.0-6.95-0.95,0.0,104.0,,,,,,,[],,,,,,87.9,1.0,i,1.0,True,513.9999999850988,31.0,61.0,40.0,False,,316.4036519012565,[],"[683, 384]",ColorTask,46.0,96.0,,,HRV,HRV_0182,2022-11-30 18:48:58
,wl-rdm,104,247170,0.0-6.96-0.96,0.0,105.0,,,,,,,[],,,,,,56.4,0.0,u,0.0,True,622.9000000059605,38.0,61.0,40.0,False,,210.0053800761851,[],"[683, 384]",ColorTask,47.0,97.0,,,HRV,HRV_0182,2022-11-30 18:48:58
,wl-rdm,105,249038,0.0-6.97-0.97,0.0,106.0,,,,,,,[],,,,,,53.2,0.0,u,0.0,True,556.9000000059605,34.0,61.0,40.0,False,,243.77546466924946,[],"[683, 384]",ColorTask,48.0,98.0,,,HRV,HRV_0182,2022-11-30 18:48:58
,wl-rdm,106,251055,0.0-6.98-0.98,0.0,107.0,,,,,,,[],,,,,,62.5,0.0,u,0.0,True,676.6000000089407,41.0,61.0,40.0,False,,266.64412565108717,[],"[683, 384]",ColorTask,49.0,99.0,,,HRV,HRV_0182,2022-11-30 18:48:58
,wl-rdm,107,252939,0.0-6.99-0.99,0.0,108.0,,,,,,,[],,,,,,56.4,0.0,i,1.0,False,541.0999999940395,33.0,61.0,40.0,False,,280.281663252164,[],"[683, 384]",ColorTask,48.0,100.0,,,HRV,HRV_0182,2022-11-30 18:48:58
,wl-rdm,108,254807,0.0-6.100-0.100,0.0,109.0,,,,,,,[],,,,,,50.0,1.0,i,1.0,True,586.5,35.0,61.0,40.0,False,,208.5451364812319,[],"[683, 384]",ColorTask,49.0,101.0,,,HRV,HRV_0182,2022-11-30 18:48:58
,wl-rdm,109,256675,0.0-6.101-0.101,0.0,110.0,,,,,,,[],,,,,,87.9,1.0,i,1.0,True,546.2999999970198,33.0,61.0,40.0,False,,259.3627148344932,[],"[683, 384]",ColorTask,50.0,102.0,,,HRV,HRV_0182,2022-11-30 18:48:58
,wl-rdm,110,258677,0.0-6.102-0.102,0.0,111.0,,,,,,,[],,,,,,50.0,1.0,i,1.0,True,620.4000000059605,38.0,61.0,40.0,False,,309.75603741306946,[],"[683, 384]",ColorTask,51.0,103.0,,,HRV,HRV_0182,2022-11-30 18:48:58
,wl-rdm,111,260543,0.0-6.103-0.103,0.0,112.0,,,,,,,[],,,,,,53.2,0.0,u,0.0,True,563.0,34.0,61.0,40.0,False,,220.63425414277688,[],"[683, 384]",ColorTask,52.0,104.0,,,HRV,HRV_0182,2022-11-30 18:48:58
,wl-rdm,112,262427,0.0-6.104-0.104,0.0,113.0,,,,,,,[],,,,,,50.0,0.0,i,1.0,False,580.5,35.0,61.0,40.0,False,,216.92828744282667,[],"[683, 384]",ColorTask,51.0,105.0,,,HRV,HRV_0182,2022-11-30 18:48:58
,wl-rdm,113,264294,0.0-6.105-0.105,0.0,114.0,,,,,,,[],,,,,,62.5,1.0,i,1.0,True,546.9000000059605,33.0,61.0,40.0,False,,253.835068852301,[],"[683, 384]",ColorTask,52.0,106.0,,,HRV,HRV_0182,2022-11-30 18:48:58
,wl-rdm,114,266578,0.0-6.106-0.106,0.0,115.0,,,,,,,[],,,,,,50.0,1.0,i,1.0,True,997.2999999970198,60.0,61.0,40.0,False,,207.84122088956852,[],"[683, 384]",ColorTask,53.0,107.0,,,HRV,HRV_0182,2022-11-30 18:48:58
,wl-rdm,115,268430,0.0-6.107-0.107,0.0,116.0,,,,,,,[],,,,,,73.6,0.0,u,0.0,True,514.5000000149012,31.0,61.0,40.0,False,,275.1545051977349,[],"[683, 384]",ColorTask,54.0,108.0,,,HRV,HRV_0182,2022-11-30 18:48:58
,wl-html-keyboard-response,116,361852,0.0-7.0-0.0,1.0,117.0,,,,,,,,91410.30000001192,1.0,0,,,,,,,,,,,,,,,,,,,,,,HRV,HRV_0182,2022-11-30 18:48:58
,wl-rdm,117,363857,0.0-8.0-0.0,1.0,118.0,,,,,,,[],,,,,,87.9,0.0,i,1.0,False,634.4000000059605,38.0,61.0,40.0,False,,288.82016267734934,[],"[683, 384]",ColorTask,53.0,1.0,,,HRV,HRV_0182,2022-11-30 18:48:58
,wl-rdm,118,365808,0.0-8.1-0.1,1.0,119.0,,,,,,,[],,,,,,53.2,1.0,i,1.0,True,656.4000000208616,40.0,61.0,40.0,False,,205.40797693465296,[],"[683, 384]",ColorTask,54.0,2.0,,,HRV,HRV_0182,2022-11-30 18:48:58
,wl-rdm,119,367610,0.0-8.2-0.2,1.0,120.0,,,,,,,[],,,,,,87.9,0.0,u,0.0,True,502.5,31.0,61.0,40.0,False,,230.4078052367702,[],"[683, 384]",ColorTask,55.0,3.0,,,HRV,HRV_0182,2022-11-30 18:48:58
,wl-rdm,120,369626,0.0-8.3-0.3,1.0,121.0,,,,,,,[],,,,,,56.4,0.0,i,1.0,False,638.8999999910593,39.0,61.0,40.0,False,,301.5173684722904,[],"[683, 384]",ColorTask,54.0,4.0,,,HRV,HRV_0182,2022-11-30 18:48:58
,wl-rdm,121,371492,0.0-8.4-0.4,1.0,122.0,,,,,,,[],,,,,,62.5,0.0,u,0.0,True,521.7999999970198,31.0,61.0,40.0,False,,281.2720207495713,[],"[683, 384]",ColorTask,55.0,5.0,,,HRV,HRV_0182,2022-11-30 18:48:58
,wl-rdm,122,373411,0.0-8.5-0.5,1.0,123.0,,,,,,,[],,,,,,56.4,0.0,u,0.0,True,540.6000000089407,33.0,61.0,40.0,False,,313.48262244673134,[],"[683, 384]",ColorTask,56.0,6.0,,,HRV,HRV_0182,2022-11-30 18:48:58
,wl-rdm,123,375398,0.0-8.6-0.6,1.0,124.0,,,,,,,[],,,,,,53.2,1.0,i,1.0,True,652.2999999970198,39.0,61.0,40.0,False,,266.87750713238006,[],"[683, 384]",ColorTask,57.0,7.0,,,HRV,HRV_0182,2022-11-30 18:48:58
,wl-rdm,124,377194,0.0-8.7-0.7,1.0,125.0,,,,,,,[],,,,,,73.6,1.0,i,1.0,True,455.80000001192093,28.0,61.0,40.0,False,,255.94999529017178,[],"[683, 384]",ColorTask,58.0,8.0,,,HRV,HRV_0182,2022-11-30 18:48:58
,wl-rdm,125,379014,0.0-8.8-0.8,1.0,126.0,,,,,,,[],,,,,,50.0,0.0,u,0.0,True,534.7999999970198,32.0,61.0,40.0,False,,208.98228961455348,[],"[683, 384]",ColorTask,59.0,9.0,,,HRV,HRV_0182,2022-11-30 18:48:58
,wl-rdm,126,380931,0.0-8.9-0.9,1.0,127.0,,,,,,,[],,,,,,87.9,0.0,u,0.0,True,494.90000000596046,30.0,61.0,40.0,False,,340.1497740018325,[],"[683, 384]",ColorTask,60.0,10.0,,,HRV,HRV_0182,2022-11-30 18:48:58
,wl-rdm,127,382947,0.0-8.10-0.10,1.0,128.0,,,,,,,[],,,,,,73.6,0.0,u,0.0,True,736.6999999880791,45.0,61.0,40.0,False,,207.96985689933024,[],"[683, 384]",ColorTask,61.0,11.0,,,HRV,HRV_0182,2022-11-30 18:48:58
,wl-rdm,128,384664,0.0-8.11-0.11,1.0,129.0,,,,,,,[],,,,,,62.5,1.0,i,1.0,True,379.09999999403954,23.0,61.0,40.0,False,,282.3548186927335,[],"[683, 384]",ColorTask,62.0,12.0,,,HRV,HRV_0182,2022-11-30 18:48:58
,wl-rdm,129,386500,0.0-8.12-0.12,1.0,130.0,,,,,,,[],,,,,,56.4,1.0,i,1.0,True,490.79999999701977,30.0,61.0,40.0,False,,281.81899667524516,[],"[683, 384]",ColorTask,63.0,13.0,,,HRV,HRV_0182,2022-11-30 18:48:58
,wl-rdm,130,388183,0.0-8.13-0.13,1.0,131.0,,,,,,,[],,,,,,87.9,1.0,i,1.0,True,403.6000000089407,24.0,61.0,40.0,False,,210.5718820499819,[],"[683, 384]",ColorTask,64.0,14.0,,,HRV,HRV_0182,2022-11-30 18:48:58
,wl-rdm,131,390067,0.0-8.14-0.14,1.0,132.0,,,,,,,[],,,,,,62.5,1.0,i,1.0,True,430.8999999910593,26.0,61.0,40.0,False,,392.7664116227081,[],"[683, 384]",ColorTask,65.0,15.0,,,HRV,HRV_0182,2022-11-30 18:48:58
,wl-rdm,132,391769,0.0-8.15-0.15,1.0,133.0,,,,,,,[],,,,,,87.9,1.0,i,1.0,True,426.0,26.0,61.0,40.0,False,,207.56435483652572,[],"[683, 384]",ColorTask,66.0,16.0,,,HRV,HRV_0182,2022-11-30 18:48:58
,wl-rdm,133,393602,0.0-8.16-0.16,1.0,134.0,,,,,,,[],,,,,,73.6,1.0,i,1.0,True,384.0,23.0,61.0,40.0,False,,379.15725464109335,[],"[683, 384]",ColorTask,67.0,17.0,,,HRV,HRV_0182,2022-11-30 18:48:58
,wl-rdm,134,395503,0.0-8.17-0.17,1.0,135.0,,,,,,,[],,,,,,62.5,1.0,i,1.0,True,477.90000000596046,29.0,61.0,40.0,False,,365.5103335850224,[],"[683, 384]",ColorTask,68.0,18.0,,,HRV,HRV_0182,2022-11-30 18:48:58
,wl-rdm,135,397271,0.0-8.18-0.18,1.0,136.0,,,,,,,[],,,,,,50.0,0.0,i,1.0,False,477.00000001490116,29.0,61.0,40.0,False,,219.32296632699303,[],"[683, 384]",ColorTask,67.0,19.0,,,HRV,HRV_0182,2022-11-30 18:48:58
,wl-rdm,136,399155,0.0-8.19-0.19,1.0,137.0,,,,,,,[],,,,,,53.2,1.0,u,0.0,False,433.69999998807907,26.0,61.0,40.0,False,,389.6422935522279,[],"[683, 384]",ColorTask,66.0,20.0,,,HRV,HRV_0182,2022-11-30 18:48:58
,wl-rdm,137,400958,0.0-8.20-0.20,1.0,138.0,,,,,,,[],,,,,,62.5,1.0,i,1.0,True,504.90000000596046,31.0,61.0,40.0,False,,214.94298866380078,[],"[683, 384]",ColorTask,67.0,21.0,,,HRV,HRV_0182,2022-11-30 18:48:58
,wl-rdm,138,402806,0.0-8.21-0.21,1.0,139.0,,,,,,,[],,,,,,73.6,1.0,i,1.0,True,389.20000000298023,24.0,61.0,40.0,False,,380.9754233934677,[],"[683, 384]",ColorTask,68.0,22.0,,,HRV,HRV_0182,2022-11-30 18:48:58
,wl-rdm,139,404640,0.0-8.22-0.22,1.0,140.0,,,,,,,[],,,,,,87.9,0.0,u,0.0,True,482.3999999910593,29.0,61.0,40.0,False,,272.4326324319345,[],"[683, 384]",ColorTask,69.0,23.0,,,HRV,HRV_0182,2022-11-30 18:48:58
,wl-rdm,140,406442,0.0-8.23-0.23,1.0,141.0,,,,,,,[],,,,,,62.5,1.0,i,1.0,True,437.4000000208616,27.0,61.0,40.0,False,,298.89093394640014,[],"[683, 384]",ColorTask,70.0,24.0,,,HRV,HRV_0182,2022-11-30 18:48:58
,wl-rdm,141,408292,0.0-8.24-0.24,1.0,142.0,,,,,,,[],,,,,,53.2,0.0,i,1.0,False,442.79999999701977,27.0,61.0,40.0,False,,326.16915257480144,[],"[683, 384]",ColorTask,69.0,25.0,,,HRV,HRV_0182,2022-11-30 18:48:58
,wl-rdm,142,410092,0.0-8.25-0.25,1.0,143.0,,,,,,,[],,,,,,87.9,1.0,i,1.0,True,473.8999999910593,29.0,61.0,40.0,False,,234.48374106106402,[],"[683, 384]",ColorTask,70.0,26.0,,,HRV,HRV_0182,2022-11-30 18:48:58
,wl-rdm,143,412078,0.0-8.26-0.26,1.0,144.0,,,,,,,[],,,,,,87.9,0.0,u,0.0,True,559.2999999970198,34.0,61.0,40.0,False,,353.13394375293194,[],"[683, 384]",ColorTask,71.0,27.0,,,HRV,HRV_0182,2022-11-30 18:48:58
,wl-rdm,144,414078,0.0-8.27-0.27,1.0,145.0,,,,,,,[],,,,,,87.9,0.0,u,0.0,True,612.0,37.0,61.0,40.0,False,,333.40791014900947,[],"[683, 384]",ColorTask,72.0,28.0,,,HRV,HRV_0182,2022-11-30 18:48:58
,wl-rdm,145,415913,0.0-8.28-0.28,1.0,146.0,,,,,,,[],,,,,,87.9,0.0,u,0.0,True,482.2000000178814,29.0,61.0,40.0,False,,261.66593788568713,[],"[683, 384]",ColorTask,73.0,29.0,,,HRV,HRV_0182,2022-11-30 18:48:58
,wl-rdm,146,417947,0.0-8.29-0.29,1.0,147.0,,,,,,,[],,,,,,56.4,1.0,i,1.0,True,602.9000000208616,37.0,61.0,40.0,False,,351.57271753999476,[],"[683, 384]",ColorTask,74.0,30.0,,,HRV,HRV_0182,2022-11-30 18:48:58
,wl-rdm,147,419664,0.0-8.30-0.30,1.0,148.0,,,,,,,[],,,,,,56.4,1.0,i,1.0,True,422.1000000089407,26.0,61.0,40.0,False,,217.98355295222336,[],"[683, 384]",ColorTask,75.0,31.0,,,HRV,HRV_0182,2022-11-30 18:48:58
,wl-rdm,148,421581,0.0-8.31-0.31,1.0,149.0,,,,,,,[],,,,,,56.4,0.0,i,1.0,False,577.0,35.0,61.0,40.0,False,,282.70995021607735,[],"[683, 384]",ColorTask,74.0,32.0,,,HRV,HRV_0182,2022-11-30 18:48:58
,wl-rdm,149,423532,0.0-8.32-0.32,1.0,150.0,,,,,,,[],,,,,,62.5,1.0,i,1.0,True,656.4000000059605,39.0,61.0,40.0,False,,219.02042943302033,[],"[683, 384]",ColorTask,75.0,33.0,,,HRV,HRV_0182,2022-11-30 18:48:58
,wl-rdm,150,425584,0.0-8.33-0.33,1.0,151.0,,,,,,,[],,,,,,53.2,0.0,u,0.0,True,758.2999999970198,46.0,61.0,40.0,False,,210.6348046697544,[],"[683, 384]",ColorTask,76.0,34.0,,,HRV,HRV_0182,2022-11-30 18:48:58
,wl-rdm,151,427488,0.0-8.34-0.34,1.0,152.0,,,,,,,[],,,,,,73.6,1.0,i,1.0,True,462.20000000298023,28.0,61.0,40.0,False,,396.1387699709586,[],"[683, 384]",ColorTask,77.0,35.0,,,HRV,HRV_0182,2022-11-30 18:48:58
,wl-rdm,152,429285,0.0-8.35-0.35,1.0,153.0,,,,,,,[],,,,,,73.6,0.0,u,0.0,True,522.7999999970198,31.0,61.0,40.0,False,,205.24408728063204,[],"[683, 384]",ColorTask,78.0,36.0,,,HRV,HRV_0182,2022-11-30 18:48:58
,wl-rdm,153,431169,0.0-8.36-0.36,1.0,154.0,,,,,,,[],,,,,,73.6,1.0,i,1.0,True,479.80000001192093,29.0,61.0,40.0,False,,340.6415455746906,[],"[683, 384]",ColorTask,79.0,37.0,,,HRV,HRV_0182,2022-11-30 18:48:58
,wl-rdm,154,432972,0.0-8.37-0.37,1.0,155.0,,,,,,,[],,,,,,87.9,1.0,i,1.0,True,439.8999999910593,27.0,61.0,40.0,False,,289.6893132988148,[],"[683, 384]",ColorTask,80.0,38.0,,,HRV,HRV_0182,2022-11-30 18:48:58
,wl-rdm,155,434806,0.0-8.38-0.38,1.0,156.0,,,,,,,[],,,,,,87.9,1.0,i,1.0,True,464.0,28.0,61.0,40.0,False,,310.87424605618236,[],"[683, 384]",ColorTask,81.0,39.0,,,HRV,HRV_0182,2022-11-30 18:48:58
,wl-rdm,156,436656,0.0-8.39-0.39,1.0,157.0,,,,,,,[],,,,,,62.5,1.0,i,1.0,True,515.5000000149012,31.0,61.0,40.0,False,,268.2001656166779,[],"[683, 384]",ColorTask,82.0,40.0,,,HRV,HRV_0182,2022-11-30 18:48:58
,wl-rdm,157,438572,0.0-8.40-0.40,1.0,158.0,,,,,,,[],,,,,,56.4,0.0,u,0.0,True,628.2999999970198,38.0,61.0,40.0,False,,211.63972036949275,[],"[683, 384]",ColorTask,83.0,41.0,,,HRV,HRV_0182,2022-11-30 18:48:58
,wl-rdm,158,440376,0.0-8.41-0.41,1.0,159.0,,,,,,,[],,,,,,62.5,1.0,i,1.0,True,540.7999999970198,32.0,61.0,40.0,False,,214.60954985860755,[],"[683, 384]",ColorTask,84.0,42.0,,,HRV,HRV_0182,2022-11-30 18:48:58
,wl-rdm,159,442209,0.0-8.42-0.42,1.0,160.0,,,,,,,[],,,,,,73.6,0.0,u,0.0,True,470.50000001490116,29.0,61.0,40.0,False,,259.17020718833805,[],"[683, 384]",ColorTask,85.0,43.0,,,HRV,HRV_0182,2022-11-30 18:48:58
,wl-rdm,160,444026,0.0-8.43-0.43,1.0,161.0,,,,,,,[],,,,,,56.4,0.0,i,1.0,False,495.09999999403954,30.0,61.0,40.0,False,,254.64016166577326,[],"[683, 384]",ColorTask,84.0,44.0,,,HRV,HRV_0182,2022-11-30 18:48:58
,wl-rdm,161,445943,0.0-8.44-0.44,1.0,162.0,,,,,,,[],,,,,,87.9,0.0,i,1.0,False,594.1000000089407,36.0,61.0,40.0,False,,251.31970089246107,[],"[683, 384]",ColorTask,83.0,45.0,,,HRV,HRV_0182,2022-11-30 18:48:58
,wl-rdm,162,448227,0.0-8.45-0.45,1.0,163.0,,,,,,,[],,,,,,50.0,1.0,u,0.0,False,873.9000000059605,52.0,61.0,40.0,False,,342.5745588590547,[],"[683, 384]",ColorTask,82.0,46.0,,,HRV,HRV_0182,2022-11-30 18:48:58
,wl-rdm,163,450044,0.0-8.46-0.46,1.0,164.0,,,,,,,[],,,,,,50.0,1.0,i,1.0,True,444.50000001490116,27.0,61.0,40.0,False,,312.7949267373122,[],"[683, 384]",ColorTask,83.0,47.0,,,HRV,HRV_0182,2022-11-30 18:48:58
,wl-rdm,164,452012,0.0-8.47-0.47,1.0,165.0,,,,,,,[],,,,,,53.2,1.0,i,1.0,True,518.0,31.0,61.0,40.0,False,,389.18973392164906,[],"[683, 384]",ColorTask,84.0,48.0,,,HRV,HRV_0182,2022-11-30 18:48:58
,wl-rdm,165,454064,0.0-8.48-0.48,1.0,166.0,,,,,,,[],,,,,,53.2,0.0,u,0.0,True,753.2000000029802,45.0,61.0,40.0,False,,230.6476162253383,[],"[683, 384]",ColorTask,85.0,49.0,,,HRV,HRV_0182,2022-11-30 18:48:58
,wl-rdm,166,455966,0.0-8.49-0.49,1.0,167.0,,,,,,,[],,,,,,56.4,0.0,u,0.0,True,585.7999999970198,36.0,61.0,40.0,False,,239.9894826364303,[],"[683, 384]",ColorTask,86.0,50.0,,,HRV,HRV_0182,2022-11-30 18:48:58
,wl-rdm,167,457831,0.0-8.50-0.50,1.0,168.0,,,,,,,[],,,,,,56.4,1.0,i,1.0,True,445.69999998807907,26.0,61.0,40.0,False,,331.005262845988,[],"[683, 384]",ColorTask,87.0,51.0,,,HRV,HRV_0182,2022-11-30 18:48:58
,wl-rdm,168,459885,0.0-8.51-0.51,1.0,169.0,,,,,,,[],,,,,,53.2,0.0,u,0.0,True,757.8999999910593,46.0,61.0,40.0,False,,225.22243311391514,[],"[683, 384]",ColorTask,88.0,52.0,,,HRV,HRV_0182,2022-11-30 18:48:58
,wl-rdm,169,461784,0.0-8.52-0.52,1.0,170.0,,,,,,,[],,,,,,53.2,1.0,u,0.0,False,542.0999999940395,32.0,61.0,40.0,False,,290.78450482322376,[],"[683, 384]",ColorTask,87.0,53.0,,,HRV,HRV_0182,2022-11-30 18:48:58
,wl-rdm,170,463618,0.0-8.53-0.53,1.0,171.0,,,,,,,[],,,,,,87.9,1.0,i,1.0,True,485.6000000089407,29.0,61.0,40.0,False,,262.36444166062967,[],"[683, 384]",ColorTask,88.0,54.0,,,HRV,HRV_0182,2022-11-30 18:48:58
,wl-rdm,171,465435,0.0-8.54-0.54,1.0,172.0,,,,,,,[],,,,,,50.0,1.0,i,1.0,True,461.3999999910593,28.0,61.0,40.0,False,,291.660926945929,[],"[683, 384]",ColorTask,89.0,55.0,,,HRV,HRV_0182,2022-11-30 18:48:58
,wl-rdm,172,467502,0.0-8.55-0.55,1.0,173.0,,,,,,,[],,,,,,50.0,0.0,u,0.0,True,656.3000000119209,40.0,61.0,40.0,False,,322.40681716434,[],"[683, 384]",ColorTask,90.0,56.0,,,HRV,HRV_0182,2022-11-30 18:48:58
,wl-rdm,173,469337,0.0-8.56-0.56,1.0,174.0,,,,,,,[],,,,,,87.9,0.0,u,0.0,True,513.9000000059605,31.0,61.0,40.0,False,,243.23404563398955,[],"[683, 384]",ColorTask,91.0,57.0,,,HRV,HRV_0182,2022-11-30 18:48:58
,wl-rdm,174,471487,0.0-8.57-0.57,1.0,175.0,,,,,,,[],,,,,,62.5,0.0,u,0.0,True,687.8999999910593,42.0,61.0,40.0,False,,370.5739054793156,[],"[683, 384]",ColorTask,92.0,58.0,,,HRV,HRV_0182,2022-11-30 18:48:58
,wl-rdm,175,473323,0.0-8.58-0.58,1.0,176.0,,,,,,,[],,,,,,62.5,0.0,u,0.0,True,404.6000000089407,25.0,61.0,40.0,False,,357.6405347946694,[],"[683, 384]",ColorTask,93.0,59.0,,,HRV,HRV_0182,2022-11-30 18:48:58
,wl-rdm,176,475223,0.0-8.59-0.59,1.0,177.0,,,,,,,[],,,,,,62.5,0.0,u,0.0,True,542.2999999970198,33.0,61.0,40.0,False,,277.61402016976234,[],"[683, 384]",ColorTask,94.0,60.0,,,HRV,HRV_0182,2022-11-30 18:48:58
,wl-rdm,177,477207,0.0-8.60-0.60,1.0,178.0,,,,,,,[],,,,,,53.2,0.0,i,1.0,False,546.6999999880791,33.0,61.0,40.0,False,,353.7182335995525,[],"[683, 384]",ColorTask,93.0,61.0,,,HRV,HRV_0182,2022-11-30 18:48:58
,wl-rdm,178,479074,0.0-8.61-0.61,1.0,179.0,,,,,,,[],,,,,,50.0,0.0,i,1.0,False,502.59999999403954,31.0,61.0,40.0,False,,289.35586231528083,[],"[683, 384]",ColorTask,92.0,62.0,,,HRV,HRV_0182,2022-11-30 18:48:58
,wl-rdm,179,481110,0.0-8.62-0.62,1.0,180.0,,,,,,,[],,,,,,53.2,1.0,i,1.0,True,754.0,46.0,61.0,40.0,False,,209.365632030646,[],"[683, 384]",ColorTask,93.0,63.0,,,HRV,HRV_0182,2022-11-30 18:48:58
,wl-rdm,180,483096,0.0-8.63-0.63,1.0,181.0,,,,,,,[],,,,,,53.2,1.0,i,1.0,True,595.3999999910593,36.0,61.0,40.0,False,,324.1216000613702,[],"[683, 384]",ColorTask,94.0,64.0,,,HRV,HRV_0182,2022-11-30 18:48:58
,wl-rdm,181,485246,0.0-8.64-0.64,1.0,182.0,,,,,,,[],,,,,,56.4,1.0,i,1.0,True,697.4000000059605,42.0,61.0,40.0,False,,379.62530515165986,[],"[683, 384]",ColorTask,95.0,65.0,,,HRV,HRV_0182,2022-11-30 18:48:58
,wl-rdm,182,487062,0.0-8.65-0.65,1.0,183.0,,,,,,,[],,,,,,87.9,1.0,i,1.0,True,433.30000001192093,27.0,61.0,40.0,False,,299.8353223454374,[],"[683, 384]",ColorTask,96.0,66.0,,,HRV,HRV_0182,2022-11-30 18:48:58
,wl-rdm,183,488979,0.0-8.66-0.66,1.0,184.0,,,,,,,[],,,,,,62.5,0.0,u,0.0,True,520.2999999821186,31.0,61.0,40.0,False,,313.69499521588443,[],"[683, 384]",ColorTask,97.0,67.0,,,HRV,HRV_0182,2022-11-30 18:48:58
,wl-rdm,184,490865,0.0-8.67-0.67,1.0,185.0,,,,,,,[],,,,,,53.2,1.0,i,1.0,True,604.8999999910593,36.0,61.0,40.0,False,,214.10102294663628,[],"[683, 384]",ColorTask,98.0,68.0,,,HRV,HRV_0182,2022-11-30 18:48:58
,wl-rdm,185,492950,0.0-8.68-0.68,1.0,186.0,,,,,,,[],,,,,,50.0,0.0,i,1.0,False,605.0,37.0,61.0,40.0,False,,394.98974830742316,[],"[683, 384]",ColorTask,97.0,69.0,,,HRV,HRV_0182,2022-11-30 18:48:58
,wl-rdm,186,494882,0.0-8.69-0.69,1.0,187.0,,,,,,,[],,,,,,73.6,0.0,u,0.0,True,599.4000000059605,36.0,61.0,40.0,False,,251.39368219373557,[],"[683, 384]",ColorTask,98.0,70.0,,,HRV,HRV_0182,2022-11-30 18:48:58
,wl-rdm,187,496783,0.0-8.70-0.70,1.0,188.0,,,,,,,[],,,,,,50.0,1.0,i,1.0,True,589.5999999940395,36.0,61.0,40.0,False,,229.68362118112114,[],"[683, 384]",ColorTask,99.0,71.0,,,HRV,HRV_0182,2022-11-30 18:48:58
,wl-rdm,188,498951,0.0-8.71-0.71,1.0,189.0,,,,,,,[],,,,,,62.5,0.0,i,1.0,False,759.5000000149012,46.0,61.0,40.0,False,,346.59531547700556,[],"[683, 384]",ColorTask,98.0,72.0,,,HRV,HRV_0182,2022-11-30 18:48:58
,wl-rdm,189,500819,0.0-8.72-0.72,1.0,190.0,,,,,,,[],,,,,,73.6,0.0,u,0.0,True,488.70000000298023,30.0,61.0,40.0,False,,286.1447822225051,[],"[683, 384]",ColorTask,99.0,73.0,,,HRV,HRV_0182,2022-11-30 18:48:58
,wl-rdm,190,502670,0.0-8.73-0.73,1.0,191.0,,,,,,,[],,,,,,73.6,1.0,i,1.0,True,489.90000000596046,30.0,61.0,40.0,False,,284.6252572579365,[],"[683, 384]",ColorTask,100.0,74.0,,,HRV,HRV_0182,2022-11-30 18:48:58
,wl-rdm,191,504571,0.0-8.74-0.74,1.0,192.0,,,,,,,[],,,,,,56.4,1.0,u,0.0,False,591.0,36.0,61.0,40.0,False,,222.28310438005283,[],"[683, 384]",ColorTask,99.0,75.0,,,HRV,HRV_0182,2022-11-30 18:48:58
,wl-rdm,192,506387,0.0-8.75-0.75,1.0,193.0,,,,,,,[],,,,,,73.6,0.0,u,0.0,True,528.7000000029802,32.0,61.0,40.0,False,,218.20955565989757,[],"[683, 384]",ColorTask,100.0,76.0,,,HRV,HRV_0182,2022-11-30 18:48:58
,wl-rdm,193,508238,0.0-8.76-0.76,1.0,194.0,,,,,,,[],,,,,,56.4,0.0,i,1.0,False,524.5999999940395,32.0,61.0,40.0,False,,238.37722857205324,[],"[683, 384]",ColorTask,99.0,77.0,,,HRV,HRV_0182,2022-11-30 18:48:58
,wl-rdm,194,510455,0.0-8.77-0.77,1.0,195.0,,,,,,,[],,,,,,62.5,0.0,u,0.0,True,751.2999999970198,45.0,61.0,40.0,False,,391.37348393984945,[],"[683, 384]",ColorTask,100.0,78.0,,,HRV,HRV_0182,2022-11-30 18:48:58
,wl-rdm,195,512409,0.0-8.78-0.78,1.0,196.0,,,,,,,[],,,,,,50.0,1.0,i,1.0,True,522.1999999880791,31.0,61.0,40.0,False,,362.6263453760499,[],"[683, 384]",ColorTask,101.0,79.0,,,HRV,HRV_0182,2022-11-30 18:48:58
,wl-rdm,196,514257,0.0-8.79-0.79,1.0,197.0,,,,,,,[],,,,,,50.0,0.0,i,1.0,False,498.6000000089407,30.0,61.0,40.0,False,,272.3476980641932,[],"[683, 384]",ColorTask,100.0,80.0,,,HRV,HRV_0182,2022-11-30 18:48:58
,wl-rdm,197,516074,0.0-8.80-0.80,1.0,198.0,,,,,,,[],,,,,,73.6,0.0,u,0.0,True,431.3999999910593,26.0,61.0,40.0,False,,301.3187680253332,[],"[683, 384]",ColorTask,101.0,81.0,,,HRV,HRV_0182,2022-11-30 18:48:58
,wl-rdm,198,518078,0.0-8.81-0.81,1.0,199.0,,,,,,,[],,,,,,50.0,1.0,i,1.0,True,573.0,35.0,61.0,40.0,False,,367.5919569887112,[],"[683, 384]",ColorTask,102.0,82.0,,,HRV,HRV_0182,2022-11-30 18:48:58
,wl-rdm,199,519878,0.0-8.82-0.82,1.0,200.0,,,,,,,[],,,,,,87.9,1.0,i,1.0,True,506.70000000298023,31.0,61.0,40.0,False,,218.7371339639095,[],"[683, 384]",ColorTask,103.0,83.0,,,HRV,HRV_0182,2022-11-30 18:48:58
,wl-rdm,200,521761,0.0-8.83-0.83,1.0,201.0,,,,,,,[],,,,,,50.0,1.0,u,0.0,False,497.70000000298023,30.0,61.0,40.0,False,,306.43599986576606,[],"[683, 384]",ColorTask,102.0,84.0,,,HRV,HRV_0182,2022-11-30 18:48:58
,wl-rdm,201,523662,0.0-8.84-0.84,1.0,202.0,,,,,,,[],,,,,,50.0,1.0,i,1.0,True,458.59999999403954,28.0,61.0,40.0,False,,359.0745648940069,[],"[683, 384]",ColorTask,103.0,85.0,,,HRV,HRV_0182,2022-11-30 18:48:58
,wl-rdm,202,525462,0.0-8.85-0.85,1.0,203.0,,,,,,,[],,,,,,50.0,0.0,u,0.0,True,528.8999999910593,32.0,61.0,40.0,False,,210.2049222748947,[],"[683, 384]",ColorTask,104.0,86.0,,,HRV,HRV_0182,2022-11-30 18:48:58
,wl-rdm,203,527314,0.0-8.86-0.86,1.0,204.0,,,,,,,[],,,,,,53.2,0.0,u,0.0,True,497.3999999910593,30.0,61.0,40.0,False,,276.78666194073514,[],"[683, 384]",ColorTask,105.0,87.0,,,HRV,HRV_0182,2022-11-30 18:48:58
,wl-rdm,204,529118,0.0-8.87-0.87,1.0,205.0,,,,,,,[],,,,,,73.6,1.0,i,1.0,True,452.5,27.0,61.0,40.0,False,,273.81908425418806,[],"[683, 384]",ColorTask,106.0,88.0,,,HRV,HRV_0182,2022-11-30 18:48:58
,wl-rdm,205,531098,0.0-8.88-0.88,1.0,206.0,,,,,,,[],,,,,,56.4,0.0,i,1.0,False,648.3999999910593,39.0,61.0,40.0,False,,265.7538988266597,[],"[683, 384]",ColorTask,105.0,89.0,,,HRV,HRV_0182,2022-11-30 18:48:58
,wl-rdm,206,532967,0.0-8.89-0.89,1.0,207.0,,,,,,,[],,,,,,62.5,1.0,i,1.0,True,544.9000000208616,33.0,61.0,40.0,False,,263.7441264040475,[],"[683, 384]",ColorTask,106.0,90.0,,,HRV,HRV_0182,2022-11-30 18:48:58
,wl-rdm,207,534983,0.0-8.90-0.90,1.0,208.0,,,,,,,[],,,,,,53.2,0.0,i,1.0,False,661.0999999940395,40.0,61.0,40.0,False,,296.6288158369544,[],"[683, 384]",ColorTask,105.0,91.0,,,HRV,HRV_0182,2022-11-30 18:48:58
,wl-rdm,208,536751,0.0-8.91-0.91,1.0,209.0,,,,,,,[],,,,,,56.4,0.0,u,0.0,True,379.30000001192093,23.0,61.0,40.0,False,,311.6088749204624,[],"[683, 384]",ColorTask,106.0,92.0,,,HRV,HRV_0182,2022-11-30 18:48:58
,wl-rdm,209,538618,0.0-8.92-0.92,1.0,210.0,,,,,,,[],,,,,,50.0,1.0,i,1.0,True,530.7000000029802,32.0,61.0,40.0,False,,249.68633311101223,[],"[683, 384]",ColorTask,107.0,93.0,,,HRV,HRV_0182,2022-11-30 18:48:58
,wl-rdm,210,540436,0.0-8.93-0.93,1.0,211.0,,,,,,,[],,,,,,62.5,0.0,u,0.0,True,541.5999999940395,33.0,61.0,40.0,False,,208.4513903868952,[],"[683, 384]",ColorTask,108.0,94.0,,,HRV,HRV_0182,2022-11-30 18:48:58
,wl-rdm,211,542354,0.0-8.94-0.94,1.0,212.0,,,,,,,[],,,,,,53.2,1.0,i,1.0,True,593.7999999821186,36.0,61.0,40.0,False,,213.34632564009465,[],"[683, 384]",ColorTask,109.0,95.0,,,HRV,HRV_0182,2022-11-30 18:48:58
,wl-rdm,212,544223,0.0-8.95-0.95,1.0,213.0,,,,,,,[],,,,,,56.4,1.0,i,1.0,True,476.70000000298023,29.0,61.0,40.0,False,,317.05463849238265,[],"[683, 384]",ColorTask,110.0,96.0,,,HRV,HRV_0182,2022-11-30 18:48:58
,wl-rdm,213,546055,0.0-8.96-0.96,1.0,214.0,,,,,,,[],,,,,,73.6,0.0,u,0.0,True,515.0999999940395,31.0,61.0,40.0,False,,264.29969327148075,[],"[683, 384]",ColorTask,111.0,97.0,,,HRV,HRV_0182,2022-11-30 18:48:58
,wl-rdm,214,547889,0.0-8.97-0.97,1.0,215.0,,,,,,,[],,,,,,73.6,1.0,i,1.0,True,546.7999999970198,33.0,61.0,40.0,False,,211.27269833606888,[],"[683, 384]",ColorTask,112.0,98.0,,,HRV,HRV_0182,2022-11-30 18:48:58
,wl-rdm,215,549759,0.0-8.98-0.98,1.0,216.0,,,,,,,[],,,,,,56.4,1.0,i,1.0,True,543.0999999940395,33.0,61.0,40.0,False,,259.48187846475383,[],"[683, 384]",ColorTask,113.0,99.0,,,HRV,HRV_0182,2022-11-30 18:48:58
,wl-rdm,216,551657,0.0-8.99-0.99,1.0,217.0,,,,,,,[],,,,,,50.0,0.0,u,0.0,True,469.19999998807907,28.0,61.0,40.0,False,,350.55677924447247,[],"[683, 384]",ColorTask,114.0,100.0,,,HRV,HRV_0182,2022-11-30 18:48:58
,wl-rdm,217,553609,0.0-8.100-0.100,1.0,218.0,,,,,,,[],,,,,,62.5,0.0,i,1.0,False,595.7999999970198,36.0,61.0,40.0,False,,285.7369880797337,[],"[683, 384]",ColorTask,113.0,101.0,,,HRV,HRV_0182,2022-11-30 18:48:58
,wl-rdm,218,555526,0.0-8.101-0.101,1.0,219.0,,,,,,,[],,,,,,73.6,1.0,i,1.0,True,573.9000000059605,35.0,61.0,40.0,False,,269.2574612652825,[],"[683, 384]",ColorTask,114.0,102.0,,,HRV,HRV_0182,2022-11-30 18:48:58
,wl-rdm,219,557277,0.0-8.102-0.102,1.0,220.0,,,,,,,[],,,,,,53.2,0.0,u,0.0,True,458.30000001192093,28.0,61.0,40.0,False,,223.53688977721228,[],"[683, 384]",ColorTask,115.0,103.0,,,HRV,HRV_0182,2022-11-30 18:48:58
,wl-rdm,220,559082,0.0-8.103-0.103,1.0,221.0,,,,,,,[],,,,,,50.0,0.0,i,1.0,False,487.80000001192093,30.0,61.0,40.0,False,,249.67179736725316,[],"[683, 384]",ColorTask,114.0,104.0,,,HRV,HRV_0182,2022-11-30 18:48:58
,wl-rdm,221,560948,0.0-8.104-0.104,1.0,222.0,,,,,,,[],,,,,,56.4,1.0,i,1.0,True,540.7000000029802,33.0,61.0,40.0,False,,235.76053299272766,[],"[683, 384]",ColorTask,115.0,105.0,,,HRV,HRV_0182,2022-11-30 18:48:58
,wl-rdm,222,562948,0.0-8.105-0.105,1.0,223.0,,,,,,,[],,,,,,53.2,0.0,i,1.0,False,672.6999999880791,40.0,61.0,40.0,False,,252.1462279075297,[],"[683, 384]",ColorTask,114.0,106.0,,,HRV,HRV_0182,2022-11-30 18:48:58
,wl-rdm,223,564814,0.0-8.106-0.106,1.0,224.0,,,,,,,[],,,,,,73.6,0.0,u,0.0,True,506.79999999701977,31.0,61.0,40.0,False,,273.42540086118765,[],"[683, 384]",ColorTask,115.0,107.0,,,HRV,HRV_0182,2022-11-30 18:48:58
,wl-rdm,224,566665,0.0-8.107-0.107,1.0,225.0,,,,,,,[],,,,,,87.9,1.0,i,1.0,True,474.1000000089407,29.0,61.0,40.0,False,,294.7935052398542,[],"[683, 384]",ColorTask,116.0,108.0,,,HRV,HRV_0182,2022-11-30 18:48:58
,wl-html-button-response,225,569568,0.0-9.0-0.0,,,,,,,,,,2897.5,,0,,,,,,,,,,,,,,,,,,,,<h3>End of this session. Thank you!</h3><br>,['Close window'],HRV,HRV_0182,2022-11-30 18:48:58
