success,trial_type,trial_index,time_elapsed,internal_node_id,Block,TrialNumber,TrialTime,trialTimeDiff,FPS_avg,FPS_med,FPS_mode,TrialDur,winResizeTime,rt,block,button_pressed,MotCoh,MotDir,ColCoh,Color,ChoiceKey,Choice,Accuracy,RT,nFrames,FPS,PPD,missTrial,missTrialMsg,onsetDelay,fullScreenExitTime,canvCenter,TrialType,Score,BlockTrial,stimulus,button_labels,exp,subjectId,date
True,fullscreen,0,6803,0.0-0.0,0.0,1.0,,,,,,,,,,,,,,,,,,,,,,,,,,,,,,,,HRV,HRV_0027,2022-11-30 17:56:45
,wl-check-fps,1,11819,0.0-1.0,0.0,2.0,"[7057.4, 7062.1, 7079.5, 7096.2, 7113.1, 7130.1, 7146, 7161.9, 7179.9, 7195.8, 7212.8, 7229.6, 7245.7, 7263.8, 7280, 7295.8, 7313.4, 7328.7, 7345.8, 7362.2, 7379.2, 7395.7, 7411.8, 7428.6, 7446.7, 7463.7, 7478.4, 7496.2, 7512.3, 7528.4, 7546.7, 7561.8, 7579.6, 7596.9, 7613, 7629.5, 7646.7, 7662, 7678.6, 7696.8, 7713, 7730.3, 7745.3, 7762, 7779.2, 7795.4, 7812.5, 7829.6, 7846, 7862.2, 7880.6, 7896.7, 7912.7, 7929.6, 7946.5, 7962.5, 7979, 7995.3, 8012.8, 8028.7, 8045.2, 8063, 8079.2, 8095.8, 8111.9, 8128.6, 8146.4, 8162.8, 8179.7, 8196.5, 8212.8, 8228.9, 8245.3, 8263.4, 8279.6, 8295.4, 8312.8, 8329.7, 8346.2, 8363.7, 8379, 8396.1, 8412.8, 8428.8, 8445.3, 8462.4, 8478.9, 8496.9, 8511.9, 8529.2, 8545.3, 8561.7, 8580, 8596.1, 8613, 8628.8, 8646.2, 8661.9, 8679.1, 8695.5, 8712.8, 8729, 8745.4, 8762.6, 8779, 8795.1, 8813.5, 8828.5, 8845.2, 8862.5, 8878.6, 8896.7, 8912.1, 8929.4, 8945.3, 8962.2, 8979.6, 8995.5, 9012.8, 9028.7, 9045.3, 9063.7, 9079.1, 9096.2, 9112.9, 9129, 9145.3, 9162.7, 9179.6, 9195.8, 9213, 9229.2, 9245.2, 9262.7, 9279.9, 9296.3, 9312.7, 9328.9, 9345.3, 9362.3, 9378.5, 9396.5, 9412.4, 9429.3, 9445.4, 9463.3, 9480.2, 9496.2, 9512.1, 9528.5, 9545.6, 9562.1, 9579.7, 9596.9, 9611.9, 9629.4, 9686.5, 9690.7, 9698.2, 9713.3, 9729.3, 9746.2, 9762.2, 9778.4, 9795.6, 9811.8, 9828.7, 9845.7, 9861.9, 9878.5, 9896.2, 9912.4, 9928.7, 9945.2, 9962.8, 9978.7, 9995.7, 10011.8, 10029.1, 10045.5, 10062.8, 10078.7, 10095.2, 10112.7, 10129, 10145.1, 10162.3, 10178.5, 10195.2, 10212.3, 10229, 10245.8, 10262.9, 10279.8, 10295.6, 10312.6, 10329.5, 10346.5, 10362.4, 10379.4, 10396.6, 10411.7, 10428.7, 10445.9, 10462.7, 10478.6, 10495.2, 10513, 10530.5, 10546.3, 10562.8, 10578.6, 10595.6, 10612, 10629.1, 10645.6, 10663, 10679.6, 10695.9, 10712.3, 10729.2, 10746.1, 10763.2, 10780.2, 10796.2, 10812.3, 10829, 10845.2, 10862.1, 10878.9, 10895.8, 10911.8, 10928.8, 10945.2, 10962.3, 10978.6, 10995.7, 11012.3, 11028.5, 11045.3, 11061.8, 11078.5, 11097.2, 11112, 11129.3, 11146.4, 11161.8, 11180, 11195.2, 11212.2, 11229.7, 11245.3, 11262.9, 11278.5, 11295.9, 11312.7, 11328.8, 11346.5, 11361.9, 11378.9, 11396, 11412, 11429.4, 11445.5, 11461.8, 11478.9, 11495.1, 11513.6, 11529.5, 11546.8, 11561.9, 11579.1, 11596.1, 11612.1, 11628.9, 11646.2, 11661.8, 11680.3, 11695.2, 11712.4, 11729.8, 11745.1, 11762.3, 11779, 11795.2, 11812.3, 11828.4, 11846.5, 11862.9, 11878.9, 11896.2, 11911.8, 11929, 11945.5, 11961.7, 11979.6, 11995.7, 12012.1, 12029.5, 12046.2]","[7.5, 4.7, 17.4, 16.7, 16.9, 17, 15.9, 15.9, 18, 15.9, 17, 16.8, 16.1, 18.1, 16.2, 15.8, 17.6, 15.3, 17.1, 16.4, 17, 16.5, 16.1, 16.8, 18.1, 17, 14.7, 17.8, 16.1, 16.1, 18.3, 15.1, 17.8, 17.3, 16.1, 16.5, 17.2, 15.3, 16.6, 18.2, 16.2, 17.3, 15, 16.7, 17.2, 16.2, 17.1, 17.1, 16.4, 16.2, 18.4, 16.1, 16, 16.9, 16.9, 16, 16.5, 16.3, 17.5, 15.9, 16.5, 17.8, 16.2, 16.6, 16.1, 16.7, 17.8, 16.4, 16.9, 16.8, 16.3, 16.1, 16.4, 18.1, 16.2, 15.8, 17.4, 16.9, 16.5, 17.5, 15.3, 17.1, 16.7, 16, 16.5, 17.1, 16.5, 18, 15, 17.3, 16.1, 16.4, 18.3, 16.1, 16.9, 15.8, 17.4, 15.7, 17.2, 16.4, 17.3, 16.2, 16.4, 17.2, 16.4, 16.1, 18.4, 15, 16.7, 17.3, 16.1, 18.1, 15.4, 17.3, 15.9, 16.9, 17.4, 15.9, 17.3, 15.9, 16.6, 18.4, 15.4, 17.1, 16.7, 16.1, 16.3, 17.4, 16.9, 16.2, 17.2, 16.2, 16, 17.5, 17.2, 16.4, 16.4, 16.2, 16.4, 17, 16.2, 18, 15.9, 16.9, 16.1, 17.9, 16.9, 16, 15.9, 16.4, 17.1, 16.5, 17.6, 17.2, 15, 17.5, 57.1, 4.2, 7.5, 15.1, 16, 16.9, 16, 16.2, 17.2, 16.2, 16.9, 17, 16.2, 16.6, 17.7, 16.2, 16.3, 16.5, 17.6, 15.9, 17, 16.1, 17.3, 16.4, 17.3, 15.9, 16.5, 17.5, 16.3, 16.1, 17.2, 16.2, 16.7, 17.1, 16.7, 16.8, 17.1, 16.9, 15.8, 17, 16.9, 17, 15.9, 17, 17.2, 15.1, 17, 17.2, 16.8, 15.9, 16.6, 17.8, 17.5, 15.8, 16.5, 15.8, 17, 16.4, 17.1, 16.5, 17.4, 16.6, 16.3, 16.4, 16.9, 16.9, 17.1, 17, 16, 16.1, 16.7, 16.2, 16.9, 16.8, 16.9, 16, 17, 16.4, 17.1, 16.3, 17.1, 16.6, 16.2, 16.8, 16.5, 16.7, 18.7, 14.8, 17.3, 17.1, 15.4, 18.2, 15.2, 17, 17.5, 15.6, 17.6, 15.6, 17.4, 16.8, 16.1, 17.7, 15.4, 17, 17.1, 16, 17.4, 16.1, 16.3, 17.1, 16.2, 18.5, 15.9, 17.3, 15.1, 17.2, 17, 16, 16.8, 17.3, 15.6, 18.5, 14.9, 17.2, 17.4, 15.3, 17.2, 16.7, 16.2, 17.1, 16.1, 18.1, 16.4, 16, 17.3, 15.6, 17.2, 16.5, 16.2, 17.9, 16.1, 16.4, 17.4, 16.7]",60.0,60.0,62.0,5012.4,[],,,,,,,,,,,,,,,,,,,,,,,,,HRV,HRV_0027,2022-11-30 17:56:45
,wl-html-keyboard-response,2,28561,0.0-2.0-0.0,0.0,3.0,,,,,,,,14727.899999856949,0.0,0,,,,,,,,,,,,,,,,,,,,,,HRV,HRV_0027,2022-11-30 17:56:45
,wl-rdm,3,37734,0.0-3.0-0.0,0.0,4.0,,,,,,,[],,,,0.0,0.0,87.9,0.0,u,0.0,True,3567.4000000953674,214.0,62.0,40.0,False,,3000.0,[],"[960, 540]",ColorTask_Demo,,,,,HRV,HRV_0027,2022-11-30 17:56:45
,wl-rdm,4,43584,0.0-3.0-1.0,0.0,5.0,,,,,,,[],,,,0.0,0.0,87.9,1.0,i,1.0,True,1754.8999998569489,106.0,62.0,40.0,False,,2000.0,[],"[960, 540]",ColorTask_Demo,,,,,HRV,HRV_0027,2022-11-30 17:56:45
,wl-html-keyboard-response,5,48011,0.0-3.0-2.0,0.0,6.0,,,,,,,,2419.5,0.0,1,,,,,,,,,,,,,,,,,,,,,,HRV,HRV_0027,2022-11-30 17:56:45
,wl-html-keyboard-response,6,60250,0.0-4.0-0.0,0.0,7.0,,,,,,,,10215.600000143051,0.0,0,,,,,,,,,,,,,,,,,,,,,,HRV,HRV_0027,2022-11-30 17:56:45
,wl-html-keyboard-response,7,83036,0.0-5.0-0.0,0.0,8.0,,,,,,,,20780.10000014305,0.0,0,,,,,,,,,,,,,,,,,,,,,,HRV,HRV_0027,2022-11-30 17:56:45
,wl-rdm,8,85101,0.0-6.0-0.0,0.0,9.0,,,,,,,[],,,,,,87.9,1.0,i,1.0,True,764.0,46.0,62.0,40.0,False,,232.08540047578367,[],"[960, 540]",ColorTask,1.0,1.0,,,HRV,HRV_0027,2022-11-30 17:56:45
,wl-rdm,9,87185,0.0-6.1-0.1,0.0,10.0,,,,,,,[],,,,,,56.4,0.0,u,0.0,True,775.8999998569489,47.0,62.0,40.0,False,,233.56700291152143,[],"[960, 540]",ColorTask,2.0,2.0,,,HRV,HRV_0027,2022-11-30 17:56:45
,wl-rdm,10,89385,0.0-6.2-0.2,0.0,11.0,,,,,,,[],,,,,,53.2,0.0,u,0.0,True,890.1999998092651,54.0,62.0,40.0,False,,218.12158436948363,[],"[960, 540]",ColorTask,3.0,3.0,,,HRV,HRV_0027,2022-11-30 17:56:45
,wl-rdm,11,91368,0.0-6.3-0.3,0.0,12.0,,,,,,,[],,,,,,73.6,1.0,i,1.0,True,672.1000001430511,41.0,62.0,40.0,False,,246.19367011818588,[],"[960, 540]",ColorTask,4.0,4.0,,,HRV,HRV_0027,2022-11-30 17:56:45
,wl-rdm,12,93301,0.0-6.4-0.4,0.0,13.0,,,,,,,[],,,,,,56.4,1.0,i,1.0,True,638.0999999046326,39.0,62.0,40.0,False,,232.94191947685704,[],"[960, 540]",ColorTask,5.0,5.0,,,HRV,HRV_0027,2022-11-30 17:56:45
,wl-rdm,13,95268,0.0-6.5-0.5,0.0,14.0,,,,,,,[],,,,,,53.2,1.0,i,1.0,True,655.2000000476837,40.0,62.0,40.0,False,,240.80103565212846,[],"[960, 540]",ColorTask,6.0,6.0,,,HRV,HRV_0027,2022-11-30 17:56:45
,wl-rdm,14,97102,0.0-6.6-0.6,0.0,15.0,,,,,,,[],,,,,,73.6,0.0,u,0.0,True,514.1000001430511,31.0,62.0,40.0,False,,239.23183794334759,[],"[960, 540]",ColorTask,7.0,7.0,,,HRV,HRV_0027,2022-11-30 17:56:45
,wl-rdm,15,99019,0.0-6.7-0.7,0.0,16.0,,,,,,,[],,,,,,87.9,0.0,u,0.0,True,549.2000000476837,33.0,62.0,40.0,False,,315.3683322264162,[],"[960, 540]",ColorTask,8.0,8.0,,,HRV,HRV_0027,2022-11-30 17:56:45
,wl-rdm,16,101035,0.0-6.8-0.8,0.0,17.0,,,,,,,[],,,,,,53.2,0.0,i,1.0,False,549.9000000953674,33.0,62.0,40.0,False,,397.7393202377116,[],"[960, 540]",ColorTask,7.0,9.0,,,HRV,HRV_0027,2022-11-30 17:56:45
,wl-rdm,17,102936,0.0-6.9-0.9,0.0,18.0,,,,,,,[],,,,,,50.0,1.0,u,0.0,False,554.9000000953674,34.0,62.0,40.0,False,,259.35231569732247,[],"[960, 540]",ColorTask,6.0,10.0,,,HRV,HRV_0027,2022-11-30 17:56:45
,wl-rdm,18,104884,0.0-6.10-0.10,0.0,19.0,,,,,,,[],,,,,,50.0,1.0,i,1.0,True,645.5,39.0,62.0,40.0,False,,218.17381240957488,[],"[960, 540]",ColorTask,7.0,11.0,,,HRV,HRV_0027,2022-11-30 17:56:45
,wl-rdm,19,107035,0.0-6.11-0.11,0.0,20.0,,,,,,,[],,,,,,62.5,1.0,i,1.0,True,654.5999999046326,40.0,62.0,40.0,False,,399.94939784610744,[],"[960, 540]",ColorTask,8.0,12.0,,,HRV,HRV_0027,2022-11-30 17:56:45
,wl-rdm,20,108951,0.0-6.12-0.12,0.0,21.0,,,,,,,[],,,,,,50.0,1.0,i,1.0,True,588.2000000476837,36.0,62.0,40.0,False,,237.83451689047874,[],"[960, 540]",ColorTask,9.0,13.0,,,HRV,HRV_0027,2022-11-30 17:56:45
,wl-rdm,21,110818,0.0-6.13-0.13,0.0,22.0,,,,,,,[],,,,,,62.5,1.0,i,1.0,True,525.0,32.0,62.0,40.0,False,,263.38489891708934,[],"[960, 540]",ColorTask,10.0,14.0,,,HRV,HRV_0027,2022-11-30 17:56:45
,wl-rdm,22,112683,0.0-6.14-0.14,0.0,23.0,,,,,,,[],,,,,,73.6,0.0,u,0.0,True,547.4000000953674,33.0,62.0,40.0,False,,233.2415995773972,[],"[960, 540]",ColorTask,11.0,15.0,,,HRV,HRV_0027,2022-11-30 17:56:45
,wl-rdm,23,114567,0.0-6.15-0.15,0.0,24.0,,,,,,,[],,,,,,73.6,1.0,i,1.0,True,588.8999998569489,36.0,62.0,40.0,False,,200.89997984163253,[],"[960, 540]",ColorTask,12.0,16.0,,,HRV,HRV_0027,2022-11-30 17:56:45
,wl-rdm,24,116584,0.0-6.16-0.16,0.0,25.0,,,,,,,[],,,,,,87.9,0.0,u,0.0,True,704.3999998569489,43.0,62.0,40.0,False,,237.74243252284282,[],"[960, 540]",ColorTask,13.0,17.0,,,HRV,HRV_0027,2022-11-30 17:56:45
,wl-rdm,25,118550,0.0-6.17-0.17,0.0,26.0,,,,,,,[],,,,,,56.4,0.0,i,1.0,False,622.0,38.0,62.0,40.0,False,,250.62722777719682,[],"[960, 540]",ColorTask,12.0,18.0,,,HRV,HRV_0027,2022-11-30 17:56:45
,wl-rdm,26,120450,0.0-6.18-0.18,0.0,27.0,,,,,,,[],,,,,,62.5,0.0,u,0.0,True,590.5999999046326,36.0,62.0,40.0,False,,226.43667481403816,[],"[960, 540]",ColorTask,13.0,19.0,,,HRV,HRV_0027,2022-11-30 17:56:45
,wl-rdm,27,122450,0.0-6.19-0.19,0.0,28.0,,,,,,,[],,,,,,53.2,1.0,u,0.0,False,657.6999998092651,40.0,62.0,40.0,False,,267.5226707180451,[],"[960, 540]",ColorTask,12.0,20.0,,,HRV,HRV_0027,2022-11-30 17:56:45
,wl-rdm,28,124367,0.0-6.20-0.20,0.0,29.0,,,,,,,[],,,,,,62.5,1.0,i,1.0,True,544.2999999523163,33.0,62.0,40.0,False,,293.7083255452151,[],"[960, 540]",ColorTask,13.0,21.0,,,HRV,HRV_0027,2022-11-30 17:56:45
,wl-rdm,29,126200,0.0-6.21-0.21,0.0,30.0,,,,,,,[],,,,,,87.9,1.0,i,1.0,True,522.5,32.0,62.0,40.0,False,,237.8055529731119,[],"[960, 540]",ColorTask,14.0,22.0,,,HRV,HRV_0027,2022-11-30 17:56:45
,wl-rdm,30,128184,0.0-6.22-0.22,0.0,31.0,,,,,,,[],,,,,,62.5,0.0,i,1.0,False,521.3999998569489,32.0,62.0,40.0,False,,379.06227806084536,[],"[960, 540]",ColorTask,13.0,23.0,,,HRV,HRV_0027,2022-11-30 17:56:45
,wl-rdm,31,130150,0.0-6.23-0.23,0.0,32.0,,,,,,,[],,,,,,87.9,0.0,u,0.0,True,605.2000000476837,37.0,62.0,40.0,False,,278.1545478203803,[],"[960, 540]",ColorTask,14.0,24.0,,,HRV,HRV_0027,2022-11-30 17:56:45
,wl-rdm,32,131983,0.0-6.24-0.24,0.0,33.0,,,,,,,[],,,,,,87.9,0.0,u,0.0,True,509.80000019073486,31.0,62.0,40.0,False,,234.19994180946065,[],"[960, 540]",ColorTask,15.0,25.0,,,HRV,HRV_0027,2022-11-30 17:56:45
,wl-rdm,33,133885,0.0-6.25-0.25,0.0,34.0,,,,,,,[],,,,,,87.9,1.0,i,1.0,True,514.8000001907349,31.0,62.0,40.0,False,,319.6557900852719,[],"[960, 540]",ColorTask,16.0,26.0,,,HRV,HRV_0027,2022-11-30 17:56:45
,wl-rdm,34,135800,0.0-6.26-0.26,0.0,35.0,,,,,,,[],,,,,,50.0,0.0,i,1.0,False,521.0,32.0,62.0,40.0,False,,311.27234383153694,[],"[960, 540]",ColorTask,15.0,27.0,,,HRV,HRV_0027,2022-11-30 17:56:45
,wl-rdm,35,137700,0.0-6.27-0.27,0.0,36.0,,,,,,,[],,,,,,87.9,1.0,i,1.0,True,539.4000000953674,33.0,62.0,40.0,False,,278.40440878846994,[],"[960, 540]",ColorTask,16.0,28.0,,,HRV,HRV_0027,2022-11-30 17:56:45
,wl-rdm,36,139600,0.0-6.28-0.28,0.0,37.0,,,,,,,[],,,,,,73.6,0.0,i,1.0,False,610.0,37.0,62.0,40.0,False,,216.58208510848644,[],"[960, 540]",ColorTask,15.0,29.0,,,HRV,HRV_0027,2022-11-30 17:56:45
,wl-rdm,37,141633,0.0-6.29-0.29,0.0,38.0,,,,,,,[],,,,,,50.0,0.0,i,1.0,False,575.5,35.0,62.0,40.0,False,,368.23369747988994,[],"[960, 540]",ColorTask,14.0,30.0,,,HRV,HRV_0027,2022-11-30 17:56:45
,wl-rdm,38,143750,0.0-6.30-0.30,0.0,39.0,,,,,,,[],,,,,,62.5,0.0,u,0.0,True,671.2000000476837,41.0,62.0,40.0,False,,372.5785140185602,[],"[960, 540]",ColorTask,15.0,31.0,,,HRV,HRV_0027,2022-11-30 17:56:45
,wl-rdm,39,145784,0.0-6.31-0.31,0.0,40.0,,,,,,,[],,,,,,50.0,1.0,i,1.0,True,669.8000001907349,41.0,62.0,40.0,False,,297.39392500634386,[],"[960, 540]",ColorTask,16.0,32.0,,,HRV,HRV_0027,2022-11-30 17:56:45
,wl-rdm,40,147784,0.0-6.32-0.32,0.0,41.0,,,,,,,[],,,,,,62.5,1.0,i,1.0,True,604.5999999046326,37.0,62.0,40.0,False,,320.22912760532677,[],"[960, 540]",ColorTask,17.0,33.0,,,HRV,HRV_0027,2022-11-30 17:56:45
,wl-rdm,41,149767,0.0-6.33-0.33,0.0,42.0,,,,,,,[],,,,,,73.6,1.0,i,1.0,True,652.7000000476837,40.0,62.0,40.0,False,,234.18283685151295,[],"[960, 540]",ColorTask,18.0,34.0,,,HRV,HRV_0027,2022-11-30 17:56:45
,wl-rdm,42,151784,0.0-6.34-0.34,0.0,43.0,,,,,,,[],,,,,,73.6,1.0,i,1.0,True,570.7999999523163,35.0,62.0,40.0,False,,382.6499564997965,[],"[960, 540]",ColorTask,19.0,35.0,,,HRV,HRV_0027,2022-11-30 17:56:45
,wl-rdm,43,153817,0.0-6.35-0.35,0.0,44.0,,,,,,,[],,,,,,56.4,1.0,i,1.0,True,667.9000000953674,40.0,62.0,40.0,False,,284.9424603462647,[],"[960, 540]",ColorTask,20.0,36.0,,,HRV,HRV_0027,2022-11-30 17:56:45
,wl-rdm,44,155850,0.0-6.36-0.36,0.0,45.0,,,,,,,[],,,,,,50.0,0.0,i,1.0,False,638.1000001430511,39.0,62.0,40.0,False,,311.2901160489363,[],"[960, 540]",ColorTask,19.0,37.0,,,HRV,HRV_0027,2022-11-30 17:56:45
,wl-rdm,45,157866,0.0-6.37-0.37,0.0,46.0,,,,,,,[],,,,,,53.2,0.0,i,1.0,False,665.2999999523163,40.0,62.0,40.0,False,,271.99017722946553,[],"[960, 540]",ColorTask,18.0,38.0,,,HRV,HRV_0027,2022-11-30 17:56:45
,wl-rdm,46,159833,0.0-6.38-0.38,0.0,47.0,,,,,,,[],,,,,,56.4,0.0,i,1.0,False,667.0000002384186,40.0,62.0,40.0,False,,235.34021094902658,[],"[960, 540]",ColorTask,17.0,39.0,,,HRV,HRV_0027,2022-11-30 17:56:45
,wl-rdm,47,161716,0.0-6.39-0.39,0.0,48.0,,,,,,,[],,,,,,53.2,0.0,i,1.0,False,604.5999999046326,37.0,62.0,40.0,False,,214.2565399520737,[],"[960, 540]",ColorTask,16.0,40.0,,,HRV,HRV_0027,2022-11-30 17:56:45
,wl-rdm,48,163700,0.0-6.40-0.40,0.0,49.0,,,,,,,[],,,,,,53.2,1.0,i,1.0,True,639.0999999046326,39.0,62.0,40.0,False,,252.4459723870095,[],"[960, 540]",ColorTask,17.0,41.0,,,HRV,HRV_0027,2022-11-30 17:56:45
,wl-rdm,49,165734,0.0-6.41-0.41,0.0,50.0,,,,,,,[],,,,,,73.6,1.0,i,1.0,True,572.0,35.0,62.0,40.0,False,,398.2735267881659,[],"[960, 540]",ColorTask,18.0,42.0,,,HRV,HRV_0027,2022-11-30 17:56:45
,wl-rdm,50,167749,0.0-6.42-0.42,0.0,51.0,,,,,,,[],,,,,,62.5,1.0,i,1.0,True,588.6999998092651,36.0,62.0,40.0,False,,357.33644694054783,[],"[960, 540]",ColorTask,19.0,43.0,,,HRV,HRV_0027,2022-11-30 17:56:45
,wl-rdm,51,169899,0.0-6.43-0.43,0.0,52.0,,,,,,,[],,,,,,53.2,1.0,u,0.0,False,682.0999999046326,41.0,62.0,40.0,False,,385.22323962590605,[],"[960, 540]",ColorTask,18.0,44.0,,,HRV,HRV_0027,2022-11-30 17:56:45
,wl-rdm,52,172051,0.0-6.44-0.44,0.0,53.0,,,,,,,[],,,,,,53.2,1.0,i,1.0,True,742.4000000953674,45.0,62.0,40.0,False,,324.3808360439196,[],"[960, 540]",ColorTask,19.0,45.0,,,HRV,HRV_0027,2022-11-30 17:56:45
,wl-rdm,53,174050,0.0-6.45-0.45,0.0,54.0,,,,,,,[],,,,,,56.4,0.0,i,1.0,False,625.0,38.0,62.0,40.0,False,,296.45670608689966,[],"[960, 540]",ColorTask,18.0,46.0,,,HRV,HRV_0027,2022-11-30 17:56:45
,wl-rdm,54,176117,0.0-6.46-0.46,0.0,55.0,,,,,,,[],,,,,,87.9,1.0,i,1.0,True,655.7000000476837,40.0,62.0,40.0,False,,348.0176059531172,[],"[960, 540]",ColorTask,19.0,47.0,,,HRV,HRV_0027,2022-11-30 17:56:45
,wl-rdm,55,178085,0.0-6.47-0.47,0.0,56.0,,,,,,,[],,,,,,56.4,1.0,i,1.0,True,673.7999999523163,41.0,62.0,40.0,False,,214.69017060706344,[],"[960, 540]",ColorTask,20.0,48.0,,,HRV,HRV_0027,2022-11-30 17:56:45
,wl-rdm,56,180249,0.0-6.48-0.48,0.0,57.0,,,,,,,[],,,,,,50.0,0.0,u,0.0,True,883.7999999523163,53.0,62.0,40.0,False,,201.84793689268434,[],"[960, 540]",ColorTask,21.0,49.0,,,HRV,HRV_0027,2022-11-30 17:56:45
,wl-rdm,57,182400,0.0-6.49-0.49,0.0,58.0,,,,,,,[],,,,,,56.4,1.0,i,1.0,True,692.2999999523163,42.0,62.0,40.0,False,,383.07756985979324,[],"[960, 540]",ColorTask,22.0,50.0,,,HRV,HRV_0027,2022-11-30 17:56:45
,wl-rdm,58,184583,0.0-6.50-0.50,0.0,59.0,,,,,,,[],,,,,,53.2,0.0,u,0.0,True,721.7999999523163,44.0,62.0,40.0,False,,373.3195851046174,[],"[960, 540]",ColorTask,23.0,51.0,,,HRV,HRV_0027,2022-11-30 17:56:45
,wl-rdm,59,186766,0.0-6.51-0.51,0.0,60.0,,,,,,,[],,,,,,53.2,0.0,i,1.0,False,778.9999997615814,47.0,62.0,40.0,False,,329.64107033917344,[],"[960, 540]",ColorTask,22.0,52.0,,,HRV,HRV_0027,2022-11-30 17:56:45
,wl-rdm,60,188700,0.0-6.52-0.52,0.0,61.0,,,,,,,[],,,,,,87.9,0.0,u,0.0,True,599.3000001907349,36.0,62.0,40.0,False,,253.48279594389615,[],"[960, 540]",ColorTask,23.0,53.0,,,HRV,HRV_0027,2022-11-30 17:56:45
,wl-rdm,61,190733,0.0-6.53-0.53,0.0,62.0,,,,,,,[],,,,,,53.2,1.0,i,1.0,True,579.8000001907349,35.0,62.0,40.0,False,,379.1019517381874,[],"[960, 540]",ColorTask,24.0,54.0,,,HRV,HRV_0027,2022-11-30 17:56:45
,wl-rdm,62,192899,0.0-6.54-0.54,0.0,63.0,,,,,,,[],,,,,,62.5,0.0,i,1.0,False,823.2000000476837,50.0,62.0,40.0,False,,250.91186336024472,[],"[960, 540]",ColorTask,23.0,55.0,,,HRV,HRV_0027,2022-11-30 17:56:45
,wl-rdm,63,194917,0.0-6.55-0.55,0.0,64.0,,,,,,,[],,,,,,87.9,1.0,u,0.0,False,589.6000001430511,36.0,62.0,40.0,False,,334.00828056608316,[],"[960, 540]",ColorTask,22.0,56.0,,,HRV,HRV_0027,2022-11-30 17:56:45
,wl-rdm,64,196983,0.0-6.56-0.56,0.0,65.0,,,,,,,[],,,,,,56.4,1.0,i,1.0,True,721.2999999523163,44.0,62.0,40.0,False,,264.45187946775434,[],"[960, 540]",ColorTask,23.0,57.0,,,HRV,HRV_0027,2022-11-30 17:56:45
,wl-rdm,65,199049,0.0-6.57-0.57,0.0,66.0,,,,,,,[],,,,,,62.5,0.0,u,0.0,True,770.1999998092651,47.0,62.0,40.0,False,,203.96329037166822,[],"[960, 540]",ColorTask,24.0,58.0,,,HRV,HRV_0027,2022-11-30 17:56:45
,wl-rdm,66,201133,0.0-6.58-0.58,0.0,67.0,,,,,,,[],,,,,,62.5,1.0,i,1.0,True,745.7999999523163,45.0,62.0,40.0,False,,273.0829578588057,[],"[960, 540]",ColorTask,25.0,59.0,,,HRV,HRV_0027,2022-11-30 17:56:45
,wl-rdm,67,203334,0.0-6.59-0.59,0.0,68.0,,,,,,,[],,,,,,50.0,1.0,i,1.0,True,822.9999997615814,50.0,62.0,40.0,False,,290.1868011688781,[],"[960, 540]",ColorTask,26.0,60.0,,,HRV,HRV_0027,2022-11-30 17:56:45
,wl-rdm,68,205400,0.0-6.60-0.60,0.0,69.0,,,,,,,[],,,,,,50.0,0.0,u,0.0,True,738.8999998569489,45.0,62.0,40.0,False,,258.72037358416065,[],"[960, 540]",ColorTask,27.0,61.0,,,HRV,HRV_0027,2022-11-30 17:56:45
,wl-rdm,69,207666,0.0-6.61-0.61,0.0,70.0,,,,,,,[],,,,,,53.2,0.0,i,1.0,False,841.7999999523163,51.0,62.0,40.0,False,,342.9939143470156,[],"[960, 540]",ColorTask,26.0,62.0,,,HRV,HRV_0027,2022-11-30 17:56:45
,wl-rdm,70,209650,0.0-6.62-0.62,0.0,71.0,,,,,,,[],,,,,,87.9,0.0,u,0.0,True,607.6000001430511,37.0,62.0,40.0,False,,310.2129887196687,[],"[960, 540]",ColorTask,27.0,63.0,,,HRV,HRV_0027,2022-11-30 17:56:45
,wl-rdm,71,211666,0.0-6.63-0.63,0.0,72.0,,,,,,,[],,,,,,50.0,0.0,i,1.0,False,707.6000001430511,43.0,62.0,40.0,False,,248.9297385034754,[],"[960, 540]",ColorTask,26.0,64.0,,,HRV,HRV_0027,2022-11-30 17:56:45
,wl-rdm,72,213749,0.0-6.64-0.64,0.0,73.0,,,,,,,[],,,,,,62.5,0.0,u,0.0,True,738.7000000476837,45.0,62.0,40.0,False,,259.0922985376017,[],"[960, 540]",ColorTask,27.0,65.0,,,HRV,HRV_0027,2022-11-30 17:56:45
,wl-rdm,73,215899,0.0-6.65-0.65,0.0,74.0,,,,,,,[],,,,,,56.4,1.0,i,1.0,True,681.1999998092651,41.0,62.0,40.0,False,,399.3255013804452,[],"[960, 540]",ColorTask,28.0,66.0,,,HRV,HRV_0027,2022-11-30 17:56:45
,wl-rdm,74,218100,0.0-6.66-0.66,0.0,75.0,,,,,,,[],,,,,,56.4,0.0,u,0.0,True,840.8999998569489,51.0,62.0,40.0,False,,282.41924152380824,[],"[960, 540]",ColorTask,29.0,67.0,,,HRV,HRV_0027,2022-11-30 17:56:45
,wl-rdm,75,220233,0.0-6.67-0.67,0.0,76.0,,,,,,,[],,,,,,53.2,1.0,i,1.0,True,653.4000000953674,40.0,62.0,40.0,False,,385.9689088240753,[],"[960, 540]",ColorTask,30.0,68.0,,,HRV,HRV_0027,2022-11-30 17:56:45
,wl-rdm,76,222566,0.0-6.68-0.68,0.0,77.0,,,,,,,[],,,,,,53.2,0.0,u,0.0,True,856.8999998569489,52.0,62.0,40.0,False,,388.17056203186877,[],"[960, 540]",ColorTask,31.0,69.0,,,HRV,HRV_0027,2022-11-30 17:56:45
,wl-rdm,77,224632,0.0-6.69-0.69,0.0,78.0,,,,,,,[],,,,,,62.5,1.0,i,1.0,True,771.7000000476837,47.0,62.0,40.0,False,,215.2395920168583,[],"[960, 540]",ColorTask,32.0,70.0,,,HRV,HRV_0027,2022-11-30 17:56:45
,wl-rdm,78,226633,0.0-6.70-0.70,0.0,79.0,,,,,,,[],,,,,,73.6,1.0,i,1.0,True,700.4000000953674,42.0,62.0,40.0,False,,248.43729291590387,[],"[960, 540]",ColorTask,33.0,71.0,,,HRV,HRV_0027,2022-11-30 17:56:45
,wl-rdm,79,228683,0.0-6.71-0.71,0.0,80.0,,,,,,,[],,,,,,56.4,0.0,i,1.0,False,763.7000000476837,46.0,62.0,40.0,False,,231.68139839826222,[],"[960, 540]",ColorTask,32.0,72.0,,,HRV,HRV_0027,2022-11-30 17:56:45
,wl-rdm,80,230784,0.0-6.72-0.72,0.0,81.0,,,,,,,[],,,,,,56.4,1.0,u,0.0,False,693.7999999523163,42.0,62.0,40.0,False,,338.9903896835823,[],"[960, 540]",ColorTask,31.0,73.0,,,HRV,HRV_0027,2022-11-30 17:56:45
,wl-rdm,81,232882,0.0-6.73-0.73,0.0,82.0,,,,,,,[],,,,,,73.6,0.0,u,0.0,True,808.3999998569489,49.0,62.0,40.0,False,,215.7245881506697,[],"[960, 540]",ColorTask,32.0,74.0,,,HRV,HRV_0027,2022-11-30 17:56:45
,wl-rdm,82,235065,0.0-6.74-0.74,0.0,83.0,,,,,,,[],,,,,,87.9,0.0,u,0.0,True,849.2999999523163,51.0,62.0,40.0,False,,280.14956987164373,[],"[960, 540]",ColorTask,33.0,75.0,,,HRV,HRV_0027,2022-11-30 17:56:45
,wl-rdm,83,237332,0.0-6.75-0.75,0.0,84.0,,,,,,,[],,,,,,56.4,0.0,u,0.0,True,922.8000001907349,56.0,62.0,40.0,False,,262.6848984805438,[],"[960, 540]",ColorTask,34.0,76.0,,,HRV,HRV_0027,2022-11-30 17:56:45
,wl-rdm,84,239332,0.0-6.76-0.76,0.0,85.0,,,,,,,[],,,,,,56.4,0.0,i,1.0,False,656.3000001907349,40.0,62.0,40.0,False,,261.5965215307238,[],"[960, 540]",ColorTask,33.0,77.0,,,HRV,HRV_0027,2022-11-30 17:56:45
,wl-rdm,85,241398,0.0-6.77-0.77,0.0,86.0,,,,,,,[],,,,,,50.0,1.0,u,0.0,False,738.5,45.0,62.0,40.0,False,,244.45352192993366,[],"[960, 540]",ColorTask,32.0,78.0,,,HRV,HRV_0027,2022-11-30 17:56:45
,wl-rdm,86,243550,0.0-6.78-0.78,0.0,87.0,,,,,,,[],,,,,,62.5,1.0,u,0.0,False,747.0999999046326,45.0,62.0,40.0,False,,322.3962332809501,[],"[960, 540]",ColorTask,31.0,79.0,,,HRV,HRV_0027,2022-11-30 17:56:45
,wl-rdm,87,245665,0.0-6.79-0.79,0.0,88.0,,,,,,,[],,,,,,53.2,1.0,i,1.0,True,824.3999998569489,50.0,62.0,40.0,False,,215.80686053503106,[],"[960, 540]",ColorTask,32.0,80.0,,,HRV,HRV_0027,2022-11-30 17:56:45
,wl-rdm,88,247867,0.0-6.80-0.80,0.0,89.0,,,,,,,[],,,,,,53.2,0.0,u,0.0,True,721.2999999523163,44.0,62.0,40.0,False,,392.404248892068,[],"[960, 540]",ColorTask,33.0,81.0,,,HRV,HRV_0027,2022-11-30 17:56:45
,wl-rdm,89,249965,0.0-6.81-0.81,0.0,90.0,,,,,,,[],,,,,,50.0,0.0,i,1.0,False,762.1999998092651,46.0,62.0,40.0,False,,275.99644503025195,[],"[960, 540]",ColorTask,32.0,82.0,,,HRV,HRV_0027,2022-11-30 17:56:45
,wl-rdm,90,252066,0.0-6.82-0.82,0.0,91.0,,,,,,,[],,,,,,62.5,0.0,u,0.0,True,657.4000000953674,40.0,62.0,40.0,False,,375.4725380193097,[],"[960, 540]",ColorTask,33.0,83.0,,,HRV,HRV_0027,2022-11-30 17:56:45
,wl-rdm,91,254165,0.0-6.83-0.83,0.0,92.0,,,,,,,[],,,,,,73.6,0.0,u,0.0,True,770.7000000476837,47.0,62.0,40.0,False,,262.6062564922267,[],"[960, 540]",ColorTask,34.0,84.0,,,HRV,HRV_0027,2022-11-30 17:56:45
,wl-rdm,92,256499,0.0-6.84-0.84,0.0,93.0,,,,,,,[],,,,,,50.0,1.0,u,0.0,False,906.6000001430511,55.0,62.0,40.0,False,,357.59957769368026,[],"[960, 540]",ColorTask,33.0,85.0,,,HRV,HRV_0027,2022-11-30 17:56:45
,wl-rdm,93,258566,0.0-6.85-0.85,0.0,94.0,,,,,,,[],,,,,,50.0,0.0,i,1.0,False,654.7000000476837,40.0,62.0,40.0,False,,342.3046824016981,[],"[960, 540]",ColorTask,32.0,86.0,,,HRV,HRV_0027,2022-11-30 17:56:45
,wl-rdm,94,260682,0.0-6.86-0.86,0.0,95.0,,,,,,,[],,,,,,56.4,1.0,u,0.0,False,816.4000000953674,49.0,62.0,40.0,False,,222.33623481666734,[],"[960, 540]",ColorTask,31.0,87.0,,,HRV,HRV_0027,2022-11-30 17:56:45
,wl-rdm,95,262698,0.0-6.87-0.87,0.0,96.0,,,,,,,[],,,,,,87.9,1.0,i,1.0,True,682.4000000953674,41.0,62.0,40.0,False,,257.48482740581437,[],"[960, 540]",ColorTask,32.0,88.0,,,HRV,HRV_0027,2022-11-30 17:56:45
,wl-rdm,96,264783,0.0-6.88-0.88,0.0,97.0,,,,,,,[],,,,,,73.6,0.0,u,0.0,True,745.9000000953674,45.0,62.0,40.0,False,,277.8520201994961,[],"[960, 540]",ColorTask,33.0,89.0,,,HRV,HRV_0027,2022-11-30 17:56:45
,wl-rdm,97,266882,0.0-6.89-0.89,0.0,98.0,,,,,,,[],,,,,,73.6,1.0,i,1.0,True,658.0,40.0,62.0,40.0,False,,383.2781664194888,[],"[960, 540]",ColorTask,34.0,90.0,,,HRV,HRV_0027,2022-11-30 17:56:45
,wl-rdm,98,268965,0.0-6.90-0.90,0.0,99.0,,,,,,,[],,,,,,50.0,0.0,i,1.0,False,720.2999999523163,44.0,62.0,40.0,False,,278.05202262047874,[],"[960, 540]",ColorTask,33.0,91.0,,,HRV,HRV_0027,2022-11-30 17:56:45
,wl-rdm,99,270948,0.0-6.91-0.91,0.0,100.0,,,,,,,[],,,,,,73.6,0.0,u,0.0,True,655.1999998092651,40.0,62.0,40.0,False,,250.0728030918253,[],"[960, 540]",ColorTask,34.0,92.0,,,HRV,HRV_0027,2022-11-30 17:56:45
,wl-rdm,100,272998,0.0-6.92-0.92,0.0,101.0,,,,,,,[],,,,,,56.4,1.0,i,1.0,True,720.7000000476837,44.0,62.0,40.0,False,,240.82351758575695,[],"[960, 540]",ColorTask,35.0,93.0,,,HRV,HRV_0027,2022-11-30 17:56:45
,wl-rdm,101,274965,0.0-6.93-0.93,0.0,102.0,,,,,,,[],,,,,,87.9,0.0,u,0.0,True,654.8999998569489,40.0,62.0,40.0,False,,216.56476297411794,[],"[960, 540]",ColorTask,36.0,94.0,,,HRV,HRV_0027,2022-11-30 17:56:45
,wl-rdm,102,276915,0.0-6.94-0.94,0.0,103.0,,,,,,,[],,,,,,87.9,1.0,i,1.0,True,673.9000000953674,41.0,62.0,40.0,False,,202.37373818150073,[],"[960, 540]",ColorTask,37.0,95.0,,,HRV,HRV_0027,2022-11-30 17:56:45
,wl-rdm,103,279082,0.0-6.95-0.95,0.0,104.0,,,,,,,[],,,,,,50.0,1.0,u,0.0,False,721.3999998569489,44.0,62.0,40.0,False,,362.17011787038314,[],"[960, 540]",ColorTask,36.0,96.0,,,HRV,HRV_0027,2022-11-30 17:56:45
,wl-rdm,104,281199,0.0-6.96-0.96,0.0,105.0,,,,,,,[],,,,,,87.9,0.0,u,0.0,True,827.2999999523163,50.0,62.0,40.0,False,,210.80660303099134,[],"[960, 540]",ColorTask,37.0,97.0,,,HRV,HRV_0027,2022-11-30 17:56:45
,wl-rdm,105,283165,0.0-6.97-0.97,0.0,106.0,,,,,,,[],,,,,,62.5,1.0,i,1.0,True,695.3999998569489,42.0,62.0,40.0,False,,209.29684487315134,[],"[960, 540]",ColorTask,38.0,98.0,,,HRV,HRV_0027,2022-11-30 17:56:45
,wl-rdm,106,285198,0.0-6.98-0.98,0.0,107.0,,,,,,,[],,,,,,87.9,1.0,i,1.0,True,561.2000000476837,34.0,62.0,40.0,False,,385.3799362603794,[],"[960, 540]",ColorTask,39.0,99.0,,,HRV,HRV_0027,2022-11-30 17:56:45
,wl-rdm,107,287215,0.0-6.99-0.99,0.0,108.0,,,,,,,[],,,,,,73.6,0.0,u,0.0,True,560.5,34.0,62.0,40.0,False,,386.98231122946737,[],"[960, 540]",ColorTask,40.0,100.0,,,HRV,HRV_0027,2022-11-30 17:56:45
,wl-rdm,108,289465,0.0-6.100-0.100,0.0,109.0,,,,,,,[],,,,,,73.6,0.0,u,0.0,True,823.0,50.0,62.0,40.0,False,,334.5366202980895,[],"[960, 540]",ColorTask,41.0,101.0,,,HRV,HRV_0027,2022-11-30 17:56:45
,wl-rdm,109,291781,0.0-6.101-0.101,0.0,110.0,,,,,,,[],,,,,,62.5,0.0,u,0.0,True,855.1000001430511,52.0,62.0,40.0,False,,386.0518497414031,[],"[960, 540]",ColorTask,42.0,102.0,,,HRV,HRV_0027,2022-11-30 17:56:45
,wl-rdm,110,293882,0.0-6.102-0.102,0.0,111.0,,,,,,,[],,,,,,62.5,0.0,u,0.0,True,721.3000001907349,44.0,62.0,40.0,False,,285.046672104377,[],"[960, 540]",ColorTask,43.0,103.0,,,HRV,HRV_0027,2022-11-30 17:56:45
,wl-rdm,111,295965,0.0-6.103-0.103,0.0,112.0,,,,,,,[],,,,,,53.2,1.0,u,0.0,False,763.0,46.0,62.0,40.0,False,,250.90270561861388,[],"[960, 540]",ColorTask,42.0,104.0,,,HRV,HRV_0027,2022-11-30 17:56:45
,wl-rdm,112,298164,0.0-6.104-0.104,0.0,113.0,,,,,,,[],,,,,,73.6,1.0,i,1.0,True,754.2999999523163,46.0,62.0,40.0,False,,356.39880128570314,[],"[960, 540]",ColorTask,43.0,105.0,,,HRV,HRV_0027,2022-11-30 17:56:45
,wl-rdm,113,300249,0.0-6.105-0.105,0.0,114.0,,,,,,,[],,,,,,50.0,1.0,i,1.0,True,769.7000000476837,47.0,62.0,40.0,False,,240.37564476774864,[],"[960, 540]",ColorTask,44.0,106.0,,,HRV,HRV_0027,2022-11-30 17:56:45
,wl-rdm,114,302314,0.0-6.106-0.106,0.0,115.0,,,,,,,[],,,,,,73.6,1.0,i,1.0,True,614.9000000953674,37.0,62.0,40.0,False,,394.07652113737504,[],"[960, 540]",ColorTask,45.0,107.0,,,HRV,HRV_0027,2022-11-30 17:56:45
,wl-rdm,115,304565,0.0-6.107-0.107,0.0,116.0,,,,,,,[],,,,,,56.4,0.0,i,1.0,False,905.3999998569489,55.0,62.0,40.0,False,,265.907727217711,[],"[960, 540]",ColorTask,44.0,108.0,,,HRV,HRV_0027,2022-11-30 17:56:45
,wl-html-keyboard-response,116,329388,0.0-7.0-0.0,1.0,117.0,,,,,,,,22815.299999952316,1.0,0,,,,,,,,,,,,,,,,,,,,,,HRV,HRV_0027,2022-11-30 17:56:45
,wl-rdm,117,331632,0.0-8.0-0.0,1.0,118.0,,,,,,,[],,,,,,53.2,0.0,u,0.0,True,961.2999997138977,58.0,62.0,40.0,False,,209.07201092783413,[],"[960, 540]",ColorTask,45.0,1.0,,,HRV,HRV_0027,2022-11-30 17:56:45
,wl-rdm,118,333564,0.0-8.1-0.1,1.0,119.0,,,,,,,[],,,,,,56.4,1.0,i,1.0,True,646.5999999046326,39.0,62.0,40.0,False,,216.94459157796027,[],"[960, 540]",ColorTask,46.0,2.0,,,HRV,HRV_0027,2022-11-30 17:56:45
,wl-rdm,119,335664,0.0-8.2-0.2,1.0,120.0,,,,,,,[],,,,,,62.5,1.0,i,1.0,True,676.2000000476837,41.0,62.0,40.0,False,,363.85323661953464,[],"[960, 540]",ColorTask,47.0,3.0,,,HRV,HRV_0027,2022-11-30 17:56:45
,wl-rdm,120,337714,0.0-8.3-0.3,1.0,121.0,,,,,,,[],,,,,,62.5,1.0,i,1.0,True,640.5,39.0,62.0,40.0,False,,347.0988658249247,[],"[960, 540]",ColorTask,48.0,4.0,,,HRV,HRV_0027,2022-11-30 17:56:45
,wl-rdm,121,339731,0.0-8.4-0.4,1.0,122.0,,,,,,,[],,,,,,62.5,0.0,i,1.0,False,623.9000000953674,38.0,62.0,40.0,False,,328.33205094599896,[],"[960, 540]",ColorTask,47.0,5.0,,,HRV,HRV_0027,2022-11-30 17:56:45
,wl-rdm,122,341865,0.0-8.5-0.5,1.0,123.0,,,,,,,[],,,,,,56.4,0.0,u,0.0,True,771.0999999046326,47.0,62.0,40.0,False,,274.0933395820989,[],"[960, 540]",ColorTask,48.0,6.0,,,HRV,HRV_0027,2022-11-30 17:56:45
,wl-rdm,123,343832,0.0-8.6-0.6,1.0,124.0,,,,,,,[],,,,,,73.6,1.0,i,1.0,True,689.5999999046326,42.0,62.0,40.0,False,,209.85189297724583,[],"[960, 540]",ColorTask,49.0,7.0,,,HRV,HRV_0027,2022-11-30 17:56:45
,wl-rdm,124,345780,0.0-8.7-0.7,1.0,125.0,,,,,,,[],,,,,,62.5,0.0,i,1.0,False,671.5,41.0,62.0,40.0,False,,213.34831317658205,[],"[960, 540]",ColorTask,48.0,8.0,,,HRV,HRV_0027,2022-11-30 17:56:45
,wl-rdm,125,347832,0.0-8.8-0.8,1.0,126.0,,,,,,,[],,,,,,56.4,0.0,i,1.0,False,669.5999999046326,41.0,62.0,40.0,False,,312.35936065731454,[],"[960, 540]",ColorTask,47.0,9.0,,,HRV,HRV_0027,2022-11-30 17:56:45
,wl-rdm,126,349731,0.0-8.9-0.9,1.0,127.0,,,,,,,[],,,,,,73.6,1.0,i,1.0,True,623.4000000953674,38.0,62.0,40.0,False,,215.0780784169636,[],"[960, 540]",ColorTask,48.0,10.0,,,HRV,HRV_0027,2022-11-30 17:56:45
,wl-rdm,127,351698,0.0-8.10-0.10,1.0,128.0,,,,,,,[],,,,,,62.5,0.0,i,1.0,False,691.8000001907349,42.0,62.0,40.0,False,,214.42124608699964,[],"[960, 540]",ColorTask,47.0,11.0,,,HRV,HRV_0027,2022-11-30 17:56:45
,wl-rdm,128,353765,0.0-8.11-0.11,1.0,129.0,,,,,,,[],,,,,,87.9,1.0,i,1.0,True,689.5,42.0,62.0,40.0,False,,290.01085916806403,[],"[960, 540]",ColorTask,48.0,12.0,,,HRV,HRV_0027,2022-11-30 17:56:45
,wl-rdm,129,355681,0.0-8.12-0.12,1.0,130.0,,,,,,,[],,,,,,56.4,1.0,i,1.0,True,626.0999999046326,38.0,62.0,40.0,False,,205.4540124267491,[],"[960, 540]",ColorTask,49.0,13.0,,,HRV,HRV_0027,2022-11-30 17:56:45
,wl-rdm,130,357698,0.0-8.13-0.13,1.0,131.0,,,,,,,[],,,,,,53.2,0.0,i,1.0,False,707.8999998569489,43.0,62.0,40.0,False,,226.97819995874704,[],"[960, 540]",ColorTask,48.0,14.0,,,HRV,HRV_0027,2022-11-30 17:56:45
,wl-rdm,131,359715,0.0-8.14-0.14,1.0,132.0,,,,,,,[],,,,,,73.6,0.0,u,0.0,True,623.5,38.0,62.0,40.0,False,,330.7293133869632,[],"[960, 540]",ColorTask,49.0,15.0,,,HRV,HRV_0027,2022-11-30 17:56:45
,wl-rdm,132,361597,0.0-8.15-0.15,1.0,133.0,,,,,,,[],,,,,,73.6,1.0,i,1.0,True,612.1999998092651,37.0,62.0,40.0,False,,207.46551182192437,[],"[960, 540]",ColorTask,50.0,16.0,,,HRV,HRV_0027,2022-11-30 17:56:45
,wl-rdm,133,363597,0.0-8.16-0.16,1.0,134.0,,,,,,,[],,,,,,87.9,1.0,i,1.0,True,611.8000001907349,37.0,62.0,40.0,False,,317.016995173381,[],"[960, 540]",ColorTask,51.0,17.0,,,HRV,HRV_0027,2022-11-30 17:56:45
,wl-rdm,134,365530,0.0-8.17-0.17,1.0,135.0,,,,,,,[],,,,,,73.6,0.0,u,0.0,True,648.6000001430511,39.0,62.0,40.0,False,,203.29862591204085,[],"[960, 540]",ColorTask,52.0,18.0,,,HRV,HRV_0027,2022-11-30 17:56:45
,wl-rdm,135,367614,0.0-8.18-0.18,1.0,136.0,,,,,,,[],,,,,,50.0,1.0,i,1.0,True,794.2999999523163,48.0,62.0,40.0,False,,233.3545867047052,[],"[960, 540]",ColorTask,53.0,19.0,,,HRV,HRV_0027,2022-11-30 17:56:45
,wl-rdm,136,369598,0.0-8.19-0.19,1.0,137.0,,,,,,,[],,,,,,50.0,1.0,i,1.0,True,663.2000000476837,40.0,62.0,40.0,False,,243.52326960543272,[],"[960, 540]",ColorTask,54.0,20.0,,,HRV,HRV_0027,2022-11-30 17:56:45
,wl-rdm,137,371781,0.0-8.20-0.20,1.0,138.0,,,,,,,[],,,,,,73.6,0.0,u,0.0,True,722.6000001430511,44.0,62.0,40.0,False,,373.8581146104658,[],"[960, 540]",ColorTask,55.0,21.0,,,HRV,HRV_0027,2022-11-30 17:56:45
,wl-rdm,138,373797,0.0-8.21-0.21,1.0,139.0,,,,,,,[],,,,,,62.5,1.0,i,1.0,True,721.2999999523163,44.0,62.0,40.0,False,,201.74921315792267,[],"[960, 540]",ColorTask,56.0,22.0,,,HRV,HRV_0027,2022-11-30 17:56:45
,wl-rdm,139,376030,0.0-8.22-0.22,1.0,140.0,,,,,,,[],,,,,,53.2,1.0,i,1.0,True,827.4000000953674,50.0,62.0,40.0,False,,346.7500576316057,[],"[960, 540]",ColorTask,57.0,23.0,,,HRV,HRV_0027,2022-11-30 17:56:45
,wl-rdm,140,378232,0.0-8.23-0.23,1.0,141.0,,,,,,,[],,,,,,56.4,0.0,i,1.0,False,737.0999999046326,45.0,62.0,40.0,False,,374.5359088833243,[],"[960, 540]",ColorTask,56.0,24.0,,,HRV,HRV_0027,2022-11-30 17:56:45
,wl-rdm,141,380214,0.0-8.24-0.24,1.0,142.0,,,,,,,[],,,,,,62.5,1.0,i,1.0,True,686.9000000953674,42.0,62.0,40.0,False,,217.77400886118045,[],"[960, 540]",ColorTask,57.0,25.0,,,HRV,HRV_0027,2022-11-30 17:56:45
,wl-rdm,142,382315,0.0-8.25-0.25,1.0,143.0,,,,,,,[],,,,,,50.0,1.0,i,1.0,True,682.5,41.0,62.0,40.0,False,,345.3382849767926,[],"[960, 540]",ColorTask,58.0,26.0,,,HRV,HRV_0027,2022-11-30 17:56:45
,wl-rdm,143,384298,0.0-8.26-0.26,1.0,144.0,,,,,,,[],,,,,,56.4,1.0,i,1.0,True,683.0999999046326,41.0,62.0,40.0,False,,218.14453131462378,[],"[960, 540]",ColorTask,59.0,27.0,,,HRV,HRV_0027,2022-11-30 17:56:45
,wl-rdm,144,386365,0.0-8.27-0.27,1.0,145.0,,,,,,,[],,,,,,62.5,1.0,u,0.0,False,731.0999999046326,44.0,62.0,40.0,False,,254.81225233240772,[],"[960, 540]",ColorTask,58.0,28.0,,,HRV,HRV_0027,2022-11-30 17:56:45
,wl-rdm,145,388330,0.0-8.28-0.28,1.0,146.0,,,,,,,[],,,,,,53.2,0.0,u,0.0,True,699.0000002384186,42.0,62.0,40.0,False,,214.55147009035687,[],"[960, 540]",ColorTask,59.0,29.0,,,HRV,HRV_0027,2022-11-30 17:56:45
,wl-rdm,146,390382,0.0-8.29-0.29,1.0,147.0,,,,,,,[],,,,,,87.9,0.0,u,0.0,True,730.0999999046326,44.0,62.0,40.0,False,,247.84946242473885,[],"[960, 540]",ColorTask,60.0,30.0,,,HRV,HRV_0027,2022-11-30 17:56:45
,wl-rdm,147,392382,0.0-8.30-0.30,1.0,148.0,,,,,,,[],,,,,,53.2,0.0,i,1.0,False,613.0,37.0,62.0,40.0,False,,317.14137214987096,[],"[960, 540]",ColorTask,59.0,31.0,,,HRV,HRV_0027,2022-11-30 17:56:45
,wl-rdm,148,394398,0.0-8.31-0.31,1.0,149.0,,,,,,,[],,,,,,73.6,1.0,i,1.0,True,630.0999999046326,38.0,62.0,40.0,False,,315.8578476776049,[],"[960, 540]",ColorTask,60.0,32.0,,,HRV,HRV_0027,2022-11-30 17:56:45
,wl-rdm,149,396514,0.0-8.32-0.32,1.0,150.0,,,,,,,[],,,,,,62.5,0.0,i,1.0,False,806.9000000953674,49.0,62.0,40.0,False,,246.8887598336251,[],"[960, 540]",ColorTask,59.0,33.0,,,HRV,HRV_0027,2022-11-30 17:56:45
,wl-rdm,150,398464,0.0-8.33-0.33,1.0,151.0,,,,,,,[],,,,,,73.6,0.0,u,0.0,True,627.0,38.0,62.0,40.0,False,,247.30503062900078,[],"[960, 540]",ColorTask,60.0,34.0,,,HRV,HRV_0027,2022-11-30 17:56:45
,wl-rdm,151,400480,0.0-8.34-0.34,1.0,152.0,,,,,,,[],,,,,,53.2,1.0,i,1.0,True,643.0000002384186,39.0,62.0,40.0,False,,292.9085793231943,[],"[960, 540]",ColorTask,61.0,35.0,,,HRV,HRV_0027,2022-11-30 17:56:45
,wl-rdm,152,402597,0.0-8.35-0.35,1.0,153.0,,,,,,,[],,,,,,56.4,1.0,i,1.0,True,755.7000002861023,46.0,62.0,40.0,False,,283.6194549344343,[],"[960, 540]",ColorTask,62.0,36.0,,,HRV,HRV_0027,2022-11-30 17:56:45
,wl-rdm,153,404981,0.0-8.36-0.36,1.0,154.0,,,,,,,[],,,,,,53.2,0.0,u,0.0,True,921.1999998092651,56.0,62.0,40.0,False,,399.73788583609075,[],"[960, 540]",ColorTask,63.0,37.0,,,HRV,HRV_0027,2022-11-30 17:56:45
,wl-rdm,154,406980,0.0-8.37-0.37,1.0,155.0,,,,,,,[],,,,,,56.4,0.0,u,0.0,True,671.7000000476837,41.0,62.0,40.0,False,,237.11234215176177,[],"[960, 540]",ColorTask,64.0,38.0,,,HRV,HRV_0027,2022-11-30 17:56:45
,wl-rdm,155,408930,0.0-8.38-0.38,1.0,156.0,,,,,,,[],,,,,,50.0,0.0,u,0.0,True,657.5,40.0,62.0,40.0,False,,227.74853969043215,[],"[960, 540]",ColorTask,65.0,39.0,,,HRV,HRV_0027,2022-11-30 17:56:45
,wl-rdm,156,411046,0.0-8.39-0.39,1.0,157.0,,,,,,,[],,,,,,53.2,1.0,i,1.0,True,789.0999999046326,48.0,62.0,40.0,False,,251.202643717635,[],"[960, 540]",ColorTask,66.0,40.0,,,HRV,HRV_0027,2022-11-30 17:56:45
,wl-rdm,157,413080,0.0-8.40-0.40,1.0,158.0,,,,,,,[],,,,,,50.0,1.0,i,1.0,True,723.2999999523163,44.0,62.0,40.0,False,,224.32811300945843,[],"[960, 540]",ColorTask,67.0,41.0,,,HRV,HRV_0027,2022-11-30 17:56:45
,wl-rdm,158,415031,0.0-8.41-0.41,1.0,159.0,,,,,,,[],,,,,,87.9,0.0,u,0.0,True,588.9000000953674,36.0,62.0,40.0,False,,287.2221249116237,[],"[960, 540]",ColorTask,68.0,42.0,,,HRV,HRV_0027,2022-11-30 17:56:45
,wl-rdm,159,417314,0.0-8.42-0.42,1.0,160.0,,,,,,,[],,,,,,56.4,1.0,i,1.0,True,875.7999999523163,53.0,62.0,40.0,False,,321.45347409293265,[],"[960, 540]",ColorTask,69.0,43.0,,,HRV,HRV_0027,2022-11-30 17:56:45
,wl-rdm,160,419463,0.0-8.43-0.43,1.0,161.0,,,,,,,[],,,,,,50.0,0.0,i,1.0,False,755.1999998092651,46.0,62.0,40.0,False,,313.3975197385104,[],"[960, 540]",ColorTask,68.0,44.0,,,HRV,HRV_0027,2022-11-30 17:56:45
,wl-rdm,161,421513,0.0-8.44-0.44,1.0,162.0,,,,,,,[],,,,,,53.2,1.0,i,1.0,True,716.0,43.0,62.0,40.0,False,,283.31775824112236,[],"[960, 540]",ColorTask,69.0,45.0,,,HRV,HRV_0027,2022-11-30 17:56:45
,wl-rdm,162,423446,0.0-8.45-0.45,1.0,163.0,,,,,,,[],,,,,,87.9,1.0,i,1.0,True,637.7999999523163,39.0,62.0,40.0,False,,226.9272820829931,[],"[960, 540]",ColorTask,70.0,46.0,,,HRV,HRV_0027,2022-11-30 17:56:45
,wl-rdm,163,425413,0.0-8.46-0.46,1.0,164.0,,,,,,,[],,,,,,50.0,1.0,i,1.0,True,657.0,40.0,62.0,40.0,False,,244.44135974979218,[],"[960, 540]",ColorTask,71.0,47.0,,,HRV,HRV_0027,2022-11-30 17:56:45
,wl-rdm,164,427413,0.0-8.47-0.47,1.0,165.0,,,,,,,[],,,,,,62.5,1.0,i,1.0,True,620.7000000476837,38.0,62.0,40.0,False,,306.70305735747627,[],"[960, 540]",ColorTask,72.0,48.0,,,HRV,HRV_0027,2022-11-30 17:56:45
,wl-rdm,165,429463,0.0-8.48-0.48,1.0,166.0,,,,,,,[],,,,,,50.0,0.0,i,1.0,False,752.3000001907349,46.0,62.0,40.0,False,,208.4154822056146,[],"[960, 540]",ColorTask,71.0,49.0,,,HRV,HRV_0027,2022-11-30 17:56:45
,wl-rdm,166,431446,0.0-8.49-0.49,1.0,167.0,,,,,,,[],,,,,,73.6,0.0,u,0.0,True,653.6000001430511,40.0,62.0,40.0,False,,254.8569322096656,[],"[960, 540]",ColorTask,72.0,50.0,,,HRV,HRV_0027,2022-11-30 17:56:45
,wl-rdm,167,433530,0.0-8.50-0.50,1.0,168.0,,,,,,,[],,,,,,50.0,0.0,u,0.0,True,682.9000000953674,41.0,62.0,40.0,False,,317.48606692597036,[],"[960, 540]",ColorTask,73.0,51.0,,,HRV,HRV_0027,2022-11-30 17:56:45
,wl-rdm,168,435630,0.0-8.51-0.51,1.0,169.0,,,,,,,[],,,,,,50.0,1.0,i,1.0,True,812.6000001430511,49.0,62.0,40.0,False,,215.85595745733292,[],"[960, 540]",ColorTask,74.0,52.0,,,HRV,HRV_0027,2022-11-30 17:56:45
,wl-rdm,169,437563,0.0-8.52-0.52,1.0,170.0,,,,,,,[],,,,,,87.9,1.0,i,1.0,True,647.3999998569489,39.0,62.0,40.0,False,,204.2326810587789,[],"[960, 540]",ColorTask,75.0,53.0,,,HRV,HRV_0027,2022-11-30 17:56:45
,wl-rdm,170,439496,0.0-8.53-0.53,1.0,171.0,,,,,,,[],,,,,,87.9,0.0,u,0.0,True,567.5,34.0,62.0,40.0,False,,300.2625697045842,[],"[960, 540]",ColorTask,76.0,54.0,,,HRV,HRV_0027,2022-11-30 17:56:45
,wl-rdm,171,441763,0.0-8.54-0.54,1.0,172.0,,,,,,,[],,,,,,50.0,0.0,i,1.0,False,823.0,50.0,62.0,40.0,False,,376.9050989738895,[],"[960, 540]",ColorTask,75.0,55.0,,,HRV,HRV_0027,2022-11-30 17:56:45
,wl-rdm,172,443779,0.0-8.55-0.55,1.0,173.0,,,,,,,[],,,,,,87.9,1.0,i,1.0,True,688.0999999046326,42.0,62.0,40.0,False,,251.1268297067287,[],"[960, 540]",ColorTask,76.0,56.0,,,HRV,HRV_0027,2022-11-30 17:56:45
,wl-rdm,173,445846,0.0-8.56-0.56,1.0,174.0,,,,,,,[],,,,,,56.4,1.0,i,1.0,True,637.0,39.0,62.0,40.0,False,,367.2570465601848,[],"[960, 540]",ColorTask,77.0,57.0,,,HRV,HRV_0027,2022-11-30 17:56:45
,wl-rdm,174,447797,0.0-8.57-0.57,1.0,175.0,,,,,,,[],,,,,,62.5,0.0,u,0.0,True,655.2000000476837,40.0,62.0,40.0,False,,200.15524978076465,[],"[960, 540]",ColorTask,78.0,58.0,,,HRV,HRV_0027,2022-11-30 17:56:45
,wl-rdm,175,449913,0.0-8.58-0.58,1.0,176.0,,,,,,,[],,,,,,73.6,0.0,u,0.0,True,767.2000000476837,46.0,62.0,40.0,False,,268.36616945203366,[],"[960, 540]",ColorTask,79.0,59.0,,,HRV,HRV_0027,2022-11-30 17:56:45
,wl-rdm,176,451830,0.0-8.59-0.59,1.0,177.0,,,,,,,[],,,,,,73.6,1.0,i,1.0,True,605.5,37.0,62.0,40.0,False,,224.91544607232268,[],"[960, 540]",ColorTask,80.0,60.0,,,HRV,HRV_0027,2022-11-30 17:56:45
,wl-rdm,177,453864,0.0-8.60-0.60,1.0,178.0,,,,,,,[],,,,,,50.0,0.0,u,0.0,True,705.0999999046326,43.0,62.0,40.0,False,,262.69676604706495,[],"[960, 540]",ColorTask,81.0,61.0,,,HRV,HRV_0027,2022-11-30 17:56:45
,wl-rdm,178,456129,0.0-8.61-0.61,1.0,179.0,,,,,,,[],,,,,,62.5,1.0,u,0.0,False,825.7000000476837,50.0,62.0,40.0,False,,353.6605122621051,[],"[960, 540]",ColorTask,80.0,62.0,,,HRV,HRV_0027,2022-11-30 17:56:45
,wl-rdm,179,458413,0.0-8.62-0.62,1.0,180.0,,,,,,,[],,,,,,53.2,0.0,u,0.0,True,813.4000000953674,49.0,62.0,40.0,False,,393.9708697904565,[],"[960, 540]",ColorTask,81.0,63.0,,,HRV,HRV_0027,2022-11-30 17:56:45
,wl-rdm,180,460479,0.0-8.63-0.63,1.0,181.0,,,,,,,[],,,,,,53.2,1.0,u,0.0,False,609.0,37.0,62.0,40.0,False,,395.0776318781606,[],"[960, 540]",ColorTask,80.0,64.0,,,HRV,HRV_0027,2022-11-30 17:56:45
,wl-rdm,181,462664,0.0-8.64-0.64,1.0,182.0,,,,,,,[],,,,,,56.4,0.0,u,0.0,True,770.2999999523163,47.0,62.0,40.0,False,,319.72938231581895,[],"[960, 540]",ColorTask,81.0,65.0,,,HRV,HRV_0027,2022-11-30 17:56:45
,wl-rdm,182,464563,0.0-8.65-0.65,1.0,183.0,,,,,,,[],,,,,,87.9,0.0,u,0.0,True,623.0,38.0,62.0,40.0,False,,214.3724276402453,[],"[960, 540]",ColorTask,82.0,66.0,,,HRV,HRV_0027,2022-11-30 17:56:45
,wl-rdm,183,466497,0.0-8.66-0.66,1.0,184.0,,,,,,,[],,,,,,73.6,1.0,i,1.0,True,543.1000001430511,33.0,62.0,40.0,False,,300.7267334659576,[],"[960, 540]",ColorTask,83.0,67.0,,,HRV,HRV_0027,2022-11-30 17:56:45
,wl-rdm,184,468546,0.0-8.67-0.67,1.0,185.0,,,,,,,[],,,,,,56.4,0.0,u,0.0,True,691.0999999046326,42.0,62.0,40.0,False,,278.8539162518919,[],"[960, 540]",ColorTask,84.0,68.0,,,HRV,HRV_0027,2022-11-30 17:56:45
,wl-rdm,185,470696,0.0-8.68-0.68,1.0,186.0,,,,,,,[],,,,,,56.4,0.0,u,0.0,True,737.1999998092651,45.0,62.0,40.0,False,,317.29436775308767,[],"[960, 540]",ColorTask,85.0,69.0,,,HRV,HRV_0027,2022-11-30 17:56:45
,wl-rdm,186,472829,0.0-8.69-0.69,1.0,187.0,,,,,,,[],,,,,,53.2,1.0,u,0.0,False,695.0,42.0,62.0,40.0,False,,363.6726943054608,[],"[960, 540]",ColorTask,84.0,70.0,,,HRV,HRV_0027,2022-11-30 17:56:45
,wl-rdm,187,474863,0.0-8.70-0.70,1.0,188.0,,,,,,,[],,,,,,53.2,0.0,u,0.0,True,711.0999999046326,43.0,62.0,40.0,False,,250.61576867001577,[],"[960, 540]",ColorTask,85.0,71.0,,,HRV,HRV_0027,2022-11-30 17:56:45
,wl-rdm,188,476846,0.0-8.71-0.71,1.0,189.0,,,,,,,[],,,,,,62.5,0.0,u,0.0,True,696.0,42.0,62.0,40.0,False,,200.42960453022818,[],"[960, 540]",ColorTask,86.0,72.0,,,HRV,HRV_0027,2022-11-30 17:56:45
,wl-rdm,189,478880,0.0-8.72-0.72,1.0,190.0,,,,,,,[],,,,,,73.6,1.0,i,1.0,True,691.7999999523163,42.0,62.0,40.0,False,,270.47796817899643,[],"[960, 540]",ColorTask,87.0,73.0,,,HRV,HRV_0027,2022-11-30 17:56:45
,wl-rdm,190,481163,0.0-8.73-0.73,1.0,191.0,,,,,,,[],,,,,,73.6,1.0,i,1.0,True,881.7000000476837,53.0,62.0,40.0,False,,347.69443271880846,[],"[960, 540]",ColorTask,88.0,74.0,,,HRV,HRV_0027,2022-11-30 17:56:45
,wl-rdm,191,483129,0.0-8.74-0.74,1.0,192.0,,,,,,,[],,,,,,87.9,1.0,i,1.0,True,604.2000000476837,37.0,62.0,40.0,False,,276.1033040500264,[],"[960, 540]",ColorTask,89.0,75.0,,,HRV,HRV_0027,2022-11-30 17:56:45
,wl-rdm,192,485229,0.0-8.75-0.75,1.0,193.0,,,,,,,[],,,,,,50.0,1.0,i,1.0,True,745.3999998569489,45.0,62.0,40.0,False,,275.78083957105787,[],"[960, 540]",ColorTask,90.0,76.0,,,HRV,HRV_0027,2022-11-30 17:56:45
,wl-rdm,193,487297,0.0-8.76-0.76,1.0,194.0,,,,,,,[],,,,,,53.2,1.0,i,1.0,True,692.2999999523163,42.0,62.0,40.0,False,,296.82883774610025,[],"[960, 540]",ColorTask,91.0,77.0,,,HRV,HRV_0027,2022-11-30 17:56:45
,wl-rdm,194,489430,0.0-8.77-0.77,1.0,195.0,,,,,,,[],,,,,,50.0,1.0,i,1.0,True,837.2000000476837,51.0,62.0,40.0,False,,229.29040902755708,[],"[960, 540]",ColorTask,92.0,78.0,,,HRV,HRV_0027,2022-11-30 17:56:45
,wl-rdm,195,491680,0.0-8.78-0.78,1.0,196.0,,,,,,,[],,,,,,73.6,1.0,i,1.0,True,794.0000002384186,48.0,62.0,40.0,False,,372.4056286756574,[],"[960, 540]",ColorTask,93.0,79.0,,,HRV,HRV_0027,2022-11-30 17:56:45
,wl-rdm,196,493779,0.0-8.79-0.79,1.0,197.0,,,,,,,[],,,,,,56.4,1.0,i,1.0,True,756.7000000476837,46.0,62.0,40.0,False,,272.8089719104077,[],"[960, 540]",ColorTask,94.0,80.0,,,HRV,HRV_0027,2022-11-30 17:56:45
,wl-rdm,197,495746,0.0-8.80-0.80,1.0,198.0,,,,,,,[],,,,,,87.9,0.0,u,0.0,True,624.7999999523163,38.0,62.0,40.0,False,,251.4174318208097,[],"[960, 540]",ColorTask,95.0,81.0,,,HRV,HRV_0027,2022-11-30 17:56:45
,wl-rdm,198,497845,0.0-8.81-0.81,1.0,199.0,,,,,,,[],,,,,,53.2,1.0,i,1.0,True,754.0,46.0,62.0,40.0,False,,275.31930067928255,[],"[960, 540]",ColorTask,96.0,82.0,,,HRV,HRV_0027,2022-11-30 17:56:45
,wl-rdm,199,499895,0.0-8.82-0.82,1.0,200.0,,,,,,,[],,,,,,87.9,0.0,u,0.0,True,688.4999997615814,42.0,62.0,40.0,False,,270.4550156078843,[],"[960, 540]",ColorTask,97.0,83.0,,,HRV,HRV_0027,2022-11-30 17:56:45
,wl-rdm,200,501963,0.0-8.83-0.83,1.0,201.0,,,,,,,[],,,,,,87.9,1.0,i,1.0,True,614.0,37.0,62.0,40.0,False,,387.38204140329435,[],"[960, 540]",ColorTask,98.0,84.0,,,HRV,HRV_0027,2022-11-30 17:56:45
,wl-rdm,201,504280,0.0-8.84-0.84,1.0,202.0,,,,,,,[],,,,,,56.4,1.0,u,0.0,False,1005.7000000476837,61.0,62.0,40.0,False,,244.86403630171228,[],"[960, 540]",ColorTask,97.0,85.0,,,HRV,HRV_0027,2022-11-30 17:56:45
,wl-rdm,202,506429,0.0-8.85-0.85,1.0,203.0,,,,,,,[],,,,,,56.4,1.0,i,1.0,True,845.5999999046326,51.0,62.0,40.0,False,,244.62995109875044,[],"[960, 540]",ColorTask,98.0,86.0,,,HRV,HRV_0027,2022-11-30 17:56:45
,wl-rdm,203,508613,0.0-8.86-0.86,1.0,204.0,,,,,,,[],,,,,,62.5,0.0,i,1.0,False,739.7999999523163,45.0,62.0,40.0,False,,361.03937851127836,[],"[960, 540]",ColorTask,97.0,87.0,,,HRV,HRV_0027,2022-11-30 17:56:45
,wl-rdm,204,510629,0.0-8.87-0.87,1.0,205.0,,,,,,,[],,,,,,50.0,0.0,u,0.0,True,538.3000001907349,33.0,62.0,40.0,False,,382.32306859168295,[],"[960, 540]",ColorTask,98.0,88.0,,,HRV,HRV_0027,2022-11-30 17:56:45
,wl-rdm,205,512595,0.0-8.88-0.88,1.0,206.0,,,,,,,[],,,,,,73.6,0.0,u,0.0,True,554.7000000476837,34.0,62.0,40.0,False,,343.3324940445408,[],"[960, 540]",ColorTask,99.0,89.0,,,HRV,HRV_0027,2022-11-30 17:56:45
,wl-rdm,206,514596,0.0-8.89-0.89,1.0,207.0,,,,,,,[],,,,,,50.0,0.0,u,0.0,True,639.5,39.0,62.0,40.0,False,,283.39225722976136,[],"[960, 540]",ColorTask,100.0,90.0,,,HRV,HRV_0027,2022-11-30 17:56:45
,wl-rdm,207,516595,0.0-8.90-0.90,1.0,208.0,,,,,,,[],,,,,,62.5,1.0,i,1.0,True,573.0,35.0,62.0,40.0,False,,344.66279242644083,[],"[960, 540]",ColorTask,101.0,91.0,,,HRV,HRV_0027,2022-11-30 17:56:45
,wl-rdm,208,518662,0.0-8.91-0.91,1.0,209.0,,,,,,,[],,,,,,56.4,0.0,u,0.0,True,771.8000001907349,47.0,62.0,40.0,False,,223.8145500916969,[],"[960, 540]",ColorTask,102.0,92.0,,,HRV,HRV_0027,2022-11-30 17:56:45
,wl-rdm,209,520662,0.0-8.92-0.92,1.0,210.0,,,,,,,[],,,,,,73.6,0.0,u,0.0,True,688.2000000476837,42.0,62.0,40.0,False,,244.44398527372908,[],"[960, 540]",ColorTask,103.0,93.0,,,HRV,HRV_0027,2022-11-30 17:56:45
,wl-rdm,210,522795,0.0-8.93-0.93,1.0,211.0,,,,,,,[],,,,,,62.5,0.0,u,0.0,True,747.2000000476837,45.0,62.0,40.0,False,,313.4625642331066,[],"[960, 540]",ColorTask,104.0,94.0,,,HRV,HRV_0027,2022-11-30 17:56:45
,wl-rdm,211,524762,0.0-8.94-0.94,1.0,212.0,,,,,,,[],,,,,,87.9,0.0,u,0.0,True,664.2999999523163,40.0,62.0,40.0,False,,242.8302281972845,[],"[960, 540]",ColorTask,105.0,95.0,,,HRV,HRV_0027,2022-11-30 17:56:45
,wl-rdm,212,526763,0.0-8.95-0.95,1.0,213.0,,,,,,,[],,,,,,62.5,1.0,i,1.0,True,666.2000000476837,40.0,62.0,40.0,False,,257.3262936775541,[],"[960, 540]",ColorTask,106.0,96.0,,,HRV,HRV_0027,2022-11-30 17:56:45
,wl-rdm,213,528762,0.0-8.96-0.96,1.0,214.0,,,,,,,[],,,,,,53.2,0.0,u,0.0,True,633.0,38.0,62.0,40.0,False,,294.33247555067067,[],"[960, 540]",ColorTask,107.0,97.0,,,HRV,HRV_0027,2022-11-30 17:56:45
,wl-rdm,214,530879,0.0-8.97-0.97,1.0,215.0,,,,,,,[],,,,,,56.4,0.0,u,0.0,True,777.4000000953674,47.0,62.0,40.0,False,,267.06576733848544,[],"[960, 540]",ColorTask,108.0,98.0,,,HRV,HRV_0027,2022-11-30 17:56:45
,wl-rdm,215,533013,0.0-8.98-0.98,1.0,216.0,,,,,,,[],,,,,,87.9,0.0,u,0.0,True,722.9999997615814,44.0,62.0,40.0,False,,321.3133533689836,[],"[960, 540]",ColorTask,109.0,99.0,,,HRV,HRV_0027,2022-11-30 17:56:45
,wl-rdm,216,535113,0.0-8.99-0.99,1.0,217.0,,,,,,,[],,,,,,53.2,1.0,u,0.0,False,686.7999999523163,42.0,62.0,40.0,False,,348.7693884695593,[],"[960, 540]",ColorTask,108.0,100.0,,,HRV,HRV_0027,2022-11-30 17:56:45
,wl-rdm,217,537079,0.0-8.100-0.100,1.0,218.0,,,,,,,[],,,,,,87.9,1.0,i,1.0,True,554.1000001430511,34.0,62.0,40.0,False,,342.4416654123304,[],"[960, 540]",ColorTask,109.0,101.0,,,HRV,HRV_0027,2022-11-30 17:56:45
,wl-rdm,218,538963,0.0-8.101-0.101,1.0,219.0,,,,,,,[],,,,,,87.9,0.0,u,0.0,True,590.6000001430511,36.0,62.0,40.0,False,,220.16402826556785,[],"[960, 540]",ColorTask,110.0,102.0,,,HRV,HRV_0027,2022-11-30 17:56:45
,wl-rdm,219,540996,0.0-8.102-0.102,1.0,220.0,,,,,,,[],,,,,,62.5,0.0,u,0.0,True,756.0,46.0,62.0,40.0,False,,200.79837347376218,[],"[960, 540]",ColorTask,111.0,103.0,,,HRV,HRV_0027,2022-11-30 17:56:45
,wl-rdm,220,543162,0.0-8.103-0.103,1.0,221.0,,,,,,,[],,,,,,50.0,0.0,u,0.0,True,798.1999998092651,48.0,62.0,40.0,False,,289.66364710570514,[],"[960, 540]",ColorTask,112.0,104.0,,,HRV,HRV_0027,2022-11-30 17:56:45
,wl-rdm,221,545179,0.0-8.104-0.104,1.0,222.0,,,,,,,[],,,,,,73.6,0.0,u,0.0,True,714.0,43.0,62.0,40.0,False,,220.14537854786778,[],"[960, 540]",ColorTask,113.0,105.0,,,HRV,HRV_0027,2022-11-30 17:56:45
,wl-rdm,222,547129,0.0-8.105-0.105,1.0,223.0,,,,,,,[],,,,,,50.0,1.0,u,0.0,False,655.4000000953674,40.0,62.0,40.0,False,,213.39121428523455,[],"[960, 540]",ColorTask,112.0,106.0,,,HRV,HRV_0027,2022-11-30 17:56:45
,wl-rdm,223,549164,0.0-8.106-0.106,1.0,224.0,,,,,,,[],,,,,,53.2,0.0,i,1.0,False,638.1000001430511,39.0,62.0,40.0,False,,310.78291227804846,[],"[960, 540]",ColorTask,111.0,107.0,,,HRV,HRV_0027,2022-11-30 17:56:45
,wl-rdm,224,551213,0.0-8.107-0.107,1.0,225.0,,,,,,,[],,,,,,87.9,1.0,i,1.0,True,647.4000000953674,39.0,62.0,40.0,False,,332.57641565437063,[],"[960, 540]",ColorTask,112.0,108.0,,,HRV,HRV_0027,2022-11-30 17:56:45
,wl-html-button-response,225,553956,0.0-9.0-0.0,,,,,,,,,,2739.7000000476837,,0,,,,,,,,,,,,,,,,,,,,<h3>End of this session. Thank you!</h3><br>,['Close window'],HRV,HRV_0027,2022-11-30 17:56:45
