trialN,stimuli,trialStartTime,trialStartTime_UNIX,stimulus1,stimulus2,stimulus1Bid,stimulus2Bid,delta,selected,rt,rt_UNIX,rt_perfnow,receivedResponse,rsp,trialEndTime,trialDuration,trialEndTime_UNIX,trialDuration_UNIX,exp,subjectId,date
0,"[{'imgObject': {}, 'id': 'pear', 'src': '/static/foodstim60/pear.jpg', 'key': 'u', 'origWidth': 411, 'origHeight': 410, 'width': 411, 'height': 410, 'widthPercent': 0.45, 'rescaleHeight': False, 'trialN': 0, 'loaded': True, 'loadedTime': 2328.100000143051, 'positionName': 'LEFT', 'positionCoords': [510.6, 335], 'bid': 4.97}, {'imgObject': {}, 'id': 'rigatoni', 'src': '/static/foodstim60/rigatoni.jpg', 'key': 'i', 'origWidth': 411, 'origHeight': 411, 'width': 411, 'height': 411, 'widthPercent': 0.45, 'rescaleHeight': False, 'trialN': 0, 'loaded': True, 'loadedTime': 2367.9000000953674, 'positionName': 'RIGHT', 'positionCoords': [998.4, 334.5], 'bid': 5.03}]",3253.9000000953674,1669830159258,pear,rigatoni,4.97,5.03,0.0600000000000005,rigatoni,931.2999999523163,932,931.5999999046326,True,i,4690.0,1436.0999999046326,1669830160694,1436,HRV,HRV_0027,2022-11-30 17:47:27
1,"[{'imgObject': {}, 'id': 'steak', 'src': '/static/foodstim60/steak.jpg', 'key': 'u', 'origWidth': 410, 'origHeight': 410, 'width': 410, 'height': 410, 'widthPercent': 0.45, 'rescaleHeight': False, 'trialN': 1, 'loaded': True, 'loadedTime': 2386.7999999523163, 'positionName': 'LEFT', 'positionCoords': [511.6, 335], 'bid': 8.44}, {'imgObject': {}, 'id': 'grilled chicken strips', 'src': '/static/foodstim60/grilled chicken strips.jpg', 'key': 'i', 'origWidth': 410, 'origHeight': 411, 'width': 410, 'height': 411, 'widthPercent': 0.45, 'rescaleHeight': False, 'trialN': 1, 'loaded': True, 'loadedTime': 2406.9000000953674, 'positionName': 'RIGHT', 'positionCoords': [998.4, 334.5], 'bid': 6.33}]",4690.200000047684,1669830160695,steak,grilled chicken strips,8.44,6.33,-2.1099999999999994,steak,712.0999999046326,712,712.5999999046326,True,u,5917.299999952316,1227.0999999046326,1669830161922,1227,HRV,HRV_0027,2022-11-30 17:47:27
2,"[{'imgObject': {}, 'id': 'shreddedwheatwithmilk', 'src': '/static/foodstim60/shreddedwheatwithmilk.jpg', 'key': 'u', 'origWidth': 410, 'origHeight': 410, 'width': 410, 'height': 410, 'widthPercent': 0.45, 'rescaleHeight': False, 'trialN': 2, 'loaded': True, 'loadedTime': 2440.9000000953674, 'positionName': 'LEFT', 'positionCoords': [511.6, 335], 'bid': 4.14}, {'imgObject': {}, 'id': 'hotdog w must', 'src': '/static/foodstim60/hotdog w must.jpg', 'key': 'i', 'origWidth': 409, 'origHeight': 409, 'width': 409, 'height': 409, 'widthPercent': 0.45, 'rescaleHeight': False, 'trialN': 2, 'loaded': True, 'loadedTime': 2444.5, 'positionName': 'RIGHT', 'positionCoords': [998.4, 335.5], 'bid': 5.01}]",5917.700000047684,1669830161922,shreddedwheatwithmilk,hotdog w must,4.14,5.01,0.8700000000000001,hotdog w must,1149.0,1150,1149.4000000953674,True,i,7571.600000143051,1653.9000000953674,1669830163576,1654,HRV,HRV_0027,2022-11-30 17:47:27
3,"[{'imgObject': {}, 'id': 'Tribe humus pita', 'src': '/static/foodstim60/Tribe humus pita.jpg', 'key': 'u', 'origWidth': 411, 'origHeight': 411, 'width': 411, 'height': 411, 'widthPercent': 0.45, 'rescaleHeight': False, 'trialN': 3, 'loaded': True, 'loadedTime': 2499.2000000476837, 'positionName': 'LEFT', 'positionCoords': [510.6, 334.5], 'bid': 5.69}, {'imgObject': {}, 'id': 'salmon', 'src': '/static/foodstim60/salmon.jpg', 'key': 'i', 'origWidth': 410, 'origHeight': 409, 'width': 410, 'height': 409, 'widthPercent': 0.45, 'rescaleHeight': False, 'trialN': 3, 'loaded': True, 'loadedTime': 2484.100000143051, 'positionName': 'RIGHT', 'positionCoords': [998.4, 335.5], 'bid': 7.72}]",7571.900000095367,1669830163576,Tribe humus pita,salmon,5.69,7.72,2.0299999999999994,salmon,966.5,967,966.8999998569489,True,i,9047.600000143051,1475.7000000476837,1669830165052,1476,HRV,HRV_0027,2022-11-30 17:47:27
4,"[{'imgObject': {}, 'id': 'salad w chicken', 'src': '/static/foodstim60/salad w chicken.jpg', 'key': 'u', 'origWidth': 411, 'origHeight': 411, 'width': 411, 'height': 411, 'widthPercent': 0.45, 'rescaleHeight': False, 'trialN': 4, 'loaded': True, 'loadedTime': 2534.7999999523163, 'positionName': 'LEFT', 'positionCoords': [510.6, 334.5], 'bid': 3.18}, {'imgObject': {}, 'id': 'mac & cheese', 'src': '/static/foodstim60/mac & cheese.jpg', 'key': 'i', 'origWidth': 410, 'origHeight': 410, 'width': 410, 'height': 410, 'widthPercent': 0.45, 'rescaleHeight': False, 'trialN': 4, 'loaded': True, 'loadedTime': 2551.600000143051, 'positionName': 'RIGHT', 'positionCoords': [998.4, 335], 'bid': 3.34}]",9047.900000095367,1669830165052,salad w chicken,mac & cheese,3.18,3.34,0.1599999999999997,salad w chicken,1426.8999998569489,1428,1427.5,True,u,10980.900000095367,1933.0,1669830166985,1933,HRV,HRV_0027,2022-11-30 17:47:27
5,"[{'imgObject': {}, 'id': 'blueberries', 'src': '/static/foodstim60/blueberries.jpg', 'key': 'u', 'origWidth': 411, 'origHeight': 411, 'width': 411, 'height': 411, 'widthPercent': 0.45, 'rescaleHeight': False, 'trialN': 5, 'loaded': True, 'loadedTime': 2581, 'positionName': 'LEFT', 'positionCoords': [510.6, 334.5], 'bid': 3.2}, {'imgObject': {}, 'id': 'salad w chicken', 'src': '/static/foodstim60/salad w chicken.jpg', 'key': 'i', 'origWidth': 411, 'origHeight': 411, 'width': 411, 'height': 411, 'widthPercent': 0.45, 'rescaleHeight': False, 'trialN': 5, 'loaded': True, 'loadedTime': 2530.7000000476837, 'positionName': 'RIGHT', 'positionCoords': [998.4, 334.5], 'bid': 3.18}]",10981.100000143051,1669830166986,blueberries,salad w chicken,3.2,3.18,-0.020000000000000018,salad w chicken,1236.1999998092651,1236,1236.3999998569489,True,i,12733.5,1752.3999998569489,1669830168738,1752,HRV,HRV_0027,2022-11-30 17:47:27
6,"[{'imgObject': {}, 'id': 'ice cream sundae 002', 'src': '/static/foodstim60/ice cream sundae 002.jpg', 'key': 'u', 'origWidth': 409, 'origHeight': 409, 'width': 409, 'height': 409, 'widthPercent': 0.45, 'rescaleHeight': False, 'trialN': 6, 'loaded': True, 'loadedTime': 2594, 'positionName': 'LEFT', 'positionCoords': [512.6, 335.5], 'bid': 3.12}, {'imgObject': {}, 'id': 'olives', 'src': '/static/foodstim60/olives.jpg', 'key': 'i', 'origWidth': 410, 'origHeight': 410, 'width': 410, 'height': 410, 'widthPercent': 0.45, 'rescaleHeight': False, 'trialN': 6, 'loaded': True, 'loadedTime': 2627.600000143051, 'positionName': 'RIGHT', 'positionCoords': [998.4, 335], 'bid': 2.03}]",12733.700000047684,1669830168738,ice cream sundae 002,olives,3.12,2.03,-1.0900000000000003,ice cream sundae 002,1499.9000000953674,1500,1500.2000000476837,True,u,14741.5,2007.7999999523163,1669830170746,2008,HRV,HRV_0027,2022-11-30 17:47:27
7,"[{'imgObject': {}, 'id': 'chickenfingers', 'src': '/static/foodstim60/chickenfingers.jpg', 'key': 'u', 'origWidth': 410, 'origHeight': 410, 'width': 410, 'height': 410, 'widthPercent': 0.45, 'rescaleHeight': False, 'trialN': 7, 'loaded': True, 'loadedTime': 2631.600000143051, 'positionName': 'LEFT', 'positionCoords': [511.6, 335], 'bid': 6.9}, {'imgObject': {}, 'id': 'burger', 'src': '/static/foodstim60/burger.jpg', 'key': 'i', 'origWidth': 409, 'origHeight': 409, 'width': 409, 'height': 409, 'widthPercent': 0.45, 'rescaleHeight': False, 'trialN': 7, 'loaded': True, 'loadedTime': 2664.7000000476837, 'positionName': 'RIGHT', 'positionCoords': [998.4, 335.5], 'bid': 5.82}]",14741.700000047684,1669830170746,chickenfingers,burger,6.9,5.82,-1.08,chickenfingers,1124.5,1125,1125.0999999046326,True,u,16376.0,1634.2999999523163,1669830172381,1635,HRV,HRV_0027,2022-11-30 17:47:27
8,"[{'imgObject': {}, 'id': 'raisin bran w milk', 'src': '/static/foodstim60/raisin bran w milk.jpg', 'key': 'u', 'origWidth': 411, 'origHeight': 411, 'width': 411, 'height': 411, 'widthPercent': 0.45, 'rescaleHeight': False, 'trialN': 8, 'loaded': True, 'loadedTime': 2697.100000143051, 'positionName': 'LEFT', 'positionCoords': [510.6, 334.5], 'bid': 3.69}, {'imgObject': {}, 'id': 'omelette', 'src': '/static/foodstim60/omelette.jpg', 'key': 'i', 'origWidth': 410, 'origHeight': 409, 'width': 410, 'height': 409, 'widthPercent': 0.45, 'rescaleHeight': False, 'trialN': 8, 'loaded': True, 'loadedTime': 2733.4000000953674, 'positionName': 'RIGHT', 'positionCoords': [998.4, 335.5], 'bid': 4.5}]",16376.400000095367,1669830172381,raisin bran w milk,omelette,3.69,4.5,0.81,omelette,1585.5,1586,1585.8999998569489,True,i,18475.60000014305,2099.2000000476837,1669830174480,2099,HRV,HRV_0027,2022-11-30 17:47:27
9,"[{'imgObject': {}, 'id': 'mashed potato', 'src': '/static/foodstim60/mashed potato.jpg', 'key': 'u', 'origWidth': 409, 'origHeight': 409, 'width': 409, 'height': 409, 'widthPercent': 0.45, 'rescaleHeight': False, 'trialN': 9, 'loaded': True, 'loadedTime': 2733.7000000476837, 'positionName': 'LEFT', 'positionCoords': [512.6, 335.5], 'bid': 2.6}, {'imgObject': {}, 'id': 'banana', 'src': '/static/foodstim60/banana.jpg', 'key': 'i', 'origWidth': 410, 'origHeight': 410, 'width': 410, 'height': 410, 'widthPercent': 0.45, 'rescaleHeight': False, 'trialN': 9, 'loaded': True, 'loadedTime': 2781, 'positionName': 'RIGHT', 'positionCoords': [998.4, 335], 'bid': 1.53}]",18475.700000047684,1669830174480,mashed potato,banana,2.6,1.53,-1.07,banana,1134.5,1135,1135.0999999046326,True,i,20126.799999952316,1651.0999999046326,1669830176131,1651,HRV,HRV_0027,2022-11-30 17:47:27
10,"[{'imgObject': {}, 'id': 'luckycharms', 'src': '/static/foodstim60/luckycharms.jpg', 'key': 'u', 'origWidth': 410, 'origHeight': 409, 'width': 410, 'height': 409, 'widthPercent': 0.45, 'rescaleHeight': False, 'trialN': 10, 'loaded': True, 'loadedTime': 2790.100000143051, 'positionName': 'LEFT', 'positionCoords': [511.6, 335.5], 'bid': 3.95}, {'imgObject': {}, 'id': 'lox', 'src': '/static/foodstim60/lox.jpg', 'key': 'i', 'origWidth': 410, 'origHeight': 411, 'width': 410, 'height': 411, 'widthPercent': 0.45, 'rescaleHeight': False, 'trialN': 10, 'loaded': True, 'loadedTime': 2820.4000000953674, 'positionName': 'RIGHT', 'positionCoords': [998.4, 334.5], 'bid': 4.14}]",20127.0,1669830176131,luckycharms,lox,3.95,4.14,0.1899999999999995,lox,1340.7999999523163,1342,1341.4000000953674,True,i,21979.799999952316,1852.7999999523163,1669830177984,1853,HRV,HRV_0027,2022-11-30 17:47:27
11,"[{'imgObject': {}, 'id': 'hashbrowns', 'src': '/static/foodstim60/hashbrowns.jpg', 'key': 'u', 'origWidth': 411, 'origHeight': 410, 'width': 411, 'height': 410, 'widthPercent': 0.45, 'rescaleHeight': False, 'trialN': 11, 'loaded': True, 'loadedTime': 2840.2000000476837, 'positionName': 'LEFT', 'positionCoords': [510.6, 335], 'bid': 3.28}, {'imgObject': {}, 'id': 'Grapes', 'src': '/static/foodstim60/Grapes.jpg', 'key': 'i', 'origWidth': 411, 'origHeight': 411, 'width': 411, 'height': 411, 'widthPercent': 0.45, 'rescaleHeight': False, 'trialN': 11, 'loaded': True, 'loadedTime': 2874.5, 'positionName': 'RIGHT', 'positionCoords': [998.4, 334.5], 'bid': 3.09}]",21980.0,1669830177984,hashbrowns,Grapes,3.28,3.09,-0.18999999999999995,Grapes,1232.0,1233,1232.6000001430511,True,i,23724.400000095367,1744.4000000953674,1669830179729,1745,HRV,HRV_0027,2022-11-30 17:47:27
12,"[{'imgObject': {}, 'id': 'raisin bran w milk', 'src': '/static/foodstim60/raisin bran w milk.jpg', 'key': 'u', 'origWidth': 411, 'origHeight': 411, 'width': 411, 'height': 411, 'widthPercent': 0.45, 'rescaleHeight': False, 'trialN': 12, 'loaded': True, 'loadedTime': 2693.2999999523163, 'positionName': 'LEFT', 'positionCoords': [510.6, 334.5], 'bid': 3.69}, {'imgObject': {}, 'id': 'lox', 'src': '/static/foodstim60/lox.jpg', 'key': 'i', 'origWidth': 410, 'origHeight': 411, 'width': 410, 'height': 411, 'widthPercent': 0.45, 'rescaleHeight': False, 'trialN': 12, 'loaded': True, 'loadedTime': 2820.600000143051, 'positionName': 'RIGHT', 'positionCoords': [998.4, 334.5], 'bid': 4.14}]",23724.60000014305,1669830179729,raisin bran w milk,lox,3.69,4.14,0.44999999999999973,lox,1181.3999998569489,1182,1181.7999999523163,True,i,25421.10000014305,1696.5,1669830181426,1697,HRV,HRV_0027,2022-11-30 17:47:27
13,"[{'imgObject': {}, 'id': 'eggs', 'src': '/static/foodstim60/eggs.jpg', 'key': 'u', 'origWidth': 409, 'origHeight': 409, 'width': 409, 'height': 409, 'widthPercent': 0.45, 'rescaleHeight': False, 'trialN': 13, 'loaded': True, 'loadedTime': 2884.2999999523163, 'positionName': 'LEFT', 'positionCoords': [512.6, 335.5], 'bid': 3.31}, {'imgObject': {}, 'id': 'mac & cheese', 'src': '/static/foodstim60/mac & cheese.jpg', 'key': 'i', 'origWidth': 410, 'origHeight': 410, 'width': 410, 'height': 410, 'widthPercent': 0.45, 'rescaleHeight': False, 'trialN': 13, 'loaded': True, 'loadedTime': 2543, 'positionName': 'RIGHT', 'positionCoords': [998.4, 335], 'bid': 3.34}]",25421.299999952316,1669830181426,eggs,mac & cheese,3.31,3.34,0.029999999999999805,eggs,1468.0,1468,1468.2000000476837,True,u,27394.900000095367,1973.6000001430511,1669830183399,1973,HRV,HRV_0027,2022-11-30 17:47:27
14,"[{'imgObject': {}, 'id': 'fruitsalad', 'src': '/static/foodstim60/fruitsalad.jpg', 'key': 'u', 'origWidth': 410, 'origHeight': 410, 'width': 410, 'height': 410, 'widthPercent': 0.45, 'rescaleHeight': False, 'trialN': 14, 'loaded': True, 'loadedTime': 2894.2999999523163, 'positionName': 'LEFT', 'positionCoords': [511.6, 335], 'bid': 3.67}, {'imgObject': {}, 'id': 'salmon', 'src': '/static/foodstim60/salmon.jpg', 'key': 'i', 'origWidth': 410, 'origHeight': 409, 'width': 410, 'height': 409, 'widthPercent': 0.45, 'rescaleHeight': False, 'trialN': 14, 'loaded': True, 'loadedTime': 2491.7000000476837, 'positionName': 'RIGHT', 'positionCoords': [998.4, 335.5], 'bid': 7.72}]",27395.0,1669830183400,fruitsalad,salmon,3.67,7.72,4.05,salmon,743.1000001430511,743,743.6000001430511,True,i,28655.900000095367,1260.9000000953674,1669830184660,1260,HRV,HRV_0027,2022-11-30 17:47:27
15,"[{'imgObject': {}, 'id': 'froot loops w milk', 'src': '/static/foodstim60/froot loops w milk.jpg', 'key': 'u', 'origWidth': 410, 'origHeight': 410, 'width': 410, 'height': 410, 'widthPercent': 0.45, 'rescaleHeight': False, 'trialN': 15, 'loaded': True, 'loadedTime': 2911.2000000476837, 'positionName': 'LEFT', 'positionCoords': [511.6, 335], 'bid': 3.69}, {'imgObject': {}, 'id': 'sweetpotato', 'src': '/static/foodstim60/sweetpotato.jpg', 'key': 'i', 'origWidth': 410, 'origHeight': 410, 'width': 410, 'height': 410, 'widthPercent': 0.45, 'rescaleHeight': False, 'trialN': 15, 'loaded': True, 'loadedTime': 2950.9000000953674, 'positionName': 'RIGHT', 'positionCoords': [998.4, 335], 'bid': 3.68}]",28656.10000014305,1669830184661,froot loops w milk,sweetpotato,3.69,3.68,-0.009999999999999787,sweetpotato,1849.5,1849,1849.7999999523163,True,i,31009.10000014305,2353.0,1669830187014,2353,HRV,HRV_0027,2022-11-30 17:47:27
16,"[{'imgObject': {}, 'id': 'cherry tomato', 'src': '/static/foodstim60/cherry tomato.jpg', 'key': 'u', 'origWidth': 410, 'origHeight': 410, 'width': 410, 'height': 410, 'widthPercent': 0.45, 'rescaleHeight': False, 'trialN': 16, 'loaded': True, 'loadedTime': 2964.2999999523163, 'positionName': 'LEFT', 'positionCoords': [511.6, 335], 'bid': 1.78}, {'imgObject': {}, 'id': 'edamame', 'src': '/static/foodstim60/edamame.jpg', 'key': 'i', 'origWidth': 409, 'origHeight': 410, 'width': 409, 'height': 410, 'widthPercent': 0.45, 'rescaleHeight': False, 'trialN': 16, 'loaded': True, 'loadedTime': 2979.4000000953674, 'positionName': 'RIGHT', 'positionCoords': [998.4, 335], 'bid': 2.25}]",31009.400000095367,1669830187014,cherry tomato,edamame,1.78,2.25,0.47,cherry tomato,1497.5999999046326,1498,1498.2999999523163,True,u,33013.10000014305,2003.7000000476837,1669830189018,2004,HRV,HRV_0027,2022-11-30 17:47:27
17,"[{'imgObject': {}, 'id': 'cocktailshrimp', 'src': '/static/foodstim60/cocktailshrimp.jpg', 'key': 'u', 'origWidth': 410, 'origHeight': 410, 'width': 410, 'height': 410, 'widthPercent': 0.45, 'rescaleHeight': False, 'trialN': 17, 'loaded': True, 'loadedTime': 2986, 'positionName': 'LEFT', 'positionCoords': [511.6, 335], 'bid': 8.57}, {'imgObject': {}, 'id': 'burger', 'src': '/static/foodstim60/burger.jpg', 'key': 'i', 'origWidth': 409, 'origHeight': 409, 'width': 409, 'height': 409, 'widthPercent': 0.45, 'rescaleHeight': False, 'trialN': 17, 'loaded': True, 'loadedTime': 2664.9000000953674, 'positionName': 'RIGHT', 'positionCoords': [998.4, 335.5], 'bid': 5.82}]",33013.40000009537,1669830189018,cocktailshrimp,burger,8.57,5.82,-2.75,cocktailshrimp,1220.8999998569489,1221,1221.3999998569489,True,u,34743.799999952316,1730.3999998569489,1669830190748,1730,HRV,HRV_0027,2022-11-30 17:47:27
18,"[{'imgObject': {}, 'id': 'apple slices', 'src': '/static/foodstim60/apple slices.jpg', 'key': 'u', 'origWidth': 409, 'origHeight': 410, 'width': 409, 'height': 410, 'widthPercent': 0.45, 'rescaleHeight': False, 'trialN': 18, 'loaded': True, 'loadedTime': 3002.100000143051, 'positionName': 'LEFT', 'positionCoords': [512.6, 335], 'bid': 5.15}, {'imgObject': {}, 'id': 'froot loops w milk', 'src': '/static/foodstim60/froot loops w milk.jpg', 'key': 'i', 'origWidth': 410, 'origHeight': 410, 'width': 410, 'height': 410, 'widthPercent': 0.45, 'rescaleHeight': False, 'trialN': 18, 'loaded': True, 'loadedTime': 2924.100000143051, 'positionName': 'RIGHT', 'positionCoords': [998.4, 335], 'bid': 3.69}]",34744.200000047684,1669830190749,apple slices,froot loops w milk,5.15,3.69,-1.4600000000000004,apple slices,785.7000000476837,786,786.0,True,u,36034.10000014305,1289.9000000953674,1669830192039,1290,HRV,HRV_0027,2022-11-30 17:47:27
19,"[{'imgObject': {}, 'id': 'corn cob', 'src': '/static/foodstim60/corn cob.jpg', 'key': 'u', 'origWidth': 411, 'origHeight': 411, 'width': 411, 'height': 411, 'widthPercent': 0.45, 'rescaleHeight': False, 'trialN': 19, 'loaded': True, 'loadedTime': 3009.2999999523163, 'positionName': 'LEFT', 'positionCoords': [510.6, 334.5], 'bid': 2.97}, {'imgObject': {}, 'id': 'veggieswithdip', 'src': '/static/foodstim60/veggieswithdip.jpg', 'key': 'i', 'origWidth': 409, 'origHeight': 409, 'width': 409, 'height': 409, 'widthPercent': 0.45, 'rescaleHeight': False, 'trialN': 19, 'loaded': True, 'loadedTime': 3030.2999999523163, 'positionName': 'RIGHT', 'positionCoords': [998.4, 335.5], 'bid': 1.9}]",36034.200000047684,1669830192039,corn cob,veggieswithdip,2.97,1.9,-1.0700000000000003,corn cob,1255.4000000953674,1255,1255.7000000476837,True,u,37807.10000014305,1772.9000000953674,1669830193812,1773,HRV,HRV_0027,2022-11-30 17:47:27
20,"[{'imgObject': {}, 'id': 'cherries', 'src': '/static/foodstim60/cherries.jpg', 'key': 'u', 'origWidth': 410, 'origHeight': 411, 'width': 410, 'height': 411, 'widthPercent': 0.45, 'rescaleHeight': False, 'trialN': 20, 'loaded': True, 'loadedTime': 3043.7999999523163, 'positionName': 'LEFT', 'positionCoords': [511.6, 334.5], 'bid': 3.67}, {'imgObject': {}, 'id': 'shreddedwheatwithmilk', 'src': '/static/foodstim60/shreddedwheatwithmilk.jpg', 'key': 'i', 'origWidth': 410, 'origHeight': 410, 'width': 410, 'height': 410, 'widthPercent': 0.45, 'rescaleHeight': False, 'trialN': 20, 'loaded': True, 'loadedTime': 2433.5, 'positionName': 'RIGHT', 'positionCoords': [998.4, 335], 'bid': 4.14}]",37807.299999952316,1669830193812,cherries,shreddedwheatwithmilk,3.67,4.14,0.46999999999999975,shreddedwheatwithmilk,874.8000001907349,875,875.3000001907349,True,i,39191.200000047684,1383.9000000953674,1669830195196,1384,HRV,HRV_0027,2022-11-30 17:47:27
21,"[{'imgObject': {}, 'id': 'steak', 'src': '/static/foodstim60/steak.jpg', 'key': 'u', 'origWidth': 410, 'origHeight': 410, 'width': 410, 'height': 410, 'widthPercent': 0.45, 'rescaleHeight': False, 'trialN': 21, 'loaded': True, 'loadedTime': 2390.2999999523163, 'positionName': 'LEFT', 'positionCoords': [511.6, 335], 'bid': 8.44}, {'imgObject': {}, 'id': 'bagel plain', 'src': '/static/foodstim60/bagel plain.jpg', 'key': 'i', 'origWidth': 410, 'origHeight': 410, 'width': 410, 'height': 410, 'widthPercent': 0.45, 'rescaleHeight': False, 'trialN': 21, 'loaded': True, 'loadedTime': 3057.7000000476837, 'positionName': 'RIGHT', 'positionCoords': [998.4, 335], 'bid': 7.21}]",39191.5,1669830195196,steak,bagel plain,8.44,7.21,-1.2299999999999995,steak,1330.7000000476837,1331,1331.2999999523163,True,u,41029.0,1837.5,1669830197033,1837,HRV,HRV_0027,2022-11-30 17:47:27
22,"[{'imgObject': {}, 'id': 'avocado', 'src': '/static/foodstim60/avocado.jpg', 'key': 'u', 'origWidth': 409, 'origHeight': 409, 'width': 409, 'height': 409, 'widthPercent': 0.45, 'rescaleHeight': False, 'trialN': 22, 'loaded': True, 'loadedTime': 3071.100000143051, 'positionName': 'LEFT', 'positionCoords': [512.6, 335.5], 'bid': 1.61}, {'imgObject': {}, 'id': 'blackbeanswithrice', 'src': '/static/foodstim60/blackbeanswithrice.jpg', 'key': 'i', 'origWidth': 410, 'origHeight': 410, 'width': 410, 'height': 410, 'widthPercent': 0.45, 'rescaleHeight': False, 'trialN': 22, 'loaded': True, 'loadedTime': 3093.4000000953674, 'positionName': 'RIGHT', 'positionCoords': [998.4, 335], 'bid': 2.2}]",41029.10000014305,1669830197034,avocado,blackbeanswithrice,1.61,2.2,0.5900000000000001,blackbeanswithrice,1750.0,1750,1750.5999999046326,True,i,43281.299999952316,2252.199999809265,1669830199286,2252,HRV,HRV_0027,2022-11-30 17:47:27
23,"[{'imgObject': {}, 'id': 'cantaloupe', 'src': '/static/foodstim60/cantaloupe.jpg', 'key': 'u', 'origWidth': 409, 'origHeight': 409, 'width': 409, 'height': 409, 'widthPercent': 0.45, 'rescaleHeight': False, 'trialN': 23, 'loaded': True, 'loadedTime': 3102.2000000476837, 'positionName': 'LEFT', 'positionCoords': [512.6, 335.5], 'bid': 2.17}, {'imgObject': {}, 'id': 'kiwi', 'src': '/static/foodstim60/kiwi.jpg', 'key': 'i', 'origWidth': 410, 'origHeight': 410, 'width': 410, 'height': 410, 'widthPercent': 0.45, 'rescaleHeight': False, 'trialN': 23, 'loaded': True, 'loadedTime': 3116.2000000476837, 'positionName': 'RIGHT', 'positionCoords': [998.4, 335], 'bid': 2}]",43281.5,1669830199286,cantaloupe,kiwi,2.17,2.0,-0.16999999999999993,cantaloupe,1111.5,1112,1111.9000000953674,True,u,44897.0,1615.5,1669830200902,1616,HRV,HRV_0027,2022-11-30 17:47:27
24,"[{'imgObject': {}, 'id': 'fried eggs', 'src': '/static/foodstim60/fried eggs.jpg', 'key': 'u', 'origWidth': 410, 'origHeight': 410, 'width': 410, 'height': 410, 'widthPercent': 0.45, 'rescaleHeight': False, 'trialN': 24, 'loaded': True, 'loadedTime': 3116.5, 'positionName': 'LEFT', 'positionCoords': [511.6, 335], 'bid': 5.05}, {'imgObject': {}, 'id': 'apple slices', 'src': '/static/foodstim60/apple slices.jpg', 'key': 'i', 'origWidth': 409, 'origHeight': 410, 'width': 409, 'height': 410, 'widthPercent': 0.45, 'rescaleHeight': False, 'trialN': 24, 'loaded': True, 'loadedTime': 2993.7999999523163, 'positionName': 'RIGHT', 'positionCoords': [998.4, 335], 'bid': 5.15}]",44897.299999952316,1669830200902,fried eggs,apple slices,5.05,5.15,0.10000000000000053,fried eggs,936.7000000476837,937,937.3000001907349,True,u,46341.700000047684,1444.4000000953674,1669830202346,1444,HRV,HRV_0027,2022-11-30 17:47:27
25,"[{'imgObject': {}, 'id': 'sweetpotato', 'src': '/static/foodstim60/sweetpotato.jpg', 'key': 'u', 'origWidth': 410, 'origHeight': 410, 'width': 410, 'height': 410, 'widthPercent': 0.45, 'rescaleHeight': False, 'trialN': 25, 'loaded': True, 'loadedTime': 2938.5, 'positionName': 'LEFT', 'positionCoords': [511.6, 335], 'bid': 3.68}, {'imgObject': {}, 'id': 'steak', 'src': '/static/foodstim60/steak.jpg', 'key': 'i', 'origWidth': 410, 'origHeight': 410, 'width': 410, 'height': 410, 'widthPercent': 0.45, 'rescaleHeight': False, 'trialN': 25, 'loaded': True, 'loadedTime': 2378.2000000476837, 'positionName': 'RIGHT', 'positionCoords': [998.4, 335], 'bid': 8.44}]",46341.90000009537,1669830202346,sweetpotato,steak,3.68,8.44,4.76,steak,788.2000000476837,789,788.5999999046326,True,i,47634.60000014305,1292.7000000476837,1669830203639,1293,HRV,HRV_0027,2022-11-30 17:47:27
26,"[{'imgObject': {}, 'id': 'bagel and cc', 'src': '/static/foodstim60/bagel and cc.jpg', 'key': 'u', 'origWidth': 410, 'origHeight': 410, 'width': 410, 'height': 410, 'widthPercent': 0.45, 'rescaleHeight': False, 'trialN': 26, 'loaded': True, 'loadedTime': 3140.2999999523163, 'positionName': 'LEFT', 'positionCoords': [511.6, 335], 'bid': 6.73}, {'imgObject': {}, 'id': 'grilled chicken strips', 'src': '/static/foodstim60/grilled chicken strips.jpg', 'key': 'i', 'origWidth': 410, 'origHeight': 411, 'width': 410, 'height': 411, 'widthPercent': 0.45, 'rescaleHeight': False, 'trialN': 26, 'loaded': True, 'loadedTime': 2403.100000143051, 'positionName': 'RIGHT', 'positionCoords': [998.4, 334.5], 'bid': 6.33}]",47634.60000014305,1669830203639,bagel and cc,grilled chicken strips,6.73,6.33,-0.40000000000000036,bagel and cc,1031.6999998092651,1032,1032.1999998092651,True,u,49175.60000014305,1541.0,1669830205180,1541,HRV,HRV_0027,2022-11-30 17:47:27
27,"[{'imgObject': {}, 'id': 'raisin bran w milk', 'src': '/static/foodstim60/raisin bran w milk.jpg', 'key': 'u', 'origWidth': 411, 'origHeight': 411, 'width': 411, 'height': 411, 'widthPercent': 0.45, 'rescaleHeight': False, 'trialN': 27, 'loaded': True, 'loadedTime': 2681, 'positionName': 'LEFT', 'positionCoords': [510.6, 334.5], 'bid': 3.69}, {'imgObject': {}, 'id': 'roastedpotatoes', 'src': '/static/foodstim60/roastedpotatoes.jpg', 'key': 'i', 'origWidth': 409, 'origHeight': 410, 'width': 409, 'height': 410, 'widthPercent': 0.45, 'rescaleHeight': False, 'trialN': 27, 'loaded': True, 'loadedTime': 3141.7000000476837, 'positionName': 'RIGHT', 'positionCoords': [998.4, 335], 'bid': 3.77}]",49175.799999952316,1669830205180,raisin bran w milk,roastedpotatoes,3.69,3.77,0.08000000000000007,raisin bran w milk,1265.5,1266,1265.6000001430511,True,u,50948.700000047684,1772.9000000953674,1669830206953,1773,HRV,HRV_0027,2022-11-30 17:47:27
28,"[{'imgObject': {}, 'id': 'rigatoni and sauce', 'src': '/static/foodstim60/rigatoni and sauce.jpg', 'key': 'u', 'origWidth': 410, 'origHeight': 411, 'width': 410, 'height': 411, 'widthPercent': 0.45, 'rescaleHeight': False, 'trialN': 28, 'loaded': True, 'loadedTime': 3152.2000000476837, 'positionName': 'LEFT', 'positionCoords': [511.6, 334.5], 'bid': 6.7}, {'imgObject': {}, 'id': 'burrito', 'src': '/static/foodstim60/burrito.jpg', 'key': 'i', 'origWidth': 410, 'origHeight': 410, 'width': 410, 'height': 410, 'widthPercent': 0.45, 'rescaleHeight': False, 'trialN': 28, 'loaded': True, 'loadedTime': 3158.4000000953674, 'positionName': 'RIGHT', 'positionCoords': [998.4, 335], 'bid': 4.37}]",50948.90000009537,1669830206953,rigatoni and sauce,burrito,6.7,4.37,-2.33,rigatoni and sauce,677.2999999523163,678,678.0,True,u,52139.700000047684,1190.7999999523163,1669830208144,1191,HRV,HRV_0027,2022-11-30 17:47:27
29,"[{'imgObject': {}, 'id': 'pear', 'src': '/static/foodstim60/pear.jpg', 'key': 'u', 'origWidth': 411, 'origHeight': 410, 'width': 411, 'height': 410, 'widthPercent': 0.45, 'rescaleHeight': False, 'trialN': 29, 'loaded': True, 'loadedTime': 2323.600000143051, 'positionName': 'LEFT', 'positionCoords': [510.6, 335], 'bid': 4.97}, {'imgObject': {}, 'id': 'bagel plain', 'src': '/static/foodstim60/bagel plain.jpg', 'key': 'i', 'origWidth': 410, 'origHeight': 410, 'width': 410, 'height': 410, 'widthPercent': 0.45, 'rescaleHeight': False, 'trialN': 29, 'loaded': True, 'loadedTime': 3057.5, 'positionName': 'RIGHT', 'positionCoords': [998.4, 335], 'bid': 7.21}]",52139.799999952316,1669830208144,pear,bagel plain,4.97,7.21,2.24,bagel plain,688.2000000476837,689,688.6000001430511,True,i,53337.40000009537,1197.6000001430511,1669830209342,1198,HRV,HRV_0027,2022-11-30 17:47:27
30,"[{'imgObject': {}, 'id': 'rigatoni and sauce', 'src': '/static/foodstim60/rigatoni and sauce.jpg', 'key': 'u', 'origWidth': 410, 'origHeight': 411, 'width': 410, 'height': 411, 'widthPercent': 0.45, 'rescaleHeight': False, 'trialN': 30, 'loaded': True, 'loadedTime': 3156.4000000953674, 'positionName': 'LEFT', 'positionCoords': [511.6, 334.5], 'bid': 6.7}, {'imgObject': {}, 'id': 'rigatoni', 'src': '/static/foodstim60/rigatoni.jpg', 'key': 'i', 'origWidth': 411, 'origHeight': 411, 'width': 411, 'height': 411, 'widthPercent': 0.45, 'rescaleHeight': False, 'trialN': 30, 'loaded': True, 'loadedTime': 2368.100000143051, 'positionName': 'RIGHT', 'positionCoords': [998.4, 334.5], 'bid': 5.03}]",53337.60000014305,1669830209342,rigatoni and sauce,rigatoni,6.7,5.03,-1.67,rigatoni and sauce,944.5999999046326,945,945.0,True,u,54784.40000009537,1446.7999999523163,1669830210789,1447,HRV,HRV_0027,2022-11-30 17:47:27
31,"[{'imgObject': {}, 'id': 'bagel and cc', 'src': '/static/foodstim60/bagel and cc.jpg', 'key': 'u', 'origWidth': 410, 'origHeight': 410, 'width': 410, 'height': 410, 'widthPercent': 0.45, 'rescaleHeight': False, 'trialN': 31, 'loaded': True, 'loadedTime': 3131.2999999523163, 'positionName': 'LEFT', 'positionCoords': [511.6, 335], 'bid': 6.73}, {'imgObject': {}, 'id': 'baked potato', 'src': '/static/foodstim60/baked potato.jpg', 'key': 'i', 'origWidth': 409, 'origHeight': 410, 'width': 409, 'height': 410, 'widthPercent': 0.45, 'rescaleHeight': False, 'trialN': 31, 'loaded': True, 'loadedTime': 3163.9000000953674, 'positionName': 'RIGHT', 'positionCoords': [998.4, 335], 'bid': 3.53}]",54784.60000014305,1669830210789,bagel and cc,baked potato,6.73,3.53,-3.2000000000000006,bagel and cc,714.0,715,714.6999998092651,True,u,56011.5,1226.8999998569489,1669830212016,1227,HRV,HRV_0027,2022-11-30 17:47:27
32,"[{'imgObject': {}, 'id': 'sushi w_condiments', 'src': '/static/foodstim60/sushi w_condiments.jpg', 'key': 'u', 'origWidth': 410, 'origHeight': 410, 'width': 410, 'height': 410, 'widthPercent': 0.45, 'rescaleHeight': False, 'trialN': 32, 'loaded': True, 'loadedTime': 3169.7000000476837, 'positionName': 'LEFT', 'positionCoords': [511.6, 335], 'bid': 4.13}, {'imgObject': {}, 'id': 'burger', 'src': '/static/foodstim60/burger.jpg', 'key': 'i', 'origWidth': 409, 'origHeight': 409, 'width': 409, 'height': 409, 'widthPercent': 0.45, 'rescaleHeight': False, 'trialN': 32, 'loaded': True, 'loadedTime': 2668.5, 'positionName': 'RIGHT', 'positionCoords': [998.4, 335.5], 'bid': 5.82}]",56011.700000047684,1669830212016,sushi w_condiments,burger,4.13,5.82,1.6900000000000004,burger,1086.5,1087,1086.9000000953674,True,i,57613.90000009537,1602.2000000476837,1669830213619,1603,HRV,HRV_0027,2022-11-30 17:47:27
33,"[{'imgObject': {}, 'id': 'burrito', 'src': '/static/foodstim60/burrito.jpg', 'key': 'u', 'origWidth': 410, 'origHeight': 410, 'width': 410, 'height': 410, 'widthPercent': 0.45, 'rescaleHeight': False, 'trialN': 33, 'loaded': True, 'loadedTime': 3158.100000143051, 'positionName': 'LEFT', 'positionCoords': [511.6, 335], 'bid': 4.37}, {'imgObject': {}, 'id': 'blackbeanswithrice', 'src': '/static/foodstim60/blackbeanswithrice.jpg', 'key': 'i', 'origWidth': 410, 'origHeight': 410, 'width': 410, 'height': 410, 'widthPercent': 0.45, 'rescaleHeight': False, 'trialN': 33, 'loaded': True, 'loadedTime': 3089.2000000476837, 'positionName': 'RIGHT', 'positionCoords': [998.4, 335], 'bid': 2.2}]",57614.200000047684,1669830213619,burrito,blackbeanswithrice,4.37,2.2,-2.17,burrito,1355.7999999523163,1356,1356.2000000476837,True,u,59481.60000014305,1867.4000000953674,1669830215486,1867,HRV,HRV_0027,2022-11-30 17:47:27
34,"[{'imgObject': {}, 'id': 'blackbeanswithrice', 'src': '/static/foodstim60/blackbeanswithrice.jpg', 'key': 'u', 'origWidth': 410, 'origHeight': 410, 'width': 410, 'height': 410, 'widthPercent': 0.45, 'rescaleHeight': False, 'trialN': 34, 'loaded': True, 'loadedTime': 3093.5, 'positionName': 'LEFT', 'positionCoords': [511.6, 335], 'bid': 2.2}, {'imgObject': {}, 'id': 'granola w milk', 'src': '/static/foodstim60/granola w milk.jpg', 'key': 'i', 'origWidth': 410, 'origHeight': 410, 'width': 410, 'height': 410, 'widthPercent': 0.45, 'rescaleHeight': False, 'trialN': 34, 'loaded': True, 'loadedTime': 3181.100000143051, 'positionName': 'RIGHT', 'positionCoords': [998.4, 335], 'bid': 2.39}]",59481.700000047684,1669830215486,blackbeanswithrice,granola w milk,2.2,2.39,0.18999999999999995,granola w milk,1343.4000000953674,1344,1343.7000000476837,True,i,61330.10000014305,1848.4000000953674,1669830217335,1849,HRV,HRV_0027,2022-11-30 17:47:27
35,"[{'imgObject': {}, 'id': 'chickenfingers', 'src': '/static/foodstim60/chickenfingers.jpg', 'key': 'u', 'origWidth': 410, 'origHeight': 410, 'width': 410, 'height': 410, 'widthPercent': 0.45, 'rescaleHeight': False, 'trialN': 35, 'loaded': True, 'loadedTime': 2652.4000000953674, 'positionName': 'LEFT', 'positionCoords': [511.6, 335], 'bid': 6.9}, {'imgObject': {}, 'id': 'bagel and cc', 'src': '/static/foodstim60/bagel and cc.jpg', 'key': 'i', 'origWidth': 410, 'origHeight': 410, 'width': 410, 'height': 410, 'widthPercent': 0.45, 'rescaleHeight': False, 'trialN': 35, 'loaded': True, 'loadedTime': 3130.100000143051, 'positionName': 'RIGHT', 'positionCoords': [998.4, 335], 'bid': 6.73}]",61330.299999952316,1669830217335,chickenfingers,bagel and cc,6.9,6.73,-0.16999999999999993,chickenfingers,951.0,951,951.3000001907349,True,u,62789.60000014305,1459.3000001907349,1669830218794,1459,HRV,HRV_0027,2022-11-30 17:47:27
36,"[{'imgObject': {}, 'id': 'cocktailshrimp', 'src': '/static/foodstim60/cocktailshrimp.jpg', 'key': 'u', 'origWidth': 410, 'origHeight': 410, 'width': 410, 'height': 410, 'widthPercent': 0.45, 'rescaleHeight': False, 'trialN': 36, 'loaded': True, 'loadedTime': 2993.7000000476837, 'positionName': 'LEFT', 'positionCoords': [511.6, 335], 'bid': 8.57}, {'imgObject': {}, 'id': 'salmon', 'src': '/static/foodstim60/salmon.jpg', 'key': 'i', 'origWidth': 410, 'origHeight': 409, 'width': 410, 'height': 409, 'widthPercent': 0.45, 'rescaleHeight': False, 'trialN': 36, 'loaded': True, 'loadedTime': 2495.600000143051, 'positionName': 'RIGHT', 'positionCoords': [998.4, 335.5], 'bid': 7.72}]",62789.799999952316,1669830218794,cocktailshrimp,salmon,8.57,7.72,-0.8500000000000005,cocktailshrimp,691.5,692,691.8000001907349,True,u,63991.0,1201.2000000476837,1669830219996,1202,HRV,HRV_0027,2022-11-30 17:47:27
37,"[{'imgObject': {}, 'id': 'tacos', 'src': '/static/foodstim60/tacos.jpg', 'key': 'u', 'origWidth': 411, 'origHeight': 411, 'width': 411, 'height': 411, 'widthPercent': 0.45, 'rescaleHeight': False, 'trialN': 37, 'loaded': True, 'loadedTime': 3189.2000000476837, 'positionName': 'LEFT', 'positionCoords': [510.6, 334.5], 'bid': 4.28}, {'imgObject': {}, 'id': 'fruitsalad', 'src': '/static/foodstim60/fruitsalad.jpg', 'key': 'i', 'origWidth': 410, 'origHeight': 410, 'width': 410, 'height': 410, 'widthPercent': 0.45, 'rescaleHeight': False, 'trialN': 37, 'loaded': True, 'loadedTime': 2898.4000000953674, 'positionName': 'RIGHT', 'positionCoords': [998.4, 335], 'bid': 3.67}]",63991.200000047684,1669830219996,tacos,fruitsalad,4.28,3.67,-0.6100000000000003,tacos,1122.2999999523163,1123,1122.7999999523163,True,u,65623.20000004768,1632.0,1669830221628,1632,HRV,HRV_0027,2022-11-30 17:47:27
38,"[{'imgObject': {}, 'id': 'roastedpotatoes', 'src': '/static/foodstim60/roastedpotatoes.jpg', 'key': 'u', 'origWidth': 409, 'origHeight': 410, 'width': 409, 'height': 410, 'widthPercent': 0.45, 'rescaleHeight': False, 'trialN': 38, 'loaded': True, 'loadedTime': 3140.7000000476837, 'positionName': 'LEFT', 'positionCoords': [512.6, 335], 'bid': 3.77}, {'imgObject': {}, 'id': 'hashbrowns', 'src': '/static/foodstim60/hashbrowns.jpg', 'key': 'i', 'origWidth': 411, 'origHeight': 410, 'width': 411, 'height': 410, 'widthPercent': 0.45, 'rescaleHeight': False, 'trialN': 38, 'loaded': True, 'loadedTime': 2844.4000000953674, 'positionName': 'RIGHT', 'positionCoords': [998.4, 335], 'bid': 3.28}]",65623.40000009537,1669830221628,roastedpotatoes,hashbrowns,3.77,3.28,-0.4900000000000002,hashbrowns,1185.7999999523163,1186,1186.0999999046326,True,i,67315.90000009537,1692.5,1669830223320,1692,HRV,HRV_0027,2022-11-30 17:47:27
39,"[{'imgObject': {}, 'id': 'hotdog w must', 'src': '/static/foodstim60/hotdog w must.jpg', 'key': 'u', 'origWidth': 409, 'origHeight': 409, 'width': 409, 'height': 409, 'widthPercent': 0.45, 'rescaleHeight': False, 'trialN': 39, 'loaded': True, 'loadedTime': 2449.7000000476837, 'positionName': 'LEFT', 'positionCoords': [512.6, 335.5], 'bid': 5.01}, {'imgObject': {}, 'id': 'salmon', 'src': '/static/foodstim60/salmon.jpg', 'key': 'i', 'origWidth': 410, 'origHeight': 409, 'width': 410, 'height': 409, 'widthPercent': 0.45, 'rescaleHeight': False, 'trialN': 39, 'loaded': True, 'loadedTime': 2483.9000000953674, 'positionName': 'RIGHT', 'positionCoords': [998.4, 335.5], 'bid': 7.72}]",67316.10000014305,1669830223321,hotdog w must,salmon,5.01,7.72,2.71,salmon,934.5999999046326,935,935.1999998092651,True,i,68761.70000004768,1445.5999999046326,1669830224766,1445,HRV,HRV_0027,2022-11-30 17:47:27
40,"[{'imgObject': {}, 'id': 'banana', 'src': '/static/foodstim60/banana.jpg', 'key': 'u', 'origWidth': 410, 'origHeight': 410, 'width': 410, 'height': 410, 'widthPercent': 0.45, 'rescaleHeight': False, 'trialN': 40, 'loaded': True, 'loadedTime': 2780.7000000476837, 'positionName': 'LEFT', 'positionCoords': [511.6, 335], 'bid': 1.53}, {'imgObject': {}, 'id': 'ice cream sundae 002', 'src': '/static/foodstim60/ice cream sundae 002.jpg', 'key': 'i', 'origWidth': 409, 'origHeight': 409, 'width': 409, 'height': 409, 'widthPercent': 0.45, 'rescaleHeight': False, 'trialN': 40, 'loaded': True, 'loadedTime': 2589.2000000476837, 'positionName': 'RIGHT', 'positionCoords': [998.4, 335.5], 'bid': 3.12}]",68762.0,1669830224766,banana,ice cream sundae 002,1.53,3.12,1.59,banana,832.7000000476837,834,833.2999999523163,True,u,70107.0,1345.0,1669830226111,1345,HRV,HRV_0027,2022-11-30 17:47:27
41,"[{'imgObject': {}, 'id': 'fruitsalad', 'src': '/static/foodstim60/fruitsalad.jpg', 'key': 'u', 'origWidth': 410, 'origHeight': 410, 'width': 410, 'height': 410, 'widthPercent': 0.45, 'rescaleHeight': False, 'trialN': 41, 'loaded': True, 'loadedTime': 2888.9000000953674, 'positionName': 'LEFT', 'positionCoords': [511.6, 335], 'bid': 3.67}, {'imgObject': {}, 'id': 'luckycharms', 'src': '/static/foodstim60/luckycharms.jpg', 'key': 'i', 'origWidth': 410, 'origHeight': 409, 'width': 410, 'height': 409, 'widthPercent': 0.45, 'rescaleHeight': False, 'trialN': 41, 'loaded': True, 'loadedTime': 2781.2999999523163, 'positionName': 'RIGHT', 'positionCoords': [998.4, 335.5], 'bid': 3.95}]",70107.20000004768,1669830226112,fruitsalad,luckycharms,3.67,3.95,0.28000000000000025,luckycharms,1246.4000000953674,1246,1246.5999999046326,True,i,71856.79999995232,1749.5999999046326,1669830227861,1749,HRV,HRV_0027,2022-11-30 17:47:27
42,"[{'imgObject': {}, 'id': 'sushi w_condiments', 'src': '/static/foodstim60/sushi w_condiments.jpg', 'key': 'u', 'origWidth': 410, 'origHeight': 410, 'width': 410, 'height': 410, 'widthPercent': 0.45, 'rescaleHeight': False, 'trialN': 42, 'loaded': True, 'loadedTime': 3169.7999999523163, 'positionName': 'LEFT', 'positionCoords': [511.6, 335], 'bid': 4.13}, {'imgObject': {}, 'id': 'lox', 'src': '/static/foodstim60/lox.jpg', 'key': 'i', 'origWidth': 410, 'origHeight': 411, 'width': 410, 'height': 411, 'widthPercent': 0.45, 'rescaleHeight': False, 'trialN': 42, 'loaded': True, 'loadedTime': 2816.4000000953674, 'positionName': 'RIGHT', 'positionCoords': [998.4, 334.5], 'bid': 4.14}]",71856.90000009537,1669830227861,sushi w_condiments,lox,4.13,4.14,0.009999999999999787,sushi w_condiments,1432.5,1433,1432.7999999523163,True,u,73798.0,1941.0999999046326,1669830229803,1942,HRV,HRV_0027,2022-11-30 17:47:27
43,"[{'imgObject': {}, 'id': 'cherries', 'src': '/static/foodstim60/cherries.jpg', 'key': 'u', 'origWidth': 410, 'origHeight': 411, 'width': 410, 'height': 411, 'widthPercent': 0.45, 'rescaleHeight': False, 'trialN': 43, 'loaded': True, 'loadedTime': 3048.7999999523163, 'positionName': 'LEFT', 'positionCoords': [511.6, 334.5], 'bid': 3.67}, {'imgObject': {}, 'id': 'bagel plain', 'src': '/static/foodstim60/bagel plain.jpg', 'key': 'i', 'origWidth': 410, 'origHeight': 410, 'width': 410, 'height': 410, 'widthPercent': 0.45, 'rescaleHeight': False, 'trialN': 43, 'loaded': True, 'loadedTime': 3058, 'positionName': 'RIGHT', 'positionCoords': [998.4, 335], 'bid': 7.21}]",73798.10000014305,1669830229803,cherries,bagel plain,3.67,7.21,3.54,bagel plain,707.8999998569489,708,708.1999998092651,True,i,75023.70000004768,1225.5999999046326,1669830231028,1225,HRV,HRV_0027,2022-11-30 17:47:27
44,"[{'imgObject': {}, 'id': 'cheerios', 'src': '/static/foodstim60/cheerios.jpg', 'key': 'u', 'origWidth': 409, 'origHeight': 410, 'width': 409, 'height': 410, 'widthPercent': 0.45, 'rescaleHeight': False, 'trialN': 44, 'loaded': True, 'loadedTime': 3196.7999999523163, 'positionName': 'LEFT', 'positionCoords': [512.6, 335], 'bid': 5.76}, {'imgObject': {}, 'id': 'burger', 'src': '/static/foodstim60/burger.jpg', 'key': 'i', 'origWidth': 409, 'origHeight': 409, 'width': 409, 'height': 409, 'widthPercent': 0.45, 'rescaleHeight': False, 'trialN': 44, 'loaded': True, 'loadedTime': 2659.9000000953674, 'positionName': 'RIGHT', 'positionCoords': [998.4, 335.5], 'bid': 5.82}]",75023.90000009537,1669830231028,cheerios,burger,5.76,5.82,0.0600000000000005,burger,1113.0,1114,1113.2000000476837,True,i,76641.60000014305,1617.7000000476837,1669830232646,1618,HRV,HRV_0027,2022-11-30 17:47:27
45,"[{'imgObject': {}, 'id': 'granola w milk', 'src': '/static/foodstim60/granola w milk.jpg', 'key': 'u', 'origWidth': 410, 'origHeight': 410, 'width': 410, 'height': 410, 'widthPercent': 0.45, 'rescaleHeight': False, 'trialN': 45, 'loaded': True, 'loadedTime': 3181, 'positionName': 'LEFT', 'positionCoords': [511.6, 335], 'bid': 2.39}, {'imgObject': {}, 'id': 'mashed potato', 'src': '/static/foodstim60/mashed potato.jpg', 'key': 'i', 'origWidth': 409, 'origHeight': 409, 'width': 409, 'height': 409, 'widthPercent': 0.45, 'rescaleHeight': False, 'trialN': 45, 'loaded': True, 'loadedTime': 2738.7999999523163, 'positionName': 'RIGHT', 'positionCoords': [998.4, 335.5], 'bid': 2.6}]",76641.79999995232,1669830232646,granola w milk,mashed potato,2.39,2.6,0.20999999999999996,granola w milk,1031.5,1032,1031.8000001907349,True,u,78182.10000014305,1540.3000001907349,1669830234187,1541,HRV,HRV_0027,2022-11-30 17:47:27
46,"[{'imgObject': {}, 'id': 'eggs', 'src': '/static/foodstim60/eggs.jpg', 'key': 'u', 'origWidth': 409, 'origHeight': 409, 'width': 409, 'height': 409, 'widthPercent': 0.45, 'rescaleHeight': False, 'trialN': 46, 'loaded': True, 'loadedTime': 2884.600000143051, 'positionName': 'LEFT', 'positionCoords': [512.6, 335.5], 'bid': 3.31}, {'imgObject': {}, 'id': 'yogurt no spoon', 'src': '/static/foodstim60/yogurt no spoon.jpg', 'key': 'i', 'origWidth': 411, 'origHeight': 410, 'width': 411, 'height': 410, 'widthPercent': 0.45, 'rescaleHeight': False, 'trialN': 46, 'loaded': True, 'loadedTime': 3206.7000000476837, 'positionName': 'RIGHT', 'positionCoords': [998.4, 335], 'bid': 3.21}]",78182.10000014305,1669830234187,eggs,yogurt no spoon,3.31,3.21,-0.10000000000000009,eggs,962.6999998092651,963,962.8999998569489,True,u,79660.40000009537,1478.2999999523163,1669830235665,1478,HRV,HRV_0027,2022-11-30 17:47:27
47,"[{'imgObject': {}, 'id': 'baked potato', 'src': '/static/foodstim60/baked potato.jpg', 'key': 'u', 'origWidth': 409, 'origHeight': 410, 'width': 409, 'height': 410, 'widthPercent': 0.45, 'rescaleHeight': False, 'trialN': 47, 'loaded': True, 'loadedTime': 3164.100000143051, 'positionName': 'LEFT', 'positionCoords': [512.6, 335], 'bid': 3.53}, {'imgObject': {}, 'id': 'edamame', 'src': '/static/foodstim60/edamame.jpg', 'key': 'i', 'origWidth': 409, 'origHeight': 410, 'width': 409, 'height': 410, 'widthPercent': 0.45, 'rescaleHeight': False, 'trialN': 47, 'loaded': True, 'loadedTime': 2969.100000143051, 'positionName': 'RIGHT', 'positionCoords': [998.4, 335], 'bid': 2.25}]",79660.70000004768,1669830235665,baked potato,edamame,3.53,2.25,-1.2799999999999998,baked potato,764.7999999523163,765,765.0999999046326,True,u,80934.40000009537,1273.7000000476837,1669830236939,1274,HRV,HRV_0027,2022-11-30 17:47:27
48,"[{'imgObject': {}, 'id': 'blueberries', 'src': '/static/foodstim60/blueberries.jpg', 'key': 'u', 'origWidth': 411, 'origHeight': 411, 'width': 411, 'height': 411, 'widthPercent': 0.45, 'rescaleHeight': False, 'trialN': 48, 'loaded': True, 'loadedTime': 2581.2000000476837, 'positionName': 'LEFT', 'positionCoords': [510.6, 334.5], 'bid': 3.2}, {'imgObject': {}, 'id': 'edamame', 'src': '/static/foodstim60/edamame.jpg', 'key': 'i', 'origWidth': 409, 'origHeight': 410, 'width': 409, 'height': 410, 'widthPercent': 0.45, 'rescaleHeight': False, 'trialN': 48, 'loaded': True, 'loadedTime': 2974.100000143051, 'positionName': 'RIGHT', 'positionCoords': [998.4, 335], 'bid': 2.25}]",80934.70000004768,1669830236939,blueberries,edamame,3.2,2.25,-0.9500000000000002,blueberries,1123.7999999523163,1125,1124.4000000953674,True,u,82567.60000014305,1632.9000000953674,1669830238572,1633,HRV,HRV_0027,2022-11-30 17:47:27
49,"[{'imgObject': {}, 'id': 'chicken nuggets2', 'src': '/static/foodstim60/chicken nuggets2.jpg', 'key': 'u', 'origWidth': 410, 'origHeight': 409, 'width': 410, 'height': 409, 'widthPercent': 0.45, 'rescaleHeight': False, 'trialN': 49, 'loaded': True, 'loadedTime': 3206.7999999523163, 'positionName': 'LEFT', 'positionCoords': [511.6, 335.5], 'bid': 5.9}, {'imgObject': {}, 'id': 'orange slices', 'src': '/static/foodstim60/orange slices.jpg', 'key': 'i', 'origWidth': 409, 'origHeight': 410, 'width': 409, 'height': 410, 'widthPercent': 0.45, 'rescaleHeight': False, 'trialN': 49, 'loaded': True, 'loadedTime': 3218, 'positionName': 'RIGHT', 'positionCoords': [998.4, 335], 'bid': 6.11}]",82567.79999995232,1669830238572,chicken nuggets2,orange slices,5.9,6.11,0.20999999999999996,chicken nuggets2,882.7000000476837,883,883.1000001430511,True,u,83967.10000014305,1399.3000001907349,1669830239972,1400,HRV,HRV_0027,2022-11-30 17:47:27
50,"[{'imgObject': {}, 'id': 'cantaloupe', 'src': '/static/foodstim60/cantaloupe.jpg', 'key': 'u', 'origWidth': 409, 'origHeight': 409, 'width': 409, 'height': 409, 'widthPercent': 0.45, 'rescaleHeight': False, 'trialN': 50, 'loaded': True, 'loadedTime': 3102, 'positionName': 'LEFT', 'positionCoords': [512.6, 335.5], 'bid': 2.17}, {'imgObject': {}, 'id': 'olives', 'src': '/static/foodstim60/olives.jpg', 'key': 'i', 'origWidth': 410, 'origHeight': 410, 'width': 410, 'height': 410, 'widthPercent': 0.45, 'rescaleHeight': False, 'trialN': 50, 'loaded': True, 'loadedTime': 2614.2999999523163, 'positionName': 'RIGHT', 'positionCoords': [998.4, 335], 'bid': 2.03}]",83967.29999995232,1669830239972,cantaloupe,olives,2.17,2.03,-0.14000000000000012,cantaloupe,971.6000001430511,972,972.1000001430511,True,u,85448.29999995232,1481.0,1669830241453,1481,HRV,HRV_0027,2022-11-30 17:47:27
51,"[{'imgObject': {}, 'id': 'turkey sandwich', 'src': '/static/foodstim60/turkey sandwich.jpg', 'key': 'u', 'origWidth': 409, 'origHeight': 409, 'width': 409, 'height': 409, 'widthPercent': 0.45, 'rescaleHeight': False, 'trialN': 51, 'loaded': True, 'loadedTime': 3223.9000000953674, 'positionName': 'LEFT', 'positionCoords': [512.6, 335.5], 'bid': 4.96}, {'imgObject': {}, 'id': 'chickenfingers', 'src': '/static/foodstim60/chickenfingers.jpg', 'key': 'i', 'origWidth': 410, 'origHeight': 410, 'width': 410, 'height': 410, 'widthPercent': 0.45, 'rescaleHeight': False, 'trialN': 51, 'loaded': True, 'loadedTime': 2656.2999999523163, 'positionName': 'RIGHT', 'positionCoords': [998.4, 335], 'bid': 6.9}]",85448.40000009537,1669830241453,turkey sandwich,chickenfingers,4.96,6.9,1.9400000000000004,chickenfingers,753.5,754,754.0,True,i,86707.20000004768,1258.7999999523163,1669830242712,1259,HRV,HRV_0027,2022-11-30 17:47:27
52,"[{'imgObject': {}, 'id': 'omelette', 'src': '/static/foodstim60/omelette.jpg', 'key': 'u', 'origWidth': 410, 'origHeight': 409, 'width': 410, 'height': 409, 'widthPercent': 0.45, 'rescaleHeight': False, 'trialN': 52, 'loaded': True, 'loadedTime': 2724, 'positionName': 'LEFT', 'positionCoords': [511.6, 335.5], 'bid': 4.5}, {'imgObject': {}, 'id': 'apple slices', 'src': '/static/foodstim60/apple slices.jpg', 'key': 'i', 'origWidth': 409, 'origHeight': 410, 'width': 409, 'height': 410, 'widthPercent': 0.45, 'rescaleHeight': False, 'trialN': 52, 'loaded': True, 'loadedTime': 3001.7999999523163, 'positionName': 'RIGHT', 'positionCoords': [998.4, 335], 'bid': 5.15}]",86707.29999995232,1669830242712,omelette,apple slices,4.5,5.15,0.6500000000000004,apple slices,742.7000000476837,743,743.1000001430511,True,i,87952.79999995232,1245.5,1669830243957,1245,HRV,HRV_0027,2022-11-30 17:47:27
53,"[{'imgObject': {}, 'id': 'cocktailshrimp', 'src': '/static/foodstim60/cocktailshrimp.jpg', 'key': 'u', 'origWidth': 410, 'origHeight': 410, 'width': 410, 'height': 410, 'widthPercent': 0.45, 'rescaleHeight': False, 'trialN': 53, 'loaded': True, 'loadedTime': 2986.2000000476837, 'positionName': 'LEFT', 'positionCoords': [511.6, 335], 'bid': 8.57}, {'imgObject': {}, 'id': 'fried eggs', 'src': '/static/foodstim60/fried eggs.jpg', 'key': 'i', 'origWidth': 410, 'origHeight': 410, 'width': 410, 'height': 410, 'widthPercent': 0.45, 'rescaleHeight': False, 'trialN': 53, 'loaded': True, 'loadedTime': 3121.600000143051, 'positionName': 'RIGHT', 'positionCoords': [998.4, 335], 'bid': 5.05}]",87953.0,1669830243958,cocktailshrimp,fried eggs,8.57,5.05,-3.5200000000000005,cocktailshrimp,744.7000000476837,745,745.2999999523163,True,u,89211.60000014305,1258.6000001430511,1669830245216,1258,HRV,HRV_0027,2022-11-30 17:47:27
54,"[{'imgObject': {}, 'id': 'sweetpotato', 'src': '/static/foodstim60/sweetpotato.jpg', 'key': 'u', 'origWidth': 410, 'origHeight': 410, 'width': 410, 'height': 410, 'widthPercent': 0.45, 'rescaleHeight': False, 'trialN': 54, 'loaded': True, 'loadedTime': 2937, 'positionName': 'LEFT', 'positionCoords': [511.6, 335], 'bid': 3.68}, {'imgObject': {}, 'id': 'raisin bran w milk', 'src': '/static/foodstim60/raisin bran w milk.jpg', 'key': 'i', 'origWidth': 411, 'origHeight': 411, 'width': 411, 'height': 411, 'widthPercent': 0.45, 'rescaleHeight': False, 'trialN': 54, 'loaded': True, 'loadedTime': 2676.100000143051, 'positionName': 'RIGHT', 'positionCoords': [998.4, 334.5], 'bid': 3.69}]",89211.90000009537,1669830245216,sweetpotato,raisin bran w milk,3.68,3.69,0.009999999999999787,sweetpotato,1005.7000000476837,1006,1005.8999998569489,True,u,90735.60000014305,1523.7000000476837,1669830246740,1524,HRV,HRV_0027,2022-11-30 17:47:27
55,"[{'imgObject': {}, 'id': 'eggsalad', 'src': '/static/foodstim60/eggsalad.jpg', 'key': 'u', 'origWidth': 410, 'origHeight': 409, 'width': 410, 'height': 409, 'widthPercent': 0.45, 'rescaleHeight': False, 'trialN': 55, 'loaded': True, 'loadedTime': 3225.100000143051, 'positionName': 'LEFT', 'positionCoords': [511.6, 335.5], 'bid': 2.71}, {'imgObject': {}, 'id': 'strawberries', 'src': '/static/foodstim60/strawberries.jpg', 'key': 'i', 'origWidth': 410, 'origHeight': 410, 'width': 410, 'height': 410, 'widthPercent': 0.45, 'rescaleHeight': False, 'trialN': 55, 'loaded': True, 'loadedTime': 3239.7999999523163, 'positionName': 'RIGHT', 'positionCoords': [998.4, 335], 'bid': 3.19}]",90735.79999995232,1669830246740,eggsalad,strawberries,2.71,3.19,0.48,eggsalad,858.1000001430511,859,858.6000001430511,True,u,92104.60000014305,1368.8000001907349,1669830248109,1369,HRV,HRV_0027,2022-11-30 17:47:27
56,"[{'imgObject': {}, 'id': 'hashbrowns', 'src': '/static/foodstim60/hashbrowns.jpg', 'key': 'u', 'origWidth': 411, 'origHeight': 410, 'width': 411, 'height': 410, 'widthPercent': 0.45, 'rescaleHeight': False, 'trialN': 56, 'loaded': True, 'loadedTime': 2831.600000143051, 'positionName': 'LEFT', 'positionCoords': [510.6, 335], 'bid': 3.28}, {'imgObject': {}, 'id': 'orange slices', 'src': '/static/foodstim60/orange slices.jpg', 'key': 'i', 'origWidth': 409, 'origHeight': 410, 'width': 409, 'height': 410, 'widthPercent': 0.45, 'rescaleHeight': False, 'trialN': 56, 'loaded': True, 'loadedTime': 3218.2000000476837, 'positionName': 'RIGHT', 'positionCoords': [998.4, 335], 'bid': 6.11}]",92104.79999995232,1669830248109,hashbrowns,orange slices,3.28,6.11,2.8300000000000005,orange slices,961.2000000476837,962,961.7000000476837,True,i,93581.10000014305,1476.3000001907349,1669830249586,1477,HRV,HRV_0027,2022-11-30 17:47:27
57,"[{'imgObject': {}, 'id': 'luckycharms', 'src': '/static/foodstim60/luckycharms.jpg', 'key': 'u', 'origWidth': 410, 'origHeight': 409, 'width': 410, 'height': 409, 'widthPercent': 0.45, 'rescaleHeight': False, 'trialN': 57, 'loaded': True, 'loadedTime': 2794.7999999523163, 'positionName': 'LEFT', 'positionCoords': [511.6, 335.5], 'bid': 3.95}, {'imgObject': {}, 'id': 'popsicles', 'src': '/static/foodstim60/popsicles.jpg', 'key': 'i', 'origWidth': 410, 'origHeight': 410, 'width': 410, 'height': 410, 'widthPercent': 0.45, 'rescaleHeight': False, 'trialN': 57, 'loaded': True, 'loadedTime': 3240.600000143051, 'positionName': 'RIGHT', 'positionCoords': [998.4, 335], 'bid': 3.88}]",93581.20000004768,1669830249586,luckycharms,popsicles,3.95,3.88,-0.07000000000000028,luckycharms,844.7999999523163,845,845.4000000953674,True,u,94934.10000014305,1352.9000000953674,1669830250939,1353,HRV,HRV_0027,2022-11-30 17:47:27
58,"[{'imgObject': {}, 'id': 'mashed potato', 'src': '/static/foodstim60/mashed potato.jpg', 'key': 'u', 'origWidth': 409, 'origHeight': 409, 'width': 409, 'height': 409, 'widthPercent': 0.45, 'rescaleHeight': False, 'trialN': 58, 'loaded': True, 'loadedTime': 2742.9000000953674, 'positionName': 'LEFT', 'positionCoords': [512.6, 335.5], 'bid': 2.6}, {'imgObject': {}, 'id': 'kiwi', 'src': '/static/foodstim60/kiwi.jpg', 'key': 'i', 'origWidth': 410, 'origHeight': 410, 'width': 410, 'height': 410, 'widthPercent': 0.45, 'rescaleHeight': False, 'trialN': 58, 'loaded': True, 'loadedTime': 3116.2999999523163, 'positionName': 'RIGHT', 'positionCoords': [998.4, 335], 'bid': 2}]",94934.29999995232,1669830250939,mashed potato,kiwi,2.6,2.0,-0.6000000000000001,mashed potato,930.8000001907349,931,930.9000000953674,True,u,96382.29999995232,1448.0,1669830252387,1448,HRV,HRV_0027,2022-11-30 17:47:27
59,"[{'imgObject': {}, 'id': 'salmon', 'src': '/static/foodstim60/salmon.jpg', 'key': 'u', 'origWidth': 410, 'origHeight': 409, 'width': 410, 'height': 409, 'widthPercent': 0.45, 'rescaleHeight': False, 'trialN': 59, 'loaded': True, 'loadedTime': 2463.2000000476837, 'positionName': 'LEFT', 'positionCoords': [511.6, 335.5], 'bid': 7.72}, {'imgObject': {}, 'id': 'bagel plain', 'src': '/static/foodstim60/bagel plain.jpg', 'key': 'i', 'origWidth': 410, 'origHeight': 410, 'width': 410, 'height': 410, 'widthPercent': 0.45, 'rescaleHeight': False, 'trialN': 59, 'loaded': True, 'loadedTime': 3057.9000000953674, 'positionName': 'RIGHT', 'positionCoords': [998.4, 335], 'bid': 7.21}]",96382.5,1669830252387,salmon,bagel plain,7.72,7.21,-0.5099999999999998,salmon,1259.2999999523163,1260,1259.7000000476837,True,u,98155.79999995232,1773.2999999523163,1669830254160,1773,HRV,HRV_0027,2022-11-30 17:47:27
60,"[{'imgObject': {}, 'id': 'roastedpotatoes', 'src': '/static/foodstim60/roastedpotatoes.jpg', 'key': 'u', 'origWidth': 409, 'origHeight': 410, 'width': 409, 'height': 410, 'widthPercent': 0.45, 'rescaleHeight': False, 'trialN': 60, 'loaded': True, 'loadedTime': 3146.4000000953674, 'positionName': 'LEFT', 'positionCoords': [512.6, 335], 'bid': 3.77}, {'imgObject': {}, 'id': 'mango', 'src': '/static/foodstim60/mango.jpg', 'key': 'i', 'origWidth': 411, 'origHeight': 411, 'width': 411, 'height': 411, 'widthPercent': 0.45, 'rescaleHeight': False, 'trialN': 60, 'loaded': True, 'loadedTime': 3243.5, 'positionName': 'RIGHT', 'positionCoords': [998.4, 334.5], 'bid': 3.62}]",98155.90000009537,1669830254160,roastedpotatoes,mango,3.77,3.62,-0.1499999999999999,roastedpotatoes,879.0,880,879.5,True,u,99539.5,1383.5999999046326,1669830255544,1384,HRV,HRV_0027,2022-11-30 17:47:27
61,"[{'imgObject': {}, 'id': 'baked potato', 'src': '/static/foodstim60/baked potato.jpg', 'key': 'u', 'origWidth': 409, 'origHeight': 410, 'width': 409, 'height': 410, 'widthPercent': 0.45, 'rescaleHeight': False, 'trialN': 61, 'loaded': True, 'loadedTime': 3159.7000000476837, 'positionName': 'LEFT', 'positionCoords': [512.6, 335], 'bid': 3.53}, {'imgObject': {}, 'id': 'mango', 'src': '/static/foodstim60/mango.jpg', 'key': 'i', 'origWidth': 411, 'origHeight': 411, 'width': 411, 'height': 411, 'widthPercent': 0.45, 'rescaleHeight': False, 'trialN': 61, 'loaded': True, 'loadedTime': 3243.600000143051, 'positionName': 'RIGHT', 'positionCoords': [998.4, 334.5], 'bid': 3.62}]",99539.70000004768,1669830255544,baked potato,mango,3.53,3.62,0.0900000000000003,baked potato,678.0,679,678.5999999046326,True,u,100736.20000004768,1196.5,1669830256741,1197,HRV,HRV_0027,2022-11-30 17:47:27
62,"[{'imgObject': {}, 'id': 'froot loops w milk', 'src': '/static/foodstim60/froot loops w milk.jpg', 'key': 'u', 'origWidth': 410, 'origHeight': 410, 'width': 410, 'height': 410, 'widthPercent': 0.45, 'rescaleHeight': False, 'trialN': 62, 'loaded': True, 'loadedTime': 2920.2000000476837, 'positionName': 'LEFT', 'positionCoords': [511.6, 335], 'bid': 3.69}, {'imgObject': {}, 'id': 'seaweed', 'src': '/static/foodstim60/seaweed.jpg', 'key': 'i', 'origWidth': 410, 'origHeight': 410, 'width': 410, 'height': 410, 'widthPercent': 0.45, 'rescaleHeight': False, 'trialN': 62, 'loaded': True, 'loadedTime': 3244.100000143051, 'positionName': 'RIGHT', 'positionCoords': [998.4, 335], 'bid': 1.16}]",100736.40000009537,1669830256741,froot loops w milk,seaweed,3.69,1.16,-2.5300000000000002,froot loops w milk,969.7999999523163,970,970.2000000476837,True,u,102213.20000004768,1476.7999999523163,1669830258218,1477,HRV,HRV_0027,2022-11-30 17:47:27
63,"[{'imgObject': {}, 'id': 'bagel plain', 'src': '/static/foodstim60/bagel plain.jpg', 'key': 'u', 'origWidth': 410, 'origHeight': 410, 'width': 410, 'height': 410, 'widthPercent': 0.45, 'rescaleHeight': False, 'trialN': 63, 'loaded': True, 'loadedTime': 3058.2000000476837, 'positionName': 'LEFT', 'positionCoords': [511.6, 335], 'bid': 7.21}, {'imgObject': {}, 'id': 'chicken nuggets2', 'src': '/static/foodstim60/chicken nuggets2.jpg', 'key': 'i', 'origWidth': 410, 'origHeight': 409, 'width': 410, 'height': 409, 'widthPercent': 0.45, 'rescaleHeight': False, 'trialN': 63, 'loaded': True, 'loadedTime': 3216.100000143051, 'positionName': 'RIGHT', 'positionCoords': [998.4, 335.5], 'bid': 5.9}]",102213.40000009537,1669830258218,bagel plain,chicken nuggets2,7.21,5.9,-1.3099999999999996,bagel plain,915.7000000476837,916,915.8999998569489,True,u,103647.40000009537,1434.0,1669830259652,1434,HRV,HRV_0027,2022-11-30 17:47:27
64,"[{'imgObject': {}, 'id': 'sushi w_condiments', 'src': '/static/foodstim60/sushi w_condiments.jpg', 'key': 'u', 'origWidth': 410, 'origHeight': 410, 'width': 410, 'height': 410, 'widthPercent': 0.45, 'rescaleHeight': False, 'trialN': 64, 'loaded': True, 'loadedTime': 3170, 'positionName': 'LEFT', 'positionCoords': [511.6, 335], 'bid': 4.13}, {'imgObject': {}, 'id': 'sweetpotato', 'src': '/static/foodstim60/sweetpotato.jpg', 'key': 'i', 'origWidth': 410, 'origHeight': 410, 'width': 410, 'height': 410, 'widthPercent': 0.45, 'rescaleHeight': False, 'trialN': 64, 'loaded': True, 'loadedTime': 2946.9000000953674, 'positionName': 'RIGHT', 'positionCoords': [998.4, 335], 'bid': 3.68}]",103647.5,1669830259652,sushi w_condiments,sweetpotato,4.13,3.68,-0.44999999999999973,sushi w_condiments,1049.9000000953674,1050,1050.2000000476837,True,u,105201.5,1554.0,1669830261206,1554,HRV,HRV_0027,2022-11-30 17:47:27
65,"[{'imgObject': {}, 'id': 'tacos', 'src': '/static/foodstim60/tacos.jpg', 'key': 'u', 'origWidth': 411, 'origHeight': 411, 'width': 411, 'height': 411, 'widthPercent': 0.45, 'rescaleHeight': False, 'trialN': 65, 'loaded': True, 'loadedTime': 3190.7999999523163, 'positionName': 'LEFT', 'positionCoords': [510.6, 334.5], 'bid': 4.28}, {'imgObject': {}, 'id': 'grilled chicken strips', 'src': '/static/foodstim60/grilled chicken strips.jpg', 'key': 'i', 'origWidth': 410, 'origHeight': 411, 'width': 410, 'height': 411, 'widthPercent': 0.45, 'rescaleHeight': False, 'trialN': 65, 'loaded': True, 'loadedTime': 2407.100000143051, 'positionName': 'RIGHT', 'positionCoords': [998.4, 334.5], 'bid': 6.33}]",105201.60000014305,1669830261206,tacos,grilled chicken strips,4.28,6.33,2.05,grilled chicken strips,809.6999998092651,810,810.2999999523163,True,i,106528.70000004768,1327.0999999046326,1669830262533,1327,HRV,HRV_0027,2022-11-30 17:47:27
66,"[{'imgObject': {}, 'id': 'turkey sandwich', 'src': '/static/foodstim60/turkey sandwich.jpg', 'key': 'u', 'origWidth': 409, 'origHeight': 409, 'width': 409, 'height': 409, 'widthPercent': 0.45, 'rescaleHeight': False, 'trialN': 66, 'loaded': True, 'loadedTime': 3223.4000000953674, 'positionName': 'LEFT', 'positionCoords': [512.6, 335.5], 'bid': 4.96}, {'imgObject': {}, 'id': 'chicken nuggets2', 'src': '/static/foodstim60/chicken nuggets2.jpg', 'key': 'i', 'origWidth': 410, 'origHeight': 409, 'width': 410, 'height': 409, 'widthPercent': 0.45, 'rescaleHeight': False, 'trialN': 66, 'loaded': True, 'loadedTime': 3211.9000000953674, 'positionName': 'RIGHT', 'positionCoords': [998.4, 335.5], 'bid': 5.9}]",106528.79999995232,1669830262533,turkey sandwich,chicken nuggets2,4.96,5.9,0.9400000000000004,chicken nuggets2,1001.4000000953674,1002,1001.9000000953674,True,i,108039.70000004768,1510.9000000953674,1669830264044,1511,HRV,HRV_0027,2022-11-30 17:47:27
67,"[{'imgObject': {}, 'id': 'avocado', 'src': '/static/foodstim60/avocado.jpg', 'key': 'u', 'origWidth': 409, 'origHeight': 409, 'width': 409, 'height': 409, 'widthPercent': 0.45, 'rescaleHeight': False, 'trialN': 67, 'loaded': True, 'loadedTime': 3075, 'positionName': 'LEFT', 'positionCoords': [512.6, 335.5], 'bid': 1.61}, {'imgObject': {}, 'id': 'seaweed', 'src': '/static/foodstim60/seaweed.jpg', 'key': 'i', 'origWidth': 410, 'origHeight': 410, 'width': 410, 'height': 410, 'widthPercent': 0.45, 'rescaleHeight': False, 'trialN': 67, 'loaded': True, 'loadedTime': 3245.9000000953674, 'positionName': 'RIGHT', 'positionCoords': [998.4, 335], 'bid': 1.16}]",108039.79999995232,1669830264044,avocado,seaweed,1.61,1.16,-0.4500000000000002,seaweed,1761.7000000476837,1762,1761.9000000953674,True,i,110311.29999995232,2271.5,1669830266316,2272,HRV,HRV_0027,2022-11-30 17:47:27
68,"[{'imgObject': {}, 'id': 'ice cream sundae 002', 'src': '/static/foodstim60/ice cream sundae 002.jpg', 'key': 'u', 'origWidth': 409, 'origHeight': 409, 'width': 409, 'height': 409, 'widthPercent': 0.45, 'rescaleHeight': False, 'trialN': 68, 'loaded': True, 'loadedTime': 2614.100000143051, 'positionName': 'LEFT', 'positionCoords': [512.6, 335.5], 'bid': 3.12}, {'imgObject': {}, 'id': 'salad w chicken', 'src': '/static/foodstim60/salad w chicken.jpg', 'key': 'i', 'origWidth': 411, 'origHeight': 411, 'width': 411, 'height': 411, 'widthPercent': 0.45, 'rescaleHeight': False, 'trialN': 68, 'loaded': True, 'loadedTime': 2521.2000000476837, 'positionName': 'RIGHT', 'positionCoords': [998.4, 334.5], 'bid': 3.18}]",110311.60000014305,1669830266316,ice cream sundae 002,salad w chicken,3.12,3.18,0.06000000000000005,salad w chicken,1203.0999999046326,1204,1203.7999999523163,True,i,112019.70000004768,1708.0999999046326,1669830268024,1708,HRV,HRV_0027,2022-11-30 17:47:27
69,"[{'imgObject': {}, 'id': 'fried eggs', 'src': '/static/foodstim60/fried eggs.jpg', 'key': 'u', 'origWidth': 410, 'origHeight': 410, 'width': 410, 'height': 410, 'widthPercent': 0.45, 'rescaleHeight': False, 'trialN': 69, 'loaded': True, 'loadedTime': 3125.9000000953674, 'positionName': 'LEFT', 'positionCoords': [511.6, 335], 'bid': 5.05}, {'imgObject': {}, 'id': 'corn cob', 'src': '/static/foodstim60/corn cob.jpg', 'key': 'i', 'origWidth': 411, 'origHeight': 411, 'width': 411, 'height': 411, 'widthPercent': 0.45, 'rescaleHeight': False, 'trialN': 69, 'loaded': True, 'loadedTime': 3013.4000000953674, 'positionName': 'RIGHT', 'positionCoords': [998.4, 334.5], 'bid': 2.97}]",112019.79999995232,1669830268024,fried eggs,corn cob,5.05,2.97,-2.0799999999999996,fried eggs,1190.2000000476837,1191,1190.7000000476837,True,u,113714.70000004768,1694.9000000953674,1669830269719,1695,HRV,HRV_0027,2022-11-30 17:47:27
70,"[{'imgObject': {}, 'id': 'veggieswithdip', 'src': '/static/foodstim60/veggieswithdip.jpg', 'key': 'u', 'origWidth': 409, 'origHeight': 409, 'width': 409, 'height': 409, 'widthPercent': 0.45, 'rescaleHeight': False, 'trialN': 70, 'loaded': True, 'loadedTime': 3034.7000000476837, 'positionName': 'LEFT', 'positionCoords': [512.6, 335.5], 'bid': 1.9}, {'imgObject': {}, 'id': 'olives', 'src': '/static/foodstim60/olives.jpg', 'key': 'i', 'origWidth': 410, 'origHeight': 410, 'width': 410, 'height': 410, 'widthPercent': 0.45, 'rescaleHeight': False, 'trialN': 70, 'loaded': True, 'loadedTime': 2627.7999999523163, 'positionName': 'RIGHT', 'positionCoords': [998.4, 335], 'bid': 2.03}]",113714.90000009537,1669830269719,veggieswithdip,olives,1.9,2.03,0.1299999999999999,olives,919.3999998569489,920,920.0,True,i,115144.0,1429.0999999046326,1669830271148,1429,HRV,HRV_0027,2022-11-30 17:47:27
71,"[{'imgObject': {}, 'id': 'cherry tomato', 'src': '/static/foodstim60/cherry tomato.jpg', 'key': 'u', 'origWidth': 410, 'origHeight': 410, 'width': 410, 'height': 410, 'widthPercent': 0.45, 'rescaleHeight': False, 'trialN': 71, 'loaded': True, 'loadedTime': 2960.2000000476837, 'positionName': 'LEFT', 'positionCoords': [511.6, 335], 'bid': 1.78}, {'imgObject': {}, 'id': 'strawberries', 'src': '/static/foodstim60/strawberries.jpg', 'key': 'i', 'origWidth': 410, 'origHeight': 410, 'width': 410, 'height': 410, 'widthPercent': 0.45, 'rescaleHeight': False, 'trialN': 71, 'loaded': True, 'loadedTime': 3238.2000000476837, 'positionName': 'RIGHT', 'positionCoords': [998.4, 335], 'bid': 3.19}]",115144.20000004768,1669830271149,cherry tomato,strawberries,1.78,3.19,1.41,cherry tomato,786.0999999046326,786,786.5999999046326,True,u,116436.20000004768,1292.0,1669830272441,1292,HRV,HRV_0027,2022-11-30 17:47:27
72,"[{'imgObject': {}, 'id': 'Grapes', 'src': '/static/foodstim60/Grapes.jpg', 'key': 'u', 'origWidth': 411, 'origHeight': 411, 'width': 411, 'height': 411, 'widthPercent': 0.45, 'rescaleHeight': False, 'trialN': 72, 'loaded': True, 'loadedTime': 2865.7999999523163, 'positionName': 'LEFT', 'positionCoords': [510.6, 334.5], 'bid': 3.09}, {'imgObject': {}, 'id': 'apple slices', 'src': '/static/foodstim60/apple slices.jpg', 'key': 'i', 'origWidth': 409, 'origHeight': 410, 'width': 409, 'height': 410, 'widthPercent': 0.45, 'rescaleHeight': False, 'trialN': 72, 'loaded': True, 'loadedTime': 3001.4000000953674, 'positionName': 'RIGHT', 'positionCoords': [998.4, 335], 'bid': 5.15}]",116436.40000009537,1669830272441,Grapes,apple slices,3.09,5.15,2.0600000000000005,apple slices,1269.0,1269,1269.2000000476837,True,i,118223.20000004768,1786.7999999523163,1669830274228,1787,HRV,HRV_0027,2022-11-30 17:47:27
73,"[{'imgObject': {}, 'id': 'fried eggs', 'src': '/static/foodstim60/fried eggs.jpg', 'key': 'u', 'origWidth': 410, 'origHeight': 410, 'width': 410, 'height': 410, 'widthPercent': 0.45, 'rescaleHeight': False, 'trialN': 73, 'loaded': True, 'loadedTime': 3126.2000000476837, 'positionName': 'LEFT', 'positionCoords': [511.6, 335], 'bid': 5.05}, {'imgObject': {}, 'id': 'bagel and cc', 'src': '/static/foodstim60/bagel and cc.jpg', 'key': 'i', 'origWidth': 410, 'origHeight': 410, 'width': 410, 'height': 410, 'widthPercent': 0.45, 'rescaleHeight': False, 'trialN': 73, 'loaded': True, 'loadedTime': 3140.5, 'positionName': 'RIGHT', 'positionCoords': [998.4, 335], 'bid': 6.73}]",118223.29999995232,1669830274228,fried eggs,bagel and cc,5.05,6.73,1.6800000000000006,bagel and cc,1402.3000001907349,1402,1402.7000000476837,True,i,120133.29999995232,1910.0,1669830276138,1910,HRV,HRV_0027,2022-11-30 17:47:27
74,"[{'imgObject': {}, 'id': 'luckycharms', 'src': '/static/foodstim60/luckycharms.jpg', 'key': 'u', 'origWidth': 410, 'origHeight': 409, 'width': 410, 'height': 409, 'widthPercent': 0.45, 'rescaleHeight': False, 'trialN': 74, 'loaded': True, 'loadedTime': 2800.2999999523163, 'positionName': 'LEFT', 'positionCoords': [511.6, 335.5], 'bid': 3.95}, {'imgObject': {}, 'id': 'cheerios', 'src': '/static/foodstim60/cheerios.jpg', 'key': 'i', 'origWidth': 409, 'origHeight': 410, 'width': 409, 'height': 410, 'widthPercent': 0.45, 'rescaleHeight': False, 'trialN': 74, 'loaded': True, 'loadedTime': 3191.4000000953674, 'positionName': 'RIGHT', 'positionCoords': [998.4, 335], 'bid': 5.76}]",120133.5,1669830276138,luckycharms,cheerios,3.95,5.76,1.8099999999999996,cheerios,707.7999999523163,708,708.1000001430511,True,i,121347.29999995232,1213.7999999523163,1669830277352,1214,HRV,HRV_0027,2022-11-30 17:47:27
75,"[{'imgObject': {}, 'id': 'turkey sandwich', 'src': '/static/foodstim60/turkey sandwich.jpg', 'key': 'u', 'origWidth': 409, 'origHeight': 409, 'width': 409, 'height': 409, 'widthPercent': 0.45, 'rescaleHeight': False, 'trialN': 75, 'loaded': True, 'loadedTime': 3223.600000143051, 'positionName': 'LEFT', 'positionCoords': [512.6, 335.5], 'bid': 4.96}, {'imgObject': {}, 'id': 'granola w milk', 'src': '/static/foodstim60/granola w milk.jpg', 'key': 'i', 'origWidth': 410, 'origHeight': 410, 'width': 410, 'height': 410, 'widthPercent': 0.45, 'rescaleHeight': False, 'trialN': 75, 'loaded': True, 'loadedTime': 3185.2999999523163, 'positionName': 'RIGHT', 'positionCoords': [998.4, 335], 'bid': 2.39}]",121347.29999995232,1669830277352,turkey sandwich,granola w milk,4.96,2.39,-2.57,turkey sandwich,1174.4000000953674,1175,1175.1000001430511,True,u,123025.90000009537,1678.6000001430511,1669830279030,1678,HRV,HRV_0027,2022-11-30 17:47:27
76,"[{'imgObject': {}, 'id': 'tacos', 'src': '/static/foodstim60/tacos.jpg', 'key': 'u', 'origWidth': 411, 'origHeight': 411, 'width': 411, 'height': 411, 'widthPercent': 0.45, 'rescaleHeight': False, 'trialN': 76, 'loaded': True, 'loadedTime': 3190.4000000953674, 'positionName': 'LEFT', 'positionCoords': [510.6, 334.5], 'bid': 4.28}, {'imgObject': {}, 'id': 'omelette', 'src': '/static/foodstim60/omelette.jpg', 'key': 'i', 'origWidth': 410, 'origHeight': 409, 'width': 410, 'height': 409, 'widthPercent': 0.45, 'rescaleHeight': False, 'trialN': 76, 'loaded': True, 'loadedTime': 2710.4000000953674, 'positionName': 'RIGHT', 'positionCoords': [998.4, 335.5], 'bid': 4.5}]",123026.0,1669830279030,tacos,omelette,4.28,4.5,0.21999999999999975,tacos,1064.5,1065,1065.1000001430511,True,u,124597.5,1571.5,1669830280602,1572,HRV,HRV_0027,2022-11-30 17:47:27
77,"[{'imgObject': {}, 'id': 'burger', 'src': '/static/foodstim60/burger.jpg', 'key': 'u', 'origWidth': 409, 'origHeight': 409, 'width': 409, 'height': 409, 'widthPercent': 0.45, 'rescaleHeight': False, 'trialN': 77, 'loaded': True, 'loadedTime': 2672.4000000953674, 'positionName': 'LEFT', 'positionCoords': [512.6, 335.5], 'bid': 5.82}, {'imgObject': {}, 'id': 'blueberries', 'src': '/static/foodstim60/blueberries.jpg', 'key': 'i', 'origWidth': 411, 'origHeight': 411, 'width': 411, 'height': 411, 'widthPercent': 0.45, 'rescaleHeight': False, 'trialN': 77, 'loaded': True, 'loadedTime': 2577.5, 'positionName': 'RIGHT', 'positionCoords': [998.4, 334.5], 'bid': 3.2}]",124597.60000014305,1669830280602,burger,blueberries,5.82,3.2,-2.62,burger,852.5,853,852.8999998569489,True,u,125966.0,1368.3999998569489,1669830281970,1368,HRV,HRV_0027,2022-11-30 17:47:27
78,"[{'imgObject': {}, 'id': 'sushi w_condiments', 'src': '/static/foodstim60/sushi w_condiments.jpg', 'key': 'u', 'origWidth': 410, 'origHeight': 410, 'width': 410, 'height': 410, 'widthPercent': 0.45, 'rescaleHeight': False, 'trialN': 78, 'loaded': True, 'loadedTime': 3168.600000143051, 'positionName': 'LEFT', 'positionCoords': [511.6, 335], 'bid': 4.13}, {'imgObject': {}, 'id': 'baked potato', 'src': '/static/foodstim60/baked potato.jpg', 'key': 'i', 'origWidth': 409, 'origHeight': 410, 'width': 409, 'height': 410, 'widthPercent': 0.45, 'rescaleHeight': False, 'trialN': 78, 'loaded': True, 'loadedTime': 3164.2000000476837, 'positionName': 'RIGHT', 'positionCoords': [998.4, 335], 'bid': 3.53}]",125966.10000014305,1669830281970,sushi w_condiments,baked potato,4.13,3.53,-0.6000000000000001,sushi w_condiments,1275.6999998092651,1277,1276.1999998092651,True,u,127759.60000014305,1793.5,1669830283764,1794,HRV,HRV_0027,2022-11-30 17:47:27
79,"[{'imgObject': {}, 'id': 'banana', 'src': '/static/foodstim60/banana.jpg', 'key': 'u', 'origWidth': 410, 'origHeight': 410, 'width': 410, 'height': 410, 'widthPercent': 0.45, 'rescaleHeight': False, 'trialN': 79, 'loaded': True, 'loadedTime': 2765.2000000476837, 'positionName': 'LEFT', 'positionCoords': [511.6, 335], 'bid': 1.53}, {'imgObject': {}, 'id': 'roastedpotatoes', 'src': '/static/foodstim60/roastedpotatoes.jpg', 'key': 'i', 'origWidth': 409, 'origHeight': 410, 'width': 409, 'height': 410, 'widthPercent': 0.45, 'rescaleHeight': False, 'trialN': 79, 'loaded': True, 'loadedTime': 3141.9000000953674, 'positionName': 'RIGHT', 'positionCoords': [998.4, 335], 'bid': 3.77}]",127759.60000014305,1669830283764,banana,roastedpotatoes,1.53,3.77,2.24,banana,970.2999999523163,971,970.5999999046326,True,u,129237.70000004768,1478.0999999046326,1669830285242,1478,HRV,HRV_0027,2022-11-30 17:47:27
80,"[{'imgObject': {}, 'id': 'rigatoni', 'src': '/static/foodstim60/rigatoni.jpg', 'key': 'u', 'origWidth': 411, 'origHeight': 411, 'width': 411, 'height': 411, 'widthPercent': 0.45, 'rescaleHeight': False, 'trialN': 80, 'loaded': True, 'loadedTime': 2373.100000143051, 'positionName': 'LEFT', 'positionCoords': [510.6, 334.5], 'bid': 5.03}, {'imgObject': {}, 'id': 'hotdog w must', 'src': '/static/foodstim60/hotdog w must.jpg', 'key': 'i', 'origWidth': 409, 'origHeight': 409, 'width': 409, 'height': 409, 'widthPercent': 0.45, 'rescaleHeight': False, 'trialN': 80, 'loaded': True, 'loadedTime': 2445.4000000953674, 'positionName': 'RIGHT', 'positionCoords': [998.4, 335.5], 'bid': 5.01}]",129237.79999995232,1669830285242,rigatoni,hotdog w must,5.03,5.01,-0.020000000000000462,rigatoni,1044.9000000953674,1046,1045.5,True,u,130789.20000004768,1551.4000000953674,1669830286794,1552,HRV,HRV_0027,2022-11-30 17:47:27
81,"[{'imgObject': {}, 'id': 'Tribe humus pita', 'src': '/static/foodstim60/Tribe humus pita.jpg', 'key': 'u', 'origWidth': 411, 'origHeight': 411, 'width': 411, 'height': 411, 'widthPercent': 0.45, 'rescaleHeight': False, 'trialN': 81, 'loaded': True, 'loadedTime': 2500.4000000953674, 'positionName': 'LEFT', 'positionCoords': [510.6, 334.5], 'bid': 5.69}, {'imgObject': {}, 'id': 'salad w chicken', 'src': '/static/foodstim60/salad w chicken.jpg', 'key': 'i', 'origWidth': 411, 'origHeight': 411, 'width': 411, 'height': 411, 'widthPercent': 0.45, 'rescaleHeight': False, 'trialN': 81, 'loaded': True, 'loadedTime': 2542.2999999523163, 'positionName': 'RIGHT', 'positionCoords': [998.4, 334.5], 'bid': 3.18}]",130789.20000004768,1669830286794,Tribe humus pita,salad w chicken,5.69,3.18,-2.5100000000000002,salad w chicken,1412.2000000476837,1412,1412.5999999046326,True,i,132719.29999995232,1930.0999999046326,1669830288724,1930,HRV,HRV_0027,2022-11-30 17:47:27
82,"[{'imgObject': {}, 'id': 'omelette', 'src': '/static/foodstim60/omelette.jpg', 'key': 'u', 'origWidth': 410, 'origHeight': 409, 'width': 410, 'height': 409, 'widthPercent': 0.45, 'rescaleHeight': False, 'trialN': 82, 'loaded': True, 'loadedTime': 2719.7999999523163, 'positionName': 'LEFT', 'positionCoords': [511.6, 335.5], 'bid': 4.5}, {'imgObject': {}, 'id': 'bagel and cc', 'src': '/static/foodstim60/bagel and cc.jpg', 'key': 'i', 'origWidth': 410, 'origHeight': 410, 'width': 410, 'height': 410, 'widthPercent': 0.45, 'rescaleHeight': False, 'trialN': 82, 'loaded': True, 'loadedTime': 3131.2000000476837, 'positionName': 'RIGHT', 'positionCoords': [998.4, 335], 'bid': 6.73}]",132719.40000009537,1669830288724,omelette,bagel and cc,4.5,6.73,2.2300000000000004,bagel and cc,650.3999998569489,651,650.8999998569489,True,i,133872.90000009537,1153.5,1669830289877,1153,HRV,HRV_0027,2022-11-30 17:47:27
83,"[{'imgObject': {}, 'id': 'bagel and cc', 'src': '/static/foodstim60/bagel and cc.jpg', 'key': 'u', 'origWidth': 410, 'origHeight': 410, 'width': 410, 'height': 410, 'widthPercent': 0.45, 'rescaleHeight': False, 'trialN': 83, 'loaded': True, 'loadedTime': 3135.600000143051, 'positionName': 'LEFT', 'positionCoords': [511.6, 335], 'bid': 6.73}, {'imgObject': {}, 'id': 'cheerios', 'src': '/static/foodstim60/cheerios.jpg', 'key': 'i', 'origWidth': 409, 'origHeight': 410, 'width': 409, 'height': 410, 'widthPercent': 0.45, 'rescaleHeight': False, 'trialN': 83, 'loaded': True, 'loadedTime': 3192.7999999523163, 'positionName': 'RIGHT', 'positionCoords': [998.4, 335], 'bid': 5.76}]",133873.0,1669830289877,bagel and cc,cheerios,6.73,5.76,-0.9700000000000006,bagel and cc,648.7999999523163,650,649.5,True,u,135024.90000009537,1151.9000000953674,1669830291029,1152,HRV,HRV_0027,2022-11-30 17:47:27
84,"[{'imgObject': {}, 'id': 'olives', 'src': '/static/foodstim60/olives.jpg', 'key': 'u', 'origWidth': 410, 'origHeight': 410, 'width': 410, 'height': 410, 'widthPercent': 0.45, 'rescaleHeight': False, 'trialN': 84, 'loaded': True, 'loadedTime': 2623.5, 'positionName': 'LEFT', 'positionCoords': [511.6, 335], 'bid': 2.03}, {'imgObject': {}, 'id': 'hashbrowns', 'src': '/static/foodstim60/hashbrowns.jpg', 'key': 'i', 'origWidth': 411, 'origHeight': 410, 'width': 411, 'height': 410, 'widthPercent': 0.45, 'rescaleHeight': False, 'trialN': 84, 'loaded': True, 'loadedTime': 2848.4000000953674, 'positionName': 'RIGHT', 'positionCoords': [998.4, 335], 'bid': 3.28}]",135025.0,1669830291029,olives,hashbrowns,2.03,3.28,1.25,olives,888.7999999523163,890,889.2000000476837,True,u,136423.90000009537,1398.9000000953674,1669830292428,1399,HRV,HRV_0027,2022-11-30 17:47:27
85,"[{'imgObject': {}, 'id': 'chickenfingers', 'src': '/static/foodstim60/chickenfingers.jpg', 'key': 'u', 'origWidth': 410, 'origHeight': 410, 'width': 410, 'height': 410, 'widthPercent': 0.45, 'rescaleHeight': False, 'trialN': 85, 'loaded': True, 'loadedTime': 2636.2000000476837, 'positionName': 'LEFT', 'positionCoords': [511.6, 335], 'bid': 6.9}, {'imgObject': {}, 'id': 'apple slices', 'src': '/static/foodstim60/apple slices.jpg', 'key': 'i', 'origWidth': 409, 'origHeight': 410, 'width': 409, 'height': 410, 'widthPercent': 0.45, 'rescaleHeight': False, 'trialN': 85, 'loaded': True, 'loadedTime': 3001.5, 'positionName': 'RIGHT', 'positionCoords': [998.4, 335], 'bid': 5.15}]",136424.29999995232,1669830292429,chickenfingers,apple slices,6.9,5.15,-1.75,chickenfingers,881.6000001430511,882,882.1000001430511,True,u,137822.60000014305,1398.3000001907349,1669830293827,1398,HRV,HRV_0027,2022-11-30 17:47:27
86,"[{'imgObject': {}, 'id': 'ice cream sundae 002', 'src': '/static/foodstim60/ice cream sundae 002.jpg', 'key': 'u', 'origWidth': 409, 'origHeight': 409, 'width': 409, 'height': 409, 'widthPercent': 0.45, 'rescaleHeight': False, 'trialN': 86, 'loaded': True, 'loadedTime': 2606.2999999523163, 'positionName': 'LEFT', 'positionCoords': [512.6, 335.5], 'bid': 3.12}, {'imgObject': {}, 'id': 'eggs', 'src': '/static/foodstim60/eggs.jpg', 'key': 'i', 'origWidth': 409, 'origHeight': 409, 'width': 409, 'height': 409, 'widthPercent': 0.45, 'rescaleHeight': False, 'trialN': 86, 'loaded': True, 'loadedTime': 2888.600000143051, 'positionName': 'RIGHT', 'positionCoords': [998.4, 335.5], 'bid': 3.31}]",137822.79999995232,1669830293827,ice cream sundae 002,eggs,3.12,3.31,0.18999999999999995,eggs,1148.2000000476837,1149,1148.8000001907349,True,i,139484.40000009537,1661.6000001430511,1669830295489,1662,HRV,HRV_0027,2022-11-30 17:47:27
87,"[{'imgObject': {}, 'id': 'chicken nuggets2', 'src': '/static/foodstim60/chicken nuggets2.jpg', 'key': 'u', 'origWidth': 410, 'origHeight': 409, 'width': 410, 'height': 409, 'widthPercent': 0.45, 'rescaleHeight': False, 'trialN': 87, 'loaded': True, 'loadedTime': 3211.7000000476837, 'positionName': 'LEFT', 'positionCoords': [511.6, 335.5], 'bid': 5.9}, {'imgObject': {}, 'id': 'yogurt no spoon', 'src': '/static/foodstim60/yogurt no spoon.jpg', 'key': 'i', 'origWidth': 411, 'origHeight': 410, 'width': 411, 'height': 410, 'widthPercent': 0.45, 'rescaleHeight': False, 'trialN': 87, 'loaded': True, 'loadedTime': 3202.4000000953674, 'positionName': 'RIGHT', 'positionCoords': [998.4, 335], 'bid': 3.21}]",139484.5,1669830295489,chicken nuggets2,yogurt no spoon,5.9,3.21,-2.6900000000000004,chicken nuggets2,685.2999999523163,686,685.7999999523163,True,u,140679.5,1195.0,1669830296684,1195,HRV,HRV_0027,2022-11-30 17:47:27
88,"[{'imgObject': {}, 'id': 'cherries', 'src': '/static/foodstim60/cherries.jpg', 'key': 'u', 'origWidth': 410, 'origHeight': 411, 'width': 410, 'height': 411, 'widthPercent': 0.45, 'rescaleHeight': False, 'trialN': 88, 'loaded': True, 'loadedTime': 3048.7000000476837, 'positionName': 'LEFT', 'positionCoords': [511.6, 334.5], 'bid': 3.67}, {'imgObject': {}, 'id': 'mashed potato', 'src': '/static/foodstim60/mashed potato.jpg', 'key': 'i', 'origWidth': 409, 'origHeight': 409, 'width': 409, 'height': 409, 'widthPercent': 0.45, 'rescaleHeight': False, 'trialN': 88, 'loaded': True, 'loadedTime': 2751.600000143051, 'positionName': 'RIGHT', 'positionCoords': [998.4, 335.5], 'bid': 2.6}]",140679.70000004768,1669830296684,cherries,mashed potato,3.67,2.6,-1.0699999999999998,cherries,1072.9000000953674,1073,1073.0999999046326,True,u,142269.5,1589.7999999523163,1669830298274,1590,HRV,HRV_0027,2022-11-30 17:47:27
89,"[{'imgObject': {}, 'id': 'banana', 'src': '/static/foodstim60/banana.jpg', 'key': 'u', 'origWidth': 410, 'origHeight': 410, 'width': 410, 'height': 410, 'widthPercent': 0.45, 'rescaleHeight': False, 'trialN': 89, 'loaded': True, 'loadedTime': 2761.2000000476837, 'positionName': 'LEFT', 'positionCoords': [511.6, 335], 'bid': 1.53}, {'imgObject': {}, 'id': 'cantaloupe', 'src': '/static/foodstim60/cantaloupe.jpg', 'key': 'i', 'origWidth': 409, 'origHeight': 409, 'width': 409, 'height': 409, 'widthPercent': 0.45, 'rescaleHeight': False, 'trialN': 89, 'loaded': True, 'loadedTime': 3106.2000000476837, 'positionName': 'RIGHT', 'positionCoords': [998.4, 335.5], 'bid': 2.17}]",142269.70000004768,1669830298274,banana,cantaloupe,1.53,2.17,0.6399999999999999,banana,763.9000000953674,765,764.4000000953674,True,u,143547.5,1277.7999999523163,1669830299552,1278,HRV,HRV_0027,2022-11-30 17:47:27
90,"[{'imgObject': {}, 'id': 'edamame', 'src': '/static/foodstim60/edamame.jpg', 'key': 'u', 'origWidth': 409, 'origHeight': 410, 'width': 409, 'height': 410, 'widthPercent': 0.45, 'rescaleHeight': False, 'trialN': 90, 'loaded': True, 'loadedTime': 2974.600000143051, 'positionName': 'LEFT', 'positionCoords': [512.6, 335], 'bid': 2.25}, {'imgObject': {}, 'id': 'blackbeanswithrice', 'src': '/static/foodstim60/blackbeanswithrice.jpg', 'key': 'i', 'origWidth': 410, 'origHeight': 410, 'width': 410, 'height': 410, 'widthPercent': 0.45, 'rescaleHeight': False, 'trialN': 90, 'loaded': True, 'loadedTime': 3097.4000000953674, 'positionName': 'RIGHT', 'positionCoords': [998.4, 335], 'bid': 2.2}]",153593.40000009537,1669830309598,edamame,blackbeanswithrice,2.25,2.2,-0.04999999999999982,blackbeanswithrice,1520.5999999046326,1521,1521.2000000476837,True,i,155629.29999995232,2035.8999998569489,1669830311634,2036,HRV,HRV_0027,2022-11-30 17:47:27
91,"[{'imgObject': {}, 'id': 'chicken nuggets2', 'src': '/static/foodstim60/chicken nuggets2.jpg', 'key': 'u', 'origWidth': 410, 'origHeight': 409, 'width': 410, 'height': 409, 'widthPercent': 0.45, 'rescaleHeight': False, 'trialN': 91, 'loaded': True, 'loadedTime': 3216.2999999523163, 'positionName': 'LEFT', 'positionCoords': [511.6, 335.5], 'bid': 5.9}, {'imgObject': {}, 'id': 'cheerios', 'src': '/static/foodstim60/cheerios.jpg', 'key': 'i', 'origWidth': 409, 'origHeight': 410, 'width': 409, 'height': 410, 'widthPercent': 0.45, 'rescaleHeight': False, 'trialN': 91, 'loaded': True, 'loadedTime': 3197.2000000476837, 'positionName': 'RIGHT', 'positionCoords': [998.4, 335], 'bid': 5.76}]",155629.5,1669830311634,chicken nuggets2,cheerios,5.9,5.76,-0.14000000000000057,chicken nuggets2,828.4000000953674,829,828.9000000953674,True,u,156966.10000014305,1336.6000001430511,1669830312970,1336,HRV,HRV_0027,2022-11-30 17:47:27
92,"[{'imgObject': {}, 'id': 'mashed potato', 'src': '/static/foodstim60/mashed potato.jpg', 'key': 'u', 'origWidth': 409, 'origHeight': 409, 'width': 409, 'height': 409, 'widthPercent': 0.45, 'rescaleHeight': False, 'trialN': 92, 'loaded': True, 'loadedTime': 2751.4000000953674, 'positionName': 'LEFT', 'positionCoords': [512.6, 335.5], 'bid': 2.6}, {'imgObject': {}, 'id': 'pear', 'src': '/static/foodstim60/pear.jpg', 'key': 'i', 'origWidth': 411, 'origHeight': 410, 'width': 411, 'height': 410, 'widthPercent': 0.45, 'rescaleHeight': False, 'trialN': 92, 'loaded': True, 'loadedTime': 2319.100000143051, 'positionName': 'RIGHT', 'positionCoords': [998.4, 335], 'bid': 4.97}]",156966.10000014305,1669830312971,mashed potato,pear,2.6,4.97,2.3699999999999997,mashed potato,803.8999998569489,804,804.2999999523163,True,u,158287.20000004768,1321.0999999046326,1669830314292,1321,HRV,HRV_0027,2022-11-30 17:47:27
93,"[{'imgObject': {}, 'id': 'raisin bran w milk', 'src': '/static/foodstim60/raisin bran w milk.jpg', 'key': 'u', 'origWidth': 411, 'origHeight': 411, 'width': 411, 'height': 411, 'widthPercent': 0.45, 'rescaleHeight': False, 'trialN': 93, 'loaded': True, 'loadedTime': 2689.2999999523163, 'positionName': 'LEFT', 'positionCoords': [510.6, 334.5], 'bid': 3.69}, {'imgObject': {}, 'id': 'cocktailshrimp', 'src': '/static/foodstim60/cocktailshrimp.jpg', 'key': 'i', 'origWidth': 410, 'origHeight': 410, 'width': 410, 'height': 410, 'widthPercent': 0.45, 'rescaleHeight': False, 'trialN': 93, 'loaded': True, 'loadedTime': 2993.4000000953674, 'positionName': 'RIGHT', 'positionCoords': [998.4, 335], 'bid': 8.57}]",158287.20000004768,1669830314292,raisin bran w milk,cocktailshrimp,3.69,8.57,4.880000000000001,cocktailshrimp,1035.4000000953674,1036,1035.9000000953674,True,i,159829.10000014305,1541.9000000953674,1669830315834,1542,HRV,HRV_0027,2022-11-30 17:47:27
94,"[{'imgObject': {}, 'id': 'baked potato', 'src': '/static/foodstim60/baked potato.jpg', 'key': 'u', 'origWidth': 409, 'origHeight': 410, 'width': 409, 'height': 410, 'widthPercent': 0.45, 'rescaleHeight': False, 'trialN': 94, 'loaded': True, 'loadedTime': 3168.5, 'positionName': 'LEFT', 'positionCoords': [512.6, 335], 'bid': 3.53}, {'imgObject': {}, 'id': 'froot loops w milk', 'src': '/static/foodstim60/froot loops w milk.jpg', 'key': 'i', 'origWidth': 410, 'origHeight': 410, 'width': 410, 'height': 410, 'widthPercent': 0.45, 'rescaleHeight': False, 'trialN': 94, 'loaded': True, 'loadedTime': 2928.100000143051, 'positionName': 'RIGHT', 'positionCoords': [998.4, 335], 'bid': 3.69}]",159829.29999995232,1669830315834,baked potato,froot loops w milk,3.53,3.69,0.16000000000000014,baked potato,851.6000001430511,851,851.7000000476837,True,u,161199.70000004768,1370.4000000953674,1669830317204,1370,HRV,HRV_0027,2022-11-30 17:47:27
95,"[{'imgObject': {}, 'id': 'granola w milk', 'src': '/static/foodstim60/granola w milk.jpg', 'key': 'u', 'origWidth': 410, 'origHeight': 410, 'width': 410, 'height': 410, 'widthPercent': 0.45, 'rescaleHeight': False, 'trialN': 95, 'loaded': True, 'loadedTime': 3174.4000000953674, 'positionName': 'LEFT', 'positionCoords': [511.6, 335], 'bid': 2.39}, {'imgObject': {}, 'id': 'veggieswithdip', 'src': '/static/foodstim60/veggieswithdip.jpg', 'key': 'i', 'origWidth': 409, 'origHeight': 409, 'width': 409, 'height': 409, 'widthPercent': 0.45, 'rescaleHeight': False, 'trialN': 95, 'loaded': True, 'loadedTime': 3026.4000000953674, 'positionName': 'RIGHT', 'positionCoords': [998.4, 335.5], 'bid': 1.9}]",161200.0,1669830317204,granola w milk,veggieswithdip,2.39,1.9,-0.4900000000000002,granola w milk,1145.4000000953674,1146,1145.7000000476837,True,u,162850.29999995232,1650.2999999523163,1669830318855,1651,HRV,HRV_0027,2022-11-30 17:47:27
96,"[{'imgObject': {}, 'id': 'olives', 'src': '/static/foodstim60/olives.jpg', 'key': 'u', 'origWidth': 410, 'origHeight': 410, 'width': 410, 'height': 410, 'widthPercent': 0.45, 'rescaleHeight': False, 'trialN': 96, 'loaded': True, 'loadedTime': 2619.2000000476837, 'positionName': 'LEFT', 'positionCoords': [511.6, 335], 'bid': 2.03}, {'imgObject': {}, 'id': 'seaweed', 'src': '/static/foodstim60/seaweed.jpg', 'key': 'i', 'origWidth': 410, 'origHeight': 410, 'width': 410, 'height': 410, 'widthPercent': 0.45, 'rescaleHeight': False, 'trialN': 96, 'loaded': True, 'loadedTime': 3245.600000143051, 'positionName': 'RIGHT', 'positionCoords': [998.4, 335], 'bid': 1.16}]",162850.5,1669830318855,olives,seaweed,2.03,1.16,-0.8699999999999999,seaweed,1048.2000000476837,1048,1048.7000000476837,True,i,164407.5,1557.0,1669830320412,1557,HRV,HRV_0027,2022-11-30 17:47:27
97,"[{'imgObject': {}, 'id': 'strawberries', 'src': '/static/foodstim60/strawberries.jpg', 'key': 'u', 'origWidth': 410, 'origHeight': 410, 'width': 410, 'height': 410, 'widthPercent': 0.45, 'rescaleHeight': False, 'trialN': 97, 'loaded': True, 'loadedTime': 3240.4000000953674, 'positionName': 'LEFT', 'positionCoords': [511.6, 335], 'bid': 3.19}, {'imgObject': {}, 'id': 'blackbeanswithrice', 'src': '/static/foodstim60/blackbeanswithrice.jpg', 'key': 'i', 'origWidth': 410, 'origHeight': 410, 'width': 410, 'height': 410, 'widthPercent': 0.45, 'rescaleHeight': False, 'trialN': 97, 'loaded': True, 'loadedTime': 3080.600000143051, 'positionName': 'RIGHT', 'positionCoords': [998.4, 335], 'bid': 2.2}]",164407.70000004768,1669830320412,strawberries,blackbeanswithrice,3.19,2.2,-0.9899999999999998,strawberries,722.5,723,723.0,True,u,165635.5,1227.7999999523163,1669830321640,1228,HRV,HRV_0027,2022-11-30 17:47:27
98,"[{'imgObject': {}, 'id': 'grilled chicken strips', 'src': '/static/foodstim60/grilled chicken strips.jpg', 'key': 'u', 'origWidth': 410, 'origHeight': 411, 'width': 410, 'height': 411, 'widthPercent': 0.45, 'rescaleHeight': False, 'trialN': 98, 'loaded': True, 'loadedTime': 2411.2000000476837, 'positionName': 'LEFT', 'positionCoords': [511.6, 334.5], 'bid': 6.33}, {'imgObject': {}, 'id': 'eggs', 'src': '/static/foodstim60/eggs.jpg', 'key': 'i', 'origWidth': 409, 'origHeight': 409, 'width': 409, 'height': 409, 'widthPercent': 0.45, 'rescaleHeight': False, 'trialN': 98, 'loaded': True, 'loadedTime': 2884.5, 'positionName': 'RIGHT', 'positionCoords': [998.4, 335.5], 'bid': 3.31}]",165635.70000004768,1669830321640,grilled chicken strips,eggs,6.33,3.31,-3.02,grilled chicken strips,693.5,694,693.9000000953674,True,u,166833.10000014305,1197.4000000953674,1669830322837,1197,HRV,HRV_0027,2022-11-30 17:47:27
99,"[{'imgObject': {}, 'id': 'eggsalad', 'src': '/static/foodstim60/eggsalad.jpg', 'key': 'u', 'origWidth': 410, 'origHeight': 409, 'width': 410, 'height': 409, 'widthPercent': 0.45, 'rescaleHeight': False, 'trialN': 99, 'loaded': True, 'loadedTime': 3233.7000000476837, 'positionName': 'LEFT', 'positionCoords': [511.6, 335.5], 'bid': 2.71}, {'imgObject': {}, 'id': 'avocado', 'src': '/static/foodstim60/avocado.jpg', 'key': 'i', 'origWidth': 409, 'origHeight': 409, 'width': 409, 'height': 409, 'widthPercent': 0.45, 'rescaleHeight': False, 'trialN': 99, 'loaded': True, 'loadedTime': 3067.2999999523163, 'positionName': 'RIGHT', 'positionCoords': [998.4, 335.5], 'bid': 1.61}]",166833.20000004768,1669830322837,eggsalad,avocado,2.71,1.61,-1.0999999999999999,eggsalad,968.7000000476837,970,969.0999999046326,True,u,168308.79999995232,1475.5999999046326,1669830324313,1476,HRV,HRV_0027,2022-11-30 17:47:27
100,"[{'imgObject': {}, 'id': 'bagel plain', 'src': '/static/foodstim60/bagel plain.jpg', 'key': 'u', 'origWidth': 410, 'origHeight': 410, 'width': 410, 'height': 410, 'widthPercent': 0.45, 'rescaleHeight': False, 'trialN': 100, 'loaded': True, 'loadedTime': 3052.7000000476837, 'positionName': 'LEFT', 'positionCoords': [511.6, 335], 'bid': 7.21}, {'imgObject': {}, 'id': 'turkeysandwich', 'src': '/static/foodstim60/turkeysandwich.jpg', 'key': 'i', 'origWidth': 409, 'origHeight': 409, 'width': 409, 'height': 409, 'widthPercent': 0.45, 'rescaleHeight': False, 'trialN': 100, 'loaded': True, 'loadedTime': 3246.100000143051, 'positionName': 'RIGHT', 'positionCoords': [998.4, 335.5], 'bid': 5.48}]",168309.0,1669830324313,bagel plain,turkeysandwich,7.21,5.48,-1.7299999999999995,bagel plain,629.2000000476837,630,629.7000000476837,True,u,169443.70000004768,1134.7000000476837,1669830325448,1135,HRV,HRV_0027,2022-11-30 17:47:27
101,"[{'imgObject': {}, 'id': 'sushi w_condiments', 'src': '/static/foodstim60/sushi w_condiments.jpg', 'key': 'u', 'origWidth': 410, 'origHeight': 410, 'width': 410, 'height': 410, 'widthPercent': 0.45, 'rescaleHeight': False, 'trialN': 101, 'loaded': True, 'loadedTime': 3170.4000000953674, 'positionName': 'LEFT', 'positionCoords': [511.6, 335], 'bid': 4.13}, {'imgObject': {}, 'id': 'popsicles', 'src': '/static/foodstim60/popsicles.jpg', 'key': 'i', 'origWidth': 410, 'origHeight': 410, 'width': 410, 'height': 410, 'widthPercent': 0.45, 'rescaleHeight': False, 'trialN': 101, 'loaded': True, 'loadedTime': 3241.7000000476837, 'positionName': 'RIGHT', 'positionCoords': [998.4, 335], 'bid': 3.88}]",169443.90000009537,1669830325448,sushi w_condiments,popsicles,4.13,3.88,-0.25,sushi w_condiments,902.5,903,903.0999999046326,True,u,170859.29999995232,1415.3999998569489,1669830326864,1416,HRV,HRV_0027,2022-11-30 17:47:27
102,"[{'imgObject': {}, 'id': 'turkey sandwich', 'src': '/static/foodstim60/turkey sandwich.jpg', 'key': 'u', 'origWidth': 409, 'origHeight': 409, 'width': 409, 'height': 409, 'widthPercent': 0.45, 'rescaleHeight': False, 'trialN': 102, 'loaded': True, 'loadedTime': 3218.4000000953674, 'positionName': 'LEFT', 'positionCoords': [512.6, 335.5], 'bid': 4.96}, {'imgObject': {}, 'id': 'hotdog w must', 'src': '/static/foodstim60/hotdog w must.jpg', 'key': 'i', 'origWidth': 409, 'origHeight': 409, 'width': 409, 'height': 409, 'widthPercent': 0.45, 'rescaleHeight': False, 'trialN': 102, 'loaded': True, 'loadedTime': 2453.2999999523163, 'positionName': 'RIGHT', 'positionCoords': [998.4, 335.5], 'bid': 5.01}]",170859.5,1669830326864,turkey sandwich,hotdog w must,4.96,5.01,0.04999999999999982,hotdog w must,1006.4000000953674,1007,1006.9000000953674,True,i,172368.90000009537,1509.4000000953674,1669830328373,1509,HRV,HRV_0027,2022-11-30 17:47:27
103,"[{'imgObject': {}, 'id': 'raspberries', 'src': '/static/foodstim60/raspberries.jpg', 'key': 'u', 'origWidth': 411, 'origHeight': 411, 'width': 411, 'height': 411, 'widthPercent': 0.45, 'rescaleHeight': False, 'trialN': 103, 'loaded': True, 'loadedTime': 3249.5, 'positionName': 'LEFT', 'positionCoords': [510.6, 334.5], 'bid': 2.96}, {'imgObject': {}, 'id': 'rigatoni', 'src': '/static/foodstim60/rigatoni.jpg', 'key': 'i', 'origWidth': 411, 'origHeight': 411, 'width': 411, 'height': 411, 'widthPercent': 0.45, 'rescaleHeight': False, 'trialN': 103, 'loaded': True, 'loadedTime': 2355.600000143051, 'positionName': 'RIGHT', 'positionCoords': [998.4, 334.5], 'bid': 5.03}]",172369.20000004768,1669830328373,raspberries,rigatoni,2.96,5.03,2.0700000000000003,rigatoni,872.2999999523163,873,872.4000000953674,True,i,173755.5,1386.2999999523163,1669830329760,1387,HRV,HRV_0027,2022-11-30 17:47:27
104,"[{'imgObject': {}, 'id': 'Grapes', 'src': '/static/foodstim60/Grapes.jpg', 'key': 'u', 'origWidth': 411, 'origHeight': 411, 'width': 411, 'height': 411, 'widthPercent': 0.45, 'rescaleHeight': False, 'trialN': 104, 'loaded': True, 'loadedTime': 2848.600000143051, 'positionName': 'LEFT', 'positionCoords': [510.6, 334.5], 'bid': 3.09}, {'imgObject': {}, 'id': 'raspberries', 'src': '/static/foodstim60/raspberries.jpg', 'key': 'i', 'origWidth': 411, 'origHeight': 411, 'width': 411, 'height': 411, 'widthPercent': 0.45, 'rescaleHeight': False, 'trialN': 104, 'loaded': True, 'loadedTime': 3249.2999999523163, 'positionName': 'RIGHT', 'positionCoords': [998.4, 334.5], 'bid': 2.96}]",173755.60000014305,1669830329760,Grapes,raspberries,3.09,2.96,-0.1299999999999999,Grapes,654.7999999523163,655,655.3999998569489,True,u,174918.0,1162.3999998569489,1669830330922,1162,HRV,HRV_0027,2022-11-30 17:47:27
105,"[{'imgObject': {}, 'id': 'corn cob', 'src': '/static/foodstim60/corn cob.jpg', 'key': 'u', 'origWidth': 411, 'origHeight': 411, 'width': 411, 'height': 411, 'widthPercent': 0.45, 'rescaleHeight': False, 'trialN': 105, 'loaded': True, 'loadedTime': 3009.2000000476837, 'positionName': 'LEFT', 'positionCoords': [510.6, 334.5], 'bid': 2.97}, {'imgObject': {}, 'id': 'raisin bran w milk', 'src': '/static/foodstim60/raisin bran w milk.jpg', 'key': 'i', 'origWidth': 411, 'origHeight': 411, 'width': 411, 'height': 411, 'widthPercent': 0.45, 'rescaleHeight': False, 'trialN': 105, 'loaded': True, 'loadedTime': 2701.100000143051, 'positionName': 'RIGHT', 'positionCoords': [998.4, 334.5], 'bid': 3.69}]",174918.10000014305,1669830330922,corn cob,raisin bran w milk,2.97,3.69,0.7199999999999998,corn cob,868.8999998569489,870,869.3999998569489,True,u,176301.90000009537,1383.7999999523163,1669830332306,1384,HRV,HRV_0027,2022-11-30 17:47:27
106,"[{'imgObject': {}, 'id': 'shreddedwheatwithmilk', 'src': '/static/foodstim60/shreddedwheatwithmilk.jpg', 'key': 'u', 'origWidth': 410, 'origHeight': 410, 'width': 410, 'height': 410, 'widthPercent': 0.45, 'rescaleHeight': False, 'trialN': 106, 'loaded': True, 'loadedTime': 2425.7999999523163, 'positionName': 'LEFT', 'positionCoords': [511.6, 335], 'bid': 4.14}, {'imgObject': {}, 'id': 'olives', 'src': '/static/foodstim60/olives.jpg', 'key': 'i', 'origWidth': 410, 'origHeight': 410, 'width': 410, 'height': 410, 'widthPercent': 0.45, 'rescaleHeight': False, 'trialN': 106, 'loaded': True, 'loadedTime': 2627.4000000953674, 'positionName': 'RIGHT', 'positionCoords': [998.4, 335], 'bid': 2.03}]",176301.90000009537,1669830332306,shreddedwheatwithmilk,olives,4.14,2.03,-2.11,shreddedwheatwithmilk,972.2999999523163,973,972.7999999523163,True,u,177780.5,1478.5999999046326,1669830333785,1479,HRV,HRV_0027,2022-11-30 17:47:27
107,"[{'imgObject': {}, 'id': 'veggieswithdip', 'src': '/static/foodstim60/veggieswithdip.jpg', 'key': 'u', 'origWidth': 409, 'origHeight': 409, 'width': 409, 'height': 409, 'widthPercent': 0.45, 'rescaleHeight': False, 'trialN': 107, 'loaded': True, 'loadedTime': 3030.600000143051, 'positionName': 'LEFT', 'positionCoords': [512.6, 335.5], 'bid': 1.9}, {'imgObject': {}, 'id': 'kiwi', 'src': '/static/foodstim60/kiwi.jpg', 'key': 'i', 'origWidth': 410, 'origHeight': 410, 'width': 410, 'height': 410, 'widthPercent': 0.45, 'rescaleHeight': False, 'trialN': 107, 'loaded': True, 'loadedTime': 3112.2000000476837, 'positionName': 'RIGHT', 'positionCoords': [998.4, 335], 'bid': 2}]",177780.5,1669830333785,veggieswithdip,kiwi,1.9,2.0,0.10000000000000009,kiwi,1284.9000000953674,1285,1285.1000001430511,True,i,179583.0,1802.5,1669830335587,1802,HRV,HRV_0027,2022-11-30 17:47:27
108,"[{'imgObject': {}, 'id': 'roastedpotatoes', 'src': '/static/foodstim60/roastedpotatoes.jpg', 'key': 'u', 'origWidth': 409, 'origHeight': 410, 'width': 409, 'height': 410, 'widthPercent': 0.45, 'rescaleHeight': False, 'trialN': 108, 'loaded': True, 'loadedTime': 3142, 'positionName': 'LEFT', 'positionCoords': [512.6, 335], 'bid': 3.77}, {'imgObject': {}, 'id': 'froot loops w milk', 'src': '/static/foodstim60/froot loops w milk.jpg', 'key': 'i', 'origWidth': 410, 'origHeight': 410, 'width': 410, 'height': 410, 'widthPercent': 0.45, 'rescaleHeight': False, 'trialN': 108, 'loaded': True, 'loadedTime': 2931.9000000953674, 'positionName': 'RIGHT', 'positionCoords': [998.4, 335], 'bid': 3.69}]",179583.10000014305,1669830335587,roastedpotatoes,froot loops w milk,3.77,3.69,-0.08000000000000007,roastedpotatoes,713.8999998569489,714,714.1999998092651,True,u,180811.60000014305,1228.5,1669830336816,1229,HRV,HRV_0027,2022-11-30 17:47:27
