success,trial_type,trial_index,time_elapsed,internal_node_id,Block,TrialNumber,TrialTime,trialTimeDiff,FPS_avg,FPS_med,FPS_mode,TrialDur,winResizeTime,rt,block,button_pressed,MotCoh,MotDir,ColCoh,Color,ChoiceKey,Choice,Accuracy,RT,nFrames,FPS,PPD,missTrial,missTrialMsg,onsetDelay,fullScreenExitTime,canvCenter,TrialType,Score,BlockTrial,stimulus,button_labels,exp,subjectId,date
True,fullscreen,0,1938,0.0-0.0,0.0,1.0,,,,,,,,,,,,,,,,,,,,,,,,,,,,,,,,HRV,HRV_0135,2022-11-30 18:23:46
,wl-check-fps,1,6930,0.0-1.0,0.0,2.0,"[4024, 4040, 4057, 4067, 4073, 4085, 4102, 4120, 4135, 4156, 4170, 4186, 4203, 4219, 4235, 4252, 4269, 4286, 4303, 4320, 4335, 4353, 4371, 4385, 4402, 4419, 4435, 4453, 4470, 4485, 4503, 4520, 4536, 4553, 4569, 4585, 4603, 4620, 4635, 4654, 4670, 4686, 4703, 4719, 4735, 4753, 4770, 4786, 4802, 4819, 4836, 4852, 4870, 4885, 4903, 4919, 4936, 4952, 4970, 4986, 5003, 5021, 5036, 5054, 5070, 5086, 5104, 5119, 5135, 5153, 5169, 5186, 5202, 5219, 5237, 5253, 5270, 5286, 5302, 5319, 5335, 5353, 5369, 5385, 5402, 5419, 5435, 5453, 5470, 5485, 5503, 5519, 5535, 5552, 5570, 5586, 5604, 5619, 5635, 5652, 5670, 5686, 5703, 5719, 5736, 5753, 5770, 5785, 5806, 5819, 5836, 5852, 5870, 5887, 5903, 5920, 5936, 5952, 5970, 5985, 6002, 6020, 6036, 6052, 6070, 6086, 6102, 6122, 6136, 6152, 6170, 6186, 6202, 6221, 6235, 6272, 6283, 6293, 6304, 6337, 6345, 6352, 6369, 6386, 6402, 6429, 6437, 6456, 6477, 6491, 6502, 6519, 6537, 6552, 6570, 6592, 6603, 6619, 6637, 6653, 6671, 6685, 6703, 6719, 6736, 6752, 6771, 6786, 6802, 6820, 6836, 6853, 6869, 6885, 6903, 6920, 6936, 6952, 6970, 6986, 7003, 7021, 7036, 7052, 7070, 7085, 7102, 7119, 7136, 7153, 7170, 7186, 7203, 7220, 7236, 7252, 7270, 7285, 7302, 7320, 7336, 7353, 7370, 7386, 7403, 7420, 7436, 7453, 7469, 7486, 7503, 7519, 7536, 7553, 7569, 7586, 7603, 7620, 7635, 7652, 7671, 7685, 7732, 7737, 7742, 7753, 7769, 7796, 7803, 7820, 7837, 7856, 7869, 7887, 7902, 7919, 7936, 7952, 7969, 7986, 8002, 8020, 8036, 8053, 8073, 8086, 8104, 8119, 8136, 8153, 8170, 8186, 8204, 8221, 8236, 8253, 8270, 8288, 8303, 8321, 8335, 8353, 8371, 8386, 8403, 8421, 8443, 8453, 8470, 8485, 8505, 8520, 8536, 8553, 8569, 8586, 8603, 8620, 8635, 8653, 8670, 8686, 8703, 8721, 8735, 8753, 8770, 8785, 8803, 8820, 8835, 8853, 8869, 8886, 8902, 8920, 8937, 8953, 8970, 8986]","[8, 16, 17, 10, 6, 12, 17, 18, 15, 21, 14, 16, 17, 16, 16, 17, 17, 17, 17, 17, 15, 18, 18, 14, 17, 17, 16, 18, 17, 15, 18, 17, 16, 17, 16, 16, 18, 17, 15, 19, 16, 16, 17, 16, 16, 18, 17, 16, 16, 17, 17, 16, 18, 15, 18, 16, 17, 16, 18, 16, 17, 18, 15, 18, 16, 16, 18, 15, 16, 18, 16, 17, 16, 17, 18, 16, 17, 16, 16, 17, 16, 18, 16, 16, 17, 17, 16, 18, 17, 15, 18, 16, 16, 17, 18, 16, 18, 15, 16, 17, 18, 16, 17, 16, 17, 17, 17, 15, 21, 13, 17, 16, 18, 17, 16, 17, 16, 16, 18, 15, 17, 18, 16, 16, 18, 16, 16, 20, 14, 16, 18, 16, 16, 19, 14, 37, 11, 10, 11, 33, 8, 7, 17, 17, 16, 27, 8, 19, 21, 14, 11, 17, 18, 15, 18, 22, 11, 16, 18, 16, 18, 14, 18, 16, 17, 16, 19, 15, 16, 18, 16, 17, 16, 16, 18, 17, 16, 16, 18, 16, 17, 18, 15, 16, 18, 15, 17, 17, 17, 17, 17, 16, 17, 17, 16, 16, 18, 15, 17, 18, 16, 17, 17, 16, 17, 17, 16, 17, 16, 17, 17, 16, 17, 17, 16, 17, 17, 17, 15, 17, 19, 14, 47, 5, 5, 11, 16, 27, 7, 17, 17, 19, 13, 18, 15, 17, 17, 16, 17, 17, 16, 18, 16, 17, 20, 13, 18, 15, 17, 17, 17, 16, 18, 17, 15, 17, 17, 18, 15, 18, 14, 18, 18, 15, 17, 18, 22, 10, 17, 15, 20, 15, 16, 17, 16, 17, 17, 17, 15, 18, 17, 16, 17, 18, 14, 18, 17, 15, 18, 17, 15, 18, 16, 17, 16, 18, 17, 16, 17, 16]",60.0,80.0,59.0,4987.0,[],,,,,,,,,,,,,,,,,,,,,,,,,HRV,HRV_0135,2022-11-30 18:23:46
,wl-html-keyboard-response,2,16426,0.0-2.0-0.0,0.0,3.0,,,,,,,,7489.0,0.0,0,,,,,,,,,,,,,,,,,,,,,,HRV,HRV_0135,2022-11-30 18:23:46
,wl-rdm,3,30896,0.0-3.0-0.0,0.0,4.0,,,,,,,[],,,,0.0,0.0,87.9,0.0,u,0.0,True,2231.0,124.0,59.0,40.0,False,too_early too_early too_early ,3000.0,[],"[683, 384]",ColorTask_Demo,,,,,HRV,HRV_0135,2022-11-30 18:23:46
,wl-rdm,4,45577,0.0-3.0-1.0,0.0,5.0,,,,,,,[],,,,0.0,0.0,87.9,1.0,i,1.0,True,1448.0,86.0,59.0,40.0,False,too_early too_early too_early ,2000.0,[],"[683, 384]",ColorTask_Demo,,,,,HRV,HRV_0135,2022-11-30 18:23:46
,wl-html-keyboard-response,5,53770,0.0-3.0-2.0,0.0,6.0,,,,,,,,6185.0,0.0,1,,,,,,,,,,,,,,,,,,,,,,HRV,HRV_0135,2022-11-30 18:23:46
,wl-html-keyboard-response,6,61067,0.0-4.0-0.0,0.0,7.0,,,,,,,,5292.0,0.0,0,,,,,,,,,,,,,,,,,,,,,,HRV,HRV_0135,2022-11-30 18:23:46
,wl-html-keyboard-response,7,71171,0.0-5.0-0.0,0.0,8.0,,,,,,,,8066.0,0.0,0,,,,,,,,,,,,,,,,,,,,,,HRV,HRV_0135,2022-11-30 18:23:46
,wl-rdm,8,74227,0.0-6.0-0.0,0.0,9.0,,,,,,,[],,,,,,50.0,0.0,u,0.0,True,1733.0,100.0,59.0,40.0,False,,251.17284482741596,[],"[683, 384]",ColorTask,1.0,1.0,,,HRV,HRV_0135,2022-11-30 18:23:46
,wl-rdm,9,76660,0.0-6.1-0.1,0.0,10.0,,,,,,,[],,,,,,53.2,0.0,u,0.0,True,1139.0,69.0,59.0,40.0,False,,214.37756048272274,[],"[683, 384]",ColorTask,2.0,2.0,,,HRV,HRV_0135,2022-11-30 18:23:46
,wl-rdm,10,79076,0.0-6.2-0.2,0.0,11.0,,,,,,,[],,,,,,53.2,1.0,u,0.0,False,1067.0,64.0,59.0,40.0,False,,276.5917665448263,[],"[683, 384]",ColorTask,1.0,3.0,,,HRV,HRV_0135,2022-11-30 18:23:46
,wl-rdm,11,81393,0.0-6.3-0.3,0.0,12.0,,,,,,,[],,,,,,50.0,0.0,i,1.0,False,906.0,55.0,59.0,40.0,False,,347.1944023017981,[],"[683, 384]",ColorTask,0.0,4.0,,,HRV,HRV_0135,2022-11-30 18:23:46
,wl-rdm,12,83961,0.0-6.4-0.4,0.0,13.0,,,,,,,[],,,,,,53.2,0.0,u,0.0,True,1222.0,73.0,59.0,40.0,False,,252.99474276440293,[],"[683, 384]",ColorTask,1.0,5.0,,,HRV,HRV_0135,2022-11-30 18:23:46
,wl-rdm,13,86064,0.0-6.5-0.5,0.0,14.0,,,,,,,[],,,,,,53.2,1.0,u,0.0,False,792.0,48.0,59.0,40.0,False,,247.64502217428367,[],"[683, 384]",ColorTask,0.0,6.0,,,HRV,HRV_0135,2022-11-30 18:23:46
,wl-rdm,14,87610,0.0-6.6-0.6,0.0,15.0,,,,,,,[],,,,,,62.5,0.0,u,0.0,True,197.0,12.0,59.0,40.0,False,,276.9900696671036,[],"[683, 384]",ColorTask,1.0,7.0,,,HRV,HRV_0135,2022-11-30 18:23:46
,wl-rdm,15,88692,0.0-6.7-0.7,0.0,15.0,,,,,,,[],,,,,,73.6,0.0,u,,,42.0,0.0,59.0,40.0,True,too_early ,305.09128870154075,[],"[683, 384]",ColorTask,0.0,8.0,,,HRV,HRV_0135,2022-11-30 18:23:46
,wl-rdm,16,89777,0.0-6.8-0.8,0.0,15.0,,,,,,,[],,,,,,73.6,1.0,u,,,29.0,0.0,59.0,40.0,True,too_early ,357.51563208576766,[],"[683, 384]",ColorTask,-1.0,9.0,,,HRV,HRV_0135,2022-11-30 18:23:46
,wl-rdm,17,90860,0.0-6.9-0.9,0.0,15.0,,,,,,,[],,,,,,50.0,1.0,i,,,85.0,0.0,59.0,40.0,True,too_early ,286.85060632610305,[],"[683, 384]",ColorTask,-2.0,10.0,,,HRV,HRV_0135,2022-11-30 18:23:46
,wl-rdm,18,91942,0.0-6.10-0.10,0.0,15.0,,,,,,,[],,,,,,50.0,0.0,u,,,172.0,0.0,59.0,40.0,True,too_early ,295.51969703589407,[],"[683, 384]",ColorTask,-3.0,11.0,,,HRV,HRV_0135,2022-11-30 18:23:46
,wl-rdm,19,94175,0.0-6.11-0.11,0.0,16.0,,,,,,,[],,,,,,56.4,0.0,u,0.0,True,961.0,58.0,59.0,40.0,False,,208.3151969812567,[],"[683, 384]",ColorTask,-2.0,12.0,,,HRV,HRV_0135,2022-11-30 18:23:46
,wl-rdm,20,97292,0.0-6.12-0.12,0.0,17.0,,,,,,,[],,,,,,62.5,0.0,u,0.0,True,1694.0,102.0,59.0,40.0,False,,340.64462401382946,[],"[683, 384]",ColorTask,-1.0,13.0,,,HRV,HRV_0135,2022-11-30 18:23:46
,wl-rdm,21,101126,0.0-6.13-0.13,0.0,18.0,,,,,,,[],,,,,,87.9,0.0,u,0.0,True,2411.0,145.0,59.0,40.0,False,,360.7676126552007,[],"[683, 384]",ColorTask,0.0,14.0,,,HRV,HRV_0135,2022-11-30 18:23:46
,wl-rdm,22,103025,0.0-6.14-0.14,0.0,19.0,,,,,,,[],,,,,,56.4,1.0,u,0.0,False,609.0,37.0,59.0,40.0,False,,208.5928483960856,[],"[683, 384]",ColorTask,-1.0,15.0,,,HRV,HRV_0135,2022-11-30 18:23:46
,wl-rdm,23,104943,0.0-6.15-0.15,0.0,20.0,,,,,,,[],,,,,,50.0,1.0,u,0.0,False,637.0,39.0,59.0,40.0,False,,209.80260677194724,[],"[683, 384]",ColorTask,-2.0,16.0,,,HRV,HRV_0135,2022-11-30 18:23:46
,wl-rdm,24,109308,0.0-6.16-0.16,0.0,20.0,,,,,,,[],,,,,,73.6,1.0,,,,,176.0,59.0,40.0,True,RT_timeout ,254.20237482849558,[],"[683, 384]",ColorTask,-3.0,17.0,,,HRV,HRV_0135,2022-11-30 18:23:46
,wl-rdm,25,110391,0.0-6.17-0.17,0.0,20.0,,,,,,,[],,,,,,53.2,1.0,u,,,388.0,0.0,59.0,40.0,True,too_early ,343.3666004898286,[],"[683, 384]",ColorTask,-4.0,18.0,,,HRV,HRV_0135,2022-11-30 18:23:46
,wl-rdm,26,113008,0.0-6.18-0.18,0.0,21.0,,,,,,,[],,,,,,73.6,0.0,u,0.0,True,1225.0,74.0,59.0,40.0,False,,306.4358223085809,[],"[683, 384]",ColorTask,-3.0,19.0,,,HRV,HRV_0135,2022-11-30 18:23:46
,wl-rdm,27,116808,0.0-6.19-0.19,0.0,22.0,,,,,,,[],,,,,,50.0,0.0,u,0.0,True,2366.0,142.0,59.0,40.0,False,,359.5987122640663,[],"[683, 384]",ColorTask,-2.0,20.0,,,HRV,HRV_0135,2022-11-30 18:23:46
,wl-rdm,28,118542,0.0-6.20-0.20,0.0,23.0,,,,,,,[],,,,,,62.5,1.0,u,0.0,False,302.0,19.0,59.0,40.0,False,,347.1238012390055,[],"[683, 384]",ColorTask,-3.0,21.0,,,HRV,HRV_0135,2022-11-30 18:23:46
,wl-rdm,29,120609,0.0-6.21-0.21,0.0,24.0,,,,,,,[],,,,,,56.4,1.0,u,0.0,False,790.0,45.0,59.0,40.0,False,,206.80928201900878,[],"[683, 384]",ColorTask,-4.0,22.0,,,HRV,HRV_0135,2022-11-30 18:23:46
,wl-rdm,30,123775,0.0-6.22-0.22,0.0,25.0,,,,,,,[],,,,,,56.4,0.0,u,0.0,True,1756.0,105.0,59.0,40.0,False,,346.4278698711004,[],"[683, 384]",ColorTask,-3.0,23.0,,,HRV,HRV_0135,2022-11-30 18:23:46
,wl-rdm,31,125592,0.0-6.23-0.23,0.0,26.0,,,,,,,[],,,,,,53.2,1.0,u,0.0,False,393.0,24.0,59.0,40.0,False,,351.5626284033704,[],"[683, 384]",ColorTask,-4.0,24.0,,,HRV,HRV_0135,2022-11-30 18:23:46
,wl-rdm,32,128058,0.0-6.24-0.24,0.0,27.0,,,,,,,[],,,,,,62.5,0.0,u,0.0,True,1172.0,71.0,59.0,40.0,False,,211.6069342981299,[],"[683, 384]",ColorTask,-3.0,25.0,,,HRV,HRV_0135,2022-11-30 18:23:46
,wl-rdm,33,130959,0.0-6.25-0.25,0.0,28.0,,,,,,,[],,,,,,53.2,0.0,u,0.0,True,1482.0,86.0,59.0,40.0,False,,334.32018118847895,[],"[683, 384]",ColorTask,-2.0,26.0,,,HRV,HRV_0135,2022-11-30 18:23:46
,wl-rdm,34,133258,0.0-6.26-0.26,0.0,29.0,,,,,,,[],,,,,,56.4,1.0,u,0.0,False,950.0,57.0,59.0,40.0,False,,281.1003444979721,[],"[683, 384]",ColorTask,-3.0,27.0,,,HRV,HRV_0135,2022-11-30 18:23:46
,wl-rdm,35,135142,0.0-6.27-0.27,0.0,30.0,,,,,,,[],,,,,,53.2,0.0,u,0.0,True,520.0,32.0,59.0,40.0,False,,266.7515945042996,[],"[683, 384]",ColorTask,-2.0,28.0,,,HRV,HRV_0135,2022-11-30 18:23:46
,wl-rdm,36,136445,0.0-6.28-0.28,0.0,30.0,,,,,,,[],,,,,,50.0,0.0,u,,,780.0,0.0,59.0,40.0,True,too_early ,250.16917715197633,[],"[683, 384]",ColorTask,-3.0,29.0,,,HRV,HRV_0135,2022-11-30 18:23:46
,wl-rdm,37,139541,0.0-6.29-0.29,0.0,31.0,,,,,,,[],,,,,,50.0,1.0,i,1.0,True,1696.0,100.0,59.0,40.0,False,,331.7876708777702,[],"[683, 384]",ColorTask,-2.0,30.0,,,HRV,HRV_0135,2022-11-30 18:23:46
,wl-rdm,38,141841,0.0-6.30-0.30,0.0,32.0,,,,,,,[],,,,,,53.2,0.0,u,0.0,True,923.0,56.0,59.0,40.0,False,,287.44961889345336,[],"[683, 384]",ColorTask,-1.0,31.0,,,HRV,HRV_0135,2022-11-30 18:23:46
,wl-rdm,39,143041,0.0-6.31-0.31,0.0,32.0,,,,,,,[],,,,,,56.4,0.0,i,,,659.0,0.0,59.0,40.0,True,too_early ,259.97605949644594,[],"[683, 384]",ColorTask,-2.0,32.0,,,HRV,HRV_0135,2022-11-30 18:23:46
,wl-rdm,40,144575,0.0-6.32-0.32,0.0,33.0,,,,,,,[],,,,,,50.0,1.0,u,0.0,False,135.0,9.0,59.0,40.0,False,,308.518538321179,[],"[683, 384]",ColorTask,-3.0,33.0,,,HRV,HRV_0135,2022-11-30 18:23:46
,wl-rdm,41,146159,0.0-6.33-0.33,0.0,34.0,,,,,,,[],,,,,,62.5,1.0,u,0.0,False,136.0,8.0,59.0,40.0,False,,375.5568592424619,[],"[683, 384]",ColorTask,-4.0,34.0,,,HRV,HRV_0135,2022-11-30 18:23:46
,wl-rdm,42,148308,0.0-6.34-0.34,0.0,35.0,,,,,,,[],,,,,,50.0,0.0,u,0.0,True,844.0,51.0,59.0,40.0,False,,236.10402395427786,[],"[683, 384]",ColorTask,-3.0,35.0,,,HRV,HRV_0135,2022-11-30 18:23:46
,wl-rdm,43,151058,0.0-6.35-0.35,0.0,36.0,,,,,,,[],,,,,,87.9,0.0,u,0.0,True,1427.0,86.0,59.0,40.0,False,,254.9014615215556,[],"[683, 384]",ColorTask,-2.0,36.0,,,HRV,HRV_0135,2022-11-30 18:23:46
,wl-rdm,44,152141,0.0-6.36-0.36,0.0,36.0,,,,,,,[],,,,,,73.6,1.0,i,,,276.0,0.0,59.0,40.0,True,too_early ,351.93385368398856,[],"[683, 384]",ColorTask,-3.0,37.0,,,HRV,HRV_0135,2022-11-30 18:23:46
,wl-rdm,45,153225,0.0-6.37-0.37,0.0,36.0,,,,,,,[],,,,,,50.0,1.0,u,,,303.0,0.0,59.0,40.0,True,too_early ,366.6765167624267,[],"[683, 384]",ColorTask,-4.0,38.0,,,HRV,HRV_0135,2022-11-30 18:23:46
,wl-rdm,46,156792,0.0-6.38-0.38,0.0,37.0,,,,,,,[],,,,,,87.9,1.0,u,0.0,False,2280.0,135.0,59.0,40.0,False,,207.7617490498969,[],"[683, 384]",ColorTask,-5.0,39.0,,,HRV,HRV_0135,2022-11-30 18:23:46
,wl-rdm,47,158958,0.0-6.39-0.39,0.0,38.0,,,,,,,[],,,,,,50.0,1.0,u,0.0,False,837.0,52.0,59.0,40.0,False,,212.21409259954982,[],"[683, 384]",ColorTask,-6.0,40.0,,,HRV,HRV_0135,2022-11-30 18:23:46
,wl-rdm,48,161541,0.0-6.40-0.40,0.0,39.0,,,,,,,[],,,,,,53.2,0.0,u,0.0,True,1278.0,77.0,59.0,40.0,False,,226.2830419242654,[],"[683, 384]",ColorTask,-5.0,41.0,,,HRV,HRV_0135,2022-11-30 18:23:46
,wl-rdm,49,164358,0.0-6.41-0.41,0.0,40.0,,,,,,,[],,,,,,62.5,1.0,u,0.0,False,1340.0,81.0,59.0,40.0,False,,392.86089787444314,[],"[683, 384]",ColorTask,-6.0,42.0,,,HRV,HRV_0135,2022-11-30 18:23:46
,wl-rdm,50,166491,0.0-6.42-0.42,0.0,41.0,,,,,,,[],,,,,,53.2,1.0,u,0.0,False,761.0,46.0,59.0,40.0,False,,285.8756293240912,[],"[683, 384]",ColorTask,-7.0,43.0,,,HRV,HRV_0135,2022-11-30 18:23:46
,wl-rdm,51,167591,0.0-6.43-0.43,0.0,41.0,,,,,,,[],,,,,,87.9,0.0,u,,,559.0,0.0,59.0,40.0,True,too_early ,344.73299897308084,[],"[683, 384]",ColorTask,-8.0,44.0,,,HRV,HRV_0135,2022-11-30 18:23:46
,wl-rdm,52,170673,0.0-6.44-0.44,0.0,42.0,,,,,,,[],,,,,,73.6,0.0,u,0.0,True,1626.0,94.0,59.0,40.0,False,,378.2657405291004,[],"[683, 384]",ColorTask,-7.0,45.0,,,HRV,HRV_0135,2022-11-30 18:23:46
,wl-rdm,53,174974,0.0-6.45-0.45,0.0,42.0,,,,,,,[],,,,,,56.4,1.0,,,,,176.0,59.0,40.0,True,RT_timeout ,204.42932601460063,[],"[683, 384]",ColorTask,-8.0,46.0,,,HRV,HRV_0135,2022-11-30 18:23:46
,wl-rdm,54,176206,0.0-6.46-0.46,0.0,42.0,,,,,,,[],,,,,,56.4,1.0,u,,,709.0,0.0,59.0,40.0,True,too_early ,295.5048296861669,[],"[683, 384]",ColorTask,-9.0,47.0,,,HRV,HRV_0135,2022-11-30 18:23:46
,wl-rdm,55,180623,0.0-6.47-0.47,0.0,42.0,,,,,,,[],,,,,,56.4,0.0,,,,,176.0,59.0,40.0,True,RT_timeout ,323.4368926155443,[],"[683, 384]",ColorTask,-10.0,48.0,,,HRV,HRV_0135,2022-11-30 18:23:46
,wl-rdm,56,181690,0.0-6.48-0.48,0.0,42.0,,,,,,,[],,,,,,56.4,1.0,u,,,530.0,0.0,59.0,40.0,True,too_early ,211.4530485745139,[],"[683, 384]",ColorTask,-11.0,49.0,,,HRV,HRV_0135,2022-11-30 18:23:46
,wl-rdm,57,183590,0.0-6.49-0.49,0.0,43.0,,,,,,,[],,,,,,62.5,0.0,u,0.0,True,481.0,29.0,59.0,40.0,False,,363.2331937806553,[],"[683, 384]",ColorTask,-10.0,50.0,,,HRV,HRV_0135,2022-11-30 18:23:46
,wl-rdm,58,185938,0.0-6.50-0.50,0.0,44.0,,,,,,,[],,,,,,50.0,1.0,u,0.0,False,1049.0,63.0,59.0,40.0,False,,221.83552374185888,[],"[683, 384]",ColorTask,-11.0,51.0,,,HRV,HRV_0135,2022-11-30 18:23:46
,wl-rdm,59,187856,0.0-6.51-0.51,0.0,45.0,,,,,,,[],,,,,,73.6,0.0,u,0.0,True,528.0,31.0,59.0,40.0,False,,311.60541860970255,[],"[683, 384]",ColorTask,-10.0,52.0,,,HRV,HRV_0135,2022-11-30 18:23:46
,wl-rdm,60,189263,0.0-6.52-0.52,0.0,45.0,,,,,,,[],,,,,,62.5,1.0,u,0.0,False,38.0,3.0,59.0,40.0,True,too_early ,301.9610681855729,[],"[683, 384]",ColorTask,-11.0,53.0,,,HRV,HRV_0135,2022-11-30 18:23:46
,wl-rdm,61,192285,0.0-6.53-0.53,0.0,46.0,,,,,,,[],,,,,,56.4,1.0,u,0.0,False,1689.0,102.0,59.0,40.0,False,,264.4986958823628,[],"[683, 384]",ColorTask,-12.0,54.0,,,HRV,HRV_0135,2022-11-30 18:23:46
,wl-rdm,62,195574,0.0-6.54-0.54,0.0,47.0,,,,,,,[],,,,,,50.0,1.0,i,1.0,True,1960.0,115.0,59.0,40.0,False,,238.95780034003468,[],"[683, 384]",ColorTask,-11.0,55.0,,,HRV,HRV_0135,2022-11-30 18:23:46
,wl-rdm,63,197924,0.0-6.55-0.55,0.0,48.0,,,,,,,[],,,,,,87.9,0.0,u,0.0,True,965.0,58.0,59.0,40.0,False,,332.55748305088036,[],"[683, 384]",ColorTask,-10.0,56.0,,,HRV,HRV_0135,2022-11-30 18:23:46
,wl-rdm,64,199874,0.0-6.56-0.56,0.0,49.0,,,,,,,[],,,,,,87.9,0.0,u,0.0,True,682.0,41.0,59.0,40.0,False,,208.05708372668573,[],"[683, 384]",ColorTask,-9.0,57.0,,,HRV,HRV_0135,2022-11-30 18:23:46
,wl-rdm,65,202173,0.0-6.57-0.57,0.0,50.0,,,,,,,[],,,,,,87.9,1.0,u,0.0,False,913.0,54.0,59.0,40.0,False,,301.15645470525135,[],"[683, 384]",ColorTask,-10.0,58.0,,,HRV,HRV_0135,2022-11-30 18:23:46
,wl-rdm,66,204192,0.0-6.58-0.58,0.0,51.0,,,,,,,[],,,,,,73.6,0.0,u,0.0,True,659.0,40.0,59.0,40.0,False,,316.18326389130755,[],"[683, 384]",ColorTask,-9.0,59.0,,,HRV,HRV_0135,2022-11-30 18:23:46
,wl-rdm,67,206323,0.0-6.59-0.59,0.0,52.0,,,,,,,[],,,,,,50.0,0.0,u,0.0,True,732.0,44.0,59.0,40.0,False,,343.49281445869013,[],"[683, 384]",ColorTask,-8.0,60.0,,,HRV,HRV_0135,2022-11-30 18:23:46
,wl-rdm,68,208557,0.0-6.60-0.60,0.0,53.0,,,,,,,[],,,,,,62.5,0.0,u,0.0,True,806.0,49.0,59.0,40.0,False,,352.8046747267091,[],"[683, 384]",ColorTask,-7.0,61.0,,,HRV,HRV_0135,2022-11-30 18:23:46
,wl-rdm,69,210923,0.0-6.61-0.61,0.0,54.0,,,,,,,[],,,,,,62.5,0.0,u,0.0,True,948.0,57.0,59.0,40.0,False,,310.1721969983274,[],"[683, 384]",ColorTask,-6.0,62.0,,,HRV,HRV_0135,2022-11-30 18:23:46
,wl-rdm,70,213724,0.0-6.62-0.62,0.0,55.0,,,,,,,[],,,,,,50.0,0.0,u,0.0,True,1490.0,90.0,59.0,40.0,False,,244.31673080696655,[],"[683, 384]",ColorTask,-5.0,63.0,,,HRV,HRV_0135,2022-11-30 18:23:46
,wl-rdm,71,216206,0.0-6.63-0.63,0.0,56.0,,,,,,,[],,,,,,56.4,0.0,u,0.0,True,1010.0,60.0,59.0,40.0,False,,389.5061729032399,[],"[683, 384]",ColorTask,-4.0,64.0,,,HRV,HRV_0135,2022-11-30 18:23:46
,wl-rdm,72,218588,0.0-6.64-0.64,0.0,57.0,,,,,,,[],,,,,,56.4,0.0,u,0.0,True,1000.0,57.0,59.0,40.0,False,,301.05901032405745,[],"[683, 384]",ColorTask,-3.0,65.0,,,HRV,HRV_0135,2022-11-30 18:23:46
,wl-rdm,73,222940,0.0-6.65-0.65,0.0,57.0,,,,,,,[],,,,,,56.4,0.0,u,,,3117.0,176.0,59.0,40.0,True,RT_timeout ,257.49270242644604,[],"[683, 384]",ColorTask,-4.0,66.0,,,HRV,HRV_0135,2022-11-30 18:23:46
,wl-rdm,74,225040,0.0-6.66-0.66,0.0,58.0,,,,,,,[],,,,,,87.9,1.0,u,0.0,False,579.0,36.0,59.0,40.0,False,,391.9219403525566,[],"[683, 384]",ColorTask,-5.0,67.0,,,HRV,HRV_0135,2022-11-30 18:23:46
,wl-rdm,75,227005,0.0-6.67-0.67,0.0,59.0,,,,,,,[],,,,,,73.6,1.0,i,1.0,True,696.0,37.0,59.0,40.0,False,,203.91566491770683,[],"[683, 384]",ColorTask,-4.0,68.0,,,HRV,HRV_0135,2022-11-30 18:23:46
,wl-rdm,76,228890,0.0-6.68-0.68,0.0,60.0,,,,,,,[],,,,,,53.2,1.0,u,0.0,False,490.0,30.0,59.0,40.0,False,,303.4874047648744,[],"[683, 384]",ColorTask,-5.0,69.0,,,HRV,HRV_0135,2022-11-30 18:23:46
,wl-rdm,77,230422,0.0-6.69-0.69,0.0,61.0,,,,,,,[],,,,,,62.5,1.0,i,1.0,True,164.0,10.0,59.0,40.0,False,,295.9065812419528,[],"[683, 384]",ColorTask,-4.0,70.0,,,HRV,HRV_0135,2022-11-30 18:23:46
,wl-rdm,78,231906,0.0-6.70-0.70,0.0,62.0,,,,,,,[],,,,,,56.4,1.0,i,1.0,True,174.0,11.0,59.0,40.0,False,,229.62007023524745,[],"[683, 384]",ColorTask,-3.0,71.0,,,HRV,HRV_0135,2022-11-30 18:23:46
,wl-rdm,79,233622,0.0-6.71-0.71,0.0,63.0,,,,,,,[],,,,,,73.6,1.0,u,0.0,False,440.0,27.0,59.0,40.0,False,,207.912630433211,[],"[683, 384]",ColorTask,-4.0,72.0,,,HRV,HRV_0135,2022-11-30 18:23:46
,wl-rdm,80,235323,0.0-6.72-0.72,0.0,64.0,,,,,,,[],,,,,,73.6,0.0,i,1.0,False,414.0,25.0,59.0,40.0,False,,209.74025842185978,[],"[683, 384]",ColorTask,-5.0,73.0,,,HRV,HRV_0135,2022-11-30 18:23:46
,wl-rdm,81,237173,0.0-6.73-0.73,0.0,65.0,,,,,,,[],,,,,,62.5,1.0,u,0.0,False,509.0,28.0,59.0,40.0,False,,268.45746439249257,[],"[683, 384]",ColorTask,-6.0,74.0,,,HRV,HRV_0135,2022-11-30 18:23:46
,wl-rdm,82,239006,0.0-6.74-0.74,0.0,66.0,,,,,,,[],,,,,,73.6,0.0,i,1.0,False,404.0,25.0,59.0,40.0,False,,356.46504105912226,[],"[683, 384]",ColorTask,-7.0,75.0,,,HRV,HRV_0135,2022-11-30 18:23:46
,wl-rdm,83,240988,0.0-6.75-0.75,0.0,67.0,,,,,,,[],,,,,,87.9,0.0,i,1.0,False,607.0,37.0,59.0,40.0,False,,289.46354595195356,[],"[683, 384]",ColorTask,-8.0,76.0,,,HRV,HRV_0135,2022-11-30 18:23:46
,wl-rdm,84,242638,0.0-6.76-0.76,0.0,68.0,,,,,,,[],,,,,,87.9,1.0,i,1.0,True,333.0,20.0,59.0,40.0,False,,240.39396561849475,[],"[683, 384]",ColorTask,-7.0,77.0,,,HRV,HRV_0135,2022-11-30 18:23:46
,wl-rdm,85,244788,0.0-6.77-0.77,0.0,69.0,,,,,,,[],,,,,,62.5,1.0,i,1.0,True,800.0,44.0,59.0,40.0,False,,283.2184873716695,[],"[683, 384]",ColorTask,-6.0,78.0,,,HRV,HRV_0135,2022-11-30 18:23:46
,wl-rdm,86,246622,0.0-6.78-0.78,0.0,70.0,,,,,,,[],,,,,,87.9,1.0,i,1.0,True,542.0,33.0,59.0,40.0,False,,212.26255867702383,[],"[683, 384]",ColorTask,-5.0,79.0,,,HRV,HRV_0135,2022-11-30 18:23:46
,wl-rdm,87,250710,0.0-6.79-0.79,0.0,71.0,,,,,,,[],,,,,,62.5,1.0,i,1.0,True,2789.0,168.0,59.0,40.0,False,,205.8833669888017,[],"[683, 384]",ColorTask,-4.0,80.0,,,HRV,HRV_0135,2022-11-30 18:23:46
,wl-rdm,88,252837,0.0-6.80-0.80,0.0,72.0,,,,,,,[],,,,,,73.6,1.0,u,0.0,False,792.0,48.0,59.0,40.0,False,,255.15180721277292,[],"[683, 384]",ColorTask,-5.0,81.0,,,HRV,HRV_0135,2022-11-30 18:23:46
,wl-rdm,89,254570,0.0-6.81-0.81,0.0,73.0,,,,,,,[],,,,,,56.4,0.0,i,1.0,False,388.0,24.0,59.0,40.0,False,,210.26232896721135,[],"[683, 384]",ColorTask,-6.0,82.0,,,HRV,HRV_0135,2022-11-30 18:23:46
,wl-rdm,90,256471,0.0-6.82-0.82,0.0,74.0,,,,,,,[],,,,,,53.2,0.0,i,1.0,False,481.0,29.0,59.0,40.0,False,,346.76944971453133,[],"[683, 384]",ColorTask,-7.0,83.0,,,HRV,HRV_0135,2022-11-30 18:23:46
,wl-rdm,91,258104,0.0-6.83-0.83,0.0,75.0,,,,,,,[],,,,,,50.0,1.0,i,1.0,True,299.0,16.0,59.0,40.0,False,,263.5947188228929,[],"[683, 384]",ColorTask,-6.0,84.0,,,HRV,HRV_0135,2022-11-30 18:23:46
,wl-rdm,92,259771,0.0-6.84-0.84,0.0,76.0,,,,,,,[],,,,,,73.6,1.0,i,1.0,True,362.0,22.0,59.0,40.0,False,,226.7152626924474,[],"[683, 384]",ColorTask,-5.0,85.0,,,HRV,HRV_0135,2022-11-30 18:23:46
,wl-rdm,93,261088,0.0-6.85-0.85,0.0,76.0,,,,,,,[],,,,,,53.2,1.0,i,,,791.0,0.0,59.0,40.0,True,too_early ,322.2345935754899,[],"[683, 384]",ColorTask,-6.0,86.0,,,HRV,HRV_0135,2022-11-30 18:23:46
,wl-rdm,94,262754,0.0-6.86-0.86,0.0,77.0,,,,,,,[],,,,,,53.2,0.0,i,1.0,False,364.0,18.0,59.0,40.0,False,,230.1738988045553,[],"[683, 384]",ColorTask,-7.0,87.0,,,HRV,HRV_0135,2022-11-30 18:23:46
,wl-rdm,95,264537,0.0-6.87-0.87,0.0,78.0,,,,,,,[],,,,,,73.6,0.0,u,0.0,True,404.0,25.0,59.0,40.0,False,,312.67708464974294,[],"[683, 384]",ColorTask,-6.0,88.0,,,HRV,HRV_0135,2022-11-30 18:23:46
,wl-rdm,96,266403,0.0-6.88-0.88,0.0,79.0,,,,,,,[],,,,,,62.5,1.0,u,0.0,False,454.0,28.0,59.0,40.0,False,,329.26773807431687,[],"[683, 384]",ColorTask,-7.0,89.0,,,HRV,HRV_0135,2022-11-30 18:23:46
,wl-rdm,97,268170,0.0-6.89-0.89,0.0,80.0,,,,,,,[],,,,,,56.4,1.0,u,0.0,False,313.0,19.0,59.0,40.0,False,,382.4622375935786,[],"[683, 384]",ColorTask,-8.0,90.0,,,HRV,HRV_0135,2022-11-30 18:23:46
,wl-rdm,98,270254,0.0-6.90-0.90,0.0,81.0,,,,,,,[],,,,,,50.0,1.0,u,0.0,False,687.0,42.0,59.0,40.0,False,,310.9934069748942,[],"[683, 384]",ColorTask,-9.0,91.0,,,HRV,HRV_0135,2022-11-30 18:23:46
,wl-rdm,99,272304,0.0-6.91-0.91,0.0,82.0,,,,,,,[],,,,,,73.6,1.0,u,0.0,False,654.0,40.0,59.0,40.0,False,,313.01000329507184,[],"[683, 384]",ColorTask,-10.0,92.0,,,HRV,HRV_0135,2022-11-30 18:23:46
,wl-rdm,100,274203,0.0-6.92-0.92,0.0,83.0,,,,,,,[],,,,,,62.5,0.0,u,0.0,True,612.0,37.0,59.0,40.0,False,,212.8707375292305,[],"[683, 384]",ColorTask,-9.0,93.0,,,HRV,HRV_0135,2022-11-30 18:23:46
,wl-rdm,101,275435,0.0-6.93-0.93,0.0,83.0,,,,,,,[],,,,,,87.9,0.0,u,,,708.0,0.0,59.0,40.0,True,too_early ,239.76136832459753,[],"[683, 384]",ColorTask,-10.0,94.0,,,HRV,HRV_0135,2022-11-30 18:23:46
,wl-rdm,102,277536,0.0-6.94-0.94,0.0,84.0,,,,,,,[],,,,,,73.6,1.0,u,0.0,False,679.0,41.0,59.0,40.0,False,,342.16040921073227,[],"[683, 384]",ColorTask,-11.0,95.0,,,HRV,HRV_0135,2022-11-30 18:23:46
,wl-rdm,103,278718,0.0-6.95-0.95,0.0,84.0,,,,,,,[],,,,,,73.6,0.0,u,,,650.0,0.0,59.0,40.0,True,too_early ,315.23090538052054,[],"[683, 384]",ColorTask,-12.0,96.0,,,HRV,HRV_0135,2022-11-30 18:23:46
,wl-rdm,104,280352,0.0-6.96-0.96,0.0,85.0,,,,,,,[],,,,,,56.4,0.0,u,0.0,True,345.0,20.0,59.0,40.0,False,,215.34756532275355,[],"[683, 384]",ColorTask,-11.0,97.0,,,HRV,HRV_0135,2022-11-30 18:23:46
,wl-rdm,105,281836,0.0-6.97-0.97,0.0,85.0,,,,,,,[],,,,,,87.9,1.0,u,0.0,False,60.0,4.0,59.0,40.0,True,too_early ,349.23746022200044,[],"[683, 384]",ColorTask,-12.0,98.0,,,HRV,HRV_0135,2022-11-30 18:23:46
,wl-rdm,106,283368,0.0-6.98-0.98,0.0,86.0,,,,,,,[],,,,,,56.4,1.0,u,0.0,False,231.0,14.0,59.0,40.0,False,,231.66820594519803,[],"[683, 384]",ColorTask,-13.0,99.0,,,HRV,HRV_0135,2022-11-30 18:23:46
,wl-rdm,107,285070,0.0-6.99-0.99,0.0,87.0,,,,,,,[],,,,,,53.2,1.0,u,0.0,False,332.0,20.0,59.0,40.0,False,,297.35274009167233,[],"[683, 384]",ColorTask,-14.0,100.0,,,HRV,HRV_0135,2022-11-30 18:23:46
,wl-rdm,108,287652,0.0-6.100-0.100,0.0,88.0,,,,,,,[],,,,,,62.5,1.0,u,0.0,False,1307.0,69.0,59.0,40.0,False,,206.16901392906203,[],"[683, 384]",ColorTask,-15.0,101.0,,,HRV,HRV_0135,2022-11-30 18:23:46
,wl-rdm,109,290134,0.0-6.101-0.101,0.0,89.0,,,,,,,[],,,,,,73.6,1.0,u,0.0,False,1025.0,62.0,59.0,40.0,False,,374.9125027021458,[],"[683, 384]",ColorTask,-16.0,102.0,,,HRV,HRV_0135,2022-11-30 18:23:46
,wl-rdm,110,292518,0.0-6.102-0.102,0.0,90.0,,,,,,,[],,,,,,56.4,0.0,u,0.0,True,1057.0,64.0,59.0,40.0,False,,238.83300972106852,[],"[683, 384]",ColorTask,-15.0,103.0,,,HRV,HRV_0135,2022-11-30 18:23:46
,wl-rdm,111,294884,0.0-6.103-0.103,0.0,91.0,,,,,,,[],,,,,,53.2,1.0,u,0.0,False,892.0,51.0,59.0,40.0,False,,392.4478608717742,[],"[683, 384]",ColorTask,-16.0,104.0,,,HRV,HRV_0135,2022-11-30 18:23:46
,wl-rdm,112,298035,0.0-6.104-0.104,0.0,92.0,,,,,,,[],,,,,,50.0,0.0,u,0.0,True,1826.0,109.0,59.0,40.0,False,,244.6278585818731,[],"[683, 384]",ColorTask,-15.0,105.0,,,HRV,HRV_0135,2022-11-30 18:23:46
,wl-rdm,113,300152,0.0-6.105-0.105,0.0,93.0,,,,,,,[],,,,,,73.6,1.0,u,0.0,False,706.0,43.0,59.0,40.0,False,,331.75606149586434,[],"[683, 384]",ColorTask,-16.0,106.0,,,HRV,HRV_0135,2022-11-30 18:23:46
,wl-rdm,114,303384,0.0-6.106-0.106,0.0,94.0,,,,,,,[],,,,,,87.9,0.0,u,0.0,True,1828.0,110.0,59.0,40.0,False,,322.368702643011,[],"[683, 384]",ColorTask,-15.0,107.0,,,HRV,HRV_0135,2022-11-30 18:23:46
,wl-rdm,115,306417,0.0-6.107-0.107,0.0,95.0,,,,,,,[],,,,,,87.9,0.0,u,0.0,True,1601.0,96.0,59.0,40.0,False,,356.6295177665554,[],"[683, 384]",ColorTask,-14.0,108.0,,,HRV,HRV_0135,2022-11-30 18:23:46
,wl-rdm,116,308950,0.0-6.108-0.108,0.0,96.0,,,,,,,[],,,,,,53.2,0.0,u,0.0,True,1164.0,67.0,59.0,40.0,False,,296.8245085805536,[],"[683, 384]",ColorTask,-13.0,109.0,,,HRV,HRV_0135,2022-11-30 18:23:46
,wl-rdm,117,312970,0.0-6.109-0.109,0.0,97.0,,,,,,,[],,,,,,73.6,1.0,u,0.0,False,2723.0,164.0,59.0,40.0,False,,203.59745380443388,[],"[683, 384]",ColorTask,-14.0,110.0,,,HRV,HRV_0135,2022-11-30 18:23:46
,wl-rdm,118,314034,0.0-6.110-0.110,0.0,97.0,,,,,,,[],,,,,,56.4,0.0,u,,,324.0,0.0,59.0,40.0,True,too_early ,240.7769595328696,[],"[683, 384]",ColorTask,-15.0,111.0,,,HRV,HRV_0135,2022-11-30 18:23:46
,wl-rdm,119,315118,0.0-6.111-0.111,0.0,97.0,,,,,,,[],,,,,,62.5,0.0,u,,,230.0,0.0,59.0,40.0,True,too_early ,341.7370831694178,[],"[683, 384]",ColorTask,-16.0,112.0,,,HRV,HRV_0135,2022-11-30 18:23:46
,wl-rdm,120,316205,0.0-6.112-0.112,0.0,97.0,,,,,,,[],,,,,,87.9,1.0,u,,,56.0,0.0,59.0,40.0,True,too_early ,259.58412190753444,[],"[683, 384]",ColorTask,-17.0,113.0,,,HRV,HRV_0135,2022-11-30 18:23:46
,wl-rdm,121,319135,0.0-6.113-0.113,0.0,98.0,,,,,,,[],,,,,,87.9,0.0,u,0.0,True,1621.0,98.0,59.0,40.0,False,,218.40441196338327,[],"[683, 384]",ColorTask,-16.0,114.0,,,HRV,HRV_0135,2022-11-30 18:23:46
,wl-rdm,122,320484,0.0-6.114-0.114,0.0,98.0,,,,,,,[],,,,,,56.4,1.0,u,0.0,False,28.0,2.0,59.0,40.0,True,too_early ,237.55946930321278,[],"[683, 384]",ColorTask,-17.0,115.0,,,HRV,HRV_0135,2022-11-30 18:23:46
,wl-rdm,123,321586,0.0-6.115-0.115,0.0,98.0,,,,,,,[],,,,,,87.9,1.0,u,,,158.0,0.0,59.0,40.0,True,too_early ,298.4169320241337,[],"[683, 384]",ColorTask,-18.0,116.0,,,HRV,HRV_0135,2022-11-30 18:23:46
,wl-rdm,124,322653,0.0-6.116-0.116,0.0,98.0,,,,,,,[],,,,,,56.4,0.0,u,,,47.0,0.0,59.0,40.0,True,too_early ,355.55764657466807,[],"[683, 384]",ColorTask,-19.0,117.0,,,HRV,HRV_0135,2022-11-30 18:23:46
,wl-rdm,125,325717,0.0-6.117-0.117,0.0,99.0,,,,,,,[],,,,,,62.5,0.0,u,0.0,True,1775.0,106.0,59.0,40.0,False,,215.121508564505,[],"[683, 384]",ColorTask,-18.0,118.0,,,HRV,HRV_0135,2022-11-30 18:23:46
,wl-rdm,126,327317,0.0-6.118-0.118,0.0,100.0,,,,,,,[],,,,,,87.9,0.0,u,0.0,True,187.0,11.0,59.0,40.0,False,,287.21286397814686,[],"[683, 384]",ColorTask,-17.0,119.0,,,HRV,HRV_0135,2022-11-30 18:23:46
,wl-rdm,127,331651,0.0-6.119-0.119,0.0,100.0,,,,,,,[],,,,,,87.9,1.0,u,,,3153.0,176.0,59.0,40.0,True,RT_timeout ,234.89574359560754,[],"[683, 384]",ColorTask,-18.0,120.0,,,HRV,HRV_0135,2022-11-30 18:23:46
,wl-rdm,128,336000,0.0-6.120-0.120,0.0,100.0,,,,,,,[],,,,,,73.6,0.0,,,,,176.0,59.0,40.0,True,RT_timeout ,243.43764767149688,[],"[683, 384]",ColorTask,-19.0,121.0,,,HRV,HRV_0135,2022-11-30 18:23:46
,wl-rdm,129,338700,0.0-6.121-0.121,0.0,101.0,,,,,,,[],,,,,,53.2,1.0,u,0.0,False,1264.0,76.0,59.0,40.0,False,,324.9395001202756,[],"[683, 384]",ColorTask,-20.0,122.0,,,HRV,HRV_0135,2022-11-30 18:23:46
,wl-rdm,130,340018,0.0-6.122-0.122,0.0,101.0,,,,,,,[],,,,,,56.4,1.0,i,,,787.0,0.0,59.0,40.0,True,too_early ,388.7317962318559,[],"[683, 384]",ColorTask,-21.0,123.0,,,HRV,HRV_0135,2022-11-30 18:23:46
,wl-rdm,131,342151,0.0-6.123-0.123,0.0,102.0,,,,,,,[],,,,,,87.9,1.0,u,0.0,False,682.0,39.0,59.0,40.0,False,,379.405234431587,[],"[683, 384]",ColorTask,-22.0,124.0,,,HRV,HRV_0135,2022-11-30 18:23:46
,wl-rdm,132,344115,0.0-6.124-0.124,0.0,103.0,,,,,,,[],,,,,,56.4,0.0,u,0.0,True,621.0,38.0,59.0,40.0,False,,245.4229648232807,[],"[683, 384]",ColorTask,-21.0,125.0,,,HRV,HRV_0135,2022-11-30 18:23:46
,wl-rdm,133,346351,0.0-6.125-0.125,0.0,104.0,,,,,,,[],,,,,,56.4,0.0,u,0.0,True,764.0,45.0,59.0,40.0,False,,396.603676246555,[],"[683, 384]",ColorTask,-20.0,126.0,,,HRV,HRV_0135,2022-11-30 18:23:46
,wl-rdm,134,349784,0.0-6.126-0.126,0.0,105.0,,,,,,,[],,,,,,50.0,0.0,u,0.0,True,2020.0,118.0,59.0,40.0,False,,341.19242074024595,[],"[683, 384]",ColorTask,-19.0,127.0,,,HRV,HRV_0135,2022-11-30 18:23:46
,wl-rdm,135,351799,0.0-6.127-0.127,0.0,106.0,,,,,,,[],,,,,,87.9,1.0,u,0.0,False,675.0,41.0,59.0,40.0,False,,250.36110408049072,[],"[683, 384]",ColorTask,-20.0,128.0,,,HRV,HRV_0135,2022-11-30 18:23:46
,wl-rdm,136,353900,0.0-6.128-0.128,0.0,107.0,,,,,,,[],,,,,,87.9,1.0,u,0.0,False,731.0,41.0,59.0,40.0,False,,295.6219638020364,[],"[683, 384]",ColorTask,-21.0,129.0,,,HRV,HRV_0135,2022-11-30 18:23:46
,wl-rdm,137,356017,0.0-6.129-0.129,0.0,108.0,,,,,,,[],,,,,,62.5,0.0,u,0.0,True,795.0,48.0,59.0,40.0,False,,252.8321125749958,[],"[683, 384]",ColorTask,-20.0,130.0,,,HRV,HRV_0135,2022-11-30 18:23:46
,wl-rdm,138,358117,0.0-6.130-0.130,0.0,109.0,,,,,,,[],,,,,,56.4,1.0,i,1.0,True,708.0,43.0,59.0,40.0,False,,310.0732468568374,[],"[683, 384]",ColorTask,-19.0,131.0,,,HRV,HRV_0135,2022-11-30 18:23:46
,wl-rdm,139,360200,0.0-6.131-0.131,0.0,110.0,,,,,,,[],,,,,,87.9,1.0,i,1.0,True,781.0,47.0,59.0,40.0,False,,219.41218418188345,[],"[683, 384]",ColorTask,-18.0,132.0,,,HRV,HRV_0135,2022-11-30 18:23:46
,wl-rdm,140,362433,0.0-6.132-0.132,0.0,111.0,,,,,,,[],,,,,,50.0,1.0,u,0.0,False,856.0,51.0,59.0,40.0,False,,311.3282577882306,[],"[683, 384]",ColorTask,-19.0,133.0,,,HRV,HRV_0135,2022-11-30 18:23:46
,wl-rdm,141,364533,0.0-6.133-0.133,0.0,112.0,,,,,,,[],,,,,,56.4,1.0,u,0.0,False,813.0,49.0,59.0,40.0,False,,205.6567703629738,[],"[683, 384]",ColorTask,-20.0,134.0,,,HRV,HRV_0135,2022-11-30 18:23:46
,wl-rdm,142,366683,0.0-6.134-0.134,0.0,113.0,,,,,,,[],,,,,,50.0,0.0,u,0.0,True,812.0,48.0,59.0,40.0,False,,256.34792142619875,[],"[683, 384]",ColorTask,-19.0,135.0,,,HRV,HRV_0135,2022-11-30 18:23:46
,wl-rdm,143,368684,0.0-6.135-0.135,0.0,114.0,,,,,,,[],,,,,,73.6,0.0,i,1.0,False,678.0,41.0,59.0,40.0,False,,236.61487705857792,[],"[683, 384]",ColorTask,-20.0,136.0,,,HRV,HRV_0135,2022-11-30 18:23:46
,wl-rdm,144,371067,0.0-6.136-0.136,0.0,115.0,,,,,,,[],,,,,,53.2,1.0,u,0.0,False,1106.0,64.0,59.0,40.0,False,,209.58423607281765,[],"[683, 384]",ColorTask,-21.0,137.0,,,HRV,HRV_0135,2022-11-30 18:23:46
,wl-rdm,145,374434,0.0-6.137-0.137,0.0,116.0,,,,,,,[],,,,,,73.6,0.0,u,0.0,True,2066.0,120.0,59.0,40.0,False,,229.57629622776747,[],"[683, 384]",ColorTask,-20.0,138.0,,,HRV,HRV_0135,2022-11-30 18:23:46
,wl-html-keyboard-response,146,381853,0.0-7.0-0.0,1.0,117.0,,,,,,,,5411.0,1.0,0,,,,,,,,,,,,,,,,,,,,,,HRV,HRV_0135,2022-11-30 18:23:46
,wl-rdm,147,383917,0.0-8.0-0.0,1.0,118.0,,,,,,,[],,,,,,56.4,1.0,u,0.0,False,692.0,42.0,59.0,40.0,False,,272.44711111890507,[],"[683, 384]",ColorTask,-21.0,1.0,,,HRV,HRV_0135,2022-11-30 18:23:46
,wl-rdm,148,386000,0.0-8.1-0.1,1.0,119.0,,,,,,,[],,,,,,62.5,1.0,i,1.0,True,682.0,41.0,59.0,40.0,False,,317.71491319608333,[],"[683, 384]",ColorTask,-20.0,2.0,,,HRV,HRV_0135,2022-11-30 18:23:46
,wl-rdm,149,388232,0.0-8.2-0.2,1.0,120.0,,,,,,,[],,,,,,56.4,1.0,u,0.0,False,782.0,47.0,59.0,40.0,False,,368.5271045053155,[],"[683, 384]",ColorTask,-21.0,3.0,,,HRV,HRV_0135,2022-11-30 18:23:46
,wl-rdm,150,390483,0.0-8.3-0.3,1.0,121.0,,,,,,,[],,,,,,62.5,1.0,i,1.0,True,842.0,51.0,59.0,40.0,False,,335.09552877609,[],"[683, 384]",ColorTask,-20.0,4.0,,,HRV,HRV_0135,2022-11-30 18:23:46
,wl-rdm,151,392350,0.0-8.4-0.4,1.0,122.0,,,,,,,[],,,,,,56.4,0.0,u,0.0,True,564.0,34.0,59.0,40.0,False,,218.4660202104004,[],"[683, 384]",ColorTask,-19.0,5.0,,,HRV,HRV_0135,2022-11-30 18:23:46
,wl-rdm,152,394466,0.0-8.5-0.5,1.0,123.0,,,,,,,[],,,,,,53.2,1.0,u,0.0,False,771.0,48.0,59.0,40.0,False,,260.1603951981383,[],"[683, 384]",ColorTask,-20.0,6.0,,,HRV,HRV_0135,2022-11-30 18:23:46
,wl-rdm,153,396582,0.0-8.6-0.6,1.0,124.0,,,,,,,[],,,,,,73.6,1.0,u,0.0,False,680.0,41.0,59.0,40.0,False,,349.1701960443411,[],"[683, 384]",ColorTask,-21.0,7.0,,,HRV,HRV_0135,2022-11-30 18:23:46
,wl-rdm,154,398549,0.0-8.7-0.7,1.0,125.0,,,,,,,[],,,,,,50.0,1.0,i,1.0,True,607.0,37.0,59.0,40.0,False,,267.0170361443965,[],"[683, 384]",ColorTask,-20.0,8.0,,,HRV,HRV_0135,2022-11-30 18:23:46
,wl-rdm,155,401083,0.0-8.8-0.8,1.0,126.0,,,,,,,[],,,,,,73.6,1.0,i,1.0,True,1137.0,68.0,59.0,40.0,False,,300.0918903359648,[],"[683, 384]",ColorTask,-19.0,9.0,,,HRV,HRV_0135,2022-11-30 18:23:46
,wl-rdm,156,402949,0.0-8.9-0.9,1.0,127.0,,,,,,,[],,,,,,56.4,1.0,i,1.0,True,579.0,33.0,59.0,40.0,False,,204.6508292115805,[],"[683, 384]",ColorTask,-18.0,10.0,,,HRV,HRV_0135,2022-11-30 18:23:46
,wl-rdm,157,405166,0.0-8.10-0.10,1.0,128.0,,,,,,,[],,,,,,73.6,0.0,i,1.0,False,861.0,52.0,59.0,40.0,False,,268.9610288906523,[],"[683, 384]",ColorTask,-19.0,11.0,,,HRV,HRV_0135,2022-11-30 18:23:46
,wl-rdm,158,407082,0.0-8.11-0.11,1.0,129.0,,,,,,,[],,,,,,50.0,1.0,i,1.0,True,625.0,38.0,59.0,40.0,False,,221.7371848058568,[],"[683, 384]",ColorTask,-18.0,12.0,,,HRV,HRV_0135,2022-11-30 18:23:46
,wl-rdm,159,409065,0.0-8.12-0.12,1.0,130.0,,,,,,,[],,,,,,50.0,0.0,i,1.0,False,639.0,39.0,59.0,40.0,False,,260.6365617471941,[],"[683, 384]",ColorTask,-19.0,13.0,,,HRV,HRV_0135,2022-11-30 18:23:46
,wl-rdm,160,411116,0.0-8.13-0.13,1.0,131.0,,,,,,,[],,,,,,87.9,1.0,i,1.0,True,696.0,42.0,59.0,40.0,False,,279.1265802109575,[],"[683, 384]",ColorTask,-18.0,14.0,,,HRV,HRV_0135,2022-11-30 18:23:46
,wl-rdm,161,412731,0.0-8.14-0.14,1.0,132.0,,,,,,,[],,,,,,50.0,0.0,i,1.0,False,331.0,20.0,59.0,40.0,False,,206.44068305661872,[],"[683, 384]",ColorTask,-19.0,15.0,,,HRV,HRV_0135,2022-11-30 18:23:46
,wl-rdm,162,414616,0.0-8.15-0.15,1.0,133.0,,,,,,,[],,,,,,53.2,1.0,i,1.0,True,546.0,33.0,59.0,40.0,False,,256.76824833258496,[],"[683, 384]",ColorTask,-18.0,16.0,,,HRV,HRV_0135,2022-11-30 18:23:46
,wl-rdm,163,416431,0.0-8.16-0.16,1.0,134.0,,,,,,,[],,,,,,62.5,1.0,u,0.0,False,515.0,31.0,59.0,40.0,False,,224.68109163893226,[],"[683, 384]",ColorTask,-19.0,17.0,,,HRV,HRV_0135,2022-11-30 18:23:46
,wl-rdm,164,418565,0.0-8.17-0.17,1.0,135.0,,,,,,,[],,,,,,50.0,0.0,u,0.0,True,688.0,42.0,59.0,40.0,False,,363.45583560055024,[],"[683, 384]",ColorTask,-18.0,18.0,,,HRV,HRV_0135,2022-11-30 18:23:46
,wl-rdm,165,420582,0.0-8.18-0.18,1.0,136.0,,,,,,,[],,,,,,56.4,1.0,u,0.0,False,632.0,38.0,59.0,40.0,False,,308.04806645202007,[],"[683, 384]",ColorTask,-19.0,19.0,,,HRV,HRV_0135,2022-11-30 18:23:46
,wl-rdm,166,422551,0.0-8.19-0.19,1.0,137.0,,,,,,,[],,,,,,87.9,0.0,u,0.0,True,649.0,39.0,59.0,40.0,False,,218.40110933660185,[],"[683, 384]",ColorTask,-18.0,20.0,,,HRV,HRV_0135,2022-11-30 18:23:46
,wl-rdm,167,424466,0.0-8.20-0.20,1.0,138.0,,,,,,,[],,,,,,53.2,0.0,u,0.0,True,614.0,37.0,59.0,40.0,False,,226.39595497138896,[],"[683, 384]",ColorTask,-17.0,21.0,,,HRV,HRV_0135,2022-11-30 18:23:46
,wl-rdm,168,426332,0.0-8.21-0.21,1.0,139.0,,,,,,,[],,,,,,50.0,0.0,u,0.0,True,475.0,29.0,59.0,40.0,False,,328.456198023851,[],"[683, 384]",ColorTask,-16.0,22.0,,,HRV,HRV_0135,2022-11-30 18:23:46
,wl-rdm,169,428298,0.0-8.22-0.22,1.0,140.0,,,,,,,[],,,,,,73.6,1.0,u,0.0,False,629.0,38.0,59.0,40.0,False,,297.55315054322614,[],"[683, 384]",ColorTask,-17.0,23.0,,,HRV,HRV_0135,2022-11-30 18:23:46
,wl-rdm,170,430065,0.0-8.23-0.23,1.0,141.0,,,,,,,[],,,,,,87.9,1.0,u,0.0,False,371.0,23.0,59.0,40.0,False,,321.57211663007683,[],"[683, 384]",ColorTask,-18.0,24.0,,,HRV,HRV_0135,2022-11-30 18:23:46
,wl-rdm,171,432065,0.0-8.24-0.24,1.0,142.0,,,,,,,[],,,,,,62.5,0.0,u,0.0,True,566.0,34.0,59.0,40.0,False,,370.0430808215505,[],"[683, 384]",ColorTask,-17.0,25.0,,,HRV,HRV_0135,2022-11-30 18:23:46
,wl-rdm,172,434081,0.0-8.25-0.25,1.0,143.0,,,,,,,[],,,,,,62.5,1.0,u,0.0,False,676.0,41.0,59.0,40.0,False,,266.82128799525753,[],"[683, 384]",ColorTask,-18.0,26.0,,,HRV,HRV_0135,2022-11-30 18:23:46
,wl-rdm,173,436064,0.0-8.26-0.26,1.0,144.0,,,,,,,[],,,,,,53.2,1.0,u,0.0,False,629.0,38.0,59.0,40.0,False,,282.05899536135865,[],"[683, 384]",ColorTask,-19.0,27.0,,,HRV,HRV_0135,2022-11-30 18:23:46
,wl-rdm,174,438013,0.0-8.27-0.27,1.0,145.0,,,,,,,[],,,,,,73.6,0.0,u,0.0,True,579.0,35.0,59.0,40.0,False,,294.15630028644534,[],"[683, 384]",ColorTask,-18.0,28.0,,,HRV,HRV_0135,2022-11-30 18:23:46
,wl-rdm,175,440030,0.0-8.28-0.28,1.0,146.0,,,,,,,[],,,,,,53.2,0.0,u,0.0,True,648.0,37.0,59.0,40.0,False,,293.9407198870228,[],"[683, 384]",ColorTask,-17.0,29.0,,,HRV,HRV_0135,2022-11-30 18:23:46
,wl-rdm,176,441980,0.0-8.29-0.29,1.0,147.0,,,,,,,[],,,,,,62.5,0.0,u,0.0,True,649.0,37.0,59.0,40.0,False,,219.6677869452853,[],"[683, 384]",ColorTask,-16.0,30.0,,,HRV,HRV_0135,2022-11-30 18:23:46
,wl-rdm,177,443913,0.0-8.30-0.30,1.0,148.0,,,,,,,[],,,,,,56.4,1.0,u,0.0,False,638.0,39.0,59.0,40.0,False,,225.5086580478053,[],"[683, 384]",ColorTask,-17.0,31.0,,,HRV,HRV_0135,2022-11-30 18:23:46
,wl-rdm,178,445730,0.0-8.31-0.31,1.0,149.0,,,,,,,[],,,,,,87.9,0.0,u,0.0,True,416.0,25.0,59.0,40.0,False,,328.7256288746364,[],"[683, 384]",ColorTask,-16.0,32.0,,,HRV,HRV_0135,2022-11-30 18:23:46
,wl-rdm,179,447779,0.0-8.32-0.32,1.0,150.0,,,,,,,[],,,,,,62.5,0.0,u,0.0,True,682.0,40.0,59.0,40.0,False,,289.05709528638624,[],"[683, 384]",ColorTask,-15.0,33.0,,,HRV,HRV_0135,2022-11-30 18:23:46
,wl-rdm,180,449963,0.0-8.33-0.33,1.0,151.0,,,,,,,[],,,,,,53.2,0.0,u,0.0,True,829.0,50.0,59.0,40.0,False,,283.0989207922248,[],"[683, 384]",ColorTask,-14.0,34.0,,,HRV,HRV_0135,2022-11-30 18:23:46
,wl-rdm,181,451962,0.0-8.34-0.34,1.0,152.0,,,,,,,[],,,,,,56.4,0.0,u,0.0,True,588.0,36.0,59.0,40.0,False,,319.66363949875495,[],"[683, 384]",ColorTask,-13.0,35.0,,,HRV,HRV_0135,2022-11-30 18:23:46
,wl-rdm,182,454096,0.0-8.35-0.35,1.0,153.0,,,,,,,[],,,,,,73.6,1.0,u,0.0,False,792.0,47.0,59.0,40.0,False,,260.36915407946674,[],"[683, 384]",ColorTask,-14.0,36.0,,,HRV,HRV_0135,2022-11-30 18:23:46
,wl-rdm,183,455913,0.0-8.36-0.36,1.0,154.0,,,,,,,[],,,,,,56.4,0.0,u,0.0,True,480.0,29.0,59.0,40.0,False,,235.81955489920682,[],"[683, 384]",ColorTask,-13.0,37.0,,,HRV,HRV_0135,2022-11-30 18:23:46
,wl-rdm,184,457638,0.0-8.37-0.37,1.0,155.0,,,,,,,[],,,,,,53.2,0.0,u,0.0,True,317.0,17.0,59.0,40.0,False,,364.75990641783187,[],"[683, 384]",ColorTask,-12.0,38.0,,,HRV,HRV_0135,2022-11-30 18:23:46
,wl-rdm,185,459295,0.0-8.38-0.38,1.0,156.0,,,,,,,[],,,,,,62.5,0.0,u,0.0,True,361.0,21.0,59.0,40.0,False,,242.13928394469244,[],"[683, 384]",ColorTask,-11.0,39.0,,,HRV,HRV_0135,2022-11-30 18:23:46
,wl-rdm,186,461229,0.0-8.39-0.39,1.0,157.0,,,,,,,[],,,,,,50.0,1.0,u,0.0,False,634.0,31.0,59.0,40.0,False,,230.9291960077494,[],"[683, 384]",ColorTask,-12.0,40.0,,,HRV,HRV_0135,2022-11-30 18:23:46
,wl-rdm,187,463112,0.0-8.40-0.40,1.0,158.0,,,,,,,[],,,,,,56.4,0.0,u,0.0,True,573.0,35.0,59.0,40.0,False,,229.01210018389878,[],"[683, 384]",ColorTask,-11.0,41.0,,,HRV,HRV_0135,2022-11-30 18:23:46
,wl-rdm,188,464779,0.0-8.41-0.41,1.0,159.0,,,,,,,[],,,,,,87.9,0.0,u,0.0,True,300.0,19.0,59.0,40.0,False,,285.73912994680734,[],"[683, 384]",ColorTask,-10.0,42.0,,,HRV,HRV_0135,2022-11-30 18:23:46
,wl-rdm,189,466478,0.0-8.42-0.42,1.0,160.0,,,,,,,[],,,,,,73.6,0.0,u,0.0,True,382.0,23.0,59.0,40.0,False,,263.3495591258524,[],"[683, 384]",ColorTask,-9.0,43.0,,,HRV,HRV_0135,2022-11-30 18:23:46
,wl-rdm,190,468429,0.0-8.43-0.43,1.0,161.0,,,,,,,[],,,,,,73.6,0.0,u,0.0,True,585.0,35.0,59.0,40.0,False,,285.8463482004249,[],"[683, 384]",ColorTask,-8.0,44.0,,,HRV,HRV_0135,2022-11-30 18:23:46
,wl-rdm,191,470465,0.0-8.44-0.44,1.0,162.0,,,,,,,[],,,,,,50.0,1.0,u,0.0,False,530.0,32.0,59.0,40.0,False,,385.66651154009867,[],"[683, 384]",ColorTask,-9.0,45.0,,,HRV,HRV_0135,2022-11-30 18:23:46
,wl-rdm,192,472562,0.0-8.45-0.45,1.0,163.0,,,,,,,[],,,,,,87.9,1.0,u,0.0,False,648.0,39.0,59.0,40.0,False,,377.2797924474311,[],"[683, 384]",ColorTask,-10.0,46.0,,,HRV,HRV_0135,2022-11-30 18:23:46
,wl-rdm,193,474813,0.0-8.46-0.46,1.0,164.0,,,,,,,[],,,,,,87.9,1.0,u,0.0,False,821.0,45.0,59.0,40.0,False,,335.5984291465005,[],"[683, 384]",ColorTask,-11.0,47.0,,,HRV,HRV_0135,2022-11-30 18:23:46
,wl-rdm,194,476480,0.0-8.47-0.47,1.0,165.0,,,,,,,[],,,,,,62.5,1.0,u,0.0,False,345.0,21.0,59.0,40.0,False,,256.40477885548034,[],"[683, 384]",ColorTask,-12.0,48.0,,,HRV,HRV_0135,2022-11-30 18:23:46
,wl-rdm,195,478545,0.0-8.48-0.48,1.0,166.0,,,,,,,[],,,,,,53.2,1.0,u,0.0,False,745.0,43.0,59.0,40.0,False,,244.5206674773869,[],"[683, 384]",ColorTask,-13.0,49.0,,,HRV,HRV_0135,2022-11-30 18:23:46
,wl-rdm,196,480545,0.0-8.49-0.49,1.0,167.0,,,,,,,[],,,,,,56.4,0.0,u,0.0,True,554.0,34.0,59.0,40.0,False,,352.7552401537695,[],"[683, 384]",ColorTask,-12.0,50.0,,,HRV,HRV_0135,2022-11-30 18:23:46
,wl-rdm,197,482612,0.0-8.50-0.50,1.0,168.0,,,,,,,[],,,,,,87.9,1.0,u,0.0,False,715.0,43.0,59.0,40.0,False,,268.11521476932717,[],"[683, 384]",ColorTask,-13.0,51.0,,,HRV,HRV_0135,2022-11-30 18:23:46
,wl-rdm,198,485396,0.0-8.51-0.51,1.0,169.0,,,,,,,[],,,,,,56.4,1.0,u,0.0,False,1344.0,78.0,59.0,40.0,False,,354.66840878592075,[],"[683, 384]",ColorTask,-14.0,52.0,,,HRV,HRV_0135,2022-11-30 18:23:46
,wl-rdm,199,487313,0.0-8.52-0.52,1.0,170.0,,,,,,,[],,,,,,56.4,0.0,u,0.0,True,634.0,38.0,59.0,40.0,False,,231.97406708248593,[],"[683, 384]",ColorTask,-13.0,53.0,,,HRV,HRV_0135,2022-11-30 18:23:46
,wl-rdm,200,489513,0.0-8.53-0.53,1.0,171.0,,,,,,,[],,,,,,56.4,1.0,u,0.0,False,873.0,52.0,59.0,40.0,False,,246.32846591364293,[],"[683, 384]",ColorTask,-14.0,54.0,,,HRV,HRV_0135,2022-11-30 18:23:46
,wl-rdm,201,491330,0.0-8.54-0.54,1.0,172.0,,,,,,,[],,,,,,50.0,1.0,u,0.0,False,441.0,27.0,59.0,40.0,False,,286.59597251974105,[],"[683, 384]",ColorTask,-15.0,55.0,,,HRV,HRV_0135,2022-11-30 18:23:46
,wl-rdm,202,493346,0.0-8.55-0.55,1.0,173.0,,,,,,,[],,,,,,50.0,1.0,u,0.0,False,643.0,38.0,59.0,40.0,False,,291.0580424888072,[],"[683, 384]",ColorTask,-16.0,56.0,,,HRV,HRV_0135,2022-11-30 18:23:46
,wl-rdm,203,495247,0.0-8.56-0.56,1.0,174.0,,,,,,,[],,,,,,73.6,1.0,u,0.0,False,561.0,36.0,59.0,40.0,False,,246.43443818563958,[],"[683, 384]",ColorTask,-17.0,57.0,,,HRV,HRV_0135,2022-11-30 18:23:46
,wl-rdm,204,497030,0.0-8.57-0.57,1.0,175.0,,,,,,,[],,,,,,50.0,0.0,u,0.0,True,487.0,29.0,59.0,40.0,False,,205.13442143197628,[],"[683, 384]",ColorTask,-16.0,58.0,,,HRV,HRV_0135,2022-11-30 18:23:46
,wl-rdm,205,499081,0.0-8.58-0.58,1.0,176.0,,,,,,,[],,,,,,53.2,1.0,u,0.0,False,707.0,43.0,59.0,40.0,False,,252.13853036696952,[],"[683, 384]",ColorTask,-17.0,59.0,,,HRV,HRV_0135,2022-11-30 18:23:46
,wl-rdm,206,501713,0.0-8.59-0.59,1.0,177.0,,,,,,,[],,,,,,87.9,0.0,u,0.0,True,1272.0,73.0,59.0,40.0,False,,273.9759248723849,[],"[683, 384]",ColorTask,-16.0,60.0,,,HRV,HRV_0135,2022-11-30 18:23:46
,wl-rdm,207,503813,0.0-8.60-0.60,1.0,178.0,,,,,,,[],,,,,,73.6,0.0,u,0.0,True,824.0,50.0,59.0,40.0,False,,214.39993317569727,[],"[683, 384]",ColorTask,-15.0,61.0,,,HRV,HRV_0135,2022-11-30 18:23:46
,wl-rdm,208,506179,0.0-8.61-0.61,1.0,179.0,,,,,,,[],,,,,,56.4,1.0,u,0.0,False,1074.0,65.0,59.0,40.0,False,,207.92708281809288,[],"[683, 384]",ColorTask,-16.0,62.0,,,HRV,HRV_0135,2022-11-30 18:23:46
,wl-rdm,209,508395,0.0-8.62-0.62,1.0,180.0,,,,,,,[],,,,,,53.2,1.0,u,0.0,False,779.0,46.0,59.0,40.0,False,,354.0645842786248,[],"[683, 384]",ColorTask,-17.0,63.0,,,HRV,HRV_0135,2022-11-30 18:23:46
,wl-rdm,210,512745,0.0-8.63-0.63,1.0,180.0,,,,,,,[],,,,,,53.2,0.0,,,,,176.0,59.0,40.0,True,RT_timeout ,249.98808433014028,[],"[683, 384]",ColorTask,-18.0,64.0,,,HRV,HRV_0135,2022-11-30 18:23:46
,wl-rdm,211,514744,0.0-8.64-0.64,1.0,181.0,,,,,,,[],,,,,,62.5,0.0,u,0.0,True,690.0,42.0,59.0,40.0,False,,226.18184994768018,[],"[683, 384]",ColorTask,-17.0,65.0,,,HRV,HRV_0135,2022-11-30 18:23:46
,wl-rdm,212,516445,0.0-8.65-0.65,1.0,182.0,,,,,,,[],,,,,,87.9,1.0,u,0.0,False,272.0,17.0,59.0,40.0,False,,338.60659389927014,[],"[683, 384]",ColorTask,-18.0,66.0,,,HRV,HRV_0135,2022-11-30 18:23:46
,wl-rdm,213,518178,0.0-8.66-0.66,1.0,183.0,,,,,,,[],,,,,,50.0,0.0,u,0.0,True,353.0,22.0,59.0,40.0,False,,314.1009774916291,[],"[683, 384]",ColorTask,-17.0,67.0,,,HRV,HRV_0135,2022-11-30 18:23:46
,wl-rdm,214,519934,0.0-8.67-0.67,1.0,184.0,,,,,,,[],,,,,,62.5,1.0,u,0.0,False,477.0,26.0,59.0,40.0,False,,215.0545190163149,[],"[683, 384]",ColorTask,-18.0,68.0,,,HRV,HRV_0135,2022-11-30 18:23:46
,wl-rdm,215,521829,0.0-8.68-0.68,1.0,185.0,,,,,,,[],,,,,,62.5,0.0,u,0.0,True,608.0,37.0,59.0,40.0,False,,210.36692177196747,[],"[683, 384]",ColorTask,-17.0,69.0,,,HRV,HRV_0135,2022-11-30 18:23:46
,wl-rdm,216,523979,0.0-8.69-0.69,1.0,186.0,,,,,,,[],,,,,,62.5,1.0,u,0.0,False,791.0,48.0,59.0,40.0,False,,273.772187222033,[],"[683, 384]",ColorTask,-18.0,70.0,,,HRV,HRV_0135,2022-11-30 18:23:46
,wl-rdm,217,526144,0.0-8.70-0.70,1.0,187.0,,,,,,,[],,,,,,62.5,0.0,u,0.0,True,867.0,52.0,59.0,40.0,False,,205.16264494523028,[],"[683, 384]",ColorTask,-17.0,71.0,,,HRV,HRV_0135,2022-11-30 18:23:46
,wl-rdm,218,530045,0.0-8.71-0.71,1.0,188.0,,,,,,,[],,,,,,53.2,1.0,u,0.0,False,2438.0,146.0,59.0,40.0,False,,391.9770187561728,[],"[683, 384]",ColorTask,-18.0,72.0,,,HRV,HRV_0135,2022-11-30 18:23:46
,wl-rdm,219,531779,0.0-8.72-0.72,1.0,189.0,,,,,,,[],,,,,,50.0,0.0,u,0.0,True,277.0,17.0,59.0,40.0,False,,394.2542591515887,[],"[683, 384]",ColorTask,-17.0,73.0,,,HRV,HRV_0135,2022-11-30 18:23:46
,wl-rdm,220,533829,0.0-8.73-0.73,1.0,190.0,,,,,,,[],,,,,,56.4,0.0,u,0.0,True,643.0,39.0,59.0,40.0,False,,330.72902921538946,[],"[683, 384]",ColorTask,-16.0,74.0,,,HRV,HRV_0135,2022-11-30 18:23:46
,wl-rdm,221,535595,0.0-8.74-0.74,1.0,191.0,,,,,,,[],,,,,,87.9,1.0,u,0.0,False,395.0,24.0,59.0,40.0,False,,293.01914633066065,[],"[683, 384]",ColorTask,-17.0,75.0,,,HRV,HRV_0135,2022-11-30 18:23:46
,wl-rdm,222,537362,0.0-8.75-0.75,1.0,192.0,,,,,,,[],,,,,,53.2,1.0,u,0.0,False,426.0,26.0,59.0,40.0,False,,266.31810195451544,[],"[683, 384]",ColorTask,-18.0,76.0,,,HRV,HRV_0135,2022-11-30 18:23:46
,wl-rdm,223,539011,0.0-8.76-0.76,1.0,193.0,,,,,,,[],,,,,,73.6,1.0,u,0.0,False,305.0,19.0,59.0,40.0,False,,262.4115819515147,[],"[683, 384]",ColorTask,-19.0,77.0,,,HRV,HRV_0135,2022-11-30 18:23:46
,wl-rdm,224,540845,0.0-8.77-0.77,1.0,194.0,,,,,,,[],,,,,,87.9,0.0,u,0.0,True,408.0,20.0,59.0,40.0,False,,348.4212585643279,[],"[683, 384]",ColorTask,-18.0,78.0,,,HRV,HRV_0135,2022-11-30 18:23:46
,wl-rdm,225,542478,0.0-8.78-0.78,1.0,195.0,,,,,,,[],,,,,,73.6,0.0,u,0.0,True,342.0,21.0,59.0,40.0,False,,209.48100853879677,[],"[683, 384]",ColorTask,-17.0,79.0,,,HRV,HRV_0135,2022-11-30 18:23:46
,wl-rdm,226,544078,0.0-8.79-0.79,1.0,196.0,,,,,,,[],,,,,,62.5,1.0,u,0.0,False,321.0,20.0,59.0,40.0,False,,209.40839578827092,[],"[683, 384]",ColorTask,-18.0,80.0,,,HRV,HRV_0135,2022-11-30 18:23:46
,wl-rdm,227,547360,0.0-8.80-0.80,1.0,197.0,,,,,,,[],,,,,,53.2,1.0,u,0.0,False,1972.0,119.0,59.0,40.0,False,,228.3702801543496,[],"[683, 384]",ColorTask,-19.0,81.0,,,HRV,HRV_0135,2022-11-30 18:23:46
,wl-rdm,228,549163,0.0-8.81-0.81,1.0,198.0,,,,,,,[],,,,,,62.5,0.0,u,0.0,True,378.0,22.0,59.0,40.0,False,,365.5136631592052,[],"[683, 384]",ColorTask,-18.0,82.0,,,HRV,HRV_0135,2022-11-30 18:23:46
,wl-rdm,229,550778,0.0-8.82-0.82,1.0,199.0,,,,,,,[],,,,,,53.2,0.0,u,0.0,True,329.0,20.0,59.0,40.0,False,,227.6807677831652,[],"[683, 384]",ColorTask,-17.0,83.0,,,HRV,HRV_0135,2022-11-30 18:23:46
,wl-rdm,230,552511,0.0-8.83-0.83,1.0,200.0,,,,,,,[],,,,,,73.6,1.0,u,0.0,False,275.0,17.0,59.0,40.0,False,,379.3586514409843,[],"[683, 384]",ColorTask,-18.0,84.0,,,HRV,HRV_0135,2022-11-30 18:23:46
,wl-rdm,231,554244,0.0-8.84-0.84,1.0,201.0,,,,,,,[],,,,,,87.9,0.0,u,0.0,True,413.0,24.0,59.0,40.0,False,,235.39607700949645,[],"[683, 384]",ColorTask,-17.0,85.0,,,HRV,HRV_0135,2022-11-30 18:23:46
,wl-rdm,232,556143,0.0-8.85-0.85,1.0,202.0,,,,,,,[],,,,,,62.5,0.0,u,0.0,True,487.0,28.0,59.0,40.0,False,,364.58941181660555,[],"[683, 384]",ColorTask,-16.0,86.0,,,HRV,HRV_0135,2022-11-30 18:23:46
,wl-rdm,233,557843,0.0-8.86-0.86,1.0,203.0,,,,,,,[],,,,,,53.2,0.0,u,0.0,True,406.0,25.0,59.0,40.0,False,,216.3846038362615,[],"[683, 384]",ColorTask,-15.0,87.0,,,HRV,HRV_0135,2022-11-30 18:23:46
,wl-rdm,234,559561,0.0-8.87-0.87,1.0,204.0,,,,,,,[],,,,,,50.0,1.0,u,0.0,False,358.0,21.0,59.0,40.0,False,,300.2901800205217,[],"[683, 384]",ColorTask,-16.0,88.0,,,HRV,HRV_0135,2022-11-30 18:23:46
,wl-rdm,235,561310,0.0-8.88-0.88,1.0,205.0,,,,,,,[],,,,,,87.9,0.0,u,0.0,True,449.0,26.0,59.0,40.0,False,,225.42386278371728,[],"[683, 384]",ColorTask,-15.0,89.0,,,HRV,HRV_0135,2022-11-30 18:23:46
,wl-rdm,236,563227,0.0-8.89-0.89,1.0,206.0,,,,,,,[],,,,,,87.9,0.0,u,0.0,True,443.0,27.0,59.0,40.0,False,,394.29913264756317,[],"[683, 384]",ColorTask,-14.0,90.0,,,HRV,HRV_0135,2022-11-30 18:23:46
,wl-rdm,237,565176,0.0-8.90-0.90,1.0,207.0,,,,,,,[],,,,,,53.2,0.0,u,0.0,True,610.0,37.0,59.0,40.0,False,,250.7134636393591,[],"[683, 384]",ColorTask,-13.0,91.0,,,HRV,HRV_0135,2022-11-30 18:23:46
,wl-rdm,238,566977,0.0-8.91-0.91,1.0,208.0,,,,,,,[],,,,,,50.0,1.0,u,0.0,False,510.0,31.0,59.0,40.0,False,,213.75573655143282,[],"[683, 384]",ColorTask,-14.0,92.0,,,HRV,HRV_0135,2022-11-30 18:23:46
,wl-rdm,239,568909,0.0-8.92-0.92,1.0,209.0,,,,,,,[],,,,,,56.4,1.0,u,0.0,False,633.0,38.0,59.0,40.0,False,,219.28050806431298,[],"[683, 384]",ColorTask,-15.0,93.0,,,HRV,HRV_0135,2022-11-30 18:23:46
,wl-rdm,240,570194,0.0-8.93-0.93,1.0,209.0,,,,,,,[],,,,,,56.4,0.0,u,,,744.0,0.0,59.0,40.0,True,too_early ,222.51094172937167,[],"[683, 384]",ColorTask,-16.0,94.0,,,HRV,HRV_0135,2022-11-30 18:23:46
,wl-rdm,241,571910,0.0-8.94-0.94,1.0,210.0,,,,,,,[],,,,,,56.4,0.0,u,0.0,True,270.0,17.0,59.0,40.0,False,,371.7236113463069,[],"[683, 384]",ColorTask,-15.0,95.0,,,HRV,HRV_0135,2022-11-30 18:23:46
,wl-rdm,242,573710,0.0-8.95-0.95,1.0,211.0,,,,,,,[],,,,,,87.9,1.0,u,0.0,False,474.0,29.0,59.0,40.0,False,,240.8597422861795,[],"[683, 384]",ColorTask,-16.0,96.0,,,HRV,HRV_0135,2022-11-30 18:23:46
,wl-rdm,243,575643,0.0-8.96-0.96,1.0,212.0,,,,,,,[],,,,,,50.0,1.0,u,0.0,False,589.0,36.0,59.0,40.0,False,,255.83026521067012,[],"[683, 384]",ColorTask,-17.0,97.0,,,HRV,HRV_0135,2022-11-30 18:23:46
,wl-rdm,244,577442,0.0-8.97-0.97,1.0,213.0,,,,,,,[],,,,,,62.5,1.0,u,0.0,False,465.0,28.0,59.0,40.0,False,,255.05336012107296,[],"[683, 384]",ColorTask,-18.0,98.0,,,HRV,HRV_0135,2022-11-30 18:23:46
,wl-rdm,245,579292,0.0-8.98-0.98,1.0,214.0,,,,,,,[],,,,,,87.9,0.0,u,0.0,True,370.0,22.0,59.0,40.0,False,,397.46801170351046,[],"[683, 384]",ColorTask,-17.0,99.0,,,HRV,HRV_0135,2022-11-30 18:23:46
,wl-rdm,246,581043,0.0-8.99-0.99,1.0,215.0,,,,,,,[],,,,,,73.6,0.0,u,0.0,True,412.0,25.0,59.0,40.0,False,,256.2316672037588,[],"[683, 384]",ColorTask,-16.0,100.0,,,HRV,HRV_0135,2022-11-30 18:23:46
,wl-rdm,247,582992,0.0-8.100-0.100,1.0,216.0,,,,,,,[],,,,,,53.2,0.0,u,0.0,True,646.0,39.0,59.0,40.0,False,,241.63075294879565,[],"[683, 384]",ColorTask,-15.0,101.0,,,HRV,HRV_0135,2022-11-30 18:23:46
,wl-rdm,248,584726,0.0-8.101-0.101,1.0,217.0,,,,,,,[],,,,,,73.6,1.0,u,0.0,False,403.0,25.0,59.0,40.0,False,,242.04157219086528,[],"[683, 384]",ColorTask,-16.0,102.0,,,HRV,HRV_0135,2022-11-30 18:23:46
,wl-rdm,249,587175,0.0-8.102-0.102,1.0,218.0,,,,,,,[],,,,,,73.6,0.0,u,0.0,True,1139.0,64.0,59.0,40.0,False,,232.1335366330767,[],"[683, 384]",ColorTask,-15.0,103.0,,,HRV,HRV_0135,2022-11-30 18:23:46
,wl-rdm,250,589461,0.0-8.103-0.103,1.0,219.0,,,,,,,[],,,,,,73.6,0.0,u,0.0,True,979.0,58.0,59.0,40.0,False,,215.3008716095806,[],"[683, 384]",ColorTask,-14.0,104.0,,,HRV,HRV_0135,2022-11-30 18:23:46
,wl-rdm,251,591743,0.0-8.104-0.104,1.0,220.0,,,,,,,[],,,,,,87.9,1.0,u,0.0,False,965.0,58.0,59.0,40.0,False,,239.9618672762795,[],"[683, 384]",ColorTask,-15.0,105.0,,,HRV,HRV_0135,2022-11-30 18:23:46
,wl-rdm,252,593909,0.0-8.105-0.105,1.0,221.0,,,,,,,[],,,,,,53.2,0.0,u,0.0,True,885.0,49.0,59.0,40.0,False,,208.25679108929603,[],"[683, 384]",ColorTask,-14.0,106.0,,,HRV,HRV_0135,2022-11-30 18:23:46
,wl-rdm,253,596043,0.0-8.106-0.106,1.0,222.0,,,,,,,[],,,,,,50.0,0.0,u,0.0,True,822.0,50.0,59.0,40.0,False,,231.45343417815792,[],"[683, 384]",ColorTask,-13.0,107.0,,,HRV,HRV_0135,2022-11-30 18:23:46
,wl-rdm,254,597993,0.0-8.107-0.107,1.0,223.0,,,,,,,[],,,,,,56.4,0.0,u,0.0,True,638.0,39.0,59.0,40.0,False,,232.69509689678384,[],"[683, 384]",ColorTask,-12.0,108.0,,,HRV,HRV_0135,2022-11-30 18:23:46
,wl-rdm,255,600559,0.0-8.108-0.108,1.0,224.0,,,,,,,[],,,,,,73.6,1.0,u,0.0,False,1236.0,74.0,59.0,40.0,False,,247.6978903849594,[],"[683, 384]",ColorTask,-13.0,109.0,,,HRV,HRV_0135,2022-11-30 18:23:46
,wl-rdm,256,603642,0.0-8.109-0.109,1.0,225.0,,,,,,,[],,,,,,50.0,0.0,u,0.0,True,1688.0,99.0,59.0,40.0,False,,309.0759941355876,[],"[683, 384]",ColorTask,-12.0,110.0,,,HRV,HRV_0135,2022-11-30 18:23:46
,wl-html-button-response,257,611913,0.0-9.0-0.0,,,,,,,,,,8267.0,,0,,,,,,,,,,,,,,,,,,,,<h3>End of this session. Thank you!</h3><br>,['Close window'],HRV,HRV_0135,2022-11-30 18:23:46
