trialN,stimuli,trialStartTime,trialStartTime_UNIX,stimulus1,stimulus2,stimulus1Bid,stimulus2Bid,delta,selected,rt,rt_UNIX,rt_perfnow,receivedResponse,rsp,trialEndTime,trialDuration,trialEndTime_UNIX,trialDuration_UNIX,exp,subjectId,date
0,"[{'imgObject': {}, 'id': 'popsicles', 'src': '/static/foodstim60/popsicles.jpg', 'key': 'u', 'origWidth': 410, 'origHeight': 410, 'width': 410, 'height': 410, 'widthPercent': 0.45, 'rescaleHeight': False, 'trialN': 0, 'loaded': True, 'loadedTime': 14857, 'positionName': 'LEFT', 'positionCoords': [245.68, 179], 'bid': 5.9}, {'imgObject': {}, 'id': 'salmon', 'src': '/static/foodstim60/salmon.jpg', 'key': 'i', 'origWidth': 410, 'origHeight': 409, 'width': 410, 'height': 409, 'widthPercent': 0.45, 'rescaleHeight': False, 'trialN': 0, 'loaded': True, 'loadedTime': 11801, 'positionName': 'RIGHT', 'positionCoords': [710.32, 179.5], 'bid': 7.86}]",14862,1669831840493,popsicles,salmon,5.9,7.86,1.96,popsicles,1022,1027,1028,True,u,16398,1536,1669831842028,1535,HRV,HRV_0135,2022-11-30 18:12:57
1,"[{'imgObject': {}, 'id': 'tacos', 'src': '/static/foodstim60/tacos.jpg', 'key': 'u', 'origWidth': 411, 'origHeight': 411, 'width': 411, 'height': 411, 'widthPercent': 0.45, 'rescaleHeight': False, 'trialN': 1, 'loaded': True, 'loadedTime': 11936, 'positionName': 'LEFT', 'positionCoords': [244.68, 178.5], 'bid': 5.46}, {'imgObject': {}, 'id': 'bagel and cc', 'src': '/static/foodstim60/bagel and cc.jpg', 'key': 'i', 'origWidth': 410, 'origHeight': 410, 'width': 410, 'height': 410, 'widthPercent': 0.45, 'rescaleHeight': False, 'trialN': 1, 'loaded': True, 'loadedTime': 11936, 'positionName': 'RIGHT', 'positionCoords': [710.32, 179], 'bid': 5.32}]",16398,1669831842028,tacos,bagel and cc,5.46,5.32,-0.13999999999999968,bagel and cc,19,19,19,True,i,16932,534,1669831842562,534,HRV,HRV_0135,2022-11-30 18:12:57
2,"[{'imgObject': {}, 'id': 'strawberries', 'src': '/static/foodstim60/strawberries.jpg', 'key': 'u', 'origWidth': 410, 'origHeight': 410, 'width': 410, 'height': 410, 'widthPercent': 0.45, 'rescaleHeight': False, 'trialN': 2, 'loaded': True, 'loadedTime': 11967, 'positionName': 'LEFT', 'positionCoords': [245.68, 179], 'bid': 6.09}, {'imgObject': {}, 'id': 'froot loops w milk', 'src': '/static/foodstim60/froot loops w milk.jpg', 'key': 'i', 'origWidth': 410, 'origHeight': 410, 'width': 410, 'height': 410, 'widthPercent': 0.45, 'rescaleHeight': False, 'trialN': 2, 'loaded': True, 'loadedTime': 11983, 'positionName': 'RIGHT', 'positionCoords': [710.32, 179], 'bid': 7.37}]",16932,1669831842562,strawberries,froot loops w milk,6.09,7.37,1.2800000000000002,froot loops w milk,63,63,63,True,i,17513,581,1669831843143,581,HRV,HRV_0135,2022-11-30 18:12:57
3,"[{'imgObject': {}, 'id': 'salad w chicken', 'src': '/static/foodstim60/salad w chicken.jpg', 'key': 'u', 'origWidth': 411, 'origHeight': 411, 'width': 411, 'height': 411, 'widthPercent': 0.45, 'rescaleHeight': False, 'trialN': 3, 'loaded': True, 'loadedTime': 11983, 'positionName': 'LEFT', 'positionCoords': [244.68, 178.5], 'bid': 7.79}, {'imgObject': {}, 'id': 'omelette', 'src': '/static/foodstim60/omelette.jpg', 'key': 'i', 'origWidth': 410, 'origHeight': 409, 'width': 410, 'height': 409, 'widthPercent': 0.45, 'rescaleHeight': False, 'trialN': 3, 'loaded': True, 'loadedTime': 11999, 'positionName': 'RIGHT', 'positionCoords': [710.32, 179.5], 'bid': 6.9}]",17513,1669831843143,salad w chicken,omelette,7.79,6.9,-0.8899999999999997,omelette,105,105,105,True,i,18121,608,1669831843751,608,HRV,HRV_0135,2022-11-30 18:12:57
4,"[{'imgObject': {}, 'id': 'orange slices', 'src': '/static/foodstim60/orange slices.jpg', 'key': 'u', 'origWidth': 409, 'origHeight': 410, 'width': 409, 'height': 410, 'widthPercent': 0.45, 'rescaleHeight': False, 'trialN': 4, 'loaded': True, 'loadedTime': 11999, 'positionName': 'LEFT', 'positionCoords': [246.68, 179], 'bid': 7.53}, {'imgObject': {}, 'id': 'raisin bran w milk', 'src': '/static/foodstim60/raisin bran w milk.jpg', 'key': 'i', 'origWidth': 411, 'origHeight': 411, 'width': 411, 'height': 411, 'widthPercent': 0.45, 'rescaleHeight': False, 'trialN': 4, 'loaded': True, 'loadedTime': 12030, 'positionName': 'RIGHT', 'positionCoords': [710.32, 178.5], 'bid': 6.3100000000000005}]",18121,1669831843751,orange slices,raisin bran w milk,7.53,6.3100000000000005,-1.2199999999999998,orange slices,88,89,89,True,u,18713,592,1669831844343,592,HRV,HRV_0135,2022-11-30 18:12:57
5,"[{'imgObject': {}, 'id': 'grilled chicken strips', 'src': '/static/foodstim60/grilled chicken strips.jpg', 'key': 'u', 'origWidth': 410, 'origHeight': 411, 'width': 410, 'height': 411, 'widthPercent': 0.45, 'rescaleHeight': False, 'trialN': 5, 'loaded': True, 'loadedTime': 12030, 'positionName': 'LEFT', 'positionCoords': [245.68, 178.5], 'bid': 7.15}, {'imgObject': {}, 'id': 'chickenfingers', 'src': '/static/foodstim60/chickenfingers.jpg', 'key': 'i', 'origWidth': 410, 'origHeight': 410, 'width': 410, 'height': 410, 'widthPercent': 0.45, 'rescaleHeight': False, 'trialN': 5, 'loaded': True, 'loadedTime': 12046, 'positionName': 'RIGHT', 'positionCoords': [710.32, 179], 'bid': 4.64}]",18713,1669831844343,grilled chicken strips,chickenfingers,7.15,4.64,-2.5100000000000007,chickenfingers,46,46,46,True,i,19266,553,1669831844896,553,HRV,HRV_0135,2022-11-30 18:12:57
6,"[{'imgObject': {}, 'id': 'banana', 'src': '/static/foodstim60/banana.jpg', 'key': 'u', 'origWidth': 410, 'origHeight': 410, 'width': 410, 'height': 410, 'widthPercent': 0.45, 'rescaleHeight': False, 'trialN': 6, 'loaded': True, 'loadedTime': 12061, 'positionName': 'LEFT', 'positionCoords': [245.68, 179], 'bid': 6.18}, {'imgObject': {}, 'id': 'luckycharms', 'src': '/static/foodstim60/luckycharms.jpg', 'key': 'i', 'origWidth': 410, 'origHeight': 409, 'width': 410, 'height': 409, 'widthPercent': 0.45, 'rescaleHeight': False, 'trialN': 6, 'loaded': True, 'loadedTime': 12061, 'positionName': 'RIGHT', 'positionCoords': [710.32, 179.5], 'bid': 5.3500000000000005}]",19266,1669831844896,banana,luckycharms,6.18,5.3500000000000005,-0.8299999999999992,luckycharms,33,33,33,True,i,19801,535,1669831845431,535,HRV,HRV_0135,2022-11-30 18:12:57
7,"[{'imgObject': {}, 'id': 'raspberries', 'src': '/static/foodstim60/raspberries.jpg', 'key': 'u', 'origWidth': 411, 'origHeight': 411, 'width': 411, 'height': 411, 'widthPercent': 0.45, 'rescaleHeight': False, 'trialN': 7, 'loaded': True, 'loadedTime': 12139, 'positionName': 'LEFT', 'positionCoords': [244.68, 178.5], 'bid': 3.79}, {'imgObject': {}, 'id': 'edamame', 'src': '/static/foodstim60/edamame.jpg', 'key': 'i', 'origWidth': 409, 'origHeight': 410, 'width': 409, 'height': 410, 'widthPercent': 0.45, 'rescaleHeight': False, 'trialN': 7, 'loaded': True, 'loadedTime': 12139, 'positionName': 'RIGHT', 'positionCoords': [710.32, 179], 'bid': 4.92}]",19801,1669831845431,raspberries,edamame,3.79,4.92,1.13,edamame,47,48,48,True,i,20353,552,1669831845983,552,HRV,HRV_0135,2022-11-30 18:12:57
8,"[{'imgObject': {}, 'id': 'cherries', 'src': '/static/foodstim60/cherries.jpg', 'key': 'u', 'origWidth': 410, 'origHeight': 411, 'width': 410, 'height': 411, 'widthPercent': 0.45, 'rescaleHeight': False, 'trialN': 8, 'loaded': True, 'loadedTime': 12155, 'positionName': 'LEFT', 'positionCoords': [245.68, 178.5], 'bid': 6.71}, {'imgObject': {}, 'id': 'lox', 'src': '/static/foodstim60/lox.jpg', 'key': 'i', 'origWidth': 410, 'origHeight': 411, 'width': 410, 'height': 411, 'widthPercent': 0.45, 'rescaleHeight': False, 'trialN': 8, 'loaded': True, 'loadedTime': 12171, 'positionName': 'RIGHT', 'positionCoords': [710.32, 178.5], 'bid': 6.8500000000000005}]",20353,1669831845983,cherries,lox,6.71,6.8500000000000005,0.14000000000000057,lox,156,157,157,True,i,21018,665,1669831846648,665,HRV,HRV_0135,2022-11-30 18:12:57
9,"[{'imgObject': {}, 'id': 'steak', 'src': '/static/foodstim60/steak.jpg', 'key': 'u', 'origWidth': 410, 'origHeight': 410, 'width': 410, 'height': 410, 'widthPercent': 0.45, 'rescaleHeight': False, 'trialN': 9, 'loaded': True, 'loadedTime': 12186, 'positionName': 'LEFT', 'positionCoords': [245.68, 179], 'bid': 5.2}, {'imgObject': {}, 'id': 'turkey sandwich', 'src': '/static/foodstim60/turkey sandwich.jpg', 'key': 'i', 'origWidth': 409, 'origHeight': 409, 'width': 409, 'height': 409, 'widthPercent': 0.45, 'rescaleHeight': False, 'trialN': 9, 'loaded': True, 'loadedTime': 12186, 'positionName': 'RIGHT', 'positionCoords': [710.32, 179.5], 'bid': 7.57}]",21018,1669831846648,steak,turkey sandwich,5.2,7.57,2.37,turkey sandwich,91,91,91,True,i,21611,593,1669831847241,593,HRV,HRV_0135,2022-11-30 18:12:57
10,"[{'imgObject': {}, 'id': 'grilled chicken strips', 'src': '/static/foodstim60/grilled chicken strips.jpg', 'key': 'u', 'origWidth': 410, 'origHeight': 411, 'width': 410, 'height': 411, 'widthPercent': 0.45, 'rescaleHeight': False, 'trialN': 10, 'loaded': True, 'loadedTime': 12030, 'positionName': 'LEFT', 'positionCoords': [245.68, 178.5], 'bid': 7.15}, {'imgObject': {}, 'id': 'omelette', 'src': '/static/foodstim60/omelette.jpg', 'key': 'i', 'origWidth': 410, 'origHeight': 409, 'width': 410, 'height': 409, 'widthPercent': 0.45, 'rescaleHeight': False, 'trialN': 10, 'loaded': True, 'loadedTime': 11999, 'positionName': 'RIGHT', 'positionCoords': [710.32, 179.5], 'bid': 6.9}]",21611,1669831847241,grilled chicken strips,omelette,7.15,6.9,-0.25,grilled chicken strips,68,69,69,True,u,22186,575,1669831847816,575,HRV,HRV_0135,2022-11-30 18:12:57
11,"[{'imgObject': {}, 'id': 'cantaloupe', 'src': '/static/foodstim60/cantaloupe.jpg', 'key': 'u', 'origWidth': 409, 'origHeight': 409, 'width': 409, 'height': 409, 'widthPercent': 0.45, 'rescaleHeight': False, 'trialN': 11, 'loaded': True, 'loadedTime': 12202, 'positionName': 'LEFT', 'positionCoords': [246.68, 179.5], 'bid': 6.66}, {'imgObject': {}, 'id': 'raspberries', 'src': '/static/foodstim60/raspberries.jpg', 'key': 'i', 'origWidth': 411, 'origHeight': 411, 'width': 411, 'height': 411, 'widthPercent': 0.45, 'rescaleHeight': False, 'trialN': 11, 'loaded': True, 'loadedTime': 12124, 'positionName': 'RIGHT', 'positionCoords': [710.32, 178.5], 'bid': 3.79}]",22186,1669831847816,cantaloupe,raspberries,6.66,3.79,-2.87,cantaloupe,62,63,63,True,u,22755,569,1669831848385,569,HRV,HRV_0135,2022-11-30 18:12:57
12,"[{'imgObject': {}, 'id': 'burrito', 'src': '/static/foodstim60/burrito.jpg', 'key': 'u', 'origWidth': 410, 'origHeight': 410, 'width': 410, 'height': 410, 'widthPercent': 0.45, 'rescaleHeight': False, 'trialN': 12, 'loaded': True, 'loadedTime': 12233, 'positionName': 'LEFT', 'positionCoords': [245.68, 179], 'bid': 6.87}, {'imgObject': {}, 'id': 'omelette', 'src': '/static/foodstim60/omelette.jpg', 'key': 'i', 'origWidth': 410, 'origHeight': 409, 'width': 410, 'height': 409, 'widthPercent': 0.45, 'rescaleHeight': False, 'trialN': 12, 'loaded': True, 'loadedTime': 11999, 'positionName': 'RIGHT', 'positionCoords': [710.32, 179.5], 'bid': 6.9}]",22755,1669831848385,burrito,omelette,6.87,6.9,0.03000000000000025,omelette,133,134,134,True,i,23389,634,1669831849019,634,HRV,HRV_0135,2022-11-30 18:12:57
13,"[{'imgObject': {}, 'id': 'baked potato', 'src': '/static/foodstim60/baked potato.jpg', 'key': 'u', 'origWidth': 409, 'origHeight': 410, 'width': 409, 'height': 410, 'widthPercent': 0.45, 'rescaleHeight': False, 'trialN': 13, 'loaded': True, 'loadedTime': 12249, 'positionName': 'LEFT', 'positionCoords': [246.68, 179], 'bid': 5.49}, {'imgObject': {}, 'id': 'strawberries', 'src': '/static/foodstim60/strawberries.jpg', 'key': 'i', 'origWidth': 410, 'origHeight': 410, 'width': 410, 'height': 410, 'widthPercent': 0.45, 'rescaleHeight': False, 'trialN': 13, 'loaded': True, 'loadedTime': 11952, 'positionName': 'RIGHT', 'positionCoords': [710.32, 179], 'bid': 6.09}]",23389,1669831849019,baked potato,strawberries,5.49,6.09,0.5999999999999996,strawberries,64,65,65,True,i,23962,573,1669831849592,573,HRV,HRV_0135,2022-11-30 18:12:57
14,"[{'imgObject': {}, 'id': 'burrito', 'src': '/static/foodstim60/burrito.jpg', 'key': 'u', 'origWidth': 410, 'origHeight': 410, 'width': 410, 'height': 410, 'widthPercent': 0.45, 'rescaleHeight': False, 'trialN': 14, 'loaded': True, 'loadedTime': 12233, 'positionName': 'LEFT', 'positionCoords': [245.68, 179], 'bid': 6.87}, {'imgObject': {}, 'id': 'ice cream sundae 002', 'src': '/static/foodstim60/ice cream sundae 002.jpg', 'key': 'i', 'origWidth': 409, 'origHeight': 409, 'width': 409, 'height': 409, 'widthPercent': 0.45, 'rescaleHeight': False, 'trialN': 14, 'loaded': True, 'loadedTime': 12249, 'positionName': 'RIGHT', 'positionCoords': [710.32, 179.5], 'bid': 7.59}]",23962,1669831849592,burrito,ice cream sundae 002,6.87,7.59,0.7199999999999998,ice cream sundae 002,16,17,17,True,i,24486,524,1669831850116,524,HRV,HRV_0135,2022-11-30 18:12:57
15,"[{'imgObject': {}, 'id': 'blueberries', 'src': '/static/foodstim60/blueberries.jpg', 'key': 'u', 'origWidth': 411, 'origHeight': 411, 'width': 411, 'height': 411, 'widthPercent': 0.45, 'rescaleHeight': False, 'trialN': 15, 'loaded': True, 'loadedTime': 12249, 'positionName': 'LEFT', 'positionCoords': [244.68, 178.5], 'bid': 3.98}, {'imgObject': {}, 'id': 'avocado', 'src': '/static/foodstim60/avocado.jpg', 'key': 'i', 'origWidth': 409, 'origHeight': 409, 'width': 409, 'height': 409, 'widthPercent': 0.45, 'rescaleHeight': False, 'trialN': 15, 'loaded': True, 'loadedTime': 12280, 'positionName': 'RIGHT', 'positionCoords': [710.32, 179.5], 'bid': 5.01}]",24486,1669831850116,blueberries,avocado,3.98,5.01,1.0299999999999998,blueberries,43,43,43,True,u,25034,548,1669831850664,548,HRV,HRV_0135,2022-11-30 18:12:57
16,"[{'imgObject': {}, 'id': 'froot loops w milk', 'src': '/static/foodstim60/froot loops w milk.jpg', 'key': 'u', 'origWidth': 410, 'origHeight': 410, 'width': 410, 'height': 410, 'widthPercent': 0.45, 'rescaleHeight': False, 'trialN': 16, 'loaded': True, 'loadedTime': 11967, 'positionName': 'LEFT', 'positionCoords': [245.68, 179], 'bid': 7.37}, {'imgObject': {}, 'id': 'lox', 'src': '/static/foodstim60/lox.jpg', 'key': 'i', 'origWidth': 410, 'origHeight': 411, 'width': 410, 'height': 411, 'widthPercent': 0.45, 'rescaleHeight': False, 'trialN': 16, 'loaded': True, 'loadedTime': 12171, 'positionName': 'RIGHT', 'positionCoords': [710.32, 178.5], 'bid': 6.8500000000000005}]",25034,1669831850664,froot loops w milk,lox,7.37,6.8500000000000005,-0.5199999999999996,lox,5,13,13,True,i,25554,520,1669831851184,520,HRV,HRV_0135,2022-11-30 18:12:57
17,"[{'imgObject': {}, 'id': 'lox', 'src': '/static/foodstim60/lox.jpg', 'key': 'u', 'origWidth': 410, 'origHeight': 411, 'width': 410, 'height': 411, 'widthPercent': 0.45, 'rescaleHeight': False, 'trialN': 17, 'loaded': True, 'loadedTime': 12171, 'positionName': 'LEFT', 'positionCoords': [245.68, 178.5], 'bid': 6.8500000000000005}, {'imgObject': {}, 'id': 'mac & cheese', 'src': '/static/foodstim60/mac & cheese.jpg', 'key': 'i', 'origWidth': 410, 'origHeight': 410, 'width': 410, 'height': 410, 'widthPercent': 0.45, 'rescaleHeight': False, 'trialN': 17, 'loaded': True, 'loadedTime': 12280, 'positionName': 'RIGHT', 'positionCoords': [710.32, 179], 'bid': 5.9}]",25554,1669831851184,lox,mac & cheese,6.8500000000000005,5.9,-0.9500000000000002,mac & cheese,45,45,45,True,i,26105,551,1669831851735,551,HRV,HRV_0135,2022-11-30 18:12:57
18,"[{'imgObject': {}, 'id': 'popsicles', 'src': '/static/foodstim60/popsicles.jpg', 'key': 'u', 'origWidth': 410, 'origHeight': 410, 'width': 410, 'height': 410, 'widthPercent': 0.45, 'rescaleHeight': False, 'trialN': 18, 'loaded': True, 'loadedTime': 14857, 'positionName': 'LEFT', 'positionCoords': [245.68, 179], 'bid': 5.9}, {'imgObject': {}, 'id': 'strawberries', 'src': '/static/foodstim60/strawberries.jpg', 'key': 'i', 'origWidth': 410, 'origHeight': 410, 'width': 410, 'height': 410, 'widthPercent': 0.45, 'rescaleHeight': False, 'trialN': 18, 'loaded': True, 'loadedTime': 11967, 'positionName': 'RIGHT', 'positionCoords': [710.32, 179], 'bid': 6.09}]",26105,1669831851735,popsicles,strawberries,5.9,6.09,0.1899999999999995,popsicles,44,44,44,True,u,26656,551,1669831852286,551,HRV,HRV_0135,2022-11-30 18:12:57
19,"[{'imgObject': {}, 'id': 'fried eggs', 'src': '/static/foodstim60/fried eggs.jpg', 'key': 'u', 'origWidth': 410, 'origHeight': 410, 'width': 410, 'height': 410, 'widthPercent': 0.45, 'rescaleHeight': False, 'trialN': 19, 'loaded': True, 'loadedTime': 12296, 'positionName': 'LEFT', 'positionCoords': [245.68, 179], 'bid': 7.66}, {'imgObject': {}, 'id': 'seaweed', 'src': '/static/foodstim60/seaweed.jpg', 'key': 'i', 'origWidth': 410, 'origHeight': 410, 'width': 410, 'height': 410, 'widthPercent': 0.45, 'rescaleHeight': False, 'trialN': 19, 'loaded': True, 'loadedTime': 12296, 'positionName': 'RIGHT', 'positionCoords': [710.32, 179], 'bid': 7.66}]",26656,1669831852286,fried eggs,seaweed,7.66,7.66,0.0,fried eggs,65,65,65,True,u,27226,570,1669831852856,570,HRV,HRV_0135,2022-11-30 18:12:57
20,"[{'imgObject': {}, 'id': 'cherries', 'src': '/static/foodstim60/cherries.jpg', 'key': 'u', 'origWidth': 410, 'origHeight': 411, 'width': 410, 'height': 411, 'widthPercent': 0.45, 'rescaleHeight': False, 'trialN': 20, 'loaded': True, 'loadedTime': 12155, 'positionName': 'LEFT', 'positionCoords': [245.68, 178.5], 'bid': 6.71}, {'imgObject': {}, 'id': 'cantaloupe', 'src': '/static/foodstim60/cantaloupe.jpg', 'key': 'i', 'origWidth': 409, 'origHeight': 409, 'width': 409, 'height': 409, 'widthPercent': 0.45, 'rescaleHeight': False, 'trialN': 20, 'loaded': True, 'loadedTime': 12218, 'positionName': 'RIGHT', 'positionCoords': [710.32, 179.5], 'bid': 6.66}]",27226,1669831852856,cherries,cantaloupe,6.71,6.66,-0.04999999999999982,cantaloupe,193,194,194,True,i,27921,695,1669831853551,695,HRV,HRV_0135,2022-11-30 18:12:57
21,"[{'imgObject': {}, 'id': 'mashed potato', 'src': '/static/foodstim60/mashed potato.jpg', 'key': 'u', 'origWidth': 409, 'origHeight': 409, 'width': 409, 'height': 409, 'widthPercent': 0.45, 'rescaleHeight': False, 'trialN': 21, 'loaded': True, 'loadedTime': 12311, 'positionName': 'LEFT', 'positionCoords': [246.68, 179.5], 'bid': 2.32}, {'imgObject': {}, 'id': 'raisin bran w milk', 'src': '/static/foodstim60/raisin bran w milk.jpg', 'key': 'i', 'origWidth': 411, 'origHeight': 411, 'width': 411, 'height': 411, 'widthPercent': 0.45, 'rescaleHeight': False, 'trialN': 21, 'loaded': True, 'loadedTime': 12014, 'positionName': 'RIGHT', 'positionCoords': [710.32, 178.5], 'bid': 6.3100000000000005}]",27921,1669831853551,mashed potato,raisin bran w milk,2.32,6.3100000000000005,3.9900000000000007,mashed potato,68,69,69,True,u,28491,570,1669831854121,570,HRV,HRV_0135,2022-11-30 18:12:57
22,"[{'imgObject': {}, 'id': 'omelette', 'src': '/static/foodstim60/omelette.jpg', 'key': 'u', 'origWidth': 410, 'origHeight': 409, 'width': 410, 'height': 409, 'widthPercent': 0.45, 'rescaleHeight': False, 'trialN': 22, 'loaded': True, 'loadedTime': 11999, 'positionName': 'LEFT', 'positionCoords': [245.68, 179.5], 'bid': 6.9}, {'imgObject': {}, 'id': 'kiwi', 'src': '/static/foodstim60/kiwi.jpg', 'key': 'i', 'origWidth': 410, 'origHeight': 410, 'width': 410, 'height': 410, 'widthPercent': 0.45, 'rescaleHeight': False, 'trialN': 22, 'loaded': True, 'loadedTime': 12327, 'positionName': 'RIGHT', 'positionCoords': [710.32, 179], 'bid': 4.42}]",28491,1669831854121,omelette,kiwi,6.9,4.42,-2.4800000000000004,kiwi,42,43,43,True,i,29042,551,1669831854672,551,HRV,HRV_0135,2022-11-30 18:12:57
23,"[{'imgObject': {}, 'id': 'veggieswithdip', 'src': '/static/foodstim60/veggieswithdip.jpg', 'key': 'u', 'origWidth': 409, 'origHeight': 409, 'width': 409, 'height': 409, 'widthPercent': 0.45, 'rescaleHeight': False, 'trialN': 23, 'loaded': True, 'loadedTime': 12342, 'positionName': 'LEFT', 'positionCoords': [246.68, 179.5], 'bid': 5.79}, {'imgObject': {}, 'id': 'raisin bran w milk', 'src': '/static/foodstim60/raisin bran w milk.jpg', 'key': 'i', 'origWidth': 411, 'origHeight': 411, 'width': 411, 'height': 411, 'widthPercent': 0.45, 'rescaleHeight': False, 'trialN': 23, 'loaded': True, 'loadedTime': 12014, 'positionName': 'RIGHT', 'positionCoords': [710.32, 178.5], 'bid': 6.3100000000000005}]",29042,1669831854672,veggieswithdip,raisin bran w milk,5.79,6.3100000000000005,0.5200000000000005,raisin bran w milk,126,126,126,True,i,29674,632,1669831855304,632,HRV,HRV_0135,2022-11-30 18:12:57
24,"[{'imgObject': {}, 'id': 'grilled chicken strips', 'src': '/static/foodstim60/grilled chicken strips.jpg', 'key': 'u', 'origWidth': 410, 'origHeight': 411, 'width': 410, 'height': 411, 'widthPercent': 0.45, 'rescaleHeight': False, 'trialN': 24, 'loaded': True, 'loadedTime': 12030, 'positionName': 'LEFT', 'positionCoords': [245.68, 178.5], 'bid': 7.15}, {'imgObject': {}, 'id': 'chicken nuggets2', 'src': '/static/foodstim60/chicken nuggets2.jpg', 'key': 'i', 'origWidth': 410, 'origHeight': 409, 'width': 410, 'height': 409, 'widthPercent': 0.45, 'rescaleHeight': False, 'trialN': 24, 'loaded': True, 'loadedTime': 12342, 'positionName': 'RIGHT', 'positionCoords': [710.32, 179.5], 'bid': 6.94}]",29674,1669831855304,grilled chicken strips,chicken nuggets2,7.15,6.94,-0.20999999999999996,grilled chicken strips,76,78,78,True,u,30260,586,1669831855890,586,HRV,HRV_0135,2022-11-30 18:12:57
25,"[{'imgObject': {}, 'id': 'raisin bran w milk', 'src': '/static/foodstim60/raisin bran w milk.jpg', 'key': 'u', 'origWidth': 411, 'origHeight': 411, 'width': 411, 'height': 411, 'widthPercent': 0.45, 'rescaleHeight': False, 'trialN': 25, 'loaded': True, 'loadedTime': 12014, 'positionName': 'LEFT', 'positionCoords': [244.68, 178.5], 'bid': 6.3100000000000005}, {'imgObject': {}, 'id': 'burger', 'src': '/static/foodstim60/burger.jpg', 'key': 'i', 'origWidth': 409, 'origHeight': 409, 'width': 409, 'height': 409, 'widthPercent': 0.45, 'rescaleHeight': False, 'trialN': 25, 'loaded': True, 'loadedTime': 12374, 'positionName': 'RIGHT', 'positionCoords': [710.32, 179.5], 'bid': 6.63}]",30260,1669831855890,raisin bran w milk,burger,6.3100000000000005,6.63,0.3199999999999994,burger,39,40,40,True,i,30802,542,1669831856432,542,HRV,HRV_0135,2022-11-30 18:12:57
26,"[{'imgObject': {}, 'id': 'turkey sandwich', 'src': '/static/foodstim60/turkey sandwich.jpg', 'key': 'u', 'origWidth': 409, 'origHeight': 409, 'width': 409, 'height': 409, 'widthPercent': 0.45, 'rescaleHeight': False, 'trialN': 26, 'loaded': True, 'loadedTime': 12186, 'positionName': 'LEFT', 'positionCoords': [246.68, 179.5], 'bid': 7.57}, {'imgObject': {}, 'id': 'bagel plain', 'src': '/static/foodstim60/bagel plain.jpg', 'key': 'i', 'origWidth': 410, 'origHeight': 410, 'width': 410, 'height': 410, 'widthPercent': 0.45, 'rescaleHeight': False, 'trialN': 26, 'loaded': True, 'loadedTime': 12374, 'positionName': 'RIGHT', 'positionCoords': [710.32, 179], 'bid': 9.02}]",30802,1669831856432,turkey sandwich,bagel plain,7.57,9.02,1.4499999999999993,turkey sandwich,47,47,47,True,u,31355,553,1669831856985,553,HRV,HRV_0135,2022-11-30 18:12:57
27,"[{'imgObject': {}, 'id': 'cantaloupe', 'src': '/static/foodstim60/cantaloupe.jpg', 'key': 'u', 'origWidth': 409, 'origHeight': 409, 'width': 409, 'height': 409, 'widthPercent': 0.45, 'rescaleHeight': False, 'trialN': 27, 'loaded': True, 'loadedTime': 12202, 'positionName': 'LEFT', 'positionCoords': [246.68, 179.5], 'bid': 6.66}, {'imgObject': {}, 'id': 'roastedpotatoes', 'src': '/static/foodstim60/roastedpotatoes.jpg', 'key': 'i', 'origWidth': 409, 'origHeight': 410, 'width': 409, 'height': 410, 'widthPercent': 0.45, 'rescaleHeight': False, 'trialN': 27, 'loaded': True, 'loadedTime': 12374, 'positionName': 'RIGHT', 'positionCoords': [710.32, 179], 'bid': 6.72}]",31355,1669831856985,cantaloupe,roastedpotatoes,6.66,6.72,0.05999999999999961,roastedpotatoes,84,84,84,True,i,31946,591,1669831857576,591,HRV,HRV_0135,2022-11-30 18:12:57
28,"[{'imgObject': {}, 'id': 'hotdog w must', 'src': '/static/foodstim60/hotdog w must.jpg', 'key': 'u', 'origWidth': 409, 'origHeight': 409, 'width': 409, 'height': 409, 'widthPercent': 0.45, 'rescaleHeight': False, 'trialN': 28, 'loaded': True, 'loadedTime': 12389, 'positionName': 'LEFT', 'positionCoords': [246.68, 179.5], 'bid': 7.65}, {'imgObject': {}, 'id': 'pear', 'src': '/static/foodstim60/pear.jpg', 'key': 'i', 'origWidth': 411, 'origHeight': 410, 'width': 411, 'height': 410, 'widthPercent': 0.45, 'rescaleHeight': False, 'trialN': 28, 'loaded': True, 'loadedTime': 12389, 'positionName': 'RIGHT', 'positionCoords': [710.32, 179], 'bid': 7.6}]",31946,1669831857576,hotdog w must,pear,7.65,7.6,-0.05000000000000071,hotdog w must,54,55,55,True,u,32505,559,1669831858135,559,HRV,HRV_0135,2022-11-30 18:12:57
29,"[{'imgObject': {}, 'id': 'granola w milk', 'src': '/static/foodstim60/granola w milk.jpg', 'key': 'u', 'origWidth': 410, 'origHeight': 410, 'width': 410, 'height': 410, 'widthPercent': 0.45, 'rescaleHeight': False, 'trialN': 29, 'loaded': True, 'loadedTime': 12405, 'positionName': 'LEFT', 'positionCoords': [245.68, 179], 'bid': 7.6}, {'imgObject': {}, 'id': 'cantaloupe', 'src': '/static/foodstim60/cantaloupe.jpg', 'key': 'i', 'origWidth': 409, 'origHeight': 409, 'width': 409, 'height': 409, 'widthPercent': 0.45, 'rescaleHeight': False, 'trialN': 29, 'loaded': True, 'loadedTime': 12202, 'positionName': 'RIGHT', 'positionCoords': [710.32, 179.5], 'bid': 6.66}]",32505,1669831858135,granola w milk,cantaloupe,7.6,6.66,-0.9399999999999995,cantaloupe,34,35,35,True,i,33042,537,1669831858672,537,HRV,HRV_0135,2022-11-30 18:12:57
30,"[{'imgObject': {}, 'id': 'salad w chicken', 'src': '/static/foodstim60/salad w chicken.jpg', 'key': 'u', 'origWidth': 411, 'origHeight': 411, 'width': 411, 'height': 411, 'widthPercent': 0.45, 'rescaleHeight': False, 'trialN': 30, 'loaded': True, 'loadedTime': 11983, 'positionName': 'LEFT', 'positionCoords': [244.68, 178.5], 'bid': 7.79}, {'imgObject': {}, 'id': 'turkeysandwich', 'src': '/static/foodstim60/turkeysandwich.jpg', 'key': 'i', 'origWidth': 409, 'origHeight': 409, 'width': 409, 'height': 409, 'widthPercent': 0.45, 'rescaleHeight': False, 'trialN': 30, 'loaded': True, 'loadedTime': 12405, 'positionName': 'RIGHT', 'positionCoords': [710.32, 179.5], 'bid': 7.84}]",33042,1669831858672,salad w chicken,turkeysandwich,7.79,7.84,0.04999999999999982,salad w chicken,227,227,227,True,u,33771,729,1669831859401,729,HRV,HRV_0135,2022-11-30 18:12:57
31,"[{'imgObject': {}, 'id': 'cantaloupe', 'src': '/static/foodstim60/cantaloupe.jpg', 'key': 'u', 'origWidth': 409, 'origHeight': 409, 'width': 409, 'height': 409, 'widthPercent': 0.45, 'rescaleHeight': False, 'trialN': 31, 'loaded': True, 'loadedTime': 12202, 'positionName': 'LEFT', 'positionCoords': [246.68, 179.5], 'bid': 6.66}, {'imgObject': {}, 'id': 'blackbeanswithrice', 'src': '/static/foodstim60/blackbeanswithrice.jpg', 'key': 'i', 'origWidth': 410, 'origHeight': 410, 'width': 410, 'height': 410, 'widthPercent': 0.45, 'rescaleHeight': False, 'trialN': 31, 'loaded': True, 'loadedTime': 12405, 'positionName': 'RIGHT', 'positionCoords': [710.32, 179], 'bid': 5.7}]",33771,1669831859401,cantaloupe,blackbeanswithrice,6.66,5.7,-0.96,cantaloupe,108,109,109,True,u,34406,635,1669831860036,635,HRV,HRV_0135,2022-11-30 18:12:57
32,"[{'imgObject': {}, 'id': 'raspberries', 'src': '/static/foodstim60/raspberries.jpg', 'key': 'u', 'origWidth': 411, 'origHeight': 411, 'width': 411, 'height': 411, 'widthPercent': 0.45, 'rescaleHeight': False, 'trialN': 32, 'loaded': True, 'loadedTime': 12124, 'positionName': 'LEFT', 'positionCoords': [244.68, 178.5], 'bid': 3.79}, {'imgObject': {}, 'id': 'hashbrowns', 'src': '/static/foodstim60/hashbrowns.jpg', 'key': 'i', 'origWidth': 411, 'origHeight': 410, 'width': 411, 'height': 410, 'widthPercent': 0.45, 'rescaleHeight': False, 'trialN': 32, 'loaded': True, 'loadedTime': 12405, 'positionName': 'RIGHT', 'positionCoords': [710.32, 179], 'bid': 2.62}]",34408,1669831860038,raspberries,hashbrowns,3.79,2.62,-1.17,raspberries,85,85,85,True,u,35013,605,1669831860643,605,HRV,HRV_0135,2022-11-30 18:12:57
33,"[{'imgObject': {}, 'id': 'blackbeanswithrice', 'src': '/static/foodstim60/blackbeanswithrice.jpg', 'key': 'u', 'origWidth': 410, 'origHeight': 410, 'width': 410, 'height': 410, 'widthPercent': 0.45, 'rescaleHeight': False, 'trialN': 33, 'loaded': True, 'loadedTime': 12405, 'positionName': 'LEFT', 'positionCoords': [245.68, 179], 'bid': 5.7}, {'imgObject': {}, 'id': 'baked potato', 'src': '/static/foodstim60/baked potato.jpg', 'key': 'i', 'origWidth': 409, 'origHeight': 410, 'width': 409, 'height': 410, 'widthPercent': 0.45, 'rescaleHeight': False, 'trialN': 33, 'loaded': True, 'loadedTime': 12249, 'positionName': 'RIGHT', 'positionCoords': [710.32, 179], 'bid': 5.49}]",35013,1669831860643,blackbeanswithrice,baked potato,5.7,5.49,-0.20999999999999996,baked potato,85,85,85,True,i,35601,588,1669831861231,588,HRV,HRV_0135,2022-11-30 18:12:57
34,"[{'imgObject': {}, 'id': 'omelette', 'src': '/static/foodstim60/omelette.jpg', 'key': 'u', 'origWidth': 410, 'origHeight': 409, 'width': 410, 'height': 409, 'widthPercent': 0.45, 'rescaleHeight': False, 'trialN': 34, 'loaded': True, 'loadedTime': 11999, 'positionName': 'LEFT', 'positionCoords': [245.68, 179.5], 'bid': 6.9}, {'imgObject': {}, 'id': 'olives', 'src': '/static/foodstim60/olives.jpg', 'key': 'i', 'origWidth': 410, 'origHeight': 410, 'width': 410, 'height': 410, 'widthPercent': 0.45, 'rescaleHeight': False, 'trialN': 34, 'loaded': True, 'loadedTime': 12421, 'positionName': 'RIGHT', 'positionCoords': [710.32, 179], 'bid': 7.4}]",35601,1669831861231,omelette,olives,6.9,7.4,0.5,omelette,17,17,17,True,u,36127,526,1669831861757,526,HRV,HRV_0135,2022-11-30 18:12:57
35,"[{'imgObject': {}, 'id': 'froot loops w milk', 'src': '/static/foodstim60/froot loops w milk.jpg', 'key': 'u', 'origWidth': 410, 'origHeight': 410, 'width': 410, 'height': 410, 'widthPercent': 0.45, 'rescaleHeight': False, 'trialN': 35, 'loaded': True, 'loadedTime': 11983, 'positionName': 'LEFT', 'positionCoords': [245.68, 179], 'bid': 7.37}, {'imgObject': {}, 'id': 'shreddedwheatwithmilk', 'src': '/static/foodstim60/shreddedwheatwithmilk.jpg', 'key': 'i', 'origWidth': 410, 'origHeight': 410, 'width': 410, 'height': 410, 'widthPercent': 0.45, 'rescaleHeight': False, 'trialN': 35, 'loaded': True, 'loadedTime': 12436, 'positionName': 'RIGHT', 'positionCoords': [710.32, 179], 'bid': 4.91}]",36127,1669831861757,froot loops w milk,shreddedwheatwithmilk,7.37,4.91,-2.46,froot loops w milk,160,160,160,True,u,36797,670,1669831862427,670,HRV,HRV_0135,2022-11-30 18:12:57
36,"[{'imgObject': {}, 'id': 'fried eggs', 'src': '/static/foodstim60/fried eggs.jpg', 'key': 'u', 'origWidth': 410, 'origHeight': 410, 'width': 410, 'height': 410, 'widthPercent': 0.45, 'rescaleHeight': False, 'trialN': 36, 'loaded': True, 'loadedTime': 12296, 'positionName': 'LEFT', 'positionCoords': [245.68, 179], 'bid': 7.66}, {'imgObject': {}, 'id': 'froot loops w milk', 'src': '/static/foodstim60/froot loops w milk.jpg', 'key': 'i', 'origWidth': 410, 'origHeight': 410, 'width': 410, 'height': 410, 'widthPercent': 0.45, 'rescaleHeight': False, 'trialN': 36, 'loaded': True, 'loadedTime': 11983, 'positionName': 'RIGHT', 'positionCoords': [710.32, 179], 'bid': 7.37}]",36797,1669831862427,fried eggs,froot loops w milk,7.66,7.37,-0.29000000000000004,fried eggs,108,108,108,True,u,37414,617,1669831863044,617,HRV,HRV_0135,2022-11-30 18:12:57
37,"[{'imgObject': {}, 'id': 'sweetpotato', 'src': '/static/foodstim60/sweetpotato.jpg', 'key': 'u', 'origWidth': 410, 'origHeight': 410, 'width': 410, 'height': 410, 'widthPercent': 0.45, 'rescaleHeight': False, 'trialN': 37, 'loaded': True, 'loadedTime': 12452, 'positionName': 'LEFT', 'positionCoords': [245.68, 179], 'bid': 6.140000000000001}, {'imgObject': {}, 'id': 'cherry tomato', 'src': '/static/foodstim60/cherry tomato.jpg', 'key': 'i', 'origWidth': 410, 'origHeight': 410, 'width': 410, 'height': 410, 'widthPercent': 0.45, 'rescaleHeight': False, 'trialN': 37, 'loaded': True, 'loadedTime': 12452, 'positionName': 'RIGHT', 'positionCoords': [710.32, 179], 'bid': 2.04}]",37414,1669831863044,sweetpotato,cherry tomato,6.140000000000001,2.04,-4.1000000000000005,sweetpotato,140,140,140,True,u,38064,650,1669831863694,650,HRV,HRV_0135,2022-11-30 18:12:57
38,"[{'imgObject': {}, 'id': 'corn cob', 'src': '/static/foodstim60/corn cob.jpg', 'key': 'u', 'origWidth': 411, 'origHeight': 411, 'width': 411, 'height': 411, 'widthPercent': 0.45, 'rescaleHeight': False, 'trialN': 38, 'loaded': True, 'loadedTime': 12467, 'positionName': 'LEFT', 'positionCoords': [244.68, 178.5], 'bid': 4.1}, {'imgObject': {}, 'id': 'tacos', 'src': '/static/foodstim60/tacos.jpg', 'key': 'i', 'origWidth': 411, 'origHeight': 411, 'width': 411, 'height': 411, 'widthPercent': 0.45, 'rescaleHeight': False, 'trialN': 38, 'loaded': True, 'loadedTime': 11936, 'positionName': 'RIGHT', 'positionCoords': [710.32, 178.5], 'bid': 5.46}]",38064,1669831863694,corn cob,tacos,4.1,5.46,1.3600000000000003,tacos,251,251,251,True,i,38829,765,1669831864459,765,HRV,HRV_0135,2022-11-30 18:12:57
39,"[{'imgObject': {}, 'id': 'lox', 'src': '/static/foodstim60/lox.jpg', 'key': 'u', 'origWidth': 410, 'origHeight': 411, 'width': 410, 'height': 411, 'widthPercent': 0.45, 'rescaleHeight': False, 'trialN': 39, 'loaded': True, 'loadedTime': 12171, 'positionName': 'LEFT', 'positionCoords': [245.68, 178.5], 'bid': 6.8500000000000005}, {'imgObject': {}, 'id': 'seaweed', 'src': '/static/foodstim60/seaweed.jpg', 'key': 'i', 'origWidth': 410, 'origHeight': 410, 'width': 410, 'height': 410, 'widthPercent': 0.45, 'rescaleHeight': False, 'trialN': 39, 'loaded': True, 'loadedTime': 12296, 'positionName': 'RIGHT', 'positionCoords': [710.32, 179], 'bid': 7.66}]",38829,1669831864459,lox,seaweed,6.8500000000000005,7.66,0.8099999999999996,lox,31,32,32,True,u,39377,548,1669831865007,548,HRV,HRV_0135,2022-11-30 18:12:57
40,"[{'imgObject': {}, 'id': 'mashed potato', 'src': '/static/foodstim60/mashed potato.jpg', 'key': 'u', 'origWidth': 409, 'origHeight': 409, 'width': 409, 'height': 409, 'widthPercent': 0.45, 'rescaleHeight': False, 'trialN': 40, 'loaded': True, 'loadedTime': 12296, 'positionName': 'LEFT', 'positionCoords': [246.68, 179.5], 'bid': 2.32}, {'imgObject': {}, 'id': 'apple slices', 'src': '/static/foodstim60/apple slices.jpg', 'key': 'i', 'origWidth': 409, 'origHeight': 410, 'width': 409, 'height': 410, 'widthPercent': 0.45, 'rescaleHeight': False, 'trialN': 40, 'loaded': True, 'loadedTime': 12467, 'positionName': 'RIGHT', 'positionCoords': [710.32, 179], 'bid': 4.2}]",39377,1669831865007,mashed potato,apple slices,2.32,4.2,1.8800000000000003,mashed potato,144,144,144,True,u,40030,653,1669831865660,653,HRV,HRV_0135,2022-11-30 18:12:57
41,"[{'imgObject': {}, 'id': 'burrito', 'src': '/static/foodstim60/burrito.jpg', 'key': 'u', 'origWidth': 410, 'origHeight': 410, 'width': 410, 'height': 410, 'widthPercent': 0.45, 'rescaleHeight': False, 'trialN': 41, 'loaded': True, 'loadedTime': 12218, 'positionName': 'LEFT', 'positionCoords': [245.68, 179], 'bid': 6.87}, {'imgObject': {}, 'id': 'chicken nuggets2', 'src': '/static/foodstim60/chicken nuggets2.jpg', 'key': 'i', 'origWidth': 410, 'origHeight': 409, 'width': 410, 'height': 409, 'widthPercent': 0.45, 'rescaleHeight': False, 'trialN': 41, 'loaded': True, 'loadedTime': 12358, 'positionName': 'RIGHT', 'positionCoords': [710.32, 179.5], 'bid': 6.94}]",40030,1669831865660,burrito,chicken nuggets2,6.87,6.94,0.07000000000000028,chicken nuggets2,29,29,29,True,i,40579,549,1669831866209,549,HRV,HRV_0135,2022-11-30 18:12:57
42,"[{'imgObject': {}, 'id': 'fried eggs', 'src': '/static/foodstim60/fried eggs.jpg', 'key': 'u', 'origWidth': 410, 'origHeight': 410, 'width': 410, 'height': 410, 'widthPercent': 0.45, 'rescaleHeight': False, 'trialN': 42, 'loaded': True, 'loadedTime': 12280, 'positionName': 'LEFT', 'positionCoords': [245.68, 179], 'bid': 7.66}, {'imgObject': {}, 'id': 'turkey sandwich', 'src': '/static/foodstim60/turkey sandwich.jpg', 'key': 'i', 'origWidth': 409, 'origHeight': 409, 'width': 409, 'height': 409, 'widthPercent': 0.45, 'rescaleHeight': False, 'trialN': 42, 'loaded': True, 'loadedTime': 12186, 'positionName': 'RIGHT', 'positionCoords': [710.32, 179.5], 'bid': 7.57}]",40579,1669831866209,fried eggs,turkey sandwich,7.66,7.57,-0.08999999999999986,fried eggs,20,20,20,True,u,41114,535,1669831866744,535,HRV,HRV_0135,2022-11-30 18:12:57
43,"[{'imgObject': {}, 'id': 'cherry tomato', 'src': '/static/foodstim60/cherry tomato.jpg', 'key': 'u', 'origWidth': 410, 'origHeight': 410, 'width': 410, 'height': 410, 'widthPercent': 0.45, 'rescaleHeight': False, 'trialN': 43, 'loaded': True, 'loadedTime': 12452, 'positionName': 'LEFT', 'positionCoords': [245.68, 179], 'bid': 2.04}, {'imgObject': {}, 'id': 'kiwi', 'src': '/static/foodstim60/kiwi.jpg', 'key': 'i', 'origWidth': 410, 'origHeight': 410, 'width': 410, 'height': 410, 'widthPercent': 0.45, 'rescaleHeight': False, 'trialN': 43, 'loaded': True, 'loadedTime': 12327, 'positionName': 'RIGHT', 'positionCoords': [710.32, 179], 'bid': 4.42}]",41114,1669831866744,cherry tomato,kiwi,2.04,4.42,2.38,kiwi,1062,1062,1062,True,i,42697,1583,1669831868327,1583,HRV,HRV_0135,2022-11-30 18:12:57
44,"[{'imgObject': {}, 'id': 'mashed potato', 'src': '/static/foodstim60/mashed potato.jpg', 'key': 'u', 'origWidth': 409, 'origHeight': 409, 'width': 409, 'height': 409, 'widthPercent': 0.45, 'rescaleHeight': False, 'trialN': 44, 'loaded': True, 'loadedTime': 12311, 'positionName': 'LEFT', 'positionCoords': [246.68, 179.5], 'bid': 2.32}, {'imgObject': {}, 'id': 'cherry tomato', 'src': '/static/foodstim60/cherry tomato.jpg', 'key': 'i', 'origWidth': 410, 'origHeight': 410, 'width': 410, 'height': 410, 'widthPercent': 0.45, 'rescaleHeight': False, 'trialN': 44, 'loaded': True, 'loadedTime': 12452, 'positionName': 'RIGHT', 'positionCoords': [710.32, 179], 'bid': 2.04}]",42697,1669831868327,mashed potato,cherry tomato,2.32,2.04,-0.2799999999999998,cherry tomato,109,109,109,True,i,43315,618,1669831868945,618,HRV,HRV_0135,2022-11-30 18:12:57
45,"[{'imgObject': {}, 'id': 'hashbrowns', 'src': '/static/foodstim60/hashbrowns.jpg', 'key': 'u', 'origWidth': 411, 'origHeight': 410, 'width': 411, 'height': 410, 'widthPercent': 0.45, 'rescaleHeight': False, 'trialN': 45, 'loaded': True, 'loadedTime': 12405, 'positionName': 'LEFT', 'positionCoords': [244.68, 179], 'bid': 2.62}, {'imgObject': {}, 'id': 'Grapes', 'src': '/static/foodstim60/Grapes.jpg', 'key': 'i', 'origWidth': 411, 'origHeight': 411, 'width': 411, 'height': 411, 'widthPercent': 0.45, 'rescaleHeight': False, 'trialN': 45, 'loaded': True, 'loadedTime': 12467, 'positionName': 'RIGHT', 'positionCoords': [710.32, 178.5], 'bid': 4.86}]",43315,1669831868945,hashbrowns,Grapes,2.62,4.86,2.24,hashbrowns,346,346,346,True,u,44181,866,1669831869811,866,HRV,HRV_0135,2022-11-30 18:12:57
46,"[{'imgObject': {}, 'id': 'veggieswithdip', 'src': '/static/foodstim60/veggieswithdip.jpg', 'key': 'u', 'origWidth': 409, 'origHeight': 409, 'width': 409, 'height': 409, 'widthPercent': 0.45, 'rescaleHeight': False, 'trialN': 46, 'loaded': True, 'loadedTime': 12342, 'positionName': 'LEFT', 'positionCoords': [246.68, 179.5], 'bid': 5.79}, {'imgObject': {}, 'id': 'blackbeanswithrice', 'src': '/static/foodstim60/blackbeanswithrice.jpg', 'key': 'i', 'origWidth': 410, 'origHeight': 410, 'width': 410, 'height': 410, 'widthPercent': 0.45, 'rescaleHeight': False, 'trialN': 46, 'loaded': True, 'loadedTime': 12405, 'positionName': 'RIGHT', 'positionCoords': [710.32, 179], 'bid': 5.7}]",44181,1669831869811,veggieswithdip,blackbeanswithrice,5.79,5.7,-0.08999999999999986,blackbeanswithrice,46,46,46,True,i,44731,550,1669831870361,550,HRV,HRV_0135,2022-11-30 18:12:57
47,"[{'imgObject': {}, 'id': 'ice cream sundae 002', 'src': '/static/foodstim60/ice cream sundae 002.jpg', 'key': 'u', 'origWidth': 409, 'origHeight': 409, 'width': 409, 'height': 409, 'widthPercent': 0.45, 'rescaleHeight': False, 'trialN': 47, 'loaded': True, 'loadedTime': 12249, 'positionName': 'LEFT', 'positionCoords': [246.68, 179.5], 'bid': 7.59}, {'imgObject': {}, 'id': 'orange slices', 'src': '/static/foodstim60/orange slices.jpg', 'key': 'i', 'origWidth': 409, 'origHeight': 410, 'width': 409, 'height': 410, 'widthPercent': 0.45, 'rescaleHeight': False, 'trialN': 47, 'loaded': True, 'loadedTime': 12014, 'positionName': 'RIGHT', 'positionCoords': [710.32, 179], 'bid': 7.53}]",44731,1669831870361,ice cream sundae 002,orange slices,7.59,7.53,-0.05999999999999961,orange slices,93,93,93,True,i,45331,600,1669831870961,600,HRV,HRV_0135,2022-11-30 18:12:57
48,"[{'imgObject': {}, 'id': 'steak', 'src': '/static/foodstim60/steak.jpg', 'key': 'u', 'origWidth': 410, 'origHeight': 410, 'width': 410, 'height': 410, 'widthPercent': 0.45, 'rescaleHeight': False, 'trialN': 48, 'loaded': True, 'loadedTime': 12171, 'positionName': 'LEFT', 'positionCoords': [245.68, 179], 'bid': 5.2}, {'imgObject': {}, 'id': 'chickenfingers', 'src': '/static/foodstim60/chickenfingers.jpg', 'key': 'i', 'origWidth': 410, 'origHeight': 410, 'width': 410, 'height': 410, 'widthPercent': 0.45, 'rescaleHeight': False, 'trialN': 48, 'loaded': True, 'loadedTime': 12046, 'positionName': 'RIGHT', 'positionCoords': [710.32, 179], 'bid': 4.64}]",45331,1669831870961,steak,chickenfingers,5.2,4.64,-0.5600000000000005,steak,155,155,155,True,u,45999,668,1669831871629,668,HRV,HRV_0135,2022-11-30 18:12:57
49,"[{'imgObject': {}, 'id': 'sweetpotato', 'src': '/static/foodstim60/sweetpotato.jpg', 'key': 'u', 'origWidth': 410, 'origHeight': 410, 'width': 410, 'height': 410, 'widthPercent': 0.45, 'rescaleHeight': False, 'trialN': 49, 'loaded': True, 'loadedTime': 12452, 'positionName': 'LEFT', 'positionCoords': [245.68, 179], 'bid': 6.140000000000001}, {'imgObject': {}, 'id': 'bagel and cc', 'src': '/static/foodstim60/bagel and cc.jpg', 'key': 'i', 'origWidth': 410, 'origHeight': 410, 'width': 410, 'height': 410, 'widthPercent': 0.45, 'rescaleHeight': False, 'trialN': 49, 'loaded': True, 'loadedTime': 11952, 'positionName': 'RIGHT', 'positionCoords': [710.32, 179], 'bid': 5.32}]",45999,1669831871629,sweetpotato,bagel and cc,6.140000000000001,5.32,-0.8200000000000003,bagel and cc,91,91,91,True,i,46614,615,1669831872244,615,HRV,HRV_0135,2022-11-30 18:12:57
50,"[{'imgObject': {}, 'id': 'chicken nuggets2', 'src': '/static/foodstim60/chicken nuggets2.jpg', 'key': 'u', 'origWidth': 410, 'origHeight': 409, 'width': 410, 'height': 409, 'widthPercent': 0.45, 'rescaleHeight': False, 'trialN': 50, 'loaded': True, 'loadedTime': 12342, 'positionName': 'LEFT', 'positionCoords': [245.68, 179.5], 'bid': 6.94}, {'imgObject': {}, 'id': 'turkeysandwich', 'src': '/static/foodstim60/turkeysandwich.jpg', 'key': 'i', 'origWidth': 409, 'origHeight': 409, 'width': 409, 'height': 409, 'widthPercent': 0.45, 'rescaleHeight': False, 'trialN': 50, 'loaded': True, 'loadedTime': 12405, 'positionName': 'RIGHT', 'positionCoords': [710.32, 179.5], 'bid': 7.84}]",46614,1669831872244,chicken nuggets2,turkeysandwich,6.94,7.84,0.8999999999999995,chicken nuggets2,94,94,94,True,u,47213,599,1669831872843,599,HRV,HRV_0135,2022-11-30 18:12:57
51,"[{'imgObject': {}, 'id': 'tacos', 'src': '/static/foodstim60/tacos.jpg', 'key': 'u', 'origWidth': 411, 'origHeight': 411, 'width': 411, 'height': 411, 'widthPercent': 0.45, 'rescaleHeight': False, 'trialN': 51, 'loaded': True, 'loadedTime': 11936, 'positionName': 'LEFT', 'positionCoords': [244.68, 178.5], 'bid': 5.46}, {'imgObject': {}, 'id': 'luckycharms', 'src': '/static/foodstim60/luckycharms.jpg', 'key': 'i', 'origWidth': 410, 'origHeight': 409, 'width': 410, 'height': 409, 'widthPercent': 0.45, 'rescaleHeight': False, 'trialN': 51, 'loaded': True, 'loadedTime': 12061, 'positionName': 'RIGHT', 'positionCoords': [710.32, 179.5], 'bid': 5.3500000000000005}]",47214,1669831872844,tacos,luckycharms,5.46,5.3500000000000005,-0.10999999999999943,luckycharms,85,86,86,True,i,47815,601,1669831873445,601,HRV,HRV_0135,2022-11-30 18:12:57
52,"[{'imgObject': {}, 'id': 'bagel plain', 'src': '/static/foodstim60/bagel plain.jpg', 'key': 'u', 'origWidth': 410, 'origHeight': 410, 'width': 410, 'height': 410, 'widthPercent': 0.45, 'rescaleHeight': False, 'trialN': 52, 'loaded': True, 'loadedTime': 12374, 'positionName': 'LEFT', 'positionCoords': [245.68, 179], 'bid': 9.02}, {'imgObject': {}, 'id': 'mac & cheese', 'src': '/static/foodstim60/mac & cheese.jpg', 'key': 'i', 'origWidth': 410, 'origHeight': 410, 'width': 410, 'height': 410, 'widthPercent': 0.45, 'rescaleHeight': False, 'trialN': 52, 'loaded': True, 'loadedTime': 12280, 'positionName': 'RIGHT', 'positionCoords': [710.32, 179], 'bid': 5.9}]",47815,1669831873445,bagel plain,mac & cheese,9.02,5.9,-3.119999999999999,mac & cheese,122,122,122,True,i,48462,647,1669831874092,647,HRV,HRV_0135,2022-11-30 18:12:57
53,"[{'imgObject': {}, 'id': 'chickenfingers', 'src': '/static/foodstim60/chickenfingers.jpg', 'key': 'u', 'origWidth': 410, 'origHeight': 410, 'width': 410, 'height': 410, 'widthPercent': 0.45, 'rescaleHeight': False, 'trialN': 53, 'loaded': True, 'loadedTime': 12046, 'positionName': 'LEFT', 'positionCoords': [245.68, 179], 'bid': 4.64}, {'imgObject': {}, 'id': 'mashed potato', 'src': '/static/foodstim60/mashed potato.jpg', 'key': 'i', 'origWidth': 409, 'origHeight': 409, 'width': 409, 'height': 409, 'widthPercent': 0.45, 'rescaleHeight': False, 'trialN': 53, 'loaded': True, 'loadedTime': 12327, 'positionName': 'RIGHT', 'positionCoords': [710.32, 179.5], 'bid': 2.32}]",48462,1669831874092,chickenfingers,mashed potato,4.64,2.32,-2.32,mashed potato,83,83,83,True,i,49065,603,1669831874695,603,HRV,HRV_0135,2022-11-30 18:12:57
54,"[{'imgObject': {}, 'id': 'rigatoni and sauce', 'src': '/static/foodstim60/rigatoni and sauce.jpg', 'key': 'u', 'origWidth': 410, 'origHeight': 411, 'width': 410, 'height': 411, 'widthPercent': 0.45, 'rescaleHeight': False, 'trialN': 54, 'loaded': True, 'loadedTime': 12483, 'positionName': 'LEFT', 'positionCoords': [245.68, 178.5], 'bid': 4.39}, {'imgObject': {}, 'id': 'sushi w_condiments', 'src': '/static/foodstim60/sushi w_condiments.jpg', 'key': 'i', 'origWidth': 410, 'origHeight': 410, 'width': 410, 'height': 410, 'widthPercent': 0.45, 'rescaleHeight': False, 'trialN': 54, 'loaded': True, 'loadedTime': 12483, 'positionName': 'RIGHT', 'positionCoords': [710.32, 179], 'bid': 5.6000000000000005}]",49065,1669831874695,rigatoni and sauce,sushi w_condiments,4.39,5.6000000000000005,1.2100000000000009,sushi w_condiments,83,83,83,True,i,49696,631,1669831875326,631,HRV,HRV_0135,2022-11-30 18:12:57
55,"[{'imgObject': {}, 'id': 'kiwi', 'src': '/static/foodstim60/kiwi.jpg', 'key': 'u', 'origWidth': 410, 'origHeight': 410, 'width': 410, 'height': 410, 'widthPercent': 0.45, 'rescaleHeight': False, 'trialN': 55, 'loaded': True, 'loadedTime': 12327, 'positionName': 'LEFT', 'positionCoords': [245.68, 179], 'bid': 4.42}, {'imgObject': {}, 'id': 'blackbeanswithrice', 'src': '/static/foodstim60/blackbeanswithrice.jpg', 'key': 'i', 'origWidth': 410, 'origHeight': 410, 'width': 410, 'height': 410, 'widthPercent': 0.45, 'rescaleHeight': False, 'trialN': 55, 'loaded': True, 'loadedTime': 12405, 'positionName': 'RIGHT', 'positionCoords': [710.32, 179], 'bid': 5.7}]",49696,1669831875326,kiwi,blackbeanswithrice,4.42,5.7,1.2800000000000002,blackbeanswithrice,65,67,67,True,i,50269,573,1669831875899,573,HRV,HRV_0135,2022-11-30 18:12:57
56,"[{'imgObject': {}, 'id': 'apple slices', 'src': '/static/foodstim60/apple slices.jpg', 'key': 'u', 'origWidth': 409, 'origHeight': 410, 'width': 409, 'height': 410, 'widthPercent': 0.45, 'rescaleHeight': False, 'trialN': 56, 'loaded': True, 'loadedTime': 12467, 'positionName': 'LEFT', 'positionCoords': [246.68, 179], 'bid': 4.2}, {'imgObject': {}, 'id': 'kiwi', 'src': '/static/foodstim60/kiwi.jpg', 'key': 'i', 'origWidth': 410, 'origHeight': 410, 'width': 410, 'height': 410, 'widthPercent': 0.45, 'rescaleHeight': False, 'trialN': 56, 'loaded': True, 'loadedTime': 12327, 'positionName': 'RIGHT', 'positionCoords': [710.32, 179], 'bid': 4.42}]",50269,1669831875899,apple slices,kiwi,4.2,4.42,0.21999999999999975,kiwi,98,98,98,True,i,50896,627,1669831876526,627,HRV,HRV_0135,2022-11-30 18:12:57
57,"[{'imgObject': {}, 'id': 'cocktailshrimp', 'src': '/static/foodstim60/cocktailshrimp.jpg', 'key': 'u', 'origWidth': 410, 'origHeight': 410, 'width': 410, 'height': 410, 'widthPercent': 0.45, 'rescaleHeight': False, 'trialN': 57, 'loaded': True, 'loadedTime': 12499, 'positionName': 'LEFT', 'positionCoords': [245.68, 179], 'bid': 1}, {'imgObject': {}, 'id': 'rigatoni and sauce', 'src': '/static/foodstim60/rigatoni and sauce.jpg', 'key': 'i', 'origWidth': 410, 'origHeight': 411, 'width': 410, 'height': 411, 'widthPercent': 0.45, 'rescaleHeight': False, 'trialN': 57, 'loaded': True, 'loadedTime': 12483, 'positionName': 'RIGHT', 'positionCoords': [710.32, 178.5], 'bid': 4.39}]",50896,1669831876526,cocktailshrimp,rigatoni and sauce,1.0,4.39,3.3899999999999997,cocktailshrimp,142,142,142,True,u,51562,666,1669831877192,666,HRV,HRV_0135,2022-11-30 18:12:57
58,"[{'imgObject': {}, 'id': 'olives', 'src': '/static/foodstim60/olives.jpg', 'key': 'u', 'origWidth': 410, 'origHeight': 410, 'width': 410, 'height': 410, 'widthPercent': 0.45, 'rescaleHeight': False, 'trialN': 58, 'loaded': True, 'loadedTime': 12421, 'positionName': 'LEFT', 'positionCoords': [245.68, 179], 'bid': 7.4}, {'imgObject': {}, 'id': 'avocado', 'src': '/static/foodstim60/avocado.jpg', 'key': 'i', 'origWidth': 409, 'origHeight': 409, 'width': 409, 'height': 409, 'widthPercent': 0.45, 'rescaleHeight': False, 'trialN': 58, 'loaded': True, 'loadedTime': 12264, 'positionName': 'RIGHT', 'positionCoords': [710.32, 179.5], 'bid': 5.01}]",51562,1669831877192,olives,avocado,7.4,5.01,-2.3900000000000006,avocado,64,64,64,True,i,52146,584,1669831877776,584,HRV,HRV_0135,2022-11-30 18:12:57
59,"[{'imgObject': {}, 'id': 'corn cob', 'src': '/static/foodstim60/corn cob.jpg', 'key': 'u', 'origWidth': 411, 'origHeight': 411, 'width': 411, 'height': 411, 'widthPercent': 0.45, 'rescaleHeight': False, 'trialN': 59, 'loaded': True, 'loadedTime': 12467, 'positionName': 'LEFT', 'positionCoords': [244.68, 178.5], 'bid': 4.1}, {'imgObject': {}, 'id': 'apple slices', 'src': '/static/foodstim60/apple slices.jpg', 'key': 'i', 'origWidth': 409, 'origHeight': 410, 'width': 409, 'height': 410, 'widthPercent': 0.45, 'rescaleHeight': False, 'trialN': 59, 'loaded': True, 'loadedTime': 12467, 'positionName': 'RIGHT', 'positionCoords': [710.32, 179], 'bid': 4.2}]",52146,1669831877776,corn cob,apple slices,4.1,4.2,0.10000000000000053,apple slices,126,126,126,True,i,52780,634,1669831878410,634,HRV,HRV_0135,2022-11-30 18:12:57
60,"[{'imgObject': {}, 'id': 'cocktailshrimp', 'src': '/static/foodstim60/cocktailshrimp.jpg', 'key': 'u', 'origWidth': 410, 'origHeight': 410, 'width': 410, 'height': 410, 'widthPercent': 0.45, 'rescaleHeight': False, 'trialN': 60, 'loaded': True, 'loadedTime': 12483, 'positionName': 'LEFT', 'positionCoords': [245.68, 179], 'bid': 1}, {'imgObject': {}, 'id': 'strawberries', 'src': '/static/foodstim60/strawberries.jpg', 'key': 'i', 'origWidth': 410, 'origHeight': 410, 'width': 410, 'height': 410, 'widthPercent': 0.45, 'rescaleHeight': False, 'trialN': 60, 'loaded': True, 'loadedTime': 11952, 'positionName': 'RIGHT', 'positionCoords': [710.32, 179], 'bid': 6.09}]",52780,1669831878410,cocktailshrimp,strawberries,1.0,6.09,5.09,strawberries,129,129,129,True,i,53429,649,1669831879059,649,HRV,HRV_0135,2022-11-30 18:12:57
61,"[{'imgObject': {}, 'id': 'sushi w_condiments', 'src': '/static/foodstim60/sushi w_condiments.jpg', 'key': 'u', 'origWidth': 410, 'origHeight': 410, 'width': 410, 'height': 410, 'widthPercent': 0.45, 'rescaleHeight': False, 'trialN': 61, 'loaded': True, 'loadedTime': 12483, 'positionName': 'LEFT', 'positionCoords': [245.68, 179], 'bid': 5.6000000000000005}, {'imgObject': {}, 'id': 'sweetpotato', 'src': '/static/foodstim60/sweetpotato.jpg', 'key': 'i', 'origWidth': 410, 'origHeight': 410, 'width': 410, 'height': 410, 'widthPercent': 0.45, 'rescaleHeight': False, 'trialN': 61, 'loaded': True, 'loadedTime': 12452, 'positionName': 'RIGHT', 'positionCoords': [710.32, 179], 'bid': 6.140000000000001}]",53433,1669831879063,sushi w_condiments,sweetpotato,5.6000000000000005,6.140000000000001,0.54,sweetpotato,61,76,76,True,i,54027,594,1669831879657,594,HRV,HRV_0135,2022-11-30 18:12:57
62,"[{'imgObject': {}, 'id': 'turkeysandwich', 'src': '/static/foodstim60/turkeysandwich.jpg', 'key': 'u', 'origWidth': 409, 'origHeight': 409, 'width': 409, 'height': 409, 'widthPercent': 0.45, 'rescaleHeight': False, 'trialN': 62, 'loaded': True, 'loadedTime': 12405, 'positionName': 'LEFT', 'positionCoords': [246.68, 179.5], 'bid': 7.84}, {'imgObject': {}, 'id': 'bagel plain', 'src': '/static/foodstim60/bagel plain.jpg', 'key': 'i', 'origWidth': 410, 'origHeight': 410, 'width': 410, 'height': 410, 'widthPercent': 0.45, 'rescaleHeight': False, 'trialN': 62, 'loaded': True, 'loadedTime': 12374, 'positionName': 'RIGHT', 'positionCoords': [710.32, 179], 'bid': 9.02}]",54028,1669831879658,turkeysandwich,bagel plain,7.84,9.02,1.1799999999999997,turkeysandwich,116,116,116,True,u,54650,622,1669831880280,622,HRV,HRV_0135,2022-11-30 18:12:57
63,"[{'imgObject': {}, 'id': 'cocktailshrimp', 'src': '/static/foodstim60/cocktailshrimp.jpg', 'key': 'u', 'origWidth': 410, 'origHeight': 410, 'width': 410, 'height': 410, 'widthPercent': 0.45, 'rescaleHeight': False, 'trialN': 63, 'loaded': True, 'loadedTime': 12499, 'positionName': 'LEFT', 'positionCoords': [245.68, 179], 'bid': 1}, {'imgObject': {}, 'id': 'raspberries', 'src': '/static/foodstim60/raspberries.jpg', 'key': 'i', 'origWidth': 411, 'origHeight': 411, 'width': 411, 'height': 411, 'widthPercent': 0.45, 'rescaleHeight': False, 'trialN': 63, 'loaded': True, 'loadedTime': 12139, 'positionName': 'RIGHT', 'positionCoords': [710.32, 178.5], 'bid': 3.79}]",54650,1669831880280,cocktailshrimp,raspberries,1.0,3.79,2.79,raspberries,74,74,74,True,i,55230,580,1669831880860,580,HRV,HRV_0135,2022-11-30 18:12:57
64,"[{'imgObject': {}, 'id': 'raspberries', 'src': '/static/foodstim60/raspberries.jpg', 'key': 'u', 'origWidth': 411, 'origHeight': 411, 'width': 411, 'height': 411, 'widthPercent': 0.45, 'rescaleHeight': False, 'trialN': 64, 'loaded': True, 'loadedTime': 12139, 'positionName': 'LEFT', 'positionCoords': [244.68, 178.5], 'bid': 3.79}, {'imgObject': {}, 'id': 'bagel and cc', 'src': '/static/foodstim60/bagel and cc.jpg', 'key': 'i', 'origWidth': 410, 'origHeight': 410, 'width': 410, 'height': 410, 'widthPercent': 0.45, 'rescaleHeight': False, 'trialN': 64, 'loaded': True, 'loadedTime': 11952, 'positionName': 'RIGHT', 'positionCoords': [710.32, 179], 'bid': 5.32}]",55230,1669831880860,raspberries,bagel and cc,3.79,5.32,1.5300000000000002,raspberries,183,183,183,True,u,55928,698,1669831881558,698,HRV,HRV_0135,2022-11-30 18:12:57
65,"[{'imgObject': {}, 'id': 'baked potato', 'src': '/static/foodstim60/baked potato.jpg', 'key': 'u', 'origWidth': 409, 'origHeight': 410, 'width': 409, 'height': 410, 'widthPercent': 0.45, 'rescaleHeight': False, 'trialN': 65, 'loaded': True, 'loadedTime': 12233, 'positionName': 'LEFT', 'positionCoords': [246.68, 179], 'bid': 5.49}, {'imgObject': {}, 'id': 'seaweed', 'src': '/static/foodstim60/seaweed.jpg', 'key': 'i', 'origWidth': 410, 'origHeight': 410, 'width': 410, 'height': 410, 'widthPercent': 0.45, 'rescaleHeight': False, 'trialN': 65, 'loaded': True, 'loadedTime': 12296, 'positionName': 'RIGHT', 'positionCoords': [710.32, 179], 'bid': 7.66}]",55928,1669831881558,baked potato,seaweed,5.49,7.66,2.17,seaweed,96,96,96,True,i,56529,601,1669831882159,601,HRV,HRV_0135,2022-11-30 18:12:57
66,"[{'imgObject': {}, 'id': 'turkey sandwich', 'src': '/static/foodstim60/turkey sandwich.jpg', 'key': 'u', 'origWidth': 409, 'origHeight': 409, 'width': 409, 'height': 409, 'widthPercent': 0.45, 'rescaleHeight': False, 'trialN': 66, 'loaded': True, 'loadedTime': 12202, 'positionName': 'LEFT', 'positionCoords': [246.68, 179.5], 'bid': 7.57}, {'imgObject': {}, 'id': 'granola w milk', 'src': '/static/foodstim60/granola w milk.jpg', 'key': 'i', 'origWidth': 410, 'origHeight': 410, 'width': 410, 'height': 410, 'widthPercent': 0.45, 'rescaleHeight': False, 'trialN': 66, 'loaded': True, 'loadedTime': 12405, 'positionName': 'RIGHT', 'positionCoords': [710.32, 179], 'bid': 7.6}]",56529,1669831882159,turkey sandwich,granola w milk,7.57,7.6,0.02999999999999936,granola w milk,101,101,101,True,i,57144,615,1669831882774,615,HRV,HRV_0135,2022-11-30 18:12:57
67,"[{'imgObject': {}, 'id': 'Grapes', 'src': '/static/foodstim60/Grapes.jpg', 'key': 'u', 'origWidth': 411, 'origHeight': 411, 'width': 411, 'height': 411, 'widthPercent': 0.45, 'rescaleHeight': False, 'trialN': 67, 'loaded': True, 'loadedTime': 12467, 'positionName': 'LEFT', 'positionCoords': [244.68, 178.5], 'bid': 4.86}, {'imgObject': {}, 'id': 'mac & cheese', 'src': '/static/foodstim60/mac & cheese.jpg', 'key': 'i', 'origWidth': 410, 'origHeight': 410, 'width': 410, 'height': 410, 'widthPercent': 0.45, 'rescaleHeight': False, 'trialN': 67, 'loaded': True, 'loadedTime': 12280, 'positionName': 'RIGHT', 'positionCoords': [710.32, 179], 'bid': 5.9}]",57144,1669831882774,Grapes,mac & cheese,4.86,5.9,1.04,mac & cheese,112,112,112,True,i,57767,623,1669831883397,623,HRV,HRV_0135,2022-11-30 18:12:57
68,"[{'imgObject': {}, 'id': 'fruitsalad', 'src': '/static/foodstim60/fruitsalad.jpg', 'key': 'u', 'origWidth': 410, 'origHeight': 410, 'width': 410, 'height': 410, 'widthPercent': 0.45, 'rescaleHeight': False, 'trialN': 68, 'loaded': True, 'loadedTime': 12499, 'positionName': 'LEFT', 'positionCoords': [245.68, 179], 'bid': 3.34}, {'imgObject': {}, 'id': 'Tribe humus pita', 'src': '/static/foodstim60/Tribe humus pita.jpg', 'key': 'i', 'origWidth': 411, 'origHeight': 411, 'width': 411, 'height': 411, 'widthPercent': 0.45, 'rescaleHeight': False, 'trialN': 68, 'loaded': True, 'loadedTime': 12514, 'positionName': 'RIGHT', 'positionCoords': [710.32, 178.5], 'bid': 5.23}]",57767,1669831883397,fruitsalad,Tribe humus pita,3.34,5.23,1.8900000000000006,Tribe humus pita,81,81,81,True,i,58363,596,1669831883993,596,HRV,HRV_0135,2022-11-30 18:12:57
69,"[{'imgObject': {}, 'id': 'fried eggs', 'src': '/static/foodstim60/fried eggs.jpg', 'key': 'u', 'origWidth': 410, 'origHeight': 410, 'width': 410, 'height': 410, 'widthPercent': 0.45, 'rescaleHeight': False, 'trialN': 69, 'loaded': True, 'loadedTime': 12296, 'positionName': 'LEFT', 'positionCoords': [245.68, 179], 'bid': 7.66}, {'imgObject': {}, 'id': 'burrito', 'src': '/static/foodstim60/burrito.jpg', 'key': 'i', 'origWidth': 410, 'origHeight': 410, 'width': 410, 'height': 410, 'widthPercent': 0.45, 'rescaleHeight': False, 'trialN': 69, 'loaded': True, 'loadedTime': 12233, 'positionName': 'RIGHT', 'positionCoords': [710.32, 179], 'bid': 6.87}]",58363,1669831883993,fried eggs,burrito,7.66,6.87,-0.79,fried eggs,14,15,15,True,u,58880,517,1669831884510,517,HRV,HRV_0135,2022-11-30 18:12:57
70,"[{'imgObject': {}, 'id': 'salmon', 'src': '/static/foodstim60/salmon.jpg', 'key': 'u', 'origWidth': 410, 'origHeight': 409, 'width': 410, 'height': 409, 'widthPercent': 0.45, 'rescaleHeight': False, 'trialN': 70, 'loaded': True, 'loadedTime': 11921, 'positionName': 'LEFT', 'positionCoords': [245.68, 179.5], 'bid': 7.86}, {'imgObject': {}, 'id': 'salad w chicken', 'src': '/static/foodstim60/salad w chicken.jpg', 'key': 'i', 'origWidth': 411, 'origHeight': 411, 'width': 411, 'height': 411, 'widthPercent': 0.45, 'rescaleHeight': False, 'trialN': 70, 'loaded': True, 'loadedTime': 11999, 'positionName': 'RIGHT', 'positionCoords': [710.32, 178.5], 'bid': 7.79}]",58880,1669831884510,salmon,salad w chicken,7.86,7.79,-0.07000000000000028,salad w chicken,50,51,51,True,i,59435,555,1669831885065,555,HRV,HRV_0135,2022-11-30 18:12:57
71,"[{'imgObject': {}, 'id': 'popsicles', 'src': '/static/foodstim60/popsicles.jpg', 'key': 'u', 'origWidth': 410, 'origHeight': 410, 'width': 410, 'height': 410, 'widthPercent': 0.45, 'rescaleHeight': False, 'trialN': 71, 'loaded': True, 'loadedTime': 14857, 'positionName': 'LEFT', 'positionCoords': [245.68, 179], 'bid': 5.9}, {'imgObject': {}, 'id': 'roastedpotatoes', 'src': '/static/foodstim60/roastedpotatoes.jpg', 'key': 'i', 'origWidth': 409, 'origHeight': 410, 'width': 409, 'height': 410, 'widthPercent': 0.45, 'rescaleHeight': False, 'trialN': 71, 'loaded': True, 'loadedTime': 12389, 'positionName': 'RIGHT', 'positionCoords': [710.32, 179], 'bid': 6.72}]",59435,1669831885065,popsicles,roastedpotatoes,5.9,6.72,0.8199999999999994,popsicles,166,166,166,True,u,60124,689,1669831885754,689,HRV,HRV_0135,2022-11-30 18:12:57
72,"[{'imgObject': {}, 'id': 'grilled chicken strips', 'src': '/static/foodstim60/grilled chicken strips.jpg', 'key': 'u', 'origWidth': 410, 'origHeight': 411, 'width': 410, 'height': 411, 'widthPercent': 0.45, 'rescaleHeight': False, 'trialN': 72, 'loaded': True, 'loadedTime': 12030, 'positionName': 'LEFT', 'positionCoords': [245.68, 178.5], 'bid': 7.15}, {'imgObject': {}, 'id': 'cherries', 'src': '/static/foodstim60/cherries.jpg', 'key': 'i', 'origWidth': 410, 'origHeight': 411, 'width': 410, 'height': 411, 'widthPercent': 0.45, 'rescaleHeight': False, 'trialN': 72, 'loaded': True, 'loadedTime': 12155, 'positionName': 'RIGHT', 'positionCoords': [710.32, 178.5], 'bid': 6.71}]",60124,1669831885754,grilled chicken strips,cherries,7.15,6.71,-0.4400000000000004,grilled chicken strips,45,45,45,True,u,60681,557,1669831886311,557,HRV,HRV_0135,2022-11-30 18:12:57
73,"[{'imgObject': {}, 'id': 'blueberries', 'src': '/static/foodstim60/blueberries.jpg', 'key': 'u', 'origWidth': 411, 'origHeight': 411, 'width': 411, 'height': 411, 'widthPercent': 0.45, 'rescaleHeight': False, 'trialN': 73, 'loaded': True, 'loadedTime': 12264, 'positionName': 'LEFT', 'positionCoords': [244.68, 178.5], 'bid': 3.98}, {'imgObject': {}, 'id': 'luckycharms', 'src': '/static/foodstim60/luckycharms.jpg', 'key': 'i', 'origWidth': 410, 'origHeight': 409, 'width': 410, 'height': 409, 'widthPercent': 0.45, 'rescaleHeight': False, 'trialN': 73, 'loaded': True, 'loadedTime': 12061, 'positionName': 'RIGHT', 'positionCoords': [710.32, 179.5], 'bid': 5.3500000000000005}]",60681,1669831886311,blueberries,luckycharms,3.98,5.3500000000000005,1.3700000000000006,blueberries,67,68,68,True,u,61249,568,1669831886879,568,HRV,HRV_0135,2022-11-30 18:12:57
74,"[{'imgObject': {}, 'id': 'mashed potato', 'src': '/static/foodstim60/mashed potato.jpg', 'key': 'u', 'origWidth': 409, 'origHeight': 409, 'width': 409, 'height': 409, 'widthPercent': 0.45, 'rescaleHeight': False, 'trialN': 74, 'loaded': True, 'loadedTime': 12327, 'positionName': 'LEFT', 'positionCoords': [246.68, 179.5], 'bid': 2.32}, {'imgObject': {}, 'id': 'rigatoni', 'src': '/static/foodstim60/rigatoni.jpg', 'key': 'i', 'origWidth': 411, 'origHeight': 411, 'width': 411, 'height': 411, 'widthPercent': 0.45, 'rescaleHeight': False, 'trialN': 74, 'loaded': True, 'loadedTime': 12514, 'positionName': 'RIGHT', 'positionCoords': [710.32, 178.5], 'bid': 2.11}]",61249,1669831886879,mashed potato,rigatoni,2.32,2.11,-0.20999999999999996,mashed potato,119,120,120,True,u,61875,626,1669831887505,626,HRV,HRV_0135,2022-11-30 18:12:57
75,"[{'imgObject': {}, 'id': 'roastedpotatoes', 'src': '/static/foodstim60/roastedpotatoes.jpg', 'key': 'u', 'origWidth': 409, 'origHeight': 410, 'width': 409, 'height': 410, 'widthPercent': 0.45, 'rescaleHeight': False, 'trialN': 75, 'loaded': True, 'loadedTime': 12389, 'positionName': 'LEFT', 'positionCoords': [246.68, 179], 'bid': 6.72}, {'imgObject': {}, 'id': 'corn cob', 'src': '/static/foodstim60/corn cob.jpg', 'key': 'i', 'origWidth': 411, 'origHeight': 411, 'width': 411, 'height': 411, 'widthPercent': 0.45, 'rescaleHeight': False, 'trialN': 75, 'loaded': True, 'loadedTime': 12452, 'positionName': 'RIGHT', 'positionCoords': [710.32, 178.5], 'bid': 4.1}]",61875,1669831887505,roastedpotatoes,corn cob,6.72,4.1,-2.62,roastedpotatoes,33,33,33,True,u,62410,535,1669831888040,535,HRV,HRV_0135,2022-11-30 18:12:57
76,"[{'imgObject': {}, 'id': 'burger', 'src': '/static/foodstim60/burger.jpg', 'key': 'u', 'origWidth': 409, 'origHeight': 409, 'width': 409, 'height': 409, 'widthPercent': 0.45, 'rescaleHeight': False, 'trialN': 76, 'loaded': True, 'loadedTime': 12358, 'positionName': 'LEFT', 'positionCoords': [246.68, 179.5], 'bid': 6.63}, {'imgObject': {}, 'id': 'eggs', 'src': '/static/foodstim60/eggs.jpg', 'key': 'i', 'origWidth': 409, 'origHeight': 409, 'width': 409, 'height': 409, 'widthPercent': 0.45, 'rescaleHeight': False, 'trialN': 76, 'loaded': True, 'loadedTime': 12514, 'positionName': 'RIGHT', 'positionCoords': [710.32, 179.5], 'bid': 6.59}]",62410,1669831888040,burger,eggs,6.63,6.59,-0.040000000000000036,burger,118,118,118,True,u,63034,624,1669831888664,624,HRV,HRV_0135,2022-11-30 18:12:57
77,"[{'imgObject': {}, 'id': 'Tribe humus pita', 'src': '/static/foodstim60/Tribe humus pita.jpg', 'key': 'u', 'origWidth': 411, 'origHeight': 411, 'width': 411, 'height': 411, 'widthPercent': 0.45, 'rescaleHeight': False, 'trialN': 77, 'loaded': True, 'loadedTime': 12514, 'positionName': 'LEFT', 'positionCoords': [244.68, 178.5], 'bid': 5.23}, {'imgObject': {}, 'id': 'luckycharms', 'src': '/static/foodstim60/luckycharms.jpg', 'key': 'i', 'origWidth': 410, 'origHeight': 409, 'width': 410, 'height': 409, 'widthPercent': 0.45, 'rescaleHeight': False, 'trialN': 77, 'loaded': True, 'loadedTime': 12124, 'positionName': 'RIGHT', 'positionCoords': [710.32, 179.5], 'bid': 5.3500000000000005}]",63034,1669831888664,Tribe humus pita,luckycharms,5.23,5.3500000000000005,0.1200000000000001,Tribe humus pita,275,276,276,True,u,63818,784,1669831889448,784,HRV,HRV_0135,2022-11-30 18:12:57
78,"[{'imgObject': {}, 'id': 'rigatoni and sauce', 'src': '/static/foodstim60/rigatoni and sauce.jpg', 'key': 'u', 'origWidth': 410, 'origHeight': 411, 'width': 410, 'height': 411, 'widthPercent': 0.45, 'rescaleHeight': False, 'trialN': 78, 'loaded': True, 'loadedTime': 12483, 'positionName': 'LEFT', 'positionCoords': [245.68, 178.5], 'bid': 4.39}, {'imgObject': {}, 'id': 'hashbrowns', 'src': '/static/foodstim60/hashbrowns.jpg', 'key': 'i', 'origWidth': 411, 'origHeight': 410, 'width': 411, 'height': 410, 'widthPercent': 0.45, 'rescaleHeight': False, 'trialN': 78, 'loaded': True, 'loadedTime': 12405, 'positionName': 'RIGHT', 'positionCoords': [710.32, 179], 'bid': 2.62}]",63818,1669831889448,rigatoni and sauce,hashbrowns,4.39,2.62,-1.7699999999999996,rigatoni and sauce,121,121,121,True,u,64441,623,1669831890071,623,HRV,HRV_0135,2022-11-30 18:12:57
79,"[{'imgObject': {}, 'id': 'steak', 'src': '/static/foodstim60/steak.jpg', 'key': 'u', 'origWidth': 410, 'origHeight': 410, 'width': 410, 'height': 410, 'widthPercent': 0.45, 'rescaleHeight': False, 'trialN': 79, 'loaded': True, 'loadedTime': 12186, 'positionName': 'LEFT', 'positionCoords': [245.68, 179], 'bid': 5.2}, {'imgObject': {}, 'id': 'mango', 'src': '/static/foodstim60/mango.jpg', 'key': 'i', 'origWidth': 411, 'origHeight': 411, 'width': 411, 'height': 411, 'widthPercent': 0.45, 'rescaleHeight': False, 'trialN': 79, 'loaded': True, 'loadedTime': 12530, 'positionName': 'RIGHT', 'positionCoords': [710.32, 178.5], 'bid': 5.17}]",64441,1669831890071,steak,mango,5.2,5.17,-0.03000000000000025,mango,88,89,89,True,i,65034,593,1669831890664,593,HRV,HRV_0135,2022-11-30 18:12:57
80,"[{'imgObject': {}, 'id': 'cocktailshrimp', 'src': '/static/foodstim60/cocktailshrimp.jpg', 'key': 'u', 'origWidth': 410, 'origHeight': 410, 'width': 410, 'height': 410, 'widthPercent': 0.45, 'rescaleHeight': False, 'trialN': 80, 'loaded': True, 'loadedTime': 12483, 'positionName': 'LEFT', 'positionCoords': [245.68, 179], 'bid': 1}, {'imgObject': {}, 'id': 'rigatoni', 'src': '/static/foodstim60/rigatoni.jpg', 'key': 'i', 'origWidth': 411, 'origHeight': 411, 'width': 411, 'height': 411, 'widthPercent': 0.45, 'rescaleHeight': False, 'trialN': 80, 'loaded': True, 'loadedTime': 12514, 'positionName': 'RIGHT', 'positionCoords': [710.32, 178.5], 'bid': 2.11}]",65034,1669831890664,cocktailshrimp,rigatoni,1.0,2.11,1.1099999999999999,rigatoni,135,135,135,True,i,65673,639,1669831891303,639,HRV,HRV_0135,2022-11-30 18:12:57
81,"[{'imgObject': {}, 'id': 'Tribe humus pita', 'src': '/static/foodstim60/Tribe humus pita.jpg', 'key': 'u', 'origWidth': 411, 'origHeight': 411, 'width': 411, 'height': 411, 'widthPercent': 0.45, 'rescaleHeight': False, 'trialN': 81, 'loaded': True, 'loadedTime': 12514, 'positionName': 'LEFT', 'positionCoords': [244.68, 178.5], 'bid': 5.23}, {'imgObject': {}, 'id': 'bagel and cc', 'src': '/static/foodstim60/bagel and cc.jpg', 'key': 'i', 'origWidth': 410, 'origHeight': 410, 'width': 410, 'height': 410, 'widthPercent': 0.45, 'rescaleHeight': False, 'trialN': 81, 'loaded': True, 'loadedTime': 11952, 'positionName': 'RIGHT', 'positionCoords': [710.32, 179], 'bid': 5.32}]",65673,1669831891303,Tribe humus pita,bagel and cc,5.23,5.32,0.08999999999999986,Tribe humus pita,106,106,106,True,u,66281,608,1669831891911,608,HRV,HRV_0135,2022-11-30 18:12:57
82,"[{'imgObject': {}, 'id': 'froot loops w milk', 'src': '/static/foodstim60/froot loops w milk.jpg', 'key': 'u', 'origWidth': 410, 'origHeight': 410, 'width': 410, 'height': 410, 'widthPercent': 0.45, 'rescaleHeight': False, 'trialN': 82, 'loaded': True, 'loadedTime': 11967, 'positionName': 'LEFT', 'positionCoords': [245.68, 179], 'bid': 7.37}, {'imgObject': {}, 'id': 'olives', 'src': '/static/foodstim60/olives.jpg', 'key': 'i', 'origWidth': 410, 'origHeight': 410, 'width': 410, 'height': 410, 'widthPercent': 0.45, 'rescaleHeight': False, 'trialN': 82, 'loaded': True, 'loadedTime': 12421, 'positionName': 'RIGHT', 'positionCoords': [710.32, 179], 'bid': 7.4}]",66281,1669831891911,froot loops w milk,olives,7.37,7.4,0.03000000000000025,olives,269,269,269,True,i,67057,776,1669831892687,776,HRV,HRV_0135,2022-11-30 18:12:57
83,"[{'imgObject': {}, 'id': 'burger', 'src': '/static/foodstim60/burger.jpg', 'key': 'u', 'origWidth': 409, 'origHeight': 409, 'width': 409, 'height': 409, 'widthPercent': 0.45, 'rescaleHeight': False, 'trialN': 83, 'loaded': True, 'loadedTime': 12358, 'positionName': 'LEFT', 'positionCoords': [246.68, 179.5], 'bid': 6.63}, {'imgObject': {}, 'id': 'sushi w_condiments', 'src': '/static/foodstim60/sushi w_condiments.jpg', 'key': 'i', 'origWidth': 410, 'origHeight': 410, 'width': 410, 'height': 410, 'widthPercent': 0.45, 'rescaleHeight': False, 'trialN': 83, 'loaded': True, 'loadedTime': 12483, 'positionName': 'RIGHT', 'positionCoords': [710.32, 179], 'bid': 5.6000000000000005}]",67057,1669831892687,burger,sushi w_condiments,6.63,5.6000000000000005,-1.0299999999999994,burger,162,163,163,True,u,67721,664,1669831893351,664,HRV,HRV_0135,2022-11-30 18:12:57
84,"[{'imgObject': {}, 'id': 'cheerios', 'src': '/static/foodstim60/cheerios.jpg', 'key': 'u', 'origWidth': 409, 'origHeight': 410, 'width': 409, 'height': 410, 'widthPercent': 0.45, 'rescaleHeight': False, 'trialN': 84, 'loaded': True, 'loadedTime': 12530, 'positionName': 'LEFT', 'positionCoords': [246.68, 179], 'bid': 7.4}, {'imgObject': {}, 'id': 'sweetpotato', 'src': '/static/foodstim60/sweetpotato.jpg', 'key': 'i', 'origWidth': 410, 'origHeight': 410, 'width': 410, 'height': 410, 'widthPercent': 0.45, 'rescaleHeight': False, 'trialN': 84, 'loaded': True, 'loadedTime': 12452, 'positionName': 'RIGHT', 'positionCoords': [710.32, 179], 'bid': 6.140000000000001}]",67721,1669831893351,cheerios,sweetpotato,7.4,6.140000000000001,-1.2599999999999998,cheerios,308,309,309,True,u,68531,810,1669831894161,810,HRV,HRV_0135,2022-11-30 18:12:57
85,"[{'imgObject': {}, 'id': 'raisin bran w milk', 'src': '/static/foodstim60/raisin bran w milk.jpg', 'key': 'u', 'origWidth': 411, 'origHeight': 411, 'width': 411, 'height': 411, 'widthPercent': 0.45, 'rescaleHeight': False, 'trialN': 85, 'loaded': True, 'loadedTime': 12014, 'positionName': 'LEFT', 'positionCoords': [244.68, 178.5], 'bid': 6.3100000000000005}, {'imgObject': {}, 'id': 'banana', 'src': '/static/foodstim60/banana.jpg', 'key': 'i', 'origWidth': 410, 'origHeight': 410, 'width': 410, 'height': 410, 'widthPercent': 0.45, 'rescaleHeight': False, 'trialN': 85, 'loaded': True, 'loadedTime': 12061, 'positionName': 'RIGHT', 'positionCoords': [710.32, 179], 'bid': 6.18}]",68531,1669831894161,raisin bran w milk,banana,6.3100000000000005,6.18,-0.13000000000000078,raisin bran w milk,65,65,65,True,u,69112,581,1669831894742,581,HRV,HRV_0135,2022-11-30 18:12:57
86,"[{'imgObject': {}, 'id': 'eggsalad', 'src': '/static/foodstim60/eggsalad.jpg', 'key': 'u', 'origWidth': 410, 'origHeight': 409, 'width': 410, 'height': 409, 'widthPercent': 0.45, 'rescaleHeight': False, 'trialN': 86, 'loaded': True, 'loadedTime': 12530, 'positionName': 'LEFT', 'positionCoords': [245.68, 179.5], 'bid': 7.29}, {'imgObject': {}, 'id': 'froot loops w milk', 'src': '/static/foodstim60/froot loops w milk.jpg', 'key': 'i', 'origWidth': 410, 'origHeight': 410, 'width': 410, 'height': 410, 'widthPercent': 0.45, 'rescaleHeight': False, 'trialN': 86, 'loaded': True, 'loadedTime': 11967, 'positionName': 'RIGHT', 'positionCoords': [710.32, 179], 'bid': 7.37}]",69112,1669831894742,eggsalad,froot loops w milk,7.29,7.37,0.08000000000000007,eggsalad,250,250,250,True,u,69880,768,1669831895510,768,HRV,HRV_0135,2022-11-30 18:12:57
87,"[{'imgObject': {}, 'id': 'blueberries', 'src': '/static/foodstim60/blueberries.jpg', 'key': 'u', 'origWidth': 411, 'origHeight': 411, 'width': 411, 'height': 411, 'widthPercent': 0.45, 'rescaleHeight': False, 'trialN': 87, 'loaded': True, 'loadedTime': 12264, 'positionName': 'LEFT', 'positionCoords': [244.68, 178.5], 'bid': 3.98}, {'imgObject': {}, 'id': 'raspberries', 'src': '/static/foodstim60/raspberries.jpg', 'key': 'i', 'origWidth': 411, 'origHeight': 411, 'width': 411, 'height': 411, 'widthPercent': 0.45, 'rescaleHeight': False, 'trialN': 87, 'loaded': True, 'loadedTime': 12124, 'positionName': 'RIGHT', 'positionCoords': [710.32, 178.5], 'bid': 3.79}]",69880,1669831895510,blueberries,raspberries,3.98,3.79,-0.18999999999999995,blueberries,120,120,120,True,u,70510,630,1669831896140,630,HRV,HRV_0135,2022-11-30 18:12:57
88,"[{'imgObject': {}, 'id': 'salmon', 'src': '/static/foodstim60/salmon.jpg', 'key': 'u', 'origWidth': 410, 'origHeight': 409, 'width': 410, 'height': 409, 'widthPercent': 0.45, 'rescaleHeight': False, 'trialN': 88, 'loaded': True, 'loadedTime': 11921, 'positionName': 'LEFT', 'positionCoords': [245.68, 179.5], 'bid': 7.86}, {'imgObject': {}, 'id': 'orange slices', 'src': '/static/foodstim60/orange slices.jpg', 'key': 'i', 'origWidth': 409, 'origHeight': 410, 'width': 409, 'height': 410, 'widthPercent': 0.45, 'rescaleHeight': False, 'trialN': 88, 'loaded': True, 'loadedTime': 12014, 'positionName': 'RIGHT', 'positionCoords': [710.32, 179], 'bid': 7.53}]",70511,1669831896141,salmon,orange slices,7.86,7.53,-0.33000000000000007,salmon,159,159,159,True,u,71179,668,1669831896809,668,HRV,HRV_0135,2022-11-30 18:12:57
89,"[{'imgObject': {}, 'id': 'chicken nuggets2', 'src': '/static/foodstim60/chicken nuggets2.jpg', 'key': 'u', 'origWidth': 410, 'origHeight': 409, 'width': 410, 'height': 409, 'widthPercent': 0.45, 'rescaleHeight': False, 'trialN': 89, 'loaded': True, 'loadedTime': 12342, 'positionName': 'LEFT', 'positionCoords': [245.68, 179.5], 'bid': 6.94}, {'imgObject': {}, 'id': 'yogurt no spoon', 'src': '/static/foodstim60/yogurt no spoon.jpg', 'key': 'i', 'origWidth': 411, 'origHeight': 410, 'width': 411, 'height': 410, 'widthPercent': 0.45, 'rescaleHeight': False, 'trialN': 89, 'loaded': True, 'loadedTime': 12530, 'positionName': 'RIGHT', 'positionCoords': [710.32, 179], 'bid': 4.53}]",71179,1669831896809,chicken nuggets2,yogurt no spoon,6.94,4.53,-2.41,yogurt no spoon,159,159,159,True,i,71845,666,1669831897475,666,HRV,HRV_0135,2022-11-30 18:12:57
90,"[{'imgObject': {}, 'id': 'pear', 'src': '/static/foodstim60/pear.jpg', 'key': 'u', 'origWidth': 411, 'origHeight': 410, 'width': 411, 'height': 410, 'widthPercent': 0.45, 'rescaleHeight': False, 'trialN': 90, 'loaded': True, 'loadedTime': 12389, 'positionName': 'LEFT', 'positionCoords': [244.68, 179], 'bid': 7.6}, {'imgObject': {}, 'id': 'salmon', 'src': '/static/foodstim60/salmon.jpg', 'key': 'i', 'origWidth': 410, 'origHeight': 409, 'width': 410, 'height': 409, 'widthPercent': 0.45, 'rescaleHeight': False, 'trialN': 90, 'loaded': True, 'loadedTime': 11921, 'positionName': 'RIGHT', 'positionCoords': [710.32, 179.5], 'bid': 7.86}]",84858,1669831910488,pear,salmon,7.6,7.86,0.2600000000000007,salmon,1081,1082,1082,True,i,86441,1583,1669831912071,1583,HRV,HRV_0135,2022-11-30 18:12:57
91,"[{'imgObject': {}, 'id': 'strawberries', 'src': '/static/foodstim60/strawberries.jpg', 'key': 'u', 'origWidth': 410, 'origHeight': 410, 'width': 410, 'height': 410, 'widthPercent': 0.45, 'rescaleHeight': False, 'trialN': 91, 'loaded': True, 'loadedTime': 11967, 'positionName': 'LEFT', 'positionCoords': [245.68, 179], 'bid': 6.09}, {'imgObject': {}, 'id': 'sweetpotato', 'src': '/static/foodstim60/sweetpotato.jpg', 'key': 'i', 'origWidth': 410, 'origHeight': 410, 'width': 410, 'height': 410, 'widthPercent': 0.45, 'rescaleHeight': False, 'trialN': 91, 'loaded': True, 'loadedTime': 12452, 'positionName': 'RIGHT', 'positionCoords': [710.32, 179], 'bid': 6.140000000000001}]",86441,1669831912071,strawberries,sweetpotato,6.09,6.140000000000001,0.05000000000000071,strawberries,127,128,128,True,u,87074,633,1669831912704,633,HRV,HRV_0135,2022-11-30 18:12:57
92,"[{'imgObject': {}, 'id': 'turkey sandwich', 'src': '/static/foodstim60/turkey sandwich.jpg', 'key': 'u', 'origWidth': 409, 'origHeight': 409, 'width': 409, 'height': 409, 'widthPercent': 0.45, 'rescaleHeight': False, 'trialN': 92, 'loaded': True, 'loadedTime': 12202, 'positionName': 'LEFT', 'positionCoords': [246.68, 179.5], 'bid': 7.57}, {'imgObject': {}, 'id': 'orange slices', 'src': '/static/foodstim60/orange slices.jpg', 'key': 'i', 'origWidth': 409, 'origHeight': 410, 'width': 409, 'height': 410, 'widthPercent': 0.45, 'rescaleHeight': False, 'trialN': 92, 'loaded': True, 'loadedTime': 11999, 'positionName': 'RIGHT', 'positionCoords': [710.32, 179], 'bid': 7.53}]",87074,1669831912704,turkey sandwich,orange slices,7.57,7.53,-0.040000000000000036,turkey sandwich,45,45,45,True,u,87626,552,1669831913256,552,HRV,HRV_0135,2022-11-30 18:12:57
93,"[{'imgObject': {}, 'id': 'raisin bran w milk', 'src': '/static/foodstim60/raisin bran w milk.jpg', 'key': 'u', 'origWidth': 411, 'origHeight': 411, 'width': 411, 'height': 411, 'widthPercent': 0.45, 'rescaleHeight': False, 'trialN': 93, 'loaded': True, 'loadedTime': 12030, 'positionName': 'LEFT', 'positionCoords': [244.68, 178.5], 'bid': 6.3100000000000005}, {'imgObject': {}, 'id': 'tacos', 'src': '/static/foodstim60/tacos.jpg', 'key': 'i', 'origWidth': 411, 'origHeight': 411, 'width': 411, 'height': 411, 'widthPercent': 0.45, 'rescaleHeight': False, 'trialN': 93, 'loaded': True, 'loadedTime': 11936, 'positionName': 'RIGHT', 'positionCoords': [710.32, 178.5], 'bid': 5.46}]",87626,1669831913256,raisin bran w milk,tacos,6.3100000000000005,5.46,-0.8500000000000005,raisin bran w milk,83,84,84,True,u,88218,592,1669831913848,592,HRV,HRV_0135,2022-11-30 18:12:57
94,"[{'imgObject': {}, 'id': 'cheerios', 'src': '/static/foodstim60/cheerios.jpg', 'key': 'u', 'origWidth': 409, 'origHeight': 410, 'width': 409, 'height': 410, 'widthPercent': 0.45, 'rescaleHeight': False, 'trialN': 94, 'loaded': True, 'loadedTime': 12530, 'positionName': 'LEFT', 'positionCoords': [246.68, 179], 'bid': 7.4}, {'imgObject': {}, 'id': 'edamame', 'src': '/static/foodstim60/edamame.jpg', 'key': 'i', 'origWidth': 409, 'origHeight': 410, 'width': 409, 'height': 410, 'widthPercent': 0.45, 'rescaleHeight': False, 'trialN': 94, 'loaded': True, 'loadedTime': 12139, 'positionName': 'RIGHT', 'positionCoords': [710.32, 179], 'bid': 4.92}]",88218,1669831913848,cheerios,edamame,7.4,4.92,-2.4800000000000004,cheerios,70,70,70,True,u,88793,575,1669831914423,575,HRV,HRV_0135,2022-11-30 18:12:57
95,"[{'imgObject': {}, 'id': 'mac & cheese', 'src': '/static/foodstim60/mac & cheese.jpg', 'key': 'u', 'origWidth': 410, 'origHeight': 410, 'width': 410, 'height': 410, 'widthPercent': 0.45, 'rescaleHeight': False, 'trialN': 95, 'loaded': True, 'loadedTime': 12280, 'positionName': 'LEFT', 'positionCoords': [245.68, 179], 'bid': 5.9}, {'imgObject': {}, 'id': 'burger', 'src': '/static/foodstim60/burger.jpg', 'key': 'i', 'origWidth': 409, 'origHeight': 409, 'width': 409, 'height': 409, 'widthPercent': 0.45, 'rescaleHeight': False, 'trialN': 95, 'loaded': True, 'loadedTime': 12358, 'positionName': 'RIGHT', 'positionCoords': [710.32, 179.5], 'bid': 6.63}]",88793,1669831914423,mac & cheese,burger,5.9,6.63,0.7299999999999995,mac & cheese,115,116,116,True,u,89409,616,1669831915039,616,HRV,HRV_0135,2022-11-30 18:12:57
96,"[{'imgObject': {}, 'id': 'popsicles', 'src': '/static/foodstim60/popsicles.jpg', 'key': 'u', 'origWidth': 410, 'origHeight': 410, 'width': 410, 'height': 410, 'widthPercent': 0.45, 'rescaleHeight': False, 'trialN': 96, 'loaded': True, 'loadedTime': 14857, 'positionName': 'LEFT', 'positionCoords': [245.68, 179], 'bid': 5.9}, {'imgObject': {}, 'id': 'mac & cheese', 'src': '/static/foodstim60/mac & cheese.jpg', 'key': 'i', 'origWidth': 410, 'origHeight': 410, 'width': 410, 'height': 410, 'widthPercent': 0.45, 'rescaleHeight': False, 'trialN': 96, 'loaded': True, 'loadedTime': 12280, 'positionName': 'RIGHT', 'positionCoords': [710.32, 179], 'bid': 5.9}]",89409,1669831915039,popsicles,mac & cheese,5.9,5.9,0.0,popsicles,79,80,80,True,u,89993,584,1669831915623,584,HRV,HRV_0135,2022-11-30 18:12:57
97,"[{'imgObject': {}, 'id': 'cheerios', 'src': '/static/foodstim60/cheerios.jpg', 'key': 'u', 'origWidth': 409, 'origHeight': 410, 'width': 409, 'height': 410, 'widthPercent': 0.45, 'rescaleHeight': False, 'trialN': 97, 'loaded': True, 'loadedTime': 12530, 'positionName': 'LEFT', 'positionCoords': [246.68, 179], 'bid': 7.4}, {'imgObject': {}, 'id': 'salad w chicken', 'src': '/static/foodstim60/salad w chicken.jpg', 'key': 'i', 'origWidth': 411, 'origHeight': 411, 'width': 411, 'height': 411, 'widthPercent': 0.45, 'rescaleHeight': False, 'trialN': 97, 'loaded': True, 'loadedTime': 11983, 'positionName': 'RIGHT', 'positionCoords': [710.32, 178.5], 'bid': 7.79}]",89993,1669831915623,cheerios,salad w chicken,7.4,7.79,0.3899999999999997,cheerios,57,58,58,True,u,90556,563,1669831916186,563,HRV,HRV_0135,2022-11-30 18:12:57
98,"[{'imgObject': {}, 'id': 'hotdog w must', 'src': '/static/foodstim60/hotdog w must.jpg', 'key': 'u', 'origWidth': 409, 'origHeight': 409, 'width': 409, 'height': 409, 'widthPercent': 0.45, 'rescaleHeight': False, 'trialN': 98, 'loaded': True, 'loadedTime': 12389, 'positionName': 'LEFT', 'positionCoords': [246.68, 179.5], 'bid': 7.65}, {'imgObject': {}, 'id': 'fried eggs', 'src': '/static/foodstim60/fried eggs.jpg', 'key': 'i', 'origWidth': 410, 'origHeight': 410, 'width': 410, 'height': 410, 'widthPercent': 0.45, 'rescaleHeight': False, 'trialN': 98, 'loaded': True, 'loadedTime': 12296, 'positionName': 'RIGHT', 'positionCoords': [710.32, 179], 'bid': 7.66}]",90556,1669831916186,hotdog w must,fried eggs,7.65,7.66,0.009999999999999787,hotdog w must,112,112,112,True,u,91179,623,1669831916809,623,HRV,HRV_0135,2022-11-30 18:12:57
99,"[{'imgObject': {}, 'id': 'corn cob', 'src': '/static/foodstim60/corn cob.jpg', 'key': 'u', 'origWidth': 411, 'origHeight': 411, 'width': 411, 'height': 411, 'widthPercent': 0.45, 'rescaleHeight': False, 'trialN': 99, 'loaded': True, 'loadedTime': 12467, 'positionName': 'LEFT', 'positionCoords': [244.68, 178.5], 'bid': 4.1}, {'imgObject': {}, 'id': 'rigatoni', 'src': '/static/foodstim60/rigatoni.jpg', 'key': 'i', 'origWidth': 411, 'origHeight': 411, 'width': 411, 'height': 411, 'widthPercent': 0.45, 'rescaleHeight': False, 'trialN': 99, 'loaded': True, 'loadedTime': 12514, 'positionName': 'RIGHT', 'positionCoords': [710.32, 178.5], 'bid': 2.11}]",91179,1669831916809,corn cob,rigatoni,4.1,2.11,-1.9899999999999998,corn cob,108,108,108,True,u,91795,616,1669831917425,616,HRV,HRV_0135,2022-11-30 18:12:57
100,"[{'imgObject': {}, 'id': 'seaweed', 'src': '/static/foodstim60/seaweed.jpg', 'key': 'u', 'origWidth': 410, 'origHeight': 410, 'width': 410, 'height': 410, 'widthPercent': 0.45, 'rescaleHeight': False, 'trialN': 100, 'loaded': True, 'loadedTime': 12296, 'positionName': 'LEFT', 'positionCoords': [245.68, 179], 'bid': 7.66}, {'imgObject': {}, 'id': 'eggsalad', 'src': '/static/foodstim60/eggsalad.jpg', 'key': 'i', 'origWidth': 410, 'origHeight': 409, 'width': 410, 'height': 409, 'widthPercent': 0.45, 'rescaleHeight': False, 'trialN': 100, 'loaded': True, 'loadedTime': 12530, 'positionName': 'RIGHT', 'positionCoords': [710.32, 179.5], 'bid': 7.29}]",91795,1669831917425,seaweed,eggsalad,7.66,7.29,-0.3700000000000001,eggsalad,63,63,63,True,i,92364,569,1669831917994,569,HRV,HRV_0135,2022-11-30 18:12:57
101,"[{'imgObject': {}, 'id': 'grilled chicken strips', 'src': '/static/foodstim60/grilled chicken strips.jpg', 'key': 'u', 'origWidth': 410, 'origHeight': 411, 'width': 410, 'height': 411, 'widthPercent': 0.45, 'rescaleHeight': False, 'trialN': 101, 'loaded': True, 'loadedTime': 12030, 'positionName': 'LEFT', 'positionCoords': [245.68, 178.5], 'bid': 7.15}, {'imgObject': {}, 'id': 'salmon', 'src': '/static/foodstim60/salmon.jpg', 'key': 'i', 'origWidth': 410, 'origHeight': 409, 'width': 410, 'height': 409, 'widthPercent': 0.45, 'rescaleHeight': False, 'trialN': 101, 'loaded': True, 'loadedTime': 11921, 'positionName': 'RIGHT', 'positionCoords': [710.32, 179.5], 'bid': 7.86}]",92364,1669831917994,grilled chicken strips,salmon,7.15,7.86,0.71,grilled chicken strips,15,15,15,True,u,92894,530,1669831918524,530,HRV,HRV_0135,2022-11-30 18:12:57
102,"[{'imgObject': {}, 'id': 'popsicles', 'src': '/static/foodstim60/popsicles.jpg', 'key': 'u', 'origWidth': 410, 'origHeight': 410, 'width': 410, 'height': 410, 'widthPercent': 0.45, 'rescaleHeight': False, 'trialN': 102, 'loaded': True, 'loadedTime': 14857, 'positionName': 'LEFT', 'positionCoords': [245.68, 179], 'bid': 5.9}, {'imgObject': {}, 'id': 'eggs', 'src': '/static/foodstim60/eggs.jpg', 'key': 'i', 'origWidth': 409, 'origHeight': 409, 'width': 409, 'height': 409, 'widthPercent': 0.45, 'rescaleHeight': False, 'trialN': 102, 'loaded': True, 'loadedTime': 12514, 'positionName': 'RIGHT', 'positionCoords': [710.32, 179.5], 'bid': 6.59}]",92894,1669831918524,popsicles,eggs,5.9,6.59,0.6899999999999995,popsicles,110,110,110,True,u,93510,616,1669831919140,616,HRV,HRV_0135,2022-11-30 18:12:57
103,"[{'imgObject': {}, 'id': 'olives', 'src': '/static/foodstim60/olives.jpg', 'key': 'u', 'origWidth': 410, 'origHeight': 410, 'width': 410, 'height': 410, 'widthPercent': 0.45, 'rescaleHeight': False, 'trialN': 103, 'loaded': True, 'loadedTime': 12421, 'positionName': 'LEFT', 'positionCoords': [245.68, 179], 'bid': 7.4}, {'imgObject': {}, 'id': 'banana', 'src': '/static/foodstim60/banana.jpg', 'key': 'i', 'origWidth': 410, 'origHeight': 410, 'width': 410, 'height': 410, 'widthPercent': 0.45, 'rescaleHeight': False, 'trialN': 103, 'loaded': True, 'loadedTime': 12061, 'positionName': 'RIGHT', 'positionCoords': [710.32, 179], 'bid': 6.18}]",93510,1669831919140,olives,banana,7.4,6.18,-1.2200000000000006,banana,95,95,95,True,i,94105,595,1669831919735,595,HRV,HRV_0135,2022-11-30 18:12:57
104,"[{'imgObject': {}, 'id': 'shreddedwheatwithmilk', 'src': '/static/foodstim60/shreddedwheatwithmilk.jpg', 'key': 'u', 'origWidth': 410, 'origHeight': 410, 'width': 410, 'height': 410, 'widthPercent': 0.45, 'rescaleHeight': False, 'trialN': 104, 'loaded': True, 'loadedTime': 12452, 'positionName': 'LEFT', 'positionCoords': [245.68, 179], 'bid': 4.91}, {'imgObject': {}, 'id': 'chickenfingers', 'src': '/static/foodstim60/chickenfingers.jpg', 'key': 'i', 'origWidth': 410, 'origHeight': 410, 'width': 410, 'height': 410, 'widthPercent': 0.45, 'rescaleHeight': False, 'trialN': 104, 'loaded': True, 'loadedTime': 12046, 'positionName': 'RIGHT', 'positionCoords': [710.32, 179], 'bid': 4.64}]",94105,1669831919735,shreddedwheatwithmilk,chickenfingers,4.91,4.64,-0.27000000000000046,chickenfingers,209,209,209,True,i,94827,722,1669831920457,722,HRV,HRV_0135,2022-11-30 18:12:57
105,"[{'imgObject': {}, 'id': 'burger', 'src': '/static/foodstim60/burger.jpg', 'key': 'u', 'origWidth': 409, 'origHeight': 409, 'width': 409, 'height': 409, 'widthPercent': 0.45, 'rescaleHeight': False, 'trialN': 105, 'loaded': True, 'loadedTime': 12358, 'positionName': 'LEFT', 'positionCoords': [246.68, 179.5], 'bid': 6.63}, {'imgObject': {}, 'id': 'ice cream sundae 002', 'src': '/static/foodstim60/ice cream sundae 002.jpg', 'key': 'i', 'origWidth': 409, 'origHeight': 409, 'width': 409, 'height': 409, 'widthPercent': 0.45, 'rescaleHeight': False, 'trialN': 105, 'loaded': True, 'loadedTime': 12249, 'positionName': 'RIGHT', 'positionCoords': [710.32, 179.5], 'bid': 7.59}]",94827,1669831920457,burger,ice cream sundae 002,6.63,7.59,0.96,ice cream sundae 002,142,142,142,True,i,95474,647,1669831921104,647,HRV,HRV_0135,2022-11-30 18:12:57
106,"[{'imgObject': {}, 'id': 'kiwi', 'src': '/static/foodstim60/kiwi.jpg', 'key': 'u', 'origWidth': 410, 'origHeight': 410, 'width': 410, 'height': 410, 'widthPercent': 0.45, 'rescaleHeight': False, 'trialN': 106, 'loaded': True, 'loadedTime': 12327, 'positionName': 'LEFT', 'positionCoords': [245.68, 179], 'bid': 4.42}, {'imgObject': {}, 'id': 'rigatoni and sauce', 'src': '/static/foodstim60/rigatoni and sauce.jpg', 'key': 'i', 'origWidth': 410, 'origHeight': 411, 'width': 410, 'height': 411, 'widthPercent': 0.45, 'rescaleHeight': False, 'trialN': 106, 'loaded': True, 'loadedTime': 12483, 'positionName': 'RIGHT', 'positionCoords': [710.32, 178.5], 'bid': 4.39}]",95474,1669831921104,kiwi,rigatoni and sauce,4.42,4.39,-0.03000000000000025,rigatoni and sauce,74,75,75,True,i,96049,575,1669831921679,575,HRV,HRV_0135,2022-11-30 18:12:57
107,"[{'imgObject': {}, 'id': 'bagel and cc', 'src': '/static/foodstim60/bagel and cc.jpg', 'key': 'u', 'origWidth': 410, 'origHeight': 410, 'width': 410, 'height': 410, 'widthPercent': 0.45, 'rescaleHeight': False, 'trialN': 107, 'loaded': True, 'loadedTime': 11936, 'positionName': 'LEFT', 'positionCoords': [245.68, 179], 'bid': 5.32}, {'imgObject': {}, 'id': 'shreddedwheatwithmilk', 'src': '/static/foodstim60/shreddedwheatwithmilk.jpg', 'key': 'i', 'origWidth': 410, 'origHeight': 410, 'width': 410, 'height': 410, 'widthPercent': 0.45, 'rescaleHeight': False, 'trialN': 107, 'loaded': True, 'loadedTime': 12436, 'positionName': 'RIGHT', 'positionCoords': [710.32, 179], 'bid': 4.91}]",96049,1669831921679,bagel and cc,shreddedwheatwithmilk,5.32,4.91,-0.41000000000000014,bagel and cc,340,342,341,True,u,96898,849,1669831922528,849,HRV,HRV_0135,2022-11-30 18:12:57
108,"[{'imgObject': {}, 'id': 'avocado', 'src': '/static/foodstim60/avocado.jpg', 'key': 'u', 'origWidth': 409, 'origHeight': 409, 'width': 409, 'height': 409, 'widthPercent': 0.45, 'rescaleHeight': False, 'trialN': 108, 'loaded': True, 'loadedTime': 12280, 'positionName': 'LEFT', 'positionCoords': [246.68, 179.5], 'bid': 5.01}, {'imgObject': {}, 'id': 'edamame', 'src': '/static/foodstim60/edamame.jpg', 'key': 'i', 'origWidth': 409, 'origHeight': 410, 'width': 409, 'height': 410, 'widthPercent': 0.45, 'rescaleHeight': False, 'trialN': 108, 'loaded': True, 'loadedTime': 12139, 'positionName': 'RIGHT', 'positionCoords': [710.32, 179], 'bid': 4.92}]",96898,1669831922528,avocado,edamame,5.01,4.92,-0.08999999999999986,avocado,502,503,503,True,u,97906,1008,1669831923536,1008,HRV,HRV_0135,2022-11-30 18:12:57
109,"[{'imgObject': {}, 'id': 'fruitsalad', 'src': '/static/foodstim60/fruitsalad.jpg', 'key': 'u', 'origWidth': 410, 'origHeight': 410, 'width': 410, 'height': 410, 'widthPercent': 0.45, 'rescaleHeight': False, 'trialN': 109, 'loaded': True, 'loadedTime': 12514, 'positionName': 'LEFT', 'positionCoords': [245.68, 179], 'bid': 3.34}, {'imgObject': {}, 'id': 'shreddedwheatwithmilk', 'src': '/static/foodstim60/shreddedwheatwithmilk.jpg', 'key': 'i', 'origWidth': 410, 'origHeight': 410, 'width': 410, 'height': 410, 'widthPercent': 0.45, 'rescaleHeight': False, 'trialN': 109, 'loaded': True, 'loadedTime': 12421, 'positionName': 'RIGHT', 'positionCoords': [710.32, 179], 'bid': 4.91}]",97906,1669831923536,fruitsalad,shreddedwheatwithmilk,3.34,4.91,1.5700000000000003,fruitsalad,1063,1064,1064,True,u,99498,1592,1669831925128,1592,HRV,HRV_0135,2022-11-30 18:12:57
110,"[{'imgObject': {}, 'id': 'rigatoni', 'src': '/static/foodstim60/rigatoni.jpg', 'key': 'u', 'origWidth': 411, 'origHeight': 411, 'width': 411, 'height': 411, 'widthPercent': 0.45, 'rescaleHeight': False, 'trialN': 110, 'loaded': True, 'loadedTime': 12514, 'positionName': 'LEFT', 'positionCoords': [244.68, 178.5], 'bid': 2.11}, {'imgObject': {}, 'id': 'yogurt no spoon', 'src': '/static/foodstim60/yogurt no spoon.jpg', 'key': 'i', 'origWidth': 411, 'origHeight': 410, 'width': 411, 'height': 410, 'widthPercent': 0.45, 'rescaleHeight': False, 'trialN': 110, 'loaded': True, 'loadedTime': 12530, 'positionName': 'RIGHT', 'positionCoords': [710.32, 179], 'bid': 4.53}]",99498,1669831925128,rigatoni,yogurt no spoon,2.11,4.53,2.4200000000000004,yogurt no spoon,261,262,262,True,i,100265,767,1669831925895,767,HRV,HRV_0135,2022-11-30 18:12:57
111,"[{'imgObject': {}, 'id': 'grilled chicken strips', 'src': '/static/foodstim60/grilled chicken strips.jpg', 'key': 'u', 'origWidth': 410, 'origHeight': 411, 'width': 410, 'height': 411, 'widthPercent': 0.45, 'rescaleHeight': False, 'trialN': 111, 'loaded': True, 'loadedTime': 12030, 'positionName': 'LEFT', 'positionCoords': [245.68, 178.5], 'bid': 7.15}, {'imgObject': {}, 'id': 'hotdog w must', 'src': '/static/foodstim60/hotdog w must.jpg', 'key': 'i', 'origWidth': 409, 'origHeight': 409, 'width': 409, 'height': 409, 'widthPercent': 0.45, 'rescaleHeight': False, 'trialN': 111, 'loaded': True, 'loadedTime': 12389, 'positionName': 'RIGHT', 'positionCoords': [710.32, 179.5], 'bid': 7.65}]",100265,1669831925895,grilled chicken strips,hotdog w must,7.15,7.65,0.5,grilled chicken strips,194,195,195,True,u,100962,697,1669831926592,697,HRV,HRV_0135,2022-11-30 18:12:57
112,"[{'imgObject': {}, 'id': 'cantaloupe', 'src': '/static/foodstim60/cantaloupe.jpg', 'key': 'u', 'origWidth': 409, 'origHeight': 409, 'width': 409, 'height': 409, 'widthPercent': 0.45, 'rescaleHeight': False, 'trialN': 112, 'loaded': True, 'loadedTime': 12218, 'positionName': 'LEFT', 'positionCoords': [246.68, 179.5], 'bid': 6.66}, {'imgObject': {}, 'id': 'chicken nuggets2', 'src': '/static/foodstim60/chicken nuggets2.jpg', 'key': 'i', 'origWidth': 410, 'origHeight': 409, 'width': 410, 'height': 409, 'widthPercent': 0.45, 'rescaleHeight': False, 'trialN': 112, 'loaded': True, 'loadedTime': 12342, 'positionName': 'RIGHT', 'positionCoords': [710.32, 179.5], 'bid': 6.94}]",100962,1669831926592,cantaloupe,chicken nuggets2,6.66,6.94,0.28000000000000025,cantaloupe,1758,1759,1759,True,u,103226,2264,1669831928856,2264,HRV,HRV_0135,2022-11-30 18:12:57
113,"[{'imgObject': {}, 'id': 'seaweed', 'src': '/static/foodstim60/seaweed.jpg', 'key': 'u', 'origWidth': 410, 'origHeight': 410, 'width': 410, 'height': 410, 'widthPercent': 0.45, 'rescaleHeight': False, 'trialN': 113, 'loaded': True, 'loadedTime': 12296, 'positionName': 'LEFT', 'positionCoords': [245.68, 179], 'bid': 7.66}, {'imgObject': {}, 'id': 'orange slices', 'src': '/static/foodstim60/orange slices.jpg', 'key': 'i', 'origWidth': 409, 'origHeight': 410, 'width': 409, 'height': 410, 'widthPercent': 0.45, 'rescaleHeight': False, 'trialN': 113, 'loaded': True, 'loadedTime': 12014, 'positionName': 'RIGHT', 'positionCoords': [710.32, 179], 'bid': 7.53}]",103226,1669831928856,seaweed,orange slices,7.66,7.53,-0.1299999999999999,seaweed,94,94,94,True,u,103826,600,1669831929456,600,HRV,HRV_0135,2022-11-30 18:12:57
114,"[{'imgObject': {}, 'id': 'blueberries', 'src': '/static/foodstim60/blueberries.jpg', 'key': 'u', 'origWidth': 411, 'origHeight': 411, 'width': 411, 'height': 411, 'widthPercent': 0.45, 'rescaleHeight': False, 'trialN': 114, 'loaded': True, 'loadedTime': 12264, 'positionName': 'LEFT', 'positionCoords': [244.68, 178.5], 'bid': 3.98}, {'imgObject': {}, 'id': 'fruitsalad', 'src': '/static/foodstim60/fruitsalad.jpg', 'key': 'i', 'origWidth': 410, 'origHeight': 410, 'width': 410, 'height': 410, 'widthPercent': 0.45, 'rescaleHeight': False, 'trialN': 114, 'loaded': True, 'loadedTime': 12514, 'positionName': 'RIGHT', 'positionCoords': [710.32, 179], 'bid': 3.34}]",103826,1669831929456,blueberries,fruitsalad,3.98,3.34,-0.6400000000000001,fruitsalad,124,124,124,True,i,104463,637,1669831930093,637,HRV,HRV_0135,2022-11-30 18:12:57
115,"[{'imgObject': {}, 'id': 'fruitsalad', 'src': '/static/foodstim60/fruitsalad.jpg', 'key': 'u', 'origWidth': 410, 'origHeight': 410, 'width': 410, 'height': 410, 'widthPercent': 0.45, 'rescaleHeight': False, 'trialN': 115, 'loaded': True, 'loadedTime': 12514, 'positionName': 'LEFT', 'positionCoords': [245.68, 179], 'bid': 3.34}, {'imgObject': {}, 'id': 'burger', 'src': '/static/foodstim60/burger.jpg', 'key': 'i', 'origWidth': 409, 'origHeight': 409, 'width': 409, 'height': 409, 'widthPercent': 0.45, 'rescaleHeight': False, 'trialN': 115, 'loaded': True, 'loadedTime': 12358, 'positionName': 'RIGHT', 'positionCoords': [710.32, 179.5], 'bid': 6.63}]",104463,1669831930093,fruitsalad,burger,3.34,6.63,3.29,burger,154,154,154,True,i,105126,663,1669831930756,663,HRV,HRV_0135,2022-11-30 18:12:57
116,"[{'imgObject': {}, 'id': 'sushi w_condiments', 'src': '/static/foodstim60/sushi w_condiments.jpg', 'key': 'u', 'origWidth': 410, 'origHeight': 410, 'width': 410, 'height': 410, 'widthPercent': 0.45, 'rescaleHeight': False, 'trialN': 116, 'loaded': True, 'loadedTime': 12483, 'positionName': 'LEFT', 'positionCoords': [245.68, 179], 'bid': 5.6000000000000005}, {'imgObject': {}, 'id': 'veggieswithdip', 'src': '/static/foodstim60/veggieswithdip.jpg', 'key': 'i', 'origWidth': 409, 'origHeight': 409, 'width': 409, 'height': 409, 'widthPercent': 0.45, 'rescaleHeight': False, 'trialN': 116, 'loaded': True, 'loadedTime': 12342, 'positionName': 'RIGHT', 'positionCoords': [710.32, 179.5], 'bid': 5.79}]",105126,1669831930756,sushi w_condiments,veggieswithdip,5.6000000000000005,5.79,0.1899999999999995,sushi w_condiments,221,221,221,True,u,105860,734,1669831931490,734,HRV,HRV_0135,2022-11-30 18:12:57
117,"[{'imgObject': {}, 'id': 'olives', 'src': '/static/foodstim60/olives.jpg', 'key': 'u', 'origWidth': 410, 'origHeight': 410, 'width': 410, 'height': 410, 'widthPercent': 0.45, 'rescaleHeight': False, 'trialN': 117, 'loaded': True, 'loadedTime': 12421, 'positionName': 'LEFT', 'positionCoords': [245.68, 179], 'bid': 7.4}, {'imgObject': {}, 'id': 'cheerios', 'src': '/static/foodstim60/cheerios.jpg', 'key': 'i', 'origWidth': 409, 'origHeight': 410, 'width': 409, 'height': 410, 'widthPercent': 0.45, 'rescaleHeight': False, 'trialN': 117, 'loaded': True, 'loadedTime': 12530, 'positionName': 'RIGHT', 'positionCoords': [710.32, 179], 'bid': 7.4}]",105860,1669831931490,olives,cheerios,7.4,7.4,0.0,cheerios,82,82,82,True,i,106535,675,1669831932165,675,HRV,HRV_0135,2022-11-30 18:12:57
118,"[{'imgObject': {}, 'id': 'avocado', 'src': '/static/foodstim60/avocado.jpg', 'key': 'u', 'origWidth': 409, 'origHeight': 409, 'width': 409, 'height': 409, 'widthPercent': 0.45, 'rescaleHeight': False, 'trialN': 118, 'loaded': True, 'loadedTime': 12280, 'positionName': 'LEFT', 'positionCoords': [246.68, 179.5], 'bid': 5.01}, {'imgObject': {}, 'id': 'rigatoni', 'src': '/static/foodstim60/rigatoni.jpg', 'key': 'i', 'origWidth': 411, 'origHeight': 411, 'width': 411, 'height': 411, 'widthPercent': 0.45, 'rescaleHeight': False, 'trialN': 118, 'loaded': True, 'loadedTime': 12514, 'positionName': 'RIGHT', 'positionCoords': [710.32, 178.5], 'bid': 2.11}]",106535,1669831932165,avocado,rigatoni,5.01,2.11,-2.9,avocado,87,87,87,True,u,107139,604,1669831932769,604,HRV,HRV_0135,2022-11-30 18:12:57
