trialN,stimuli,trialStartTime,trialStartTime_UNIX,stimulus1,stimulus2,stimulus1Bid,stimulus2Bid,delta,selected,rt,rt_UNIX,rt_perfnow,receivedResponse,rsp,trialEndTime,trialDuration,trialEndTime_UNIX,trialDuration_UNIX,exp,subjectId,date
0,"[{'imgObject': {}, 'id': 'cherries', 'src': '/static/foodstim60/cherries.jpg', 'key': 'u', 'origWidth': 410, 'origHeight': 411, 'width': 410, 'height': 411, 'widthPercent': 0.45, 'rescaleHeight': False, 'trialN': 0, 'loaded': True, 'loadedTime': 2297.5999999046326, 'positionName': 'LEFT', 'positionCoords': [298.96, 210], 'bid': 2.48}, {'imgObject': {}, 'id': 'fruitsalad', 'src': '/static/foodstim60/fruitsalad.jpg', 'key': 'i', 'origWidth': 410, 'origHeight': 410, 'width': 410, 'height': 410, 'widthPercent': 0.45, 'rescaleHeight': False, 'trialN': 0, 'loaded': True, 'loadedTime': 2453.5999999046326, 'positionName': 'RIGHT', 'positionCoords': [768.04, 210.5], 'bid': 2.4}]",2750.899999856949,1669840653755,cherries,fruitsalad,2.48,2.4,-0.08000000000000007,fruitsalad,1093.0,1094,1093.4000000953674,True,i,4359.700000047684,1608.8000001907349,1669840655364,1609,HRV,HRV_0283,2022-11-30 20:41:46
1,"[{'imgObject': {}, 'id': 'cheerios', 'src': '/static/foodstim60/cheerios.jpg', 'key': 'u', 'origWidth': 409, 'origHeight': 410, 'width': 409, 'height': 410, 'widthPercent': 0.45, 'rescaleHeight': False, 'trialN': 1, 'loaded': True, 'loadedTime': 2464.899999856949, 'positionName': 'LEFT', 'positionCoords': [299.96, 210.5], 'bid': 1.28}, {'imgObject': {}, 'id': 'hashbrowns', 'src': '/static/foodstim60/hashbrowns.jpg', 'key': 'i', 'origWidth': 411, 'origHeight': 410, 'width': 411, 'height': 410, 'widthPercent': 0.45, 'rescaleHeight': False, 'trialN': 1, 'loaded': True, 'loadedTime': 2491.899999856949, 'positionName': 'RIGHT', 'positionCoords': [768.04, 210.5], 'bid': 0.84}]",4359.899999856949,1669840655365,cheerios,hashbrowns,1.28,0.84,-0.44000000000000006,hashbrowns,1356.4000000953674,1356,1356.7000000476837,True,i,6232.399999856949,1872.5,1669840657237,1872,HRV,HRV_0283,2022-11-30 20:41:46
2,"[{'imgObject': {}, 'id': 'burrito', 'src': '/static/foodstim60/burrito.jpg', 'key': 'u', 'origWidth': 410, 'origHeight': 410, 'width': 410, 'height': 410, 'widthPercent': 0.45, 'rescaleHeight': False, 'trialN': 2, 'loaded': True, 'loadedTime': 2501.5, 'positionName': 'LEFT', 'positionCoords': [298.96, 210.5], 'bid': 0.52}, {'imgObject': {}, 'id': 'rigatoni', 'src': '/static/foodstim60/rigatoni.jpg', 'key': 'i', 'origWidth': 411, 'origHeight': 411, 'width': 411, 'height': 411, 'widthPercent': 0.45, 'rescaleHeight': False, 'trialN': 2, 'loaded': True, 'loadedTime': 2521.0999999046326, 'positionName': 'RIGHT', 'positionCoords': [768.04, 210], 'bid': 0.49}]",6232.799999952316,1669840657237,burrito,rigatoni,0.52,0.49,-0.030000000000000027,burrito,1139.2999999523163,1140,1139.5999999046326,True,u,7891.099999904633,1658.2999999523163,1669840658896,1659,HRV,HRV_0283,2022-11-30 20:41:46
3,"[{'imgObject': {}, 'id': 'pear', 'src': '/static/foodstim60/pear.jpg', 'key': 'u', 'origWidth': 411, 'origHeight': 410, 'width': 411, 'height': 410, 'widthPercent': 0.45, 'rescaleHeight': False, 'trialN': 3, 'loaded': True, 'loadedTime': 2522.5999999046326, 'positionName': 'LEFT', 'positionCoords': [297.96, 210.5], 'bid': 1.91}, {'imgObject': {}, 'id': 'roastedpotatoes', 'src': '/static/foodstim60/roastedpotatoes.jpg', 'key': 'i', 'origWidth': 409, 'origHeight': 410, 'width': 409, 'height': 410, 'widthPercent': 0.45, 'rescaleHeight': False, 'trialN': 3, 'loaded': True, 'loadedTime': 2542.7000000476837, 'positionName': 'RIGHT', 'positionCoords': [768.04, 210.5], 'bid': 3.73}]",7891.5,1669840658896,pear,roastedpotatoes,1.91,3.73,1.82,roastedpotatoes,856.5999999046326,857,856.7999999523163,True,i,9267.899999856949,1376.3999998569489,1669840660273,1377,HRV,HRV_0283,2022-11-30 20:41:46
4,"[{'imgObject': {}, 'id': 'hotdog w must', 'src': '/static/foodstim60/hotdog w must.jpg', 'key': 'u', 'origWidth': 409, 'origHeight': 409, 'width': 409, 'height': 409, 'widthPercent': 0.45, 'rescaleHeight': False, 'trialN': 4, 'loaded': True, 'loadedTime': 2560.2999999523163, 'positionName': 'LEFT', 'positionCoords': [299.96, 211], 'bid': 1.55}, {'imgObject': {}, 'id': 'sweetpotato', 'src': '/static/foodstim60/sweetpotato.jpg', 'key': 'i', 'origWidth': 410, 'origHeight': 410, 'width': 410, 'height': 410, 'widthPercent': 0.45, 'rescaleHeight': False, 'trialN': 4, 'loaded': True, 'loadedTime': 2589.7999999523163, 'positionName': 'RIGHT', 'positionCoords': [768.04, 210.5], 'bid': 1.79}]",9268.399999856949,1669840660273,hotdog w must,sweetpotato,1.55,1.79,0.24,sweetpotato,935.6000001430511,936,935.9000000953674,True,i,10710.599999904633,1442.2000000476837,1669840661715,1442,HRV,HRV_0283,2022-11-30 20:41:46
5,"[{'imgObject': {}, 'id': 'chicken nuggets2', 'src': '/static/foodstim60/chicken nuggets2.jpg', 'key': 'u', 'origWidth': 410, 'origHeight': 409, 'width': 410, 'height': 409, 'widthPercent': 0.45, 'rescaleHeight': False, 'trialN': 5, 'loaded': True, 'loadedTime': 2591.7000000476837, 'positionName': 'LEFT', 'positionCoords': [298.96, 211], 'bid': 4.99}, {'imgObject': {}, 'id': 'ice cream sundae 002', 'src': '/static/foodstim60/ice cream sundae 002.jpg', 'key': 'i', 'origWidth': 409, 'origHeight': 409, 'width': 409, 'height': 409, 'widthPercent': 0.45, 'rescaleHeight': False, 'trialN': 5, 'loaded': True, 'loadedTime': 2602, 'positionName': 'RIGHT', 'positionCoords': [768.04, 211], 'bid': 6.41}]",10710.899999856949,1669840661715,chicken nuggets2,ice cream sundae 002,4.99,6.41,1.42,ice cream sundae 002,1173.4000000953674,1174,1173.7000000476837,True,i,12400.5,1689.6000001430511,1669840663405,1690,HRV,HRV_0283,2022-11-30 20:41:46
6,"[{'imgObject': {}, 'id': 'chickenfingers', 'src': '/static/foodstim60/chickenfingers.jpg', 'key': 'u', 'origWidth': 410, 'origHeight': 410, 'width': 410, 'height': 410, 'widthPercent': 0.45, 'rescaleHeight': False, 'trialN': 6, 'loaded': True, 'loadedTime': 2623.5999999046326, 'positionName': 'LEFT', 'positionCoords': [298.96, 210.5], 'bid': 4.11}, {'imgObject': {}, 'id': 'blackbeanswithrice', 'src': '/static/foodstim60/blackbeanswithrice.jpg', 'key': 'i', 'origWidth': 410, 'origHeight': 410, 'width': 410, 'height': 410, 'widthPercent': 0.45, 'rescaleHeight': False, 'trialN': 6, 'loaded': True, 'loadedTime': 2641.7999999523163, 'positionName': 'RIGHT', 'positionCoords': [768.04, 210.5], 'bid': 3.5}]",12400.700000047684,1669840663405,chickenfingers,blackbeanswithrice,4.11,3.5,-0.6100000000000003,chickenfingers,1043.5,1044,1043.8999998569489,True,u,13958.0,1557.2999999523163,1669840664963,1558,HRV,HRV_0283,2022-11-30 20:41:46
7,"[{'imgObject': {}, 'id': 'salad w chicken', 'src': '/static/foodstim60/salad w chicken.jpg', 'key': 'u', 'origWidth': 411, 'origHeight': 411, 'width': 411, 'height': 411, 'widthPercent': 0.45, 'rescaleHeight': False, 'trialN': 7, 'loaded': True, 'loadedTime': 2642.0999999046326, 'positionName': 'LEFT', 'positionCoords': [297.96, 210], 'bid': 1.26}, {'imgObject': {}, 'id': 'cheerios', 'src': '/static/foodstim60/cheerios.jpg', 'key': 'i', 'origWidth': 409, 'origHeight': 410, 'width': 409, 'height': 410, 'widthPercent': 0.45, 'rescaleHeight': False, 'trialN': 7, 'loaded': True, 'loadedTime': 2464, 'positionName': 'RIGHT', 'positionCoords': [768.04, 210.5], 'bid': 1.28}]",13958.299999952316,1669840664963,salad w chicken,cheerios,1.26,1.28,0.020000000000000018,salad w chicken,934.5999999046326,935,934.7999999523163,True,u,15404.700000047684,1446.4000000953674,1669840666409,1446,HRV,HRV_0283,2022-11-30 20:41:46
8,"[{'imgObject': {}, 'id': 'raspberries', 'src': '/static/foodstim60/raspberries.jpg', 'key': 'u', 'origWidth': 411, 'origHeight': 411, 'width': 411, 'height': 411, 'widthPercent': 0.45, 'rescaleHeight': False, 'trialN': 8, 'loaded': True, 'loadedTime': 2663.899999856949, 'positionName': 'LEFT', 'positionCoords': [297.96, 210], 'bid': 1.06}, {'imgObject': {}, 'id': 'blueberries', 'src': '/static/foodstim60/blueberries.jpg', 'key': 'i', 'origWidth': 411, 'origHeight': 411, 'width': 411, 'height': 411, 'widthPercent': 0.45, 'rescaleHeight': False, 'trialN': 8, 'loaded': True, 'loadedTime': 2672, 'positionName': 'RIGHT', 'positionCoords': [768.04, 210], 'bid': 1.09}]",15404.899999856949,1669840666409,raspberries,blueberries,1.06,1.09,0.030000000000000027,blueberries,895.1000001430511,896,895.3000001907349,True,i,16807.799999952316,1402.9000000953674,1669840667812,1403,HRV,HRV_0283,2022-11-30 20:41:46
9,"[{'imgObject': {}, 'id': 'sweetpotato', 'src': '/static/foodstim60/sweetpotato.jpg', 'key': 'u', 'origWidth': 410, 'origHeight': 410, 'width': 410, 'height': 410, 'widthPercent': 0.45, 'rescaleHeight': False, 'trialN': 9, 'loaded': True, 'loadedTime': 2580.7999999523163, 'positionName': 'LEFT', 'positionCoords': [298.96, 210.5], 'bid': 1.79}, {'imgObject': {}, 'id': 'raspberries', 'src': '/static/foodstim60/raspberries.jpg', 'key': 'i', 'origWidth': 411, 'origHeight': 411, 'width': 411, 'height': 411, 'widthPercent': 0.45, 'rescaleHeight': False, 'trialN': 9, 'loaded': True, 'loadedTime': 2664.0999999046326, 'positionName': 'RIGHT', 'positionCoords': [768.04, 210], 'bid': 1.06}]",16807.89999985695,1669840667813,sweetpotato,raspberries,1.79,1.06,-0.73,sweetpotato,900.2000000476837,900,900.7000000476837,True,u,18211.0,1403.1000001430511,1669840669216,1403,HRV,HRV_0283,2022-11-30 20:41:46
10,"[{'imgObject': {}, 'id': 'yogurt no spoon', 'src': '/static/foodstim60/yogurt no spoon.jpg', 'key': 'u', 'origWidth': 411, 'origHeight': 410, 'width': 411, 'height': 410, 'widthPercent': 0.45, 'rescaleHeight': False, 'trialN': 10, 'loaded': True, 'loadedTime': 2680.899999856949, 'positionName': 'LEFT', 'positionCoords': [297.96, 210.5], 'bid': 1.43}, {'imgObject': {}, 'id': 'tacos', 'src': '/static/foodstim60/tacos.jpg', 'key': 'i', 'origWidth': 411, 'origHeight': 411, 'width': 411, 'height': 411, 'widthPercent': 0.45, 'rescaleHeight': False, 'trialN': 10, 'loaded': True, 'loadedTime': 2692.7999999523163, 'positionName': 'RIGHT', 'positionCoords': [768.04, 210], 'bid': 1.31}]",18211.299999952316,1669840669216,yogurt no spoon,tacos,1.43,1.31,-0.11999999999999988,yogurt no spoon,792.7999999523163,793,793.0999999046326,True,u,19523.599999904633,1312.2999999523163,1669840670528,1312,HRV,HRV_0283,2022-11-30 20:41:46
11,"[{'imgObject': {}, 'id': 'hashbrowns', 'src': '/static/foodstim60/hashbrowns.jpg', 'key': 'u', 'origWidth': 411, 'origHeight': 410, 'width': 411, 'height': 410, 'widthPercent': 0.45, 'rescaleHeight': False, 'trialN': 11, 'loaded': True, 'loadedTime': 2492.0999999046326, 'positionName': 'LEFT', 'positionCoords': [297.96, 210.5], 'bid': 0.84}, {'imgObject': {}, 'id': 'mashed potato', 'src': '/static/foodstim60/mashed potato.jpg', 'key': 'i', 'origWidth': 409, 'origHeight': 409, 'width': 409, 'height': 409, 'widthPercent': 0.45, 'rescaleHeight': False, 'trialN': 11, 'loaded': True, 'loadedTime': 2694, 'positionName': 'RIGHT', 'positionCoords': [768.04, 211], 'bid': 0.55}]",19523.799999952316,1669840670528,hashbrowns,mashed potato,0.84,0.55,-0.2899999999999999,hashbrowns,1048.2999999523163,1049,1048.5999999046326,True,u,21086.5,1562.7000000476837,1669840672091,1563,HRV,HRV_0283,2022-11-30 20:41:46
12,"[{'imgObject': {}, 'id': 'granola w milk', 'src': '/static/foodstim60/granola w milk.jpg', 'key': 'u', 'origWidth': 410, 'origHeight': 410, 'width': 410, 'height': 410, 'widthPercent': 0.45, 'rescaleHeight': False, 'trialN': 12, 'loaded': True, 'loadedTime': 2718.2999999523163, 'positionName': 'LEFT', 'positionCoords': [298.96, 210.5], 'bid': 0.41}, {'imgObject': {}, 'id': 'pear', 'src': '/static/foodstim60/pear.jpg', 'key': 'i', 'origWidth': 411, 'origHeight': 410, 'width': 411, 'height': 410, 'widthPercent': 0.45, 'rescaleHeight': False, 'trialN': 12, 'loaded': True, 'loadedTime': 2522.7999999523163, 'positionName': 'RIGHT', 'positionCoords': [768.04, 210.5], 'bid': 1.91}]",21086.700000047684,1669840672091,granola w milk,pear,0.41,1.91,1.5,pear,941.7999999523163,942,942.0999999046326,True,i,22538.299999952316,1451.5999999046326,1669840673543,1452,HRV,HRV_0283,2022-11-30 20:41:46
13,"[{'imgObject': {}, 'id': 'bagel and cc', 'src': '/static/foodstim60/bagel and cc.jpg', 'key': 'u', 'origWidth': 410, 'origHeight': 410, 'width': 410, 'height': 410, 'widthPercent': 0.45, 'rescaleHeight': False, 'trialN': 13, 'loaded': True, 'loadedTime': 2718.5999999046326, 'positionName': 'LEFT', 'positionCoords': [298.96, 210.5], 'bid': 0.67}, {'imgObject': {}, 'id': 'shreddedwheatwithmilk', 'src': '/static/foodstim60/shreddedwheatwithmilk.jpg', 'key': 'i', 'origWidth': 410, 'origHeight': 410, 'width': 410, 'height': 410, 'widthPercent': 0.45, 'rescaleHeight': False, 'trialN': 13, 'loaded': True, 'loadedTime': 2721.399999856949, 'positionName': 'RIGHT', 'positionCoords': [768.04, 210.5], 'bid': 0.63}]",22538.5,1669840673543,bagel and cc,shreddedwheatwithmilk,0.67,0.63,-0.040000000000000036,bagel and cc,1601.5999999046326,1602,1601.7999999523163,True,u,24645.200000047684,2106.7000000476837,1669840675650,2107,HRV,HRV_0283,2022-11-30 20:41:46
14,"[{'imgObject': {}, 'id': 'seaweed', 'src': '/static/foodstim60/seaweed.jpg', 'key': 'u', 'origWidth': 410, 'origHeight': 410, 'width': 410, 'height': 410, 'widthPercent': 0.45, 'rescaleHeight': False, 'trialN': 14, 'loaded': True, 'loadedTime': 2722.899999856949, 'positionName': 'LEFT', 'positionCoords': [298.96, 210.5], 'bid': 0}, {'imgObject': {}, 'id': 'burrito', 'src': '/static/foodstim60/burrito.jpg', 'key': 'i', 'origWidth': 410, 'origHeight': 410, 'width': 410, 'height': 410, 'widthPercent': 0.45, 'rescaleHeight': False, 'trialN': 14, 'loaded': True, 'loadedTime': 2507.0999999046326, 'positionName': 'RIGHT', 'positionCoords': [768.04, 210.5], 'bid': 0.52}]",24645.39999985695,1669840675650,seaweed,burrito,0.0,0.52,0.52,burrito,806.7000000476837,807,807.0,True,i,25971.0,1325.6000001430511,1669840676976,1326,HRV,HRV_0283,2022-11-30 20:41:46
15,"[{'imgObject': {}, 'id': 'eggs', 'src': '/static/foodstim60/eggs.jpg', 'key': 'u', 'origWidth': 409, 'origHeight': 409, 'width': 409, 'height': 409, 'widthPercent': 0.45, 'rescaleHeight': False, 'trialN': 15, 'loaded': True, 'loadedTime': 2731.899999856949, 'positionName': 'LEFT', 'positionCoords': [299.96, 211], 'bid': 0.22}, {'imgObject': {}, 'id': 'raisin bran w milk', 'src': '/static/foodstim60/raisin bran w milk.jpg', 'key': 'i', 'origWidth': 411, 'origHeight': 411, 'width': 411, 'height': 411, 'widthPercent': 0.45, 'rescaleHeight': False, 'trialN': 15, 'loaded': True, 'loadedTime': 2733.0999999046326, 'positionName': 'RIGHT', 'positionCoords': [768.04, 210], 'bid': 0.19}]",25971.200000047684,1669840676976,eggs,raisin bran w milk,0.22,0.19,-0.03,raisin bran w milk,976.7999999523163,977,977.0,True,i,27464.0,1492.7999999523163,1669840678469,1493,HRV,HRV_0283,2022-11-30 20:41:46
16,"[{'imgObject': {}, 'id': 'popsicles', 'src': '/static/foodstim60/popsicles.jpg', 'key': 'u', 'origWidth': 410, 'origHeight': 410, 'width': 410, 'height': 410, 'widthPercent': 0.45, 'rescaleHeight': False, 'trialN': 16, 'loaded': True, 'loadedTime': 2749.7999999523163, 'positionName': 'LEFT', 'positionCoords': [298.96, 210.5], 'bid': 3.72}, {'imgObject': {}, 'id': 'Tribe humus pita', 'src': '/static/foodstim60/Tribe humus pita.jpg', 'key': 'i', 'origWidth': 411, 'origHeight': 411, 'width': 411, 'height': 411, 'widthPercent': 0.45, 'rescaleHeight': False, 'trialN': 16, 'loaded': True, 'loadedTime': 2735.0999999046326, 'positionName': 'RIGHT', 'positionCoords': [768.04, 210], 'bid': 3.58}]",27464.299999952316,1669840678469,popsicles,Tribe humus pita,3.72,3.58,-0.14000000000000012,popsicles,1227.9000000953674,1228,1228.2000000476837,True,u,29199.599999904633,1735.2999999523163,1669840680204,1735,HRV,HRV_0283,2022-11-30 20:41:46
17,"[{'imgObject': {}, 'id': 'omelette', 'src': '/static/foodstim60/omelette.jpg', 'key': 'u', 'origWidth': 410, 'origHeight': 409, 'width': 410, 'height': 409, 'widthPercent': 0.45, 'rescaleHeight': False, 'trialN': 17, 'loaded': True, 'loadedTime': 2736.2000000476837, 'positionName': 'LEFT', 'positionCoords': [298.96, 211], 'bid': 0.34}, {'imgObject': {}, 'id': 'avocado', 'src': '/static/foodstim60/avocado.jpg', 'key': 'i', 'origWidth': 409, 'origHeight': 409, 'width': 409, 'height': 409, 'widthPercent': 0.45, 'rescaleHeight': False, 'trialN': 17, 'loaded': True, 'loadedTime': 2737.399999856949, 'positionName': 'RIGHT', 'positionCoords': [768.04, 211], 'bid': 0.32}]",29199.799999952316,1669840680204,omelette,avocado,0.34,0.32,-0.020000000000000018,omelette,1020.4000000953674,1021,1020.7000000476837,True,u,30730.0,1530.2000000476837,1669840681735,1531,HRV,HRV_0283,2022-11-30 20:41:46
18,"[{'imgObject': {}, 'id': 'Tribe humus pita', 'src': '/static/foodstim60/Tribe humus pita.jpg', 'key': 'u', 'origWidth': 411, 'origHeight': 411, 'width': 411, 'height': 411, 'widthPercent': 0.45, 'rescaleHeight': False, 'trialN': 18, 'loaded': True, 'loadedTime': 2733.899999856949, 'positionName': 'LEFT', 'positionCoords': [297.96, 210], 'bid': 3.58}, {'imgObject': {}, 'id': 'rigatoni and sauce', 'src': '/static/foodstim60/rigatoni and sauce.jpg', 'key': 'i', 'origWidth': 410, 'origHeight': 411, 'width': 410, 'height': 411, 'widthPercent': 0.45, 'rescaleHeight': False, 'trialN': 18, 'loaded': True, 'loadedTime': 2738.899999856949, 'positionName': 'RIGHT', 'positionCoords': [768.04, 210], 'bid': 2.08}]",30730.200000047684,1669840681735,Tribe humus pita,rigatoni and sauce,3.58,2.08,-1.5,Tribe humus pita,873.7999999523163,874,874.2999999523163,True,u,32120.200000047684,1390.0,1669840683125,1390,HRV,HRV_0283,2022-11-30 20:41:46
19,"[{'imgObject': {}, 'id': 'banana', 'src': '/static/foodstim60/banana.jpg', 'key': 'u', 'origWidth': 410, 'origHeight': 410, 'width': 410, 'height': 410, 'widthPercent': 0.45, 'rescaleHeight': False, 'trialN': 19, 'loaded': True, 'loadedTime': 2740.2999999523163, 'positionName': 'LEFT', 'positionCoords': [298.96, 210.5], 'bid': 0.95}, {'imgObject': {}, 'id': 'baked potato', 'src': '/static/foodstim60/baked potato.jpg', 'key': 'i', 'origWidth': 409, 'origHeight': 410, 'width': 409, 'height': 410, 'widthPercent': 0.45, 'rescaleHeight': False, 'trialN': 19, 'loaded': True, 'loadedTime': 2748.2999999523163, 'positionName': 'RIGHT', 'positionCoords': [768.04, 210.5], 'bid': 0.98}]",32120.39999985695,1669840683125,banana,baked potato,0.95,0.98,0.030000000000000027,banana,979.9000000953674,980,980.2000000476837,True,u,33615.59999990463,1495.2000000476837,1669840684620,1495,HRV,HRV_0283,2022-11-30 20:41:46
20,"[{'imgObject': {}, 'id': 'eggs', 'src': '/static/foodstim60/eggs.jpg', 'key': 'u', 'origWidth': 409, 'origHeight': 409, 'width': 409, 'height': 409, 'widthPercent': 0.45, 'rescaleHeight': False, 'trialN': 20, 'loaded': True, 'loadedTime': 2730.5, 'positionName': 'LEFT', 'positionCoords': [299.96, 211], 'bid': 0.22}, {'imgObject': {}, 'id': 'orange slices', 'src': '/static/foodstim60/orange slices.jpg', 'key': 'i', 'origWidth': 409, 'origHeight': 410, 'width': 409, 'height': 410, 'widthPercent': 0.45, 'rescaleHeight': False, 'trialN': 20, 'loaded': True, 'loadedTime': 2383.5, 'positionName': 'RIGHT', 'positionCoords': [768.04, 210.5], 'bid': 0.49}]",33615.799999952316,1669840684621,eggs,orange slices,0.22,0.49,0.27,orange slices,836.5999999046326,836,836.9000000953674,True,i,34964.5,1348.7000000476837,1669840685969,1348,HRV,HRV_0283,2022-11-30 20:41:46
21,"[{'imgObject': {}, 'id': 'salmon', 'src': '/static/foodstim60/salmon.jpg', 'key': 'u', 'origWidth': 410, 'origHeight': 409, 'width': 410, 'height': 409, 'widthPercent': 0.45, 'rescaleHeight': False, 'trialN': 21, 'loaded': True, 'loadedTime': 2406.2000000476837, 'positionName': 'LEFT', 'positionCoords': [298.96, 211], 'bid': 2.25}, {'imgObject': {}, 'id': 'popsicles', 'src': '/static/foodstim60/popsicles.jpg', 'key': 'i', 'origWidth': 410, 'origHeight': 410, 'width': 410, 'height': 410, 'widthPercent': 0.45, 'rescaleHeight': False, 'trialN': 21, 'loaded': True, 'loadedTime': 2749.5999999046326, 'positionName': 'RIGHT', 'positionCoords': [768.04, 210.5], 'bid': 3.72}]",34964.59999990463,1669840685969,salmon,popsicles,2.25,3.72,1.4700000000000002,salmon,935.7000000476837,936,936.0,True,u,36414.799999952316,1450.2000000476837,1669840687419,1450,HRV,HRV_0283,2022-11-30 20:41:46
22,"[{'imgObject': {}, 'id': 'baked potato', 'src': '/static/foodstim60/baked potato.jpg', 'key': 'u', 'origWidth': 409, 'origHeight': 410, 'width': 409, 'height': 410, 'widthPercent': 0.45, 'rescaleHeight': False, 'trialN': 22, 'loaded': True, 'loadedTime': 2747.399999856949, 'positionName': 'LEFT', 'positionCoords': [299.96, 210.5], 'bid': 0.98}, {'imgObject': {}, 'id': 'bagel plain', 'src': '/static/foodstim60/bagel plain.jpg', 'key': 'i', 'origWidth': 410, 'origHeight': 410, 'width': 410, 'height': 410, 'widthPercent': 0.45, 'rescaleHeight': False, 'trialN': 22, 'loaded': True, 'loadedTime': 2407.2999999523163, 'positionName': 'RIGHT', 'positionCoords': [768.04, 210.5], 'bid': 0.89}]",36414.89999985695,1669840687420,baked potato,bagel plain,0.98,0.89,-0.08999999999999997,baked potato,885.2000000476837,885,885.6000001430511,True,u,37808.0,1393.1000001430511,1669840688813,1393,HRV,HRV_0283,2022-11-30 20:41:46
23,"[{'imgObject': {}, 'id': 'salad w chicken', 'src': '/static/foodstim60/salad w chicken.jpg', 'key': 'u', 'origWidth': 411, 'origHeight': 411, 'width': 411, 'height': 411, 'widthPercent': 0.45, 'rescaleHeight': False, 'trialN': 23, 'loaded': True, 'loadedTime': 2643, 'positionName': 'LEFT', 'positionCoords': [297.96, 210], 'bid': 1.26}, {'imgObject': {}, 'id': 'tacos', 'src': '/static/foodstim60/tacos.jpg', 'key': 'i', 'origWidth': 411, 'origHeight': 411, 'width': 411, 'height': 411, 'widthPercent': 0.45, 'rescaleHeight': False, 'trialN': 23, 'loaded': True, 'loadedTime': 2693.899999856949, 'positionName': 'RIGHT', 'positionCoords': [768.04, 210], 'bid': 1.31}]",37808.200000047684,1669840688813,salad w chicken,tacos,1.26,1.31,0.050000000000000044,salad w chicken,843.5,844,843.7999999523163,True,u,39166.59999990463,1358.3999998569489,1669840690171,1358,HRV,HRV_0283,2022-11-30 20:41:46
24,"[{'imgObject': {}, 'id': 'ice cream sundae 002', 'src': '/static/foodstim60/ice cream sundae 002.jpg', 'key': 'u', 'origWidth': 409, 'origHeight': 409, 'width': 409, 'height': 409, 'widthPercent': 0.45, 'rescaleHeight': False, 'trialN': 24, 'loaded': True, 'loadedTime': 2602.0999999046326, 'positionName': 'LEFT', 'positionCoords': [299.96, 211], 'bid': 6.41}, {'imgObject': {}, 'id': 'fruitsalad', 'src': '/static/foodstim60/fruitsalad.jpg', 'key': 'i', 'origWidth': 410, 'origHeight': 410, 'width': 410, 'height': 410, 'widthPercent': 0.45, 'rescaleHeight': False, 'trialN': 24, 'loaded': True, 'loadedTime': 2463, 'positionName': 'RIGHT', 'positionCoords': [768.04, 210.5], 'bid': 2.4}]",39166.59999990463,1669840690171,ice cream sundae 002,fruitsalad,6.41,2.4,-4.01,ice cream sundae 002,717.4000000953674,718,717.7000000476837,True,u,40399.799999952316,1233.2000000476837,1669840691404,1233,HRV,HRV_0283,2022-11-30 20:41:46
25,"[{'imgObject': {}, 'id': 'Grapes', 'src': '/static/foodstim60/Grapes.jpg', 'key': 'u', 'origWidth': 411, 'origHeight': 411, 'width': 411, 'height': 411, 'widthPercent': 0.45, 'rescaleHeight': False, 'trialN': 25, 'loaded': True, 'loadedTime': 2417.7999999523163, 'positionName': 'LEFT', 'positionCoords': [297.96, 210], 'bid': 1.67}, {'imgObject': {}, 'id': 'omelette', 'src': '/static/foodstim60/omelette.jpg', 'key': 'i', 'origWidth': 410, 'origHeight': 409, 'width': 410, 'height': 409, 'widthPercent': 0.45, 'rescaleHeight': False, 'trialN': 25, 'loaded': True, 'loadedTime': 2736.0999999046326, 'positionName': 'RIGHT', 'positionCoords': [768.04, 211], 'bid': 0.34}]",40400.0,1669840691405,Grapes,omelette,1.67,0.34,-1.3299999999999998,Grapes,996.0999999046326,996,996.3999998569489,True,u,41908.09999990463,1508.0999999046326,1669840692913,1508,HRV,HRV_0283,2022-11-30 20:41:46
26,"[{'imgObject': {}, 'id': 'chicken nuggets2', 'src': '/static/foodstim60/chicken nuggets2.jpg', 'key': 'u', 'origWidth': 410, 'origHeight': 409, 'width': 410, 'height': 409, 'widthPercent': 0.45, 'rescaleHeight': False, 'trialN': 26, 'loaded': True, 'loadedTime': 2591.5, 'positionName': 'LEFT', 'positionCoords': [298.96, 211], 'bid': 4.99}, {'imgObject': {}, 'id': 'sushi w_condiments', 'src': '/static/foodstim60/sushi w_condiments.jpg', 'key': 'i', 'origWidth': 410, 'origHeight': 410, 'width': 410, 'height': 410, 'widthPercent': 0.45, 'rescaleHeight': False, 'trialN': 26, 'loaded': True, 'loadedTime': 2434.2999999523163, 'positionName': 'RIGHT', 'positionCoords': [768.04, 210.5], 'bid': 2.54}]",41908.39999985695,1669840692913,chicken nuggets2,sushi w_condiments,4.99,2.54,-2.45,chicken nuggets2,727.7000000476837,728,728.0,True,u,43151.700000047684,1243.3000001907349,1669840694156,1243,HRV,HRV_0283,2022-11-30 20:41:46
27,"[{'imgObject': {}, 'id': 'turkey sandwich', 'src': '/static/foodstim60/turkey sandwich.jpg', 'key': 'u', 'origWidth': 409, 'origHeight': 409, 'width': 409, 'height': 409, 'widthPercent': 0.45, 'rescaleHeight': False, 'trialN': 27, 'loaded': True, 'loadedTime': 2445.5, 'positionName': 'LEFT', 'positionCoords': [299.96, 211], 'bid': 3.54}, {'imgObject': {}, 'id': 'apple slices', 'src': '/static/foodstim60/apple slices.jpg', 'key': 'i', 'origWidth': 409, 'origHeight': 410, 'width': 409, 'height': 410, 'widthPercent': 0.45, 'rescaleHeight': False, 'trialN': 27, 'loaded': True, 'loadedTime': 2452.2000000476837, 'positionName': 'RIGHT', 'positionCoords': [768.04, 210.5], 'bid': 1.94}]",43151.799999952316,1669840694156,turkey sandwich,apple slices,3.54,1.94,-1.6,turkey sandwich,772.2999999523163,773,772.5999999046326,True,u,44429.700000047684,1277.9000000953674,1669840695435,1279,HRV,HRV_0283,2022-11-30 20:41:46
28,"[{'imgObject': {}, 'id': 'avocado', 'src': '/static/foodstim60/avocado.jpg', 'key': 'u', 'origWidth': 409, 'origHeight': 409, 'width': 409, 'height': 409, 'widthPercent': 0.45, 'rescaleHeight': False, 'trialN': 28, 'loaded': True, 'loadedTime': 2736.5, 'positionName': 'LEFT', 'positionCoords': [299.96, 211], 'bid': 0.32}, {'imgObject': {}, 'id': 'seaweed', 'src': '/static/foodstim60/seaweed.jpg', 'key': 'i', 'origWidth': 410, 'origHeight': 410, 'width': 410, 'height': 410, 'widthPercent': 0.45, 'rescaleHeight': False, 'trialN': 28, 'loaded': True, 'loadedTime': 2723, 'positionName': 'RIGHT', 'positionCoords': [768.04, 210.5], 'bid': 0}]",44430.09999990463,1669840695435,avocado,seaweed,0.32,0.0,-0.32,avocado,933.7999999523163,934,934.1000001430511,True,u,45880.59999990463,1450.5,1669840696885,1450,HRV,HRV_0283,2022-11-30 20:41:46
29,"[{'imgObject': {}, 'id': 'lox', 'src': '/static/foodstim60/lox.jpg', 'key': 'u', 'origWidth': 410, 'origHeight': 411, 'width': 410, 'height': 411, 'widthPercent': 0.45, 'rescaleHeight': False, 'trialN': 29, 'loaded': True, 'loadedTime': 2483, 'positionName': 'LEFT', 'positionCoords': [298.96, 210], 'bid': 0.3}, {'imgObject': {}, 'id': 'omelette', 'src': '/static/foodstim60/omelette.jpg', 'key': 'i', 'origWidth': 410, 'origHeight': 409, 'width': 410, 'height': 409, 'widthPercent': 0.45, 'rescaleHeight': False, 'trialN': 29, 'loaded': True, 'loadedTime': 2735.399999856949, 'positionName': 'RIGHT', 'positionCoords': [768.04, 211], 'bid': 0.34}]",45880.799999952316,1669840696885,lox,omelette,0.3,0.34,0.040000000000000036,lox,875.5,876,875.9000000953674,True,u,47270.5,1389.7000000476837,1669840698275,1390,HRV,HRV_0283,2022-11-30 20:41:46
30,"[{'imgObject': {}, 'id': 'cherry tomato', 'src': '/static/foodstim60/cherry tomato.jpg', 'key': 'u', 'origWidth': 410, 'origHeight': 410, 'width': 410, 'height': 410, 'widthPercent': 0.45, 'rescaleHeight': False, 'trialN': 30, 'loaded': True, 'loadedTime': 2494, 'positionName': 'LEFT', 'positionCoords': [298.96, 210.5], 'bid': 0.49}, {'imgObject': {}, 'id': 'rigatoni and sauce', 'src': '/static/foodstim60/rigatoni and sauce.jpg', 'key': 'i', 'origWidth': 410, 'origHeight': 411, 'width': 410, 'height': 411, 'widthPercent': 0.45, 'rescaleHeight': False, 'trialN': 30, 'loaded': True, 'loadedTime': 2739, 'positionName': 'RIGHT', 'positionCoords': [768.04, 210], 'bid': 2.08}]",47270.59999990463,1669840698275,cherry tomato,rigatoni and sauce,0.49,2.08,1.59,rigatoni and sauce,1389.2999999523163,1390,1389.6000001430511,True,i,49171.09999990463,1900.5,1669840700176,1901,HRV,HRV_0283,2022-11-30 20:41:46
31,"[{'imgObject': {}, 'id': 'burrito', 'src': '/static/foodstim60/burrito.jpg', 'key': 'u', 'origWidth': 410, 'origHeight': 410, 'width': 410, 'height': 410, 'widthPercent': 0.45, 'rescaleHeight': False, 'trialN': 31, 'loaded': True, 'loadedTime': 2507.5999999046326, 'positionName': 'LEFT', 'positionCoords': [298.96, 210.5], 'bid': 0.52}, {'imgObject': {}, 'id': 'eggsalad', 'src': '/static/foodstim60/eggsalad.jpg', 'key': 'i', 'origWidth': 410, 'origHeight': 409, 'width': 410, 'height': 409, 'widthPercent': 0.45, 'rescaleHeight': False, 'trialN': 31, 'loaded': True, 'loadedTime': 2508.7000000476837, 'positionName': 'RIGHT', 'positionCoords': [768.04, 211], 'bid': 0.72}]",49171.39999985695,1669840700176,burrito,eggsalad,0.52,0.72,0.19999999999999996,burrito,704.5,705,704.8000001907349,True,u,50392.200000047684,1220.8000001907349,1669840701397,1221,HRV,HRV_0283,2022-11-30 20:41:46
32,"[{'imgObject': {}, 'id': 'froot loops w milk', 'src': '/static/foodstim60/froot loops w milk.jpg', 'key': 'u', 'origWidth': 410, 'origHeight': 410, 'width': 410, 'height': 410, 'widthPercent': 0.45, 'rescaleHeight': False, 'trialN': 32, 'loaded': True, 'loadedTime': 2533.2999999523163, 'positionName': 'LEFT', 'positionCoords': [298.96, 210.5], 'bid': 0.8300000000000001}, {'imgObject': {}, 'id': 'salad w chicken', 'src': '/static/foodstim60/salad w chicken.jpg', 'key': 'i', 'origWidth': 411, 'origHeight': 411, 'width': 411, 'height': 411, 'widthPercent': 0.45, 'rescaleHeight': False, 'trialN': 32, 'loaded': True, 'loadedTime': 2650.899999856949, 'positionName': 'RIGHT', 'positionCoords': [768.04, 210], 'bid': 1.26}]",50392.39999985695,1669840701397,froot loops w milk,salad w chicken,0.8300000000000001,1.26,0.42999999999999994,salad w chicken,1043.7000000476837,1044,1043.9000000953674,True,i,51949.89999985695,1557.5,1669840702955,1558,HRV,HRV_0283,2022-11-30 20:41:46
33,"[{'imgObject': {}, 'id': 'Tribe humus pita', 'src': '/static/foodstim60/Tribe humus pita.jpg', 'key': 'u', 'origWidth': 411, 'origHeight': 411, 'width': 411, 'height': 411, 'widthPercent': 0.45, 'rescaleHeight': False, 'trialN': 33, 'loaded': True, 'loadedTime': 2734.899999856949, 'positionName': 'LEFT', 'positionCoords': [297.96, 210], 'bid': 3.58}, {'imgObject': {}, 'id': 'steak', 'src': '/static/foodstim60/steak.jpg', 'key': 'i', 'origWidth': 410, 'origHeight': 410, 'width': 410, 'height': 410, 'widthPercent': 0.45, 'rescaleHeight': False, 'trialN': 33, 'loaded': True, 'loadedTime': 2551.399999856949, 'positionName': 'RIGHT', 'positionCoords': [768.04, 210.5], 'bid': 5.8}]",51950.09999990463,1669840702955,Tribe humus pita,steak,3.58,5.8,2.2199999999999998,steak,685.9000000953674,686,686.2000000476837,True,i,53157.200000047684,1207.1000001430511,1669840704162,1207,HRV,HRV_0283,2022-11-30 20:41:46
34,"[{'imgObject': {}, 'id': 'yogurt no spoon', 'src': '/static/foodstim60/yogurt no spoon.jpg', 'key': 'u', 'origWidth': 411, 'origHeight': 410, 'width': 411, 'height': 410, 'widthPercent': 0.45, 'rescaleHeight': False, 'trialN': 34, 'loaded': True, 'loadedTime': 2680, 'positionName': 'LEFT', 'positionCoords': [297.96, 210.5], 'bid': 1.43}, {'imgObject': {}, 'id': 'cheerios', 'src': '/static/foodstim60/cheerios.jpg', 'key': 'i', 'origWidth': 409, 'origHeight': 410, 'width': 409, 'height': 410, 'widthPercent': 0.45, 'rescaleHeight': False, 'trialN': 34, 'loaded': True, 'loadedTime': 2472.7999999523163, 'positionName': 'RIGHT', 'positionCoords': [768.04, 210.5], 'bid': 1.28}]",53157.59999990463,1669840704162,yogurt no spoon,cheerios,1.43,1.28,-0.1499999999999999,yogurt no spoon,806.6000001430511,807,806.7999999523163,True,u,54470.09999990463,1312.5,1669840705475,1313,HRV,HRV_0283,2022-11-30 20:41:46
35,"[{'imgObject': {}, 'id': 'lox', 'src': '/static/foodstim60/lox.jpg', 'key': 'u', 'origWidth': 410, 'origHeight': 411, 'width': 410, 'height': 411, 'widthPercent': 0.45, 'rescaleHeight': False, 'trialN': 35, 'loaded': True, 'loadedTime': 2483.899999856949, 'positionName': 'LEFT', 'positionCoords': [298.96, 210], 'bid': 0.3}, {'imgObject': {}, 'id': 'kiwi', 'src': '/static/foodstim60/kiwi.jpg', 'key': 'i', 'origWidth': 410, 'origHeight': 410, 'width': 410, 'height': 410, 'widthPercent': 0.45, 'rescaleHeight': False, 'trialN': 35, 'loaded': True, 'loadedTime': 2570.5, 'positionName': 'RIGHT', 'positionCoords': [768.04, 210.5], 'bid': 0.47}]",54470.299999952316,1669840705475,lox,kiwi,0.3,0.47,0.16999999999999998,kiwi,861.7000000476837,862,862.0999999046326,True,i,55847.5,1377.2000000476837,1669840706852,1377,HRV,HRV_0283,2022-11-30 20:41:46
36,"[{'imgObject': {}, 'id': 'steak', 'src': '/static/foodstim60/steak.jpg', 'key': 'u', 'origWidth': 410, 'origHeight': 410, 'width': 410, 'height': 410, 'widthPercent': 0.45, 'rescaleHeight': False, 'trialN': 36, 'loaded': True, 'loadedTime': 2551.7000000476837, 'positionName': 'LEFT', 'positionCoords': [298.96, 210.5], 'bid': 5.8}, {'imgObject': {}, 'id': 'grilled chicken strips', 'src': '/static/foodstim60/grilled chicken strips.jpg', 'key': 'i', 'origWidth': 410, 'origHeight': 411, 'width': 410, 'height': 411, 'widthPercent': 0.45, 'rescaleHeight': False, 'trialN': 36, 'loaded': True, 'loadedTime': 2580.5999999046326, 'positionName': 'RIGHT', 'positionCoords': [768.04, 210], 'bid': 4.95}]",55847.89999985695,1669840706852,steak,grilled chicken strips,5.8,4.95,-0.8499999999999996,grilled chicken strips,788.0,789,788.4000000953674,True,i,57153.200000047684,1305.3000001907349,1669840708158,1306,HRV,HRV_0283,2022-11-30 20:41:46
37,"[{'imgObject': {}, 'id': 'omelette', 'src': '/static/foodstim60/omelette.jpg', 'key': 'u', 'origWidth': 410, 'origHeight': 409, 'width': 410, 'height': 409, 'widthPercent': 0.45, 'rescaleHeight': False, 'trialN': 37, 'loaded': True, 'loadedTime': 2736.399999856949, 'positionName': 'LEFT', 'positionCoords': [298.96, 211], 'bid': 0.34}, {'imgObject': {}, 'id': 'mashed potato', 'src': '/static/foodstim60/mashed potato.jpg', 'key': 'i', 'origWidth': 409, 'origHeight': 409, 'width': 409, 'height': 409, 'widthPercent': 0.45, 'rescaleHeight': False, 'trialN': 37, 'loaded': True, 'loadedTime': 2695.0999999046326, 'positionName': 'RIGHT', 'positionCoords': [768.04, 211], 'bid': 0.55}]",57153.5,1669840708158,omelette,mashed potato,0.34,0.55,0.21000000000000002,mashed potato,818.5999999046326,819,819.0,True,i,58485.799999952316,1332.2999999523163,1669840709490,1332,HRV,HRV_0283,2022-11-30 20:41:46
38,"[{'imgObject': {}, 'id': 'corn cob', 'src': '/static/foodstim60/corn cob.jpg', 'key': 'u', 'origWidth': 411, 'origHeight': 411, 'width': 411, 'height': 411, 'widthPercent': 0.45, 'rescaleHeight': False, 'trialN': 38, 'loaded': True, 'loadedTime': 2599.7000000476837, 'positionName': 'LEFT', 'positionCoords': [297.96, 210], 'bid': 2.48}, {'imgObject': {}, 'id': 'fried eggs', 'src': '/static/foodstim60/fried eggs.jpg', 'key': 'i', 'origWidth': 410, 'origHeight': 410, 'width': 410, 'height': 410, 'widthPercent': 0.45, 'rescaleHeight': False, 'trialN': 38, 'loaded': True, 'loadedTime': 2611, 'positionName': 'RIGHT', 'positionCoords': [768.04, 210.5], 'bid': 0.55}]",58486.200000047684,1669840709491,corn cob,fried eggs,2.48,0.55,-1.93,fried eggs,925.5,927,927.5,True,i,59930.89999985695,1444.6999998092651,1669840710936,1445,HRV,HRV_0283,2022-11-30 20:41:46
39,"[{'imgObject': {}, 'id': 'chickenfingers', 'src': '/static/foodstim60/chickenfingers.jpg', 'key': 'u', 'origWidth': 410, 'origHeight': 410, 'width': 410, 'height': 410, 'widthPercent': 0.45, 'rescaleHeight': False, 'trialN': 39, 'loaded': True, 'loadedTime': 2630.899999856949, 'positionName': 'LEFT', 'positionCoords': [298.96, 210.5], 'bid': 4.11}, {'imgObject': {}, 'id': 'popsicles', 'src': '/static/foodstim60/popsicles.jpg', 'key': 'i', 'origWidth': 410, 'origHeight': 410, 'width': 410, 'height': 410, 'widthPercent': 0.45, 'rescaleHeight': False, 'trialN': 39, 'loaded': True, 'loadedTime': 2749.899999856949, 'positionName': 'RIGHT', 'positionCoords': [768.04, 210.5], 'bid': 3.72}]",59931.09999990463,1669840710936,chickenfingers,popsicles,4.11,3.72,-0.3900000000000001,chickenfingers,840.9000000953674,841,841.2000000476837,True,u,61284.39999985695,1353.2999999523163,1669840712289,1353,HRV,HRV_0283,2022-11-30 20:41:46
40,"[{'imgObject': {}, 'id': 'pear', 'src': '/static/foodstim60/pear.jpg', 'key': 'u', 'origWidth': 411, 'origHeight': 410, 'width': 411, 'height': 410, 'widthPercent': 0.45, 'rescaleHeight': False, 'trialN': 40, 'loaded': True, 'loadedTime': 2532, 'positionName': 'LEFT', 'positionCoords': [297.96, 210.5], 'bid': 1.91}, {'imgObject': {}, 'id': 'sweetpotato', 'src': '/static/foodstim60/sweetpotato.jpg', 'key': 'i', 'origWidth': 410, 'origHeight': 410, 'width': 410, 'height': 410, 'widthPercent': 0.45, 'rescaleHeight': False, 'trialN': 40, 'loaded': True, 'loadedTime': 2582.0999999046326, 'positionName': 'RIGHT', 'positionCoords': [768.04, 210.5], 'bid': 1.79}]",61284.799999952316,1669840712289,pear,sweetpotato,1.91,1.79,-0.11999999999999988,pear,767.4000000953674,768,767.5999999046326,True,u,62564.299999952316,1279.5,1669840713569,1280,HRV,HRV_0283,2022-11-30 20:41:46
41,"[{'imgObject': {}, 'id': 'veggieswithdip', 'src': '/static/foodstim60/veggieswithdip.jpg', 'key': 'u', 'origWidth': 409, 'origHeight': 409, 'width': 409, 'height': 409, 'widthPercent': 0.45, 'rescaleHeight': False, 'trialN': 41, 'loaded': True, 'loadedTime': 2620.7000000476837, 'positionName': 'LEFT', 'positionCoords': [299.96, 211], 'bid': 1.17}, {'imgObject': {}, 'id': 'seaweed', 'src': '/static/foodstim60/seaweed.jpg', 'key': 'i', 'origWidth': 410, 'origHeight': 410, 'width': 410, 'height': 410, 'widthPercent': 0.45, 'rescaleHeight': False, 'trialN': 41, 'loaded': True, 'loadedTime': 2722.899999856949, 'positionName': 'RIGHT', 'positionCoords': [768.04, 210.5], 'bid': 0}]",62564.700000047684,1669840713569,veggieswithdip,seaweed,1.17,0.0,-1.17,veggieswithdip,871.2999999523163,872,871.5999999046326,True,u,63954.299999952316,1389.5999999046326,1669840714959,1390,HRV,HRV_0283,2022-11-30 20:41:46
42,"[{'imgObject': {}, 'id': 'mango', 'src': '/static/foodstim60/mango.jpg', 'key': 'u', 'origWidth': 411, 'origHeight': 411, 'width': 411, 'height': 411, 'widthPercent': 0.45, 'rescaleHeight': False, 'trialN': 42, 'loaded': True, 'loadedTime': 2632.7000000476837, 'positionName': 'LEFT', 'positionCoords': [297.96, 210], 'bid': 0.45}, {'imgObject': {}, 'id': 'seaweed', 'src': '/static/foodstim60/seaweed.jpg', 'key': 'i', 'origWidth': 410, 'origHeight': 410, 'width': 410, 'height': 410, 'widthPercent': 0.45, 'rescaleHeight': False, 'trialN': 42, 'loaded': True, 'loadedTime': 2722.5999999046326, 'positionName': 'RIGHT', 'positionCoords': [768.04, 210.5], 'bid': 0}]",63954.39999985695,1669840714959,mango,seaweed,0.45,0.0,-0.45,mango,1530.2000000476837,1531,1530.5,True,u,65999.79999995232,2045.4000000953674,1669840717004,2045,HRV,HRV_0283,2022-11-30 20:41:46
43,"[{'imgObject': {}, 'id': 'banana', 'src': '/static/foodstim60/banana.jpg', 'key': 'u', 'origWidth': 410, 'origHeight': 410, 'width': 410, 'height': 410, 'widthPercent': 0.45, 'rescaleHeight': False, 'trialN': 43, 'loaded': True, 'loadedTime': 2740, 'positionName': 'LEFT', 'positionCoords': [298.96, 210.5], 'bid': 0.95}, {'imgObject': {}, 'id': 'salad w chicken', 'src': '/static/foodstim60/salad w chicken.jpg', 'key': 'i', 'origWidth': 411, 'origHeight': 411, 'width': 411, 'height': 411, 'widthPercent': 0.45, 'rescaleHeight': False, 'trialN': 43, 'loaded': True, 'loadedTime': 2651.2000000476837, 'positionName': 'RIGHT', 'positionCoords': [768.04, 210], 'bid': 1.26}]",66000.0,1669840717005,banana,salad w chicken,0.95,1.26,0.31000000000000005,salad w chicken,660.0999999046326,660,660.3999998569489,True,i,67166.79999995232,1166.7999999523163,1669840718171,1166,HRV,HRV_0283,2022-11-30 20:41:46
44,"[{'imgObject': {}, 'id': 'grilled chicken strips', 'src': '/static/foodstim60/grilled chicken strips.jpg', 'key': 'u', 'origWidth': 410, 'origHeight': 411, 'width': 410, 'height': 411, 'widthPercent': 0.45, 'rescaleHeight': False, 'trialN': 44, 'loaded': True, 'loadedTime': 2570.7000000476837, 'positionName': 'LEFT', 'positionCoords': [298.96, 210], 'bid': 4.95}, {'imgObject': {}, 'id': 'turkeysandwich', 'src': '/static/foodstim60/turkeysandwich.jpg', 'key': 'i', 'origWidth': 409, 'origHeight': 409, 'width': 409, 'height': 409, 'widthPercent': 0.45, 'rescaleHeight': False, 'trialN': 44, 'loaded': True, 'loadedTime': 2653.7000000476837, 'positionName': 'RIGHT', 'positionCoords': [768.04, 211], 'bid': 3.53}]",67167.0,1669840718172,grilled chicken strips,turkeysandwich,4.95,3.53,-1.4200000000000004,turkeysandwich,653.2000000476837,653,653.5,True,i,68338.20000004768,1171.2000000476837,1669840719343,1171,HRV,HRV_0283,2022-11-30 20:41:46
45,"[{'imgObject': {}, 'id': 'corn cob', 'src': '/static/foodstim60/corn cob.jpg', 'key': 'u', 'origWidth': 411, 'origHeight': 411, 'width': 411, 'height': 411, 'widthPercent': 0.45, 'rescaleHeight': False, 'trialN': 45, 'loaded': True, 'loadedTime': 2599.5999999046326, 'positionName': 'LEFT', 'positionCoords': [297.96, 210], 'bid': 2.48}, {'imgObject': {}, 'id': 'grilled chicken strips', 'src': '/static/foodstim60/grilled chicken strips.jpg', 'key': 'i', 'origWidth': 410, 'origHeight': 411, 'width': 410, 'height': 411, 'widthPercent': 0.45, 'rescaleHeight': False, 'trialN': 45, 'loaded': True, 'loadedTime': 2580.7999999523163, 'positionName': 'RIGHT', 'positionCoords': [768.04, 210], 'bid': 4.95}]",68338.29999995232,1669840719343,corn cob,grilled chicken strips,2.48,4.95,2.47,grilled chicken strips,625.5999999046326,626,626.0,True,i,69477.0,1138.7000000476837,1669840720482,1139,HRV,HRV_0283,2022-11-30 20:41:46
46,"[{'imgObject': {}, 'id': 'corn cob', 'src': '/static/foodstim60/corn cob.jpg', 'key': 'u', 'origWidth': 411, 'origHeight': 411, 'width': 411, 'height': 411, 'widthPercent': 0.45, 'rescaleHeight': False, 'trialN': 46, 'loaded': True, 'loadedTime': 2591.899999856949, 'positionName': 'LEFT', 'positionCoords': [297.96, 210], 'bid': 2.48}, {'imgObject': {}, 'id': 'cocktailshrimp', 'src': '/static/foodstim60/cocktailshrimp.jpg', 'key': 'i', 'origWidth': 410, 'origHeight': 410, 'width': 410, 'height': 410, 'widthPercent': 0.45, 'rescaleHeight': False, 'trialN': 46, 'loaded': True, 'loadedTime': 2660.7999999523163, 'positionName': 'RIGHT', 'positionCoords': [768.04, 210.5], 'bid': 1.94}]",69477.29999995232,1669840720482,corn cob,cocktailshrimp,2.48,1.94,-0.54,cocktailshrimp,911.0,911,911.2999999523163,True,i,70897.5,1420.2000000476837,1669840721902,1420,HRV,HRV_0283,2022-11-30 20:41:46
47,"[{'imgObject': {}, 'id': 'salad w chicken', 'src': '/static/foodstim60/salad w chicken.jpg', 'key': 'u', 'origWidth': 411, 'origHeight': 411, 'width': 411, 'height': 411, 'widthPercent': 0.45, 'rescaleHeight': False, 'trialN': 47, 'loaded': True, 'loadedTime': 2651.5999999046326, 'positionName': 'LEFT', 'positionCoords': [297.96, 210], 'bid': 1.26}, {'imgObject': {}, 'id': 'raisin bran w milk', 'src': '/static/foodstim60/raisin bran w milk.jpg', 'key': 'i', 'origWidth': 411, 'origHeight': 411, 'width': 411, 'height': 411, 'widthPercent': 0.45, 'rescaleHeight': False, 'trialN': 47, 'loaded': True, 'loadedTime': 2733.0999999046326, 'positionName': 'RIGHT', 'positionCoords': [768.04, 210], 'bid': 0.19}]",70897.70000004768,1669840721902,salad w chicken,raisin bran w milk,1.26,0.19,-1.07,salad w chicken,690.2999999523163,691,690.5999999046326,True,u,72098.39999985695,1200.6999998092651,1669840723103,1201,HRV,HRV_0283,2022-11-30 20:41:46
48,"[{'imgObject': {}, 'id': 'salmon', 'src': '/static/foodstim60/salmon.jpg', 'key': 'u', 'origWidth': 410, 'origHeight': 409, 'width': 410, 'height': 409, 'widthPercent': 0.45, 'rescaleHeight': False, 'trialN': 48, 'loaded': True, 'loadedTime': 2397.5999999046326, 'positionName': 'LEFT', 'positionCoords': [298.96, 211], 'bid': 2.25}, {'imgObject': {}, 'id': 'steak', 'src': '/static/foodstim60/steak.jpg', 'key': 'i', 'origWidth': 410, 'origHeight': 410, 'width': 410, 'height': 410, 'widthPercent': 0.45, 'rescaleHeight': False, 'trialN': 48, 'loaded': True, 'loadedTime': 2549.7999999523163, 'positionName': 'RIGHT', 'positionCoords': [768.04, 210.5], 'bid': 5.8}]",72098.5,1669840723103,salmon,steak,2.25,5.8,3.55,steak,810.2000000476837,811,810.5,True,i,73422.59999990463,1324.0999999046326,1669840724427,1324,HRV,HRV_0283,2022-11-30 20:41:46
49,"[{'imgObject': {}, 'id': 'cherry tomato', 'src': '/static/foodstim60/cherry tomato.jpg', 'key': 'u', 'origWidth': 410, 'origHeight': 410, 'width': 410, 'height': 410, 'widthPercent': 0.45, 'rescaleHeight': False, 'trialN': 49, 'loaded': True, 'loadedTime': 2499.5999999046326, 'positionName': 'LEFT', 'positionCoords': [298.96, 210.5], 'bid': 0.49}, {'imgObject': {}, 'id': 'raisin bran w milk', 'src': '/static/foodstim60/raisin bran w milk.jpg', 'key': 'i', 'origWidth': 411, 'origHeight': 411, 'width': 411, 'height': 411, 'widthPercent': 0.45, 'rescaleHeight': False, 'trialN': 49, 'loaded': True, 'loadedTime': 2733.2000000476837, 'positionName': 'RIGHT', 'positionCoords': [768.04, 210], 'bid': 0.19}]",73422.79999995232,1669840724427,cherry tomato,raisin bran w milk,0.49,0.19,-0.3,raisin bran w milk,828.9000000953674,830,829.2999999523163,True,i,74762.70000004768,1339.9000000953674,1669840725767,1340,HRV,HRV_0283,2022-11-30 20:41:46
50,"[{'imgObject': {}, 'id': 'veggieswithdip', 'src': '/static/foodstim60/veggieswithdip.jpg', 'key': 'u', 'origWidth': 409, 'origHeight': 409, 'width': 409, 'height': 409, 'widthPercent': 0.45, 'rescaleHeight': False, 'trialN': 50, 'loaded': True, 'loadedTime': 2621.899999856949, 'positionName': 'LEFT', 'positionCoords': [299.96, 211], 'bid': 1.17}, {'imgObject': {}, 'id': 'cantaloupe', 'src': '/static/foodstim60/cantaloupe.jpg', 'key': 'i', 'origWidth': 409, 'origHeight': 409, 'width': 409, 'height': 409, 'widthPercent': 0.45, 'rescaleHeight': False, 'trialN': 50, 'loaded': True, 'loadedTime': 2673.2999999523163, 'positionName': 'RIGHT', 'positionCoords': [768.04, 211], 'bid': 0.86}]",74762.79999995232,1669840725767,veggieswithdip,cantaloupe,1.17,0.86,-0.30999999999999994,veggieswithdip,1049.2999999523163,1050,1049.5999999046326,True,u,76322.59999990463,1559.7999999523163,1669840727327,1560,HRV,HRV_0283,2022-11-30 20:41:46
51,"[{'imgObject': {}, 'id': 'turkey sandwich', 'src': '/static/foodstim60/turkey sandwich.jpg', 'key': 'u', 'origWidth': 409, 'origHeight': 409, 'width': 409, 'height': 409, 'widthPercent': 0.45, 'rescaleHeight': False, 'trialN': 51, 'loaded': True, 'loadedTime': 2436.7999999523163, 'positionName': 'LEFT', 'positionCoords': [299.96, 211], 'bid': 3.54}, {'imgObject': {}, 'id': 'blackbeanswithrice', 'src': '/static/foodstim60/blackbeanswithrice.jpg', 'key': 'i', 'origWidth': 410, 'origHeight': 410, 'width': 410, 'height': 410, 'widthPercent': 0.45, 'rescaleHeight': False, 'trialN': 51, 'loaded': True, 'loadedTime': 2641.5999999046326, 'positionName': 'RIGHT', 'positionCoords': [768.04, 210.5], 'bid': 3.5}]",76322.79999995232,1669840727328,turkey sandwich,blackbeanswithrice,3.54,3.5,-0.040000000000000036,turkey sandwich,681.4000000953674,681,681.7000000476837,True,u,77521.70000004768,1198.9000000953674,1669840728526,1198,HRV,HRV_0283,2022-11-30 20:41:46
52,"[{'imgObject': {}, 'id': 'orange slices', 'src': '/static/foodstim60/orange slices.jpg', 'key': 'u', 'origWidth': 409, 'origHeight': 410, 'width': 409, 'height': 410, 'widthPercent': 0.45, 'rescaleHeight': False, 'trialN': 52, 'loaded': True, 'loadedTime': 2395.2999999523163, 'positionName': 'LEFT', 'positionCoords': [299.96, 210.5], 'bid': 0.49}, {'imgObject': {}, 'id': 'raspberries', 'src': '/static/foodstim60/raspberries.jpg', 'key': 'i', 'origWidth': 411, 'origHeight': 411, 'width': 411, 'height': 411, 'widthPercent': 0.45, 'rescaleHeight': False, 'trialN': 52, 'loaded': True, 'loadedTime': 2664.0999999046326, 'positionName': 'RIGHT', 'positionCoords': [768.04, 210], 'bid': 1.06}]",77521.89999985695,1669840728527,orange slices,raspberries,0.49,1.06,0.5700000000000001,orange slices,786.2000000476837,786,786.5,True,u,78813.89999985695,1292.0,1669840729819,1292,HRV,HRV_0283,2022-11-30 20:41:46
53,"[{'imgObject': {}, 'id': 'luckycharms', 'src': '/static/foodstim60/luckycharms.jpg', 'key': 'u', 'origWidth': 410, 'origHeight': 409, 'width': 410, 'height': 409, 'widthPercent': 0.45, 'rescaleHeight': False, 'trialN': 53, 'loaded': True, 'loadedTime': 2679.899999856949, 'positionName': 'LEFT', 'positionCoords': [298.96, 211], 'bid': 0.38}, {'imgObject': {}, 'id': 'hashbrowns', 'src': '/static/foodstim60/hashbrowns.jpg', 'key': 'i', 'origWidth': 411, 'origHeight': 410, 'width': 411, 'height': 410, 'widthPercent': 0.45, 'rescaleHeight': False, 'trialN': 53, 'loaded': True, 'loadedTime': 2493.2000000476837, 'positionName': 'RIGHT', 'positionCoords': [768.04, 210.5], 'bid': 0.84}]",78814.09999990463,1669840729819,luckycharms,hashbrowns,0.38,0.84,0.45999999999999996,hashbrowns,901.9000000953674,902,902.1000001430511,True,i,80225.59999990463,1411.5,1669840731230,1411,HRV,HRV_0283,2022-11-30 20:41:46
54,"[{'imgObject': {}, 'id': 'mac & cheese', 'src': '/static/foodstim60/mac & cheese.jpg', 'key': 'u', 'origWidth': 410, 'origHeight': 410, 'width': 410, 'height': 410, 'widthPercent': 0.45, 'rescaleHeight': False, 'trialN': 54, 'loaded': True, 'loadedTime': 2690.2999999523163, 'positionName': 'LEFT', 'positionCoords': [298.96, 210.5], 'bid': 0.28}, {'imgObject': {}, 'id': 'lox', 'src': '/static/foodstim60/lox.jpg', 'key': 'i', 'origWidth': 410, 'origHeight': 411, 'width': 410, 'height': 411, 'widthPercent': 0.45, 'rescaleHeight': False, 'trialN': 54, 'loaded': True, 'loadedTime': 2474.5, 'positionName': 'RIGHT', 'positionCoords': [768.04, 210], 'bid': 0.3}]",80225.79999995232,1669840731230,mac & cheese,lox,0.28,0.3,0.019999999999999962,lox,1018.2999999523163,1019,1018.5,True,i,81759.59999990463,1533.7999999523163,1669840732764,1534,HRV,HRV_0283,2022-11-30 20:41:46
55,"[{'imgObject': {}, 'id': 'steak', 'src': '/static/foodstim60/steak.jpg', 'key': 'u', 'origWidth': 410, 'origHeight': 410, 'width': 410, 'height': 410, 'widthPercent': 0.45, 'rescaleHeight': False, 'trialN': 55, 'loaded': True, 'loadedTime': 2551.5999999046326, 'positionName': 'LEFT', 'positionCoords': [298.96, 210.5], 'bid': 5.8}, {'imgObject': {}, 'id': 'raspberries', 'src': '/static/foodstim60/raspberries.jpg', 'key': 'i', 'origWidth': 411, 'origHeight': 411, 'width': 411, 'height': 411, 'widthPercent': 0.45, 'rescaleHeight': False, 'trialN': 55, 'loaded': True, 'loadedTime': 2664.0999999046326, 'positionName': 'RIGHT', 'positionCoords': [768.04, 210], 'bid': 1.06}]",81759.70000004768,1669840732764,steak,raspberries,5.8,1.06,-4.74,steak,780.5,781,780.7999999523163,True,u,83059.39999985695,1299.6999998092651,1669840734064,1300,HRV,HRV_0283,2022-11-30 20:41:46
56,"[{'imgObject': {}, 'id': 'hashbrowns', 'src': '/static/foodstim60/hashbrowns.jpg', 'key': 'u', 'origWidth': 411, 'origHeight': 410, 'width': 411, 'height': 410, 'widthPercent': 0.45, 'rescaleHeight': False, 'trialN': 56, 'loaded': True, 'loadedTime': 2492.899999856949, 'positionName': 'LEFT', 'positionCoords': [297.96, 210.5], 'bid': 0.84}, {'imgObject': {}, 'id': 'froot loops w milk', 'src': '/static/foodstim60/froot loops w milk.jpg', 'key': 'i', 'origWidth': 410, 'origHeight': 410, 'width': 410, 'height': 410, 'widthPercent': 0.45, 'rescaleHeight': False, 'trialN': 56, 'loaded': True, 'loadedTime': 2532.5, 'positionName': 'RIGHT', 'positionCoords': [768.04, 210.5], 'bid': 0.8300000000000001}]",83059.70000004768,1669840734064,hashbrowns,froot loops w milk,0.84,0.8300000000000001,-0.009999999999999898,hashbrowns,792.1999998092651,793,792.5999999046326,True,u,84365.09999990463,1305.3999998569489,1669840735370,1306,HRV,HRV_0283,2022-11-30 20:41:46
57,"[{'imgObject': {}, 'id': 'cheerios', 'src': '/static/foodstim60/cheerios.jpg', 'key': 'u', 'origWidth': 409, 'origHeight': 410, 'width': 409, 'height': 410, 'widthPercent': 0.45, 'rescaleHeight': False, 'trialN': 57, 'loaded': True, 'loadedTime': 2464.899999856949, 'positionName': 'LEFT', 'positionCoords': [299.96, 210.5], 'bid': 1.28}, {'imgObject': {}, 'id': 'burger', 'src': '/static/foodstim60/burger.jpg', 'key': 'i', 'origWidth': 409, 'origHeight': 409, 'width': 409, 'height': 409, 'widthPercent': 0.45, 'rescaleHeight': False, 'trialN': 57, 'loaded': True, 'loadedTime': 2692.2999999523163, 'positionName': 'RIGHT', 'positionCoords': [768.04, 211], 'bid': 3.25}]",84365.5,1669840735370,cheerios,burger,1.28,3.25,1.97,burger,726.5,727,726.7999999523163,True,i,85601.20000004768,1235.7000000476837,1669840736606,1236,HRV,HRV_0283,2022-11-30 20:41:46
58,"[{'imgObject': {}, 'id': 'apple slices', 'src': '/static/foodstim60/apple slices.jpg', 'key': 'u', 'origWidth': 409, 'origHeight': 410, 'width': 409, 'height': 410, 'widthPercent': 0.45, 'rescaleHeight': False, 'trialN': 58, 'loaded': True, 'loadedTime': 2452.5999999046326, 'positionName': 'LEFT', 'positionCoords': [299.96, 210.5], 'bid': 1.94}, {'imgObject': {}, 'id': 'sushi w_condiments', 'src': '/static/foodstim60/sushi w_condiments.jpg', 'key': 'i', 'origWidth': 410, 'origHeight': 410, 'width': 410, 'height': 410, 'widthPercent': 0.45, 'rescaleHeight': False, 'trialN': 58, 'loaded': True, 'loadedTime': 2425.5, 'positionName': 'RIGHT', 'positionCoords': [768.04, 210.5], 'bid': 2.54}]",85601.59999990463,1669840736606,apple slices,sushi w_condiments,1.94,2.54,0.6000000000000001,sushi w_condiments,754.6000001430511,755,754.9000000953674,True,i,86866.39999985695,1264.7999999523163,1669840737871,1265,HRV,HRV_0283,2022-11-30 20:41:46
59,"[{'imgObject': {}, 'id': 'chickenfingers', 'src': '/static/foodstim60/chickenfingers.jpg', 'key': 'u', 'origWidth': 410, 'origHeight': 410, 'width': 410, 'height': 410, 'widthPercent': 0.45, 'rescaleHeight': False, 'trialN': 59, 'loaded': True, 'loadedTime': 2630.2999999523163, 'positionName': 'LEFT', 'positionCoords': [298.96, 210.5], 'bid': 4.11}, {'imgObject': {}, 'id': 'bagel plain', 'src': '/static/foodstim60/bagel plain.jpg', 'key': 'i', 'origWidth': 410, 'origHeight': 410, 'width': 410, 'height': 410, 'widthPercent': 0.45, 'rescaleHeight': False, 'trialN': 59, 'loaded': True, 'loadedTime': 2407.5, 'positionName': 'RIGHT', 'positionCoords': [768.04, 210.5], 'bid': 0.89}]",86866.5,1669840737871,chickenfingers,bagel plain,4.11,0.89,-3.22,chickenfingers,1257.5,1258,1257.7999999523163,True,u,88629.20000004768,1762.7000000476837,1669840739634,1763,HRV,HRV_0283,2022-11-30 20:41:46
60,"[{'imgObject': {}, 'id': 'chickenfingers', 'src': '/static/foodstim60/chickenfingers.jpg', 'key': 'u', 'origWidth': 410, 'origHeight': 410, 'width': 410, 'height': 410, 'widthPercent': 0.45, 'rescaleHeight': False, 'trialN': 60, 'loaded': True, 'loadedTime': 2623.399999856949, 'positionName': 'LEFT', 'positionCoords': [298.96, 210.5], 'bid': 4.11}, {'imgObject': {}, 'id': 'roastedpotatoes', 'src': '/static/foodstim60/roastedpotatoes.jpg', 'key': 'i', 'origWidth': 409, 'origHeight': 410, 'width': 409, 'height': 410, 'widthPercent': 0.45, 'rescaleHeight': False, 'trialN': 60, 'loaded': True, 'loadedTime': 2541.399999856949, 'positionName': 'RIGHT', 'positionCoords': [768.04, 210.5], 'bid': 3.73}]",88629.39999985695,1669840739634,chickenfingers,roastedpotatoes,4.11,3.73,-0.38000000000000034,chickenfingers,990.9000000953674,991,991.3000001907349,True,u,90132.59999990463,1503.2000000476837,1669840741137,1503,HRV,HRV_0283,2022-11-30 20:41:46
61,"[{'imgObject': {}, 'id': 'veggieswithdip', 'src': '/static/foodstim60/veggieswithdip.jpg', 'key': 'u', 'origWidth': 409, 'origHeight': 409, 'width': 409, 'height': 409, 'widthPercent': 0.45, 'rescaleHeight': False, 'trialN': 61, 'loaded': True, 'loadedTime': 2622.2999999523163, 'positionName': 'LEFT', 'positionCoords': [299.96, 211], 'bid': 1.17}, {'imgObject': {}, 'id': 'edamame', 'src': '/static/foodstim60/edamame.jpg', 'key': 'i', 'origWidth': 409, 'origHeight': 410, 'width': 409, 'height': 410, 'widthPercent': 0.45, 'rescaleHeight': False, 'trialN': 61, 'loaded': True, 'loadedTime': 2708, 'positionName': 'RIGHT', 'positionCoords': [768.04, 210.5], 'bid': 1.24}]",90132.89999985695,1669840741138,veggieswithdip,edamame,1.17,1.24,0.07000000000000006,veggieswithdip,799.2000000476837,799,799.5,True,u,91441.89999985695,1309.0,1669840742447,1309,HRV,HRV_0283,2022-11-30 20:41:46
62,"[{'imgObject': {}, 'id': 'orange slices', 'src': '/static/foodstim60/orange slices.jpg', 'key': 'u', 'origWidth': 409, 'origHeight': 410, 'width': 409, 'height': 410, 'widthPercent': 0.45, 'rescaleHeight': False, 'trialN': 62, 'loaded': True, 'loadedTime': 2384.7000000476837, 'positionName': 'LEFT', 'positionCoords': [299.96, 210.5], 'bid': 0.49}, {'imgObject': {}, 'id': 'burrito', 'src': '/static/foodstim60/burrito.jpg', 'key': 'i', 'origWidth': 410, 'origHeight': 410, 'width': 410, 'height': 410, 'widthPercent': 0.45, 'rescaleHeight': False, 'trialN': 62, 'loaded': True, 'loadedTime': 2500.7000000476837, 'positionName': 'RIGHT', 'positionCoords': [768.04, 210.5], 'bid': 0.52}]",91442.0,1669840742447,orange slices,burrito,0.49,0.52,0.030000000000000027,burrito,809.8999998569489,809,810.0999999046326,True,i,92772.39999985695,1330.3999998569489,1669840743776,1329,HRV,HRV_0283,2022-11-30 20:41:46
63,"[{'imgObject': {}, 'id': 'edamame', 'src': '/static/foodstim60/edamame.jpg', 'key': 'u', 'origWidth': 409, 'origHeight': 410, 'width': 409, 'height': 410, 'widthPercent': 0.45, 'rescaleHeight': False, 'trialN': 63, 'loaded': True, 'loadedTime': 2708.0999999046326, 'positionName': 'LEFT', 'positionCoords': [299.96, 210.5], 'bid': 1.24}, {'imgObject': {}, 'id': 'bagel plain', 'src': '/static/foodstim60/bagel plain.jpg', 'key': 'i', 'origWidth': 410, 'origHeight': 410, 'width': 410, 'height': 410, 'widthPercent': 0.45, 'rescaleHeight': False, 'trialN': 63, 'loaded': True, 'loadedTime': 2415.7999999523163, 'positionName': 'RIGHT', 'positionCoords': [768.04, 210.5], 'bid': 0.89}]",92772.59999990463,1669840743777,edamame,bagel plain,1.24,0.89,-0.35,bagel plain,807.6000001430511,808,808.0,True,i,94093.89999985695,1321.2999999523163,1669840745098,1321,HRV,HRV_0283,2022-11-30 20:41:46
64,"[{'imgObject': {}, 'id': 'eggsalad', 'src': '/static/foodstim60/eggsalad.jpg', 'key': 'u', 'origWidth': 410, 'origHeight': 409, 'width': 410, 'height': 409, 'widthPercent': 0.45, 'rescaleHeight': False, 'trialN': 64, 'loaded': True, 'loadedTime': 2508.7999999523163, 'positionName': 'LEFT', 'positionCoords': [298.96, 211], 'bid': 0.72}, {'imgObject': {}, 'id': 'turkey sandwich', 'src': '/static/foodstim60/turkey sandwich.jpg', 'key': 'i', 'origWidth': 409, 'origHeight': 409, 'width': 409, 'height': 409, 'widthPercent': 0.45, 'rescaleHeight': False, 'trialN': 64, 'loaded': True, 'loadedTime': 2435.7000000476837, 'positionName': 'RIGHT', 'positionCoords': [768.04, 211], 'bid': 3.54}]",94094.20000004768,1669840745098,eggsalad,turkey sandwich,0.72,3.54,2.8200000000000003,turkey sandwich,885.8999998569489,886,886.2999999523163,True,i,95493.0,1398.7999999523163,1669840746497,1399,HRV,HRV_0283,2022-11-30 20:41:46
65,"[{'imgObject': {}, 'id': 'Grapes', 'src': '/static/foodstim60/Grapes.jpg', 'key': 'u', 'origWidth': 411, 'origHeight': 411, 'width': 411, 'height': 411, 'widthPercent': 0.45, 'rescaleHeight': False, 'trialN': 65, 'loaded': True, 'loadedTime': 2424.899999856949, 'positionName': 'LEFT', 'positionCoords': [297.96, 210], 'bid': 1.67}, {'imgObject': {}, 'id': 'salmon', 'src': '/static/foodstim60/salmon.jpg', 'key': 'i', 'origWidth': 410, 'origHeight': 409, 'width': 410, 'height': 409, 'widthPercent': 0.45, 'rescaleHeight': False, 'trialN': 65, 'loaded': True, 'loadedTime': 2405.2000000476837, 'positionName': 'RIGHT', 'positionCoords': [768.04, 211], 'bid': 2.25}]",95493.29999995232,1669840746497,Grapes,salmon,1.67,2.25,0.5800000000000001,salmon,750.2999999523163,751,750.5999999046326,True,i,96756.0,1262.7000000476837,1669840747760,1263,HRV,HRV_0283,2022-11-30 20:41:46
66,"[{'imgObject': {}, 'id': 'eggs', 'src': '/static/foodstim60/eggs.jpg', 'key': 'u', 'origWidth': 409, 'origHeight': 409, 'width': 409, 'height': 409, 'widthPercent': 0.45, 'rescaleHeight': False, 'trialN': 66, 'loaded': True, 'loadedTime': 2732.0999999046326, 'positionName': 'LEFT', 'positionCoords': [299.96, 211], 'bid': 0.22}, {'imgObject': {}, 'id': 'granola w milk', 'src': '/static/foodstim60/granola w milk.jpg', 'key': 'i', 'origWidth': 410, 'origHeight': 410, 'width': 410, 'height': 410, 'widthPercent': 0.45, 'rescaleHeight': False, 'trialN': 66, 'loaded': True, 'loadedTime': 2711.399999856949, 'positionName': 'RIGHT', 'positionCoords': [768.04, 210.5], 'bid': 0.41}]",96756.09999990463,1669840747760,eggs,granola w milk,0.22,0.41,0.18999999999999997,granola w milk,768.2000000476837,769,768.5,True,i,98031.09999990463,1275.0,1669840749035,1275,HRV,HRV_0283,2022-11-30 20:41:46
67,"[{'imgObject': {}, 'id': 'hotdog w must', 'src': '/static/foodstim60/hotdog w must.jpg', 'key': 'u', 'origWidth': 409, 'origHeight': 409, 'width': 409, 'height': 409, 'widthPercent': 0.45, 'rescaleHeight': False, 'trialN': 67, 'loaded': True, 'loadedTime': 2560.7999999523163, 'positionName': 'LEFT', 'positionCoords': [299.96, 211], 'bid': 1.55}, {'imgObject': {}, 'id': 'turkey sandwich', 'src': '/static/foodstim60/turkey sandwich.jpg', 'key': 'i', 'origWidth': 409, 'origHeight': 409, 'width': 409, 'height': 409, 'widthPercent': 0.45, 'rescaleHeight': False, 'trialN': 67, 'loaded': True, 'loadedTime': 2445, 'positionName': 'RIGHT', 'positionCoords': [768.04, 211], 'bid': 3.54}]",98031.20000004768,1669840749035,hotdog w must,turkey sandwich,1.55,3.54,1.99,turkey sandwich,693.0,693,693.2999999523163,True,i,99238.29999995232,1207.0999999046326,1669840750242,1207,HRV,HRV_0283,2022-11-30 20:41:46
68,"[{'imgObject': {}, 'id': 'eggsalad', 'src': '/static/foodstim60/eggsalad.jpg', 'key': 'u', 'origWidth': 410, 'origHeight': 409, 'width': 410, 'height': 409, 'widthPercent': 0.45, 'rescaleHeight': False, 'trialN': 68, 'loaded': True, 'loadedTime': 2507.7000000476837, 'positionName': 'LEFT', 'positionCoords': [298.96, 211], 'bid': 0.72}, {'imgObject': {}, 'id': 'strawberries', 'src': '/static/foodstim60/strawberries.jpg', 'key': 'i', 'origWidth': 410, 'origHeight': 410, 'width': 410, 'height': 410, 'widthPercent': 0.45, 'rescaleHeight': False, 'trialN': 68, 'loaded': True, 'loadedTime': 2709.899999856949, 'positionName': 'RIGHT', 'positionCoords': [768.04, 210.5], 'bid': 0.68}]",99238.59999990463,1669840750243,eggsalad,strawberries,0.72,0.68,-0.039999999999999925,eggsalad,949.6000001430511,950,950.0,True,u,100703.5,1464.9000000953674,1669840751707,1464,HRV,HRV_0283,2022-11-30 20:41:46
69,"[{'imgObject': {}, 'id': 'cantaloupe', 'src': '/static/foodstim60/cantaloupe.jpg', 'key': 'u', 'origWidth': 409, 'origHeight': 409, 'width': 409, 'height': 409, 'widthPercent': 0.45, 'rescaleHeight': False, 'trialN': 69, 'loaded': True, 'loadedTime': 2673, 'positionName': 'LEFT', 'positionCoords': [299.96, 211], 'bid': 0.86}, {'imgObject': {}, 'id': 'tacos', 'src': '/static/foodstim60/tacos.jpg', 'key': 'i', 'origWidth': 411, 'origHeight': 411, 'width': 411, 'height': 411, 'widthPercent': 0.45, 'rescaleHeight': False, 'trialN': 69, 'loaded': True, 'loadedTime': 2693.7000000476837, 'positionName': 'RIGHT', 'positionCoords': [768.04, 210], 'bid': 1.31}]",100703.79999995232,1669840751708,cantaloupe,tacos,0.86,1.31,0.45000000000000007,cantaloupe,932.2000000476837,932,932.4000000953674,True,u,102153.39999985695,1449.5999999046326,1669840753157,1449,HRV,HRV_0283,2022-11-30 20:41:46
70,"[{'imgObject': {}, 'id': 'omelette', 'src': '/static/foodstim60/omelette.jpg', 'key': 'u', 'origWidth': 410, 'origHeight': 409, 'width': 410, 'height': 409, 'widthPercent': 0.45, 'rescaleHeight': False, 'trialN': 70, 'loaded': True, 'loadedTime': 2736.399999856949, 'positionName': 'LEFT', 'positionCoords': [298.96, 211], 'bid': 0.34}, {'imgObject': {}, 'id': 'froot loops w milk', 'src': '/static/foodstim60/froot loops w milk.jpg', 'key': 'i', 'origWidth': 410, 'origHeight': 410, 'width': 410, 'height': 410, 'widthPercent': 0.45, 'rescaleHeight': False, 'trialN': 70, 'loaded': True, 'loadedTime': 2541.2999999523163, 'positionName': 'RIGHT', 'positionCoords': [768.04, 210.5], 'bid': 0.8300000000000001}]",102153.70000004768,1669840753158,omelette,froot loops w milk,0.34,0.8300000000000001,0.49000000000000005,omelette,882.1999998092651,882,882.5999999046326,True,u,103543.29999995232,1389.5999999046326,1669840754547,1389,HRV,HRV_0283,2022-11-30 20:41:46
71,"[{'imgObject': {}, 'id': 'raspberries', 'src': '/static/foodstim60/raspberries.jpg', 'key': 'u', 'origWidth': 411, 'origHeight': 411, 'width': 411, 'height': 411, 'widthPercent': 0.45, 'rescaleHeight': False, 'trialN': 71, 'loaded': True, 'loadedTime': 2663, 'positionName': 'LEFT', 'positionCoords': [297.96, 210], 'bid': 1.06}, {'imgObject': {}, 'id': 'tacos', 'src': '/static/foodstim60/tacos.jpg', 'key': 'i', 'origWidth': 411, 'origHeight': 411, 'width': 411, 'height': 411, 'widthPercent': 0.45, 'rescaleHeight': False, 'trialN': 71, 'loaded': True, 'loadedTime': 2693.7999999523163, 'positionName': 'RIGHT', 'positionCoords': [768.04, 210], 'bid': 1.31}]",103543.5,1669840754547,raspberries,tacos,1.06,1.31,0.25,tacos,844.5,845,844.7000000476837,True,i,104900.39999985695,1356.8999998569489,1669840755904,1357,HRV,HRV_0283,2022-11-30 20:41:46
72,"[{'imgObject': {}, 'id': 'fried eggs', 'src': '/static/foodstim60/fried eggs.jpg', 'key': 'u', 'origWidth': 410, 'origHeight': 410, 'width': 410, 'height': 410, 'widthPercent': 0.45, 'rescaleHeight': False, 'trialN': 72, 'loaded': True, 'loadedTime': 2610.5, 'positionName': 'LEFT', 'positionCoords': [298.96, 210.5], 'bid': 0.55}, {'imgObject': {}, 'id': 'shreddedwheatwithmilk', 'src': '/static/foodstim60/shreddedwheatwithmilk.jpg', 'key': 'i', 'origWidth': 410, 'origHeight': 410, 'width': 410, 'height': 410, 'widthPercent': 0.45, 'rescaleHeight': False, 'trialN': 72, 'loaded': True, 'loadedTime': 2719.899999856949, 'positionName': 'RIGHT', 'positionCoords': [768.04, 210.5], 'bid': 0.63}]",104900.5,1669840755905,fried eggs,shreddedwheatwithmilk,0.55,0.63,0.07999999999999996,fried eggs,825.2999999523163,825,825.5,True,u,106240.09999990463,1339.5999999046326,1669840757244,1339,HRV,HRV_0283,2022-11-30 20:41:46
73,"[{'imgObject': {}, 'id': 'mashed potato', 'src': '/static/foodstim60/mashed potato.jpg', 'key': 'u', 'origWidth': 409, 'origHeight': 409, 'width': 409, 'height': 409, 'widthPercent': 0.45, 'rescaleHeight': False, 'trialN': 73, 'loaded': True, 'loadedTime': 2695.2999999523163, 'positionName': 'LEFT', 'positionCoords': [299.96, 211], 'bid': 0.55}, {'imgObject': {}, 'id': 'bagel and cc', 'src': '/static/foodstim60/bagel and cc.jpg', 'key': 'i', 'origWidth': 410, 'origHeight': 410, 'width': 410, 'height': 410, 'widthPercent': 0.45, 'rescaleHeight': False, 'trialN': 73, 'loaded': True, 'loadedTime': 2719.7999999523163, 'positionName': 'RIGHT', 'positionCoords': [768.04, 210.5], 'bid': 0.67}]",106240.5,1669840757244,mashed potato,bagel and cc,0.55,0.67,0.12,mashed potato,780.0999999046326,781,780.5,True,u,107535.59999990463,1295.0999999046326,1669840758540,1296,HRV,HRV_0283,2022-11-30 20:41:46
74,"[{'imgObject': {}, 'id': 'rigatoni', 'src': '/static/foodstim60/rigatoni.jpg', 'key': 'u', 'origWidth': 411, 'origHeight': 411, 'width': 411, 'height': 411, 'widthPercent': 0.45, 'rescaleHeight': False, 'trialN': 74, 'loaded': True, 'loadedTime': 2519.5, 'positionName': 'LEFT', 'positionCoords': [297.96, 210], 'bid': 0.49}, {'imgObject': {}, 'id': 'blueberries', 'src': '/static/foodstim60/blueberries.jpg', 'key': 'i', 'origWidth': 411, 'origHeight': 411, 'width': 411, 'height': 411, 'widthPercent': 0.45, 'rescaleHeight': False, 'trialN': 74, 'loaded': True, 'loadedTime': 2665, 'positionName': 'RIGHT', 'positionCoords': [768.04, 210], 'bid': 1.09}]",107535.89999985695,1669840758540,rigatoni,blueberries,0.49,1.09,0.6000000000000001,blueberries,828.2000000476837,828,828.5,True,i,108874.0,1338.1000001430511,1669840759878,1338,HRV,HRV_0283,2022-11-30 20:41:46
75,"[{'imgObject': {}, 'id': 'cantaloupe', 'src': '/static/foodstim60/cantaloupe.jpg', 'key': 'u', 'origWidth': 409, 'origHeight': 409, 'width': 409, 'height': 409, 'widthPercent': 0.45, 'rescaleHeight': False, 'trialN': 75, 'loaded': True, 'loadedTime': 2673.0999999046326, 'positionName': 'LEFT', 'positionCoords': [299.96, 211], 'bid': 0.86}, {'imgObject': {}, 'id': 'banana', 'src': '/static/foodstim60/banana.jpg', 'key': 'i', 'origWidth': 410, 'origHeight': 410, 'width': 410, 'height': 410, 'widthPercent': 0.45, 'rescaleHeight': False, 'trialN': 75, 'loaded': True, 'loadedTime': 2747.2000000476837, 'positionName': 'RIGHT', 'positionCoords': [768.04, 210.5], 'bid': 0.95}]",108874.09999990463,1669840759878,cantaloupe,banana,0.86,0.95,0.08999999999999997,cantaloupe,1017.6000001430511,1018,1018.0,True,u,110400.70000004768,1526.6000001430511,1669840761405,1527,HRV,HRV_0283,2022-11-30 20:41:46
76,"[{'imgObject': {}, 'id': 'fried eggs', 'src': '/static/foodstim60/fried eggs.jpg', 'key': 'u', 'origWidth': 410, 'origHeight': 410, 'width': 410, 'height': 410, 'widthPercent': 0.45, 'rescaleHeight': False, 'trialN': 76, 'loaded': True, 'loadedTime': 2610.7000000476837, 'positionName': 'LEFT', 'positionCoords': [298.96, 210.5], 'bid': 0.55}, {'imgObject': {}, 'id': 'olives', 'src': '/static/foodstim60/olives.jpg', 'key': 'i', 'origWidth': 410, 'origHeight': 410, 'width': 410, 'height': 410, 'widthPercent': 0.45, 'rescaleHeight': False, 'trialN': 76, 'loaded': True, 'loadedTime': 2710.7999999523163, 'positionName': 'RIGHT', 'positionCoords': [768.04, 210.5], 'bid': 0.11}]",110401.09999990463,1669840761405,fried eggs,olives,0.55,0.11,-0.44000000000000006,fried eggs,762.7999999523163,763,763.2000000476837,True,u,111684.09999990463,1283.0,1669840762688,1283,HRV,HRV_0283,2022-11-30 20:41:46
77,"[{'imgObject': {}, 'id': 'cherry tomato', 'src': '/static/foodstim60/cherry tomato.jpg', 'key': 'u', 'origWidth': 410, 'origHeight': 410, 'width': 410, 'height': 410, 'widthPercent': 0.45, 'rescaleHeight': False, 'trialN': 77, 'loaded': True, 'loadedTime': 2500.0999999046326, 'positionName': 'LEFT', 'positionCoords': [298.96, 210.5], 'bid': 0.49}, {'imgObject': {}, 'id': 'baked potato', 'src': '/static/foodstim60/baked potato.jpg', 'key': 'i', 'origWidth': 409, 'origHeight': 410, 'width': 409, 'height': 410, 'widthPercent': 0.45, 'rescaleHeight': False, 'trialN': 77, 'loaded': True, 'loadedTime': 2748.399999856949, 'positionName': 'RIGHT', 'positionCoords': [768.04, 210.5], 'bid': 0.98}]",111684.29999995232,1669840762688,cherry tomato,baked potato,0.49,0.98,0.49,baked potato,944.5,945,944.9000000953674,True,i,113135.70000004768,1451.4000000953674,1669840764140,1452,HRV,HRV_0283,2022-11-30 20:41:46
78,"[{'imgObject': {}, 'id': 'roastedpotatoes', 'src': '/static/foodstim60/roastedpotatoes.jpg', 'key': 'u', 'origWidth': 409, 'origHeight': 410, 'width': 409, 'height': 410, 'widthPercent': 0.45, 'rescaleHeight': False, 'trialN': 78, 'loaded': True, 'loadedTime': 2542.5, 'positionName': 'LEFT', 'positionCoords': [299.96, 210.5], 'bid': 3.73}, {'imgObject': {}, 'id': 'fruitsalad', 'src': '/static/foodstim60/fruitsalad.jpg', 'key': 'i', 'origWidth': 410, 'origHeight': 410, 'width': 410, 'height': 410, 'widthPercent': 0.45, 'rescaleHeight': False, 'trialN': 78, 'loaded': True, 'loadedTime': 2453.7000000476837, 'positionName': 'RIGHT', 'positionCoords': [768.04, 210.5], 'bid': 2.4}]",113135.89999985695,1669840764140,roastedpotatoes,fruitsalad,3.73,2.4,-1.33,roastedpotatoes,708.0,708,708.4000000953674,True,u,114350.79999995232,1214.9000000953674,1669840765355,1215,HRV,HRV_0283,2022-11-30 20:41:46
79,"[{'imgObject': {}, 'id': 'luckycharms', 'src': '/static/foodstim60/luckycharms.jpg', 'key': 'u', 'origWidth': 410, 'origHeight': 409, 'width': 410, 'height': 409, 'widthPercent': 0.45, 'rescaleHeight': False, 'trialN': 79, 'loaded': True, 'loadedTime': 2679.5999999046326, 'positionName': 'LEFT', 'positionCoords': [298.96, 211], 'bid': 0.38}, {'imgObject': {}, 'id': 'shreddedwheatwithmilk', 'src': '/static/foodstim60/shreddedwheatwithmilk.jpg', 'key': 'i', 'origWidth': 410, 'origHeight': 410, 'width': 410, 'height': 410, 'widthPercent': 0.45, 'rescaleHeight': False, 'trialN': 79, 'loaded': True, 'loadedTime': 2720.899999856949, 'positionName': 'RIGHT', 'positionCoords': [768.04, 210.5], 'bid': 0.63}]",114350.89999985695,1669840765355,luckycharms,shreddedwheatwithmilk,0.38,0.63,0.25,luckycharms,1405.0,1405,1405.4000000953674,True,u,116275.59999990463,1924.7000000476837,1669840767280,1925,HRV,HRV_0283,2022-11-30 20:41:46
80,"[{'imgObject': {}, 'id': 'mac & cheese', 'src': '/static/foodstim60/mac & cheese.jpg', 'key': 'u', 'origWidth': 410, 'origHeight': 410, 'width': 410, 'height': 410, 'widthPercent': 0.45, 'rescaleHeight': False, 'trialN': 80, 'loaded': True, 'loadedTime': 2681.899999856949, 'positionName': 'LEFT', 'positionCoords': [298.96, 210.5], 'bid': 0.28}, {'imgObject': {}, 'id': 'tacos', 'src': '/static/foodstim60/tacos.jpg', 'key': 'i', 'origWidth': 411, 'origHeight': 411, 'width': 411, 'height': 411, 'widthPercent': 0.45, 'rescaleHeight': False, 'trialN': 80, 'loaded': True, 'loadedTime': 2693.899999856949, 'positionName': 'RIGHT', 'positionCoords': [768.04, 210], 'bid': 1.31}]",116275.70000004768,1669840767280,mac & cheese,tacos,0.28,1.31,1.03,mac & cheese,976.1999998092651,976,976.5,True,u,117763.20000004768,1487.5,1669840768767,1487,HRV,HRV_0283,2022-11-30 20:41:46
81,"[{'imgObject': {}, 'id': 'edamame', 'src': '/static/foodstim60/edamame.jpg', 'key': 'u', 'origWidth': 409, 'origHeight': 410, 'width': 409, 'height': 410, 'widthPercent': 0.45, 'rescaleHeight': False, 'trialN': 81, 'loaded': True, 'loadedTime': 2706.899999856949, 'positionName': 'LEFT', 'positionCoords': [299.96, 210.5], 'bid': 1.24}, {'imgObject': {}, 'id': 'corn cob', 'src': '/static/foodstim60/corn cob.jpg', 'key': 'i', 'origWidth': 411, 'origHeight': 411, 'width': 411, 'height': 411, 'widthPercent': 0.45, 'rescaleHeight': False, 'trialN': 81, 'loaded': True, 'loadedTime': 2599.899999856949, 'positionName': 'RIGHT', 'positionCoords': [768.04, 210], 'bid': 2.48}]",117763.39999985695,1669840768767,edamame,corn cob,1.24,2.48,1.24,corn cob,752.5,753,752.9000000953674,True,i,119029.0,1265.6000001430511,1669840770033,1266,HRV,HRV_0283,2022-11-30 20:41:46
82,"[{'imgObject': {}, 'id': 'apple slices', 'src': '/static/foodstim60/apple slices.jpg', 'key': 'u', 'origWidth': 409, 'origHeight': 410, 'width': 409, 'height': 410, 'widthPercent': 0.45, 'rescaleHeight': False, 'trialN': 82, 'loaded': True, 'loadedTime': 2452.5, 'positionName': 'LEFT', 'positionCoords': [299.96, 210.5], 'bid': 1.94}, {'imgObject': {}, 'id': 'kiwi', 'src': '/static/foodstim60/kiwi.jpg', 'key': 'i', 'origWidth': 410, 'origHeight': 410, 'width': 410, 'height': 410, 'widthPercent': 0.45, 'rescaleHeight': False, 'trialN': 82, 'loaded': True, 'loadedTime': 2568.5999999046326, 'positionName': 'RIGHT', 'positionCoords': [768.04, 210.5], 'bid': 0.47}]",119029.09999990463,1669840770033,apple slices,kiwi,1.94,0.47,-1.47,kiwi,726.9000000953674,727,727.2000000476837,True,i,120261.70000004768,1232.6000001430511,1669840771266,1233,HRV,HRV_0283,2022-11-30 20:41:46
83,"[{'imgObject': {}, 'id': 'strawberries', 'src': '/static/foodstim60/strawberries.jpg', 'key': 'u', 'origWidth': 410, 'origHeight': 410, 'width': 410, 'height': 410, 'widthPercent': 0.45, 'rescaleHeight': False, 'trialN': 83, 'loaded': True, 'loadedTime': 2709.7999999523163, 'positionName': 'LEFT', 'positionCoords': [298.96, 210.5], 'bid': 0.68}, {'imgObject': {}, 'id': 'rigatoni', 'src': '/static/foodstim60/rigatoni.jpg', 'key': 'i', 'origWidth': 411, 'origHeight': 411, 'width': 411, 'height': 411, 'widthPercent': 0.45, 'rescaleHeight': False, 'trialN': 83, 'loaded': True, 'loadedTime': 2520.7000000476837, 'positionName': 'RIGHT', 'positionCoords': [768.04, 210], 'bid': 0.49}]",120261.79999995232,1669840771266,strawberries,rigatoni,0.68,0.49,-0.19000000000000006,strawberries,926.2000000476837,926,926.5999999046326,True,u,121696.70000004768,1434.9000000953674,1669840772701,1435,HRV,HRV_0283,2022-11-30 20:41:46
84,"[{'imgObject': {}, 'id': 'hashbrowns', 'src': '/static/foodstim60/hashbrowns.jpg', 'key': 'u', 'origWidth': 411, 'origHeight': 410, 'width': 411, 'height': 410, 'widthPercent': 0.45, 'rescaleHeight': False, 'trialN': 84, 'loaded': True, 'loadedTime': 2484, 'positionName': 'LEFT', 'positionCoords': [297.96, 210.5], 'bid': 0.84}, {'imgObject': {}, 'id': 'eggsalad', 'src': '/static/foodstim60/eggsalad.jpg', 'key': 'i', 'origWidth': 410, 'origHeight': 409, 'width': 410, 'height': 409, 'widthPercent': 0.45, 'rescaleHeight': False, 'trialN': 84, 'loaded': True, 'loadedTime': 2509, 'positionName': 'RIGHT', 'positionCoords': [768.04, 211], 'bid': 0.72}]",121696.89999985695,1669840772701,hashbrowns,eggsalad,0.84,0.72,-0.12,hashbrowns,659.2000000476837,659,659.6000001430511,True,u,122863.20000004768,1166.3000001907349,1669840773867,1166,HRV,HRV_0283,2022-11-30 20:41:46
85,"[{'imgObject': {}, 'id': 'burger', 'src': '/static/foodstim60/burger.jpg', 'key': 'u', 'origWidth': 409, 'origHeight': 409, 'width': 409, 'height': 409, 'widthPercent': 0.45, 'rescaleHeight': False, 'trialN': 85, 'loaded': True, 'loadedTime': 2692.0999999046326, 'positionName': 'LEFT', 'positionCoords': [299.96, 211], 'bid': 3.25}, {'imgObject': {}, 'id': 'shreddedwheatwithmilk', 'src': '/static/foodstim60/shreddedwheatwithmilk.jpg', 'key': 'i', 'origWidth': 410, 'origHeight': 410, 'width': 410, 'height': 410, 'widthPercent': 0.45, 'rescaleHeight': False, 'trialN': 85, 'loaded': True, 'loadedTime': 2721.2999999523163, 'positionName': 'RIGHT', 'positionCoords': [768.04, 210.5], 'bid': 0.63}]",122863.29999995232,1669840773867,burger,shreddedwheatwithmilk,3.25,0.63,-2.62,burger,717.0999999046326,718,717.5,True,u,124095.5,1232.2000000476837,1669840775100,1233,HRV,HRV_0283,2022-11-30 20:41:46
86,"[{'imgObject': {}, 'id': 'granola w milk', 'src': '/static/foodstim60/granola w milk.jpg', 'key': 'u', 'origWidth': 410, 'origHeight': 410, 'width': 410, 'height': 410, 'widthPercent': 0.45, 'rescaleHeight': False, 'trialN': 86, 'loaded': True, 'loadedTime': 2718.2999999523163, 'positionName': 'LEFT', 'positionCoords': [298.96, 210.5], 'bid': 0.41}, {'imgObject': {}, 'id': 'kiwi', 'src': '/static/foodstim60/kiwi.jpg', 'key': 'i', 'origWidth': 410, 'origHeight': 410, 'width': 410, 'height': 410, 'widthPercent': 0.45, 'rescaleHeight': False, 'trialN': 86, 'loaded': True, 'loadedTime': 2570.2999999523163, 'positionName': 'RIGHT', 'positionCoords': [768.04, 210.5], 'bid': 0.47}]",124095.79999995232,1669840775100,granola w milk,kiwi,0.41,0.47,0.06,granola w milk,748.0,748,748.2999999523163,True,u,125356.70000004768,1260.9000000953674,1669840776361,1261,HRV,HRV_0283,2022-11-30 20:41:46
87,"[{'imgObject': {}, 'id': 'popsicles', 'src': '/static/foodstim60/popsicles.jpg', 'key': 'u', 'origWidth': 410, 'origHeight': 410, 'width': 410, 'height': 410, 'widthPercent': 0.45, 'rescaleHeight': False, 'trialN': 87, 'loaded': True, 'loadedTime': 2749.7000000476837, 'positionName': 'LEFT', 'positionCoords': [298.96, 210.5], 'bid': 3.72}, {'imgObject': {}, 'id': 'hashbrowns', 'src': '/static/foodstim60/hashbrowns.jpg', 'key': 'i', 'origWidth': 411, 'origHeight': 410, 'width': 411, 'height': 410, 'widthPercent': 0.45, 'rescaleHeight': False, 'trialN': 87, 'loaded': True, 'loadedTime': 2493.0999999046326, 'positionName': 'RIGHT', 'positionCoords': [768.04, 210.5], 'bid': 0.84}]",125356.89999985695,1669840776361,popsicles,hashbrowns,3.72,0.84,-2.8800000000000003,popsicles,679.2000000476837,679,679.5,True,u,126553.5,1196.6000001430511,1669840777557,1196,HRV,HRV_0283,2022-11-30 20:41:46
88,"[{'imgObject': {}, 'id': 'sushi w_condiments', 'src': '/static/foodstim60/sushi w_condiments.jpg', 'key': 'u', 'origWidth': 410, 'origHeight': 410, 'width': 410, 'height': 410, 'widthPercent': 0.45, 'rescaleHeight': False, 'trialN': 88, 'loaded': True, 'loadedTime': 2435.399999856949, 'positionName': 'LEFT', 'positionCoords': [298.96, 210.5], 'bid': 2.54}, {'imgObject': {}, 'id': 'corn cob', 'src': '/static/foodstim60/corn cob.jpg', 'key': 'i', 'origWidth': 411, 'origHeight': 411, 'width': 411, 'height': 411, 'widthPercent': 0.45, 'rescaleHeight': False, 'trialN': 88, 'loaded': True, 'loadedTime': 2600.2000000476837, 'positionName': 'RIGHT', 'positionCoords': [768.04, 210], 'bid': 2.48}]",126553.89999985695,1669840777558,sushi w_condiments,corn cob,2.54,2.48,-0.06000000000000005,sushi w_condiments,1410.0,1410,1410.3000001907349,True,u,128473.70000004768,1919.8000001907349,1669840779478,1920,HRV,HRV_0283,2022-11-30 20:41:46
89,"[{'imgObject': {}, 'id': 'mac & cheese', 'src': '/static/foodstim60/mac & cheese.jpg', 'key': 'u', 'origWidth': 410, 'origHeight': 410, 'width': 410, 'height': 410, 'widthPercent': 0.45, 'rescaleHeight': False, 'trialN': 89, 'loaded': True, 'loadedTime': 2681, 'positionName': 'LEFT', 'positionCoords': [298.96, 210.5], 'bid': 0.28}, {'imgObject': {}, 'id': 'avocado', 'src': '/static/foodstim60/avocado.jpg', 'key': 'i', 'origWidth': 409, 'origHeight': 409, 'width': 409, 'height': 409, 'widthPercent': 0.45, 'rescaleHeight': False, 'trialN': 89, 'loaded': True, 'loadedTime': 2737.5999999046326, 'positionName': 'RIGHT', 'positionCoords': [768.04, 211], 'bid': 0.32}]",128473.89999985695,1669840779478,mac & cheese,avocado,0.28,0.32,0.03999999999999998,mac & cheese,1106.5,1107,1106.9000000953674,True,u,130098.5,1624.6000001430511,1669840781102,1624,HRV,HRV_0283,2022-11-30 20:41:46
90,"[{'imgObject': {}, 'id': 'chickenfingers', 'src': '/static/foodstim60/chickenfingers.jpg', 'key': 'u', 'origWidth': 410, 'origHeight': 410, 'width': 410, 'height': 410, 'widthPercent': 0.45, 'rescaleHeight': False, 'trialN': 90, 'loaded': True, 'loadedTime': 2630.7000000476837, 'positionName': 'LEFT', 'positionCoords': [298.96, 210.5], 'bid': 4.11}, {'imgObject': {}, 'id': 'cocktailshrimp', 'src': '/static/foodstim60/cocktailshrimp.jpg', 'key': 'i', 'origWidth': 410, 'origHeight': 410, 'width': 410, 'height': 410, 'widthPercent': 0.45, 'rescaleHeight': False, 'trialN': 90, 'loaded': True, 'loadedTime': 2662.899999856949, 'positionName': 'RIGHT', 'positionCoords': [768.04, 210.5], 'bid': 1.94}]",131870.39999985695,1669840782874,chickenfingers,cocktailshrimp,4.11,1.94,-2.1700000000000004,chickenfingers,1133.8000001907349,1135,1134.2000000476837,True,u,133522.29999995232,1651.9000000953674,1669840784526,1652,HRV,HRV_0283,2022-11-30 20:41:46
91,"[{'imgObject': {}, 'id': 'cocktailshrimp', 'src': '/static/foodstim60/cocktailshrimp.jpg', 'key': 'u', 'origWidth': 410, 'origHeight': 410, 'width': 410, 'height': 410, 'widthPercent': 0.45, 'rescaleHeight': False, 'trialN': 91, 'loaded': True, 'loadedTime': 2662.899999856949, 'positionName': 'LEFT', 'positionCoords': [298.96, 210.5], 'bid': 1.94}, {'imgObject': {}, 'id': 'apple slices', 'src': '/static/foodstim60/apple slices.jpg', 'key': 'i', 'origWidth': 409, 'origHeight': 410, 'width': 409, 'height': 410, 'widthPercent': 0.45, 'rescaleHeight': False, 'trialN': 91, 'loaded': True, 'loadedTime': 2445.5999999046326, 'positionName': 'RIGHT', 'positionCoords': [768.04, 210.5], 'bid': 1.94}]",133522.5,1669840784526,cocktailshrimp,apple slices,1.94,1.94,0.0,cocktailshrimp,825.5,826,826.0,True,u,134861.39999985695,1338.8999998569489,1669840785865,1339,HRV,HRV_0283,2022-11-30 20:41:46
92,"[{'imgObject': {}, 'id': 'yogurt no spoon', 'src': '/static/foodstim60/yogurt no spoon.jpg', 'key': 'u', 'origWidth': 411, 'origHeight': 410, 'width': 411, 'height': 410, 'widthPercent': 0.45, 'rescaleHeight': False, 'trialN': 92, 'loaded': True, 'loadedTime': 2680.7999999523163, 'positionName': 'LEFT', 'positionCoords': [297.96, 210.5], 'bid': 1.43}, {'imgObject': {}, 'id': 'bagel plain', 'src': '/static/foodstim60/bagel plain.jpg', 'key': 'i', 'origWidth': 410, 'origHeight': 410, 'width': 410, 'height': 410, 'widthPercent': 0.45, 'rescaleHeight': False, 'trialN': 92, 'loaded': True, 'loadedTime': 2415.5, 'positionName': 'RIGHT', 'positionCoords': [768.04, 210.5], 'bid': 0.89}]",134861.5,1669840785866,yogurt no spoon,bagel plain,1.43,0.89,-0.5399999999999999,bagel plain,870.2999999523163,870,870.5999999046326,True,i,136250.0,1388.5,1669840787254,1388,HRV,HRV_0283,2022-11-30 20:41:46
93,"[{'imgObject': {}, 'id': 'cherry tomato', 'src': '/static/foodstim60/cherry tomato.jpg', 'key': 'u', 'origWidth': 410, 'origHeight': 410, 'width': 410, 'height': 410, 'widthPercent': 0.45, 'rescaleHeight': False, 'trialN': 93, 'loaded': True, 'loadedTime': 2500, 'positionName': 'LEFT', 'positionCoords': [298.96, 210.5], 'bid': 0.49}, {'imgObject': {}, 'id': 'rigatoni', 'src': '/static/foodstim60/rigatoni.jpg', 'key': 'i', 'origWidth': 411, 'origHeight': 411, 'width': 411, 'height': 411, 'widthPercent': 0.45, 'rescaleHeight': False, 'trialN': 93, 'loaded': True, 'loadedTime': 2521, 'positionName': 'RIGHT', 'positionCoords': [768.04, 210], 'bid': 0.49}]",136250.09999990463,1669840787254,cherry tomato,rigatoni,0.49,0.49,0.0,rigatoni,937.6000001430511,938,937.9000000953674,True,i,137707.79999995232,1457.7000000476837,1669840788712,1458,HRV,HRV_0283,2022-11-30 20:41:46
94,"[{'imgObject': {}, 'id': 'froot loops w milk', 'src': '/static/foodstim60/froot loops w milk.jpg', 'key': 'u', 'origWidth': 410, 'origHeight': 410, 'width': 410, 'height': 410, 'widthPercent': 0.45, 'rescaleHeight': False, 'trialN': 94, 'loaded': True, 'loadedTime': 2533.0999999046326, 'positionName': 'LEFT', 'positionCoords': [298.96, 210.5], 'bid': 0.8300000000000001}, {'imgObject': {}, 'id': 'fried eggs', 'src': '/static/foodstim60/fried eggs.jpg', 'key': 'i', 'origWidth': 410, 'origHeight': 410, 'width': 410, 'height': 410, 'widthPercent': 0.45, 'rescaleHeight': False, 'trialN': 94, 'loaded': True, 'loadedTime': 2611, 'positionName': 'RIGHT', 'positionCoords': [768.04, 210.5], 'bid': 0.55}]",137708.0,1669840788712,froot loops w milk,fried eggs,0.8300000000000001,0.55,-0.28,fried eggs,799.8999998569489,800,800.3999998569489,True,i,139016.20000004768,1308.2000000476837,1669840790020,1308,HRV,HRV_0283,2022-11-30 20:41:46
95,"[{'imgObject': {}, 'id': 'apple slices', 'src': '/static/foodstim60/apple slices.jpg', 'key': 'u', 'origWidth': 409, 'origHeight': 410, 'width': 409, 'height': 410, 'widthPercent': 0.45, 'rescaleHeight': False, 'trialN': 95, 'loaded': True, 'loadedTime': 2452.399999856949, 'positionName': 'LEFT', 'positionCoords': [299.96, 210.5], 'bid': 1.94}, {'imgObject': {}, 'id': 'grilled chicken strips', 'src': '/static/foodstim60/grilled chicken strips.jpg', 'key': 'i', 'origWidth': 410, 'origHeight': 411, 'width': 410, 'height': 411, 'widthPercent': 0.45, 'rescaleHeight': False, 'trialN': 95, 'loaded': True, 'loadedTime': 2580.2000000476837, 'positionName': 'RIGHT', 'positionCoords': [768.04, 210], 'bid': 4.95}]",139016.59999990463,1669840790021,apple slices,grilled chicken strips,1.94,4.95,3.0100000000000002,grilled chicken strips,739.2000000476837,739,739.4000000953674,True,i,140266.09999990463,1249.5,1669840791270,1249,HRV,HRV_0283,2022-11-30 20:41:46
96,"[{'imgObject': {}, 'id': 'salmon', 'src': '/static/foodstim60/salmon.jpg', 'key': 'u', 'origWidth': 410, 'origHeight': 409, 'width': 410, 'height': 409, 'widthPercent': 0.45, 'rescaleHeight': False, 'trialN': 96, 'loaded': True, 'loadedTime': 2397.2999999523163, 'positionName': 'LEFT', 'positionCoords': [298.96, 211], 'bid': 2.25}, {'imgObject': {}, 'id': 'rigatoni and sauce', 'src': '/static/foodstim60/rigatoni and sauce.jpg', 'key': 'i', 'origWidth': 410, 'origHeight': 411, 'width': 410, 'height': 411, 'widthPercent': 0.45, 'rescaleHeight': False, 'trialN': 96, 'loaded': True, 'loadedTime': 2739, 'positionName': 'RIGHT', 'positionCoords': [768.04, 210], 'bid': 2.08}]",140266.20000004768,1669840791270,salmon,rigatoni and sauce,2.25,2.08,-0.16999999999999993,salmon,865.5,866,865.6999998092651,True,u,141639.79999995232,1373.5999999046326,1669840792644,1374,HRV,HRV_0283,2022-11-30 20:41:46
97,"[{'imgObject': {}, 'id': 'eggs', 'src': '/static/foodstim60/eggs.jpg', 'key': 'u', 'origWidth': 409, 'origHeight': 409, 'width': 409, 'height': 409, 'widthPercent': 0.45, 'rescaleHeight': False, 'trialN': 97, 'loaded': True, 'loadedTime': 2731.899999856949, 'positionName': 'LEFT', 'positionCoords': [299.96, 211], 'bid': 0.22}, {'imgObject': {}, 'id': 'shreddedwheatwithmilk', 'src': '/static/foodstim60/shreddedwheatwithmilk.jpg', 'key': 'i', 'origWidth': 410, 'origHeight': 410, 'width': 410, 'height': 410, 'widthPercent': 0.45, 'rescaleHeight': False, 'trialN': 97, 'loaded': True, 'loadedTime': 2721, 'positionName': 'RIGHT', 'positionCoords': [768.04, 210.5], 'bid': 0.63}]",141640.0,1669840792644,eggs,shreddedwheatwithmilk,0.22,0.63,0.41000000000000003,shreddedwheatwithmilk,700.0,700,700.2999999523163,True,i,142854.89999985695,1214.8999998569489,1669840793859,1215,HRV,HRV_0283,2022-11-30 20:41:46
98,"[{'imgObject': {}, 'id': 'cheerios', 'src': '/static/foodstim60/cheerios.jpg', 'key': 'u', 'origWidth': 409, 'origHeight': 410, 'width': 409, 'height': 410, 'widthPercent': 0.45, 'rescaleHeight': False, 'trialN': 98, 'loaded': True, 'loadedTime': 2473, 'positionName': 'LEFT', 'positionCoords': [299.96, 210.5], 'bid': 1.28}, {'imgObject': {}, 'id': 'baked potato', 'src': '/static/foodstim60/baked potato.jpg', 'key': 'i', 'origWidth': 409, 'origHeight': 410, 'width': 409, 'height': 410, 'widthPercent': 0.45, 'rescaleHeight': False, 'trialN': 98, 'loaded': True, 'loadedTime': 2748.399999856949, 'positionName': 'RIGHT', 'positionCoords': [768.04, 210.5], 'bid': 0.98}]",142855.20000004768,1669840793859,cheerios,baked potato,1.28,0.98,-0.30000000000000004,baked potato,684.7999999523163,685,685.0999999046326,True,i,144057.5,1202.2999999523163,1669840795062,1203,HRV,HRV_0283,2022-11-30 20:41:46
99,"[{'imgObject': {}, 'id': 'rigatoni and sauce', 'src': '/static/foodstim60/rigatoni and sauce.jpg', 'key': 'u', 'origWidth': 410, 'origHeight': 411, 'width': 410, 'height': 411, 'widthPercent': 0.45, 'rescaleHeight': False, 'trialN': 99, 'loaded': True, 'loadedTime': 2739.0999999046326, 'positionName': 'LEFT', 'positionCoords': [298.96, 210], 'bid': 2.08}, {'imgObject': {}, 'id': 'chicken nuggets2', 'src': '/static/foodstim60/chicken nuggets2.jpg', 'key': 'i', 'origWidth': 410, 'origHeight': 409, 'width': 410, 'height': 409, 'widthPercent': 0.45, 'rescaleHeight': False, 'trialN': 99, 'loaded': True, 'loadedTime': 2591.2999999523163, 'positionName': 'RIGHT', 'positionCoords': [768.04, 211], 'bid': 4.99}]",144057.79999995232,1669840795062,rigatoni and sauce,chicken nuggets2,2.08,4.99,2.91,chicken nuggets2,625.7999999523163,626,626.2000000476837,True,i,145194.70000004768,1136.9000000953674,1669840796199,1137,HRV,HRV_0283,2022-11-30 20:41:46
100,"[{'imgObject': {}, 'id': 'rigatoni', 'src': '/static/foodstim60/rigatoni.jpg', 'key': 'u', 'origWidth': 411, 'origHeight': 411, 'width': 411, 'height': 411, 'widthPercent': 0.45, 'rescaleHeight': False, 'trialN': 100, 'loaded': True, 'loadedTime': 2521, 'positionName': 'LEFT', 'positionCoords': [297.96, 210], 'bid': 0.49}, {'imgObject': {}, 'id': 'fruitsalad', 'src': '/static/foodstim60/fruitsalad.jpg', 'key': 'i', 'origWidth': 410, 'origHeight': 410, 'width': 410, 'height': 410, 'widthPercent': 0.45, 'rescaleHeight': False, 'trialN': 100, 'loaded': True, 'loadedTime': 2463.2999999523163, 'positionName': 'RIGHT', 'positionCoords': [768.04, 210.5], 'bid': 2.4}]",145194.89999985695,1669840796199,rigatoni,fruitsalad,0.49,2.4,1.91,fruitsalad,897.2000000476837,897,897.6000001430511,True,i,146602.39999985695,1407.5,1669840797606,1407,HRV,HRV_0283,2022-11-30 20:41:46
101,"[{'imgObject': {}, 'id': 'veggieswithdip', 'src': '/static/foodstim60/veggieswithdip.jpg', 'key': 'u', 'origWidth': 409, 'origHeight': 409, 'width': 409, 'height': 409, 'widthPercent': 0.45, 'rescaleHeight': False, 'trialN': 101, 'loaded': True, 'loadedTime': 2622.5, 'positionName': 'LEFT', 'positionCoords': [299.96, 211], 'bid': 1.17}, {'imgObject': {}, 'id': 'cherries', 'src': '/static/foodstim60/cherries.jpg', 'key': 'i', 'origWidth': 410, 'origHeight': 411, 'width': 410, 'height': 411, 'widthPercent': 0.45, 'rescaleHeight': False, 'trialN': 101, 'loaded': True, 'loadedTime': 2355.5, 'positionName': 'RIGHT', 'positionCoords': [768.04, 210], 'bid': 2.48}]",146602.59999990463,1669840797607,veggieswithdip,cherries,1.17,2.48,1.31,veggieswithdip,865.1000001430511,865,865.4000000953674,True,u,147976.20000004768,1373.6000001430511,1669840798980,1373,HRV,HRV_0283,2022-11-30 20:41:46
102,"[{'imgObject': {}, 'id': 'eggsalad', 'src': '/static/foodstim60/eggsalad.jpg', 'key': 'u', 'origWidth': 410, 'origHeight': 409, 'width': 410, 'height': 409, 'widthPercent': 0.45, 'rescaleHeight': False, 'trialN': 102, 'loaded': True, 'loadedTime': 2508.899999856949, 'positionName': 'LEFT', 'positionCoords': [298.96, 211], 'bid': 0.72}, {'imgObject': {}, 'id': 'edamame', 'src': '/static/foodstim60/edamame.jpg', 'key': 'i', 'origWidth': 409, 'origHeight': 410, 'width': 409, 'height': 410, 'widthPercent': 0.45, 'rescaleHeight': False, 'trialN': 102, 'loaded': True, 'loadedTime': 2708.0999999046326, 'positionName': 'RIGHT', 'positionCoords': [768.04, 210.5], 'bid': 1.24}]",147976.29999995232,1669840798980,eggsalad,edamame,0.72,1.24,0.52,eggsalad,779.7999999523163,781,780.2999999523163,True,u,149268.39999985695,1292.0999999046326,1669840800272,1292,HRV,HRV_0283,2022-11-30 20:41:46
103,"[{'imgObject': {}, 'id': 'kiwi', 'src': '/static/foodstim60/kiwi.jpg', 'key': 'u', 'origWidth': 410, 'origHeight': 410, 'width': 410, 'height': 410, 'widthPercent': 0.45, 'rescaleHeight': False, 'trialN': 103, 'loaded': True, 'loadedTime': 2570.5, 'positionName': 'LEFT', 'positionCoords': [298.96, 210.5], 'bid': 0.47}, {'imgObject': {}, 'id': 'olives', 'src': '/static/foodstim60/olives.jpg', 'key': 'i', 'origWidth': 410, 'origHeight': 410, 'width': 410, 'height': 410, 'widthPercent': 0.45, 'rescaleHeight': False, 'trialN': 103, 'loaded': True, 'loadedTime': 2711.2999999523163, 'positionName': 'RIGHT', 'positionCoords': [768.04, 210.5], 'bid': 0.11}]",149268.59999990463,1669840800273,kiwi,olives,0.47,0.11,-0.36,kiwi,727.4000000953674,727,727.7000000476837,True,u,150516.09999990463,1247.5,1669840801520,1247,HRV,HRV_0283,2022-11-30 20:41:46
104,"[{'imgObject': {}, 'id': 'mac & cheese', 'src': '/static/foodstim60/mac & cheese.jpg', 'key': 'u', 'origWidth': 410, 'origHeight': 410, 'width': 410, 'height': 410, 'widthPercent': 0.45, 'rescaleHeight': False, 'trialN': 104, 'loaded': True, 'loadedTime': 2690.7999999523163, 'positionName': 'LEFT', 'positionCoords': [298.96, 210.5], 'bid': 0.28}, {'imgObject': {}, 'id': 'bagel and cc', 'src': '/static/foodstim60/bagel and cc.jpg', 'key': 'i', 'origWidth': 410, 'origHeight': 410, 'width': 410, 'height': 410, 'widthPercent': 0.45, 'rescaleHeight': False, 'trialN': 104, 'loaded': True, 'loadedTime': 2719.5999999046326, 'positionName': 'RIGHT', 'positionCoords': [768.04, 210.5], 'bid': 0.67}]",150516.59999990463,1669840801520,mac & cheese,bagel and cc,0.28,0.67,0.39,mac & cheese,583.6000001430511,585,584.0,True,u,151611.09999990463,1094.5,1669840802615,1095,HRV,HRV_0283,2022-11-30 20:41:46
105,"[{'imgObject': {}, 'id': 'cantaloupe', 'src': '/static/foodstim60/cantaloupe.jpg', 'key': 'u', 'origWidth': 409, 'origHeight': 409, 'width': 409, 'height': 409, 'widthPercent': 0.45, 'rescaleHeight': False, 'trialN': 105, 'loaded': True, 'loadedTime': 2673.2999999523163, 'positionName': 'LEFT', 'positionCoords': [299.96, 211], 'bid': 0.86}, {'imgObject': {}, 'id': 'bagel plain', 'src': '/static/foodstim60/bagel plain.jpg', 'key': 'i', 'origWidth': 410, 'origHeight': 410, 'width': 410, 'height': 410, 'widthPercent': 0.45, 'rescaleHeight': False, 'trialN': 105, 'loaded': True, 'loadedTime': 2406.5, 'positionName': 'RIGHT', 'positionCoords': [768.04, 210.5], 'bid': 0.89}]",151611.20000004768,1669840802615,cantaloupe,bagel plain,0.86,0.89,0.030000000000000027,cantaloupe,1144.5999999046326,1145,1144.8999998569489,True,u,153263.5,1652.2999999523163,1669840804268,1653,HRV,HRV_0283,2022-11-30 20:41:46
106,"[{'imgObject': {}, 'id': 'granola w milk', 'src': '/static/foodstim60/granola w milk.jpg', 'key': 'u', 'origWidth': 410, 'origHeight': 410, 'width': 410, 'height': 410, 'widthPercent': 0.45, 'rescaleHeight': False, 'trialN': 106, 'loaded': True, 'loadedTime': 2717.899999856949, 'positionName': 'LEFT', 'positionCoords': [298.96, 210.5], 'bid': 0.41}, {'imgObject': {}, 'id': 'cantaloupe', 'src': '/static/foodstim60/cantaloupe.jpg', 'key': 'i', 'origWidth': 409, 'origHeight': 409, 'width': 409, 'height': 409, 'widthPercent': 0.45, 'rescaleHeight': False, 'trialN': 106, 'loaded': True, 'loadedTime': 2672.2999999523163, 'positionName': 'RIGHT', 'positionCoords': [768.04, 211], 'bid': 0.86}]",153263.70000004768,1669840804268,granola w milk,cantaloupe,0.41,0.86,0.45,cantaloupe,1252.0999999046326,1252,1252.3999998569489,True,i,155022.20000004768,1758.5,1669840806026,1758,HRV,HRV_0283,2022-11-30 20:41:46
107,"[{'imgObject': {}, 'id': 'olives', 'src': '/static/foodstim60/olives.jpg', 'key': 'u', 'origWidth': 410, 'origHeight': 410, 'width': 410, 'height': 410, 'widthPercent': 0.45, 'rescaleHeight': False, 'trialN': 107, 'loaded': True, 'loadedTime': 2711.0999999046326, 'positionName': 'LEFT', 'positionCoords': [298.96, 210.5], 'bid': 0.11}, {'imgObject': {}, 'id': 'edamame', 'src': '/static/foodstim60/edamame.jpg', 'key': 'i', 'origWidth': 409, 'origHeight': 410, 'width': 409, 'height': 410, 'widthPercent': 0.45, 'rescaleHeight': False, 'trialN': 107, 'loaded': True, 'loadedTime': 2707.7999999523163, 'positionName': 'RIGHT', 'positionCoords': [768.04, 210.5], 'bid': 1.24}]",155022.39999985695,1669840806027,olives,edamame,0.11,1.24,1.13,edamame,733.5,733,733.8000001907349,True,i,156268.59999990463,1246.2000000476837,1669840807273,1246,HRV,HRV_0283,2022-11-30 20:41:46
108,"[{'imgObject': {}, 'id': 'pear', 'src': '/static/foodstim60/pear.jpg', 'key': 'u', 'origWidth': 411, 'origHeight': 410, 'width': 411, 'height': 410, 'widthPercent': 0.45, 'rescaleHeight': False, 'trialN': 108, 'loaded': True, 'loadedTime': 2521.7000000476837, 'positionName': 'LEFT', 'positionCoords': [297.96, 210.5], 'bid': 1.91}, {'imgObject': {}, 'id': 'Grapes', 'src': '/static/foodstim60/Grapes.jpg', 'key': 'i', 'origWidth': 411, 'origHeight': 411, 'width': 411, 'height': 411, 'widthPercent': 0.45, 'rescaleHeight': False, 'trialN': 108, 'loaded': True, 'loadedTime': 2417, 'positionName': 'RIGHT', 'positionCoords': [768.04, 210], 'bid': 1.67}]",156268.79999995232,1669840807273,pear,Grapes,1.91,1.67,-0.24,pear,655.0999999046326,655,655.2999999523163,True,u,157439.0,1170.2000000476837,1669840808443,1170,HRV,HRV_0283,2022-11-30 20:41:46
