success,trial_type,trial_index,time_elapsed,internal_node_id,Block,TrialNumber,TrialTime,trialTimeDiff,FPS_avg,FPS_med,FPS_mode,TrialDur,winResizeTime,rt,block,button_pressed,MotCoh,MotDir,ColCoh,Color,ChoiceKey,Choice,Accuracy,RT,nFrames,FPS,PPD,missTrial,missTrialMsg,onsetDelay,fullScreenExitTime,canvCenter,TrialType,Score,BlockTrial,stimulus,button_labels,exp,subjectId,date
True,fullscreen,0,2234,0.0-0.0,0.0,1.0,,,,,,,,,,,,,,,,,,,,,,,,,,,,,,,,HRV,HRV_0283,2022-11-30 20:50:52
,wl-check-fps,1,7242,0.0-1.0,0.0,2.0,"[2545.7, 2562.4, 2578.1, 2595.7, 2612.4, 2628.7, 2645.5, 2662.5, 2677.7, 2695.7, 2711.4, 2728.3, 2744.7, 2762.1, 2779, 2795.7, 2811.5, 2828.6, 2845.6, 2862.8, 2878, 2895.5, 2912, 2929.1, 2945.1, 2960.9, 2978.9, 2994.5, 3012.4, 3029.3, 3044.2, 3061.3, 3077.6, 3095.7, 3112.4, 3129.3, 3144.2, 3162, 3177.5, 3195.3, 3211.1, 3229.2, 3246, 3262.2, 3278.3, 3294.2, 3312.3, 3328.8, 3344.4, 3362.4, 3378.4, 3395.5, 3412, 3427.8, 3444.4, 3461.2, 3479.5, 3494.6, 3512, 3529, 3545.7, 3561.5, 3578.4, 3595.4, 3610.8, 3629.3, 3644.5, 3662.6, 3677.5, 3695.6, 3712.4, 3729.3, 3744.5, 3762.5, 3779.4, 3794.4, 3812.1, 3828.9, 3845.6, 3862.3, 3879.2, 3895.7, 3911.2, 3928.6, 3945.4, 3962, 3978.5, 3994.4, 4012.4, 4028.6, 4045.6, 4060.8, 4077.9, 4094.2, 4112, 4128, 4145.9, 4161.9, 4178.8, 4195.7, 4212.6, 4227.8, 4245.8, 4261.6, 4277.7, 4295.4, 4312.4, 4329.3, 4345.6, 4361.1, 4378.6, 4395.3, 4412.2, 4428.1, 4445.5, 4461.5, 4479.3, 4495.4, 4512.4, 4527.9, 4544.7, 4561.6, 4577.7, 4594.4, 4611.5, 4627.6, 4645.7, 4662.6, 4678.3, 4695.7, 4712.5, 4728.2, 4745.6, 4760.9, 4777.6, 4795.6, 4812.7, 4827.7, 4845.5, 4861.5, 4877.6, 4895.6, 4911.1, 4929.5, 4944.4, 4961.7, 4978.3, 4995.3, 5012.4, 5027.5, 5045, 5062.6, 5077.7, 5095.5, 5111.9, 5127.9, 5145.5, 5161.4, 5177.5, 5195.7, 5211, 5228.9, 5245.5, 5262.5, 5278.7, 5295.7, 5311.6, 5327.6, 5345.5, 5362.8, 5377.6, 5395.3, 5411, 5428.2, 5445.3, 5461.6, 5477.6, 5494.5, 5512.2, 5528.4, 5544.4, 5561.7, 5577.9, 5594.2, 5612.2, 5628.5, 5645.3, 5662.3, 5678.4, 5695.8, 5712.6, 5729, 5745.3, 5761.4, 5778.2, 5794.5, 5811.4, 5828.1, 5845.8, 5862.5, 5878.9, 5894.8, 5912.8, 5929, 5946, 5962.6, 5978.5, 5996, 6012.3, 6029.3, 6045.1, 6062.6, 6078, 6094.7, 6111.4, 6128.9, 6144.8, 6162.5, 6177.8, 6194.5, 6212.7, 6228.9, 6245.9, 6261.3, 6279, 6294.3, 6312.4, 6329.6, 6345.7, 6362.6, 6377.5, 6395.4, 6412.6, 6428.4, 6444.6, 6461.5, 6478.8, 6495.6, 6512.4, 6528.7, 6545.9, 6562.4, 6579.2, 6594.9, 6611.5, 6628.2, 6646, 6662.1, 6678.5, 6696.1, 6712.6, 6728.7, 6745.8, 6761.1, 6778, 6795.5, 6811.3, 6828.5, 6844.4, 6864.5, 6878.6, 6895.8, 6911.3, 6928.5, 6945.1, 6961.4, 6978.9, 6995.1, 7010.9, 7029.6, 7045.8, 7061.2, 7077.7, 7095.8, 7112.7, 7128.3, 7144.3, 7162.3, 7179.3, 7195.6, 7212.6, 7227.7, 7244.2, 7261.4, 7277.6, 7295.4, 7312.4, 7328.3, 7345.5, 7361.7, 7377.9, 7395.4, 7411, 7428.6, 7445.5, 7462.7, 7478.4, 7494.3, 7512.5, 7528.4]","[7.6, 16.7, 15.7, 17.6, 16.7, 16.3, 16.8, 17, 15.2, 18, 15.7, 16.9, 16.4, 17.4, 16.9, 16.7, 15.8, 17.1, 17, 17.2, 15.2, 17.5, 16.5, 17.1, 16, 15.8, 18, 15.6, 17.9, 16.9, 14.9, 17.1, 16.3, 18.1, 16.7, 16.9, 14.9, 17.8, 15.5, 17.8, 15.8, 18.1, 16.8, 16.2, 16.1, 15.9, 18.1, 16.5, 15.6, 18, 16, 17.1, 16.5, 15.8, 16.6, 16.8, 18.3, 15.1, 17.4, 17, 16.7, 15.8, 16.9, 17, 15.4, 18.5, 15.2, 18.1, 14.9, 18.1, 16.8, 16.9, 15.2, 18, 16.9, 15, 17.7, 16.8, 16.7, 16.7, 16.9, 16.5, 15.5, 17.4, 16.8, 16.6, 16.5, 15.9, 18, 16.2, 17, 15.2, 17.1, 16.3, 17.8, 16, 17.9, 16, 16.9, 16.9, 16.9, 15.2, 18, 15.8, 16.1, 17.7, 17, 16.9, 16.3, 15.5, 17.5, 16.7, 16.9, 15.9, 17.4, 16, 17.8, 16.1, 17, 15.5, 16.8, 16.9, 16.1, 16.7, 17.1, 16.1, 18.1, 16.9, 15.7, 17.4, 16.8, 15.7, 17.4, 15.3, 16.7, 18, 17.1, 15, 17.8, 16, 16.1, 18, 15.5, 18.4, 14.9, 17.3, 16.6, 17, 17.1, 15.1, 17.5, 17.6, 15.1, 17.8, 16.4, 16, 17.6, 15.9, 16.1, 18.2, 15.3, 17.9, 16.6, 17, 16.2, 17, 15.9, 16, 17.9, 17.3, 14.8, 17.7, 15.7, 17.2, 17.1, 16.3, 16, 16.9, 17.7, 16.2, 16, 17.3, 16.2, 16.3, 18, 16.3, 16.8, 17, 16.1, 17.4, 16.8, 16.4, 16.3, 16.1, 16.8, 16.3, 16.9, 16.7, 17.7, 16.7, 16.4, 15.9, 18, 16.2, 17, 16.6, 15.9, 17.5, 16.3, 17, 15.8, 17.5, 15.4, 16.7, 16.7, 17.5, 15.9, 17.7, 15.3, 16.7, 18.2, 16.2, 17, 15.4, 17.7, 15.3, 18.1, 17.2, 16.1, 16.9, 14.9, 17.9, 17.2, 15.8, 16.2, 16.9, 17.3, 16.8, 16.8, 16.3, 17.2, 16.5, 16.8, 15.7, 16.6, 16.7, 17.8, 16.1, 16.4, 17.6, 16.5, 16.1, 17.1, 15.3, 16.9, 17.5, 15.8, 17.2, 15.9, 20.1, 14.1, 17.2, 15.5, 17.2, 16.6, 16.3, 17.5, 16.2, 15.8, 18.7, 16.2, 15.4, 16.5, 18.1, 16.9, 15.6, 16, 18, 17, 16.3, 17, 15.1, 16.5, 17.2, 16.2, 17.8, 17, 15.9, 17.2, 16.2, 16.2, 17.5, 15.6, 17.6, 16.9, 17.2, 15.7, 15.9, 18.2, 15.9]",60.0,61.0,59.0,5006.2,[],,,,,,,,,,,,,,,,,,,,,,,,,HRV,HRV_0283,2022-11-30 20:50:52
,wl-html-keyboard-response,2,18323,0.0-2.0-0.0,0.0,3.0,,,,,,,,9059.899999856949,0.0,0,,,,,,,,,,,,,,,,,,,,,,HRV,HRV_0283,2022-11-30 20:50:52
,wl-rdm,3,25175,0.0-3.0-0.0,0.0,4.0,,,,,,,[],,,,0.0,0.0,87.9,0.0,u,0.0,True,1276.2999999523163,77.0,59.0,40.0,False,,3000.0,[],"[738.5, 415.5]",ColorTask_Demo,,,,,HRV,HRV_0283,2022-11-30 20:50:52
,wl-rdm,4,29909,0.0-3.0-1.0,0.0,5.0,,,,,,,[],,,,0.0,0.0,87.9,1.0,i,1.0,True,658.2999999523163,40.0,59.0,40.0,False,,2000.0,[],"[738.5, 415.5]",ColorTask_Demo,,,,,HRV,HRV_0283,2022-11-30 20:50:52
,wl-html-keyboard-response,5,35889,0.0-3.0-2.0,0.0,6.0,,,,,,,,3976.699999809265,0.0,1,,,,,,,,,,,,,,,,,,,,,,HRV,HRV_0283,2022-11-30 20:50:52
,wl-html-keyboard-response,6,48010,0.0-4.0-0.0,0.0,7.0,,,,,,,,10117.599999904633,0.0,0,,,,,,,,,,,,,,,,,,,,,,HRV,HRV_0283,2022-11-30 20:50:52
,wl-html-keyboard-response,7,56873,0.0-5.0-0.0,0.0,8.0,,,,,,,,6856.599999904633,0.0,0,,,,,,,,,,,,,,,,,,,,,,HRV,HRV_0283,2022-11-30 20:50:52
,wl-rdm,8,59192,0.0-6.0-0.0,0.0,9.0,,,,,,,[],,,,,,53.2,0.0,i,1.0,False,980.7999999523163,59.0,59.0,40.0,False,,272.79088974053946,[],"[738.5, 415.5]",ColorTask,-1.0,1.0,,,HRV,HRV_0283,2022-11-30 20:50:52
,wl-rdm,9,61508,0.0-6.1-0.1,0.0,10.0,,,,,,,[],,,,,,56.4,1.0,i,1.0,True,909.5999999046326,55.0,59.0,40.0,False,,327.92924873085644,[],"[738.5, 415.5]",ColorTask,0.0,2.0,,,HRV,HRV_0283,2022-11-30 20:50:52
,wl-rdm,10,64159,0.0-6.2-0.2,0.0,11.0,,,,,,,[],,,,,,62.5,0.0,u,0.0,True,1240.5999999046326,75.0,59.0,40.0,False,,322.4508741246393,[],"[738.5, 415.5]",ColorTask,1.0,3.0,,,HRV,HRV_0283,2022-11-30 20:50:52
,wl-rdm,11,66275,0.0-6.3-0.3,0.0,12.0,,,,,,,[],,,,,,62.5,1.0,i,1.0,True,769.0,47.0,59.0,40.0,False,,275.9618853763966,[],"[738.5, 415.5]",ColorTask,2.0,4.0,,,HRV,HRV_0283,2022-11-30 20:50:52
,wl-rdm,12,68260,0.0-6.4-0.4,0.0,13.0,,,,,,,[],,,,,,62.5,1.0,i,1.0,True,702.0,43.0,59.0,40.0,False,,200.9261929799734,[],"[738.5, 415.5]",ColorTask,3.0,5.0,,,HRV,HRV_0283,2022-11-30 20:50:52
,wl-rdm,13,70243,0.0-6.5-0.5,0.0,14.0,,,,,,,[],,,,,,87.9,1.0,i,1.0,True,569.7999999523163,35.0,59.0,40.0,False,,339.7611448617938,[],"[738.5, 415.5]",ColorTask,4.0,6.0,,,HRV,HRV_0283,2022-11-30 20:50:52
,wl-rdm,14,72291,0.0-6.6-0.6,0.0,15.0,,,,,,,[],,,,,,73.6,1.0,i,1.0,True,657.8999998569489,40.0,59.0,40.0,False,,334.948442329248,[],"[738.5, 415.5]",ColorTask,5.0,7.0,,,HRV,HRV_0283,2022-11-30 20:50:52
,wl-rdm,15,74458,0.0-6.7-0.7,0.0,16.0,,,,,,,[],,,,,,62.5,1.0,i,1.0,True,795.0000002384186,48.0,59.0,40.0,False,,288.9636441821907,[],"[738.5, 415.5]",ColorTask,6.0,8.0,,,HRV,HRV_0283,2022-11-30 20:50:52
,wl-rdm,16,76643,0.0-6.8-0.8,0.0,17.0,,,,,,,[],,,,,,56.4,0.0,i,1.0,False,828.5000002384186,50.0,59.0,40.0,False,,290.93216352374077,[],"[738.5, 415.5]",ColorTask,5.0,9.0,,,HRV,HRV_0283,2022-11-30 20:50:52
,wl-rdm,17,78657,0.0-6.9-0.9,0.0,18.0,,,,,,,[],,,,,,87.9,0.0,u,0.0,True,586.6000001430511,36.0,59.0,40.0,False,,339.8568578704915,[],"[738.5, 415.5]",ColorTask,6.0,10.0,,,HRV,HRV_0283,2022-11-30 20:50:52
,wl-rdm,18,80658,0.0-6.10-0.10,0.0,19.0,,,,,,,[],,,,,,56.4,1.0,i,1.0,True,677.0,41.0,59.0,40.0,False,,237.23614131892012,[],"[738.5, 415.5]",ColorTask,7.0,11.0,,,HRV,HRV_0283,2022-11-30 20:50:52
,wl-rdm,19,82758,0.0-6.11-0.11,0.0,20.0,,,,,,,[],,,,,,62.5,1.0,i,1.0,True,640.7999999523163,39.0,59.0,40.0,False,,367.82307269830653,[],"[738.5, 415.5]",ColorTask,8.0,12.0,,,HRV,HRV_0283,2022-11-30 20:50:52
,wl-rdm,20,84958,0.0-6.12-0.12,0.0,21.0,,,,,,,[],,,,,,56.4,1.0,i,1.0,True,732.5999999046326,44.0,59.0,40.0,False,,384.4941294889255,[],"[738.5, 415.5]",ColorTask,9.0,13.0,,,HRV,HRV_0283,2022-11-30 20:50:52
,wl-rdm,21,87042,0.0-6.13-0.13,0.0,22.0,,,,,,,[],,,,,,87.9,0.0,u,0.0,True,627.5000002384186,38.0,59.0,40.0,False,,380.94813185553903,[],"[738.5, 415.5]",ColorTask,10.0,14.0,,,HRV,HRV_0283,2022-11-30 20:50:52
,wl-rdm,22,89126,0.0-6.14-0.14,0.0,23.0,,,,,,,[],,,,,,73.6,0.0,u,0.0,True,624.3000001907349,38.0,59.0,40.0,False,,390.11619969829945,[],"[738.5, 415.5]",ColorTask,11.0,15.0,,,HRV,HRV_0283,2022-11-30 20:50:52
,wl-rdm,23,91208,0.0-6.15-0.15,0.0,24.0,,,,,,,[],,,,,,53.2,1.0,i,1.0,True,729.3000001907349,44.0,59.0,40.0,False,,276.1593511056287,[],"[738.5, 415.5]",ColorTask,12.0,16.0,,,HRV,HRV_0283,2022-11-30 20:50:52
,wl-rdm,24,93175,0.0-6.16-0.16,0.0,25.0,,,,,,,[],,,,,,87.9,0.0,u,0.0,True,607.0999999046326,37.0,59.0,40.0,False,,280.66635590633956,[],"[738.5, 415.5]",ColorTask,13.0,17.0,,,HRV,HRV_0283,2022-11-30 20:50:52
,wl-rdm,25,95259,0.0-6.17-0.17,0.0,26.0,,,,,,,[],,,,,,62.5,1.0,i,1.0,True,610.5999999046326,37.0,59.0,40.0,False,,392.43576230754684,[],"[738.5, 415.5]",ColorTask,14.0,18.0,,,HRV,HRV_0283,2022-11-30 20:50:52
,wl-rdm,26,97307,0.0-6.18-0.18,0.0,27.0,,,,,,,[],,,,,,56.4,1.0,i,1.0,True,691.2999999523163,42.0,59.0,40.0,False,,273.8083389501851,[],"[738.5, 415.5]",ColorTask,15.0,19.0,,,HRV,HRV_0283,2022-11-30 20:50:52
,wl-rdm,27,99391,0.0-6.19-0.19,0.0,28.0,,,,,,,[],,,,,,50.0,0.0,i,1.0,False,681.0999999046326,41.0,59.0,40.0,False,,323.2568472306557,[],"[738.5, 415.5]",ColorTask,14.0,20.0,,,HRV,HRV_0283,2022-11-30 20:50:52
,wl-rdm,28,101475,0.0-6.20-0.20,0.0,29.0,,,,,,,[],,,,,,53.2,0.0,u,0.0,True,710.5999999046326,43.0,59.0,40.0,False,,287.11417763241775,[],"[738.5, 415.5]",ColorTask,15.0,21.0,,,HRV,HRV_0283,2022-11-30 20:50:52
,wl-rdm,29,103642,0.0-6.21-0.21,0.0,30.0,,,,,,,[],,,,,,53.2,1.0,i,1.0,True,810.9000000953674,49.0,59.0,40.0,False,,293.32985948146444,[],"[738.5, 415.5]",ColorTask,16.0,22.0,,,HRV,HRV_0283,2022-11-30 20:50:52
,wl-rdm,30,105692,0.0-6.22-0.22,0.0,31.0,,,,,,,[],,,,,,53.2,1.0,u,0.0,False,709.9000000953674,43.0,59.0,40.0,False,,253.2610282773783,[],"[738.5, 415.5]",ColorTask,15.0,23.0,,,HRV,HRV_0283,2022-11-30 20:50:52
,wl-rdm,31,107792,0.0-6.23-0.23,0.0,32.0,,,,,,,[],,,,,,73.6,0.0,u,0.0,True,655.4000000953674,40.0,59.0,40.0,False,,358.73013499161726,[],"[738.5, 415.5]",ColorTask,16.0,24.0,,,HRV,HRV_0283,2022-11-30 20:50:52
,wl-rdm,32,109874,0.0-6.24-0.24,0.0,33.0,,,,,,,[],,,,,,56.4,0.0,i,1.0,False,776.5000002384186,47.0,59.0,40.0,False,,237.49841567580836,[],"[738.5, 415.5]",ColorTask,15.0,25.0,,,HRV,HRV_0283,2022-11-30 20:50:52
,wl-rdm,33,112326,0.0-6.25-0.25,0.0,34.0,,,,,,,[],,,,,,62.5,0.0,u,0.0,True,1024.2000000476837,62.0,59.0,40.0,False,,336.50282661605326,[],"[738.5, 415.5]",ColorTask,16.0,26.0,,,HRV,HRV_0283,2022-11-30 20:50:52
,wl-rdm,34,114542,0.0-6.26-0.26,0.0,35.0,,,,,,,[],,,,,,56.4,1.0,i,1.0,True,734.5999999046326,45.0,59.0,40.0,False,,399.46894244432644,[],"[738.5, 415.5]",ColorTask,17.0,27.0,,,HRV,HRV_0283,2022-11-30 20:50:52
,wl-rdm,35,116791,0.0-6.27-0.27,0.0,36.0,,,,,,,[],,,,,,62.5,1.0,i,1.0,True,939.2000000476837,57.0,59.0,40.0,False,,233.57938958658534,[],"[738.5, 415.5]",ColorTask,18.0,28.0,,,HRV,HRV_0283,2022-11-30 20:50:52
,wl-rdm,36,118791,0.0-6.28-0.28,0.0,37.0,,,,,,,[],,,,,,87.9,0.0,u,0.0,True,595.2000000476837,36.0,59.0,40.0,False,,341.93430296611996,[],"[738.5, 415.5]",ColorTask,19.0,29.0,,,HRV,HRV_0283,2022-11-30 20:50:52
,wl-rdm,37,120876,0.0-6.29-0.29,0.0,38.0,,,,,,,[],,,,,,53.2,0.0,i,1.0,False,726.1999998092651,44.0,59.0,40.0,False,,283.3523094089446,[],"[738.5, 415.5]",ColorTask,18.0,30.0,,,HRV,HRV_0283,2022-11-30 20:50:52
,wl-rdm,38,123059,0.0-6.30-0.30,0.0,39.0,,,,,,,[],,,,,,56.4,0.0,u,0.0,True,869.5999999046326,53.0,59.0,40.0,False,,243.08453247782995,[],"[738.5, 415.5]",ColorTask,19.0,31.0,,,HRV,HRV_0283,2022-11-30 20:50:52
,wl-rdm,39,125074,0.0-6.31-0.31,0.0,40.0,,,,,,,[],,,,,,50.0,1.0,u,0.0,False,710.0999999046326,43.0,59.0,40.0,False,,228.895490781945,[],"[738.5, 415.5]",ColorTask,18.0,32.0,,,HRV,HRV_0283,2022-11-30 20:50:52
,wl-rdm,40,127057,0.0-6.32-0.32,0.0,41.0,,,,,,,[],,,,,,56.4,1.0,i,1.0,True,560.6000001430511,34.0,59.0,40.0,False,,352.0195252027089,[],"[738.5, 415.5]",ColorTask,19.0,33.0,,,HRV,HRV_0283,2022-11-30 20:50:52
,wl-rdm,41,129574,0.0-6.33-0.33,0.0,42.0,,,,,,,[],,,,,,62.5,0.0,u,0.0,True,1138.8000001907349,69.0,59.0,40.0,False,,300.968428987853,[],"[738.5, 415.5]",ColorTask,20.0,34.0,,,HRV,HRV_0283,2022-11-30 20:50:52
,wl-rdm,42,131542,0.0-6.34-0.34,0.0,43.0,,,,,,,[],,,,,,53.2,1.0,i,1.0,True,682.4000000953674,41.0,59.0,40.0,False,,202.3738989112717,[],"[738.5, 415.5]",ColorTask,21.0,35.0,,,HRV,HRV_0283,2022-11-30 20:50:52
,wl-rdm,43,133474,0.0-6.35-0.35,0.0,44.0,,,,,,,[],,,,,,50.0,0.0,u,0.0,True,651.0999999046326,40.0,59.0,40.0,False,,210.20618203390447,[],"[738.5, 415.5]",ColorTask,22.0,36.0,,,HRV,HRV_0283,2022-11-30 20:50:52
,wl-rdm,44,136025,0.0-6.36-0.36,0.0,45.0,,,,,,,[],,,,,,62.5,1.0,i,1.0,True,1261.2999999523163,76.0,59.0,40.0,False,,219.107089984592,[],"[738.5, 415.5]",ColorTask,23.0,37.0,,,HRV,HRV_0283,2022-11-30 20:50:52
,wl-rdm,45,138191,0.0-6.37-0.37,0.0,46.0,,,,,,,[],,,,,,53.2,1.0,u,0.0,False,829.0999999046326,50.0,59.0,40.0,False,,269.86210076134694,[],"[738.5, 415.5]",ColorTask,22.0,38.0,,,HRV,HRV_0283,2022-11-30 20:50:52
,wl-rdm,46,140275,0.0-6.38-0.38,0.0,47.0,,,,,,,[],,,,,,87.9,0.0,u,0.0,True,685.2000002861023,42.0,59.0,40.0,False,,313.5983545600524,[],"[738.5, 415.5]",ColorTask,23.0,39.0,,,HRV,HRV_0283,2022-11-30 20:50:52
,wl-rdm,47,142792,0.0-6.39-0.39,0.0,48.0,,,,,,,[],,,,,,50.0,0.0,i,1.0,False,1155.0,70.0,59.0,40.0,False,,270.29989080881376,[],"[738.5, 415.5]",ColorTask,22.0,40.0,,,HRV,HRV_0283,2022-11-30 20:50:52
,wl-rdm,48,145625,0.0-6.40-0.40,0.0,49.0,,,,,,,[],,,,,,53.2,1.0,u,0.0,False,1428.6999998092651,86.0,59.0,40.0,False,,322.18048602759904,[],"[738.5, 415.5]",ColorTask,21.0,41.0,,,HRV,HRV_0283,2022-11-30 20:50:52
,wl-rdm,49,147692,0.0-6.41-0.41,0.0,50.0,,,,,,,[],,,,,,50.0,1.0,u,0.0,False,758.0999999046326,46.0,59.0,40.0,False,,244.3579793289903,[],"[738.5, 415.5]",ColorTask,20.0,42.0,,,HRV,HRV_0283,2022-11-30 20:50:52
,wl-rdm,50,150809,0.0-6.42-0.42,0.0,51.0,,,,,,,[],,,,,,56.4,1.0,i,1.0,True,1663.2000000476837,100.0,59.0,40.0,False,,376.6174577402316,[],"[738.5, 415.5]",ColorTask,21.0,43.0,,,HRV,HRV_0283,2022-11-30 20:50:52
,wl-rdm,51,152858,0.0-6.43-0.43,0.0,52.0,,,,,,,[],,,,,,73.6,0.0,u,0.0,True,677.1999998092651,41.0,59.0,40.0,False,,314.5670995391606,[],"[738.5, 415.5]",ColorTask,22.0,44.0,,,HRV,HRV_0283,2022-11-30 20:50:52
,wl-rdm,52,154876,0.0-6.44-0.44,0.0,53.0,,,,,,,[],,,,,,87.9,0.0,u,0.0,True,708.5999999046326,43.0,59.0,40.0,False,,234.34505899041906,[],"[738.5, 415.5]",ColorTask,23.0,45.0,,,HRV,HRV_0283,2022-11-30 20:50:52
,wl-rdm,53,156991,0.0-6.45-0.45,0.0,54.0,,,,,,,[],,,,,,56.4,0.0,u,0.0,True,705.9000000953674,43.0,59.0,40.0,False,,337.67731160451194,[],"[738.5, 415.5]",ColorTask,24.0,46.0,,,HRV,HRV_0283,2022-11-30 20:50:52
,wl-rdm,54,159459,0.0-6.46-0.46,0.0,55.0,,,,,,,[],,,,,,56.4,0.0,u,0.0,True,1119.0999999046326,68.0,59.0,40.0,False,,265.65547135378006,[],"[738.5, 415.5]",ColorTask,25.0,47.0,,,HRV,HRV_0283,2022-11-30 20:50:52
,wl-rdm,55,161475,0.0-6.47-0.47,0.0,56.0,,,,,,,[],,,,,,87.9,0.0,u,0.0,True,668.1000001430511,41.0,59.0,40.0,False,,274.80892216329187,[],"[738.5, 415.5]",ColorTask,26.0,48.0,,,HRV,HRV_0283,2022-11-30 20:50:52
,wl-rdm,56,163743,0.0-6.48-0.48,0.0,57.0,,,,,,,[],,,,,,62.5,0.0,u,0.0,True,974.2999997138977,59.0,59.0,40.0,False,,200.46901758177083,[],"[738.5, 415.5]",ColorTask,27.0,49.0,,,HRV,HRV_0283,2022-11-30 20:50:52
,wl-rdm,57,165858,0.0-6.49-0.49,0.0,58.0,,,,,,,[],,,,,,53.2,0.0,u,0.0,True,761.7999999523163,46.0,59.0,40.0,False,,277.7728406215383,[],"[738.5, 415.5]",ColorTask,28.0,50.0,,,HRV,HRV_0283,2022-11-30 20:50:52
,wl-rdm,58,167958,0.0-6.50-0.50,0.0,59.0,,,,,,,[],,,,,,50.0,0.0,i,1.0,False,755.7000000476837,46.0,59.0,40.0,False,,261.27959261716256,[],"[738.5, 415.5]",ColorTask,27.0,51.0,,,HRV,HRV_0283,2022-11-30 20:50:52
,wl-rdm,59,169993,0.0-6.51-0.51,0.0,60.0,,,,,,,[],,,,,,73.6,1.0,i,1.0,True,689.5999999046326,42.0,59.0,40.0,False,,262.6414403474878,[],"[738.5, 415.5]",ColorTask,28.0,52.0,,,HRV,HRV_0283,2022-11-30 20:50:52
,wl-rdm,60,172342,0.0-6.52-0.52,0.0,61.0,,,,,,,[],,,,,,56.4,0.0,u,0.0,True,932.9000000953674,56.0,59.0,40.0,False,,347.12176903531974,[],"[738.5, 415.5]",ColorTask,29.0,53.0,,,HRV,HRV_0283,2022-11-30 20:50:52
,wl-rdm,61,174475,0.0-6.53-0.53,0.0,62.0,,,,,,,[],,,,,,87.9,1.0,i,1.0,True,718.1000001430511,44.0,59.0,40.0,False,,324.6655202669794,[],"[738.5, 415.5]",ColorTask,30.0,54.0,,,HRV,HRV_0283,2022-11-30 20:50:52
,wl-rdm,62,176442,0.0-6.54-0.54,0.0,63.0,,,,,,,[],,,,,,73.6,1.0,i,1.0,True,670.0999999046326,41.0,59.0,40.0,False,,226.90061688675726,[],"[738.5, 415.5]",ColorTask,31.0,55.0,,,HRV,HRV_0283,2022-11-30 20:50:52
,wl-rdm,63,178593,0.0-6.55-0.55,0.0,64.0,,,,,,,[],,,,,,73.6,0.0,u,0.0,True,723.0,44.0,59.0,40.0,False,,352.36014478214776,[],"[738.5, 415.5]",ColorTask,32.0,56.0,,,HRV,HRV_0283,2022-11-30 20:50:52
,wl-rdm,64,180725,0.0-6.56-0.56,0.0,65.0,,,,,,,[],,,,,,73.6,0.0,u,0.0,True,717.3999998569489,44.0,59.0,40.0,False,,332.4340244198688,[],"[738.5, 415.5]",ColorTask,33.0,57.0,,,HRV,HRV_0283,2022-11-30 20:50:52
,wl-rdm,65,182725,0.0-6.57-0.57,0.0,66.0,,,,,,,[],,,,,,87.9,1.0,i,1.0,True,683.5,42.0,59.0,40.0,False,,222.13296463467805,[],"[738.5, 415.5]",ColorTask,34.0,58.0,,,HRV,HRV_0283,2022-11-30 20:50:52
,wl-rdm,66,184975,0.0-6.58-0.58,0.0,67.0,,,,,,,[],,,,,,62.5,1.0,i,1.0,True,940.3999998569489,57.0,59.0,40.0,False,,227.24083899932413,[],"[738.5, 415.5]",ColorTask,35.0,59.0,,,HRV,HRV_0283,2022-11-30 20:50:52
,wl-rdm,67,187175,0.0-6.59-0.59,0.0,68.0,,,,,,,[],,,,,,62.5,1.0,i,1.0,True,814.0999999046326,49.0,59.0,40.0,False,,332.1021649544042,[],"[738.5, 415.5]",ColorTask,36.0,60.0,,,HRV,HRV_0283,2022-11-30 20:50:52
,wl-rdm,68,189175,0.0-6.60-0.60,0.0,69.0,,,,,,,[],,,,,,50.0,1.0,u,0.0,False,682.1999998092651,41.0,59.0,40.0,False,,244.51777759797108,[],"[738.5, 415.5]",ColorTask,35.0,61.0,,,HRV,HRV_0283,2022-11-30 20:50:52
,wl-rdm,69,191308,0.0-6.61-0.61,0.0,70.0,,,,,,,[],,,,,,62.5,0.0,u,0.0,True,724.7000000476837,44.0,59.0,40.0,False,,323.048576383801,[],"[738.5, 415.5]",ColorTask,36.0,62.0,,,HRV,HRV_0283,2022-11-30 20:50:52
,wl-rdm,70,193410,0.0-6.62-0.62,0.0,71.0,,,,,,,[],,,,,,73.6,1.0,i,1.0,True,788.7999999523163,48.0,59.0,40.0,False,,221.12292330475367,[],"[738.5, 415.5]",ColorTask,37.0,63.0,,,HRV,HRV_0283,2022-11-30 20:50:52
,wl-rdm,71,196175,0.0-6.63-0.63,0.0,72.0,,,,,,,[],,,,,,53.2,0.0,u,0.0,True,1406.9000000953674,85.0,59.0,40.0,False,,268.81939158077995,[],"[738.5, 415.5]",ColorTask,38.0,64.0,,,HRV,HRV_0283,2022-11-30 20:50:52
,wl-rdm,72,198224,0.0-6.64-0.64,0.0,73.0,,,,,,,[],,,,,,53.2,1.0,i,1.0,True,754.1000001430511,46.0,59.0,40.0,False,,210.882594374204,[],"[738.5, 415.5]",ColorTask,39.0,65.0,,,HRV,HRV_0283,2022-11-30 20:50:52
,wl-rdm,73,200508,0.0-6.65-0.65,0.0,74.0,,,,,,,[],,,,,,53.2,0.0,u,0.0,True,867.6999998092651,52.0,59.0,40.0,False,,333.23726616666227,[],"[738.5, 415.5]",ColorTask,40.0,66.0,,,HRV,HRV_0283,2022-11-30 20:50:52
,wl-rdm,74,202525,0.0-6.66-0.66,0.0,75.0,,,,,,,[],,,,,,62.5,0.0,u,0.0,True,681.7999997138977,41.0,59.0,40.0,False,,267.92269065604205,[],"[738.5, 415.5]",ColorTask,41.0,67.0,,,HRV,HRV_0283,2022-11-30 20:50:52
,wl-rdm,75,204509,0.0-6.67-0.67,0.0,76.0,,,,,,,[],,,,,,87.9,1.0,i,1.0,True,590.7999999523163,36.0,59.0,40.0,False,,332.0061064795624,[],"[738.5, 415.5]",ColorTask,42.0,68.0,,,HRV,HRV_0283,2022-11-30 20:50:52
,wl-rdm,76,206543,0.0-6.68-0.68,0.0,77.0,,,,,,,[],,,,,,56.4,1.0,i,1.0,True,738.7999999523163,45.0,59.0,40.0,False,,233.546182722962,[],"[738.5, 415.5]",ColorTask,43.0,69.0,,,HRV,HRV_0283,2022-11-30 20:50:52
,wl-rdm,77,208475,0.0-6.69-0.69,0.0,78.0,,,,,,,[],,,,,,53.2,0.0,u,0.0,True,619.7999999523163,38.0,59.0,40.0,False,,222.69676926819355,[],"[738.5, 415.5]",ColorTask,44.0,70.0,,,HRV,HRV_0283,2022-11-30 20:50:52
,wl-rdm,78,210391,0.0-6.70-0.70,0.0,79.0,,,,,,,[],,,,,,73.6,1.0,i,1.0,True,622.0,38.0,59.0,40.0,False,,207.37095312378506,[],"[738.5, 415.5]",ColorTask,45.0,71.0,,,HRV,HRV_0283,2022-11-30 20:50:52
,wl-rdm,79,213258,0.0-6.71-0.71,0.0,80.0,,,,,,,[],,,,,,50.0,0.0,u,0.0,True,1405.1000001430511,84.0,59.0,40.0,False,,386.66429335230725,[],"[738.5, 415.5]",ColorTask,46.0,72.0,,,HRV,HRV_0283,2022-11-30 20:50:52
,wl-rdm,80,215424,0.0-6.72-0.72,0.0,81.0,,,,,,,[],,,,,,50.0,1.0,i,1.0,True,761.5000002384186,46.0,59.0,40.0,False,,345.44164750260484,[],"[738.5, 415.5]",ColorTask,47.0,73.0,,,HRV,HRV_0283,2022-11-30 20:50:52
,wl-rdm,81,217743,0.0-6.73-0.73,0.0,82.0,,,,,,,[],,,,,,50.0,0.0,u,0.0,True,864.7000000476837,52.0,59.0,40.0,False,,373.65900598763676,[],"[738.5, 415.5]",ColorTask,48.0,74.0,,,HRV,HRV_0283,2022-11-30 20:50:52
,wl-rdm,82,219674,0.0-6.74-0.74,0.0,83.0,,,,,,,[],,,,,,87.9,1.0,i,1.0,True,627.6999998092651,38.0,59.0,40.0,False,,219.771541617313,[],"[738.5, 415.5]",ColorTask,49.0,75.0,,,HRV,HRV_0283,2022-11-30 20:50:52
,wl-rdm,83,221908,0.0-6.75-0.75,0.0,84.0,,,,,,,[],,,,,,56.4,0.0,u,0.0,True,750.9000000953674,46.0,59.0,40.0,False,,390.60938677411286,[],"[738.5, 415.5]",ColorTask,50.0,76.0,,,HRV,HRV_0283,2022-11-30 20:50:52
,wl-rdm,84,223925,0.0-6.76-0.76,0.0,85.0,,,,,,,[],,,,,,87.9,0.0,u,0.0,True,665.9000000953674,40.0,59.0,40.0,False,,289.01896883864123,[],"[738.5, 415.5]",ColorTask,51.0,77.0,,,HRV,HRV_0283,2022-11-30 20:50:52
,wl-rdm,85,225942,0.0-6.77-0.77,0.0,86.0,,,,,,,[],,,,,,87.9,1.0,i,1.0,True,597.6999998092651,36.0,59.0,40.0,False,,339.15832150682104,[],"[738.5, 415.5]",ColorTask,52.0,78.0,,,HRV,HRV_0283,2022-11-30 20:50:52
,wl-rdm,86,227891,0.0-6.78-0.78,0.0,87.0,,,,,,,[],,,,,,73.6,1.0,i,1.0,True,675.7999999523163,41.0,59.0,40.0,False,,211.49651235101817,[],"[738.5, 415.5]",ColorTask,53.0,79.0,,,HRV,HRV_0283,2022-11-30 20:50:52
,wl-rdm,87,230509,0.0-6.79-0.79,0.0,88.0,,,,,,,[],,,,,,62.5,0.0,u,0.0,True,1316.2000000476837,79.0,59.0,40.0,False,,232.67697344799555,[],"[738.5, 415.5]",ColorTask,54.0,80.0,,,HRV,HRV_0283,2022-11-30 20:50:52
,wl-rdm,88,232891,0.0-6.80-0.80,0.0,89.0,,,,,,,[],,,,,,56.4,0.0,u,0.0,True,1076.1999998092651,65.0,59.0,40.0,False,,227.1752362020401,[],"[738.5, 415.5]",ColorTask,55.0,81.0,,,HRV,HRV_0283,2022-11-30 20:50:52
,wl-rdm,89,235925,0.0-6.81-0.81,0.0,90.0,,,,,,,[],,,,,,50.0,0.0,u,0.0,True,1581.8999998569489,95.0,59.0,40.0,False,,379.5231379447639,[],"[738.5, 415.5]",ColorTask,56.0,82.0,,,HRV,HRV_0283,2022-11-30 20:50:52
,wl-rdm,90,237793,0.0-6.82-0.82,0.0,91.0,,,,,,,[],,,,,,73.6,1.0,i,1.0,True,561.9000000953674,34.0,59.0,40.0,False,,235.85865183915772,[],"[738.5, 415.5]",ColorTask,57.0,83.0,,,HRV,HRV_0283,2022-11-30 20:50:52
,wl-rdm,91,240393,0.0-6.83-0.83,0.0,92.0,,,,,,,[],,,,,,50.0,1.0,u,0.0,False,1188.1000001430511,72.0,59.0,40.0,False,,317.6208167188311,[],"[738.5, 415.5]",ColorTask,56.0,84.0,,,HRV,HRV_0283,2022-11-30 20:50:52
,wl-rdm,92,243625,0.0-6.84-0.84,0.0,93.0,,,,,,,[],,,,,,50.0,1.0,i,1.0,True,1788.0,108.0,59.0,40.0,False,,351.99388323415513,[],"[738.5, 415.5]",ColorTask,57.0,85.0,,,HRV,HRV_0283,2022-11-30 20:50:52
,wl-rdm,93,245575,0.0-6.85-0.85,0.0,94.0,,,,,,,[],,,,,,87.9,0.0,u,0.0,True,605.0000002384186,37.0,59.0,40.0,False,,282.62624506961356,[],"[738.5, 415.5]",ColorTask,58.0,86.0,,,HRV,HRV_0283,2022-11-30 20:50:52
,wl-rdm,94,247575,0.0-6.86-0.86,0.0,95.0,,,,,,,[],,,,,,87.9,1.0,i,1.0,True,581.0999999046326,35.0,59.0,40.0,False,,344.01972690608704,[],"[738.5, 415.5]",ColorTask,59.0,87.0,,,HRV,HRV_0283,2022-11-30 20:50:52
,wl-rdm,95,249809,0.0-6.87-0.87,0.0,96.0,,,,,,,[],,,,,,50.0,1.0,i,1.0,True,855.4000000953674,52.0,59.0,40.0,False,,306.61687294718644,[],"[738.5, 415.5]",ColorTask,60.0,88.0,,,HRV,HRV_0283,2022-11-30 20:50:52
,wl-rdm,96,252508,0.0-6.88-0.88,0.0,97.0,,,,,,,[],,,,,,53.2,0.0,u,0.0,True,1334.8999998569489,81.0,59.0,40.0,False,,283.5921440009881,[],"[738.5, 415.5]",ColorTask,61.0,89.0,,,HRV,HRV_0283,2022-11-30 20:50:52
,wl-rdm,97,254542,0.0-6.89-0.89,0.0,98.0,,,,,,,[],,,,,,62.5,0.0,u,0.0,True,666.0,40.0,59.0,40.0,False,,290.37599183538555,[],"[738.5, 415.5]",ColorTask,62.0,90.0,,,HRV,HRV_0283,2022-11-30 20:50:52
,wl-rdm,98,257093,0.0-6.90-0.90,0.0,99.0,,,,,,,[],,,,,,53.2,1.0,i,1.0,True,1217.4000000953674,74.0,59.0,40.0,False,,260.1747650810155,[],"[738.5, 415.5]",ColorTask,63.0,91.0,,,HRV,HRV_0283,2022-11-30 20:50:52
,wl-rdm,99,259091,0.0-6.91-0.91,0.0,100.0,,,,,,,[],,,,,,73.6,1.0,i,1.0,True,684.1000001430511,42.0,59.0,40.0,False,,244.74082349356968,[],"[738.5, 415.5]",ColorTask,64.0,92.0,,,HRV,HRV_0283,2022-11-30 20:50:52
,wl-rdm,100,261075,0.0-6.92-0.92,0.0,101.0,,,,,,,[],,,,,,73.6,0.0,u,0.0,True,542.2000000476837,33.0,59.0,40.0,False,,375.6090819239565,[],"[738.5, 415.5]",ColorTask,65.0,93.0,,,HRV,HRV_0283,2022-11-30 20:50:52
,wl-rdm,101,263124,0.0-6.93-0.93,0.0,102.0,,,,,,,[],,,,,,73.6,0.0,u,0.0,True,734.3999998569489,44.0,59.0,40.0,False,,236.86401350068198,[],"[738.5, 415.5]",ColorTask,66.0,94.0,,,HRV,HRV_0283,2022-11-30 20:50:52
,wl-rdm,102,265025,0.0-6.94-0.94,0.0,103.0,,,,,,,[],,,,,,73.6,1.0,i,1.0,True,554.4000000953674,34.0,59.0,40.0,False,,271.5765203718237,[],"[738.5, 415.5]",ColorTask,67.0,95.0,,,HRV,HRV_0283,2022-11-30 20:50:52
,wl-rdm,103,267324,0.0-6.95-0.95,0.0,104.0,,,,,,,[],,,,,,50.0,0.0,u,0.0,True,915.0,55.0,59.0,40.0,False,,321.45976985078244,[],"[738.5, 415.5]",ColorTask,68.0,96.0,,,HRV,HRV_0283,2022-11-30 20:50:52
,wl-rdm,104,269958,0.0-6.96-0.96,0.0,105.0,,,,,,,[],,,,,,50.0,1.0,u,0.0,False,1190.5999999046326,72.0,59.0,40.0,False,,373.972215348187,[],"[738.5, 415.5]",ColorTask,67.0,97.0,,,HRV,HRV_0283,2022-11-30 20:50:52
,wl-rdm,105,271824,0.0-6.97-0.97,0.0,106.0,,,,,,,[],,,,,,87.9,1.0,i,1.0,True,594.1000001430511,36.0,59.0,40.0,False,,204.57602531001052,[],"[738.5, 415.5]",ColorTask,68.0,98.0,,,HRV,HRV_0283,2022-11-30 20:50:52
,wl-rdm,106,274342,0.0-6.98-0.98,0.0,107.0,,,,,,,[],,,,,,56.4,1.0,i,1.0,True,1198.8000001907349,72.0,59.0,40.0,False,,249.71188042787577,[],"[738.5, 415.5]",ColorTask,69.0,99.0,,,HRV,HRV_0283,2022-11-30 20:50:52
,wl-rdm,107,276242,0.0-6.99-0.99,0.0,108.0,,,,,,,[],,,,,,87.9,1.0,i,1.0,True,619.1999998092651,38.0,59.0,40.0,False,,208.87537237442137,[],"[738.5, 415.5]",ColorTask,70.0,100.0,,,HRV,HRV_0283,2022-11-30 20:50:52
,wl-rdm,108,279258,0.0-6.100-0.100,0.0,109.0,,,,,,,[],,,,,,53.2,0.0,u,0.0,True,1569.0,95.0,59.0,40.0,False,,373.202679171459,[],"[738.5, 415.5]",ColorTask,71.0,101.0,,,HRV,HRV_0283,2022-11-30 20:50:52
,wl-rdm,109,281225,0.0-6.101-0.101,0.0,110.0,,,,,,,[],,,,,,73.6,0.0,u,0.0,True,595.7999999523163,36.0,59.0,40.0,False,,295.04916748696996,[],"[738.5, 415.5]",ColorTask,72.0,102.0,,,HRV,HRV_0283,2022-11-30 20:50:52
,wl-rdm,110,283208,0.0-6.102-0.102,0.0,111.0,,,,,,,[],,,,,,53.2,1.0,i,1.0,True,589.400000333786,36.0,59.0,40.0,False,,316.6987181153655,[],"[738.5, 415.5]",ColorTask,73.0,103.0,,,HRV,HRV_0283,2022-11-30 20:50:52
,wl-rdm,111,285625,0.0-6.103-0.103,0.0,112.0,,,,,,,[],,,,,,56.4,0.0,u,0.0,True,1102.9000000953674,67.0,59.0,40.0,False,,249.13860901017455,[],"[738.5, 415.5]",ColorTask,74.0,104.0,,,HRV,HRV_0283,2022-11-30 20:50:52
,wl-rdm,112,288392,0.0-6.104-0.104,0.0,113.0,,,,,,,[],,,,,,50.0,0.0,u,0.0,True,1455.2000000476837,88.0,59.0,40.0,False,,231.53325640212353,[],"[738.5, 415.5]",ColorTask,75.0,105.0,,,HRV,HRV_0283,2022-11-30 20:50:52
,wl-rdm,113,290309,0.0-6.105-0.105,0.0,114.0,,,,,,,[],,,,,,73.6,0.0,u,0.0,True,617.2999999523163,37.0,59.0,40.0,False,,222.94403765227136,[],"[738.5, 415.5]",ColorTask,76.0,106.0,,,HRV,HRV_0283,2022-11-30 20:50:52
,wl-rdm,114,292458,0.0-6.106-0.106,0.0,115.0,,,,,,,[],,,,,,50.0,1.0,i,1.0,True,726.6000001430511,44.0,59.0,40.0,False,,344.7950229108548,[],"[738.5, 415.5]",ColorTask,77.0,107.0,,,HRV,HRV_0283,2022-11-30 20:50:52
,wl-rdm,115,295209,0.0-6.107-0.107,0.0,116.0,,,,,,,[],,,,,,62.5,0.0,u,0.0,True,1430.0,86.0,59.0,40.0,False,,241.13126789927028,[],"[738.5, 415.5]",ColorTask,78.0,108.0,,,HRV,HRV_0283,2022-11-30 20:50:52
,wl-html-keyboard-response,116,303305,0.0-7.0-0.0,1.0,117.0,,,,,,,,6091.899999856949,1.0,0,,,,,,,,,,,,,,,,,,,,,,HRV,HRV_0283,2022-11-30 20:50:52
,wl-rdm,117,305242,0.0-8.0-0.0,1.0,118.0,,,,,,,[],,,,,,87.9,0.0,u,0.0,True,660.8999998569489,40.0,59.0,40.0,False,,209.4010451527529,[],"[738.5, 415.5]",ColorTask,79.0,1.0,,,HRV,HRV_0283,2022-11-30 20:50:52
,wl-rdm,118,307426,0.0-8.1-0.1,1.0,119.0,,,,,,,[],,,,,,73.6,0.0,u,0.0,True,704.7000000476837,43.0,59.0,40.0,False,,397.7622600219445,[],"[738.5, 415.5]",ColorTask,80.0,2.0,,,HRV,HRV_0283,2022-11-30 20:50:52
,wl-rdm,119,309492,0.0-8.2-0.2,1.0,120.0,,,,,,,[],,,,,,73.6,1.0,i,1.0,True,760.0999999046326,46.0,59.0,40.0,False,,227.7364709545083,[],"[738.5, 415.5]",ColorTask,81.0,3.0,,,HRV,HRV_0283,2022-11-30 20:50:52
,wl-rdm,120,311508,0.0-8.3-0.3,1.0,121.0,,,,,,,[],,,,,,56.4,1.0,i,1.0,True,718.6000001430511,44.0,59.0,40.0,False,,214.57846847539588,[],"[738.5, 415.5]",ColorTask,82.0,4.0,,,HRV,HRV_0283,2022-11-30 20:50:52
,wl-rdm,121,314809,0.0-8.4-0.4,1.0,122.0,,,,,,,[],,,,,,50.0,1.0,i,1.0,True,1939.0999999046326,117.0,59.0,40.0,False,,271.8453533324871,[],"[738.5, 415.5]",ColorTask,83.0,5.0,,,HRV,HRV_0283,2022-11-30 20:50:52
,wl-rdm,122,316741,0.0-8.5-0.5,1.0,123.0,,,,,,,[],,,,,,87.9,1.0,i,1.0,True,615.2999999523163,37.0,59.0,40.0,False,,246.29915145158702,[],"[738.5, 415.5]",ColorTask,84.0,6.0,,,HRV,HRV_0283,2022-11-30 20:50:52
,wl-rdm,123,319376,0.0-8.6-0.6,1.0,124.0,,,,,,,[],,,,,,50.0,1.0,u,0.0,False,1347.2999999523163,81.0,59.0,40.0,False,,220.43249090789647,[],"[738.5, 415.5]",ColorTask,83.0,7.0,,,HRV,HRV_0283,2022-11-30 20:50:52
,wl-rdm,124,322342,0.0-8.7-0.7,1.0,125.0,,,,,,,[],,,,,,56.4,1.0,i,1.0,True,1675.0000002384186,101.0,59.0,40.0,False,,210.18770917684077,[],"[738.5, 415.5]",ColorTask,84.0,8.0,,,HRV,HRV_0283,2022-11-30 20:50:52
,wl-rdm,125,325292,0.0-8.8-0.8,1.0,126.0,,,,,,,[],,,,,,56.4,1.0,i,1.0,True,1542.0999999046326,93.0,59.0,40.0,False,,340.06389730329136,[],"[738.5, 415.5]",ColorTask,85.0,9.0,,,HRV,HRV_0283,2022-11-30 20:50:52
,wl-rdm,126,327275,0.0-8.9-0.9,1.0,127.0,,,,,,,[],,,,,,87.9,0.0,u,0.0,True,627.099999666214,38.0,59.0,40.0,False,,282.239835410097,[],"[738.5, 415.5]",ColorTask,86.0,10.0,,,HRV,HRV_0283,2022-11-30 20:50:52
,wl-rdm,127,329591,0.0-8.10-0.10,1.0,128.0,,,,,,,[],,,,,,56.4,0.0,u,0.0,True,1006.1999998092651,61.0,59.0,40.0,False,,232.0207037845784,[],"[738.5, 415.5]",ColorTask,87.0,11.0,,,HRV,HRV_0283,2022-11-30 20:50:52
,wl-rdm,128,331558,0.0-8.11-0.11,1.0,129.0,,,,,,,[],,,,,,62.5,1.0,i,1.0,True,689.1000001430511,42.0,59.0,40.0,False,,211.94765539770083,[],"[738.5, 415.5]",ColorTask,88.0,12.0,,,HRV,HRV_0283,2022-11-30 20:50:52
,wl-rdm,129,334342,0.0-8.12-0.12,1.0,130.0,,,,,,,[],,,,,,50.0,0.0,u,0.0,True,1413.7999999523163,85.0,59.0,40.0,False,,312.88087860031885,[],"[738.5, 415.5]",ColorTask,89.0,13.0,,,HRV,HRV_0283,2022-11-30 20:50:52
,wl-rdm,130,336492,0.0-8.13-0.13,1.0,131.0,,,,,,,[],,,,,,53.2,1.0,i,1.0,True,716.7999999523163,44.0,59.0,40.0,False,,353.91822923101955,[],"[738.5, 415.5]",ColorTask,90.0,14.0,,,HRV,HRV_0283,2022-11-30 20:50:52
,wl-rdm,131,338676,0.0-8.14-0.14,1.0,132.0,,,,,,,[],,,,,,53.2,1.0,i,1.0,True,758.8999998569489,46.0,59.0,40.0,False,,366.71986298968784,[],"[738.5, 415.5]",ColorTask,91.0,15.0,,,HRV,HRV_0283,2022-11-30 20:50:52
,wl-rdm,132,341392,0.0-8.15-0.15,1.0,133.0,,,,,,,[],,,,,,56.4,0.0,i,1.0,False,1280.3999998569489,77.0,59.0,40.0,False,,363.97960292455423,[],"[738.5, 415.5]",ColorTask,90.0,16.0,,,HRV,HRV_0283,2022-11-30 20:50:52
,wl-rdm,133,343775,0.0-8.16-0.16,1.0,134.0,,,,,,,[],,,,,,56.4,0.0,u,0.0,True,979.9000000953674,59.0,59.0,40.0,False,,328.0624911779057,[],"[738.5, 415.5]",ColorTask,91.0,17.0,,,HRV,HRV_0283,2022-11-30 20:50:52
,wl-rdm,134,345674,0.0-8.17-0.17,1.0,135.0,,,,,,,[],,,,,,87.9,0.0,u,0.0,True,568.0999999046326,35.0,59.0,40.0,False,,264.98812757002287,[],"[738.5, 415.5]",ColorTask,92.0,18.0,,,HRV,HRV_0283,2022-11-30 20:50:52
,wl-rdm,135,347759,0.0-8.18-0.18,1.0,136.0,,,,,,,[],,,,,,73.6,1.0,i,1.0,True,631.2999999523163,38.0,59.0,40.0,False,,382.55877939607956,[],"[738.5, 415.5]",ColorTask,93.0,19.0,,,HRV,HRV_0283,2022-11-30 20:50:52
,wl-rdm,136,350742,0.0-8.19-0.19,1.0,137.0,,,,,,,[],,,,,,56.4,0.0,u,0.0,True,1574.3999998569489,95.0,59.0,40.0,False,,345.62086330143427,[],"[738.5, 415.5]",ColorTask,94.0,20.0,,,HRV,HRV_0283,2022-11-30 20:50:52
,wl-rdm,137,352725,0.0-8.20-0.20,1.0,138.0,,,,,,,[],,,,,,87.9,0.0,u,0.0,True,606.7999999523163,37.0,59.0,40.0,False,,304.8805863030648,[],"[738.5, 415.5]",ColorTask,95.0,21.0,,,HRV,HRV_0283,2022-11-30 20:50:52
,wl-rdm,138,355075,0.0-8.21-0.21,1.0,139.0,,,,,,,[],,,,,,62.5,0.0,u,0.0,True,901.0,55.0,59.0,40.0,False,,383.20745149096115,[],"[738.5, 415.5]",ColorTask,96.0,22.0,,,HRV,HRV_0283,2022-11-30 20:50:52
,wl-rdm,139,357041,0.0-8.22-0.22,1.0,140.0,,,,,,,[],,,,,,87.9,0.0,u,0.0,True,493.89999985694885,30.0,59.0,40.0,False,,392.00375984422385,[],"[738.5, 415.5]",ColorTask,97.0,23.0,,,HRV,HRV_0283,2022-11-30 20:50:52
,wl-rdm,140,358891,0.0-8.23-0.23,1.0,141.0,,,,,,,[],,,,,,73.6,0.0,u,0.0,True,524.7000000476837,32.0,59.0,40.0,False,,257.6415412434569,[],"[738.5, 415.5]",ColorTask,98.0,24.0,,,HRV,HRV_0283,2022-11-30 20:50:52
,wl-rdm,141,361076,0.0-8.24-0.24,1.0,142.0,,,,,,,[],,,,,,62.5,0.0,u,0.0,True,876.7000000476837,53.0,59.0,40.0,False,,229.2400926565888,[],"[738.5, 415.5]",ColorTask,99.0,25.0,,,HRV,HRV_0283,2022-11-30 20:50:52
,wl-rdm,142,363992,0.0-8.25-0.25,1.0,143.0,,,,,,,[],,,,,,53.2,0.0,u,0.0,True,1480.0999999046326,89.0,59.0,40.0,False,,356.0685448704212,[],"[738.5, 415.5]",ColorTask,100.0,26.0,,,HRV,HRV_0283,2022-11-30 20:50:52
,wl-rdm,143,366242,0.0-8.26-0.26,1.0,144.0,,,,,,,[],,,,,,56.4,1.0,i,1.0,True,854.0,52.0,59.0,40.0,False,,311.01591453626446,[],"[738.5, 415.5]",ColorTask,101.0,27.0,,,HRV,HRV_0283,2022-11-30 20:50:52
,wl-rdm,144,368342,0.0-8.27-0.27,1.0,145.0,,,,,,,[],,,,,,50.0,0.0,u,0.0,True,823.8999998569489,50.0,59.0,40.0,False,,210.10802990779962,[],"[738.5, 415.5]",ColorTask,102.0,28.0,,,HRV,HRV_0283,2022-11-30 20:50:52
,wl-rdm,145,370275,0.0-8.28-0.28,1.0,146.0,,,,,,,[],,,,,,73.6,1.0,i,1.0,True,601.3000001907349,37.0,59.0,40.0,False,,243.59580804590178,[],"[738.5, 415.5]",ColorTask,103.0,29.0,,,HRV,HRV_0283,2022-11-30 20:50:52
,wl-rdm,146,372224,0.0-8.29-0.29,1.0,147.0,,,,,,,[],,,,,,56.4,1.0,i,1.0,True,621.6999998092651,38.0,59.0,40.0,False,,251.7062174190939,[],"[738.5, 415.5]",ColorTask,104.0,30.0,,,HRV,HRV_0283,2022-11-30 20:50:52
,wl-rdm,147,374158,0.0-8.30-0.30,1.0,148.0,,,,,,,[],,,,,,53.2,1.0,u,0.0,False,648.8000001907349,39.0,59.0,40.0,False,,205.98815047238486,[],"[738.5, 415.5]",ColorTask,103.0,31.0,,,HRV,HRV_0283,2022-11-30 20:50:52
,wl-rdm,148,377058,0.0-8.31-0.31,1.0,149.0,,,,,,,[],,,,,,56.4,0.0,u,0.0,True,1570.1000001430511,95.0,59.0,40.0,False,,236.70613402638892,[],"[738.5, 415.5]",ColorTask,104.0,32.0,,,HRV,HRV_0283,2022-11-30 20:50:52
,wl-rdm,149,378975,0.0-8.32-0.32,1.0,150.0,,,,,,,[],,,,,,73.6,1.0,i,1.0,True,573.5999999046326,35.0,59.0,40.0,False,,257.3812248206566,[],"[738.5, 415.5]",ColorTask,105.0,33.0,,,HRV,HRV_0283,2022-11-30 20:50:52
,wl-rdm,150,381091,0.0-8.33-0.33,1.0,151.0,,,,,,,[],,,,,,50.0,1.0,u,0.0,False,842.1000001430511,51.0,59.0,40.0,False,,211.53868824403807,[],"[738.5, 415.5]",ColorTask,104.0,34.0,,,HRV,HRV_0283,2022-11-30 20:50:52
,wl-rdm,151,383892,0.0-8.34-0.34,1.0,152.0,,,,,,,[],,,,,,50.0,0.0,u,0.0,True,1525.0,92.0,59.0,40.0,False,,202.15416415883433,[],"[738.5, 415.5]",ColorTask,105.0,35.0,,,HRV,HRV_0283,2022-11-30 20:50:52
,wl-rdm,152,385958,0.0-8.35-0.35,1.0,153.0,,,,,,,[],,,,,,50.0,1.0,u,0.0,False,748.0,45.0,59.0,40.0,False,,249.2931377243335,[],"[738.5, 415.5]",ColorTask,104.0,36.0,,,HRV,HRV_0283,2022-11-30 20:50:52
,wl-rdm,153,388074,0.0-8.36-0.36,1.0,154.0,,,,,,,[],,,,,,73.6,1.0,i,1.0,True,734.7999999523163,45.0,59.0,40.0,False,,303.677141541291,[],"[738.5, 415.5]",ColorTask,105.0,37.0,,,HRV,HRV_0283,2022-11-30 20:50:52
,wl-rdm,154,390943,0.0-8.37-0.37,1.0,155.0,,,,,,,[],,,,,,50.0,0.0,i,1.0,False,1564.3000001907349,94.0,59.0,40.0,False,,222.08530992913796,[],"[738.5, 415.5]",ColorTask,104.0,38.0,,,HRV,HRV_0283,2022-11-30 20:50:52
,wl-rdm,155,394208,0.0-8.38-0.38,1.0,156.0,,,,,,,[],,,,,,56.4,1.0,u,0.0,False,1987.0,120.0,59.0,40.0,False,,211.19757439209442,[],"[738.5, 415.5]",ColorTask,103.0,39.0,,,HRV,HRV_0283,2022-11-30 20:50:52
,wl-rdm,156,396291,0.0-8.39-0.39,1.0,157.0,,,,,,,[],,,,,,87.9,1.0,i,1.0,True,807.9000000953674,49.0,59.0,40.0,False,,213.77956034663174,[],"[738.5, 415.5]",ColorTask,104.0,40.0,,,HRV,HRV_0283,2022-11-30 20:50:52
,wl-rdm,157,398609,0.0-8.40-0.40,1.0,158.0,,,,,,,[],,,,,,73.6,0.0,u,0.0,True,887.9000000953674,54.0,59.0,40.0,False,,345.895051871759,[],"[738.5, 415.5]",ColorTask,105.0,41.0,,,HRV,HRV_0283,2022-11-30 20:50:52
,wl-rdm,158,401125,0.0-8.41-0.41,1.0,159.0,,,,,,,[],,,,,,56.4,0.0,u,0.0,True,1232.4000000953674,74.0,59.0,40.0,False,,219.05006921361957,[],"[738.5, 415.5]",ColorTask,106.0,42.0,,,HRV,HRV_0283,2022-11-30 20:50:52
,wl-rdm,159,404226,0.0-8.42-0.42,1.0,160.0,,,,,,,[],,,,,,53.2,0.0,u,0.0,True,1678.0999999046326,101.0,59.0,40.0,False,,338.8176638020948,[],"[738.5, 415.5]",ColorTask,107.0,43.0,,,HRV,HRV_0283,2022-11-30 20:50:52
,wl-rdm,160,406324,0.0-8.43-0.43,1.0,161.0,,,,,,,[],,,,,,50.0,0.0,u,0.0,True,758.8999998569489,46.0,59.0,40.0,False,,255.48496612781838,[],"[738.5, 415.5]",ColorTask,108.0,44.0,,,HRV,HRV_0283,2022-11-30 20:50:52
,wl-rdm,161,408257,0.0-8.44-0.44,1.0,162.0,,,,,,,[],,,,,,73.6,0.0,u,0.0,True,618.6999998092651,38.0,59.0,40.0,False,,228.23777211269407,[],"[738.5, 415.5]",ColorTask,109.0,45.0,,,HRV,HRV_0283,2022-11-30 20:50:52
,wl-rdm,162,410509,0.0-8.45-0.45,1.0,163.0,,,,,,,[],,,,,,62.5,1.0,i,1.0,True,966.6999998092651,58.0,59.0,40.0,False,,210.95626868498306,[],"[738.5, 415.5]",ColorTask,110.0,46.0,,,HRV,HRV_0283,2022-11-30 20:50:52
,wl-rdm,163,412441,0.0-8.46-0.46,1.0,164.0,,,,,,,[],,,,,,87.9,1.0,i,1.0,True,620.0999999046326,38.0,59.0,40.0,False,,227.37833671044223,[],"[738.5, 415.5]",ColorTask,111.0,47.0,,,HRV,HRV_0283,2022-11-30 20:50:52
,wl-rdm,164,414758,0.0-8.47-0.47,1.0,165.0,,,,,,,[],,,,,,62.5,1.0,i,1.0,True,848.5999999046326,51.0,59.0,40.0,False,,384.72823092205425,[],"[738.5, 415.5]",ColorTask,112.0,48.0,,,HRV,HRV_0283,2022-11-30 20:50:52
,wl-rdm,165,417242,0.0-8.48-0.48,1.0,166.0,,,,,,,[],,,,,,50.0,0.0,u,0.0,True,1094.6999998092651,66.0,59.0,40.0,False,,323.7650787251643,[],"[738.5, 415.5]",ColorTask,113.0,49.0,,,HRV,HRV_0283,2022-11-30 20:50:52
,wl-rdm,166,419159,0.0-8.49-0.49,1.0,167.0,,,,,,,[],,,,,,62.5,0.0,u,0.0,True,621.5,38.0,59.0,40.0,False,,220.33105667255666,[],"[738.5, 415.5]",ColorTask,114.0,50.0,,,HRV,HRV_0283,2022-11-30 20:50:52
,wl-rdm,167,421692,0.0-8.50-0.50,1.0,168.0,,,,,,,[],,,,,,53.2,1.0,i,1.0,True,1257.5,76.0,59.0,40.0,False,,200.0516355009246,[],"[738.5, 415.5]",ColorTask,115.0,51.0,,,HRV,HRV_0283,2022-11-30 20:50:52
,wl-rdm,168,424507,0.0-8.51-0.51,1.0,169.0,,,,,,,[],,,,,,53.2,1.0,i,1.0,True,1366.3999998569489,83.0,59.0,40.0,False,,370.6726454676898,[],"[738.5, 415.5]",ColorTask,116.0,52.0,,,HRV,HRV_0283,2022-11-30 20:50:52
,wl-rdm,169,426491,0.0-8.52-0.52,1.0,170.0,,,,,,,[],,,,,,87.9,1.0,i,1.0,True,684.0999999046326,41.0,59.0,40.0,False,,245.9855110887726,[],"[738.5, 415.5]",ColorTask,117.0,53.0,,,HRV,HRV_0283,2022-11-30 20:50:52
,wl-rdm,170,428708,0.0-8.53-0.53,1.0,171.0,,,,,,,[],,,,,,62.5,0.0,u,0.0,True,884.5,54.0,59.0,40.0,False,,235.72488817034872,[],"[738.5, 415.5]",ColorTask,118.0,54.0,,,HRV,HRV_0283,2022-11-30 20:50:52
,wl-rdm,171,430841,0.0-8.54-0.54,1.0,172.0,,,,,,,[],,,,,,53.2,1.0,u,0.0,False,703.0999999046326,43.0,59.0,40.0,False,,347.9030801418675,[],"[738.5, 415.5]",ColorTask,117.0,55.0,,,HRV,HRV_0283,2022-11-30 20:50:52
,wl-rdm,172,433774,0.0-8.55-0.55,1.0,173.0,,,,,,,[],,,,,,53.2,0.0,u,0.0,True,1464.4000000953674,88.0,59.0,40.0,False,,393.0261172880149,[],"[738.5, 415.5]",ColorTask,118.0,56.0,,,HRV,HRV_0283,2022-11-30 20:50:52
,wl-rdm,173,435657,0.0-8.56-0.56,1.0,174.0,,,,,,,[],,,,,,87.9,1.0,i,1.0,True,593.7000000476837,36.0,59.0,40.0,False,,229.22417239577376,[],"[738.5, 415.5]",ColorTask,119.0,57.0,,,HRV,HRV_0283,2022-11-30 20:50:52
,wl-rdm,174,437574,0.0-8.57-0.57,1.0,175.0,,,,,,,[],,,,,,73.6,0.0,u,0.0,True,615.0000002384186,37.0,59.0,40.0,False,,232.5854889668921,[],"[738.5, 415.5]",ColorTask,120.0,58.0,,,HRV,HRV_0283,2022-11-30 20:50:52
,wl-rdm,175,439524,0.0-8.58-0.58,1.0,176.0,,,,,,,[],,,,,,87.9,0.0,i,1.0,False,615.9000000953674,37.0,59.0,40.0,False,,253.76374833756506,[],"[738.5, 415.5]",ColorTask,119.0,59.0,,,HRV,HRV_0283,2022-11-30 20:50:52
,wl-rdm,176,442459,0.0-8.59-0.59,1.0,177.0,,,,,,,[],,,,,,62.5,1.0,i,1.0,True,1527.8000001907349,92.0,59.0,40.0,False,,317.7567364722688,[],"[738.5, 415.5]",ColorTask,120.0,60.0,,,HRV,HRV_0283,2022-11-30 20:50:52
,wl-rdm,177,444475,0.0-8.60-0.60,1.0,178.0,,,,,,,[],,,,,,62.5,0.0,u,0.0,True,600.5,37.0,59.0,40.0,False,,321.5502797870403,[],"[738.5, 415.5]",ColorTask,121.0,61.0,,,HRV,HRV_0283,2022-11-30 20:50:52
,wl-rdm,178,446625,0.0-8.61-0.61,1.0,179.0,,,,,,,[],,,,,,62.5,1.0,i,1.0,True,788.2000000476837,48.0,59.0,40.0,False,,280.8735895993955,[],"[738.5, 415.5]",ColorTask,122.0,62.0,,,HRV,HRV_0283,2022-11-30 20:50:52
,wl-rdm,179,448608,0.0-8.62-0.62,1.0,180.0,,,,,,,[],,,,,,73.6,0.0,u,0.0,True,605.5,37.0,59.0,40.0,False,,289.3298005322772,[],"[738.5, 415.5]",ColorTask,123.0,63.0,,,HRV,HRV_0283,2022-11-30 20:50:52
,wl-rdm,180,450492,0.0-8.63-0.63,1.0,181.0,,,,,,,[],,,,,,53.2,1.0,u,0.0,False,592.8000001907349,36.0,59.0,40.0,False,,219.39250139362093,[],"[738.5, 415.5]",ColorTask,122.0,64.0,,,HRV,HRV_0283,2022-11-30 20:50:52
,wl-rdm,181,452474,0.0-8.64-0.64,1.0,182.0,,,,,,,[],,,,,,50.0,1.0,i,1.0,True,567.9000000953674,35.0,59.0,40.0,False,,315.98574945241916,[],"[738.5, 415.5]",ColorTask,123.0,65.0,,,HRV,HRV_0283,2022-11-30 20:50:52
,wl-rdm,182,454443,0.0-8.65-0.65,1.0,183.0,,,,,,,[],,,,,,73.6,1.0,i,1.0,True,618.7000000476837,38.0,59.0,40.0,False,,268.20676353064016,[],"[738.5, 415.5]",ColorTask,124.0,66.0,,,HRV,HRV_0283,2022-11-30 20:50:52
,wl-rdm,183,456458,0.0-8.66-0.66,1.0,184.0,,,,,,,[],,,,,,50.0,0.0,u,0.0,True,720.5,44.0,59.0,40.0,False,,201.97284854824176,[],"[738.5, 415.5]",ColorTask,125.0,67.0,,,HRV,HRV_0283,2022-11-30 20:50:52
,wl-rdm,184,458709,0.0-8.67-0.67,1.0,185.0,,,,,,,[],,,,,,53.2,0.0,u,0.0,True,952.0,58.0,59.0,40.0,False,,201.3952803324635,[],"[738.5, 415.5]",ColorTask,126.0,68.0,,,HRV,HRV_0283,2022-11-30 20:50:52
,wl-rdm,185,460592,0.0-8.68-0.68,1.0,186.0,,,,,,,[],,,,,,73.6,0.0,u,0.0,True,547.1999998092651,33.0,59.0,40.0,False,,253.9585873376311,[],"[738.5, 415.5]",ColorTask,127.0,69.0,,,HRV,HRV_0283,2022-11-30 20:50:52
,wl-rdm,186,462858,0.0-8.69-0.69,1.0,187.0,,,,,,,[],,,,,,62.5,0.0,u,0.0,True,893.2999999523163,54.0,59.0,40.0,False,,301.80668414256206,[],"[738.5, 415.5]",ColorTask,128.0,70.0,,,HRV,HRV_0283,2022-11-30 20:50:52
,wl-rdm,187,465057,0.0-8.70-0.70,1.0,188.0,,,,,,,[],,,,,,53.2,1.0,u,0.0,False,844.3999998569489,51.0,59.0,40.0,False,,266.22352167666804,[],"[738.5, 415.5]",ColorTask,127.0,71.0,,,HRV,HRV_0283,2022-11-30 20:50:52
,wl-rdm,188,467026,0.0-8.71-0.71,1.0,189.0,,,,,,,[],,,,,,62.5,1.0,i,1.0,True,670.2000000476837,41.0,59.0,40.0,False,,231.47858050971985,[],"[738.5, 415.5]",ColorTask,128.0,72.0,,,HRV,HRV_0283,2022-11-30 20:50:52
,wl-rdm,189,468891,0.0-8.72-0.72,1.0,190.0,,,,,,,[],,,,,,87.9,0.0,u,0.0,True,574.6999998092651,35.0,59.0,40.0,False,,231.8116498067445,[],"[738.5, 415.5]",ColorTask,129.0,73.0,,,HRV,HRV_0283,2022-11-30 20:50:52
,wl-rdm,190,471709,0.0-8.73-0.73,1.0,191.0,,,,,,,[],,,,,,53.2,0.0,u,0.0,True,1525.6000001430511,92.0,59.0,40.0,False,,215.63235870464482,[],"[738.5, 415.5]",ColorTask,130.0,74.0,,,HRV,HRV_0283,2022-11-30 20:50:52
,wl-rdm,191,473708,0.0-8.74-0.74,1.0,192.0,,,,,,,[],,,,,,56.4,1.0,u,0.0,False,635.0,39.0,59.0,40.0,False,,274.80104391789513,[],"[738.5, 415.5]",ColorTask,129.0,75.0,,,HRV,HRV_0283,2022-11-30 20:50:52
,wl-rdm,192,475575,0.0-8.75-0.75,1.0,193.0,,,,,,,[],,,,,,87.9,1.0,i,1.0,True,522.1999998092651,32.0,59.0,40.0,False,,275.5510926933948,[],"[738.5, 415.5]",ColorTask,130.0,76.0,,,HRV,HRV_0283,2022-11-30 20:50:52
,wl-rdm,193,477807,0.0-8.76-0.76,1.0,194.0,,,,,,,[],,,,,,56.4,0.0,u,0.0,True,872.3000001907349,53.0,59.0,40.0,False,,272.4052551931167,[],"[738.5, 415.5]",ColorTask,131.0,77.0,,,HRV,HRV_0283,2022-11-30 20:50:52
,wl-rdm,194,479825,0.0-8.77-0.77,1.0,195.0,,,,,,,[],,,,,,73.6,0.0,u,0.0,True,644.7999999523163,39.0,59.0,40.0,False,,314.94591898419304,[],"[738.5, 415.5]",ColorTask,132.0,78.0,,,HRV,HRV_0283,2022-11-30 20:50:52
,wl-rdm,195,481742,0.0-8.78-0.78,1.0,196.0,,,,,,,[],,,,,,73.6,1.0,i,1.0,True,556.2000000476837,34.0,59.0,40.0,False,,295.5612274124236,[],"[738.5, 415.5]",ColorTask,133.0,79.0,,,HRV,HRV_0283,2022-11-30 20:50:52
,wl-rdm,196,483641,0.0-8.79-0.79,1.0,197.0,,,,,,,[],,,,,,87.9,1.0,i,1.0,True,510.2999999523163,31.0,59.0,40.0,False,,310.6806742880038,[],"[738.5, 415.5]",ColorTask,134.0,80.0,,,HRV,HRV_0283,2022-11-30 20:50:52
,wl-rdm,197,485624,0.0-8.80-0.80,1.0,198.0,,,,,,,[],,,,,,53.2,0.0,u,0.0,True,537.4000000953674,33.0,59.0,40.0,False,,361.580946955518,[],"[738.5, 415.5]",ColorTask,135.0,81.0,,,HRV,HRV_0283,2022-11-30 20:50:52
,wl-rdm,198,487642,0.0-8.81-0.81,1.0,199.0,,,,,,,[],,,,,,62.5,1.0,i,1.0,True,586.0999999046326,36.0,59.0,40.0,False,,355.2180726495674,[],"[738.5, 415.5]",ColorTask,136.0,82.0,,,HRV,HRV_0283,2022-11-30 20:50:52
,wl-rdm,199,489543,0.0-8.82-0.82,1.0,200.0,,,,,,,[],,,,,,87.9,0.0,u,0.0,True,582.0,35.0,59.0,40.0,False,,262.3197351722576,[],"[738.5, 415.5]",ColorTask,137.0,83.0,,,HRV,HRV_0283,2022-11-30 20:50:52
,wl-rdm,200,491942,0.0-8.83-0.83,1.0,201.0,,,,,,,[],,,,,,53.2,1.0,i,1.0,True,1099.3999998569489,66.0,59.0,40.0,False,,221.4858501273246,[],"[738.5, 415.5]",ColorTask,138.0,84.0,,,HRV,HRV_0283,2022-11-30 20:50:52
,wl-rdm,201,493908,0.0-8.84-0.84,1.0,202.0,,,,,,,[],,,,,,73.6,0.0,u,0.0,True,516.5999999046326,31.0,59.0,40.0,False,,383.7304825688942,[],"[738.5, 415.5]",ColorTask,139.0,85.0,,,HRV,HRV_0283,2022-11-30 20:50:52
,wl-rdm,202,496108,0.0-8.85-0.85,1.0,203.0,,,,,,,[],,,,,,62.5,0.0,u,0.0,True,883.0,53.0,59.0,40.0,False,,260.0664223840988,[],"[738.5, 415.5]",ColorTask,140.0,86.0,,,HRV,HRV_0283,2022-11-30 20:50:52
,wl-rdm,203,498109,0.0-8.86-0.86,1.0,204.0,,,,,,,[],,,,,,50.0,1.0,i,1.0,True,683.8999998569489,41.0,59.0,40.0,False,,242.34278226698365,[],"[738.5, 415.5]",ColorTask,141.0,87.0,,,HRV,HRV_0283,2022-11-30 20:50:52
,wl-rdm,204,500242,0.0-8.87-0.87,1.0,205.0,,,,,,,[],,,,,,56.4,0.0,u,0.0,True,693.4000000953674,42.0,59.0,40.0,False,,350.27627186729444,[],"[738.5, 415.5]",ColorTask,142.0,88.0,,,HRV,HRV_0283,2022-11-30 20:50:52
,wl-rdm,205,502458,0.0-8.88-0.88,1.0,206.0,,,,,,,[],,,,,,56.4,1.0,u,0.0,False,836.6999998092651,51.0,59.0,40.0,False,,294.2594073497372,[],"[738.5, 415.5]",ColorTask,141.0,89.0,,,HRV,HRV_0283,2022-11-30 20:50:52
,wl-rdm,206,504757,0.0-8.89-0.89,1.0,207.0,,,,,,,[],,,,,,53.2,0.0,i,1.0,False,972.7999999523163,59.0,59.0,40.0,False,,259.15593777534366,[],"[738.5, 415.5]",ColorTask,140.0,90.0,,,HRV,HRV_0283,2022-11-30 20:50:52
,wl-rdm,207,506641,0.0-8.90-0.90,1.0,208.0,,,,,,,[],,,,,,50.0,0.0,u,0.0,True,535.5999999046326,33.0,59.0,40.0,False,,257.1394746294978,[],"[738.5, 415.5]",ColorTask,141.0,91.0,,,HRV,HRV_0283,2022-11-30 20:50:52
,wl-rdm,208,508692,0.0-8.91-0.91,1.0,209.0,,,,,,,[],,,,,,73.6,1.0,i,1.0,True,608.6999998092651,37.0,59.0,40.0,False,,376.3709307272166,[],"[738.5, 415.5]",ColorTask,142.0,92.0,,,HRV,HRV_0283,2022-11-30 20:50:52
,wl-rdm,209,510574,0.0-8.92-0.92,1.0,210.0,,,,,,,[],,,,,,87.9,1.0,u,0.0,False,596.8000001907349,36.0,59.0,40.0,False,,217.20139699074892,[],"[738.5, 415.5]",ColorTask,141.0,93.0,,,HRV,HRV_0283,2022-11-30 20:50:52
,wl-rdm,210,512709,0.0-8.93-0.93,1.0,211.0,,,,,,,[],,,,,,56.4,1.0,i,1.0,True,692.8999998569489,42.0,59.0,40.0,False,,364.7876730242317,[],"[738.5, 415.5]",ColorTask,142.0,94.0,,,HRV,HRV_0283,2022-11-30 20:50:52
,wl-rdm,211,514659,0.0-8.94-0.94,1.0,212.0,,,,,,,[],,,,,,87.9,0.0,u,0.0,True,551.9000000953674,34.0,59.0,40.0,False,,325.9291048823166,[],"[738.5, 415.5]",ColorTask,143.0,95.0,,,HRV,HRV_0283,2022-11-30 20:50:52
,wl-rdm,212,517124,0.0-8.95-0.95,1.0,213.0,,,,,,,[],,,,,,53.2,0.0,u,0.0,True,998.3999998569489,60.0,59.0,40.0,False,,399.5004813378423,[],"[738.5, 415.5]",ColorTask,144.0,96.0,,,HRV,HRV_0283,2022-11-30 20:50:52
,wl-rdm,213,519175,0.0-8.96-0.96,1.0,214.0,,,,,,,[],,,,,,62.5,1.0,i,1.0,True,779.7000000476837,47.0,59.0,40.0,False,,211.71482950910328,[],"[738.5, 415.5]",ColorTask,145.0,97.0,,,HRV,HRV_0283,2022-11-30 20:50:52
,wl-rdm,214,521758,0.0-8.97-0.97,1.0,215.0,,,,,,,[],,,,,,53.2,0.0,u,0.0,True,1173.7999999523163,71.0,59.0,40.0,False,,327.9273463748993,[],"[738.5, 415.5]",ColorTask,146.0,98.0,,,HRV,HRV_0283,2022-11-30 20:50:52
,wl-rdm,215,523792,0.0-8.98-0.98,1.0,216.0,,,,,,,[],,,,,,62.5,1.0,i,1.0,True,672.1000001430511,41.0,59.0,40.0,False,,281.9660621291114,[],"[738.5, 415.5]",ColorTask,147.0,99.0,,,HRV,HRV_0283,2022-11-30 20:50:52
,wl-rdm,216,526059,0.0-8.99-0.99,1.0,217.0,,,,,,,[],,,,,,50.0,1.0,u,0.0,False,850.7999999523163,52.0,59.0,40.0,False,,340.30908891238994,[],"[738.5, 415.5]",ColorTask,146.0,100.0,,,HRV,HRV_0283,2022-11-30 20:50:52
,wl-rdm,217,527992,0.0-8.100-0.100,1.0,218.0,,,,,,,[],,,,,,50.0,1.0,i,1.0,True,613.8999998569489,37.0,59.0,40.0,False,,243.49572052597057,[],"[738.5, 415.5]",ColorTask,147.0,101.0,,,HRV,HRV_0283,2022-11-30 20:50:52
,wl-rdm,218,530074,0.0-8.101-0.101,1.0,219.0,,,,,,,[],,,,,,62.5,0.0,u,0.0,True,610.5,37.0,59.0,40.0,False,,387.99921287306756,[],"[738.5, 415.5]",ColorTask,148.0,102.0,,,HRV,HRV_0283,2022-11-30 20:50:52
,wl-rdm,219,532191,0.0-8.102-0.102,1.0,220.0,,,,,,,[],,,,,,62.5,0.0,u,0.0,True,720.2000000476837,44.0,59.0,40.0,False,,325.8657831050947,[],"[738.5, 415.5]",ColorTask,149.0,103.0,,,HRV,HRV_0283,2022-11-30 20:50:52
,wl-rdm,220,534274,0.0-8.103-0.103,1.0,221.0,,,,,,,[],,,,,,50.0,0.0,i,1.0,False,793.8000001907349,48.0,59.0,40.0,False,,208.6913813209715,[],"[738.5, 415.5]",ColorTask,148.0,104.0,,,HRV,HRV_0283,2022-11-30 20:50:52
,wl-rdm,221,536609,0.0-8.104-0.104,1.0,222.0,,,,,,,[],,,,,,56.4,0.0,u,0.0,True,978.4000000953674,59.0,59.0,40.0,False,,299.11546486423447,[],"[738.5, 415.5]",ColorTask,149.0,105.0,,,HRV,HRV_0283,2022-11-30 20:50:52
,wl-rdm,222,538741,0.0-8.105-0.105,1.0,223.0,,,,,,,[],,,,,,50.0,1.0,i,1.0,True,757.7000000476837,46.0,59.0,40.0,False,,295.2635912761782,[],"[738.5, 415.5]",ColorTask,150.0,106.0,,,HRV,HRV_0283,2022-11-30 20:50:52
,wl-rdm,223,540625,0.0-8.106-0.106,1.0,224.0,,,,,,,[],,,,,,87.9,1.0,i,1.0,True,543.5999999046326,33.0,59.0,40.0,False,,279.67211435802733,[],"[738.5, 415.5]",ColorTask,151.0,107.0,,,HRV,HRV_0283,2022-11-30 20:50:52
,wl-rdm,224,542759,0.0-8.107-0.107,1.0,225.0,,,,,,,[],,,,,,73.6,1.0,i,1.0,True,796.6999998092651,48.0,59.0,40.0,False,,275.6638527312708,[],"[738.5, 415.5]",ColorTask,152.0,108.0,,,HRV,HRV_0283,2022-11-30 20:50:52
,wl-html-button-response,225,543947,0.0-9.0-0.0,,,,,,,,,,1184.5999999046326,,0,,,,,,,,,,,,,,,,,,,,<h3>End of this session. Thank you!</h3><br>,['Close window'],HRV,HRV_0283,2022-11-30 20:50:52
