trialN,stimuli,trialStartTime,trialStartTime_UNIX,stimulus1,stimulus2,stimulus1Bid,stimulus2Bid,delta,selected,rt,rt_UNIX,rt_perfnow,receivedResponse,rsp,trialEndTime,trialDuration,trialEndTime_UNIX,trialDuration_UNIX,exp,subjectId,date
0,"[{'imgObject': {}, 'id': 'hashbrowns', 'src': '/static/foodstim60/hashbrowns.jpg', 'key': 'u', 'origWidth': 411, 'origHeight': 410, 'width': 411, 'height': 410, 'widthPercent': 0.45, 'rescaleHeight': False, 'trialN': 0, 'loaded': True, 'loadedTime': 3419.5, 'positionName': 'LEFT', 'positionCoords': [280.2, 245], 'bid': 2.04}, {'imgObject': {}, 'id': 'pear', 'src': '/static/foodstim60/pear.jpg', 'key': 'i', 'origWidth': 411, 'origHeight': 410, 'width': 411, 'height': 410, 'widthPercent': 0.45, 'rescaleHeight': False, 'trialN': 0, 'loaded': True, 'loadedTime': 3458.7000000029802, 'positionName': 'RIGHT', 'positionCoords': [748.8, 245], 'bid': 2.3000000000000003}]",3585.6000000089407,1669830587958,hashbrowns,pear,2.04,2.3000000000000003,0.26000000000000023,hashbrowns,2554.2999999970198,2559,2558.5,True,u,6649.300000011921,3063.7000000029802,1669830591022,3064,HRV,HRV_0089,2022-11-30 17:54:30
1,"[{'imgObject': {}, 'id': 'veggieswithdip', 'src': '/static/foodstim60/veggieswithdip.jpg', 'key': 'u', 'origWidth': 409, 'origHeight': 409, 'width': 409, 'height': 409, 'widthPercent': 0.45, 'rescaleHeight': False, 'trialN': 1, 'loaded': True, 'loadedTime': 3461.7000000029802, 'positionName': 'LEFT', 'positionCoords': [282.2, 245.5], 'bid': 4.01}, {'imgObject': {}, 'id': 'rigatoni', 'src': '/static/foodstim60/rigatoni.jpg', 'key': 'i', 'origWidth': 411, 'origHeight': 411, 'width': 411, 'height': 411, 'widthPercent': 0.45, 'rescaleHeight': False, 'trialN': 1, 'loaded': True, 'loadedTime': 3463.7000000029802, 'positionName': 'RIGHT', 'positionCoords': [748.8, 244.5], 'bid': 3.81}]",6649.9000000059605,1669830591023,veggieswithdip,rigatoni,4.01,3.81,-0.19999999999999973,veggieswithdip,1791.7000000029802,1792,1792.7000000029802,True,u,8947.800000011921,2297.9000000059605,1669830593320,2297,HRV,HRV_0089,2022-11-30 17:54:30
2,"[{'imgObject': {}, 'id': 'baked potato', 'src': '/static/foodstim60/baked potato.jpg', 'key': 'u', 'origWidth': 409, 'origHeight': 410, 'width': 409, 'height': 410, 'widthPercent': 0.45, 'rescaleHeight': False, 'trialN': 2, 'loaded': True, 'loadedTime': 3464.6000000089407, 'positionName': 'LEFT', 'positionCoords': [282.2, 245], 'bid': 1.86}, {'imgObject': {}, 'id': 'veggieswithdip', 'src': '/static/foodstim60/veggieswithdip.jpg', 'key': 'i', 'origWidth': 409, 'origHeight': 409, 'width': 409, 'height': 409, 'widthPercent': 0.45, 'rescaleHeight': False, 'trialN': 2, 'loaded': True, 'loadedTime': 3460, 'positionName': 'RIGHT', 'positionCoords': [748.8, 245.5], 'bid': 4.01}]",8948.300000011921,1669830593321,baked potato,veggieswithdip,1.86,4.01,2.1499999999999995,veggieswithdip,1074.3999999910593,1077,1076.8999999910593,True,i,10529.70000000298,1581.3999999910593,1669830594902,1581,HRV,HRV_0089,2022-11-30 17:54:30
3,"[{'imgObject': {}, 'id': 'cheerios', 'src': '/static/foodstim60/cheerios.jpg', 'key': 'u', 'origWidth': 409, 'origHeight': 410, 'width': 409, 'height': 410, 'widthPercent': 0.45, 'rescaleHeight': False, 'trialN': 3, 'loaded': True, 'loadedTime': 3465.6000000089407, 'positionName': 'LEFT', 'positionCoords': [282.2, 245], 'bid': 3.36}, {'imgObject': {}, 'id': 'Grapes', 'src': '/static/foodstim60/Grapes.jpg', 'key': 'i', 'origWidth': 411, 'origHeight': 411, 'width': 411, 'height': 411, 'widthPercent': 0.45, 'rescaleHeight': False, 'trialN': 3, 'loaded': True, 'loadedTime': 3466.2000000029802, 'positionName': 'RIGHT', 'positionCoords': [748.8, 244.5], 'bid': 3.47}]",10530.10000000894,1669830594903,cheerios,Grapes,3.36,3.47,0.11000000000000032,cheerios,1982.3999999910593,1985,1984.8999999910593,True,u,13019.300000011921,2489.2000000029802,1669830597392,2489,HRV,HRV_0089,2022-11-30 17:54:30
4,"[{'imgObject': {}, 'id': 'raisin bran w milk', 'src': '/static/foodstim60/raisin bran w milk.jpg', 'key': 'u', 'origWidth': 411, 'origHeight': 411, 'width': 411, 'height': 411, 'widthPercent': 0.45, 'rescaleHeight': False, 'trialN': 4, 'loaded': True, 'loadedTime': 3466.4000000059605, 'positionName': 'LEFT', 'positionCoords': [280.2, 244.5], 'bid': 2.81}, {'imgObject': {}, 'id': 'bagel plain', 'src': '/static/foodstim60/bagel plain.jpg', 'key': 'i', 'origWidth': 410, 'origHeight': 410, 'width': 410, 'height': 410, 'widthPercent': 0.45, 'rescaleHeight': False, 'trialN': 4, 'loaded': True, 'loadedTime': 3467, 'positionName': 'RIGHT', 'positionCoords': [748.8, 245], 'bid': 2.09}]",13019.5,1669830597392,raisin bran w milk,bagel plain,2.81,2.09,-0.7200000000000002,bagel plain,780.8000000119209,783,782.8000000119209,True,i,14307.300000011921,1287.800000011921,1669830598680,1288,HRV,HRV_0089,2022-11-30 17:54:30
5,"[{'imgObject': {}, 'id': 'fruitsalad', 'src': '/static/foodstim60/fruitsalad.jpg', 'key': 'u', 'origWidth': 410, 'origHeight': 410, 'width': 410, 'height': 410, 'widthPercent': 0.45, 'rescaleHeight': False, 'trialN': 5, 'loaded': True, 'loadedTime': 3468.300000011921, 'positionName': 'LEFT', 'positionCoords': [281.2, 245], 'bid': 4.13}, {'imgObject': {}, 'id': 'mac & cheese', 'src': '/static/foodstim60/mac & cheese.jpg', 'key': 'i', 'origWidth': 410, 'origHeight': 410, 'width': 410, 'height': 410, 'widthPercent': 0.45, 'rescaleHeight': False, 'trialN': 5, 'loaded': True, 'loadedTime': 3468.300000011921, 'positionName': 'RIGHT', 'positionCoords': [748.8, 245], 'bid': 4.04}]",14307.90000000596,1669830598680,fruitsalad,mac & cheese,4.13,4.04,-0.08999999999999986,mac & cheese,1299,1301,1300.4000000059605,True,i,16112.20000000298,1804.2999999970198,1669830600485,1805,HRV,HRV_0089,2022-11-30 17:54:30
6,"[{'imgObject': {}, 'id': 'rigatoni and sauce', 'src': '/static/foodstim60/rigatoni and sauce.jpg', 'key': 'u', 'origWidth': 410, 'origHeight': 411, 'width': 410, 'height': 411, 'widthPercent': 0.45, 'rescaleHeight': False, 'trialN': 6, 'loaded': True, 'loadedTime': 3469, 'positionName': 'LEFT', 'positionCoords': [281.2, 244.5], 'bid': 4.36}, {'imgObject': {}, 'id': 'turkey sandwich', 'src': '/static/foodstim60/turkey sandwich.jpg', 'key': 'i', 'origWidth': 409, 'origHeight': 409, 'width': 409, 'height': 409, 'widthPercent': 0.45, 'rescaleHeight': False, 'trialN': 6, 'loaded': True, 'loadedTime': 3470.300000011921, 'positionName': 'RIGHT', 'positionCoords': [748.8, 245.5], 'bid': 4.2}]",16112.300000011921,1669830600485,rigatoni and sauce,turkey sandwich,4.36,4.2,-0.16000000000000014,rigatoni and sauce,1785.5,1788,1787.7999999970198,True,u,18401.40000000596,2289.0999999940395,1669830602774,2289,HRV,HRV_0089,2022-11-30 17:54:30
7,"[{'imgObject': {}, 'id': 'baked potato', 'src': '/static/foodstim60/baked potato.jpg', 'key': 'u', 'origWidth': 409, 'origHeight': 410, 'width': 409, 'height': 410, 'widthPercent': 0.45, 'rescaleHeight': False, 'trialN': 7, 'loaded': True, 'loadedTime': 3464.7000000029802, 'positionName': 'LEFT', 'positionCoords': [282.2, 245], 'bid': 1.86}, {'imgObject': {}, 'id': 'salmon', 'src': '/static/foodstim60/salmon.jpg', 'key': 'i', 'origWidth': 410, 'origHeight': 409, 'width': 410, 'height': 409, 'widthPercent': 0.45, 'rescaleHeight': False, 'trialN': 7, 'loaded': True, 'loadedTime': 3470.9000000059605, 'positionName': 'RIGHT', 'positionCoords': [748.8, 245.5], 'bid': 0.13}]",18401.80000001192,1669830602774,baked potato,salmon,1.86,0.13,-1.73,baked potato,1140.5999999940395,1142,1142.0,True,u,20049.0,1647.199999988079,1669830604421,1647,HRV,HRV_0089,2022-11-30 17:54:30
8,"[{'imgObject': {}, 'id': 'apple slices', 'src': '/static/foodstim60/apple slices.jpg', 'key': 'u', 'origWidth': 409, 'origHeight': 410, 'width': 409, 'height': 410, 'widthPercent': 0.45, 'rescaleHeight': False, 'trialN': 8, 'loaded': True, 'loadedTime': 3471.5, 'positionName': 'LEFT', 'positionCoords': [282.2, 245], 'bid': 2}, {'imgObject': {}, 'id': 'orange slices', 'src': '/static/foodstim60/orange slices.jpg', 'key': 'i', 'origWidth': 409, 'origHeight': 410, 'width': 409, 'height': 410, 'widthPercent': 0.45, 'rescaleHeight': False, 'trialN': 8, 'loaded': True, 'loadedTime': 3474.4000000059605, 'positionName': 'RIGHT', 'positionCoords': [748.8, 245], 'bid': 1.63}]",20049.40000000596,1669830604422,apple slices,orange slices,2.0,1.63,-0.3700000000000001,orange slices,943.0999999940395,945,945.2999999970198,True,i,21499.70000000298,1450.2999999970198,1669830605872,1450,HRV,HRV_0089,2022-11-30 17:54:30
9,"[{'imgObject': {}, 'id': 'bagel and cc', 'src': '/static/foodstim60/bagel and cc.jpg', 'key': 'u', 'origWidth': 410, 'origHeight': 410, 'width': 410, 'height': 410, 'widthPercent': 0.45, 'rescaleHeight': False, 'trialN': 9, 'loaded': True, 'loadedTime': 3487.7000000029802, 'positionName': 'LEFT', 'positionCoords': [281.2, 245], 'bid': 2.12}, {'imgObject': {}, 'id': 'eggsalad', 'src': '/static/foodstim60/eggsalad.jpg', 'key': 'i', 'origWidth': 410, 'origHeight': 409, 'width': 410, 'height': 409, 'widthPercent': 0.45, 'rescaleHeight': False, 'trialN': 9, 'loaded': True, 'loadedTime': 3497.7000000029802, 'positionName': 'RIGHT', 'positionCoords': [748.8, 245.5], 'bid': 0.98}]",21500.0,1669830605872,bagel and cc,eggsalad,2.12,0.98,-1.1400000000000001,bagel and cc,931.5,934,933.5,True,u,22934.60000000894,1434.6000000089407,1669830607307,1435,HRV,HRV_0089,2022-11-30 17:54:30
10,"[{'imgObject': {}, 'id': 'sweetpotato', 'src': '/static/foodstim60/sweetpotato.jpg', 'key': 'u', 'origWidth': 410, 'origHeight': 410, 'width': 410, 'height': 410, 'widthPercent': 0.45, 'rescaleHeight': False, 'trialN': 10, 'loaded': True, 'loadedTime': 3499.9000000059605, 'positionName': 'LEFT', 'positionCoords': [281.2, 245], 'bid': 2.56}, {'imgObject': {}, 'id': 'mashed potato', 'src': '/static/foodstim60/mashed potato.jpg', 'key': 'i', 'origWidth': 409, 'origHeight': 409, 'width': 409, 'height': 409, 'widthPercent': 0.45, 'rescaleHeight': False, 'trialN': 10, 'loaded': True, 'loadedTime': 3500.9000000059605, 'positionName': 'RIGHT', 'positionCoords': [748.8, 245.5], 'bid': 2.68}]",22935.0,1669830607307,sweetpotato,mashed potato,2.56,2.68,0.1200000000000001,mashed potato,1036.5,1040,1040.0,True,i,24479.80000001192,1544.800000011921,1669830608852,1545,HRV,HRV_0089,2022-11-30 17:54:30
11,"[{'imgObject': {}, 'id': 'turkey sandwich', 'src': '/static/foodstim60/turkey sandwich.jpg', 'key': 'u', 'origWidth': 409, 'origHeight': 409, 'width': 409, 'height': 409, 'widthPercent': 0.45, 'rescaleHeight': False, 'trialN': 11, 'loaded': True, 'loadedTime': 3470.2000000029802, 'positionName': 'LEFT', 'positionCoords': [282.2, 245.5], 'bid': 4.2}, {'imgObject': {}, 'id': 'avocado', 'src': '/static/foodstim60/avocado.jpg', 'key': 'i', 'origWidth': 409, 'origHeight': 409, 'width': 409, 'height': 409, 'widthPercent': 0.45, 'rescaleHeight': False, 'trialN': 11, 'loaded': True, 'loadedTime': 3502.800000011921, 'positionName': 'RIGHT', 'positionCoords': [748.8, 245.5], 'bid': 2.01}]",24480.10000000894,1669830608852,turkey sandwich,avocado,4.2,2.01,-2.1900000000000004,turkey sandwich,2542.5999999940395,2545,2544.5,True,u,27529.60000000894,3049.5,1669830611902,3050,HRV,HRV_0089,2022-11-30 17:54:30
12,"[{'imgObject': {}, 'id': 'turkeysandwich', 'src': '/static/foodstim60/turkeysandwich.jpg', 'key': 'u', 'origWidth': 409, 'origHeight': 409, 'width': 409, 'height': 409, 'widthPercent': 0.45, 'rescaleHeight': False, 'trialN': 12, 'loaded': True, 'loadedTime': 3503.800000011921, 'positionName': 'LEFT', 'positionCoords': [282.2, 245.5], 'bid': 3.11}, {'imgObject': {}, 'id': 'roastedpotatoes', 'src': '/static/foodstim60/roastedpotatoes.jpg', 'key': 'i', 'origWidth': 409, 'origHeight': 410, 'width': 409, 'height': 410, 'widthPercent': 0.45, 'rescaleHeight': False, 'trialN': 12, 'loaded': True, 'loadedTime': 3504.7000000029802, 'positionName': 'RIGHT', 'positionCoords': [748.8, 245], 'bid': 3.18}]",27529.90000000596,1669830611902,turkeysandwich,roastedpotatoes,3.11,3.18,0.07000000000000028,roastedpotatoes,958.0999999940395,960,959.7999999970198,True,i,28994.80000001192,1464.9000000059605,1669830613367,1465,HRV,HRV_0089,2022-11-30 17:54:30
13,"[{'imgObject': {}, 'id': 'rigatoni and sauce', 'src': '/static/foodstim60/rigatoni and sauce.jpg', 'key': 'u', 'origWidth': 410, 'origHeight': 411, 'width': 410, 'height': 411, 'widthPercent': 0.45, 'rescaleHeight': False, 'trialN': 13, 'loaded': True, 'loadedTime': 3469.5, 'positionName': 'LEFT', 'positionCoords': [281.2, 244.5], 'bid': 4.36}, {'imgObject': {}, 'id': 'strawberries', 'src': '/static/foodstim60/strawberries.jpg', 'key': 'i', 'origWidth': 410, 'origHeight': 410, 'width': 410, 'height': 410, 'widthPercent': 0.45, 'rescaleHeight': False, 'trialN': 13, 'loaded': True, 'loadedTime': 3505.300000011921, 'positionName': 'RIGHT', 'positionCoords': [748.8, 245], 'bid': 9.88}]",28995.20000000298,1669830613367,rigatoni and sauce,strawberries,4.36,9.88,5.5200000000000005,strawberries,582,585,584.5,True,i,30084.70000000298,1089.5,1669830614457,1090,HRV,HRV_0089,2022-11-30 17:54:30
14,"[{'imgObject': {}, 'id': 'chicken nuggets2', 'src': '/static/foodstim60/chicken nuggets2.jpg', 'key': 'u', 'origWidth': 410, 'origHeight': 409, 'width': 410, 'height': 409, 'widthPercent': 0.45, 'rescaleHeight': False, 'trialN': 14, 'loaded': True, 'loadedTime': 3506.1000000089407, 'positionName': 'LEFT', 'positionCoords': [281.2, 245.5], 'bid': 2.19}, {'imgObject': {}, 'id': 'sweetpotato', 'src': '/static/foodstim60/sweetpotato.jpg', 'key': 'i', 'origWidth': 410, 'origHeight': 410, 'width': 410, 'height': 410, 'widthPercent': 0.45, 'rescaleHeight': False, 'trialN': 14, 'loaded': True, 'loadedTime': 3498.9000000059605, 'positionName': 'RIGHT', 'positionCoords': [748.8, 245], 'bid': 2.56}]",30085.0,1669830614457,chicken nuggets2,sweetpotato,2.19,2.56,0.3700000000000001,chicken nuggets2,1071.6000000089407,1074,1074.0,True,u,31663.90000000596,1578.9000000059605,1669830616036,1579,HRV,HRV_0089,2022-11-30 17:54:30
15,"[{'imgObject': {}, 'id': 'raisin bran w milk', 'src': '/static/foodstim60/raisin bran w milk.jpg', 'key': 'u', 'origWidth': 411, 'origHeight': 411, 'width': 411, 'height': 411, 'widthPercent': 0.45, 'rescaleHeight': False, 'trialN': 15, 'loaded': True, 'loadedTime': 3466.9000000059605, 'positionName': 'LEFT', 'positionCoords': [280.2, 244.5], 'bid': 2.81}, {'imgObject': {}, 'id': 'cheerios', 'src': '/static/foodstim60/cheerios.jpg', 'key': 'i', 'origWidth': 409, 'origHeight': 410, 'width': 409, 'height': 410, 'widthPercent': 0.45, 'rescaleHeight': False, 'trialN': 15, 'loaded': True, 'loadedTime': 3464.800000011921, 'positionName': 'RIGHT', 'positionCoords': [748.8, 245], 'bid': 3.36}]",31664.10000000894,1669830616036,raisin bran w milk,cheerios,2.81,3.36,0.5499999999999998,raisin bran w milk,1538.2999999970198,1540,1539.5,True,u,33708.90000000596,2044.7999999970198,1669830618081,2045,HRV,HRV_0089,2022-11-30 17:54:30
16,"[{'imgObject': {}, 'id': 'grilled chicken strips', 'src': '/static/foodstim60/grilled chicken strips.jpg', 'key': 'u', 'origWidth': 410, 'origHeight': 411, 'width': 410, 'height': 411, 'widthPercent': 0.45, 'rescaleHeight': False, 'trialN': 16, 'loaded': True, 'loadedTime': 3506.6000000089407, 'positionName': 'LEFT', 'positionCoords': [281.2, 244.5], 'bid': 0.8}, {'imgObject': {}, 'id': 'fried eggs', 'src': '/static/foodstim60/fried eggs.jpg', 'key': 'i', 'origWidth': 410, 'origHeight': 410, 'width': 410, 'height': 410, 'widthPercent': 0.45, 'rescaleHeight': False, 'trialN': 16, 'loaded': True, 'loadedTime': 3507.300000011921, 'positionName': 'RIGHT', 'positionCoords': [748.8, 245], 'bid': 3.2}]",33709.30000001192,1669830618081,grilled chicken strips,fried eggs,0.8,3.2,2.4000000000000004,fried eggs,1283.5999999940395,1288,1287.3999999910593,True,i,35501.70000000298,1792.3999999910593,1669830619874,1793,HRV,HRV_0089,2022-11-30 17:54:30
17,"[{'imgObject': {}, 'id': 'yogurt no spoon', 'src': '/static/foodstim60/yogurt no spoon.jpg', 'key': 'u', 'origWidth': 411, 'origHeight': 410, 'width': 411, 'height': 410, 'widthPercent': 0.45, 'rescaleHeight': False, 'trialN': 17, 'loaded': True, 'loadedTime': 3507.300000011921, 'positionName': 'LEFT', 'positionCoords': [280.2, 245], 'bid': 7.12}, {'imgObject': {}, 'id': 'bagel and cc', 'src': '/static/foodstim60/bagel and cc.jpg', 'key': 'i', 'origWidth': 410, 'origHeight': 410, 'width': 410, 'height': 410, 'widthPercent': 0.45, 'rescaleHeight': False, 'trialN': 17, 'loaded': True, 'loadedTime': 3487.6000000089407, 'positionName': 'RIGHT', 'positionCoords': [748.8, 245], 'bid': 2.12}]",35502.0,1669830619874,yogurt no spoon,bagel and cc,7.12,2.12,-5.0,yogurt no spoon,1104,1106,1106.0,True,u,37113.20000000298,1611.2000000029802,1669830621485,1611,HRV,HRV_0089,2022-11-30 17:54:30
18,"[{'imgObject': {}, 'id': 'edamame', 'src': '/static/foodstim60/edamame.jpg', 'key': 'u', 'origWidth': 409, 'origHeight': 410, 'width': 409, 'height': 410, 'widthPercent': 0.45, 'rescaleHeight': False, 'trialN': 18, 'loaded': True, 'loadedTime': 3508.1000000089407, 'positionName': 'LEFT', 'positionCoords': [282.2, 245], 'bid': 1.81}, {'imgObject': {}, 'id': 'cocktailshrimp', 'src': '/static/foodstim60/cocktailshrimp.jpg', 'key': 'i', 'origWidth': 410, 'origHeight': 410, 'width': 410, 'height': 410, 'widthPercent': 0.45, 'rescaleHeight': False, 'trialN': 18, 'loaded': True, 'loadedTime': 3509.300000011921, 'positionName': 'RIGHT', 'positionCoords': [748.8, 245], 'bid': 1.88}]",37113.60000000894,1669830621486,edamame,cocktailshrimp,1.81,1.88,0.06999999999999984,edamame,1832.2000000029802,1834,1834.5,True,u,39453.0,2339.3999999910593,1669830623825,2339,HRV,HRV_0089,2022-11-30 17:54:30
19,"[{'imgObject': {}, 'id': 'roastedpotatoes', 'src': '/static/foodstim60/roastedpotatoes.jpg', 'key': 'u', 'origWidth': 409, 'origHeight': 410, 'width': 409, 'height': 410, 'widthPercent': 0.45, 'rescaleHeight': False, 'trialN': 19, 'loaded': True, 'loadedTime': 3504.7000000029802, 'positionName': 'LEFT', 'positionCoords': [282.2, 245], 'bid': 3.18}, {'imgObject': {}, 'id': 'rigatoni', 'src': '/static/foodstim60/rigatoni.jpg', 'key': 'i', 'origWidth': 411, 'origHeight': 411, 'width': 411, 'height': 411, 'widthPercent': 0.45, 'rescaleHeight': False, 'trialN': 19, 'loaded': True, 'loadedTime': 3463.7000000029802, 'positionName': 'RIGHT', 'positionCoords': [748.8, 244.5], 'bid': 3.81}]",39453.30000001192,1669830623825,roastedpotatoes,rigatoni,3.18,3.81,0.6299999999999999,roastedpotatoes,1086.3999999910593,1089,1088.8999999910593,True,u,41047.0,1593.699999988079,1669830625419,1594,HRV,HRV_0089,2022-11-30 17:54:30
20,"[{'imgObject': {}, 'id': 'steak', 'src': '/static/foodstim60/steak.jpg', 'key': 'u', 'origWidth': 410, 'origHeight': 410, 'width': 410, 'height': 410, 'widthPercent': 0.45, 'rescaleHeight': False, 'trialN': 20, 'loaded': True, 'loadedTime': 3510, 'positionName': 'LEFT', 'positionCoords': [281.2, 245], 'bid': 5.0600000000000005}, {'imgObject': {}, 'id': 'omelette', 'src': '/static/foodstim60/omelette.jpg', 'key': 'i', 'origWidth': 410, 'origHeight': 409, 'width': 410, 'height': 409, 'widthPercent': 0.45, 'rescaleHeight': False, 'trialN': 20, 'loaded': True, 'loadedTime': 3510.6000000089407, 'positionName': 'RIGHT', 'positionCoords': [748.8, 245.5], 'bid': 4.08}]",41047.30000001192,1669830625419,steak,omelette,5.0600000000000005,4.08,-0.9800000000000004,steak,950.3999999910593,953,952.5999999940395,True,u,42502.5,1455.199999988079,1669830626874,1455,HRV,HRV_0089,2022-11-30 17:54:30
21,"[{'imgObject': {}, 'id': 'banana', 'src': '/static/foodstim60/banana.jpg', 'key': 'u', 'origWidth': 410, 'origHeight': 410, 'width': 410, 'height': 410, 'widthPercent': 0.45, 'rescaleHeight': False, 'trialN': 21, 'loaded': True, 'loadedTime': 3511, 'positionName': 'LEFT', 'positionCoords': [281.2, 245], 'bid': 0.37}, {'imgObject': {}, 'id': 'turkeysandwich', 'src': '/static/foodstim60/turkeysandwich.jpg', 'key': 'i', 'origWidth': 409, 'origHeight': 409, 'width': 409, 'height': 409, 'widthPercent': 0.45, 'rescaleHeight': False, 'trialN': 21, 'loaded': True, 'loadedTime': 3503.7000000029802, 'positionName': 'RIGHT', 'positionCoords': [748.8, 245.5], 'bid': 3.11}]",42502.80000001192,1669830626875,banana,turkeysandwich,0.37,3.11,2.7399999999999998,turkeysandwich,809.7999999970198,811,811.8999999910593,True,i,43819.5,1316.699999988079,1669830628191,1316,HRV,HRV_0089,2022-11-30 17:54:30
22,"[{'imgObject': {}, 'id': 'cocktailshrimp', 'src': '/static/foodstim60/cocktailshrimp.jpg', 'key': 'u', 'origWidth': 410, 'origHeight': 410, 'width': 410, 'height': 410, 'widthPercent': 0.45, 'rescaleHeight': False, 'trialN': 22, 'loaded': True, 'loadedTime': 3509.2000000029802, 'positionName': 'LEFT', 'positionCoords': [281.2, 245], 'bid': 1.88}, {'imgObject': {}, 'id': 'eggsalad', 'src': '/static/foodstim60/eggsalad.jpg', 'key': 'i', 'origWidth': 410, 'origHeight': 409, 'width': 410, 'height': 409, 'widthPercent': 0.45, 'rescaleHeight': False, 'trialN': 22, 'loaded': True, 'loadedTime': 3497, 'positionName': 'RIGHT', 'positionCoords': [748.8, 245.5], 'bid': 0.98}]",43819.70000000298,1669830628191,cocktailshrimp,eggsalad,1.88,0.98,-0.8999999999999999,eggsalad,1233.9000000059605,1238,1237.6000000089407,True,i,45562.30000001192,1742.6000000089407,1669830629934,1743,HRV,HRV_0089,2022-11-30 17:54:30
23,"[{'imgObject': {}, 'id': 'popsicles', 'src': '/static/foodstim60/popsicles.jpg', 'key': 'u', 'origWidth': 410, 'origHeight': 410, 'width': 410, 'height': 410, 'widthPercent': 0.45, 'rescaleHeight': False, 'trialN': 23, 'loaded': True, 'loadedTime': 3578.2000000029802, 'positionName': 'LEFT', 'positionCoords': [281.2, 245], 'bid': 3.93}, {'imgObject': {}, 'id': 'Tribe humus pita', 'src': '/static/foodstim60/Tribe humus pita.jpg', 'key': 'i', 'origWidth': 411, 'origHeight': 411, 'width': 411, 'height': 411, 'widthPercent': 0.45, 'rescaleHeight': False, 'trialN': 23, 'loaded': True, 'loadedTime': 3515.4000000059605, 'positionName': 'RIGHT', 'positionCoords': [748.8, 244.5], 'bid': 5.8100000000000005}]",45562.60000000894,1669830629934,popsicles,Tribe humus pita,3.93,5.8100000000000005,1.8800000000000003,Tribe humus pita,937.8999999910593,940,939.8999999910593,True,i,47003.0,1440.3999999910593,1669830631375,1441,HRV,HRV_0089,2022-11-30 17:54:30
24,"[{'imgObject': {}, 'id': 'steak', 'src': '/static/foodstim60/steak.jpg', 'key': 'u', 'origWidth': 410, 'origHeight': 410, 'width': 410, 'height': 410, 'widthPercent': 0.45, 'rescaleHeight': False, 'trialN': 24, 'loaded': True, 'loadedTime': 3510.1000000089407, 'positionName': 'LEFT', 'positionCoords': [281.2, 245], 'bid': 5.0600000000000005}, {'imgObject': {}, 'id': 'rigatoni', 'src': '/static/foodstim60/rigatoni.jpg', 'key': 'i', 'origWidth': 411, 'origHeight': 411, 'width': 411, 'height': 411, 'widthPercent': 0.45, 'rescaleHeight': False, 'trialN': 24, 'loaded': True, 'loadedTime': 3463.6000000089407, 'positionName': 'RIGHT', 'positionCoords': [748.8, 244.5], 'bid': 3.81}]",47003.30000001192,1669830631375,steak,rigatoni,5.0600000000000005,3.81,-1.2500000000000004,steak,1171.3999999910593,1173,1173.3999999910593,True,u,48681.80000001192,1678.5,1669830633053,1678,HRV,HRV_0089,2022-11-30 17:54:30
25,"[{'imgObject': {}, 'id': 'bagel plain', 'src': '/static/foodstim60/bagel plain.jpg', 'key': 'u', 'origWidth': 410, 'origHeight': 410, 'width': 410, 'height': 410, 'widthPercent': 0.45, 'rescaleHeight': False, 'trialN': 25, 'loaded': True, 'loadedTime': 3467.6000000089407, 'positionName': 'LEFT', 'positionCoords': [281.2, 245], 'bid': 2.09}, {'imgObject': {}, 'id': 'Tribe humus pita', 'src': '/static/foodstim60/Tribe humus pita.jpg', 'key': 'i', 'origWidth': 411, 'origHeight': 411, 'width': 411, 'height': 411, 'widthPercent': 0.45, 'rescaleHeight': False, 'trialN': 25, 'loaded': True, 'loadedTime': 3516.1000000089407, 'positionName': 'RIGHT', 'positionCoords': [748.8, 244.5], 'bid': 5.8100000000000005}]",48682.10000000894,1669830633054,bagel plain,Tribe humus pita,2.09,5.8100000000000005,3.7200000000000006,Tribe humus pita,922,923,923.3999999910593,True,i,50105.80000001192,1423.7000000029802,1669830634477,1423,HRV,HRV_0089,2022-11-30 17:54:30
26,"[{'imgObject': {}, 'id': 'edamame', 'src': '/static/foodstim60/edamame.jpg', 'key': 'u', 'origWidth': 409, 'origHeight': 410, 'width': 409, 'height': 410, 'widthPercent': 0.45, 'rescaleHeight': False, 'trialN': 26, 'loaded': True, 'loadedTime': 3508.7000000029802, 'positionName': 'LEFT', 'positionCoords': [282.2, 245], 'bid': 1.81}, {'imgObject': {}, 'id': 'cherry tomato', 'src': '/static/foodstim60/cherry tomato.jpg', 'key': 'i', 'origWidth': 410, 'origHeight': 410, 'width': 410, 'height': 410, 'widthPercent': 0.45, 'rescaleHeight': False, 'trialN': 26, 'loaded': True, 'loadedTime': 3516.300000011921, 'positionName': 'RIGHT', 'positionCoords': [748.8, 245], 'bid': 0.34}]",50106.10000000894,1669830634478,edamame,cherry tomato,1.81,0.34,-1.47,edamame,689.7000000029802,692,692.0999999940395,True,u,51303.0,1196.8999999910593,1669830635674,1196,HRV,HRV_0089,2022-11-30 17:54:30
27,"[{'imgObject': {}, 'id': 'tacos', 'src': '/static/foodstim60/tacos.jpg', 'key': 'u', 'origWidth': 411, 'origHeight': 411, 'width': 411, 'height': 411, 'widthPercent': 0.45, 'rescaleHeight': False, 'trialN': 27, 'loaded': True, 'loadedTime': 3524, 'positionName': 'LEFT', 'positionCoords': [280.2, 244.5], 'bid': 1.3}, {'imgObject': {}, 'id': 'lox', 'src': '/static/foodstim60/lox.jpg', 'key': 'i', 'origWidth': 410, 'origHeight': 411, 'width': 410, 'height': 411, 'widthPercent': 0.45, 'rescaleHeight': False, 'trialN': 27, 'loaded': True, 'loadedTime': 3525.1000000089407, 'positionName': 'RIGHT', 'positionCoords': [748.8, 244.5], 'bid': 0.22}]",51303.20000000298,1669830635675,tacos,lox,1.3,0.22,-1.08,tacos,903,904,904.6000000089407,True,u,52712.80000001192,1409.6000000089407,1669830637084,1409,HRV,HRV_0089,2022-11-30 17:54:30
28,"[{'imgObject': {}, 'id': 'orange slices', 'src': '/static/foodstim60/orange slices.jpg', 'key': 'u', 'origWidth': 409, 'origHeight': 410, 'width': 409, 'height': 410, 'widthPercent': 0.45, 'rescaleHeight': False, 'trialN': 28, 'loaded': True, 'loadedTime': 3475.2000000029802, 'positionName': 'LEFT', 'positionCoords': [282.2, 245], 'bid': 1.63}, {'imgObject': {}, 'id': 'mango', 'src': '/static/foodstim60/mango.jpg', 'key': 'i', 'origWidth': 411, 'origHeight': 411, 'width': 411, 'height': 411, 'widthPercent': 0.45, 'rescaleHeight': False, 'trialN': 28, 'loaded': True, 'loadedTime': 3534, 'positionName': 'RIGHT', 'positionCoords': [748.8, 244.5], 'bid': 1.36}]",52713.10000000894,1669830637085,orange slices,mango,1.63,1.36,-0.2699999999999998,orange slices,759.7000000029802,760,760.7999999970198,True,u,53979.0,1265.8999999910593,1669830638351,1266,HRV,HRV_0089,2022-11-30 17:54:30
29,"[{'imgObject': {}, 'id': 'blueberries', 'src': '/static/foodstim60/blueberries.jpg', 'key': 'u', 'origWidth': 411, 'origHeight': 411, 'width': 411, 'height': 411, 'widthPercent': 0.45, 'rescaleHeight': False, 'trialN': 29, 'loaded': True, 'loadedTime': 3540.800000011921, 'positionName': 'LEFT', 'positionCoords': [280.2, 244.5], 'bid': 4.13}, {'imgObject': {}, 'id': 'fruitsalad', 'src': '/static/foodstim60/fruitsalad.jpg', 'key': 'i', 'origWidth': 410, 'origHeight': 410, 'width': 410, 'height': 410, 'widthPercent': 0.45, 'rescaleHeight': False, 'trialN': 29, 'loaded': True, 'loadedTime': 3468.1000000089407, 'positionName': 'RIGHT', 'positionCoords': [748.8, 245], 'bid': 4.13}]",53979.40000000596,1669830638351,blueberries,fruitsalad,4.13,4.13,0.0,fruitsalad,963.5,966,965.9000000059605,True,i,55447.40000000596,1468.0,1669830639819,1468,HRV,HRV_0089,2022-11-30 17:54:30
30,"[{'imgObject': {}, 'id': 'cherry tomato', 'src': '/static/foodstim60/cherry tomato.jpg', 'key': 'u', 'origWidth': 410, 'origHeight': 410, 'width': 410, 'height': 410, 'widthPercent': 0.45, 'rescaleHeight': False, 'trialN': 30, 'loaded': True, 'loadedTime': 3516.800000011921, 'positionName': 'LEFT', 'positionCoords': [281.2, 245], 'bid': 0.34}, {'imgObject': {}, 'id': 'apple slices', 'src': '/static/foodstim60/apple slices.jpg', 'key': 'i', 'origWidth': 409, 'origHeight': 410, 'width': 409, 'height': 410, 'widthPercent': 0.45, 'rescaleHeight': False, 'trialN': 30, 'loaded': True, 'loadedTime': 3473.9000000059605, 'positionName': 'RIGHT', 'positionCoords': [748.8, 245], 'bid': 2}]",55447.80000001192,1669830639819,cherry tomato,apple slices,0.34,2.0,1.66,apple slices,795.7999999970198,799,799.0999999940395,True,i,56748.20000000298,1300.3999999910593,1669830641120,1301,HRV,HRV_0089,2022-11-30 17:54:30
31,"[{'imgObject': {}, 'id': 'chicken nuggets2', 'src': '/static/foodstim60/chicken nuggets2.jpg', 'key': 'u', 'origWidth': 410, 'origHeight': 409, 'width': 410, 'height': 409, 'widthPercent': 0.45, 'rescaleHeight': False, 'trialN': 31, 'loaded': True, 'loadedTime': 3505.4000000059605, 'positionName': 'LEFT', 'positionCoords': [281.2, 245.5], 'bid': 2.19}, {'imgObject': {}, 'id': 'ice cream sundae 002', 'src': '/static/foodstim60/ice cream sundae 002.jpg', 'key': 'i', 'origWidth': 409, 'origHeight': 409, 'width': 409, 'height': 409, 'widthPercent': 0.45, 'rescaleHeight': False, 'trialN': 31, 'loaded': True, 'loadedTime': 3542.7000000029802, 'positionName': 'RIGHT', 'positionCoords': [748.8, 245.5], 'bid': 2.29}]",56748.5,1669830641120,chicken nuggets2,ice cream sundae 002,2.19,2.29,0.10000000000000009,ice cream sundae 002,1243.4000000059605,1246,1245.7000000029802,True,i,58499.0,1750.5,1669830642870,1750,HRV,HRV_0089,2022-11-30 17:54:30
32,"[{'imgObject': {}, 'id': 'apple slices', 'src': '/static/foodstim60/apple slices.jpg', 'key': 'u', 'origWidth': 409, 'origHeight': 410, 'width': 409, 'height': 410, 'widthPercent': 0.45, 'rescaleHeight': False, 'trialN': 32, 'loaded': True, 'loadedTime': 3471.6000000089407, 'positionName': 'LEFT', 'positionCoords': [282.2, 245], 'bid': 2}, {'imgObject': {}, 'id': 'kiwi', 'src': '/static/foodstim60/kiwi.jpg', 'key': 'i', 'origWidth': 410, 'origHeight': 410, 'width': 410, 'height': 410, 'widthPercent': 0.45, 'rescaleHeight': False, 'trialN': 32, 'loaded': True, 'loadedTime': 3543.9000000059605, 'positionName': 'RIGHT', 'positionCoords': [748.8, 245], 'bid': 2.04}]",58499.30000001192,1669830642871,apple slices,kiwi,2.0,2.04,0.040000000000000036,apple slices,968.5999999940395,970,970.7999999970198,True,u,59975.0,1475.699999988079,1669830644346,1475,HRV,HRV_0089,2022-11-30 17:54:30
33,"[{'imgObject': {}, 'id': 'cherry tomato', 'src': '/static/foodstim60/cherry tomato.jpg', 'key': 'u', 'origWidth': 410, 'origHeight': 410, 'width': 410, 'height': 410, 'widthPercent': 0.45, 'rescaleHeight': False, 'trialN': 33, 'loaded': True, 'loadedTime': 3523.2000000029802, 'positionName': 'LEFT', 'positionCoords': [281.2, 245], 'bid': 0.34}, {'imgObject': {}, 'id': 'raisin bran w milk', 'src': '/static/foodstim60/raisin bran w milk.jpg', 'key': 'i', 'origWidth': 411, 'origHeight': 411, 'width': 411, 'height': 411, 'widthPercent': 0.45, 'rescaleHeight': False, 'trialN': 33, 'loaded': True, 'loadedTime': 3466.800000011921, 'positionName': 'RIGHT', 'positionCoords': [748.8, 244.5], 'bid': 2.81}]",59975.30000001192,1669830644347,cherry tomato,raisin bran w milk,0.34,2.81,2.47,raisin bran w milk,1161.5999999940395,1164,1164.2999999970198,True,i,61644.40000000596,1669.0999999940395,1669830646016,1669,HRV,HRV_0089,2022-11-30 17:54:30
34,"[{'imgObject': {}, 'id': 'olives', 'src': '/static/foodstim60/olives.jpg', 'key': 'u', 'origWidth': 410, 'origHeight': 410, 'width': 410, 'height': 410, 'widthPercent': 0.45, 'rescaleHeight': False, 'trialN': 34, 'loaded': True, 'loadedTime': 3544.5, 'positionName': 'LEFT', 'positionCoords': [281.2, 245], 'bid': 7.2}, {'imgObject': {}, 'id': 'mac & cheese', 'src': '/static/foodstim60/mac & cheese.jpg', 'key': 'i', 'origWidth': 410, 'origHeight': 410, 'width': 410, 'height': 410, 'widthPercent': 0.45, 'rescaleHeight': False, 'trialN': 34, 'loaded': True, 'loadedTime': 3468.9000000059605, 'positionName': 'RIGHT', 'positionCoords': [748.8, 245], 'bid': 4.04}]",61644.60000000894,1669830646016,olives,mac & cheese,7.2,4.04,-3.16,olives,881.2999999970198,884,883.5999999940395,True,u,63029.40000000596,1384.7999999970198,1669830647401,1385,HRV,HRV_0089,2022-11-30 17:54:30
35,"[{'imgObject': {}, 'id': 'avocado', 'src': '/static/foodstim60/avocado.jpg', 'key': 'u', 'origWidth': 409, 'origHeight': 409, 'width': 409, 'height': 409, 'widthPercent': 0.45, 'rescaleHeight': False, 'trialN': 35, 'loaded': True, 'loadedTime': 3502.7000000029802, 'positionName': 'LEFT', 'positionCoords': [282.2, 245.5], 'bid': 2.01}, {'imgObject': {}, 'id': 'froot loops w milk', 'src': '/static/foodstim60/froot loops w milk.jpg', 'key': 'i', 'origWidth': 410, 'origHeight': 410, 'width': 410, 'height': 410, 'widthPercent': 0.45, 'rescaleHeight': False, 'trialN': 35, 'loaded': True, 'loadedTime': 3543.4000000059605, 'positionName': 'RIGHT', 'positionCoords': [748.8, 245], 'bid': 2.36}]",63029.70000000298,1669830647401,avocado,froot loops w milk,2.01,2.36,0.3500000000000001,avocado,1535.1000000089407,1537,1537.5,True,u,65072.20000000298,2042.5,1669830649443,2042,HRV,HRV_0089,2022-11-30 17:54:30
36,"[{'imgObject': {}, 'id': 'fried eggs', 'src': '/static/foodstim60/fried eggs.jpg', 'key': 'u', 'origWidth': 410, 'origHeight': 410, 'width': 410, 'height': 410, 'widthPercent': 0.45, 'rescaleHeight': False, 'trialN': 36, 'loaded': True, 'loadedTime': 3507.2000000029802, 'positionName': 'LEFT', 'positionCoords': [281.2, 245], 'bid': 3.2}, {'imgObject': {}, 'id': 'popsicles', 'src': '/static/foodstim60/popsicles.jpg', 'key': 'i', 'origWidth': 410, 'origHeight': 410, 'width': 410, 'height': 410, 'widthPercent': 0.45, 'rescaleHeight': False, 'trialN': 36, 'loaded': True, 'loadedTime': 3579.6000000089407, 'positionName': 'RIGHT', 'positionCoords': [748.8, 245], 'bid': 3.93}]",65072.5,1669830649444,fried eggs,popsicles,3.2,3.93,0.73,fried eggs,700.4000000059605,703,702.9000000059605,True,u,66276.0,1203.5,1669830650647,1203,HRV,HRV_0089,2022-11-30 17:54:30
37,"[{'imgObject': {}, 'id': 'granola w milk', 'src': '/static/foodstim60/granola w milk.jpg', 'key': 'u', 'origWidth': 410, 'origHeight': 410, 'width': 410, 'height': 410, 'widthPercent': 0.45, 'rescaleHeight': False, 'trialN': 37, 'loaded': True, 'loadedTime': 3545.2000000029802, 'positionName': 'LEFT', 'positionCoords': [281.2, 245], 'bid': 2.52}, {'imgObject': {}, 'id': 'froot loops w milk', 'src': '/static/foodstim60/froot loops w milk.jpg', 'key': 'i', 'origWidth': 410, 'origHeight': 410, 'width': 410, 'height': 410, 'widthPercent': 0.45, 'rescaleHeight': False, 'trialN': 37, 'loaded': True, 'loadedTime': 3543.300000011921, 'positionName': 'RIGHT', 'positionCoords': [748.8, 245], 'bid': 2.36}]",66276.40000000596,1669830650648,granola w milk,froot loops w milk,2.52,2.36,-0.16000000000000014,granola w milk,1138.5,1141,1141.7999999970198,True,u,67923.40000000596,1647.0,1669830652295,1647,HRV,HRV_0089,2022-11-30 17:54:30
38,"[{'imgObject': {}, 'id': 'olives', 'src': '/static/foodstim60/olives.jpg', 'key': 'u', 'origWidth': 410, 'origHeight': 410, 'width': 410, 'height': 410, 'widthPercent': 0.45, 'rescaleHeight': False, 'trialN': 38, 'loaded': True, 'loadedTime': 3544.4000000059605, 'positionName': 'LEFT', 'positionCoords': [281.2, 245], 'bid': 7.2}, {'imgObject': {}, 'id': 'Grapes', 'src': '/static/foodstim60/Grapes.jpg', 'key': 'i', 'origWidth': 411, 'origHeight': 411, 'width': 411, 'height': 411, 'widthPercent': 0.45, 'rescaleHeight': False, 'trialN': 38, 'loaded': True, 'loadedTime': 3465.6000000089407, 'positionName': 'RIGHT', 'positionCoords': [748.8, 244.5], 'bid': 3.47}]",67923.80000001192,1669830652295,olives,Grapes,7.2,3.47,-3.73,olives,712.0999999940395,715,714.7999999970198,True,u,69143.60000000894,1219.7999999970198,1669830653515,1220,HRV,HRV_0089,2022-11-30 17:54:30
39,"[{'imgObject': {}, 'id': 'mango', 'src': '/static/foodstim60/mango.jpg', 'key': 'u', 'origWidth': 411, 'origHeight': 411, 'width': 411, 'height': 411, 'widthPercent': 0.45, 'rescaleHeight': False, 'trialN': 39, 'loaded': True, 'loadedTime': 3534, 'positionName': 'LEFT', 'positionCoords': [280.2, 244.5], 'bid': 1.36}, {'imgObject': {}, 'id': 'eggsalad', 'src': '/static/foodstim60/eggsalad.jpg', 'key': 'i', 'origWidth': 410, 'origHeight': 409, 'width': 410, 'height': 409, 'widthPercent': 0.45, 'rescaleHeight': False, 'trialN': 39, 'loaded': True, 'loadedTime': 3497.7000000029802, 'positionName': 'RIGHT', 'positionCoords': [748.8, 245.5], 'bid': 0.98}]",69143.90000000596,1669830653515,mango,eggsalad,1.36,0.98,-0.3800000000000001,mango,1835,1837,1837.4000000059605,True,u,71481.60000000894,2337.7000000029802,1669830655853,2338,HRV,HRV_0089,2022-11-30 17:54:30
40,"[{'imgObject': {}, 'id': 'bagel plain', 'src': '/static/foodstim60/bagel plain.jpg', 'key': 'u', 'origWidth': 410, 'origHeight': 410, 'width': 410, 'height': 410, 'widthPercent': 0.45, 'rescaleHeight': False, 'trialN': 40, 'loaded': True, 'loadedTime': 3467.5, 'positionName': 'LEFT', 'positionCoords': [281.2, 245], 'bid': 2.09}, {'imgObject': {}, 'id': 'froot loops w milk', 'src': '/static/foodstim60/froot loops w milk.jpg', 'key': 'i', 'origWidth': 410, 'origHeight': 410, 'width': 410, 'height': 410, 'widthPercent': 0.45, 'rescaleHeight': False, 'trialN': 40, 'loaded': True, 'loadedTime': 3543.4000000059605, 'positionName': 'RIGHT', 'positionCoords': [748.8, 245], 'bid': 2.36}]",71481.90000000596,1669830655853,bagel plain,froot loops w milk,2.09,2.36,0.27,bagel plain,636.9000000059605,639,639.0,True,u,72622.80000001192,1140.9000000059605,1669830656994,1141,HRV,HRV_0089,2022-11-30 17:54:30
41,"[{'imgObject': {}, 'id': 'chickenfingers', 'src': '/static/foodstim60/chickenfingers.jpg', 'key': 'u', 'origWidth': 410, 'origHeight': 410, 'width': 410, 'height': 410, 'widthPercent': 0.45, 'rescaleHeight': False, 'trialN': 41, 'loaded': True, 'loadedTime': 3552.5, 'positionName': 'LEFT', 'positionCoords': [281.2, 245], 'bid': 4.38}, {'imgObject': {}, 'id': 'roastedpotatoes', 'src': '/static/foodstim60/roastedpotatoes.jpg', 'key': 'i', 'origWidth': 409, 'origHeight': 410, 'width': 409, 'height': 410, 'widthPercent': 0.45, 'rescaleHeight': False, 'trialN': 41, 'loaded': True, 'loadedTime': 3504.1000000089407, 'positionName': 'RIGHT', 'positionCoords': [748.8, 245], 'bid': 3.18}]",72623.10000000894,1669830656994,chickenfingers,roastedpotatoes,4.38,3.18,-1.1999999999999997,chickenfingers,1424.7999999970198,1427,1427.0999999940395,True,u,74555.10000000894,1932.0,1669830658926,1932,HRV,HRV_0089,2022-11-30 17:54:30
42,"[{'imgObject': {}, 'id': 'hashbrowns', 'src': '/static/foodstim60/hashbrowns.jpg', 'key': 'u', 'origWidth': 411, 'origHeight': 410, 'width': 411, 'height': 410, 'widthPercent': 0.45, 'rescaleHeight': False, 'trialN': 42, 'loaded': True, 'loadedTime': 3430.4000000059605, 'positionName': 'LEFT', 'positionCoords': [280.2, 245], 'bid': 2.04}, {'imgObject': {}, 'id': 'blackbeanswithrice', 'src': '/static/foodstim60/blackbeanswithrice.jpg', 'key': 'i', 'origWidth': 410, 'origHeight': 410, 'width': 410, 'height': 410, 'widthPercent': 0.45, 'rescaleHeight': False, 'trialN': 42, 'loaded': True, 'loadedTime': 3553.7000000029802, 'positionName': 'RIGHT', 'positionCoords': [748.8, 245], 'bid': 0.54}]",74555.30000001192,1669830658926,hashbrowns,blackbeanswithrice,2.04,0.54,-1.5,hashbrowns,1605.699999988079,1608,1608.0,True,u,76668.40000000596,2113.0999999940395,1669830661039,2113,HRV,HRV_0089,2022-11-30 17:54:30
43,"[{'imgObject': {}, 'id': 'avocado', 'src': '/static/foodstim60/avocado.jpg', 'key': 'u', 'origWidth': 409, 'origHeight': 409, 'width': 409, 'height': 409, 'widthPercent': 0.45, 'rescaleHeight': False, 'trialN': 43, 'loaded': True, 'loadedTime': 3502.7000000029802, 'positionName': 'LEFT', 'positionCoords': [282.2, 245.5], 'bid': 2.01}, {'imgObject': {}, 'id': 'banana', 'src': '/static/foodstim60/banana.jpg', 'key': 'i', 'origWidth': 410, 'origHeight': 410, 'width': 410, 'height': 410, 'widthPercent': 0.45, 'rescaleHeight': False, 'trialN': 43, 'loaded': True, 'loadedTime': 3510.7000000029802, 'positionName': 'RIGHT', 'positionCoords': [748.8, 245], 'bid': 0.37}]",76668.60000000894,1669830661040,avocado,banana,2.01,0.37,-1.6399999999999997,avocado,754.5,758,758.0999999940395,True,u,77930.10000000894,1261.5,1669830662301,1261,HRV,HRV_0089,2022-11-30 17:54:30
44,"[{'imgObject': {}, 'id': 'chickenfingers', 'src': '/static/foodstim60/chickenfingers.jpg', 'key': 'u', 'origWidth': 410, 'origHeight': 410, 'width': 410, 'height': 410, 'widthPercent': 0.45, 'rescaleHeight': False, 'trialN': 44, 'loaded': True, 'loadedTime': 3552.5, 'positionName': 'LEFT', 'positionCoords': [281.2, 245], 'bid': 4.38}, {'imgObject': {}, 'id': 'mac & cheese', 'src': '/static/foodstim60/mac & cheese.jpg', 'key': 'i', 'origWidth': 410, 'origHeight': 410, 'width': 410, 'height': 410, 'widthPercent': 0.45, 'rescaleHeight': False, 'trialN': 44, 'loaded': True, 'loadedTime': 3468.800000011921, 'positionName': 'RIGHT', 'positionCoords': [748.8, 245], 'bid': 4.04}]",77930.5,1669830662301,chickenfingers,mac & cheese,4.38,4.04,-0.33999999999999986,chickenfingers,638.5,641,640.6000000089407,True,u,79075.80000001192,1145.300000011921,1669830663447,1146,HRV,HRV_0089,2022-11-30 17:54:30
45,"[{'imgObject': {}, 'id': 'bagel and cc', 'src': '/static/foodstim60/bagel and cc.jpg', 'key': 'u', 'origWidth': 410, 'origHeight': 410, 'width': 410, 'height': 410, 'widthPercent': 0.45, 'rescaleHeight': False, 'trialN': 45, 'loaded': True, 'loadedTime': 3487, 'positionName': 'LEFT', 'positionCoords': [281.2, 245], 'bid': 2.12}, {'imgObject': {}, 'id': 'bagel plain', 'src': '/static/foodstim60/bagel plain.jpg', 'key': 'i', 'origWidth': 410, 'origHeight': 410, 'width': 410, 'height': 410, 'widthPercent': 0.45, 'rescaleHeight': False, 'trialN': 45, 'loaded': True, 'loadedTime': 3467.5, 'positionName': 'RIGHT', 'positionCoords': [748.8, 245], 'bid': 2.09}]",79076.10000000894,1669830663447,bagel and cc,bagel plain,2.12,2.09,-0.03000000000000025,bagel and cc,1587.7999999970198,1590,1590.2000000029802,True,u,81171.5,2095.3999999910593,1669830665542,2095,HRV,HRV_0089,2022-11-30 17:54:30
46,"[{'imgObject': {}, 'id': 'mango', 'src': '/static/foodstim60/mango.jpg', 'key': 'u', 'origWidth': 411, 'origHeight': 411, 'width': 411, 'height': 411, 'widthPercent': 0.45, 'rescaleHeight': False, 'trialN': 46, 'loaded': True, 'loadedTime': 3534, 'positionName': 'LEFT', 'positionCoords': [280.2, 244.5], 'bid': 1.36}, {'imgObject': {}, 'id': 'cantaloupe', 'src': '/static/foodstim60/cantaloupe.jpg', 'key': 'i', 'origWidth': 409, 'origHeight': 409, 'width': 409, 'height': 409, 'widthPercent': 0.45, 'rescaleHeight': False, 'trialN': 46, 'loaded': True, 'loadedTime': 3565.6000000089407, 'positionName': 'RIGHT', 'positionCoords': [748.8, 245.5], 'bid': 0.22}]",81171.70000000298,1669830665543,mango,cantaloupe,1.36,0.22,-1.1400000000000001,mango,1036.2999999970198,1038,1038.7000000029802,True,u,82714.5,1542.7999999970198,1669830667085,1542,HRV,HRV_0089,2022-11-30 17:54:30
47,"[{'imgObject': {}, 'id': 'blueberries', 'src': '/static/foodstim60/blueberries.jpg', 'key': 'u', 'origWidth': 411, 'origHeight': 411, 'width': 411, 'height': 411, 'widthPercent': 0.45, 'rescaleHeight': False, 'trialN': 47, 'loaded': True, 'loadedTime': 3541.1000000089407, 'positionName': 'LEFT', 'positionCoords': [280.2, 244.5], 'bid': 4.13}, {'imgObject': {}, 'id': 'omelette', 'src': '/static/foodstim60/omelette.jpg', 'key': 'i', 'origWidth': 410, 'origHeight': 409, 'width': 410, 'height': 409, 'widthPercent': 0.45, 'rescaleHeight': False, 'trialN': 47, 'loaded': True, 'loadedTime': 3510.5, 'positionName': 'RIGHT', 'positionCoords': [748.8, 245.5], 'bid': 4.08}]",82714.70000000298,1669830667085,blueberries,omelette,4.13,4.08,-0.04999999999999982,omelette,1035.2999999970198,1038,1037.7000000029802,True,i,84257.10000000894,1542.4000000059605,1669830668628,1543,HRV,HRV_0089,2022-11-30 17:54:30
48,"[{'imgObject': {}, 'id': 'blueberries', 'src': '/static/foodstim60/blueberries.jpg', 'key': 'u', 'origWidth': 411, 'origHeight': 411, 'width': 411, 'height': 411, 'widthPercent': 0.45, 'rescaleHeight': False, 'trialN': 48, 'loaded': True, 'loadedTime': 3541.2000000029802, 'positionName': 'LEFT', 'positionCoords': [280.2, 244.5], 'bid': 4.13}, {'imgObject': {}, 'id': 'apple slices', 'src': '/static/foodstim60/apple slices.jpg', 'key': 'i', 'origWidth': 409, 'origHeight': 410, 'width': 409, 'height': 410, 'widthPercent': 0.45, 'rescaleHeight': False, 'trialN': 48, 'loaded': True, 'loadedTime': 3474.300000011921, 'positionName': 'RIGHT', 'positionCoords': [748.8, 245], 'bid': 2}]",84257.40000000596,1669830668628,blueberries,apple slices,4.13,2.0,-2.13,blueberries,1313.4000000059605,1315,1314.5,True,u,86076.10000000894,1818.7000000029802,1669830670447,1819,HRV,HRV_0089,2022-11-30 17:54:30
49,"[{'imgObject': {}, 'id': 'yogurt no spoon', 'src': '/static/foodstim60/yogurt no spoon.jpg', 'key': 'u', 'origWidth': 411, 'origHeight': 410, 'width': 411, 'height': 410, 'widthPercent': 0.45, 'rescaleHeight': False, 'trialN': 49, 'loaded': True, 'loadedTime': 3507.9000000059605, 'positionName': 'LEFT', 'positionCoords': [280.2, 245], 'bid': 7.12}, {'imgObject': {}, 'id': 'blueberries', 'src': '/static/foodstim60/blueberries.jpg', 'key': 'i', 'origWidth': 411, 'origHeight': 411, 'width': 411, 'height': 411, 'widthPercent': 0.45, 'rescaleHeight': False, 'trialN': 49, 'loaded': True, 'loadedTime': 3541.4000000059605, 'positionName': 'RIGHT', 'positionCoords': [748.8, 244.5], 'bid': 4.13}]",86076.30000001192,1669830670447,yogurt no spoon,blueberries,7.12,4.13,-2.99,yogurt no spoon,922.8999999910593,925,925.1999999880791,True,u,87506.5,1430.199999988079,1669830671877,1430,HRV,HRV_0089,2022-11-30 17:54:30
50,"[{'imgObject': {}, 'id': 'hotdog w must', 'src': '/static/foodstim60/hotdog w must.jpg', 'key': 'u', 'origWidth': 409, 'origHeight': 409, 'width': 409, 'height': 409, 'widthPercent': 0.45, 'rescaleHeight': False, 'trialN': 50, 'loaded': True, 'loadedTime': 3554.1000000089407, 'positionName': 'LEFT', 'positionCoords': [282.2, 245.5], 'bid': 0.44}, {'imgObject': {}, 'id': 'blackbeanswithrice', 'src': '/static/foodstim60/blackbeanswithrice.jpg', 'key': 'i', 'origWidth': 410, 'origHeight': 410, 'width': 410, 'height': 410, 'widthPercent': 0.45, 'rescaleHeight': False, 'trialN': 50, 'loaded': True, 'loadedTime': 3553.6000000089407, 'positionName': 'RIGHT', 'positionCoords': [748.8, 245], 'bid': 0.54}]",87506.90000000596,1669830671878,hotdog w must,blackbeanswithrice,0.44,0.54,0.10000000000000003,hotdog w must,1547.4000000059605,1549,1549.2000000029802,True,u,89557.10000000894,2050.2000000029802,1669830673928,2050,HRV,HRV_0089,2022-11-30 17:54:30
51,"[{'imgObject': {}, 'id': 'mango', 'src': '/static/foodstim60/mango.jpg', 'key': 'u', 'origWidth': 411, 'origHeight': 411, 'width': 411, 'height': 411, 'widthPercent': 0.45, 'rescaleHeight': False, 'trialN': 51, 'loaded': True, 'loadedTime': 3534.1000000089407, 'positionName': 'LEFT', 'positionCoords': [280.2, 244.5], 'bid': 1.36}, {'imgObject': {}, 'id': 'burger', 'src': '/static/foodstim60/burger.jpg', 'key': 'i', 'origWidth': 409, 'origHeight': 409, 'width': 409, 'height': 409, 'widthPercent': 0.45, 'rescaleHeight': False, 'trialN': 51, 'loaded': True, 'loadedTime': 3555.4000000059605, 'positionName': 'RIGHT', 'positionCoords': [748.8, 245.5], 'bid': 1.97}]",89557.20000000298,1669830673928,mango,burger,1.36,1.97,0.6099999999999999,burger,1204.9000000059605,1207,1207.4000000059605,True,i,91269.70000000298,1712.5,1669830675640,1712,HRV,HRV_0089,2022-11-30 17:54:30
52,"[{'imgObject': {}, 'id': 'sushi w_condiments', 'src': '/static/foodstim60/sushi w_condiments.jpg', 'key': 'u', 'origWidth': 410, 'origHeight': 410, 'width': 410, 'height': 410, 'widthPercent': 0.45, 'rescaleHeight': False, 'trialN': 52, 'loaded': True, 'loadedTime': 3564.800000011921, 'positionName': 'LEFT', 'positionCoords': [281.2, 245], 'bid': 0.11}, {'imgObject': {}, 'id': 'banana', 'src': '/static/foodstim60/banana.jpg', 'key': 'i', 'origWidth': 410, 'origHeight': 410, 'width': 410, 'height': 410, 'widthPercent': 0.45, 'rescaleHeight': False, 'trialN': 52, 'loaded': True, 'loadedTime': 3511.1000000089407, 'positionName': 'RIGHT', 'positionCoords': [748.8, 245], 'bid': 0.37}]",91269.90000000596,1669830675640,sushi w_condiments,banana,0.11,0.37,0.26,banana,858.0999999940395,861,860.5,True,i,92635.30000001192,1365.4000000059605,1669830677006,1366,HRV,HRV_0089,2022-11-30 17:54:30
53,"[{'imgObject': {}, 'id': 'granola w milk', 'src': '/static/foodstim60/granola w milk.jpg', 'key': 'u', 'origWidth': 410, 'origHeight': 410, 'width': 410, 'height': 410, 'widthPercent': 0.45, 'rescaleHeight': False, 'trialN': 53, 'loaded': True, 'loadedTime': 3544.6000000089407, 'positionName': 'LEFT', 'positionCoords': [281.2, 245], 'bid': 2.52}, {'imgObject': {}, 'id': 'lox', 'src': '/static/foodstim60/lox.jpg', 'key': 'i', 'origWidth': 410, 'origHeight': 411, 'width': 410, 'height': 411, 'widthPercent': 0.45, 'rescaleHeight': False, 'trialN': 53, 'loaded': True, 'loadedTime': 3525, 'positionName': 'RIGHT', 'positionCoords': [748.8, 244.5], 'bid': 0.22}]",92635.60000000894,1669830677006,granola w milk,lox,2.52,0.22,-2.3,granola w milk,810.5,813,812.8999999910593,True,u,93953.40000000596,1317.7999999970198,1669830678324,1318,HRV,HRV_0089,2022-11-30 17:54:30
54,"[{'imgObject': {}, 'id': 'blueberries', 'src': '/static/foodstim60/blueberries.jpg', 'key': 'u', 'origWidth': 411, 'origHeight': 411, 'width': 411, 'height': 411, 'widthPercent': 0.45, 'rescaleHeight': False, 'trialN': 54, 'loaded': True, 'loadedTime': 3534.6000000089407, 'positionName': 'LEFT', 'positionCoords': [280.2, 244.5], 'bid': 4.13}, {'imgObject': {}, 'id': 'cherries', 'src': '/static/foodstim60/cherries.jpg', 'key': 'i', 'origWidth': 410, 'origHeight': 411, 'width': 410, 'height': 411, 'widthPercent': 0.45, 'rescaleHeight': False, 'trialN': 54, 'loaded': True, 'loadedTime': 3565.5, 'positionName': 'RIGHT', 'positionCoords': [748.8, 244.5], 'bid': 3.23}]",93953.80000001192,1669830678324,blueberries,cherries,4.13,3.23,-0.8999999999999999,blueberries,1939.0999999940395,1942,1941.2999999970198,True,u,96400.10000000894,2446.2999999970198,1669830680771,2447,HRV,HRV_0089,2022-11-30 17:54:30
55,"[{'imgObject': {}, 'id': 'sushi w_condiments', 'src': '/static/foodstim60/sushi w_condiments.jpg', 'key': 'u', 'origWidth': 410, 'origHeight': 410, 'width': 410, 'height': 410, 'widthPercent': 0.45, 'rescaleHeight': False, 'trialN': 55, 'loaded': True, 'loadedTime': 3564.9000000059605, 'positionName': 'LEFT', 'positionCoords': [281.2, 245], 'bid': 0.11}, {'imgObject': {}, 'id': 'seaweed', 'src': '/static/foodstim60/seaweed.jpg', 'key': 'i', 'origWidth': 410, 'origHeight': 410, 'width': 410, 'height': 410, 'widthPercent': 0.45, 'rescaleHeight': False, 'trialN': 55, 'loaded': True, 'loadedTime': 3576, 'positionName': 'RIGHT', 'positionCoords': [748.8, 245], 'bid': 0}]",96400.40000000596,1669830680771,sushi w_condiments,seaweed,0.11,0.0,-0.11,sushi w_condiments,1508.7000000029802,1511,1511.0,True,u,98416.40000000596,2016.0,1669830682787,2016,HRV,HRV_0089,2022-11-30 17:54:30
56,"[{'imgObject': {}, 'id': 'chickenfingers', 'src': '/static/foodstim60/chickenfingers.jpg', 'key': 'u', 'origWidth': 410, 'origHeight': 410, 'width': 410, 'height': 410, 'widthPercent': 0.45, 'rescaleHeight': False, 'trialN': 56, 'loaded': True, 'loadedTime': 3545.2000000029802, 'positionName': 'LEFT', 'positionCoords': [281.2, 245], 'bid': 4.38}, {'imgObject': {}, 'id': 'salad w chicken', 'src': '/static/foodstim60/salad w chicken.jpg', 'key': 'i', 'origWidth': 411, 'origHeight': 411, 'width': 411, 'height': 411, 'widthPercent': 0.45, 'rescaleHeight': False, 'trialN': 56, 'loaded': True, 'loadedTime': 3581.800000011921, 'positionName': 'RIGHT', 'positionCoords': [748.8, 244.5], 'bid': 3.54}]",98416.70000000298,1669830682787,chickenfingers,salad w chicken,4.38,3.54,-0.8399999999999999,chickenfingers,655.6000000089407,658,658.2999999970198,True,u,99576.5,1159.7999999970198,1669830683947,1160,HRV,HRV_0089,2022-11-30 17:54:30
57,"[{'imgObject': {}, 'id': 'burrito', 'src': '/static/foodstim60/burrito.jpg', 'key': 'u', 'origWidth': 410, 'origHeight': 410, 'width': 410, 'height': 410, 'widthPercent': 0.45, 'rescaleHeight': False, 'trialN': 57, 'loaded': True, 'loadedTime': 3580.9000000059605, 'positionName': 'LEFT', 'positionCoords': [281.2, 245], 'bid': 0.22}, {'imgObject': {}, 'id': 'raspberries', 'src': '/static/foodstim60/raspberries.jpg', 'key': 'i', 'origWidth': 411, 'origHeight': 411, 'width': 411, 'height': 411, 'widthPercent': 0.45, 'rescaleHeight': False, 'trialN': 57, 'loaded': True, 'loadedTime': 3582.7000000029802, 'positionName': 'RIGHT', 'positionCoords': [748.8, 244.5], 'bid': 0.97}]",99576.90000000596,1669830683947,burrito,raspberries,0.22,0.97,0.75,raspberries,1400.0999999940395,1402,1402.0999999940395,True,i,101484.0,1907.0999999940395,1669830685854,1907,HRV,HRV_0089,2022-11-30 17:54:30
58,"[{'imgObject': {}, 'id': 'rigatoni and sauce', 'src': '/static/foodstim60/rigatoni and sauce.jpg', 'key': 'u', 'origWidth': 410, 'origHeight': 411, 'width': 410, 'height': 411, 'widthPercent': 0.45, 'rescaleHeight': False, 'trialN': 58, 'loaded': True, 'loadedTime': 3469.6000000089407, 'positionName': 'LEFT', 'positionCoords': [281.2, 244.5], 'bid': 4.36}, {'imgObject': {}, 'id': 'Grapes', 'src': '/static/foodstim60/Grapes.jpg', 'key': 'i', 'origWidth': 411, 'origHeight': 411, 'width': 411, 'height': 411, 'widthPercent': 0.45, 'rescaleHeight': False, 'trialN': 58, 'loaded': True, 'loadedTime': 3466.1000000089407, 'positionName': 'RIGHT', 'positionCoords': [748.8, 244.5], 'bid': 3.47}]",101484.40000000596,1669830685855,rigatoni and sauce,Grapes,4.36,3.47,-0.8900000000000001,rigatoni and sauce,696.5,698,698.7999999970198,True,u,102688.10000000894,1203.7000000029802,1669830687058,1203,HRV,HRV_0089,2022-11-30 17:54:30
59,"[{'imgObject': {}, 'id': 'hashbrowns', 'src': '/static/foodstim60/hashbrowns.jpg', 'key': 'u', 'origWidth': 411, 'origHeight': 410, 'width': 411, 'height': 410, 'widthPercent': 0.45, 'rescaleHeight': False, 'trialN': 59, 'loaded': True, 'loadedTime': 3430.1000000089407, 'positionName': 'LEFT', 'positionCoords': [280.2, 245], 'bid': 2.04}, {'imgObject': {}, 'id': 'bagel plain', 'src': '/static/foodstim60/bagel plain.jpg', 'key': 'i', 'origWidth': 410, 'origHeight': 410, 'width': 410, 'height': 410, 'widthPercent': 0.45, 'rescaleHeight': False, 'trialN': 59, 'loaded': True, 'loadedTime': 3467.5, 'positionName': 'RIGHT', 'positionCoords': [748.8, 245], 'bid': 2.09}]",102688.40000000596,1669830687059,hashbrowns,bagel plain,2.04,2.09,0.04999999999999982,bagel plain,1263.5999999940395,1265,1265.7000000029802,True,i,104459.0,1770.5999999940395,1669830688829,1770,HRV,HRV_0089,2022-11-30 17:54:30
60,"[{'imgObject': {}, 'id': 'salad w chicken', 'src': '/static/foodstim60/salad w chicken.jpg', 'key': 'u', 'origWidth': 411, 'origHeight': 411, 'width': 411, 'height': 411, 'widthPercent': 0.45, 'rescaleHeight': False, 'trialN': 60, 'loaded': True, 'loadedTime': 3581.800000011921, 'positionName': 'LEFT', 'positionCoords': [280.2, 244.5], 'bid': 3.54}, {'imgObject': {}, 'id': 'popsicles', 'src': '/static/foodstim60/popsicles.jpg', 'key': 'i', 'origWidth': 410, 'origHeight': 410, 'width': 410, 'height': 410, 'widthPercent': 0.45, 'rescaleHeight': False, 'trialN': 60, 'loaded': True, 'loadedTime': 3579.6000000089407, 'positionName': 'RIGHT', 'positionCoords': [748.8, 245], 'bid': 3.93}]",104459.30000001192,1669830688830,salad w chicken,popsicles,3.54,3.93,0.3900000000000001,salad w chicken,1421.699999988079,1424,1424.2999999970198,True,u,106385.5,1926.199999988079,1669830690756,1926,HRV,HRV_0089,2022-11-30 17:54:30
61,"[{'imgObject': {}, 'id': 'popsicles', 'src': '/static/foodstim60/popsicles.jpg', 'key': 'u', 'origWidth': 410, 'origHeight': 410, 'width': 410, 'height': 410, 'widthPercent': 0.45, 'rescaleHeight': False, 'trialN': 61, 'loaded': True, 'loadedTime': 3579.6000000089407, 'positionName': 'LEFT', 'positionCoords': [281.2, 245], 'bid': 3.93}, {'imgObject': {}, 'id': 'veggieswithdip', 'src': '/static/foodstim60/veggieswithdip.jpg', 'key': 'i', 'origWidth': 409, 'origHeight': 409, 'width': 409, 'height': 409, 'widthPercent': 0.45, 'rescaleHeight': False, 'trialN': 61, 'loaded': True, 'loadedTime': 3461.800000011921, 'positionName': 'RIGHT', 'positionCoords': [748.8, 245.5], 'bid': 4.01}]",106385.80000001192,1669830690756,popsicles,veggieswithdip,3.93,4.01,0.07999999999999963,veggieswithdip,2063.0999999940395,2064,2063.8999999910593,True,i,108954.90000000596,2569.0999999940395,1669830693325,2569,HRV,HRV_0089,2022-11-30 17:54:30
62,"[{'imgObject': {}, 'id': 'rigatoni and sauce', 'src': '/static/foodstim60/rigatoni and sauce.jpg', 'key': 'u', 'origWidth': 410, 'origHeight': 411, 'width': 410, 'height': 411, 'widthPercent': 0.45, 'rescaleHeight': False, 'trialN': 62, 'loaded': True, 'loadedTime': 3469.6000000089407, 'positionName': 'LEFT', 'positionCoords': [281.2, 244.5], 'bid': 4.36}, {'imgObject': {}, 'id': 'steak', 'src': '/static/foodstim60/steak.jpg', 'key': 'i', 'origWidth': 410, 'origHeight': 410, 'width': 410, 'height': 410, 'widthPercent': 0.45, 'rescaleHeight': False, 'trialN': 62, 'loaded': True, 'loadedTime': 3509.800000011921, 'positionName': 'RIGHT', 'positionCoords': [748.8, 245], 'bid': 5.0600000000000005}]",108955.0,1669830693325,rigatoni and sauce,steak,4.36,5.0600000000000005,0.7000000000000002,steak,774.1000000089407,776,775.5,True,i,110235.60000000894,1280.6000000089407,1669830694606,1281,HRV,HRV_0089,2022-11-30 17:54:30
63,"[{'imgObject': {}, 'id': 'omelette', 'src': '/static/foodstim60/omelette.jpg', 'key': 'u', 'origWidth': 410, 'origHeight': 409, 'width': 410, 'height': 409, 'widthPercent': 0.45, 'rescaleHeight': False, 'trialN': 63, 'loaded': True, 'loadedTime': 3510.6000000089407, 'positionName': 'LEFT', 'positionCoords': [281.2, 245.5], 'bid': 4.08}, {'imgObject': {}, 'id': 'mac & cheese', 'src': '/static/foodstim60/mac & cheese.jpg', 'key': 'i', 'origWidth': 410, 'origHeight': 410, 'width': 410, 'height': 410, 'widthPercent': 0.45, 'rescaleHeight': False, 'trialN': 63, 'loaded': True, 'loadedTime': 3468.9000000059605, 'positionName': 'RIGHT', 'positionCoords': [748.8, 245], 'bid': 4.04}]",110235.70000000298,1669830694606,omelette,mac & cheese,4.08,4.04,-0.040000000000000036,mac & cheese,613.5,616,616.1000000089407,True,i,111356.60000000894,1120.9000000059605,1669830695727,1121,HRV,HRV_0089,2022-11-30 17:54:30
64,"[{'imgObject': {}, 'id': 'chickenfingers', 'src': '/static/foodstim60/chickenfingers.jpg', 'key': 'u', 'origWidth': 410, 'origHeight': 410, 'width': 410, 'height': 410, 'widthPercent': 0.45, 'rescaleHeight': False, 'trialN': 64, 'loaded': True, 'loadedTime': 3552, 'positionName': 'LEFT', 'positionCoords': [281.2, 245], 'bid': 4.38}, {'imgObject': {}, 'id': 'turkey sandwich', 'src': '/static/foodstim60/turkey sandwich.jpg', 'key': 'i', 'origWidth': 409, 'origHeight': 409, 'width': 409, 'height': 409, 'widthPercent': 0.45, 'rescaleHeight': False, 'trialN': 64, 'loaded': True, 'loadedTime': 3470.2000000029802, 'positionName': 'RIGHT', 'positionCoords': [748.8, 245.5], 'bid': 4.2}]",111356.80000001192,1669830695727,chickenfingers,turkey sandwich,4.38,4.2,-0.17999999999999972,chickenfingers,1518.3999999910593,1521,1520.8999999910593,True,u,113382.40000000596,2025.5999999940395,1669830697752,2025,HRV,HRV_0089,2022-11-30 17:54:30
65,"[{'imgObject': {}, 'id': 'granola w milk', 'src': '/static/foodstim60/granola w milk.jpg', 'key': 'u', 'origWidth': 410, 'origHeight': 410, 'width': 410, 'height': 410, 'widthPercent': 0.45, 'rescaleHeight': False, 'trialN': 65, 'loaded': True, 'loadedTime': 3545.1000000089407, 'positionName': 'LEFT', 'positionCoords': [281.2, 245], 'bid': 2.52}, {'imgObject': {}, 'id': 'mashed potato', 'src': '/static/foodstim60/mashed potato.jpg', 'key': 'i', 'origWidth': 409, 'origHeight': 409, 'width': 409, 'height': 409, 'widthPercent': 0.45, 'rescaleHeight': False, 'trialN': 65, 'loaded': True, 'loadedTime': 3501.6000000089407, 'positionName': 'RIGHT', 'positionCoords': [748.8, 245.5], 'bid': 2.68}]",113382.60000000894,1669830697753,granola w milk,mashed potato,2.52,2.68,0.16000000000000014,granola w milk,725.3999999910593,727,727.7999999970198,True,u,114612.30000001192,1229.7000000029802,1669830698982,1229,HRV,HRV_0089,2022-11-30 17:54:30
66,"[{'imgObject': {}, 'id': 'tacos', 'src': '/static/foodstim60/tacos.jpg', 'key': 'u', 'origWidth': 411, 'origHeight': 411, 'width': 411, 'height': 411, 'widthPercent': 0.45, 'rescaleHeight': False, 'trialN': 66, 'loaded': True, 'loadedTime': 3524.1000000089407, 'positionName': 'LEFT', 'positionCoords': [280.2, 244.5], 'bid': 1.3}, {'imgObject': {}, 'id': 'eggsalad', 'src': '/static/foodstim60/eggsalad.jpg', 'key': 'i', 'origWidth': 410, 'origHeight': 409, 'width': 410, 'height': 409, 'widthPercent': 0.45, 'rescaleHeight': False, 'trialN': 66, 'loaded': True, 'loadedTime': 3497.7000000029802, 'positionName': 'RIGHT', 'positionCoords': [748.8, 245.5], 'bid': 0.98}]",114612.60000000894,1669830698983,tacos,eggsalad,1.3,0.98,-0.32000000000000006,tacos,626.7000000029802,629,629.0,True,u,115745.60000000894,1133.0,1669830700116,1133,HRV,HRV_0089,2022-11-30 17:54:30
67,"[{'imgObject': {}, 'id': 'chickenfingers', 'src': '/static/foodstim60/chickenfingers.jpg', 'key': 'u', 'origWidth': 410, 'origHeight': 410, 'width': 410, 'height': 410, 'widthPercent': 0.45, 'rescaleHeight': False, 'trialN': 67, 'loaded': True, 'loadedTime': 3552.4000000059605, 'positionName': 'LEFT', 'positionCoords': [281.2, 245], 'bid': 4.38}, {'imgObject': {}, 'id': 'hashbrowns', 'src': '/static/foodstim60/hashbrowns.jpg', 'key': 'i', 'origWidth': 411, 'origHeight': 410, 'width': 411, 'height': 410, 'widthPercent': 0.45, 'rescaleHeight': False, 'trialN': 67, 'loaded': True, 'loadedTime': 3430.4000000059605, 'positionName': 'RIGHT', 'positionCoords': [748.8, 245], 'bid': 2.04}]",115745.70000000298,1669830700116,chickenfingers,hashbrowns,4.38,2.04,-2.34,chickenfingers,752.2999999970198,754,754.4000000059605,True,u,117001.10000000894,1255.4000000059605,1669830701371,1255,HRV,HRV_0089,2022-11-30 17:54:30
68,"[{'imgObject': {}, 'id': 'burrito', 'src': '/static/foodstim60/burrito.jpg', 'key': 'u', 'origWidth': 410, 'origHeight': 410, 'width': 410, 'height': 410, 'widthPercent': 0.45, 'rescaleHeight': False, 'trialN': 68, 'loaded': True, 'loadedTime': 3581, 'positionName': 'LEFT', 'positionCoords': [281.2, 245], 'bid': 0.22}, {'imgObject': {}, 'id': 'burger', 'src': '/static/foodstim60/burger.jpg', 'key': 'i', 'origWidth': 409, 'origHeight': 409, 'width': 409, 'height': 409, 'widthPercent': 0.45, 'rescaleHeight': False, 'trialN': 68, 'loaded': True, 'loadedTime': 3555.4000000059605, 'positionName': 'RIGHT', 'positionCoords': [748.8, 245.5], 'bid': 1.97}]",117001.40000000596,1669830701371,burrito,burger,0.22,1.97,1.75,burger,824.7999999970198,827,826.9000000059605,True,i,118333.20000000298,1331.7999999970198,1669830702703,1332,HRV,HRV_0089,2022-11-30 17:54:30
69,"[{'imgObject': {}, 'id': 'olives', 'src': '/static/foodstim60/olives.jpg', 'key': 'u', 'origWidth': 410, 'origHeight': 410, 'width': 410, 'height': 410, 'widthPercent': 0.45, 'rescaleHeight': False, 'trialN': 69, 'loaded': True, 'loadedTime': 3544.1000000089407, 'positionName': 'LEFT', 'positionCoords': [281.2, 245], 'bid': 7.2}, {'imgObject': {}, 'id': 'turkey sandwich', 'src': '/static/foodstim60/turkey sandwich.jpg', 'key': 'i', 'origWidth': 409, 'origHeight': 409, 'width': 409, 'height': 409, 'widthPercent': 0.45, 'rescaleHeight': False, 'trialN': 69, 'loaded': True, 'loadedTime': 3470.2000000029802, 'positionName': 'RIGHT', 'positionCoords': [748.8, 245.5], 'bid': 4.2}]",118333.5,1669830702703,olives,turkey sandwich,7.2,4.2,-3.0,olives,697.7000000029802,700,700.1000000089407,True,u,119538.5,1205.0,1669830703908,1205,HRV,HRV_0089,2022-11-30 17:54:30
70,"[{'imgObject': {}, 'id': 'cheerios', 'src': '/static/foodstim60/cheerios.jpg', 'key': 'u', 'origWidth': 409, 'origHeight': 410, 'width': 409, 'height': 410, 'widthPercent': 0.45, 'rescaleHeight': False, 'trialN': 70, 'loaded': True, 'loadedTime': 3465.6000000089407, 'positionName': 'LEFT', 'positionCoords': [282.2, 245], 'bid': 3.36}, {'imgObject': {}, 'id': 'yogurt no spoon', 'src': '/static/foodstim60/yogurt no spoon.jpg', 'key': 'i', 'origWidth': 411, 'origHeight': 410, 'width': 411, 'height': 410, 'widthPercent': 0.45, 'rescaleHeight': False, 'trialN': 70, 'loaded': True, 'loadedTime': 3507.9000000059605, 'positionName': 'RIGHT', 'positionCoords': [748.8, 245], 'bid': 7.12}]",119539.0,1669830703909,cheerios,yogurt no spoon,3.36,7.12,3.7600000000000002,yogurt no spoon,522.2000000029802,526,525.9000000059605,True,i,120568.30000001192,1029.300000011921,1669830704938,1029,HRV,HRV_0089,2022-11-30 17:54:30
71,"[{'imgObject': {}, 'id': 'strawberries', 'src': '/static/foodstim60/strawberries.jpg', 'key': 'u', 'origWidth': 410, 'origHeight': 410, 'width': 410, 'height': 410, 'widthPercent': 0.45, 'rescaleHeight': False, 'trialN': 71, 'loaded': True, 'loadedTime': 3505.300000011921, 'positionName': 'LEFT', 'positionCoords': [281.2, 245], 'bid': 9.88}, {'imgObject': {}, 'id': 'salad w chicken', 'src': '/static/foodstim60/salad w chicken.jpg', 'key': 'i', 'origWidth': 411, 'origHeight': 411, 'width': 411, 'height': 411, 'widthPercent': 0.45, 'rescaleHeight': False, 'trialN': 71, 'loaded': True, 'loadedTime': 3581.1000000089407, 'positionName': 'RIGHT', 'positionCoords': [748.8, 244.5], 'bid': 3.54}]",120568.5,1669830704938,strawberries,salad w chicken,9.88,3.54,-6.340000000000001,strawberries,529.7000000029802,532,532.0,True,u,121605.5,1037.0,1669830705975,1037,HRV,HRV_0089,2022-11-30 17:54:30
72,"[{'imgObject': {}, 'id': 'bagel and cc', 'src': '/static/foodstim60/bagel and cc.jpg', 'key': 'u', 'origWidth': 410, 'origHeight': 410, 'width': 410, 'height': 410, 'widthPercent': 0.45, 'rescaleHeight': False, 'trialN': 72, 'loaded': True, 'loadedTime': 3495.2000000029802, 'positionName': 'LEFT', 'positionCoords': [281.2, 245], 'bid': 2.12}, {'imgObject': {}, 'id': 'turkeysandwich', 'src': '/static/foodstim60/turkeysandwich.jpg', 'key': 'i', 'origWidth': 409, 'origHeight': 409, 'width': 409, 'height': 409, 'widthPercent': 0.45, 'rescaleHeight': False, 'trialN': 72, 'loaded': True, 'loadedTime': 3503.7000000029802, 'positionName': 'RIGHT', 'positionCoords': [748.8, 245.5], 'bid': 3.11}]",121605.80000001192,1669830705976,bagel and cc,turkeysandwich,2.12,3.11,0.9899999999999998,turkeysandwich,785.5,788,788.0,True,i,122898.10000000894,1292.2999999970198,1669830707268,1292,HRV,HRV_0089,2022-11-30 17:54:30
73,"[{'imgObject': {}, 'id': 'Grapes', 'src': '/static/foodstim60/Grapes.jpg', 'key': 'u', 'origWidth': 411, 'origHeight': 411, 'width': 411, 'height': 411, 'widthPercent': 0.45, 'rescaleHeight': False, 'trialN': 73, 'loaded': True, 'loadedTime': 3466.2000000029802, 'positionName': 'LEFT', 'positionCoords': [280.2, 244.5], 'bid': 3.47}, {'imgObject': {}, 'id': 'cherries', 'src': '/static/foodstim60/cherries.jpg', 'key': 'i', 'origWidth': 410, 'origHeight': 411, 'width': 410, 'height': 411, 'widthPercent': 0.45, 'rescaleHeight': False, 'trialN': 73, 'loaded': True, 'loadedTime': 3565.6000000089407, 'positionName': 'RIGHT', 'positionCoords': [748.8, 244.5], 'bid': 3.23}]",122898.60000000894,1669830707268,Grapes,cherries,3.47,3.23,-0.2400000000000002,cherries,1091.3999999910593,1094,1093.8999999910593,True,i,124495.40000000596,1596.7999999970198,1669830708865,1597,HRV,HRV_0089,2022-11-30 17:54:30
74,"[{'imgObject': {}, 'id': 'cocktailshrimp', 'src': '/static/foodstim60/cocktailshrimp.jpg', 'key': 'u', 'origWidth': 410, 'origHeight': 410, 'width': 410, 'height': 410, 'widthPercent': 0.45, 'rescaleHeight': False, 'trialN': 74, 'loaded': True, 'loadedTime': 3508.800000011921, 'positionName': 'LEFT', 'positionCoords': [281.2, 245], 'bid': 1.88}, {'imgObject': {}, 'id': 'hotdog w must', 'src': '/static/foodstim60/hotdog w must.jpg', 'key': 'i', 'origWidth': 409, 'origHeight': 409, 'width': 409, 'height': 409, 'widthPercent': 0.45, 'rescaleHeight': False, 'trialN': 74, 'loaded': True, 'loadedTime': 3554.6000000089407, 'positionName': 'RIGHT', 'positionCoords': [748.8, 245.5], 'bid': 0.44}]",124495.80000001192,1669830708865,cocktailshrimp,hotdog w must,1.88,0.44,-1.44,hotdog w must,726,728,727.5999999940395,True,i,125728.60000000894,1232.7999999970198,1669830710098,1233,HRV,HRV_0089,2022-11-30 17:54:30
75,"[{'imgObject': {}, 'id': 'edamame', 'src': '/static/foodstim60/edamame.jpg', 'key': 'u', 'origWidth': 409, 'origHeight': 410, 'width': 409, 'height': 410, 'widthPercent': 0.45, 'rescaleHeight': False, 'trialN': 75, 'loaded': True, 'loadedTime': 3508.7000000029802, 'positionName': 'LEFT', 'positionCoords': [282.2, 245], 'bid': 1.81}, {'imgObject': {}, 'id': 'sushi w_condiments', 'src': '/static/foodstim60/sushi w_condiments.jpg', 'key': 'i', 'origWidth': 410, 'origHeight': 410, 'width': 410, 'height': 410, 'widthPercent': 0.45, 'rescaleHeight': False, 'trialN': 75, 'loaded': True, 'loadedTime': 3565, 'positionName': 'RIGHT', 'positionCoords': [748.8, 245], 'bid': 0.11}]",125728.90000000596,1669830710099,edamame,sushi w_condiments,1.81,0.11,-1.7,edamame,1101.5,1102,1102.5999999940395,True,u,127336.70000000298,1607.7999999970198,1669830711706,1607,HRV,HRV_0089,2022-11-30 17:54:30
76,"[{'imgObject': {}, 'id': 'shreddedwheatwithmilk', 'src': '/static/foodstim60/shreddedwheatwithmilk.jpg', 'key': 'u', 'origWidth': 410, 'origHeight': 410, 'width': 410, 'height': 410, 'widthPercent': 0.45, 'rescaleHeight': False, 'trialN': 76, 'loaded': True, 'loadedTime': 3583, 'positionName': 'LEFT', 'positionCoords': [281.2, 245], 'bid': 1.91}, {'imgObject': {}, 'id': 'cantaloupe', 'src': '/static/foodstim60/cantaloupe.jpg', 'key': 'i', 'origWidth': 409, 'origHeight': 409, 'width': 409, 'height': 409, 'widthPercent': 0.45, 'rescaleHeight': False, 'trialN': 76, 'loaded': True, 'loadedTime': 3566.1000000089407, 'positionName': 'RIGHT', 'positionCoords': [748.8, 245.5], 'bid': 0.22}]",127337.0,1669830711707,shreddedwheatwithmilk,cantaloupe,1.91,0.22,-1.69,shreddedwheatwithmilk,1118.7000000029802,1121,1120.9000000059605,True,u,128962.90000000596,1625.9000000059605,1669830713333,1626,HRV,HRV_0089,2022-11-30 17:54:30
77,"[{'imgObject': {}, 'id': 'popsicles', 'src': '/static/foodstim60/popsicles.jpg', 'key': 'u', 'origWidth': 410, 'origHeight': 410, 'width': 410, 'height': 410, 'widthPercent': 0.45, 'rescaleHeight': False, 'trialN': 77, 'loaded': True, 'loadedTime': 3579.4000000059605, 'positionName': 'LEFT', 'positionCoords': [281.2, 245], 'bid': 3.93}, {'imgObject': {}, 'id': 'edamame', 'src': '/static/foodstim60/edamame.jpg', 'key': 'i', 'origWidth': 409, 'origHeight': 410, 'width': 409, 'height': 410, 'widthPercent': 0.45, 'rescaleHeight': False, 'trialN': 77, 'loaded': True, 'loadedTime': 3508.800000011921, 'positionName': 'RIGHT', 'positionCoords': [748.8, 245], 'bid': 1.81}]",128963.20000000298,1669830713333,popsicles,edamame,3.93,1.81,-2.12,edamame,1052,1054,1054.0,True,i,130522.40000000596,1559.2000000029802,1669830714892,1559,HRV,HRV_0089,2022-11-30 17:54:30
78,"[{'imgObject': {}, 'id': 'corn cob', 'src': '/static/foodstim60/corn cob.jpg', 'key': 'u', 'origWidth': 411, 'origHeight': 411, 'width': 411, 'height': 411, 'widthPercent': 0.45, 'rescaleHeight': False, 'trialN': 78, 'loaded': True, 'loadedTime': 3580.2000000029802, 'positionName': 'LEFT', 'positionCoords': [280.2, 244.5], 'bid': 2.06}, {'imgObject': {}, 'id': 'luckycharms', 'src': '/static/foodstim60/luckycharms.jpg', 'key': 'i', 'origWidth': 410, 'origHeight': 409, 'width': 410, 'height': 409, 'widthPercent': 0.45, 'rescaleHeight': False, 'trialN': 78, 'loaded': True, 'loadedTime': 3584.2000000029802, 'positionName': 'RIGHT', 'positionCoords': [748.8, 245.5], 'bid': 2.31}]",130522.70000000298,1669830714892,corn cob,luckycharms,2.06,2.31,0.25,corn cob,1132.2000000029802,1135,1134.7000000029802,True,u,132162.5,1639.7999999970198,1669830716532,1640,HRV,HRV_0089,2022-11-30 17:54:30
79,"[{'imgObject': {}, 'id': 'olives', 'src': '/static/foodstim60/olives.jpg', 'key': 'u', 'origWidth': 410, 'origHeight': 410, 'width': 410, 'height': 410, 'widthPercent': 0.45, 'rescaleHeight': False, 'trialN': 79, 'loaded': True, 'loadedTime': 3544.4000000059605, 'positionName': 'LEFT', 'positionCoords': [281.2, 245], 'bid': 7.2}, {'imgObject': {}, 'id': 'strawberries', 'src': '/static/foodstim60/strawberries.jpg', 'key': 'i', 'origWidth': 410, 'origHeight': 410, 'width': 410, 'height': 410, 'widthPercent': 0.45, 'rescaleHeight': False, 'trialN': 79, 'loaded': True, 'loadedTime': 3505.4000000059605, 'positionName': 'RIGHT', 'positionCoords': [748.8, 245], 'bid': 9.88}]",132162.70000000298,1669830716532,olives,strawberries,7.2,9.88,2.6800000000000006,strawberries,873.5,876,875.6000000089407,True,i,133543.20000000298,1380.5,1669830717913,1381,HRV,HRV_0089,2022-11-30 17:54:30
80,"[{'imgObject': {}, 'id': 'strawberries', 'src': '/static/foodstim60/strawberries.jpg', 'key': 'u', 'origWidth': 410, 'origHeight': 410, 'width': 410, 'height': 410, 'widthPercent': 0.45, 'rescaleHeight': False, 'trialN': 80, 'loaded': True, 'loadedTime': 3505.300000011921, 'positionName': 'LEFT', 'positionCoords': [281.2, 245], 'bid': 9.88}, {'imgObject': {}, 'id': 'ice cream sundae 002', 'src': '/static/foodstim60/ice cream sundae 002.jpg', 'key': 'i', 'origWidth': 409, 'origHeight': 409, 'width': 409, 'height': 409, 'widthPercent': 0.45, 'rescaleHeight': False, 'trialN': 80, 'loaded': True, 'loadedTime': 3542.6000000089407, 'positionName': 'RIGHT', 'positionCoords': [748.8, 245.5], 'bid': 2.29}]",133543.5,1669830717913,strawberries,ice cream sundae 002,9.88,2.29,-7.590000000000001,strawberries,531.6000000089407,533,533.3000000119209,True,u,134580.40000000596,1036.9000000059605,1669830718950,1037,HRV,HRV_0089,2022-11-30 17:54:30
81,"[{'imgObject': {}, 'id': 'lox', 'src': '/static/foodstim60/lox.jpg', 'key': 'u', 'origWidth': 410, 'origHeight': 411, 'width': 410, 'height': 411, 'widthPercent': 0.45, 'rescaleHeight': False, 'trialN': 81, 'loaded': True, 'loadedTime': 3525.1000000089407, 'positionName': 'LEFT', 'positionCoords': [281.2, 244.5], 'bid': 0.22}, {'imgObject': {}, 'id': 'blackbeanswithrice', 'src': '/static/foodstim60/blackbeanswithrice.jpg', 'key': 'i', 'origWidth': 410, 'origHeight': 410, 'width': 410, 'height': 410, 'widthPercent': 0.45, 'rescaleHeight': False, 'trialN': 81, 'loaded': True, 'loadedTime': 3553.5, 'positionName': 'RIGHT', 'positionCoords': [748.8, 245], 'bid': 0.54}]",134580.70000000298,1669830718950,lox,blackbeanswithrice,0.22,0.54,0.32000000000000006,blackbeanswithrice,1132.6000000089407,1135,1134.7999999970198,True,i,136219.60000000894,1638.9000000059605,1669830720589,1639,HRV,HRV_0089,2022-11-30 17:54:30
82,"[{'imgObject': {}, 'id': 'rigatoni and sauce', 'src': '/static/foodstim60/rigatoni and sauce.jpg', 'key': 'u', 'origWidth': 410, 'origHeight': 411, 'width': 410, 'height': 411, 'widthPercent': 0.45, 'rescaleHeight': False, 'trialN': 82, 'loaded': True, 'loadedTime': 3469.6000000089407, 'positionName': 'LEFT', 'positionCoords': [281.2, 244.5], 'bid': 4.36}, {'imgObject': {}, 'id': 'kiwi', 'src': '/static/foodstim60/kiwi.jpg', 'key': 'i', 'origWidth': 410, 'origHeight': 410, 'width': 410, 'height': 410, 'widthPercent': 0.45, 'rescaleHeight': False, 'trialN': 82, 'loaded': True, 'loadedTime': 3544, 'positionName': 'RIGHT', 'positionCoords': [748.8, 245], 'bid': 2.04}]",136219.80000001192,1669830720589,rigatoni and sauce,kiwi,4.36,2.04,-2.3200000000000003,rigatoni and sauce,753.5,755,755.0999999940395,True,u,137479.90000000596,1260.0999999940395,1669830721849,1260,HRV,HRV_0089,2022-11-30 17:54:30
83,"[{'imgObject': {}, 'id': 'seaweed', 'src': '/static/foodstim60/seaweed.jpg', 'key': 'u', 'origWidth': 410, 'origHeight': 410, 'width': 410, 'height': 410, 'widthPercent': 0.45, 'rescaleHeight': False, 'trialN': 83, 'loaded': True, 'loadedTime': 3576, 'positionName': 'LEFT', 'positionCoords': [281.2, 245], 'bid': 0}, {'imgObject': {}, 'id': 'salmon', 'src': '/static/foodstim60/salmon.jpg', 'key': 'i', 'origWidth': 410, 'origHeight': 409, 'width': 410, 'height': 409, 'widthPercent': 0.45, 'rescaleHeight': False, 'trialN': 83, 'loaded': True, 'loadedTime': 3471, 'positionName': 'RIGHT', 'positionCoords': [748.8, 245.5], 'bid': 0.13}]",137480.20000000298,1669830721850,seaweed,salmon,0.0,0.13,0.13,seaweed,899.4000000059605,901,901.7000000029802,True,u,138886.70000000298,1406.5,1669830723256,1406,HRV,HRV_0089,2022-11-30 17:54:30
84,"[{'imgObject': {}, 'id': 'mango', 'src': '/static/foodstim60/mango.jpg', 'key': 'u', 'origWidth': 411, 'origHeight': 411, 'width': 411, 'height': 411, 'widthPercent': 0.45, 'rescaleHeight': False, 'trialN': 84, 'loaded': True, 'loadedTime': 3532.300000011921, 'positionName': 'LEFT', 'positionCoords': [280.2, 244.5], 'bid': 1.36}, {'imgObject': {}, 'id': 'ice cream sundae 002', 'src': '/static/foodstim60/ice cream sundae 002.jpg', 'key': 'i', 'origWidth': 409, 'origHeight': 409, 'width': 409, 'height': 409, 'widthPercent': 0.45, 'rescaleHeight': False, 'trialN': 84, 'loaded': True, 'loadedTime': 3542.7000000029802, 'positionName': 'RIGHT', 'positionCoords': [748.8, 245.5], 'bid': 2.29}]",138886.80000001192,1669830723256,mango,ice cream sundae 002,1.36,2.29,0.9299999999999999,ice cream sundae 002,665.1999999880791,667,666.6999999880791,True,i,140058.5,1171.699999988079,1669830724428,1172,HRV,HRV_0089,2022-11-30 17:54:30
85,"[{'imgObject': {}, 'id': 'seaweed', 'src': '/static/foodstim60/seaweed.jpg', 'key': 'u', 'origWidth': 410, 'origHeight': 410, 'width': 410, 'height': 410, 'widthPercent': 0.45, 'rescaleHeight': False, 'trialN': 85, 'loaded': True, 'loadedTime': 3576.1000000089407, 'positionName': 'LEFT', 'positionCoords': [281.2, 245], 'bid': 0}, {'imgObject': {}, 'id': 'pear', 'src': '/static/foodstim60/pear.jpg', 'key': 'i', 'origWidth': 411, 'origHeight': 410, 'width': 411, 'height': 410, 'widthPercent': 0.45, 'rescaleHeight': False, 'trialN': 85, 'loaded': True, 'loadedTime': 3458, 'positionName': 'RIGHT', 'positionCoords': [748.8, 245], 'bid': 2.3000000000000003}]",140058.70000000298,1669830724428,seaweed,pear,0.0,2.3000000000000003,2.3000000000000003,pear,756.6000000089407,759,759.0,True,i,141322.80000001192,1264.1000000089407,1669830725692,1264,HRV,HRV_0089,2022-11-30 17:54:30
86,"[{'imgObject': {}, 'id': 'tacos', 'src': '/static/foodstim60/tacos.jpg', 'key': 'u', 'origWidth': 411, 'origHeight': 411, 'width': 411, 'height': 411, 'widthPercent': 0.45, 'rescaleHeight': False, 'trialN': 86, 'loaded': True, 'loadedTime': 3524.1000000089407, 'positionName': 'LEFT', 'positionCoords': [280.2, 244.5], 'bid': 1.3}, {'imgObject': {}, 'id': 'chicken nuggets2', 'src': '/static/foodstim60/chicken nuggets2.jpg', 'key': 'i', 'origWidth': 410, 'origHeight': 409, 'width': 410, 'height': 409, 'widthPercent': 0.45, 'rescaleHeight': False, 'trialN': 86, 'loaded': True, 'loadedTime': 3506, 'positionName': 'RIGHT', 'positionCoords': [748.8, 245.5], 'bid': 2.19}]",141323.10000000894,1669830725692,tacos,chicken nuggets2,1.3,2.19,0.8899999999999999,chicken nuggets2,909.2000000029802,913,912.8999999910593,True,i,142741.0,1417.8999999910593,1669830727110,1418,HRV,HRV_0089,2022-11-30 17:54:30
87,"[{'imgObject': {}, 'id': 'orange slices', 'src': '/static/foodstim60/orange slices.jpg', 'key': 'u', 'origWidth': 409, 'origHeight': 410, 'width': 409, 'height': 410, 'widthPercent': 0.45, 'rescaleHeight': False, 'trialN': 87, 'loaded': True, 'loadedTime': 3475.2000000029802, 'positionName': 'LEFT', 'positionCoords': [282.2, 245], 'bid': 1.63}, {'imgObject': {}, 'id': 'tacos', 'src': '/static/foodstim60/tacos.jpg', 'key': 'i', 'origWidth': 411, 'origHeight': 411, 'width': 411, 'height': 411, 'widthPercent': 0.45, 'rescaleHeight': False, 'trialN': 87, 'loaded': True, 'loadedTime': 3524, 'positionName': 'RIGHT', 'positionCoords': [748.8, 244.5], 'bid': 1.3}]",142741.30000001192,1669830727111,orange slices,tacos,1.63,1.3,-0.32999999999999985,orange slices,855.0999999940395,856,856.2999999970198,True,u,144100.5,1359.199999988079,1669830728470,1359,HRV,HRV_0089,2022-11-30 17:54:30
88,"[{'imgObject': {}, 'id': 'raisin bran w milk', 'src': '/static/foodstim60/raisin bran w milk.jpg', 'key': 'u', 'origWidth': 411, 'origHeight': 411, 'width': 411, 'height': 411, 'widthPercent': 0.45, 'rescaleHeight': False, 'trialN': 88, 'loaded': True, 'loadedTime': 3466.9000000059605, 'positionName': 'LEFT', 'positionCoords': [280.2, 244.5], 'bid': 2.81}, {'imgObject': {}, 'id': 'blueberries', 'src': '/static/foodstim60/blueberries.jpg', 'key': 'i', 'origWidth': 411, 'origHeight': 411, 'width': 411, 'height': 411, 'widthPercent': 0.45, 'rescaleHeight': False, 'trialN': 88, 'loaded': True, 'loadedTime': 3534.1000000089407, 'positionName': 'RIGHT', 'positionCoords': [748.8, 244.5], 'bid': 4.13}]",144100.80000001192,1669830728470,raisin bran w milk,blueberries,2.81,4.13,1.3199999999999998,blueberries,746.6999999880791,749,748.6999999880791,True,i,145350.30000001192,1249.5,1669830729719,1249,HRV,HRV_0089,2022-11-30 17:54:30
89,"[{'imgObject': {}, 'id': 'pear', 'src': '/static/foodstim60/pear.jpg', 'key': 'u', 'origWidth': 411, 'origHeight': 410, 'width': 411, 'height': 410, 'widthPercent': 0.45, 'rescaleHeight': False, 'trialN': 89, 'loaded': True, 'loadedTime': 3458.9000000059605, 'positionName': 'LEFT', 'positionCoords': [280.2, 245], 'bid': 2.3000000000000003}, {'imgObject': {}, 'id': 'burger', 'src': '/static/foodstim60/burger.jpg', 'key': 'i', 'origWidth': 409, 'origHeight': 409, 'width': 409, 'height': 409, 'widthPercent': 0.45, 'rescaleHeight': False, 'trialN': 89, 'loaded': True, 'loadedTime': 3554.9000000059605, 'positionName': 'RIGHT', 'positionCoords': [748.8, 245.5], 'bid': 1.97}]",145350.5,1669830729720,pear,burger,2.3000000000000003,1.97,-0.3300000000000003,pear,1209.4000000059605,1212,1211.9000000059605,True,u,147067.5,1717.0,1669830731437,1717,HRV,HRV_0089,2022-11-30 17:54:30
90,"[{'imgObject': {}, 'id': 'sweetpotato', 'src': '/static/foodstim60/sweetpotato.jpg', 'key': 'u', 'origWidth': 410, 'origHeight': 410, 'width': 410, 'height': 410, 'widthPercent': 0.45, 'rescaleHeight': False, 'trialN': 90, 'loaded': True, 'loadedTime': 3499.5, 'positionName': 'LEFT', 'positionCoords': [281.2, 245], 'bid': 2.56}, {'imgObject': {}, 'id': 'cantaloupe', 'src': '/static/foodstim60/cantaloupe.jpg', 'key': 'i', 'origWidth': 409, 'origHeight': 409, 'width': 409, 'height': 409, 'widthPercent': 0.45, 'rescaleHeight': False, 'trialN': 90, 'loaded': True, 'loadedTime': 3566, 'positionName': 'RIGHT', 'positionCoords': [748.8, 245.5], 'bid': 0.22}]",153172.80000001192,1669830737542,sweetpotato,cantaloupe,2.56,0.22,-2.34,sweetpotato,1079.699999988079,1082,1081.8999999910593,True,u,154759.60000000894,1586.7999999970198,1669830739129,1587,HRV,HRV_0089,2022-11-30 17:54:30
91,"[{'imgObject': {}, 'id': 'corn cob', 'src': '/static/foodstim60/corn cob.jpg', 'key': 'u', 'origWidth': 411, 'origHeight': 411, 'width': 411, 'height': 411, 'widthPercent': 0.45, 'rescaleHeight': False, 'trialN': 91, 'loaded': True, 'loadedTime': 3580.2000000029802, 'positionName': 'LEFT', 'positionCoords': [280.2, 244.5], 'bid': 2.06}, {'imgObject': {}, 'id': 'bagel and cc', 'src': '/static/foodstim60/bagel and cc.jpg', 'key': 'i', 'origWidth': 410, 'origHeight': 410, 'width': 410, 'height': 410, 'widthPercent': 0.45, 'rescaleHeight': False, 'trialN': 91, 'loaded': True, 'loadedTime': 3487.5, 'positionName': 'RIGHT', 'positionCoords': [748.8, 245], 'bid': 2.12}]",154760.0,1669830739129,corn cob,bagel and cc,2.06,2.12,0.06000000000000005,corn cob,642.3000000119209,644,644.3000000119209,True,u,155907.80000001192,1147.800000011921,1669830740277,1148,HRV,HRV_0089,2022-11-30 17:54:30
92,"[{'imgObject': {}, 'id': 'luckycharms', 'src': '/static/foodstim60/luckycharms.jpg', 'key': 'u', 'origWidth': 410, 'origHeight': 409, 'width': 410, 'height': 409, 'widthPercent': 0.45, 'rescaleHeight': False, 'trialN': 92, 'loaded': True, 'loadedTime': 3584.300000011921, 'positionName': 'LEFT', 'positionCoords': [281.2, 245.5], 'bid': 2.31}, {'imgObject': {}, 'id': 'pear', 'src': '/static/foodstim60/pear.jpg', 'key': 'i', 'origWidth': 411, 'origHeight': 410, 'width': 411, 'height': 410, 'widthPercent': 0.45, 'rescaleHeight': False, 'trialN': 92, 'loaded': True, 'loadedTime': 3458.7000000029802, 'positionName': 'RIGHT', 'positionCoords': [748.8, 245], 'bid': 2.3000000000000003}]",155908.0,1669830740277,luckycharms,pear,2.31,2.3000000000000003,-0.009999999999999787,pear,178.40000000596046,180,180.0,True,i,156593.0,685.0,1669830740962,685,HRV,HRV_0089,2022-11-30 17:54:30
93,"[{'imgObject': {}, 'id': 'steak', 'src': '/static/foodstim60/steak.jpg', 'key': 'u', 'origWidth': 410, 'origHeight': 410, 'width': 410, 'height': 410, 'widthPercent': 0.45, 'rescaleHeight': False, 'trialN': 93, 'loaded': True, 'loadedTime': 3510, 'positionName': 'LEFT', 'positionCoords': [281.2, 245], 'bid': 5.0600000000000005}, {'imgObject': {}, 'id': 'corn cob', 'src': '/static/foodstim60/corn cob.jpg', 'key': 'i', 'origWidth': 411, 'origHeight': 411, 'width': 411, 'height': 411, 'widthPercent': 0.45, 'rescaleHeight': False, 'trialN': 93, 'loaded': True, 'loadedTime': 3580.2000000029802, 'positionName': 'RIGHT', 'positionCoords': [748.8, 244.5], 'bid': 2.06}]",156593.30000001192,1669830740962,steak,corn cob,5.0600000000000005,2.06,-3.0000000000000004,steak,889.3999999910593,892,891.3999999910593,True,u,157986.5,1393.199999988079,1669830742355,1393,HRV,HRV_0089,2022-11-30 17:54:30
94,"[{'imgObject': {}, 'id': 'sweetpotato', 'src': '/static/foodstim60/sweetpotato.jpg', 'key': 'u', 'origWidth': 410, 'origHeight': 410, 'width': 410, 'height': 410, 'widthPercent': 0.45, 'rescaleHeight': False, 'trialN': 94, 'loaded': True, 'loadedTime': 3499.1000000089407, 'positionName': 'LEFT', 'positionCoords': [281.2, 245], 'bid': 2.56}, {'imgObject': {}, 'id': 'hashbrowns', 'src': '/static/foodstim60/hashbrowns.jpg', 'key': 'i', 'origWidth': 411, 'origHeight': 410, 'width': 411, 'height': 410, 'widthPercent': 0.45, 'rescaleHeight': False, 'trialN': 94, 'loaded': True, 'loadedTime': 3452.2000000029802, 'positionName': 'RIGHT', 'positionCoords': [748.8, 245], 'bid': 2.04}]",157986.80000001192,1669830742356,sweetpotato,hashbrowns,2.56,2.04,-0.52,sweetpotato,734.2999999970198,735,735.5,True,u,159227.10000000894,1240.2999999970198,1669830743596,1240,HRV,HRV_0089,2022-11-30 17:54:30
95,"[{'imgObject': {}, 'id': 'shreddedwheatwithmilk', 'src': '/static/foodstim60/shreddedwheatwithmilk.jpg', 'key': 'u', 'origWidth': 410, 'origHeight': 410, 'width': 410, 'height': 410, 'widthPercent': 0.45, 'rescaleHeight': False, 'trialN': 95, 'loaded': True, 'loadedTime': 3583.6000000089407, 'positionName': 'LEFT', 'positionCoords': [281.2, 245], 'bid': 1.91}, {'imgObject': {}, 'id': 'tacos', 'src': '/static/foodstim60/tacos.jpg', 'key': 'i', 'origWidth': 411, 'origHeight': 411, 'width': 411, 'height': 411, 'widthPercent': 0.45, 'rescaleHeight': False, 'trialN': 95, 'loaded': True, 'loadedTime': 3524, 'positionName': 'RIGHT', 'positionCoords': [748.8, 244.5], 'bid': 1.3}]",159227.5,1669830743596,shreddedwheatwithmilk,tacos,1.91,1.3,-0.6099999999999999,shreddedwheatwithmilk,848.1000000089407,850,850.1000000089407,True,u,160582.60000000894,1355.1000000089407,1669830744952,1356,HRV,HRV_0089,2022-11-30 17:54:30
96,"[{'imgObject': {}, 'id': 'eggs', 'src': '/static/foodstim60/eggs.jpg', 'key': 'u', 'origWidth': 409, 'origHeight': 409, 'width': 409, 'height': 409, 'widthPercent': 0.45, 'rescaleHeight': False, 'trialN': 96, 'loaded': True, 'loadedTime': 3585.1000000089407, 'positionName': 'LEFT', 'positionCoords': [282.2, 245.5], 'bid': 3.13}, {'imgObject': {}, 'id': 'salad w chicken', 'src': '/static/foodstim60/salad w chicken.jpg', 'key': 'i', 'origWidth': 411, 'origHeight': 411, 'width': 411, 'height': 411, 'widthPercent': 0.45, 'rescaleHeight': False, 'trialN': 96, 'loaded': True, 'loadedTime': 3581.9000000059605, 'positionName': 'RIGHT', 'positionCoords': [748.8, 244.5], 'bid': 3.54}]",160582.90000000596,1669830744952,eggs,salad w chicken,3.13,3.54,0.41000000000000014,salad w chicken,756.5999999940395,758,758.5,True,i,161846.40000000596,1263.5,1669830746215,1263,HRV,HRV_0089,2022-11-30 17:54:30
97,"[{'imgObject': {}, 'id': 'hotdog w must', 'src': '/static/foodstim60/hotdog w must.jpg', 'key': 'u', 'origWidth': 409, 'origHeight': 409, 'width': 409, 'height': 409, 'widthPercent': 0.45, 'rescaleHeight': False, 'trialN': 97, 'loaded': True, 'loadedTime': 3554.6000000089407, 'positionName': 'LEFT', 'positionCoords': [282.2, 245.5], 'bid': 0.44}, {'imgObject': {}, 'id': 'salmon', 'src': '/static/foodstim60/salmon.jpg', 'key': 'i', 'origWidth': 410, 'origHeight': 409, 'width': 410, 'height': 409, 'widthPercent': 0.45, 'rescaleHeight': False, 'trialN': 97, 'loaded': True, 'loadedTime': 3470.800000011921, 'positionName': 'RIGHT', 'positionCoords': [748.8, 245.5], 'bid': 0.13}]",161846.70000000298,1669830746216,hotdog w must,salmon,0.44,0.13,-0.31,hotdog w must,665.7999999970198,667,667.7999999970198,True,u,163018.10000000894,1171.4000000059605,1669830747387,1171,HRV,HRV_0089,2022-11-30 17:54:30
98,"[{'imgObject': {}, 'id': 'cocktailshrimp', 'src': '/static/foodstim60/cocktailshrimp.jpg', 'key': 'u', 'origWidth': 410, 'origHeight': 410, 'width': 410, 'height': 410, 'widthPercent': 0.45, 'rescaleHeight': False, 'trialN': 98, 'loaded': True, 'loadedTime': 3509.2000000029802, 'positionName': 'LEFT', 'positionCoords': [281.2, 245], 'bid': 1.88}, {'imgObject': {}, 'id': 'shreddedwheatwithmilk', 'src': '/static/foodstim60/shreddedwheatwithmilk.jpg', 'key': 'i', 'origWidth': 410, 'origHeight': 410, 'width': 410, 'height': 410, 'widthPercent': 0.45, 'rescaleHeight': False, 'trialN': 98, 'loaded': True, 'loadedTime': 3583.7000000029802, 'positionName': 'RIGHT', 'positionCoords': [748.8, 245], 'bid': 1.91}]",163018.40000000596,1669830747387,cocktailshrimp,shreddedwheatwithmilk,1.88,1.91,0.030000000000000027,shreddedwheatwithmilk,947.9000000059605,952,951.5,True,i,164474.90000000596,1456.5,1669830748844,1457,HRV,HRV_0089,2022-11-30 17:54:30
99,"[{'imgObject': {}, 'id': 'raspberries', 'src': '/static/foodstim60/raspberries.jpg', 'key': 'u', 'origWidth': 411, 'origHeight': 411, 'width': 411, 'height': 411, 'widthPercent': 0.45, 'rescaleHeight': False, 'trialN': 99, 'loaded': True, 'loadedTime': 3583, 'positionName': 'LEFT', 'positionCoords': [280.2, 244.5], 'bid': 0.97}, {'imgObject': {}, 'id': 'cherries', 'src': '/static/foodstim60/cherries.jpg', 'key': 'i', 'origWidth': 410, 'origHeight': 411, 'width': 410, 'height': 411, 'widthPercent': 0.45, 'rescaleHeight': False, 'trialN': 99, 'loaded': True, 'loadedTime': 3565.4000000059605, 'positionName': 'RIGHT', 'positionCoords': [748.8, 244.5], 'bid': 3.23}]",164475.10000000894,1669830748844,raspberries,cherries,0.97,3.23,2.26,cherries,819.2999999970198,822,821.7999999970198,True,i,165801.90000000596,1326.7999999970198,1669830750171,1327,HRV,HRV_0089,2022-11-30 17:54:30
100,"[{'imgObject': {}, 'id': 'veggieswithdip', 'src': '/static/foodstim60/veggieswithdip.jpg', 'key': 'u', 'origWidth': 409, 'origHeight': 409, 'width': 409, 'height': 409, 'widthPercent': 0.45, 'rescaleHeight': False, 'trialN': 100, 'loaded': True, 'loadedTime': 3461.4000000059605, 'positionName': 'LEFT', 'positionCoords': [282.2, 245.5], 'bid': 4.01}, {'imgObject': {}, 'id': 'froot loops w milk', 'src': '/static/foodstim60/froot loops w milk.jpg', 'key': 'i', 'origWidth': 410, 'origHeight': 410, 'width': 410, 'height': 410, 'widthPercent': 0.45, 'rescaleHeight': False, 'trialN': 100, 'loaded': True, 'loadedTime': 3543.300000011921, 'positionName': 'RIGHT', 'positionCoords': [748.8, 245], 'bid': 2.36}]",165802.20000000298,1669830750171,veggieswithdip,froot loops w milk,4.01,2.36,-1.65,veggieswithdip,775.2999999970198,777,777.5,True,u,167084.5,1282.2999999970198,1669830751453,1282,HRV,HRV_0089,2022-11-30 17:54:30
101,"[{'imgObject': {}, 'id': 'grilled chicken strips', 'src': '/static/foodstim60/grilled chicken strips.jpg', 'key': 'u', 'origWidth': 410, 'origHeight': 411, 'width': 410, 'height': 411, 'widthPercent': 0.45, 'rescaleHeight': False, 'trialN': 101, 'loaded': True, 'loadedTime': 3506.7000000029802, 'positionName': 'LEFT', 'positionCoords': [281.2, 244.5], 'bid': 0.8}, {'imgObject': {}, 'id': 'cantaloupe', 'src': '/static/foodstim60/cantaloupe.jpg', 'key': 'i', 'origWidth': 409, 'origHeight': 409, 'width': 409, 'height': 409, 'widthPercent': 0.45, 'rescaleHeight': False, 'trialN': 101, 'loaded': True, 'loadedTime': 3566, 'positionName': 'RIGHT', 'positionCoords': [748.8, 245.5], 'bid': 0.22}]",167084.90000000596,1669830751454,grilled chicken strips,cantaloupe,0.8,0.22,-0.5800000000000001,grilled chicken strips,1284.7000000029802,1286,1286.2000000029802,True,u,168871.70000000298,1786.7999999970198,1669830753240,1786,HRV,HRV_0089,2022-11-30 17:54:30
102,"[{'imgObject': {}, 'id': 'mashed potato', 'src': '/static/foodstim60/mashed potato.jpg', 'key': 'u', 'origWidth': 409, 'origHeight': 409, 'width': 409, 'height': 409, 'widthPercent': 0.45, 'rescaleHeight': False, 'trialN': 102, 'loaded': True, 'loadedTime': 3502.1000000089407, 'positionName': 'LEFT', 'positionCoords': [282.2, 245.5], 'bid': 2.68}, {'imgObject': {}, 'id': 'burrito', 'src': '/static/foodstim60/burrito.jpg', 'key': 'i', 'origWidth': 410, 'origHeight': 410, 'width': 410, 'height': 410, 'widthPercent': 0.45, 'rescaleHeight': False, 'trialN': 102, 'loaded': True, 'loadedTime': 3580.800000011921, 'positionName': 'RIGHT', 'positionCoords': [748.8, 245], 'bid': 0.22}]",168871.90000000596,1669830753241,mashed potato,burrito,2.68,0.22,-2.46,mashed potato,1117.5,1119,1119.5,True,u,170492.40000000596,1620.5,1669830754861,1620,HRV,HRV_0089,2022-11-30 17:54:30
103,"[{'imgObject': {}, 'id': 'grilled chicken strips', 'src': '/static/foodstim60/grilled chicken strips.jpg', 'key': 'u', 'origWidth': 410, 'origHeight': 411, 'width': 410, 'height': 411, 'widthPercent': 0.45, 'rescaleHeight': False, 'trialN': 103, 'loaded': True, 'loadedTime': 3506.1000000089407, 'positionName': 'LEFT', 'positionCoords': [281.2, 244.5], 'bid': 0.8}, {'imgObject': {}, 'id': 'hotdog w must', 'src': '/static/foodstim60/hotdog w must.jpg', 'key': 'i', 'origWidth': 409, 'origHeight': 409, 'width': 409, 'height': 409, 'widthPercent': 0.45, 'rescaleHeight': False, 'trialN': 103, 'loaded': True, 'loadedTime': 3554.7000000029802, 'positionName': 'RIGHT', 'positionCoords': [748.8, 245.5], 'bid': 0.44}]",170492.80000001192,1669830754861,grilled chicken strips,hotdog w must,0.8,0.44,-0.36000000000000004,grilled chicken strips,1214.699999988079,1217,1217.0,True,u,172214.80000001192,1722.0,1669830756583,1722,HRV,HRV_0089,2022-11-30 17:54:30
104,"[{'imgObject': {}, 'id': 'chicken nuggets2', 'src': '/static/foodstim60/chicken nuggets2.jpg', 'key': 'u', 'origWidth': 410, 'origHeight': 409, 'width': 410, 'height': 409, 'widthPercent': 0.45, 'rescaleHeight': False, 'trialN': 104, 'loaded': True, 'loadedTime': 3506, 'positionName': 'LEFT', 'positionCoords': [281.2, 245.5], 'bid': 2.19}, {'imgObject': {}, 'id': 'eggs', 'src': '/static/foodstim60/eggs.jpg', 'key': 'i', 'origWidth': 409, 'origHeight': 409, 'width': 409, 'height': 409, 'widthPercent': 0.45, 'rescaleHeight': False, 'trialN': 104, 'loaded': True, 'loadedTime': 3585.1000000089407, 'positionName': 'RIGHT', 'positionCoords': [748.8, 245.5], 'bid': 3.13}]",172215.20000000298,1669830756584,chicken nuggets2,eggs,2.19,3.13,0.94,chicken nuggets2,657.2999999970198,659,659.6000000089407,True,u,173379.90000000596,1164.7000000029802,1669830757748,1164,HRV,HRV_0089,2022-11-30 17:54:30
105,"[{'imgObject': {}, 'id': 'cantaloupe', 'src': '/static/foodstim60/cantaloupe.jpg', 'key': 'u', 'origWidth': 409, 'origHeight': 409, 'width': 409, 'height': 409, 'widthPercent': 0.45, 'rescaleHeight': False, 'trialN': 105, 'loaded': True, 'loadedTime': 3573.6000000089407, 'positionName': 'LEFT', 'positionCoords': [282.2, 245.5], 'bid': 0.22}, {'imgObject': {}, 'id': 'burrito', 'src': '/static/foodstim60/burrito.jpg', 'key': 'i', 'origWidth': 410, 'origHeight': 410, 'width': 410, 'height': 410, 'widthPercent': 0.45, 'rescaleHeight': False, 'trialN': 105, 'loaded': True, 'loadedTime': 3580.9000000059605, 'positionName': 'RIGHT', 'positionCoords': [748.8, 245], 'bid': 0.22}]",173380.20000000298,1669830757749,cantaloupe,burrito,0.22,0.22,0.0,cantaloupe,848.1000000089407,851,851.5,True,u,174736.5,1356.2999999970198,1669830759105,1356,HRV,HRV_0089,2022-11-30 17:54:30
106,"[{'imgObject': {}, 'id': 'raisin bran w milk', 'src': '/static/foodstim60/raisin bran w milk.jpg', 'key': 'u', 'origWidth': 411, 'origHeight': 411, 'width': 411, 'height': 411, 'widthPercent': 0.45, 'rescaleHeight': False, 'trialN': 106, 'loaded': True, 'loadedTime': 3466.9000000059605, 'positionName': 'LEFT', 'positionCoords': [280.2, 244.5], 'bid': 2.81}, {'imgObject': {}, 'id': 'turkeysandwich', 'src': '/static/foodstim60/turkeysandwich.jpg', 'key': 'i', 'origWidth': 409, 'origHeight': 409, 'width': 409, 'height': 409, 'widthPercent': 0.45, 'rescaleHeight': False, 'trialN': 106, 'loaded': True, 'loadedTime': 3503.6000000089407, 'positionName': 'RIGHT', 'positionCoords': [748.8, 245.5], 'bid': 3.11}]",174736.70000000298,1669830759105,raisin bran w milk,turkeysandwich,2.81,3.11,0.2999999999999998,turkeysandwich,924.7999999970198,927,926.9000000059605,True,i,176164.20000000298,1427.5,1669830760533,1428,HRV,HRV_0089,2022-11-30 17:54:30
107,"[{'imgObject': {}, 'id': 'salmon', 'src': '/static/foodstim60/salmon.jpg', 'key': 'u', 'origWidth': 410, 'origHeight': 409, 'width': 410, 'height': 409, 'widthPercent': 0.45, 'rescaleHeight': False, 'trialN': 107, 'loaded': True, 'loadedTime': 3470.300000011921, 'positionName': 'LEFT', 'positionCoords': [281.2, 245.5], 'bid': 0.13}, {'imgObject': {}, 'id': 'eggsalad', 'src': '/static/foodstim60/eggsalad.jpg', 'key': 'i', 'origWidth': 410, 'origHeight': 409, 'width': 410, 'height': 409, 'widthPercent': 0.45, 'rescaleHeight': False, 'trialN': 107, 'loaded': True, 'loadedTime': 3497.800000011921, 'positionName': 'RIGHT', 'positionCoords': [748.8, 245.5], 'bid': 0.98}]",176164.60000000894,1669830760533,salmon,eggsalad,0.13,0.98,0.85,eggsalad,961.7999999970198,964,964.2999999970198,True,i,177633.60000000894,1469.0,1669830762002,1469,HRV,HRV_0089,2022-11-30 17:54:30
108,"[{'imgObject': {}, 'id': 'Tribe humus pita', 'src': '/static/foodstim60/Tribe humus pita.jpg', 'key': 'u', 'origWidth': 411, 'origHeight': 411, 'width': 411, 'height': 411, 'widthPercent': 0.45, 'rescaleHeight': False, 'trialN': 108, 'loaded': True, 'loadedTime': 3516.300000011921, 'positionName': 'LEFT', 'positionCoords': [280.2, 244.5], 'bid': 5.8100000000000005}, {'imgObject': {}, 'id': 'cherries', 'src': '/static/foodstim60/cherries.jpg', 'key': 'i', 'origWidth': 410, 'origHeight': 411, 'width': 410, 'height': 411, 'widthPercent': 0.45, 'rescaleHeight': False, 'trialN': 108, 'loaded': True, 'loadedTime': 3565.6000000089407, 'positionName': 'RIGHT', 'positionCoords': [748.8, 244.5], 'bid': 3.23}]",177634.0,1669830762002,Tribe humus pita,cherries,5.8100000000000005,3.23,-2.5800000000000005,Tribe humus pita,850.6000000089407,853,852.7000000029802,True,u,178991.5,1357.5,1669830763360,1358,HRV,HRV_0089,2022-11-30 17:54:30
