success,trial_type,trial_index,time_elapsed,internal_node_id,Block,TrialNumber,TrialTime,trialTimeDiff,FPS_avg,FPS_med,FPS_mode,TrialDur,winResizeTime,rt,block,button_pressed,missTrial,missTrialMsg,MotCoh,MotDir,ColCoh,Color,ChoiceKey,Choice,Accuracy,RT,nFrames,FPS,PPD,onsetDelay,fullScreenExitTime,canvCenter,TrialType,Score,BlockTrial,stimulus,button_labels,exp,subjectId,date
True,fullscreen,0,7274,0.0-0.0,0.0,1.0,,,,,,,,,,,,,,,,,,,,,,,,,,,,,,,,HRV,HRV_0089,2022-11-30 18:48:05
,wl-check-fps,1,12268,0.0-1.0,0.0,2.0,"[7576.8, 7580.4, 7598.2, 7613.5, 7631.2, 7648.2, 7664.9, 7680.5, 7698, 7714.7, 7731.3, 7747.8, 7764.9, 7780.8, 7798, 7815.2, 7831.6, 7848.5, 7864, 7881.2, 7897.4, 7914.8, 7931.1, 7947.1, 7963.9, 7981.5, 7998, 8014.1, 8031.6, 8047.8, 8064.6, 8081.8, 8097.8, 8115.2, 8131.2, 8148.4, 8164.4, 8182, 8198.2, 8215.5, 8231.7, 8248, 8264.7, 8280.9, 8297.9, 8314.3, 8332, 8347.5, 8365.3, 8380.6, 8398.6, 8414.3, 8430.6, 8447.7, 8465.1, 8480.9, 8497.9, 8515.1, 8530.9, 8548, 8565.8, 8582, 8598.7, 8615, 8631.6, 8648.4, 8671, 8681.2, 8698.4, 8715.4, 8732.3, 8747.5, 8765.2, 8781.6, 8798.5, 8814.3, 8831.3, 8848.2, 8863.9, 8881.8, 8898.5, 8914.6, 8931.3, 8948, 8964, 8982.1, 8998.5, 9015, 9031.3, 9048.2, 9065.5, 9081.5, 9098.4, 9115.3, 9130.9, 9148.1, 9164.9, 9181.9, 9197.9, 9215.1, 9231.6, 9248.2, 9265.2, 9281.2, 9297, 9314.9, 9331.3, 9347.3, 9363.8, 9380.5, 9397.7, 9415, 9430.8, 9448.2, 9463.5, 9480.4, 9498.1, 9513.8, 9530.3, 9547.5, 9564.4, 9581.5, 9598, 9614.9, 9631.7, 9648.3, 9665.2, 9680.6, 9697.3, 9714.8, 9730.3, 9747.7, 9764.5, 9780.5, 9798.3, 9814.6, 9832.1, 9847.9, 9864.7, 9881.4, 9897.6, 9913.9, 9930.3, 9948, 9964.5, 9981.9, 9998, 10015, 10032.2, 10048.7, 10065, 10081, 10098.4, 10114.9, 10130.9, 10148.5, 10164.3, 10181.7, 10198, 10214.2, 10231.9, 10247.7, 10265.2, 10281.7, 10298.1, 10314.9, 10331.2, 10347.9, 10365, 10381.8, 10397.8, 10414.6, 10431.5, 10448.6, 10463.9, 10481.1, 10497.3, 10514.5, 10531.1, 10548.2, 10564.5, 10582.1, 10597.9, 10614, 10632.1, 10647.8, 10664.7, 10681.7, 10698.3, 10715, 10731.7, 10748.2, 10764.7, 10781.2, 10797.8, 10815, 10830.9, 10847.2, 10865, 10880.4, 10898.1, 10915, 10930.3, 10948.5, 10964.5, 10980.6, 10999, 11015.3, 11031.5, 11048.7, 11064.8, 11081.9, 11098.5, 11115.8, 11131.9, 11148.5, 11165.5, 11181.2, 11198.9, 11215.6, 11231.2, 11247.7, 11264.1, 11282, 11297.7, 11314.4, 11331.5, 11347.4, 11365.5, 11381.8, 11398.4, 11414.7, 11431.8, 11448.6, 11464.1, 11480.7, 11498, 11515.4, 11531.5, 11547.3, 11564.1, 11581.4, 11599, 11613.9, 11631.4, 11647.3, 11665.4, 11681.2, 11697.9, 11715.4, 11731.2, 11748.6, 11765.2, 11781.2, 11798.2, 11814, 11830.9, 11847.8, 11865.3, 11881.4, 11897.6, 11915.3, 11930.9, 11948, 11964.5, 11980.7, 11998.2, 12014, 12031.2, 12047.4, 12064, 12080.7, 12098, 12114.1, 12131.8, 12148, 12164.5, 12181.2, 12197.4, 12215.4, 12230.6, 12247.4, 12264.8, 12281.2, 12298.3, 12314.4, 12331, 12348.7, 12364.9, 12382.2, 12397.8, 12414.6, 12430.4, 12448.8, 12464.5, 12481.7, 12497.9, 12515, 12531.1, 12548.2]","[1.1, 3.6, 17.8, 15.3, 17.7, 17, 16.7, 15.6, 17.5, 16.7, 16.6, 16.5, 17.1, 15.9, 17.2, 17.2, 16.4, 16.9, 15.5, 17.2, 16.2, 17.4, 16.3, 16, 16.8, 17.6, 16.5, 16.1, 17.5, 16.2, 16.8, 17.2, 16, 17.4, 16, 17.2, 16, 17.6, 16.2, 17.3, 16.2, 16.3, 16.7, 16.2, 17, 16.4, 17.7, 15.5, 17.8, 15.3, 18, 15.7, 16.3, 17.1, 17.4, 15.8, 17, 17.2, 15.8, 17.1, 17.8, 16.2, 16.7, 16.3, 16.6, 16.8, 22.6, 10.2, 17.2, 17, 16.9, 15.2, 17.7, 16.4, 16.9, 15.8, 17, 16.9, 15.7, 17.9, 16.7, 16.1, 16.7, 16.7, 16, 18.1, 16.4, 16.5, 16.3, 16.9, 17.3, 16, 16.9, 16.9, 15.6, 17.2, 16.8, 17, 16, 17.2, 16.5, 16.6, 17, 16, 15.8, 17.9, 16.4, 16, 16.5, 16.7, 17.2, 17.3, 15.8, 17.4, 15.3, 16.9, 17.7, 15.7, 16.5, 17.2, 16.9, 17.1, 16.5, 16.9, 16.8, 16.6, 16.9, 15.4, 16.7, 17.5, 15.5, 17.4, 16.8, 16, 17.8, 16.3, 17.5, 15.8, 16.8, 16.7, 16.2, 16.3, 16.4, 17.7, 16.5, 17.4, 16.1, 17, 17.2, 16.5, 16.3, 16, 17.4, 16.5, 16, 17.6, 15.8, 17.4, 16.3, 16.2, 17.7, 15.8, 17.5, 16.5, 16.4, 16.8, 16.3, 16.7, 17.1, 16.8, 16, 16.8, 16.9, 17.1, 15.3, 17.2, 16.2, 17.2, 16.6, 17.1, 16.3, 17.6, 15.8, 16.1, 18.1, 15.7, 16.9, 17, 16.6, 16.7, 16.7, 16.5, 16.5, 16.5, 16.6, 17.2, 15.9, 16.3, 17.8, 15.4, 17.7, 16.9, 15.3, 18.2, 16, 16.1, 18.4, 16.3, 16.2, 17.2, 16.1, 17.1, 16.6, 17.3, 16.1, 16.6, 17, 15.7, 17.7, 16.7, 15.6, 16.5, 16.4, 17.9, 15.7, 16.7, 17.1, 15.9, 18.1, 16.3, 16.6, 16.3, 17.1, 16.8, 15.5, 16.6, 17.3, 17.4, 16.1, 15.8, 16.8, 17.3, 17.6, 14.9, 17.5, 15.9, 18.1, 15.8, 16.7, 17.5, 15.8, 17.4, 16.6, 16, 17, 15.8, 16.9, 16.9, 17.5, 16.1, 16.2, 17.7, 15.6, 17.1, 16.5, 16.2, 17.5, 15.8, 17.2, 16.2, 16.6, 16.7, 17.3, 16.1, 17.7, 16.2, 16.5, 16.7, 16.2, 18, 15.2, 16.8, 17.4, 16.4, 17.1, 16.1, 16.6, 17.7, 16.2, 17.3, 15.6, 16.8, 15.8, 18.4, 15.7, 17.2, 16.2, 17.1, 16.1, 17.1]",60.0,61.0,59.0,4988.7,[],,,,,,,,,,,,,,,,,,,,,,,,,HRV,HRV_0089,2022-11-30 18:48:05
,wl-html-keyboard-response,2,2663776,0.0-2.0-0.0,0.0,2.0,,,,,,,,2649566.700000003,0.0,0,True,undefinedblurEvent ,,,,,,,,,,,,,,,,,,,,HRV,HRV_0089,2022-11-30 18:48:05
,wl-rdm,3,2671084,0.0-3.0-0.0,0.0,3.0,,,,,,,[],,,,False,,0.0,0.0,87.9,0.0,u,0.0,True,1702.9999999850988,103.0,59.0,40.0,3000.0,[],"[720, 450]",ColorTask_Demo,,,,,HRV,HRV_0089,2022-11-30 18:48:05
,wl-rdm,4,2676417,0.0-3.0-1.0,0.0,4.0,,,,,,,[],,,,False,,0.0,0.0,87.9,1.0,i,1.0,True,1255.8999999910593,76.0,59.0,40.0,2000.0,[],"[720, 450]",ColorTask_Demo,,,,,HRV,HRV_0089,2022-11-30 18:48:05
,wl-html-keyboard-response,5,2681626,0.0-3.0-2.0,0.0,5.0,,,,,,,,3200.2999999970198,0.0,1,,,,,,,,,,,,,,,,,,,,,,HRV,HRV_0089,2022-11-30 18:48:05
,wl-html-keyboard-response,6,2689551,0.0-4.0-0.0,0.0,6.0,,,,,,,,5920.899999991059,0.0,0,,,,,,,,,,,,,,,,,,,,,,HRV,HRV_0089,2022-11-30 18:48:05
,wl-html-keyboard-response,7,2704559,0.0-5.0-0.0,0.0,7.0,,,,,,,,12999.59999999404,0.0,0,,,,,,,,,,,,,,,,,,,,,,HRV,HRV_0089,2022-11-30 18:48:05
,wl-rdm,8,2708967,0.0-6.0-0.0,0.0,7.0,,,,,,,[],,,,True,RT_timeout ,,,62.5,1.0,i,,,3247.9000000059605,176.0,59.0,40.0,324.0766394746421,[],"[720, 450]",ColorTask,-1.0,1.0,,,HRV,HRV_0089,2022-11-30 18:48:05
,wl-rdm,9,2711384,0.0-6.1-0.1,0.0,8.0,,,,,,,[],,,,False,,,,62.5,0.0,u,0.0,True,1103.9000000059605,67.0,59.0,40.0,218.13990594413843,[],"[720, 450]",ColorTask,0.0,2.0,,,HRV,HRV_0089,2022-11-30 18:48:05
,wl-rdm,10,2713934,0.0-6.2-0.2,0.0,9.0,,,,,,,[],,,,False,,,,50.0,1.0,i,1.0,True,1123.8999999910593,68.0,59.0,40.0,341.6325519810267,[],"[720, 450]",ColorTask,1.0,3.0,,,HRV,HRV_0089,2022-11-30 18:48:05
,wl-rdm,11,2716617,0.0-6.3-0.3,0.0,10.0,,,,,,,[],,,,False,,,,73.6,1.0,i,1.0,True,1302.4000000059605,79.0,59.0,40.0,291.61683753528365,[],"[720, 450]",ColorTask,2.0,4.0,,,HRV,HRV_0089,2022-11-30 18:48:05
,wl-rdm,12,2719250,0.0-6.4-0.4,0.0,11.0,,,,,,,[],,,,False,,,,73.6,1.0,i,1.0,True,1229.0,74.0,59.0,40.0,335.9758884223045,[],"[720, 450]",ColorTask,3.0,5.0,,,HRV,HRV_0089,2022-11-30 18:48:05
,wl-rdm,13,2721901,0.0-6.5-0.5,0.0,12.0,,,,,,,[],,,,False,,,,56.4,1.0,u,0.0,False,1339.0,81.0,59.0,40.0,232.80062588566244,[],"[720, 450]",ColorTask,2.0,6.0,,,HRV,HRV_0089,2022-11-30 18:48:05
,wl-rdm,14,2723951,0.0-6.6-0.6,0.0,13.0,,,,,,,[],,,,False,,,,73.6,1.0,i,1.0,True,688.8000000119209,42.0,59.0,40.0,296.3271068016138,[],"[720, 450]",ColorTask,3.0,7.0,,,HRV,HRV_0089,2022-11-30 18:48:05
,wl-rdm,15,2726133,0.0-6.7-0.7,0.0,14.0,,,,,,,[],,,,False,,,,56.4,0.0,u,0.0,True,886.4999999850988,54.0,59.0,40.0,208.9217932707384,[],"[720, 450]",ColorTask,4.0,8.0,,,HRV,HRV_0089,2022-11-30 18:48:05
,wl-rdm,16,2728551,0.0-6.8-0.8,0.0,15.0,,,,,,,[],,,,False,,,,53.2,1.0,i,1.0,True,1104.0,67.0,59.0,40.0,229.4479700070315,[],"[720, 450]",ColorTask,5.0,9.0,,,HRV,HRV_0089,2022-11-30 18:48:05
,wl-rdm,17,2730518,0.0-6.9-0.9,0.0,16.0,,,,,,,[],,,,False,,,,73.6,0.0,u,0.0,True,681.6000000089407,41.0,59.0,40.0,233.62772740864727,[],"[720, 450]",ColorTask,6.0,10.0,,,HRV,HRV_0089,2022-11-30 18:48:05
,wl-rdm,18,2732518,0.0-6.10-0.10,0.0,17.0,,,,,,,[],,,,False,,,,87.9,1.0,i,1.0,True,633.2999999970198,38.0,59.0,40.0,283.66010150857943,[],"[720, 450]",ColorTask,7.0,11.0,,,HRV,HRV_0089,2022-11-30 18:48:05
,wl-rdm,19,2734534,0.0-6.11-0.11,0.0,18.0,,,,,,,[],,,,False,,,,87.9,0.0,u,0.0,True,555.5,34.0,59.0,40.0,396.3165010888746,[],"[720, 450]",ColorTask,8.0,12.0,,,HRV,HRV_0089,2022-11-30 18:48:05
,wl-rdm,20,2737151,0.0-6.12-0.12,0.0,19.0,,,,,,,[],,,,False,,,,53.2,1.0,i,1.0,True,1163.2999999970198,70.0,59.0,40.0,384.28105925456464,[],"[720, 450]",ColorTask,9.0,13.0,,,HRV,HRV_0089,2022-11-30 18:48:05
,wl-rdm,21,2739667,0.0-6.13-0.13,0.0,20.0,,,,,,,[],,,,False,,,,62.5,1.0,i,1.0,True,1103.7000000029802,67.0,59.0,40.0,338.563953082439,[],"[720, 450]",ColorTask,10.0,14.0,,,HRV,HRV_0089,2022-11-30 18:48:05
,wl-rdm,22,2741751,0.0-6.14-0.14,0.0,21.0,,,,,,,[],,,,False,,,,73.6,0.0,u,0.0,True,654.6999999880791,40.0,59.0,40.0,347.4456734055333,[],"[720, 450]",ColorTask,11.0,15.0,,,HRV,HRV_0089,2022-11-30 18:48:05
,wl-rdm,23,2744128,0.0-6.15-0.15,0.0,22.0,,,,,,,[],,,,False,,,,56.4,0.0,u,0.0,True,1088.4999999850988,66.0,59.0,40.0,205.97642753202126,[],"[720, 450]",ColorTask,12.0,16.0,,,HRV,HRV_0089,2022-11-30 18:48:05
,wl-rdm,24,2746384,0.0-6.16-0.16,0.0,23.0,,,,,,,[],,,,False,,,,73.6,0.0,i,1.0,False,859.2999999970198,52.0,59.0,40.0,327.63190456458045,[],"[720, 450]",ColorTask,11.0,17.0,,,HRV,HRV_0089,2022-11-30 18:48:05
,wl-rdm,25,2748518,0.0-6.17-0.17,0.0,24.0,,,,,,,[],,,,False,,,,53.2,0.0,i,1.0,False,720.9999999850988,44.0,59.0,40.0,316.3812551433832,[],"[720, 450]",ColorTask,10.0,18.0,,,HRV,HRV_0089,2022-11-30 18:48:05
,wl-rdm,26,2751101,0.0-6.18-0.18,0.0,25.0,,,,,,,[],,,,False,,,,56.4,0.0,i,1.0,False,1255.6000000089407,76.0,59.0,40.0,255.3812648844361,[],"[720, 450]",ColorTask,9.0,19.0,,,HRV,HRV_0089,2022-11-30 18:48:05
,wl-rdm,27,2753167,0.0-6.19-0.19,0.0,26.0,,,,,,,[],,,,False,,,,73.6,1.0,i,1.0,True,731.5999999940395,44.0,59.0,40.0,255.6096777034793,[],"[720, 450]",ColorTask,10.0,20.0,,,HRV,HRV_0089,2022-11-30 18:48:05
,wl-rdm,28,2755334,0.0-6.20-0.20,0.0,27.0,,,,,,,[],,,,False,,,,53.2,0.0,u,0.0,True,804.6999999880791,49.0,59.0,40.0,271.9419722654625,[],"[720, 450]",ColorTask,11.0,21.0,,,HRV,HRV_0089,2022-11-30 18:48:05
,wl-rdm,29,2757367,0.0-6.21-0.21,0.0,28.0,,,,,,,[],,,,False,,,,87.9,1.0,i,1.0,True,664.5000000149012,40.0,59.0,40.0,314.88841377174407,[],"[720, 450]",ColorTask,12.0,22.0,,,HRV,HRV_0089,2022-11-30 18:48:05
,wl-rdm,30,2760100,0.0-6.22-0.22,0.0,29.0,,,,,,,[],,,,False,,,,50.0,0.0,i,1.0,False,1305.7000000029802,79.0,59.0,40.0,358.346420307372,[],"[720, 450]",ColorTask,11.0,23.0,,,HRV,HRV_0089,2022-11-30 18:48:05
,wl-rdm,31,2762217,0.0-6.23-0.23,0.0,30.0,,,,,,,[],,,,False,,,,87.9,0.0,u,0.0,True,668.5,41.0,59.0,40.0,370.1637359892621,[],"[720, 450]",ColorTask,12.0,24.0,,,HRV,HRV_0089,2022-11-30 18:48:05
,wl-rdm,32,2764818,0.0-6.24-0.24,0.0,31.0,,,,,,,[],,,,False,,,,62.5,1.0,i,1.0,True,1141.0999999940395,69.0,59.0,40.0,380.1597020445358,[],"[720, 450]",ColorTask,13.0,25.0,,,HRV,HRV_0089,2022-11-30 18:48:05
,wl-rdm,33,2767134,0.0-6.25-0.25,0.0,32.0,,,,,,,[],,,,False,,,,56.4,0.0,u,0.0,True,909.2999999970198,55.0,59.0,40.0,333.7764061806759,[],"[720, 450]",ColorTask,14.0,26.0,,,HRV,HRV_0089,2022-11-30 18:48:05
,wl-rdm,34,2769550,0.0-6.26-0.26,0.0,33.0,,,,,,,[],,,,False,,,,56.4,0.0,i,1.0,False,1117.0000000149012,67.0,59.0,40.0,230.0499199927574,[],"[720, 450]",ColorTask,13.0,27.0,,,HRV,HRV_0089,2022-11-30 18:48:05
,wl-rdm,35,2771966,0.0-6.27-0.27,0.0,34.0,,,,,,,[],,,,False,,,,73.6,0.0,u,0.0,True,1105.7000000029802,67.0,59.0,40.0,219.4109731081352,[],"[720, 450]",ColorTask,14.0,28.0,,,HRV,HRV_0089,2022-11-30 18:48:05
,wl-rdm,36,2773985,0.0-6.28-0.28,0.0,35.0,,,,,,,[],,,,False,,,,87.9,0.0,u,0.0,True,671.2000000029802,41.0,59.0,40.0,279.78306290366544,[],"[720, 450]",ColorTask,15.0,29.0,,,HRV,HRV_0089,2022-11-30 18:48:05
,wl-rdm,37,2776367,0.0-6.29-0.29,0.0,36.0,,,,,,,[],,,,False,,,,56.4,0.0,u,0.0,True,1086.9000000059605,66.0,59.0,40.0,221.0376477639116,[],"[720, 450]",ColorTask,16.0,30.0,,,HRV,HRV_0089,2022-11-30 18:48:05
,wl-rdm,38,2778484,0.0-6.30-0.30,0.0,37.0,,,,,,,[],,,,False,,,,53.2,0.0,i,1.0,False,814.8999999910593,49.0,59.0,40.0,224.15052112742273,[],"[720, 450]",ColorTask,15.0,31.0,,,HRV,HRV_0089,2022-11-30 18:48:05
,wl-rdm,39,2780817,0.0-6.31-0.31,0.0,38.0,,,,,,,[],,,,False,,,,62.5,0.0,u,0.0,True,958.5999999940395,58.0,59.0,40.0,289.87866024998505,[],"[720, 450]",ColorTask,16.0,32.0,,,HRV,HRV_0089,2022-11-30 18:48:05
,wl-rdm,40,2783167,0.0-6.32-0.32,0.0,39.0,,,,,,,[],,,,False,,,,73.6,1.0,i,1.0,True,882.0999999940395,53.0,59.0,40.0,387.10894192877606,[],"[720, 450]",ColorTask,17.0,33.0,,,HRV,HRV_0089,2022-11-30 18:48:05
,wl-rdm,41,2786051,0.0-6.33-0.33,0.0,40.0,,,,,,,[],,,,False,,,,62.5,0.0,u,0.0,True,1564.9000000059605,94.0,59.0,40.0,246.7352679172173,[],"[720, 450]",ColorTask,18.0,34.0,,,HRV,HRV_0089,2022-11-30 18:48:05
,wl-rdm,42,2788801,0.0-6.34-0.34,0.0,41.0,,,,,,,[],,,,False,,,,53.2,0.0,i,1.0,False,1325.3999999910593,80.0,59.0,40.0,349.655196060682,[],"[720, 450]",ColorTask,17.0,35.0,,,HRV,HRV_0089,2022-11-30 18:48:05
,wl-rdm,43,2791101,0.0-6.35-0.35,0.0,42.0,,,,,,,[],,,,False,,,,73.6,0.0,u,0.0,True,935.7000000178814,57.0,59.0,40.0,268.10861131269735,[],"[720, 450]",ColorTask,18.0,36.0,,,HRV,HRV_0089,2022-11-30 18:48:05
,wl-rdm,44,2793017,0.0-6.36-0.36,0.0,43.0,,,,,,,[],,,,False,,,,87.9,0.0,u,0.0,True,521.9000000059605,32.0,59.0,40.0,314.01706183397687,[],"[720, 450]",ColorTask,19.0,37.0,,,HRV,HRV_0089,2022-11-30 18:48:05
,wl-rdm,45,2795701,0.0-6.37-0.37,0.0,44.0,,,,,,,[],,,,False,,,,56.4,1.0,i,1.0,True,1343.0000000149012,81.0,59.0,40.0,274.4378826272572,[],"[720, 450]",ColorTask,20.0,38.0,,,HRV,HRV_0089,2022-11-30 18:48:05
,wl-rdm,46,2797984,0.0-6.38-0.38,0.0,45.0,,,,,,,[],,,,False,,,,62.5,1.0,i,1.0,True,884.1000000089407,54.0,59.0,40.0,310.70532607628843,[],"[720, 450]",ColorTask,21.0,39.0,,,HRV,HRV_0089,2022-11-30 18:48:05
,wl-rdm,47,2799984,0.0-6.39-0.39,0.0,46.0,,,,,,,[],,,,False,,,,50.0,0.0,i,1.0,False,704.0999999940395,43.0,59.0,40.0,223.74291202851796,[],"[720, 450]",ColorTask,20.0,40.0,,,HRV,HRV_0089,2022-11-30 18:48:05
,wl-rdm,48,2802101,0.0-6.40-0.40,0.0,47.0,,,,,,,[],,,,False,,,,56.4,0.0,u,0.0,True,816.1000000089407,49.0,59.0,40.0,224.21469729047678,[],"[720, 450]",ColorTask,21.0,41.0,,,HRV,HRV_0089,2022-11-30 18:48:05
,wl-rdm,49,2805151,0.0-6.41-0.41,0.0,48.0,,,,,,,[],,,,False,,,,50.0,1.0,i,1.0,True,1777.7000000029802,107.0,59.0,40.0,202.58266344967805,[],"[720, 450]",ColorTask,22.0,42.0,,,HRV,HRV_0089,2022-11-30 18:48:05
,wl-rdm,50,2807618,0.0-6.42-0.42,0.0,49.0,,,,,,,[],,,,False,,,,50.0,1.0,i,1.0,True,1187.5,72.0,59.0,40.0,214.59967896077066,[],"[720, 450]",ColorTask,23.0,43.0,,,HRV,HRV_0089,2022-11-30 18:48:05
,wl-rdm,51,2809618,0.0-6.43-0.43,0.0,50.0,,,,,,,[],,,,False,,,,87.9,1.0,i,1.0,True,594.5,36.0,59.0,40.0,319.660933046178,[],"[720, 450]",ColorTask,24.0,44.0,,,HRV,HRV_0089,2022-11-30 18:48:05
,wl-rdm,52,2812017,0.0-6.44-0.44,0.0,51.0,,,,,,,[],,,,False,,,,53.2,0.0,u,0.0,True,937.9000000059605,57.0,59.0,40.0,385.0492825347961,[],"[720, 450]",ColorTask,25.0,45.0,,,HRV,HRV_0089,2022-11-30 18:48:05
,wl-rdm,53,2814451,0.0-6.45-0.45,0.0,52.0,,,,,,,[],,,,False,,,,53.2,1.0,i,1.0,True,1109.3999999910593,67.0,59.0,40.0,253.46170983376777,[],"[720, 450]",ColorTask,26.0,46.0,,,HRV,HRV_0089,2022-11-30 18:48:05
,wl-rdm,54,2816518,0.0-6.46-0.46,0.0,53.0,,,,,,,[],,,,False,,,,62.5,0.0,u,0.0,True,773.7000000029802,47.0,59.0,40.0,239.12462011792138,[],"[720, 450]",ColorTask,27.0,47.0,,,HRV,HRV_0089,2022-11-30 18:48:05
,wl-rdm,55,2819001,0.0-6.47-0.47,0.0,54.0,,,,,,,[],,,,False,,,,53.2,1.0,i,1.0,True,1054.300000011921,64.0,59.0,40.0,342.9582681213129,[],"[720, 450]",ColorTask,28.0,48.0,,,HRV,HRV_0089,2022-11-30 18:48:05
,wl-rdm,56,2821034,0.0-6.48-0.48,0.0,55.0,,,,,,,[],,,,False,,,,62.5,0.0,u,0.0,True,654.6000000089407,40.0,59.0,40.0,289.6879138302978,[],"[720, 450]",ColorTask,29.0,49.0,,,HRV,HRV_0089,2022-11-30 18:48:05
,wl-rdm,57,2823652,0.0-6.49-0.49,0.0,56.0,,,,,,,[],,,,False,,,,56.4,1.0,u,0.0,False,1250.1000000089407,76.0,59.0,40.0,284.7282678541294,[],"[720, 450]",ColorTask,28.0,50.0,,,HRV,HRV_0089,2022-11-30 18:48:05
,wl-rdm,58,2826017,0.0-6.50-0.50,0.0,57.0,,,,,,,[],,,,False,,,,87.9,0.0,u,0.0,True,1004.1999999880791,61.0,59.0,40.0,268.2451181406526,[],"[720, 450]",ColorTask,29.0,51.0,,,HRV,HRV_0089,2022-11-30 18:48:05
,wl-rdm,59,2829302,0.0-6.51-0.51,0.0,58.0,,,,,,,[],,,,False,,,,50.0,0.0,u,0.0,True,1903.9000000208616,115.0,59.0,40.0,304.60462988971153,[],"[720, 450]",ColorTask,30.0,52.0,,,HRV,HRV_0089,2022-11-30 18:48:05
,wl-rdm,60,2831502,0.0-6.52-0.52,0.0,59.0,,,,,,,[],,,,False,,,,50.0,0.0,i,1.0,False,768.3999999910593,47.0,59.0,40.0,342.34224505414426,[],"[720, 450]",ColorTask,29.0,53.0,,,HRV,HRV_0089,2022-11-30 18:48:05
,wl-rdm,61,2833718,0.0-6.53-0.53,0.0,60.0,,,,,,,[],,,,False,,,,53.2,1.0,i,1.0,True,921.0999999940395,56.0,59.0,40.0,206.59511156084037,[],"[720, 450]",ColorTask,30.0,54.0,,,HRV,HRV_0089,2022-11-30 18:48:05
,wl-rdm,62,2836102,0.0-6.54-0.54,0.0,61.0,,,,,,,[],,,,False,,,,50.0,1.0,i,1.0,True,988.6000000089407,60.0,59.0,40.0,318.9338746059147,[],"[720, 450]",ColorTask,31.0,55.0,,,HRV,HRV_0089,2022-11-30 18:48:05
,wl-rdm,63,2838634,0.0-6.55-0.55,0.0,62.0,,,,,,,[],,,,False,,,,62.5,1.0,i,1.0,True,1215.7000000029802,73.0,59.0,40.0,257.3101470693027,[],"[720, 450]",ColorTask,32.0,56.0,,,HRV,HRV_0089,2022-11-30 18:48:05
,wl-rdm,64,2840768,0.0-6.56-0.56,0.0,63.0,,,,,,,[],,,,False,,,,62.5,0.0,i,1.0,False,811.9000000059605,49.0,59.0,40.0,240.57527057622138,[],"[720, 450]",ColorTask,31.0,57.0,,,HRV,HRV_0089,2022-11-30 18:48:05
,wl-rdm,65,2842902,0.0-6.57-0.57,0.0,64.0,,,,,,,[],,,,False,,,,62.5,1.0,i,1.0,True,730.5,44.0,59.0,40.0,334.33373259768484,[],"[720, 450]",ColorTask,32.0,58.0,,,HRV,HRV_0089,2022-11-30 18:48:05
,wl-rdm,66,2844934,0.0-6.58-0.58,0.0,65.0,,,,,,,[],,,,False,,,,62.5,1.0,i,1.0,True,727.7000000029802,44.0,59.0,40.0,241.88517608011205,[],"[720, 450]",ColorTask,33.0,59.0,,,HRV,HRV_0089,2022-11-30 18:48:05
,wl-rdm,67,2847234,0.0-6.59-0.59,0.0,66.0,,,,,,,[],,,,False,,,,73.6,0.0,u,0.0,True,989.4000000059605,60.0,59.0,40.0,222.09379517744122,[],"[720, 450]",ColorTask,34.0,60.0,,,HRV,HRV_0089,2022-11-30 18:48:05
,wl-rdm,68,2849300,0.0-6.60-0.60,0.0,67.0,,,,,,,[],,,,False,,,,50.0,0.0,i,1.0,False,740.2000000029802,45.0,59.0,40.0,248.90769527153773,[],"[720, 450]",ColorTask,33.0,61.0,,,HRV,HRV_0089,2022-11-30 18:48:05
,wl-rdm,69,2851368,0.0-6.61-0.61,0.0,68.0,,,,,,,[],,,,False,,,,53.2,0.0,i,1.0,False,664.6999999880791,40.0,59.0,40.0,323.29174727029215,[],"[720, 450]",ColorTask,32.0,62.0,,,HRV,HRV_0089,2022-11-30 18:48:05
,wl-rdm,70,2853451,0.0-6.62-0.62,0.0,69.0,,,,,,,[],,,,False,,,,62.5,1.0,i,1.0,True,662.6000000089407,40.0,59.0,40.0,334.9759112361544,[],"[720, 450]",ColorTask,33.0,63.0,,,HRV,HRV_0089,2022-11-30 18:48:05
,wl-rdm,71,2855484,0.0-6.63-0.63,0.0,70.0,,,,,,,[],,,,False,,,,62.5,0.0,u,0.0,True,731.9000000208616,44.0,59.0,40.0,234.9958026580403,[],"[720, 450]",ColorTask,34.0,64.0,,,HRV,HRV_0089,2022-11-30 18:48:05
,wl-rdm,72,2857800,0.0-6.64-0.64,0.0,71.0,,,,,,,[],,,,False,,,,87.9,1.0,i,1.0,True,970.7999999970198,59.0,59.0,40.0,264.2792312805137,[],"[720, 450]",ColorTask,35.0,65.0,,,HRV,HRV_0089,2022-11-30 18:48:05
,wl-rdm,73,2860735,0.0-6.65-0.65,0.0,72.0,,,,,,,[],,,,False,,,,56.4,1.0,u,0.0,False,1648.7000000029802,99.0,59.0,40.0,221.4675678469976,[],"[720, 450]",ColorTask,34.0,66.0,,,HRV,HRV_0089,2022-11-30 18:48:05
,wl-rdm,74,2862617,0.0-6.66-0.66,0.0,73.0,,,,,,,[],,,,False,,,,50.0,0.0,i,1.0,False,595.9000000059605,36.0,59.0,40.0,214.09239240772052,[],"[720, 450]",ColorTask,33.0,67.0,,,HRV,HRV_0089,2022-11-30 18:48:05
,wl-rdm,75,2864951,0.0-6.67-0.67,0.0,74.0,,,,,,,[],,,,False,,,,87.9,0.0,u,0.0,True,994.2000000029802,60.0,59.0,40.0,251.1410796250309,[],"[720, 450]",ColorTask,34.0,68.0,,,HRV,HRV_0089,2022-11-30 18:48:05
,wl-rdm,76,2867285,0.0-6.68-0.68,0.0,75.0,,,,,,,[],,,,False,,,,50.0,1.0,i,1.0,True,1037.5999999940395,63.0,59.0,40.0,227.84984204846023,[],"[720, 450]",ColorTask,35.0,69.0,,,HRV,HRV_0089,2022-11-30 18:48:05
,wl-rdm,77,2869168,0.0-6.69-0.69,0.0,76.0,,,,,,,[],,,,False,,,,53.2,0.0,u,0.0,True,581.0999999940395,35.0,59.0,40.0,217.17289368968096,[],"[720, 450]",ColorTask,36.0,70.0,,,HRV,HRV_0089,2022-11-30 18:48:05
,wl-rdm,78,2871284,0.0-6.70-0.70,0.0,77.0,,,,,,,[],,,,False,,,,87.9,1.0,i,1.0,True,766.0999999940395,46.0,59.0,40.0,293.89115329118255,[],"[720, 450]",ColorTask,37.0,71.0,,,HRV,HRV_0089,2022-11-30 18:48:05
,wl-rdm,79,2873619,0.0-6.71-0.71,0.0,78.0,,,,,,,[],,,,False,,,,62.5,0.0,u,0.0,True,1061.4000000059605,64.0,59.0,40.0,206.53121322204794,[],"[720, 450]",ColorTask,38.0,72.0,,,HRV,HRV_0089,2022-11-30 18:48:05
,wl-rdm,80,2875652,0.0-6.72-0.72,0.0,79.0,,,,,,,[],,,,False,,,,87.9,1.0,i,1.0,True,687.2999999970198,42.0,59.0,40.0,282.1886211240872,[],"[720, 450]",ColorTask,39.0,73.0,,,HRV,HRV_0089,2022-11-30 18:48:05
,wl-rdm,81,2877651,0.0-6.73-0.73,0.0,80.0,,,,,,,[],,,,False,,,,87.9,0.0,u,0.0,True,689.5999999940395,42.0,59.0,40.0,250.21857468401106,[],"[720, 450]",ColorTask,40.0,74.0,,,HRV,HRV_0089,2022-11-30 18:48:05
,wl-rdm,82,2879551,0.0-6.74-0.74,0.0,81.0,,,,,,,[],,,,False,,,,73.6,1.0,i,1.0,True,601.3000000119209,37.0,59.0,40.0,204.7668673181054,[],"[720, 450]",ColorTask,41.0,75.0,,,HRV,HRV_0089,2022-11-30 18:48:05
,wl-rdm,83,2881984,0.0-6.75-0.75,0.0,82.0,,,,,,,[],,,,False,,,,56.4,1.0,u,0.0,False,1083.1000000089407,65.0,59.0,40.0,295.9168877211041,[],"[720, 450]",ColorTask,40.0,76.0,,,HRV,HRV_0089,2022-11-30 18:48:05
,wl-rdm,84,2884467,0.0-6.76-0.76,0.0,83.0,,,,,,,[],,,,False,,,,87.9,0.0,u,0.0,True,1088.800000011921,66.0,59.0,40.0,302.4822744660115,[],"[720, 450]",ColorTask,41.0,77.0,,,HRV,HRV_0089,2022-11-30 18:48:05
,wl-rdm,85,2886352,0.0-6.77-0.77,0.0,84.0,,,,,,,[],,,,False,,,,73.6,1.0,i,1.0,True,565.5000000149012,34.0,59.0,40.0,234.316377069037,[],"[720, 450]",ColorTask,42.0,78.0,,,HRV,HRV_0089,2022-11-30 18:48:05
,wl-rdm,86,2888201,0.0-6.78-0.78,0.0,85.0,,,,,,,[],,,,False,,,,87.9,1.0,i,1.0,True,476.40000000596046,29.0,59.0,40.0,294.1919988626403,[],"[720, 450]",ColorTask,43.0,79.0,,,HRV,HRV_0089,2022-11-30 18:48:05
,wl-rdm,87,2891017,0.0-6.79-0.79,0.0,86.0,,,,,,,[],,,,False,,,,73.6,1.0,i,1.0,True,1445.3999999910593,87.0,59.0,40.0,294.36021140674296,[],"[720, 450]",ColorTask,44.0,80.0,,,HRV,HRV_0089,2022-11-30 18:48:05
,wl-rdm,88,2893118,0.0-6.80-0.80,0.0,87.0,,,,,,,[],,,,False,,,,73.6,1.0,i,1.0,True,763.6000000089407,46.0,59.0,40.0,257.28109212431497,[],"[720, 450]",ColorTask,45.0,81.0,,,HRV,HRV_0089,2022-11-30 18:48:05
,wl-rdm,89,2895385,0.0-6.81-0.81,0.0,88.0,,,,,,,[],,,,False,,,,53.2,1.0,u,0.0,False,881.8999999910593,53.0,59.0,40.0,330.2345318137694,[],"[720, 450]",ColorTask,44.0,82.0,,,HRV,HRV_0089,2022-11-30 18:48:05
,wl-rdm,90,2897801,0.0-6.82-0.82,0.0,89.0,,,,,,,[],,,,False,,,,50.0,0.0,i,1.0,False,1108.2999999970198,67.0,59.0,40.0,218.34453161808318,[],"[720, 450]",ColorTask,43.0,83.0,,,HRV,HRV_0089,2022-11-30 18:48:05
,wl-rdm,91,2899719,0.0-6.83-0.83,0.0,90.0,,,,,,,[],,,,False,,,,56.4,1.0,i,1.0,True,493.5,30.0,59.0,40.0,356.17912243691853,[],"[720, 450]",ColorTask,44.0,84.0,,,HRV,HRV_0089,2022-11-30 18:48:05
,wl-rdm,92,2902334,0.0-6.84-0.84,0.0,91.0,,,,,,,[],,,,False,,,,53.2,0.0,u,0.0,True,1246.5,75.0,59.0,40.0,284.87057801129424,[],"[720, 450]",ColorTask,45.0,85.0,,,HRV,HRV_0089,2022-11-30 18:48:05
,wl-rdm,93,2904452,0.0-6.85-0.85,0.0,92.0,,,,,,,[],,,,False,,,,62.5,1.0,i,1.0,True,805.2000000029802,49.0,59.0,40.0,220.1031658769004,[],"[720, 450]",ColorTask,46.0,86.0,,,HRV,HRV_0089,2022-11-30 18:48:05
,wl-rdm,94,2906635,0.0-6.86-0.86,0.0,93.0,,,,,,,[],,,,False,,,,56.4,0.0,u,0.0,True,825.9000000059605,50.0,59.0,40.0,299.08214482684224,[],"[720, 450]",ColorTask,47.0,87.0,,,HRV,HRV_0089,2022-11-30 18:48:05
,wl-rdm,95,2909267,0.0-6.87-0.87,0.0,94.0,,,,,,,[],,,,False,,,,53.2,1.0,u,0.0,False,1182.4000000059605,71.0,59.0,40.0,376.90687786846865,[],"[720, 450]",ColorTask,46.0,88.0,,,HRV,HRV_0089,2022-11-30 18:48:05
,wl-rdm,96,2911718,0.0-6.88-0.88,0.0,95.0,,,,,,,[],,,,False,,,,50.0,1.0,u,0.0,False,991.8999999910593,60.0,59.0,40.0,383.3063215141002,[],"[720, 450]",ColorTask,45.0,89.0,,,HRV,HRV_0089,2022-11-30 18:48:05
,wl-rdm,97,2913935,0.0-6.89-0.89,0.0,96.0,,,,,,,[],,,,False,,,,73.6,0.0,u,0.0,True,865.5,52.0,59.0,40.0,286.70586795526924,[],"[720, 450]",ColorTask,46.0,90.0,,,HRV,HRV_0089,2022-11-30 18:48:05
,wl-rdm,98,2916668,0.0-6.90-0.90,0.0,97.0,,,,,,,[],,,,False,,,,50.0,1.0,u,0.0,False,1431.7000000029802,86.0,59.0,40.0,241.81957810843087,[],"[720, 450]",ColorTask,45.0,91.0,,,HRV,HRV_0089,2022-11-30 18:48:05
,wl-rdm,99,2918918,0.0-6.91-0.91,0.0,98.0,,,,,,,[],,,,False,,,,87.9,1.0,i,1.0,True,877.8999999910593,53.0,59.0,40.0,300.6471267342404,[],"[720, 450]",ColorTask,46.0,92.0,,,HRV,HRV_0089,2022-11-30 18:48:05
,wl-rdm,100,2921101,0.0-6.92-0.92,0.0,99.0,,,,,,,[],,,,False,,,,56.4,1.0,u,0.0,False,746.9000000059605,45.0,59.0,40.0,358.3977448925416,[],"[720, 450]",ColorTask,45.0,93.0,,,HRV,HRV_0089,2022-11-30 18:48:05
,wl-rdm,101,2923219,0.0-6.93-0.93,0.0,100.0,,,,,,,[],,,,False,,,,50.0,1.0,i,1.0,True,749.1999999880791,45.0,59.0,40.0,300.6823802370694,[],"[720, 450]",ColorTask,46.0,94.0,,,HRV,HRV_0089,2022-11-30 18:48:05
,wl-rdm,102,2925902,0.0-6.94-0.94,0.0,101.0,,,,,,,[],,,,False,,,,50.0,0.0,i,1.0,False,1377.7999999970198,83.0,59.0,40.0,229.7027247006196,[],"[720, 450]",ColorTask,45.0,95.0,,,HRV,HRV_0089,2022-11-30 18:48:05
,wl-rdm,103,2928335,0.0-6.95-0.95,0.0,102.0,,,,,,,[],,,,False,,,,87.9,1.0,i,1.0,True,1119.5,68.0,59.0,40.0,232.20477337823786,[],"[720, 450]",ColorTask,46.0,96.0,,,HRV,HRV_0089,2022-11-30 18:48:05
,wl-rdm,104,2930551,0.0-6.96-0.96,0.0,103.0,,,,,,,[],,,,False,,,,56.4,1.0,i,1.0,True,913.0999999940395,55.0,59.0,40.0,218.12559983192781,[],"[720, 450]",ColorTask,47.0,97.0,,,HRV,HRV_0089,2022-11-30 18:48:05
,wl-rdm,105,2932690,0.0-6.97-0.97,0.0,104.0,,,,,,,[],,,,False,,,,50.0,1.0,i,1.0,True,828.0,50.0,59.0,40.0,248.39403667095448,[],"[720, 450]",ColorTask,48.0,98.0,,,HRV,HRV_0089,2022-11-30 18:48:05
,wl-rdm,106,2934702,0.0-6.98-0.98,0.0,105.0,,,,,,,[],,,,False,,,,53.2,0.0,i,1.0,False,619.2000000178814,38.0,59.0,40.0,312.14216383636034,[],"[720, 450]",ColorTask,47.0,99.0,,,HRV,HRV_0089,2022-11-30 18:48:05
,wl-rdm,107,2936886,0.0-6.99-0.99,0.0,106.0,,,,,,,[],,,,False,,,,53.2,1.0,i,1.0,True,707.3999999910593,43.0,59.0,40.0,394.158606721089,[],"[720, 450]",ColorTask,48.0,100.0,,,HRV,HRV_0089,2022-11-30 18:48:05
,wl-rdm,108,2939352,0.0-6.100-0.100,0.0,107.0,,,,,,,[],,,,False,,,,56.4,0.0,u,0.0,True,988.3999999910593,60.0,59.0,40.0,384.86761454772795,[],"[720, 450]",ColorTask,49.0,101.0,,,HRV,HRV_0089,2022-11-30 18:48:05
,wl-rdm,109,2942052,0.0-6.101-0.101,0.0,108.0,,,,,,,[],,,,False,,,,62.5,1.0,i,1.0,True,1382.0,83.0,59.0,40.0,249.0845150641405,[],"[720, 450]",ColorTask,50.0,102.0,,,HRV,HRV_0089,2022-11-30 18:48:05
,wl-rdm,110,2944085,0.0-6.102-0.102,0.0,109.0,,,,,,,[],,,,False,,,,53.2,1.0,u,0.0,False,742.5999999940395,45.0,59.0,40.0,202.71339942703656,[],"[720, 450]",ColorTask,49.0,103.0,,,HRV,HRV_0089,2022-11-30 18:48:05
,wl-rdm,111,2946369,0.0-6.103-0.103,0.0,110.0,,,,,,,[],,,,False,,,,87.9,0.0,u,0.0,True,821.8999999910593,50.0,59.0,40.0,391.3361897221611,[],"[720, 450]",ColorTask,50.0,104.0,,,HRV,HRV_0089,2022-11-30 18:48:05
,wl-rdm,112,2949369,0.0-6.104-0.104,0.0,111.0,,,,,,,[],,,,False,,,,50.0,0.0,i,1.0,False,1537.0999999940395,93.0,59.0,40.0,383.34751392759273,[],"[720, 450]",ColorTask,49.0,105.0,,,HRV,HRV_0089,2022-11-30 18:48:05
,wl-rdm,113,2951652,0.0-6.105-0.105,0.0,112.0,,,,,,,[],,,,False,,,,73.6,0.0,u,0.0,True,950.3999999910593,57.0,59.0,40.0,280.84705061367947,[],"[720, 450]",ColorTask,50.0,106.0,,,HRV,HRV_0089,2022-11-30 18:48:05
,wl-rdm,114,2954285,0.0-6.106-0.106,0.0,113.0,,,,,,,[],,,,False,,,,73.6,0.0,u,0.0,True,1313.0,79.0,59.0,40.0,253.97269885307776,[],"[720, 450]",ColorTask,51.0,107.0,,,HRV,HRV_0089,2022-11-30 18:48:05
,wl-rdm,115,2956268,0.0-6.107-0.107,0.0,114.0,,,,,,,[],,,,False,,,,62.5,0.0,u,0.0,True,562.9000000059605,34.0,59.0,40.0,363.44384952751363,[],"[720, 450]",ColorTask,52.0,108.0,,,HRV,HRV_0089,2022-11-30 18:48:05
,wl-rdm,116,2958335,0.0-6.108-0.108,0.0,115.0,,,,,,,[],,,,False,,,,56.4,1.0,i,1.0,True,649.3999999910593,39.0,59.0,40.0,354.87169803015945,[],"[720, 450]",ColorTask,53.0,109.0,,,HRV,HRV_0089,2022-11-30 18:48:05
,wl-html-keyboard-response,117,2966083,0.0-7.0-0.0,1.0,116.0,,,,,,,,5739.5,1.0,0,,,,,,,,,,,,,,,,,,,,,,HRV,HRV_0089,2022-11-30 18:48:05
,wl-rdm,118,2969084,0.0-8.0-0.0,1.0,117.0,,,,,,,[],,,,False,,,,50.0,0.0,i,1.0,False,1621.0999999940395,98.0,59.0,40.0,294.0416224872353,[],"[720, 450]",ColorTask,52.0,1.0,,,HRV,HRV_0089,2022-11-30 18:48:05
,wl-rdm,119,2971085,0.0-8.1-0.1,1.0,118.0,,,,,,,[],,,,False,,,,56.4,1.0,i,1.0,True,573.9999999850988,35.0,59.0,40.0,336.6244300225792,[],"[720, 450]",ColorTask,53.0,2.0,,,HRV,HRV_0089,2022-11-30 18:48:05
,wl-rdm,120,2973736,0.0-8.2-0.2,1.0,119.0,,,,,,,[],,,,False,,,,53.2,0.0,u,0.0,True,1260.2000000029802,76.0,59.0,40.0,329.943724106422,[],"[720, 450]",ColorTask,54.0,3.0,,,HRV,HRV_0089,2022-11-30 18:48:05
,wl-rdm,121,2976335,0.0-8.3-0.3,1.0,120.0,,,,,,,[],,,,False,,,,50.0,1.0,i,1.0,True,1205.199999988079,73.0,59.0,40.0,303.8473205812122,[],"[720, 450]",ColorTask,55.0,4.0,,,HRV,HRV_0089,2022-11-30 18:48:05
,wl-rdm,122,2978518,0.0-8.4-0.4,1.0,121.0,,,,,,,[],,,,False,,,,53.2,0.0,u,0.0,True,797.1000000089407,48.0,59.0,40.0,319.6599705725956,[],"[720, 450]",ColorTask,56.0,5.0,,,HRV,HRV_0089,2022-11-30 18:48:05
,wl-rdm,123,2980718,0.0-8.5-0.5,1.0,122.0,,,,,,,[],,,,False,,,,50.0,0.0,u,0.0,True,855.1000000089407,52.0,59.0,40.0,261.2109480894368,[],"[720, 450]",ColorTask,57.0,6.0,,,HRV,HRV_0089,2022-11-30 18:48:05
,wl-rdm,124,2982852,0.0-8.6-0.6,1.0,123.0,,,,,,,[],,,,False,,,,53.2,1.0,i,1.0,True,688.7999999821186,42.0,59.0,40.0,378.8470635113972,[],"[720, 450]",ColorTask,58.0,7.0,,,HRV,HRV_0089,2022-11-30 18:48:05
,wl-rdm,125,2985235,0.0-8.7-0.7,1.0,124.0,,,,,,,[],,,,False,,,,53.2,1.0,i,1.0,True,999.9000000059605,60.0,59.0,40.0,317.1266868600767,[],"[720, 450]",ColorTask,59.0,8.0,,,HRV,HRV_0089,2022-11-30 18:48:05
,wl-rdm,126,2987285,0.0-8.8-0.8,1.0,125.0,,,,,,,[],,,,False,,,,73.6,0.0,u,0.0,True,660.2000000178814,40.0,59.0,40.0,329.1841515577547,[],"[720, 450]",ColorTask,60.0,9.0,,,HRV,HRV_0089,2022-11-30 18:48:05
,wl-rdm,127,2989485,0.0-8.9-0.9,1.0,126.0,,,,,,,[],,,,False,,,,87.9,0.0,u,0.0,True,862.7999999970198,52.0,59.0,40.0,271.238170163788,[],"[720, 450]",ColorTask,61.0,10.0,,,HRV,HRV_0089,2022-11-30 18:48:05
,wl-rdm,128,2991335,0.0-8.10-0.10,1.0,127.0,,,,,,,[],,,,False,,,,53.2,0.0,i,1.0,False,461.7999999821186,28.0,59.0,40.0,308.6452374451227,[],"[720, 450]",ColorTask,60.0,11.0,,,HRV,HRV_0089,2022-11-30 18:48:05
,wl-rdm,129,2993886,0.0-8.11-0.11,1.0,128.0,,,,,,,[],,,,False,,,,56.4,0.0,u,0.0,True,1156.3999999910593,70.0,59.0,40.0,308.6782073746251,[],"[720, 450]",ColorTask,61.0,12.0,,,HRV,HRV_0089,2022-11-30 18:48:05
,wl-rdm,130,2996035,0.0-8.12-0.12,1.0,129.0,,,,,,,[],,,,False,,,,56.4,1.0,u,0.0,False,799.2000000029802,48.0,59.0,40.0,271.209734229122,[],"[720, 450]",ColorTask,60.0,13.0,,,HRV,HRV_0089,2022-11-30 18:48:05
,wl-rdm,131,2998169,0.0-8.13-0.13,1.0,130.0,,,,,,,[],,,,False,,,,87.9,0.0,u,0.0,True,707.9000000208616,43.0,59.0,40.0,358.5897223702749,[],"[720, 450]",ColorTask,61.0,14.0,,,HRV,HRV_0089,2022-11-30 18:48:05
,wl-rdm,132,3000085,0.0-8.14-0.14,1.0,131.0,,,,,,,[],,,,False,,,,50.0,0.0,i,1.0,False,596.2999999970198,36.0,59.0,40.0,237.87155154402421,[],"[720, 450]",ColorTask,60.0,15.0,,,HRV,HRV_0089,2022-11-30 18:48:05
,wl-rdm,133,3002418,0.0-8.15-0.15,1.0,132.0,,,,,,,[],,,,False,,,,50.0,1.0,u,0.0,False,906.2000000029802,55.0,59.0,40.0,345.1447682774391,[],"[720, 450]",ColorTask,59.0,16.0,,,HRV,HRV_0089,2022-11-30 18:48:05
,wl-rdm,134,3004719,0.0-8.16-0.16,1.0,133.0,,,,,,,[],,,,False,,,,87.9,1.0,i,1.0,True,904.3999999910593,55.0,59.0,40.0,308.24724185074933,[],"[720, 450]",ColorTask,60.0,17.0,,,HRV,HRV_0089,2022-11-30 18:48:05
,wl-rdm,135,3007285,0.0-8.17-0.17,1.0,134.0,,,,,,,[],,,,False,,,,62.5,1.0,i,1.0,True,1105.5,67.0,59.0,40.0,375.8399975356641,[],"[720, 450]",ColorTask,61.0,18.0,,,HRV,HRV_0089,2022-11-30 18:48:05
,wl-rdm,136,3009285,0.0-8.18-0.18,1.0,135.0,,,,,,,[],,,,False,,,,53.2,1.0,i,1.0,True,544.2999999970198,33.0,59.0,40.0,388.4985672965766,[],"[720, 450]",ColorTask,62.0,19.0,,,HRV,HRV_0089,2022-11-30 18:48:05
,wl-rdm,137,3011570,0.0-8.19-0.19,1.0,136.0,,,,,,,[],,,,False,,,,56.4,1.0,u,0.0,False,820.3999999910593,50.0,59.0,40.0,378.48301208745124,[],"[720, 450]",ColorTask,61.0,20.0,,,HRV,HRV_0089,2022-11-30 18:48:05
,wl-rdm,138,3013901,0.0-8.20-0.20,1.0,137.0,,,,,,,[],,,,False,,,,50.0,0.0,i,1.0,False,1049.5999999940395,63.0,59.0,40.0,215.34915145455244,[],"[720, 450]",ColorTask,60.0,21.0,,,HRV,HRV_0089,2022-11-30 18:48:05
,wl-rdm,139,3015802,0.0-8.21-0.21,1.0,138.0,,,,,,,[],,,,False,,,,87.9,1.0,i,1.0,True,593.0,36.0,59.0,40.0,229.86264745870773,[],"[720, 450]",ColorTask,61.0,22.0,,,HRV,HRV_0089,2022-11-30 18:48:05
,wl-rdm,140,3017769,0.0-8.22-0.22,1.0,139.0,,,,,,,[],,,,False,,,,53.2,1.0,i,1.0,True,681.0999999940395,41.0,59.0,40.0,203.73567584150757,[],"[720, 450]",ColorTask,62.0,23.0,,,HRV,HRV_0089,2022-11-30 18:48:05
,wl-rdm,141,3019802,0.0-8.23-0.23,1.0,140.0,,,,,,,[],,,,False,,,,73.6,1.0,i,1.0,True,572.9000000208616,35.0,59.0,40.0,390.11336720838847,[],"[720, 450]",ColorTask,63.0,24.0,,,HRV,HRV_0089,2022-11-30 18:48:05
,wl-rdm,142,3021718,0.0-8.24-0.24,1.0,141.0,,,,,,,[],,,,False,,,,73.6,1.0,i,1.0,True,554.0999999940395,34.0,59.0,40.0,273.2741901504674,[],"[720, 450]",ColorTask,64.0,25.0,,,HRV,HRV_0089,2022-11-30 18:48:05
,wl-rdm,143,3023636,0.0-8.25-0.25,1.0,142.0,,,,,,,[],,,,False,,,,56.4,0.0,i,1.0,False,462.30000001192093,28.0,59.0,40.0,394.5447150670095,[],"[720, 450]",ColorTask,63.0,26.0,,,HRV,HRV_0089,2022-11-30 18:48:05
,wl-rdm,144,3025668,0.0-8.26-0.26,1.0,143.0,,,,,,,[],,,,False,,,,50.0,1.0,i,1.0,True,583.3000000119209,35.0,59.0,40.0,375.8587224245216,[],"[720, 450]",ColorTask,64.0,27.0,,,HRV,HRV_0089,2022-11-30 18:48:05
,wl-rdm,145,3027701,0.0-8.27-0.27,1.0,144.0,,,,,,,[],,,,False,,,,50.0,1.0,i,1.0,True,650.3999999910593,39.0,59.0,40.0,314.06225435718284,[],"[720, 450]",ColorTask,65.0,28.0,,,HRV,HRV_0089,2022-11-30 18:48:05
,wl-rdm,146,3029535,0.0-8.28-0.28,1.0,145.0,,,,,,,[],,,,False,,,,50.0,1.0,i,1.0,True,540.3999999910593,33.0,59.0,40.0,207.67414862771932,[],"[720, 450]",ColorTask,66.0,29.0,,,HRV,HRV_0089,2022-11-30 18:48:05
,wl-rdm,147,3031486,0.0-8.29-0.29,1.0,146.0,,,,,,,[],,,,False,,,,73.6,0.0,u,0.0,True,646.5,39.0,59.0,40.0,218.36331677986686,[],"[720, 450]",ColorTask,67.0,30.0,,,HRV,HRV_0089,2022-11-30 18:48:05
,wl-rdm,148,3033452,0.0-8.30-0.30,1.0,147.0,,,,,,,[],,,,False,,,,87.9,1.0,i,1.0,True,603.7999999970198,37.0,59.0,40.0,270.9759295206372,[],"[720, 450]",ColorTask,68.0,31.0,,,HRV,HRV_0089,2022-11-30 18:48:05
,wl-rdm,149,3035419,0.0-8.31-0.31,1.0,148.0,,,,,,,[],,,,False,,,,87.9,0.0,u,0.0,True,670.8999999910593,41.0,59.0,40.0,200.95429086786805,[],"[720, 450]",ColorTask,69.0,32.0,,,HRV,HRV_0089,2022-11-30 18:48:05
,wl-rdm,150,3037619,0.0-8.32-0.32,1.0,149.0,,,,,,,[],,,,False,,,,62.5,0.0,u,0.0,True,767.2999999970198,47.0,59.0,40.0,351.6448204492616,[],"[720, 450]",ColorTask,70.0,33.0,,,HRV,HRV_0089,2022-11-30 18:48:05
,wl-rdm,151,3039502,0.0-8.33-0.33,1.0,150.0,,,,,,,[],,,,False,,,,56.4,0.0,u,0.0,True,505.59999999403954,31.0,59.0,40.0,312.74290826597326,[],"[720, 450]",ColorTask,71.0,34.0,,,HRV,HRV_0089,2022-11-30 18:48:05
,wl-rdm,152,3041518,0.0-8.34-0.34,1.0,151.0,,,,,,,[],,,,False,,,,73.6,1.0,i,1.0,True,744.5999999940395,45.0,59.0,40.0,215.42097119123946,[],"[720, 450]",ColorTask,72.0,35.0,,,HRV,HRV_0089,2022-11-30 18:48:05
,wl-rdm,153,3043502,0.0-8.35-0.35,1.0,152.0,,,,,,,[],,,,False,,,,62.5,1.0,i,1.0,True,616.5,37.0,59.0,40.0,284.5955579177423,[],"[720, 450]",ColorTask,73.0,36.0,,,HRV,HRV_0089,2022-11-30 18:48:05
,wl-rdm,154,3045952,0.0-8.36-0.36,1.0,153.0,,,,,,,[],,,,False,,,,56.4,1.0,i,1.0,True,1038.0,63.0,59.0,40.0,344.80310045966917,[],"[720, 450]",ColorTask,74.0,37.0,,,HRV,HRV_0089,2022-11-30 18:48:05
,wl-rdm,155,3047886,0.0-8.37-0.37,1.0,154.0,,,,,,,[],,,,False,,,,56.4,0.0,i,1.0,False,616.0,37.0,59.0,40.0,241.04121832262265,[],"[720, 450]",ColorTask,73.0,38.0,,,HRV,HRV_0089,2022-11-30 18:48:05
,wl-rdm,156,3050636,0.0-8.38-0.38,1.0,155.0,,,,,,,[],,,,False,,,,53.2,0.0,i,1.0,False,1383.1000000089407,84.0,59.0,40.0,268.11518110605584,[],"[720, 450]",ColorTask,72.0,39.0,,,HRV,HRV_0089,2022-11-30 18:48:05
,wl-rdm,157,3052669,0.0-8.39-0.39,1.0,156.0,,,,,,,[],,,,False,,,,73.6,0.0,u,0.0,True,631.0,38.0,59.0,40.0,340.9398991527156,[],"[720, 450]",ColorTask,73.0,40.0,,,HRV,HRV_0089,2022-11-30 18:48:05
,wl-rdm,158,3054886,0.0-8.40-0.40,1.0,157.0,,,,,,,[],,,,False,,,,56.4,1.0,u,0.0,False,842.7999999970198,51.0,59.0,40.0,309.506940303123,[],"[720, 450]",ColorTask,72.0,41.0,,,HRV,HRV_0089,2022-11-30 18:48:05
,wl-rdm,159,3056919,0.0-8.41-0.41,1.0,158.0,,,,,,,[],,,,False,,,,53.2,1.0,i,1.0,True,697.8999999910593,42.0,59.0,40.0,251.08954821923655,[],"[720, 450]",ColorTask,73.0,42.0,,,HRV,HRV_0089,2022-11-30 18:48:05
,wl-rdm,160,3058885,0.0-8.42-0.42,1.0,159.0,,,,,,,[],,,,False,,,,73.6,1.0,i,1.0,True,579.4000000059605,35.0,59.0,40.0,325.1116343365451,[],"[720, 450]",ColorTask,74.0,43.0,,,HRV,HRV_0089,2022-11-30 18:48:05
,wl-rdm,161,3061652,0.0-8.43-0.43,1.0,160.0,,,,,,,[],,,,False,,,,53.2,1.0,i,1.0,True,1315.5,79.0,59.0,40.0,390.95053970499373,[],"[720, 450]",ColorTask,75.0,44.0,,,HRV,HRV_0089,2022-11-30 18:48:05
,wl-rdm,162,3064086,0.0-8.44-0.44,1.0,161.0,,,,,,,[],,,,False,,,,56.4,0.0,i,1.0,False,1089.0000000149012,66.0,59.0,40.0,282.8599582002619,[],"[720, 450]",ColorTask,74.0,45.0,,,HRV,HRV_0089,2022-11-30 18:48:05
,wl-rdm,163,3066086,0.0-8.45-0.45,1.0,162.0,,,,,,,[],,,,False,,,,50.0,1.0,i,1.0,True,666.7000000029802,40.0,59.0,40.0,281.9115450009805,[],"[720, 450]",ColorTask,75.0,46.0,,,HRV,HRV_0089,2022-11-30 18:48:05
,wl-rdm,164,3068552,0.0-8.46-0.46,1.0,163.0,,,,,,,[],,,,False,,,,56.4,0.0,u,0.0,True,1195.9000000059605,72.0,59.0,40.0,210.050107295616,[],"[720, 450]",ColorTask,76.0,47.0,,,HRV,HRV_0089,2022-11-30 18:48:05
,wl-rdm,165,3070886,0.0-8.47-0.47,1.0,164.0,,,,,,,[],,,,False,,,,56.4,0.0,i,1.0,False,888.9000000059605,54.0,59.0,40.0,342.7504189540058,[],"[720, 450]",ColorTask,75.0,48.0,,,HRV,HRV_0089,2022-11-30 18:48:05
,wl-rdm,166,3072969,0.0-8.48-0.48,1.0,165.0,,,,,,,[],,,,False,,,,73.6,1.0,i,1.0,True,724.9000000059605,44.0,59.0,40.0,270.5943313339318,[],"[720, 450]",ColorTask,76.0,49.0,,,HRV,HRV_0089,2022-11-30 18:48:05
,wl-rdm,167,3074936,0.0-8.49-0.49,1.0,166.0,,,,,,,[],,,,False,,,,73.6,0.0,u,0.0,True,679.5,41.0,59.0,40.0,210.91195338505386,[],"[720, 450]",ColorTask,77.0,50.0,,,HRV,HRV_0089,2022-11-30 18:48:05
,wl-rdm,168,3077003,0.0-8.50-0.50,1.0,167.0,,,,,,,[],,,,False,,,,62.5,0.0,u,0.0,True,761.3000000119209,46.0,59.0,40.0,231.4415487059922,[],"[720, 450]",ColorTask,78.0,51.0,,,HRV,HRV_0089,2022-11-30 18:48:05
,wl-rdm,169,3078953,0.0-8.51-0.51,1.0,168.0,,,,,,,[],,,,False,,,,53.2,0.0,i,1.0,False,554.3999999910593,34.0,59.0,40.0,317.70738875063194,[],"[720, 450]",ColorTask,77.0,52.0,,,HRV,HRV_0089,2022-11-30 18:48:05
,wl-rdm,170,3080986,0.0-8.52-0.52,1.0,169.0,,,,,,,[],,,,False,,,,87.9,1.0,i,1.0,True,696.4000000059605,42.0,59.0,40.0,254.09241486894894,[],"[720, 450]",ColorTask,78.0,53.0,,,HRV,HRV_0089,2022-11-30 18:48:05
,wl-rdm,171,3083119,0.0-8.53-0.53,1.0,170.0,,,,,,,[],,,,False,,,,62.5,0.0,u,0.0,True,688.1999999880791,42.0,59.0,40.0,355.03956725710736,[],"[720, 450]",ColorTask,79.0,54.0,,,HRV,HRV_0089,2022-11-30 18:48:05
,wl-rdm,172,3086352,0.0-8.54-0.54,1.0,171.0,,,,,,,[],,,,False,,,,56.4,0.0,u,0.0,True,1818.9000000059605,110.0,59.0,40.0,339.0609223927426,[],"[720, 450]",ColorTask,80.0,55.0,,,HRV,HRV_0089,2022-11-30 18:48:05
,wl-rdm,173,3088436,0.0-8.55-0.55,1.0,172.0,,,,,,,[],,,,False,,,,87.9,1.0,i,1.0,True,796.1999999880791,48.0,59.0,40.0,222.41322888006795,[],"[720, 450]",ColorTask,81.0,56.0,,,HRV,HRV_0089,2022-11-30 18:48:05
,wl-rdm,174,3090336,0.0-8.56-0.56,1.0,173.0,,,,,,,[],,,,False,,,,73.6,1.0,i,1.0,True,604.5,37.0,59.0,40.0,232.08645500752806,[],"[720, 450]",ColorTask,82.0,57.0,,,HRV,HRV_0089,2022-11-30 18:48:05
,wl-rdm,175,3092436,0.0-8.57-0.57,1.0,174.0,,,,,,,[],,,,False,,,,87.9,0.0,u,0.0,True,712.5,43.0,59.0,40.0,328.4074812130021,[],"[720, 450]",ColorTask,83.0,58.0,,,HRV,HRV_0089,2022-11-30 18:48:05
,wl-rdm,176,3094219,0.0-8.58-0.58,1.0,175.0,,,,,,,[],,,,False,,,,50.0,0.0,i,1.0,False,498.8999999910593,30.0,59.0,40.0,205.96836520739168,[],"[720, 450]",ColorTask,82.0,59.0,,,HRV,HRV_0089,2022-11-30 18:48:05
,wl-rdm,177,3097236,0.0-8.59-0.59,1.0,176.0,,,,,,,[],,,,False,,,,53.2,1.0,i,1.0,True,1637.2000000029802,99.0,59.0,40.0,316.79232484234495,[],"[720, 450]",ColorTask,83.0,60.0,,,HRV,HRV_0089,2022-11-30 18:48:05
,wl-rdm,178,3100186,0.0-8.60-0.60,1.0,177.0,,,,,,,[],,,,False,,,,50.0,0.0,u,0.0,True,1582.2999999970198,95.0,59.0,40.0,292.1333274820701,[],"[720, 450]",ColorTask,84.0,61.0,,,HRV,HRV_0089,2022-11-30 18:48:05
,wl-rdm,179,3102319,0.0-8.61-0.61,1.0,178.0,,,,,,,[],,,,False,,,,73.6,1.0,i,1.0,True,726.7000000029802,44.0,59.0,40.0,338.61796931682187,[],"[720, 450]",ColorTask,85.0,62.0,,,HRV,HRV_0089,2022-11-30 18:48:05
,wl-rdm,180,3104786,0.0-8.62-0.62,1.0,179.0,,,,,,,[],,,,False,,,,62.5,0.0,u,0.0,True,1070.0,65.0,59.0,40.0,307.3642193836429,[],"[720, 450]",ColorTask,86.0,63.0,,,HRV,HRV_0089,2022-11-30 18:48:05
,wl-rdm,181,3107786,0.0-8.63-0.63,1.0,180.0,,,,,,,[],,,,False,,,,50.0,0.0,i,1.0,False,1695.0,102.0,59.0,40.0,242.43703986475793,[],"[720, 450]",ColorTask,85.0,64.0,,,HRV,HRV_0089,2022-11-30 18:48:05
,wl-rdm,182,3109907,0.0-8.64-0.64,1.0,181.0,,,,,,,[],,,,False,,,,73.6,0.0,u,0.0,True,820.7999999970198,50.0,59.0,40.0,215.51201241921115,[],"[720, 450]",ColorTask,86.0,65.0,,,HRV,HRV_0089,2022-11-30 18:48:05
,wl-rdm,183,3112669,0.0-8.65-0.65,1.0,182.0,,,,,,,[],,,,False,,,,56.4,1.0,i,1.0,True,1469.7000000029802,89.0,59.0,40.0,228.50350852623174,[],"[720, 450]",ColorTask,87.0,66.0,,,HRV,HRV_0089,2022-11-30 18:48:05
,wl-rdm,184,3114770,0.0-8.66-0.66,1.0,183.0,,,,,,,[],,,,False,,,,62.5,0.0,u,0.0,True,733.3000000119209,44.0,59.0,40.0,293.1246199415935,[],"[720, 450]",ColorTask,88.0,67.0,,,HRV,HRV_0089,2022-11-30 18:48:05
,wl-rdm,185,3116747,0.0-8.67-0.67,1.0,184.0,,,,,,,[],,,,False,,,,87.9,0.0,u,0.0,True,528.9999999850988,32.0,59.0,40.0,373.5427822704506,[],"[720, 450]",ColorTask,89.0,68.0,,,HRV,HRV_0089,2022-11-30 18:48:05
,wl-rdm,186,3118770,0.0-8.68-0.68,1.0,185.0,,,,,,,[],,,,False,,,,53.2,1.0,i,1.0,True,656.3000000119209,40.0,59.0,40.0,285.80404579771846,[],"[720, 450]",ColorTask,90.0,69.0,,,HRV,HRV_0089,2022-11-30 18:48:05
,wl-rdm,187,3120852,0.0-8.69-0.69,1.0,186.0,,,,,,,[],,,,False,,,,50.0,0.0,i,1.0,False,802.0,49.0,59.0,40.0,209.63102565631618,[],"[720, 450]",ColorTask,89.0,70.0,,,HRV,HRV_0089,2022-11-30 18:48:05
,wl-rdm,188,3123153,0.0-8.70-0.70,1.0,187.0,,,,,,,[],,,,False,,,,62.5,1.0,i,1.0,True,939.2000000029802,57.0,59.0,40.0,299.78119355214847,[],"[720, 450]",ColorTask,90.0,71.0,,,HRV,HRV_0089,2022-11-30 18:48:05
,wl-rdm,189,3124987,0.0-8.71-0.71,1.0,188.0,,,,,,,[],,,,False,,,,87.9,1.0,i,1.0,True,511.7000000178814,31.0,59.0,40.0,262.654868586906,[],"[720, 450]",ColorTask,91.0,72.0,,,HRV,HRV_0089,2022-11-30 18:48:05
,wl-rdm,190,3127020,0.0-8.72-0.72,1.0,189.0,,,,,,,[],,,,False,,,,62.5,1.0,i,1.0,True,643.6000000089407,39.0,59.0,40.0,320.57489693591936,[],"[720, 450]",ColorTask,92.0,73.0,,,HRV,HRV_0089,2022-11-30 18:48:05
,wl-rdm,191,3128986,0.0-8.73-0.73,1.0,190.0,,,,,,,[],,,,False,,,,87.9,0.0,u,0.0,True,503.2000000178814,31.0,59.0,40.0,387.7158597241289,[],"[720, 450]",ColorTask,93.0,74.0,,,HRV,HRV_0089,2022-11-30 18:48:05
,wl-rdm,192,3130870,0.0-8.74-0.74,1.0,191.0,,,,,,,[],,,,False,,,,87.9,0.0,u,0.0,True,466.6000000089407,28.0,59.0,40.0,337.9381118712797,[],"[720, 450]",ColorTask,94.0,75.0,,,HRV,HRV_0089,2022-11-30 18:48:05
,wl-rdm,193,3132637,0.0-8.75-0.75,1.0,192.0,,,,,,,[],,,,False,,,,87.9,0.0,u,0.0,True,376.99999998509884,23.0,59.0,40.0,319.2028780442697,[],"[720, 450]",ColorTask,95.0,76.0,,,HRV,HRV_0089,2022-11-30 18:48:05
,wl-rdm,194,3134837,0.0-8.76-0.76,1.0,193.0,,,,,,,[],,,,False,,,,62.5,0.0,u,0.0,True,860.8000000119209,52.0,59.0,40.0,258.32825229968836,[],"[720, 450]",ColorTask,96.0,77.0,,,HRV,HRV_0089,2022-11-30 18:48:05
,wl-rdm,195,3136785,0.0-8.77-0.77,1.0,194.0,,,,,,,[],,,,False,,,,62.5,1.0,i,1.0,True,621.2999999821186,38.0,59.0,40.0,265.2855765572443,[],"[720, 450]",ColorTask,97.0,78.0,,,HRV,HRV_0089,2022-11-30 18:48:05
,wl-rdm,196,3138935,0.0-8.78-0.78,1.0,195.0,,,,,,,[],,,,False,,,,56.4,0.0,i,1.0,False,786.7999999970198,48.0,59.0,40.0,298.7656748987864,[],"[720, 450]",ColorTask,96.0,79.0,,,HRV,HRV_0089,2022-11-30 18:48:05
,wl-rdm,197,3140820,0.0-8.79-0.79,1.0,196.0,,,,,,,[],,,,False,,,,73.6,1.0,i,1.0,True,420.79999999701977,26.0,59.0,40.0,369.74350223579825,[],"[720, 450]",ColorTask,97.0,80.0,,,HRV,HRV_0089,2022-11-30 18:48:05
,wl-rdm,198,3143270,0.0-8.80-0.80,1.0,197.0,,,,,,,[],,,,False,,,,62.5,1.0,i,1.0,True,1010.9000000059605,61.0,59.0,40.0,360.3324448630276,[],"[720, 450]",ColorTask,98.0,81.0,,,HRV,HRV_0089,2022-11-30 18:48:05
,wl-rdm,199,3145237,0.0-8.81-0.81,1.0,198.0,,,,,,,[],,,,False,,,,62.5,1.0,i,1.0,True,683.0999999940395,41.0,59.0,40.0,203.43905741452318,[],"[720, 450]",ColorTask,99.0,82.0,,,HRV,HRV_0089,2022-11-30 18:48:05
,wl-rdm,200,3147086,0.0-8.82-0.82,1.0,199.0,,,,,,,[],,,,False,,,,50.0,0.0,i,1.0,False,570.1000000089407,35.0,59.0,40.0,212.29469595679808,[],"[720, 450]",ColorTask,98.0,83.0,,,HRV,HRV_0089,2022-11-30 18:48:05
,wl-rdm,201,3149220,0.0-8.83-0.83,1.0,200.0,,,,,,,[],,,,False,,,,87.9,0.0,i,1.0,False,704.5999999940395,43.0,59.0,40.0,339.80854195695804,[],"[720, 450]",ColorTask,97.0,84.0,,,HRV,HRV_0089,2022-11-30 18:48:05
,wl-rdm,202,3150303,0.0-8.84-0.84,1.0,200.0,,,,,,,[],,,,True,too_early ,,,62.5,0.0,u,,,156.90000000596046,0.0,59.0,40.0,254.4336135929356,[],"[720, 450]",ColorTask,96.0,85.0,,,HRV,HRV_0089,2022-11-30 18:48:05
,wl-rdm,203,3152687,0.0-8.85-0.85,1.0,201.0,,,,,,,[],,,,False,,,,73.6,0.0,u,0.0,True,1055.199999988079,64.0,59.0,40.0,253.8865464126935,[],"[720, 450]",ColorTask,97.0,86.0,,,HRV,HRV_0089,2022-11-30 18:48:05
,wl-rdm,204,3154604,0.0-8.86-0.86,1.0,202.0,,,,,,,[],,,,False,,,,73.6,1.0,i,1.0,True,579.5999999940395,35.0,59.0,40.0,270.2030177950609,[],"[720, 450]",ColorTask,98.0,87.0,,,HRV,HRV_0089,2022-11-30 18:48:05
,wl-rdm,205,3157436,0.0-8.87-0.87,1.0,203.0,,,,,,,[],,,,False,,,,53.2,1.0,i,1.0,True,1460.9000000059605,88.0,59.0,40.0,285.522568998094,[],"[720, 450]",ColorTask,99.0,88.0,,,HRV,HRV_0089,2022-11-30 18:48:05
,wl-rdm,206,3159437,0.0-8.88-0.88,1.0,204.0,,,,,,,[],,,,False,,,,56.4,1.0,i,1.0,True,570.2000000029802,35.0,59.0,40.0,342.1119248176494,[],"[720, 450]",ColorTask,100.0,89.0,,,HRV,HRV_0089,2022-11-30 18:48:05
,wl-rdm,207,3161553,0.0-8.89-0.89,1.0,205.0,,,,,,,[],,,,False,,,,73.6,0.0,u,0.0,True,745.5,45.0,59.0,40.0,297.44889945103137,[],"[720, 450]",ColorTask,101.0,90.0,,,HRV,HRV_0089,2022-11-30 18:48:05
,wl-rdm,208,3163853,0.0-8.90-0.90,1.0,206.0,,,,,,,[],,,,False,,,,62.5,0.0,u,0.0,True,920.9000000059605,56.0,59.0,40.0,311.76194586389386,[],"[720, 450]",ColorTask,102.0,91.0,,,HRV,HRV_0089,2022-11-30 18:48:05
,wl-rdm,209,3166119,0.0-8.91-0.91,1.0,207.0,,,,,,,[],,,,False,,,,62.5,0.0,u,0.0,True,880.8000000119209,53.0,59.0,40.0,324.96804027203945,[],"[720, 450]",ColorTask,103.0,92.0,,,HRV,HRV_0089,2022-11-30 18:48:05
,wl-rdm,210,3168187,0.0-8.92-0.92,1.0,208.0,,,,,,,[],,,,False,,,,87.9,1.0,i,1.0,True,685.9999999850988,42.0,59.0,40.0,305.3189508611835,[],"[720, 450]",ColorTask,104.0,93.0,,,HRV,HRV_0089,2022-11-30 18:48:05
,wl-rdm,211,3170270,0.0-8.93-0.93,1.0,209.0,,,,,,,[],,,,False,,,,73.6,0.0,u,0.0,True,676.8000000119209,41.0,59.0,40.0,320.2879055254733,[],"[720, 450]",ColorTask,105.0,94.0,,,HRV,HRV_0089,2022-11-30 18:48:05
,wl-rdm,212,3172287,0.0-8.94-0.94,1.0,210.0,,,,,,,[],,,,False,,,,73.6,0.0,u,0.0,True,670.6999999880791,41.0,59.0,40.0,252.27455670988894,[],"[720, 450]",ColorTask,106.0,95.0,,,HRV,HRV_0089,2022-11-30 18:48:05
,wl-rdm,213,3174236,0.0-8.95-0.95,1.0,211.0,,,,,,,[],,,,False,,,,87.9,1.0,i,1.0,True,541.1999999880791,33.0,59.0,40.0,317.0212159725144,[],"[720, 450]",ColorTask,107.0,96.0,,,HRV,HRV_0089,2022-11-30 18:48:05
,wl-rdm,214,3177353,0.0-8.96-0.96,1.0,212.0,,,,,,,[],,,,False,,,,50.0,1.0,i,1.0,True,1729.8999999910593,104.0,59.0,40.0,311.6541572858571,[],"[720, 450]",ColorTask,108.0,97.0,,,HRV,HRV_0089,2022-11-30 18:48:05
,wl-rdm,215,3179252,0.0-8.97-0.97,1.0,213.0,,,,,,,[],,,,False,,,,62.5,1.0,i,1.0,True,616.7999999970198,37.0,59.0,40.0,214.9318988348571,[],"[720, 450]",ColorTask,109.0,98.0,,,HRV,HRV_0089,2022-11-30 18:48:05
,wl-rdm,216,3181669,0.0-8.98-0.98,1.0,214.0,,,,,,,[],,,,False,,,,62.5,1.0,i,1.0,True,1094.1000000089407,66.0,59.0,40.0,246.6905915645352,[],"[720, 450]",ColorTask,110.0,99.0,,,HRV,HRV_0089,2022-11-30 18:48:05
,wl-rdm,217,3184571,0.0-8.99-0.99,1.0,215.0,,,,,,,[],,,,False,,,,53.2,0.0,i,1.0,False,1621.5999999940395,98.0,59.0,40.0,215.03044244152557,[],"[720, 450]",ColorTask,109.0,100.0,,,HRV,HRV_0089,2022-11-30 18:48:05
,wl-rdm,218,3187786,0.0-8.100-0.100,1.0,216.0,,,,,,,[],,,,False,,,,53.2,0.0,i,1.0,False,1812.300000011921,109.0,59.0,40.0,327.82597825571656,[],"[720, 450]",ColorTask,108.0,101.0,,,HRV,HRV_0089,2022-11-30 18:48:05
,wl-rdm,219,3190220,0.0-8.101-0.101,1.0,217.0,,,,,,,[],,,,False,,,,53.2,0.0,u,0.0,True,1055.800000011921,64.0,59.0,40.0,301.8867278088336,[],"[720, 450]",ColorTask,109.0,102.0,,,HRV,HRV_0089,2022-11-30 18:48:05
,wl-rdm,220,3192153,0.0-8.102-0.102,1.0,218.0,,,,,,,[],,,,False,,,,62.5,0.0,u,0.0,True,661.2000000029802,40.0,59.0,40.0,201.7938300871667,[],"[720, 450]",ColorTask,110.0,103.0,,,HRV,HRV_0089,2022-11-30 18:48:05
,wl-rdm,221,3194454,0.0-8.103-0.103,1.0,219.0,,,,,,,[],,,,False,,,,56.4,1.0,i,1.0,True,999.1999999880791,60.0,59.0,40.0,233.16782352821963,[],"[720, 450]",ColorTask,111.0,104.0,,,HRV,HRV_0089,2022-11-30 18:48:05
,wl-rdm,222,3196620,0.0-8.104-0.104,1.0,220.0,,,,,,,[],,,,False,,,,53.2,0.0,u,0.0,True,880.5999999940395,53.0,59.0,40.0,210.22256481236596,[],"[720, 450]",ColorTask,112.0,105.0,,,HRV,HRV_0089,2022-11-30 18:48:05
,wl-rdm,223,3198703,0.0-8.105-0.105,1.0,221.0,,,,,,,[],,,,False,,,,56.4,1.0,i,1.0,True,637.5,39.0,59.0,40.0,363.24750183927154,[],"[720, 450]",ColorTask,113.0,106.0,,,HRV,HRV_0089,2022-11-30 18:48:05
,wl-rdm,224,3201437,0.0-8.106-0.106,1.0,222.0,,,,,,,[],,,,False,,,,50.0,1.0,i,1.0,True,1438.199999988079,87.0,59.0,40.0,230.75200429097478,[],"[720, 450]",ColorTask,114.0,107.0,,,HRV,HRV_0089,2022-11-30 18:48:05
,wl-rdm,225,3203970,0.0-8.107-0.107,1.0,223.0,,,,,,,[],,,,False,,,,50.0,1.0,u,0.0,False,1196.4000000059605,72.0,59.0,40.0,271.5289000711719,[],"[720, 450]",ColorTask,113.0,108.0,,,HRV,HRV_0089,2022-11-30 18:48:05
,wl-rdm,226,3206087,0.0-8.108-0.108,1.0,224.0,,,,,,,[],,,,False,,,,87.9,1.0,i,1.0,True,703.5,43.0,59.0,40.0,345.53662777805926,[],"[720, 450]",ColorTask,114.0,109.0,,,HRV,HRV_0089,2022-11-30 18:48:05
,wl-html-button-response,227,3207559,0.0-9.0-0.0,,,,,,,,,,1466.2999999970198,,0,,,,,,,,,,,,,,,,,,,,<h3>End of this session. Thank you!</h3><br>,['Close window'],HRV,HRV_0089,2022-11-30 18:48:05
