success,trial_type,trial_index,time_elapsed,internal_node_id,Block,TrialNumber,TrialTime,trialTimeDiff,FPS_avg,FPS_med,FPS_mode,TrialDur,winResizeTime,rt,block,button_pressed,MotCoh,MotDir,ColCoh,Color,ChoiceKey,Choice,Accuracy,RT,nFrames,FPS,PPD,missTrial,missTrialMsg,onsetDelay,fullScreenExitTime,canvCenter,TrialType,Score,BlockTrial,stimulus,button_labels,exp,subjectId,date
True,fullscreen,0,1800,0.0-0.0,0.0,1.0,,,,,,,,,,,,,,,,,,,,,,,,,,,,,,,,HRV,HRV_0139,2022-11-30 18:14:41
,wl-check-fps,1,6798,0.0-1.0,0.0,2.0,"[2486.2, 2492.4, 2509.3, 2525.9, 2542.7, 2559.6, 2576.2, 2593.9, 2610, 2626.4, 2643.5, 2660.1, 2676.8, 2693.7, 2710.8, 2726.2, 2742.8, 2759.4, 2776.4, 2792.9, 2809.6, 2826.1, 2843.2, 2859.7, 2876, 2892.6, 2909.2, 2926, 2942.7, 2959.2, 2975.9, 2992.5, 3014.8, 3025.9, 3047.4, 3059.7, 3075.8, 3092.6, 3109.1, 3125.7, 3142.6, 3159.3, 3176, 3192.8, 3209.3, 3226.1, 3242.7, 3259.5, 3276.2, 3292.9, 3309.6, 3326.2, 3342.7, 3359.6, 3376.1, 3392.8, 3409.6, 3425.9, 3443.4, 3459.2, 3475.9, 3493.4, 3510.1, 3525.9, 3542.5, 3559.2, 3576, 3592.7, 3609.3, 3626, 3642.9, 3659.6, 3676.5, 3693, 3710.2, 3726.8, 3743, 3759.5, 3776.1, 3792.8, 3809.7, 3826.7, 3843.8, 3860, 3876.7, 3893.6, 3910.2, 3927.1, 3943, 3959.5, 3976.2, 3992.9, 4010, 4027.4, 4043.8, 4059.5, 4076.5, 4093.5, 4110.3, 4126.6, 4143.2, 4160.2, 4177, 4193.7, 4209.9, 4226.6, 4243.8, 4260.1, 4277, 4293.7, 4310, 4327, 4343.6, 4360.2, 4376.8, 4393.7, 4410, 4426.8, 4443.9, 4460.4, 4476.3, 4493.7, 4510, 4527, 4543.8, 4560.3, 4576.9, 4594.1, 4610, 4626.8, 4643.8, 4660.2, 4677.1, 4693.2, 4710.6, 4726.3, 4743.4, 4759.6, 4776, 4792.7, 4809.2, 4825.9, 4842.7, 4859.4, 4875.8, 4898.6, 4909.2, 4927.1, 4943.6, 4959.1, 4975.9, 4992.5, 5009.2, 5026.1, 5043, 5059.3, 5076.2, 5093.1, 5109.7, 5126.3, 5142.8, 5159.5, 5176, 5192.7, 5209.5, 5226.1, 5242.9, 5259.8, 5276, 5292.7, 5309.3, 5326.1, 5343, 5359.5, 5376.1, 5392.8, 5409.4, 5426, 5442.8, 5459.3, 5475.9, 5492.7, 5509.2, 5526.1, 5542.6, 5559.7, 5576.5, 5592.9, 5609.6, 5626.5, 5643, 5660, 5676.3, 5693, 5710.1, 5726.4, 5743.8, 5760.3, 5777.1, 5793.6, 5809.8, 5827.2, 5843.8, 5860.2, 5876.3, 5893.3, 5909.6, 5926.3, 5943.6, 5960.4, 5976.5, 5993.4, 6009.4, 6026.1, 6043.6, 6060.1, 6076.5, 6093.6, 6109.9, 6127, 6144.1, 6161.4, 6177.2, 6193.3, 6210.7, 6226.9, 6243.7, 6260.8, 6277.7, 6294.4, 6310.9, 6328.2, 6344.1, 6360.9, 6377.4, 6394.2, 6410.7, 6427.9, 6443.9, 6460.5, 6477, 6494.1, 6510.5, 6527.6, 6544.3, 6562.4, 6577.6, 6593.6, 6611, 6627.4, 6644, 6660.4, 6677.5, 6694.2, 6710.6, 6727.5, 6744.5, 6763.4, 6777, 6793.7, 6810.8, 6827.4, 6844.3, 6863.5, 6876.3, 6893.6, 6909.5, 6926, 6942.7, 6959.3, 6975.9, 6992.7, 7009.4, 7025.8, 7049.1, 7059.2, 7083.7, 7093.4, 7109.4, 7126, 7142.5, 7159.4, 7176, 7192.7, 7209.3, 7226.2, 7242.5, 7259.3, 7276.1, 7292.9, 7309.5, 7326.1, 7342.9, 7359.6, 7376.2, 7392.9, 7409.4, 7426.3, 7442.8, 7459.7]","[3, 6.2, 16.9, 16.6, 16.8, 16.9, 16.6, 17.7, 16.1, 16.4, 17.1, 16.6, 16.7, 16.9, 17.1, 15.4, 16.6, 16.6, 17, 16.5, 16.7, 16.5, 17.1, 16.5, 16.3, 16.6, 16.6, 16.8, 16.7, 16.5, 16.7, 16.6, 22.3, 11.1, 21.5, 12.3, 16.1, 16.8, 16.5, 16.6, 16.9, 16.7, 16.7, 16.8, 16.5, 16.8, 16.6, 16.8, 16.7, 16.7, 16.7, 16.6, 16.5, 16.9, 16.5, 16.7, 16.8, 16.3, 17.5, 15.8, 16.7, 17.5, 16.7, 15.8, 16.6, 16.7, 16.8, 16.7, 16.6, 16.7, 16.9, 16.7, 16.9, 16.5, 17.2, 16.6, 16.2, 16.5, 16.6, 16.7, 16.9, 17, 17.1, 16.2, 16.7, 16.9, 16.6, 16.9, 15.9, 16.5, 16.7, 16.7, 17.1, 17.4, 16.4, 15.7, 17, 17, 16.8, 16.3, 16.6, 17, 16.8, 16.7, 16.2, 16.7, 17.2, 16.3, 16.9, 16.7, 16.3, 17, 16.6, 16.6, 16.6, 16.9, 16.3, 16.8, 17.1, 16.5, 15.9, 17.4, 16.3, 17, 16.8, 16.5, 16.6, 17.2, 15.9, 16.8, 17, 16.4, 16.9, 16.1, 17.4, 15.7, 17.1, 16.2, 16.4, 16.7, 16.5, 16.7, 16.8, 16.7, 16.4, 22.8, 10.6, 17.9, 16.5, 15.5, 16.8, 16.6, 16.7, 16.9, 16.9, 16.3, 16.9, 16.9, 16.6, 16.6, 16.5, 16.7, 16.5, 16.7, 16.8, 16.6, 16.8, 16.9, 16.2, 16.7, 16.6, 16.8, 16.9, 16.5, 16.6, 16.7, 16.6, 16.6, 16.8, 16.5, 16.6, 16.8, 16.5, 16.9, 16.5, 17.1, 16.8, 16.4, 16.7, 16.9, 16.5, 17, 16.3, 16.7, 17.1, 16.3, 17.4, 16.5, 16.8, 16.5, 16.2, 17.4, 16.6, 16.4, 16.1, 17, 16.3, 16.7, 17.3, 16.8, 16.1, 16.9, 16, 16.7, 17.5, 16.5, 16.4, 17.1, 16.3, 17.1, 17.1, 17.3, 15.8, 16.1, 17.4, 16.2, 16.8, 17.1, 16.9, 16.7, 16.5, 17.3, 15.9, 16.8, 16.5, 16.8, 16.5, 17.2, 16, 16.6, 16.5, 17.1, 16.4, 17.1, 16.7, 18.1, 15.2, 16, 17.4, 16.4, 16.6, 16.4, 17.1, 16.7, 16.4, 16.9, 17, 18.9, 13.6, 16.7, 17.1, 16.6, 16.9, 19.2, 12.8, 17.3, 15.9, 16.5, 16.7, 16.6, 16.6, 16.8, 16.7, 16.4, 23.3, 10.1, 24.5, 9.7, 16, 16.6, 16.5, 16.9, 16.6, 16.7, 16.6, 16.9, 16.3, 16.8, 16.8, 16.8, 16.6, 16.6, 16.8, 16.7, 16.6, 16.7, 16.5, 16.9, 16.5, 16.9]",60.0,62.0,60.0,4993.1,[],,,,,,,,,,,,,,,,,,,,,,,,,HRV,HRV_0139,2022-11-30 18:14:41
,wl-html-keyboard-response,2,24195,0.0-2.0-0.0,0.0,3.0,,,,,,,,15382.5,0.0,0,,,,,,,,,,,,,,,,,,,,,,HRV,HRV_0139,2022-11-30 18:14:41
,wl-rdm,3,31247,0.0-3.0-0.0,0.0,4.0,,,,,,,[],,,,0.0,0.0,87.9,0.0,u,0.0,True,1458.5999999996275,88.0,60.0,40.0,False,,3000.0,[],"[645, 430]",ColorTask_Demo,,,,,HRV,HRV_0139,2022-11-30 18:14:41
,wl-rdm,4,35848,0.0-3.0-1.0,0.0,5.0,,,,,,,[],,,,0.0,0.0,87.9,1.0,i,1.0,True,529.3999999985099,32.0,60.0,40.0,False,,2000.0,[],"[645, 430]",ColorTask_Demo,,,,,HRV,HRV_0139,2022-11-30 18:14:41
,wl-html-keyboard-response,5,40450,0.0-3.0-2.0,0.0,6.0,,,,,,,,2594.5,0.0,1,,,,,,,,,,,,,,,,,,,,,,HRV,HRV_0139,2022-11-30 18:14:41
,wl-html-keyboard-response,6,60330,0.0-4.0-0.0,0.0,7.0,,,,,,,,17873.099999999627,0.0,0,,,,,,,,,,,,,,,,,,,,,,HRV,HRV_0139,2022-11-30 18:14:41
,wl-html-keyboard-response,7,70427,0.0-5.0-0.0,0.0,8.0,,,,,,,,8090.5999999996275,0.0,0,,,,,,,,,,,,,,,,,,,,,,HRV,HRV_0139,2022-11-30 18:14:41
,wl-rdm,8,72986,0.0-6.0-0.0,0.0,9.0,,,,,,,[],,,,,,50.0,1.0,i,1.0,True,1143.0999999996275,69.0,60.0,40.0,False,,337.82105354317184,[],"[645, 430]",ColorTask,1.0,1.0,,,HRV,HRV_0139,2022-11-30 18:14:41
,wl-rdm,9,75370,0.0-6.1-0.1,0.0,10.0,,,,,,,[],,,,,,50.0,0.0,u,0.0,True,967.0999999996275,59.0,60.0,40.0,False,,334.93692502209234,[],"[645, 430]",ColorTask,2.0,2.0,,,HRV,HRV_0139,2022-11-30 18:14:41
,wl-rdm,10,77770,0.0-6.2-0.2,0.0,11.0,,,,,,,[],,,,,,62.5,0.0,u,0.0,True,965.6999999992549,58.0,60.0,40.0,False,,371.5535054938397,[],"[645, 430]",ColorTask,3.0,3.0,,,HRV,HRV_0139,2022-11-30 18:14:41
,wl-rdm,11,80002,0.0-6.3-0.3,0.0,12.0,,,,,,,[],,,,,,87.9,0.0,u,0.0,True,815.1999999992549,49.0,60.0,40.0,False,,337.7834301010614,[],"[645, 430]",ColorTask,4.0,4.0,,,HRV,HRV_0139,2022-11-30 18:14:41
,wl-rdm,12,82087,0.0-6.4-0.4,0.0,13.0,,,,,,,[],,,,,,56.4,0.0,i,1.0,False,811.4000000003725,49.0,60.0,40.0,False,,205.7308244244472,[],"[645, 430]",ColorTask,3.0,5.0,,,HRV,HRV_0139,2022-11-30 18:14:41
,wl-rdm,13,84285,0.0-6.5-0.5,0.0,14.0,,,,,,,[],,,,,,50.0,1.0,u,0.0,False,794.0999999996275,48.0,60.0,40.0,False,,316.81927529264067,[],"[645, 430]",ColorTask,2.0,6.0,,,HRV,HRV_0139,2022-11-30 18:14:41
,wl-rdm,14,86519,0.0-6.6-0.6,0.0,15.0,,,,,,,[],,,,,,56.4,1.0,i,1.0,True,874.4000000003725,53.0,60.0,40.0,False,,279.6246298711707,[],"[645, 430]",ColorTask,3.0,7.0,,,HRV,HRV_0139,2022-11-30 18:14:41
,wl-rdm,15,88803,0.0-6.7-0.7,0.0,16.0,,,,,,,[],,,,,,56.4,1.0,i,1.0,True,848.1000000014901,51.0,60.0,40.0,False,,382.4608458715602,[],"[645, 430]",ColorTask,4.0,8.0,,,HRV,HRV_0139,2022-11-30 18:14:41
,wl-rdm,16,91069,0.0-6.8-0.8,0.0,17.0,,,,,,,[],,,,,,56.4,0.0,u,0.0,True,959.8999999985099,58.0,60.0,40.0,False,,236.93998428798238,[],"[645, 430]",ColorTask,5.0,9.0,,,HRV,HRV_0139,2022-11-30 18:14:41
,wl-rdm,17,93402,0.0-6.9-0.9,0.0,18.0,,,,,,,[],,,,,,53.2,1.0,u,0.0,False,879.0999999996275,53.0,60.0,40.0,False,,389.3277153391152,[],"[645, 430]",ColorTask,4.0,10.0,,,HRV,HRV_0139,2022-11-30 18:14:41
,wl-rdm,18,95702,0.0-6.10-0.10,0.0,19.0,,,,,,,[],,,,,,53.2,1.0,i,1.0,True,966.6000000014901,58.0,60.0,40.0,False,,251.98570514521444,[],"[645, 430]",ColorTask,5.0,11.0,,,HRV,HRV_0139,2022-11-30 18:14:41
,wl-rdm,19,97919,0.0-6.11-0.11,0.0,20.0,,,,,,,[],,,,,,87.9,0.0,u,0.0,True,867.7999999988824,53.0,60.0,40.0,False,,277.23223227620684,[],"[645, 430]",ColorTask,6.0,12.0,,,HRV,HRV_0139,2022-11-30 18:14:41
,wl-rdm,20,100102,0.0-6.12-0.12,0.0,21.0,,,,,,,[],,,,,,73.6,0.0,u,0.0,True,769.3999999985099,47.0,60.0,40.0,False,,328.07125884187656,[],"[645, 430]",ColorTask,7.0,13.0,,,HRV,HRV_0139,2022-11-30 18:14:41
,wl-rdm,21,102253,0.0-6.13-0.13,0.0,22.0,,,,,,,[],,,,,,53.2,1.0,i,1.0,True,869.0,53.0,60.0,40.0,False,,204.68783094459434,[],"[645, 430]",ColorTask,8.0,14.0,,,HRV,HRV_0139,2022-11-30 18:14:41
,wl-rdm,22,104336,0.0-6.14-0.14,0.0,23.0,,,,,,,[],,,,,,87.9,0.0,u,0.0,True,775.3000000007451,47.0,60.0,40.0,False,,235.98730000769848,[],"[645, 430]",ColorTask,9.0,15.0,,,HRV,HRV_0139,2022-11-30 18:14:41
,wl-rdm,23,106653,0.0-6.15-0.15,0.0,24.0,,,,,,,[],,,,,,53.2,1.0,i,1.0,True,887.0000000018626,54.0,60.0,40.0,False,,345.3792022055434,[],"[645, 430]",ColorTask,10.0,16.0,,,HRV,HRV_0139,2022-11-30 18:14:41
,wl-rdm,24,108969,0.0-6.16-0.16,0.0,25.0,,,,,,,[],,,,,,53.2,1.0,u,0.0,False,988.4000000003725,60.0,60.0,40.0,False,,256.4858965471599,[],"[645, 430]",ColorTask,9.0,17.0,,,HRV,HRV_0139,2022-11-30 18:14:41
,wl-rdm,25,111086,0.0-6.17-0.17,0.0,26.0,,,,,,,[],,,,,,73.6,1.0,i,1.0,True,765.0999999996275,46.0,60.0,40.0,False,,298.3068277293135,[],"[645, 430]",ColorTask,10.0,18.0,,,HRV,HRV_0139,2022-11-30 18:14:41
,wl-rdm,26,113154,0.0-6.18-0.18,0.0,27.0,,,,,,,[],,,,,,73.6,1.0,i,1.0,True,719.9999999981374,44.0,60.0,40.0,False,,271.42231529363534,[],"[645, 430]",ColorTask,11.0,19.0,,,HRV,HRV_0139,2022-11-30 18:14:41
,wl-rdm,27,115403,0.0-6.19-0.19,0.0,28.0,,,,,,,[],,,,,,87.9,1.0,i,1.0,True,844.9000000022352,51.0,60.0,40.0,False,,324.10333296522293,[],"[645, 430]",ColorTask,12.0,20.0,,,HRV,HRV_0139,2022-11-30 18:14:41
,wl-rdm,28,117686,0.0-6.20-0.20,0.0,29.0,,,,,,,[],,,,,,62.5,0.0,u,0.0,True,852.3000000007451,51.0,60.0,40.0,False,,360.98716028525655,[],"[645, 430]",ColorTask,13.0,21.0,,,HRV,HRV_0139,2022-11-30 18:14:41
,wl-rdm,29,119803,0.0-6.21-0.21,0.0,30.0,,,,,,,[],,,,,,50.0,0.0,i,1.0,False,809.6999999992549,49.0,60.0,40.0,False,,239.1595535523137,[],"[645, 430]",ColorTask,12.0,22.0,,,HRV,HRV_0139,2022-11-30 18:14:41
,wl-rdm,30,121986,0.0-6.22-0.22,0.0,31.0,,,,,,,[],,,,,,50.0,0.0,i,1.0,False,846.8000000007451,51.0,60.0,40.0,False,,276.5198051590784,[],"[645, 430]",ColorTask,11.0,23.0,,,HRV,HRV_0139,2022-11-30 18:14:41
,wl-rdm,31,124053,0.0-6.23-0.23,0.0,32.0,,,,,,,[],,,,,,73.6,0.0,u,0.0,True,735.3000000007451,45.0,60.0,40.0,False,,248.10249658378115,[],"[645, 430]",ColorTask,12.0,24.0,,,HRV,HRV_0139,2022-11-30 18:14:41
,wl-rdm,32,126303,0.0-6.24-0.24,0.0,33.0,,,,,,,[],,,,,,53.2,1.0,i,1.0,True,920.7000000011176,56.0,60.0,40.0,False,,248.07286380521597,[],"[645, 430]",ColorTask,13.0,25.0,,,HRV,HRV_0139,2022-11-30 18:14:41
,wl-rdm,33,128503,0.0-6.25-0.25,0.0,34.0,,,,,,,[],,,,,,50.0,0.0,i,1.0,False,866.8000000007451,52.0,60.0,40.0,False,,260.9949908836615,[],"[645, 430]",ColorTask,12.0,26.0,,,HRV,HRV_0139,2022-11-30 18:14:41
,wl-rdm,34,130837,0.0-6.26-0.26,0.0,35.0,,,,,,,[],,,,,,53.2,1.0,i,1.0,True,894.5,54.0,60.0,40.0,False,,352.47033336778713,[],"[645, 430]",ColorTask,13.0,27.0,,,HRV,HRV_0139,2022-11-30 18:14:41
,wl-rdm,35,133137,0.0-6.27-0.27,0.0,36.0,,,,,,,[],,,,,,56.4,1.0,i,1.0,True,1026.199999999255,62.0,60.0,40.0,False,,208.04050988232424,[],"[645, 430]",ColorTask,14.0,28.0,,,HRV,HRV_0139,2022-11-30 18:14:41
,wl-rdm,36,135687,0.0-6.28-0.28,0.0,37.0,,,,,,,[],,,,,,50.0,1.0,i,1.0,True,1122.0,68.0,60.0,40.0,False,,334.5281598311227,[],"[645, 430]",ColorTask,15.0,29.0,,,HRV,HRV_0139,2022-11-30 18:14:41
,wl-rdm,37,137853,0.0-6.29-0.29,0.0,38.0,,,,,,,[],,,,,,62.5,0.0,u,0.0,True,752.6999999992549,46.0,60.0,40.0,False,,332.75362535356817,[],"[645, 430]",ColorTask,16.0,30.0,,,HRV,HRV_0139,2022-11-30 18:14:41
,wl-rdm,38,140304,0.0-6.30-0.30,0.0,39.0,,,,,,,[],,,,,,62.5,0.0,i,1.0,False,1046.699999999255,63.0,60.0,40.0,False,,341.8775671345518,[],"[645, 430]",ColorTask,15.0,31.0,,,HRV,HRV_0139,2022-11-30 18:14:41
,wl-rdm,39,142654,0.0-6.31-0.31,0.0,40.0,,,,,,,[],,,,,,53.2,0.0,i,1.0,False,1041.699999999255,63.0,60.0,40.0,False,,231.04947824216973,[],"[645, 430]",ColorTask,14.0,32.0,,,HRV,HRV_0139,2022-11-30 18:14:41
,wl-rdm,40,145565,0.0-6.32-0.32,0.0,41.0,,,,,,,[],,,,,,62.5,0.0,u,0.0,True,1625.2999999988824,98.0,60.0,40.0,False,,209.06002381353127,[],"[645, 430]",ColorTask,15.0,33.0,,,HRV,HRV_0139,2022-11-30 18:14:41
,wl-rdm,41,147782,0.0-6.33-0.33,0.0,42.0,,,,,,,[],,,,,,87.9,0.0,u,0.0,True,901.6000000014901,55.0,60.0,40.0,False,,220.72752128360582,[],"[645, 430]",ColorTask,16.0,34.0,,,HRV,HRV_0139,2022-11-30 18:14:41
,wl-rdm,42,150200,0.0-6.34-0.34,0.0,43.0,,,,,,,[],,,,,,56.4,0.0,u,0.0,True,998.2999999988824,60.0,60.0,40.0,False,,347.25313416221366,[],"[645, 430]",ColorTask,17.0,35.0,,,HRV,HRV_0139,2022-11-30 18:14:41
,wl-rdm,43,152216,0.0-6.35-0.35,0.0,44.0,,,,,,,[],,,,,,62.5,1.0,i,1.0,True,659.6999999992549,40.0,60.0,40.0,False,,267.3778628705984,[],"[645, 430]",ColorTask,18.0,36.0,,,HRV,HRV_0139,2022-11-30 18:14:41
,wl-rdm,44,154317,0.0-6.36-0.36,0.0,45.0,,,,,,,[],,,,,,87.9,0.0,u,0.0,True,704.0999999996275,43.0,60.0,40.0,False,,319.873995066977,[],"[645, 430]",ColorTask,19.0,37.0,,,HRV,HRV_0139,2022-11-30 18:14:41
,wl-rdm,45,156766,0.0-6.37-0.37,0.0,46.0,,,,,,,[],,,,,,62.5,1.0,i,1.0,True,1036.2000000011176,63.0,60.0,40.0,False,,316.6896162947112,[],"[645, 430]",ColorTask,20.0,38.0,,,HRV,HRV_0139,2022-11-30 18:14:41
,wl-rdm,46,159015,0.0-6.38-0.38,0.0,47.0,,,,,,,[],,,,,,87.9,1.0,i,1.0,True,840.5999999996275,51.0,60.0,40.0,False,,320.1382129652918,[],"[645, 430]",ColorTask,21.0,39.0,,,HRV,HRV_0139,2022-11-30 18:14:41
,wl-rdm,47,161183,0.0-6.39-0.39,0.0,48.0,,,,,,,[],,,,,,73.6,0.0,u,0.0,True,776.1999999992549,47.0,60.0,40.0,False,,330.2917502666219,[],"[645, 430]",ColorTask,22.0,40.0,,,HRV,HRV_0139,2022-11-30 18:14:41
,wl-rdm,48,163298,0.0-6.40-0.40,0.0,49.0,,,,,,,[],,,,,,87.9,1.0,i,1.0,True,681.5999999996275,41.0,60.0,40.0,False,,357.09724266881847,[],"[645, 430]",ColorTask,23.0,41.0,,,HRV,HRV_0139,2022-11-30 18:14:41
,wl-rdm,49,165265,0.0-6.41-0.41,0.0,50.0,,,,,,,[],,,,,,87.9,0.0,u,0.0,True,648.3000000007451,39.0,60.0,40.0,False,,263.95555808814345,[],"[645, 430]",ColorTask,24.0,42.0,,,HRV,HRV_0139,2022-11-30 18:14:41
,wl-rdm,50,167348,0.0-6.42-0.42,0.0,51.0,,,,,,,[],,,,,,73.6,1.0,i,1.0,True,641.4000000003725,39.0,60.0,40.0,False,,352.9727398783655,[],"[645, 430]",ColorTask,25.0,43.0,,,HRV,HRV_0139,2022-11-30 18:14:41
,wl-rdm,51,169232,0.0-6.43-0.43,0.0,52.0,,,,,,,[],,,,,,87.9,1.0,i,1.0,True,572.3000000007451,35.0,60.0,40.0,False,,220.2736565024438,[],"[645, 430]",ColorTask,26.0,44.0,,,HRV,HRV_0139,2022-11-30 18:14:41
,wl-rdm,52,171699,0.0-6.44-0.44,0.0,53.0,,,,,,,[],,,,,,73.6,1.0,i,1.0,True,1121.699999999255,68.0,60.0,40.0,False,,256.4056517050469,[],"[645, 430]",ColorTask,27.0,45.0,,,HRV,HRV_0139,2022-11-30 18:14:41
,wl-rdm,53,173949,0.0-6.45-0.45,0.0,54.0,,,,,,,[],,,,,,56.4,0.0,u,0.0,True,956.9000000003725,58.0,60.0,40.0,False,,223.11179197796713,[],"[645, 430]",ColorTask,28.0,46.0,,,HRV,HRV_0139,2022-11-30 18:14:41
,wl-rdm,54,176000,0.0-6.46-0.46,0.0,55.0,,,,,,,[],,,,,,62.5,1.0,i,1.0,True,652.0999999996275,40.0,60.0,40.0,False,,323.3866745603332,[],"[645, 430]",ColorTask,29.0,47.0,,,HRV,HRV_0139,2022-11-30 18:14:41
,wl-rdm,55,178816,0.0-6.47-0.47,0.0,56.0,,,,,,,[],,,,,,50.0,0.0,u,0.0,True,1380.1000000014901,83.0,60.0,40.0,False,,353.6887308728626,[],"[645, 430]",ColorTask,30.0,48.0,,,HRV,HRV_0139,2022-11-30 18:14:41
,wl-rdm,56,180767,0.0-6.48-0.48,0.0,57.0,,,,,,,[],,,,,,53.2,1.0,i,1.0,True,655.6999999992549,40.0,60.0,40.0,False,,220.28346212103727,[],"[645, 430]",ColorTask,31.0,49.0,,,HRV,HRV_0139,2022-11-30 18:14:41
,wl-rdm,57,182884,0.0-6.49-0.49,0.0,58.0,,,,,,,[],,,,,,62.5,0.0,u,0.0,True,824.2999999988824,50.0,60.0,40.0,False,,217.51516256517849,[],"[645, 430]",ColorTask,32.0,50.0,,,HRV,HRV_0139,2022-11-30 18:14:41
,wl-rdm,58,184866,0.0-6.50-0.50,0.0,59.0,,,,,,,[],,,,,,87.9,0.0,u,0.0,True,649.7999999988824,39.0,60.0,40.0,False,,265.1847977561267,[],"[645, 430]",ColorTask,33.0,51.0,,,HRV,HRV_0139,2022-11-30 18:14:41
,wl-rdm,59,187349,0.0-6.51-0.51,0.0,60.0,,,,,,,[],,,,,,50.0,1.0,i,1.0,True,1011.9000000003725,61.0,60.0,40.0,False,,381.33794459721946,[],"[645, 430]",ColorTask,34.0,52.0,,,HRV,HRV_0139,2022-11-30 18:14:41
,wl-rdm,60,189666,0.0-6.52-0.52,0.0,61.0,,,,,,,[],,,,,,56.4,0.0,i,1.0,False,898.8000000007451,55.0,60.0,40.0,False,,320.81475594218443,[],"[645, 430]",ColorTask,33.0,53.0,,,HRV,HRV_0139,2022-11-30 18:14:41
,wl-rdm,61,192200,0.0-6.53-0.53,0.0,62.0,,,,,,,[],,,,,,53.2,0.0,i,1.0,False,1240.699999999255,75.0,60.0,40.0,False,,214.1547405898007,[],"[645, 430]",ColorTask,32.0,54.0,,,HRV,HRV_0139,2022-11-30 18:14:41
,wl-rdm,62,194266,0.0-6.54-0.54,0.0,63.0,,,,,,,[],,,,,,62.5,1.0,i,1.0,True,771.5999999996275,47.0,60.0,40.0,False,,219.32302803194483,[],"[645, 430]",ColorTask,33.0,55.0,,,HRV,HRV_0139,2022-11-30 18:14:41
,wl-rdm,63,196716,0.0-6.55-0.55,0.0,64.0,,,,,,,[],,,,,,50.0,1.0,i,1.0,True,1105.7000000011176,67.0,60.0,40.0,False,,262.27440153419604,[],"[645, 430]",ColorTask,34.0,56.0,,,HRV,HRV_0139,2022-11-30 18:14:41
,wl-rdm,64,199433,0.0-6.56-0.56,0.0,65.0,,,,,,,[],,,,,,73.6,0.0,u,0.0,True,1385.7999999988824,84.0,60.0,40.0,False,,266.0346373569216,[],"[645, 430]",ColorTask,35.0,57.0,,,HRV,HRV_0139,2022-11-30 18:14:41
,wl-rdm,65,201566,0.0-6.57-0.57,0.0,66.0,,,,,,,[],,,,,,73.6,1.0,i,1.0,True,657.1000000014901,40.0,60.0,40.0,False,,387.04583667104,[],"[645, 430]",ColorTask,36.0,58.0,,,HRV,HRV_0139,2022-11-30 18:14:41
,wl-rdm,66,203688,0.0-6.58-0.58,0.0,67.0,,,,,,,[],,,,,,73.6,1.0,i,1.0,True,759.6000000014901,46.0,60.0,40.0,False,,284.53250327404515,[],"[645, 430]",ColorTask,37.0,59.0,,,HRV,HRV_0139,2022-11-30 18:14:41
,wl-rdm,67,206454,0.0-6.59-0.59,0.0,68.0,,,,,,,[],,,,,,56.4,0.0,u,0.0,True,1457.4000000003725,88.0,60.0,40.0,False,,227.71570526293314,[],"[645, 430]",ColorTask,38.0,60.0,,,HRV,HRV_0139,2022-11-30 18:14:41
,wl-rdm,68,208388,0.0-6.60-0.60,0.0,69.0,,,,,,,[],,,,,,73.6,1.0,i,1.0,True,620.9000000003725,38.0,60.0,40.0,False,,247.31473222742972,[],"[645, 430]",ColorTask,39.0,61.0,,,HRV,HRV_0139,2022-11-30 18:14:41
,wl-rdm,69,210439,0.0-6.61-0.61,0.0,70.0,,,,,,,[],,,,,,50.0,1.0,i,1.0,True,706.9000000003725,43.0,60.0,40.0,False,,277.55543782961576,[],"[645, 430]",ColorTask,40.0,62.0,,,HRV,HRV_0139,2022-11-30 18:14:41
,wl-rdm,70,212655,0.0-6.62-0.62,0.0,71.0,,,,,,,[],,,,,,53.2,0.0,i,1.0,False,886.6999999992549,54.0,60.0,40.0,False,,264.36992665866757,[],"[645, 430]",ColorTask,39.0,63.0,,,HRV,HRV_0139,2022-11-30 18:14:41
,wl-rdm,71,214488,0.0-6.63-0.63,0.0,72.0,,,,,,,[],,,,,,53.2,0.0,i,1.0,False,529.5999999996275,32.0,60.0,40.0,False,,215.92457079767752,[],"[645, 430]",ColorTask,38.0,64.0,,,HRV,HRV_0139,2022-11-30 18:14:41
,wl-rdm,72,216639,0.0-6.64-0.64,0.0,73.0,,,,,,,[],,,,,,56.4,1.0,i,1.0,True,862.5999999996275,52.0,60.0,40.0,False,,216.95887197220725,[],"[645, 430]",ColorTask,39.0,65.0,,,HRV,HRV_0139,2022-11-30 18:14:41
,wl-rdm,73,218672,0.0-6.65-0.65,0.0,74.0,,,,,,,[],,,,,,62.5,0.0,i,1.0,False,673.2000000011176,41.0,60.0,40.0,False,,269.0882716227742,[],"[645, 430]",ColorTask,38.0,66.0,,,HRV,HRV_0139,2022-11-30 18:14:41
,wl-rdm,74,221056,0.0-6.66-0.66,0.0,75.0,,,,,,,[],,,,,,53.2,0.0,i,1.0,False,1112.5,67.0,60.0,40.0,False,,211.6216818550126,[],"[645, 430]",ColorTask,37.0,67.0,,,HRV,HRV_0139,2022-11-30 18:14:41
,wl-rdm,75,223089,0.0-6.67-0.67,0.0,76.0,,,,,,,[],,,,,,56.4,1.0,i,1.0,True,575.4999999981374,35.0,60.0,40.0,False,,397.67750458557595,[],"[645, 430]",ColorTask,38.0,68.0,,,HRV,HRV_0139,2022-11-30 18:14:41
,wl-rdm,76,224905,0.0-6.68-0.68,0.0,77.0,,,,,,,[],,,,,,87.9,0.0,u,0.0,True,547.9999999981374,33.0,60.0,40.0,False,,209.66424585094646,[],"[645, 430]",ColorTask,39.0,69.0,,,HRV,HRV_0139,2022-11-30 18:14:41
,wl-rdm,77,227255,0.0-6.69-0.69,0.0,78.0,,,,,,,[],,,,,,50.0,1.0,u,0.0,False,974.3000000007451,59.0,60.0,40.0,False,,295.8368095987059,[],"[645, 430]",ColorTask,38.0,70.0,,,HRV,HRV_0139,2022-11-30 18:14:41
,wl-rdm,78,229206,0.0-6.70-0.70,0.0,79.0,,,,,,,[],,,,,,53.2,0.0,i,1.0,False,535.0999999996275,33.0,60.0,40.0,False,,343.05659119600693,[],"[645, 430]",ColorTask,37.0,71.0,,,HRV,HRV_0139,2022-11-30 18:14:41
,wl-rdm,79,231055,0.0-6.71-0.71,0.0,80.0,,,,,,,[],,,,,,73.6,1.0,i,1.0,True,559.9000000003725,34.0,60.0,40.0,False,,212.3994506306371,[],"[645, 430]",ColorTask,38.0,72.0,,,HRV,HRV_0139,2022-11-30 18:14:41
,wl-rdm,80,233773,0.0-6.72-0.72,0.0,81.0,,,,,,,[],,,,,,56.4,0.0,i,1.0,False,1406.7000000029802,85.0,60.0,40.0,False,,246.15547507787306,[],"[645, 430]",ColorTask,37.0,73.0,,,HRV,HRV_0139,2022-11-30 18:14:41
,wl-rdm,81,236305,0.0-6.73-0.73,0.0,82.0,,,,,,,[],,,,,,50.0,0.0,u,0.0,True,1226.9000000003725,74.0,60.0,40.0,False,,234.7830422513118,[],"[645, 430]",ColorTask,38.0,74.0,,,HRV,HRV_0139,2022-11-30 18:14:41
,wl-rdm,82,238372,0.0-6.74-0.74,0.0,83.0,,,,,,,[],,,,,,87.9,1.0,i,1.0,True,622.2000000011176,38.0,60.0,40.0,False,,362.3509172464914,[],"[645, 430]",ColorTask,39.0,75.0,,,HRV,HRV_0139,2022-11-30 18:14:41
,wl-rdm,83,240605,0.0-6.75-0.75,0.0,84.0,,,,,,,[],,,,,,62.5,0.0,i,1.0,False,778.5,47.0,60.0,40.0,False,,380.57252175791757,[],"[645, 430]",ColorTask,38.0,76.0,,,HRV,HRV_0139,2022-11-30 18:14:41
,wl-rdm,84,242505,0.0-6.76-0.76,0.0,85.0,,,,,,,[],,,,,,87.9,1.0,i,1.0,True,586.0000000018626,36.0,60.0,40.0,False,,230.10133777494062,[],"[645, 430]",ColorTask,39.0,77.0,,,HRV,HRV_0139,2022-11-30 18:14:41
,wl-rdm,85,244756,0.0-6.77-0.77,0.0,86.0,,,,,,,[],,,,,,73.6,0.0,u,0.0,True,778.8999999985099,47.0,60.0,40.0,False,,389.9203973075359,[],"[645, 430]",ColorTask,40.0,78.0,,,HRV,HRV_0139,2022-11-30 18:14:41
,wl-rdm,86,247089,0.0-6.78-0.78,0.0,87.0,,,,,,,[],,,,,,62.5,1.0,i,1.0,True,1063.2999999988824,64.0,60.0,40.0,False,,205.70003120870533,[],"[645, 430]",ColorTask,41.0,79.0,,,HRV,HRV_0139,2022-11-30 18:14:41
,wl-rdm,87,249673,0.0-6.79-0.79,0.0,88.0,,,,,,,[],,,,,,56.4,1.0,i,1.0,True,1127.6000000014901,68.0,60.0,40.0,False,,389.47109699169243,[],"[645, 430]",ColorTask,42.0,80.0,,,HRV,HRV_0139,2022-11-30 18:14:41
,wl-rdm,88,252523,0.0-6.80-0.80,0.0,89.0,,,,,,,[],,,,,,53.2,0.0,i,1.0,False,1388.5,84.0,60.0,40.0,False,,376.5216410988285,[],"[645, 430]",ColorTask,41.0,81.0,,,HRV,HRV_0139,2022-11-30 18:14:41
,wl-rdm,89,254807,0.0-6.81-0.81,0.0,90.0,,,,,,,[],,,,,,50.0,1.0,i,1.0,True,945.6999999992549,57.0,60.0,40.0,False,,278.6650984411132,[],"[645, 430]",ColorTask,42.0,82.0,,,HRV,HRV_0139,2022-11-30 18:14:41
,wl-rdm,90,256773,0.0-6.82-0.82,0.0,91.0,,,,,,,[],,,,,,73.6,0.0,u,0.0,True,637.6999999992549,39.0,60.0,40.0,False,,243.67989935802635,[],"[645, 430]",ColorTask,43.0,83.0,,,HRV,HRV_0139,2022-11-30 18:14:41
,wl-rdm,91,258672,0.0-6.83-0.83,0.0,92.0,,,,,,,[],,,,,,87.9,1.0,i,1.0,True,591.0000000018626,36.0,60.0,40.0,False,,241.85719826509666,[],"[645, 430]",ColorTask,44.0,84.0,,,HRV,HRV_0139,2022-11-30 18:14:41
,wl-rdm,92,260890,0.0-6.84-0.84,0.0,93.0,,,,,,,[],,,,,,73.6,0.0,u,0.0,True,921.0999999996275,56.0,60.0,40.0,False,,218.6058458425091,[],"[645, 430]",ColorTask,45.0,85.0,,,HRV,HRV_0139,2022-11-30 18:14:41
,wl-rdm,93,262919,0.0-6.85-0.85,0.0,94.0,,,,,,,[],,,,,,87.9,1.0,i,1.0,True,611.0999999996275,37.0,60.0,40.0,False,,357.1160028771079,[],"[645, 430]",ColorTask,46.0,86.0,,,HRV,HRV_0139,2022-11-30 18:14:41
,wl-rdm,94,265019,0.0-6.86-0.86,0.0,95.0,,,,,,,[],,,,,,53.2,1.0,i,1.0,True,781.9000000003725,47.0,60.0,40.0,False,,257.8551234335564,[],"[645, 430]",ColorTask,47.0,87.0,,,HRV,HRV_0139,2022-11-30 18:14:41
,wl-rdm,95,267301,0.0-6.87-0.87,0.0,96.0,,,,,,,[],,,,,,73.6,0.0,u,0.0,True,840.9000000003725,51.0,60.0,40.0,False,,357.96253212752754,[],"[645, 430]",ColorTask,48.0,88.0,,,HRV,HRV_0139,2022-11-30 18:14:41
,wl-rdm,96,270336,0.0-6.88-0.88,0.0,97.0,,,,,,,[],,,,,,56.4,1.0,i,1.0,True,1735.5,105.0,60.0,40.0,False,,201.98137857360769,[],"[645, 430]",ColorTask,49.0,89.0,,,HRV,HRV_0139,2022-11-30 18:14:41
,wl-rdm,97,272302,0.0-6.89-0.89,0.0,98.0,,,,,,,[],,,,,,56.4,1.0,i,1.0,True,640.3000000007451,39.0,60.0,40.0,False,,265.5205805893527,[],"[645, 430]",ColorTask,50.0,90.0,,,HRV,HRV_0139,2022-11-30 18:14:41
,wl-rdm,98,274552,0.0-6.90-0.90,0.0,99.0,,,,,,,[],,,,,,50.0,0.0,i,1.0,False,981.0999999996275,59.0,60.0,40.0,False,,201.94331278005373,[],"[645, 430]",ColorTask,49.0,91.0,,,HRV,HRV_0139,2022-11-30 18:14:41
,wl-rdm,99,277585,0.0-6.91-0.91,0.0,100.0,,,,,,,[],,,,,,50.0,0.0,i,1.0,False,1628.800000000745,98.0,60.0,40.0,False,,332.6992584333087,[],"[645, 430]",ColorTask,48.0,92.0,,,HRV,HRV_0139,2022-11-30 18:14:41
,wl-rdm,100,279853,0.0-6.92-0.92,0.0,101.0,,,,,,,[],,,,,,50.0,1.0,i,1.0,True,917.4999999981374,56.0,60.0,40.0,False,,264.679131584916,[],"[645, 430]",ColorTask,49.0,93.0,,,HRV,HRV_0139,2022-11-30 18:14:41
,wl-rdm,101,282602,0.0-6.93-0.93,0.0,102.0,,,,,,,[],,,,,,62.5,1.0,i,1.0,True,1419.800000000745,85.0,60.0,40.0,False,,262.2063819819128,[],"[645, 430]",ColorTask,50.0,94.0,,,HRV,HRV_0139,2022-11-30 18:14:41
,wl-rdm,102,284903,0.0-6.94-0.94,0.0,103.0,,,,,,,[],,,,,,62.5,0.0,u,0.0,True,939.7999999988824,57.0,60.0,40.0,False,,276.88287858246747,[],"[645, 430]",ColorTask,51.0,95.0,,,HRV,HRV_0139,2022-11-30 18:14:41
,wl-rdm,103,287103,0.0-6.95-0.95,0.0,104.0,,,,,,,[],,,,,,62.5,1.0,i,1.0,True,899.2000000011176,54.0,60.0,40.0,False,,245.0921801691184,[],"[645, 430]",ColorTask,52.0,96.0,,,HRV,HRV_0139,2022-11-30 18:14:41
,wl-rdm,104,289302,0.0-6.96-0.96,0.0,105.0,,,,,,,[],,,,,,73.6,1.0,i,1.0,True,826.0999999996275,50.0,60.0,40.0,False,,288.6201813868379,[],"[645, 430]",ColorTask,53.0,97.0,,,HRV,HRV_0139,2022-11-30 18:14:41
,wl-rdm,105,291619,0.0-6.97-0.97,0.0,106.0,,,,,,,[],,,,,,56.4,0.0,i,1.0,False,1040.7999999988824,63.0,60.0,40.0,False,,202.73555459858073,[],"[645, 430]",ColorTask,52.0,98.0,,,HRV,HRV_0139,2022-11-30 18:14:41
,wl-rdm,106,293669,0.0-6.98-0.98,0.0,107.0,,,,,,,[],,,,,,53.2,0.0,u,0.0,True,747.5999999996275,45.0,60.0,40.0,False,,216.9210706795178,[],"[645, 430]",ColorTask,53.0,99.0,,,HRV,HRV_0139,2022-11-30 18:14:41
,wl-rdm,107,296452,0.0-6.99-0.99,0.0,108.0,,,,,,,[],,,,,,53.2,0.0,u,0.0,True,1418.199999999255,86.0,60.0,40.0,False,,269.44013113954315,[],"[645, 430]",ColorTask,54.0,100.0,,,HRV,HRV_0139,2022-11-30 18:14:41
,wl-rdm,108,298937,0.0-6.100-0.100,0.0,109.0,,,,,,,[],,,,,,56.4,0.0,i,1.0,False,1031.9000000003725,62.0,60.0,40.0,False,,384.778388629887,[],"[645, 430]",ColorTask,53.0,101.0,,,HRV,HRV_0139,2022-11-30 18:14:41
,wl-rdm,109,300936,0.0-6.101-0.101,0.0,110.0,,,,,,,[],,,,,,62.5,1.0,i,1.0,True,626.5999999996275,38.0,60.0,40.0,False,,302.387789440627,[],"[645, 430]",ColorTask,54.0,102.0,,,HRV,HRV_0139,2022-11-30 18:14:41
,wl-rdm,110,303136,0.0-6.102-0.102,0.0,111.0,,,,,,,[],,,,,,87.9,0.0,u,0.0,True,779.8999999985099,47.0,60.0,40.0,False,,366.28711829328006,[],"[645, 430]",ColorTask,55.0,103.0,,,HRV,HRV_0139,2022-11-30 18:14:41
,wl-rdm,111,305120,0.0-6.103-0.103,0.0,112.0,,,,,,,[],,,,,,56.4,1.0,i,1.0,True,589.5,36.0,60.0,40.0,False,,319.6659190917214,[],"[645, 430]",ColorTask,56.0,104.0,,,HRV,HRV_0139,2022-11-30 18:14:41
,wl-rdm,112,307103,0.0-6.104-0.104,0.0,113.0,,,,,,,[],,,,,,87.9,1.0,i,1.0,True,666.0999999996275,40.0,60.0,40.0,False,,246.2449164929779,[],"[645, 430]",ColorTask,57.0,105.0,,,HRV,HRV_0139,2022-11-30 18:14:41
,wl-rdm,113,309086,0.0-6.105-0.105,0.0,114.0,,,,,,,[],,,,,,73.6,0.0,u,0.0,True,577.5999999996275,35.0,60.0,40.0,False,,341.9478635519598,[],"[645, 430]",ColorTask,58.0,106.0,,,HRV,HRV_0139,2022-11-30 18:14:41
,wl-rdm,114,311036,0.0-6.106-0.106,0.0,115.0,,,,,,,[],,,,,,62.5,1.0,i,1.0,True,569.4000000003725,35.0,60.0,40.0,False,,287.3090763428867,[],"[645, 430]",ColorTask,59.0,107.0,,,HRV,HRV_0139,2022-11-30 18:14:41
,wl-rdm,115,313354,0.0-6.107-0.107,0.0,116.0,,,,,,,[],,,,,,50.0,0.0,i,1.0,False,922.0,56.0,60.0,40.0,False,,328.8287799416512,[],"[645, 430]",ColorTask,58.0,108.0,,,HRV,HRV_0139,2022-11-30 18:14:41
,wl-html-keyboard-response,116,323876,0.0-7.0-0.0,1.0,117.0,,,,,,,,8500.0,1.0,0,,,,,,,,,,,,,,,,,,,,,,HRV,HRV_0139,2022-11-30 18:14:41
,wl-rdm,117,325834,0.0-8.0-0.0,1.0,118.0,,,,,,,[],,,,,,87.9,1.0,i,1.0,True,614.4000000003725,37.0,60.0,40.0,False,,267.6088219965798,[],"[645, 430]",ColorTask,59.0,1.0,,,HRV,HRV_0139,2022-11-30 18:14:41
,wl-rdm,118,327868,0.0-8.1-0.1,1.0,119.0,,,,,,,[],,,,,,62.5,0.0,i,1.0,False,617.1999999992549,38.0,60.0,40.0,False,,327.7679216373959,[],"[645, 430]",ColorTask,58.0,2.0,,,HRV,HRV_0139,2022-11-30 18:14:41
,wl-rdm,119,329819,0.0-8.2-0.2,1.0,120.0,,,,,,,[],,,,,,50.0,0.0,i,1.0,False,502.3000000026077,31.0,60.0,40.0,False,,369.42354864807794,[],"[645, 430]",ColorTask,57.0,3.0,,,HRV,HRV_0139,2022-11-30 18:14:41
,wl-rdm,120,332002,0.0-8.3-0.3,1.0,121.0,,,,,,,[],,,,,,53.2,0.0,i,1.0,False,861.5999999996275,52.0,60.0,40.0,False,,248.5172795513966,[],"[645, 430]",ColorTask,56.0,4.0,,,HRV,HRV_0139,2022-11-30 18:14:41
,wl-rdm,121,334186,0.0-8.4-0.4,1.0,122.0,,,,,,,[],,,,,,62.5,1.0,i,1.0,True,908.7000000011176,55.0,60.0,40.0,False,,210.70046972371497,[],"[645, 430]",ColorTask,57.0,5.0,,,HRV,HRV_0139,2022-11-30 18:14:41
,wl-rdm,122,336602,0.0-8.5-0.5,1.0,123.0,,,,,,,[],,,,,,62.5,0.0,u,0.0,True,999.0999999996275,60.0,60.0,40.0,False,,363.33504955323417,[],"[645, 430]",ColorTask,58.0,6.0,,,HRV,HRV_0139,2022-11-30 18:14:41
,wl-rdm,123,339103,0.0-8.6-0.6,1.0,124.0,,,,,,,[],,,,,,73.6,1.0,i,1.0,True,1209.699999999255,73.0,60.0,40.0,False,,226.67308046181878,[],"[645, 430]",ColorTask,59.0,7.0,,,HRV,HRV_0139,2022-11-30 18:14:41
,wl-rdm,124,341002,0.0-8.7-0.7,1.0,125.0,,,,,,,[],,,,,,73.6,1.0,i,1.0,True,622.0999999996275,38.0,60.0,40.0,False,,211.48478067626834,[],"[645, 430]",ColorTask,60.0,8.0,,,HRV,HRV_0139,2022-11-30 18:14:41
,wl-rdm,125,342919,0.0-8.8-0.8,1.0,126.0,,,,,,,[],,,,,,73.6,1.0,i,1.0,True,626.6999999992549,38.0,60.0,40.0,False,,231.8261939444572,[],"[645, 430]",ColorTask,61.0,9.0,,,HRV,HRV_0139,2022-11-30 18:14:41
,wl-rdm,126,345368,0.0-8.9-0.9,1.0,127.0,,,,,,,[],,,,,,50.0,0.0,u,0.0,True,1157.2999999988824,70.0,60.0,40.0,False,,201.72771382255948,[],"[645, 430]",ColorTask,62.0,10.0,,,HRV,HRV_0139,2022-11-30 18:14:41
,wl-rdm,127,347519,0.0-8.10-0.10,1.0,128.0,,,,,,,[],,,,,,62.5,1.0,i,1.0,True,866.8000000007451,52.0,60.0,40.0,False,,230.13918291951168,[],"[645, 430]",ColorTask,63.0,11.0,,,HRV,HRV_0139,2022-11-30 18:14:41
,wl-rdm,128,349786,0.0-8.11-0.11,1.0,129.0,,,,,,,[],,,,,,53.2,1.0,i,1.0,True,862.0000000018626,52.0,60.0,40.0,False,,327.65118781075813,[],"[645, 430]",ColorTask,64.0,12.0,,,HRV,HRV_0139,2022-11-30 18:14:41
,wl-rdm,129,351885,0.0-8.12-0.12,1.0,130.0,,,,,,,[],,,,,,56.4,1.0,u,0.0,False,785.0,47.0,60.0,40.0,False,,239.79535736625218,[],"[645, 430]",ColorTask,63.0,13.0,,,HRV,HRV_0139,2022-11-30 18:14:41
,wl-rdm,130,354718,0.0-8.13-0.13,1.0,131.0,,,,,,,[],,,,,,62.5,1.0,u,0.0,False,1393.0999999996275,84.0,60.0,40.0,False,,361.5166472555816,[],"[645, 430]",ColorTask,62.0,14.0,,,HRV,HRV_0139,2022-11-30 18:14:41
,wl-rdm,131,356936,0.0-8.14-0.14,1.0,132.0,,,,,,,[],,,,,,56.4,1.0,i,1.0,True,766.7000000011176,46.0,60.0,40.0,False,,371.29916552932366,[],"[645, 430]",ColorTask,63.0,15.0,,,HRV,HRV_0139,2022-11-30 18:14:41
,wl-rdm,132,359435,0.0-8.15-0.15,1.0,133.0,,,,,,,[],,,,,,56.4,1.0,i,1.0,True,1149.5,69.0,60.0,40.0,False,,275.8076846042954,[],"[645, 430]",ColorTask,64.0,16.0,,,HRV,HRV_0139,2022-11-30 18:14:41
,wl-rdm,133,361719,0.0-8.16-0.16,1.0,134.0,,,,,,,[],,,,,,56.4,1.0,i,1.0,True,987.7999999988824,60.0,60.0,40.0,False,,205.0796786614027,[],"[645, 430]",ColorTask,65.0,17.0,,,HRV,HRV_0139,2022-11-30 18:14:41
,wl-rdm,134,363935,0.0-8.17-0.17,1.0,135.0,,,,,,,[],,,,,,56.4,0.0,i,1.0,False,847.2999999988824,51.0,60.0,40.0,False,,290.63389028910774,[],"[645, 430]",ColorTask,64.0,18.0,,,HRV,HRV_0139,2022-11-30 18:14:41
,wl-rdm,135,366837,0.0-8.18-0.18,1.0,136.0,,,,,,,[],,,,,,50.0,1.0,i,1.0,True,1572.4000000003725,95.0,60.0,40.0,False,,254.25174496950382,[],"[645, 430]",ColorTask,65.0,19.0,,,HRV,HRV_0139,2022-11-30 18:14:41
,wl-rdm,136,369519,0.0-8.19-0.19,1.0,137.0,,,,,,,[],,,,,,73.6,1.0,i,1.0,True,1377.5,83.0,60.0,40.0,False,,224.7162244366823,[],"[645, 430]",ColorTask,66.0,20.0,,,HRV,HRV_0139,2022-11-30 18:14:41
,wl-rdm,137,372387,0.0-8.20-0.20,1.0,138.0,,,,,,,[],,,,,,50.0,1.0,u,0.0,False,1555.4000000003725,94.0,60.0,40.0,False,,228.75660829078578,[],"[645, 430]",ColorTask,65.0,21.0,,,HRV,HRV_0139,2022-11-30 18:14:41
,wl-rdm,138,375103,0.0-8.21-0.21,1.0,139.0,,,,,,,[],,,,,,50.0,0.0,i,1.0,False,1320.4000000022352,80.0,60.0,40.0,False,,318.37314740054535,[],"[645, 430]",ColorTask,64.0,22.0,,,HRV,HRV_0139,2022-11-30 18:14:41
,wl-rdm,139,377369,0.0-8.22-0.22,1.0,140.0,,,,,,,[],,,,,,53.2,0.0,i,1.0,False,915.9000000003725,55.0,60.0,40.0,False,,275.8346592283531,[],"[645, 430]",ColorTask,63.0,23.0,,,HRV,HRV_0139,2022-11-30 18:14:41
,wl-rdm,140,379337,0.0-8.23-0.23,1.0,141.0,,,,,,,[],,,,,,73.6,1.0,i,1.0,True,682.5999999996275,41.0,60.0,40.0,False,,223.17169247431335,[],"[645, 430]",ColorTask,64.0,24.0,,,HRV,HRV_0139,2022-11-30 18:14:41
,wl-rdm,141,382403,0.0-8.24-0.24,1.0,142.0,,,,,,,[],,,,,,50.0,0.0,u,0.0,True,1752.9000000003725,106.0,60.0,40.0,False,,231.18858250042263,[],"[645, 430]",ColorTask,65.0,25.0,,,HRV,HRV_0139,2022-11-30 18:14:41
,wl-rdm,142,384486,0.0-8.25-0.25,1.0,143.0,,,,,,,[],,,,,,87.9,1.0,i,1.0,True,815.3000000007451,49.0,60.0,40.0,False,,204.8201770916447,[],"[645, 430]",ColorTask,66.0,26.0,,,HRV,HRV_0139,2022-11-30 18:14:41
,wl-rdm,143,387436,0.0-8.26-0.26,1.0,144.0,,,,,,,[],,,,,,53.2,1.0,i,1.0,True,1602.1000000014901,97.0,60.0,40.0,False,,259.3774482958496,[],"[645, 430]",ColorTask,67.0,27.0,,,HRV,HRV_0139,2022-11-30 18:14:41
,wl-rdm,144,390221,0.0-8.27-0.27,1.0,145.0,,,,,,,[],,,,,,53.2,1.0,i,1.0,True,1329.1000000014901,80.0,60.0,40.0,False,,391.85751194805323,[],"[645, 430]",ColorTask,68.0,28.0,,,HRV,HRV_0139,2022-11-30 18:14:41
,wl-rdm,145,392303,0.0-8.28-0.28,1.0,146.0,,,,,,,[],,,,,,87.9,0.0,u,0.0,True,777.2000000011176,47.0,60.0,40.0,False,,233.83311568064875,[],"[645, 430]",ColorTask,69.0,29.0,,,HRV,HRV_0139,2022-11-30 18:14:41
,wl-rdm,146,394636,0.0-8.29-0.29,1.0,147.0,,,,,,,[],,,,,,73.6,0.0,u,0.0,True,934.5999999996275,57.0,60.0,40.0,False,,331.1978342356672,[],"[645, 430]",ColorTask,70.0,30.0,,,HRV,HRV_0139,2022-11-30 18:14:41
,wl-rdm,147,397422,0.0-8.30-0.30,1.0,148.0,,,,,,,[],,,,,,53.2,0.0,u,0.0,True,1438.5999999996275,87.0,60.0,40.0,False,,254.27576213444078,[],"[645, 430]",ColorTask,71.0,31.0,,,HRV,HRV_0139,2022-11-30 18:14:41
,wl-rdm,148,400404,0.0-8.31-0.31,1.0,149.0,,,,,,,[],,,,,,50.0,0.0,i,1.0,False,1522.5999999996275,92.0,60.0,40.0,False,,387.38648683120357,[],"[645, 430]",ColorTask,70.0,32.0,,,HRV,HRV_0139,2022-11-30 18:14:41
,wl-rdm,149,403753,0.0-8.32-0.32,1.0,150.0,,,,,,,[],,,,,,50.0,1.0,i,1.0,True,1894.0,114.0,60.0,40.0,False,,397.0461406429915,[],"[645, 430]",ColorTask,71.0,33.0,,,HRV,HRV_0139,2022-11-30 18:14:41
,wl-rdm,150,406453,0.0-8.33-0.33,1.0,151.0,,,,,,,[],,,,,,73.6,0.0,u,0.0,True,1410.4000000003725,85.0,60.0,40.0,False,,204.95081929875982,[],"[645, 430]",ColorTask,72.0,34.0,,,HRV,HRV_0139,2022-11-30 18:14:41
,wl-rdm,151,408504,0.0-8.34-0.34,1.0,152.0,,,,,,,[],,,,,,87.9,1.0,i,1.0,True,629.9000000022352,38.0,60.0,40.0,False,,351.0108424745389,[],"[645, 430]",ColorTask,73.0,35.0,,,HRV,HRV_0139,2022-11-30 18:14:41
,wl-rdm,152,410886,0.0-8.35-0.35,1.0,153.0,,,,,,,[],,,,,,53.2,1.0,i,1.0,True,1058.7000000011176,64.0,60.0,40.0,False,,237.95299449031174,[],"[645, 430]",ColorTask,74.0,36.0,,,HRV,HRV_0139,2022-11-30 18:14:41
,wl-rdm,153,414237,0.0-8.36-0.36,1.0,154.0,,,,,,,[],,,,,,50.0,0.0,u,0.0,True,2021.4000000003725,122.0,60.0,40.0,False,,251.01136171471205,[],"[645, 430]",ColorTask,75.0,37.0,,,HRV,HRV_0139,2022-11-30 18:14:41
,wl-rdm,154,416270,0.0-8.37-0.37,1.0,155.0,,,,,,,[],,,,,,87.9,1.0,i,1.0,True,686.5999999996275,42.0,60.0,40.0,False,,259.96455449270536,[],"[645, 430]",ColorTask,76.0,38.0,,,HRV,HRV_0139,2022-11-30 18:14:41
,wl-rdm,155,418804,0.0-8.38-0.38,1.0,156.0,,,,,,,[],,,,,,50.0,1.0,i,1.0,True,1229.3999999985099,74.0,60.0,40.0,False,,241.91391595466428,[],"[645, 430]",ColorTask,77.0,39.0,,,HRV,HRV_0139,2022-11-30 18:14:41
,wl-rdm,156,421222,0.0-8.39-0.39,1.0,157.0,,,,,,,[],,,,,,73.6,0.0,u,0.0,True,1019.8000000026077,62.0,60.0,40.0,False,,320.6486788831053,[],"[645, 430]",ColorTask,78.0,40.0,,,HRV,HRV_0139,2022-11-30 18:14:41
,wl-rdm,157,423887,0.0-8.40-0.40,1.0,158.0,,,,,,,[],,,,,,56.4,0.0,u,0.0,True,1203.4000000003725,73.0,60.0,40.0,False,,373.2157996508767,[],"[645, 430]",ColorTask,79.0,41.0,,,HRV,HRV_0139,2022-11-30 18:14:41
,wl-rdm,158,427438,0.0-8.41-0.41,1.0,159.0,,,,,,,[],,,,,,50.0,0.0,u,0.0,True,2258.5,136.0,60.0,40.0,False,,216.9186301981235,[],"[645, 430]",ColorTask,80.0,42.0,,,HRV,HRV_0139,2022-11-30 18:14:41
,wl-rdm,159,429654,0.0-8.42-0.42,1.0,160.0,,,,,,,[],,,,,,62.5,0.0,u,0.0,True,887.0999999996275,54.0,60.0,40.0,False,,259.82552153708815,[],"[645, 430]",ColorTask,81.0,43.0,,,HRV,HRV_0139,2022-11-30 18:14:41
,wl-rdm,160,431837,0.0-8.43-0.43,1.0,161.0,,,,,,,[],,,,,,62.5,0.0,u,0.0,True,817.1999999992549,49.0,60.0,40.0,False,,294.2282509047642,[],"[645, 430]",ColorTask,82.0,44.0,,,HRV,HRV_0139,2022-11-30 18:14:41
,wl-rdm,161,433922,0.0-8.44-0.44,1.0,162.0,,,,,,,[],,,,,,53.2,1.0,i,1.0,True,777.8999999985099,47.0,60.0,40.0,False,,239.87428092868,[],"[645, 430]",ColorTask,83.0,45.0,,,HRV,HRV_0139,2022-11-30 18:14:41
,wl-rdm,162,437171,0.0-8.45-0.45,1.0,163.0,,,,,,,[],,,,,,56.4,1.0,u,0.0,False,1911.800000000745,115.0,60.0,40.0,False,,271.9205980643419,[],"[645, 430]",ColorTask,82.0,46.0,,,HRV,HRV_0139,2022-11-30 18:14:41
,wl-rdm,163,439840,0.0-8.46-0.46,1.0,164.0,,,,,,,[],,,,,,56.4,0.0,i,1.0,False,1191.7000000011176,72.0,60.0,40.0,False,,389.4347661567452,[],"[645, 430]",ColorTask,81.0,47.0,,,HRV,HRV_0139,2022-11-30 18:14:41
,wl-rdm,164,443038,0.0-8.47-0.47,1.0,165.0,,,,,,,[],,,,,,53.2,0.0,i,1.0,False,1725.0999999996275,104.0,60.0,40.0,False,,399.75714762418545,[],"[645, 430]",ColorTask,80.0,48.0,,,HRV,HRV_0139,2022-11-30 18:14:41
,wl-rdm,165,445156,0.0-8.48-0.48,1.0,166.0,,,,,,,[],,,,,,62.5,1.0,i,1.0,True,707.0,43.0,60.0,40.0,False,,348.83447122279085,[],"[645, 430]",ColorTask,81.0,49.0,,,HRV,HRV_0139,2022-11-30 18:14:41
,wl-rdm,166,448356,0.0-8.49-0.49,1.0,167.0,,,,,,,[],,,,,,53.2,1.0,i,1.0,True,1830.7999999988824,110.0,60.0,40.0,False,,299.49562716299846,[],"[645, 430]",ColorTask,82.0,50.0,,,HRV,HRV_0139,2022-11-30 18:14:41
,wl-rdm,167,451857,0.0-8.50-0.50,1.0,168.0,,,,,,,[],,,,,,56.4,0.0,u,0.0,True,2035.0,123.0,60.0,40.0,False,,387.10286973347684,[],"[645, 430]",ColorTask,83.0,51.0,,,HRV,HRV_0139,2022-11-30 18:14:41
,wl-rdm,168,454190,0.0-8.51-0.51,1.0,169.0,,,,,,,[],,,,,,50.0,1.0,i,1.0,True,906.5999999996275,55.0,60.0,40.0,False,,357.21349310345727,[],"[645, 430]",ColorTask,84.0,52.0,,,HRV,HRV_0139,2022-11-30 18:14:41
,wl-rdm,169,456340,0.0-8.52-0.52,1.0,170.0,,,,,,,[],,,,,,62.5,1.0,i,1.0,True,791.0,48.0,60.0,40.0,False,,290.12106037825833,[],"[645, 430]",ColorTask,85.0,53.0,,,HRV,HRV_0139,2022-11-30 18:14:41
,wl-rdm,170,458373,0.0-8.53-0.53,1.0,171.0,,,,,,,[],,,,,,62.5,1.0,i,1.0,True,650.5999999996275,39.0,60.0,40.0,False,,311.76270806207043,[],"[645, 430]",ColorTask,86.0,54.0,,,HRV,HRV_0139,2022-11-30 18:14:41
,wl-rdm,171,460824,0.0-8.54-0.54,1.0,172.0,,,,,,,[],,,,,,56.4,0.0,u,0.0,True,1086.7000000011176,66.0,60.0,40.0,False,,295.1566669447445,[],"[645, 430]",ColorTask,87.0,55.0,,,HRV,HRV_0139,2022-11-30 18:14:41
,wl-rdm,172,463657,0.0-8.55-0.55,1.0,173.0,,,,,,,[],,,,,,50.0,1.0,i,1.0,True,1557.699999999255,94.0,60.0,40.0,False,,200.33247099332635,[],"[645, 430]",ColorTask,88.0,56.0,,,HRV,HRV_0139,2022-11-30 18:14:41
,wl-rdm,173,465757,0.0-8.56-0.56,1.0,174.0,,,,,,,[],,,,,,87.9,1.0,i,1.0,True,660.5,40.0,60.0,40.0,False,,379.26894936939345,[],"[645, 430]",ColorTask,89.0,57.0,,,HRV,HRV_0139,2022-11-30 18:14:41
,wl-rdm,174,467740,0.0-8.57-0.57,1.0,175.0,,,,,,,[],,,,,,62.5,1.0,i,1.0,True,613.6999999992549,37.0,60.0,40.0,False,,301.63620038412364,[],"[645, 430]",ColorTask,90.0,58.0,,,HRV,HRV_0139,2022-11-30 18:14:41
,wl-rdm,175,469840,0.0-8.58-0.58,1.0,176.0,,,,,,,[],,,,,,73.6,0.0,u,0.0,True,722.3999999985099,44.0,60.0,40.0,False,,285.84749640813925,[],"[645, 430]",ColorTask,91.0,59.0,,,HRV,HRV_0139,2022-11-30 18:14:41
,wl-rdm,176,472541,0.0-8.59-0.59,1.0,177.0,,,,,,,[],,,,,,62.5,0.0,u,0.0,True,1366.7000000011176,82.0,60.0,40.0,False,,273.621657252175,[],"[645, 430]",ColorTask,92.0,60.0,,,HRV,HRV_0139,2022-11-30 18:14:41
,wl-rdm,177,475490,0.0-8.60-0.60,1.0,178.0,,,,,,,[],,,,,,62.5,0.0,u,0.0,True,1622.300000000745,98.0,60.0,40.0,False,,234.68632194300332,[],"[645, 430]",ColorTask,93.0,61.0,,,HRV,HRV_0139,2022-11-30 18:14:41
,wl-rdm,178,479040,0.0-8.61-0.61,1.0,179.0,,,,,,,[],,,,,,56.4,0.0,i,1.0,False,2136.0999999996275,129.0,60.0,40.0,False,,340.97108898824797,[],"[645, 430]",ColorTask,92.0,62.0,,,HRV,HRV_0139,2022-11-30 18:14:41
,wl-rdm,179,481057,0.0-8.62-0.62,1.0,180.0,,,,,,,[],,,,,,87.9,0.0,i,1.0,False,636.0,39.0,60.0,40.0,False,,295.5472363601539,[],"[645, 430]",ColorTask,91.0,63.0,,,HRV,HRV_0139,2022-11-30 18:14:41
,wl-rdm,180,482941,0.0-8.63-0.63,1.0,181.0,,,,,,,[],,,,,,87.9,1.0,i,1.0,True,600.7000000011176,37.0,60.0,40.0,False,,214.0480209630224,[],"[645, 430]",ColorTask,92.0,64.0,,,HRV,HRV_0139,2022-11-30 18:14:41
,wl-rdm,181,484990,0.0-8.64-0.64,1.0,182.0,,,,,,,[],,,,,,73.6,0.0,u,0.0,True,668.1999999992549,41.0,60.0,40.0,False,,294.01958609376373,[],"[645, 430]",ColorTask,93.0,65.0,,,HRV,HRV_0139,2022-11-30 18:14:41
,wl-rdm,182,487507,0.0-8.65-0.65,1.0,183.0,,,,,,,[],,,,,,53.2,0.0,u,0.0,True,1185.5999999996275,71.0,60.0,40.0,False,,250.93290862632927,[],"[645, 430]",ColorTask,94.0,66.0,,,HRV,HRV_0139,2022-11-30 18:14:41
,wl-rdm,183,489474,0.0-8.66-0.66,1.0,184.0,,,,,,,[],,,,,,87.9,1.0,i,1.0,True,655.8000000007451,40.0,60.0,40.0,False,,230.64359396027385,[],"[645, 430]",ColorTask,95.0,67.0,,,HRV,HRV_0139,2022-11-30 18:14:41
,wl-rdm,184,491591,0.0-8.67-0.67,1.0,185.0,,,,,,,[],,,,,,53.2,0.0,u,0.0,True,787.2999999988824,48.0,60.0,40.0,False,,233.6441601040512,[],"[645, 430]",ColorTask,96.0,68.0,,,HRV,HRV_0139,2022-11-30 18:14:41
,wl-rdm,185,493841,0.0-8.68-0.68,1.0,186.0,,,,,,,[],,,,,,73.6,1.0,i,1.0,True,862.6999999992549,52.0,60.0,40.0,False,,312.37582109058343,[],"[645, 430]",ColorTask,97.0,69.0,,,HRV,HRV_0139,2022-11-30 18:14:41
,wl-rdm,186,496108,0.0-8.69-0.69,1.0,187.0,,,,,,,[],,,,,,53.2,1.0,u,0.0,False,965.6999999992549,58.0,60.0,40.0,False,,238.75573166716208,[],"[645, 430]",ColorTask,96.0,70.0,,,HRV,HRV_0139,2022-11-30 18:14:41
,wl-rdm,187,498224,0.0-8.70-0.70,1.0,188.0,,,,,,,[],,,,,,53.2,1.0,i,1.0,True,728.1000000014901,44.0,60.0,40.0,False,,307.5099665217729,[],"[645, 430]",ColorTask,97.0,71.0,,,HRV,HRV_0139,2022-11-30 18:14:41
,wl-rdm,188,500825,0.0-8.71-0.71,1.0,189.0,,,,,,,[],,,,,,56.4,1.0,i,1.0,True,1230.199999999255,74.0,60.0,40.0,False,,304.09805900904695,[],"[645, 430]",ColorTask,98.0,72.0,,,HRV,HRV_0139,2022-11-30 18:14:41
,wl-rdm,189,503557,0.0-8.72-0.72,1.0,190.0,,,,,,,[],,,,,,53.2,0.0,u,0.0,True,1407.199999999255,85.0,60.0,40.0,False,,249.8573318328632,[],"[645, 430]",ColorTask,99.0,73.0,,,HRV,HRV_0139,2022-11-30 18:14:41
,wl-rdm,190,506123,0.0-8.73-0.73,1.0,191.0,,,,,,,[],,,,,,62.5,0.0,u,0.0,True,1278.0,77.0,60.0,40.0,False,,218.42980056689186,[],"[645, 430]",ColorTask,100.0,74.0,,,HRV,HRV_0139,2022-11-30 18:14:41
,wl-rdm,191,508840,0.0-8.74-0.74,1.0,192.0,,,,,,,[],,,,,,53.2,0.0,i,1.0,False,1289.699999999255,78.0,60.0,40.0,False,,337.6374013772442,[],"[645, 430]",ColorTask,99.0,75.0,,,HRV,HRV_0139,2022-11-30 18:14:41
,wl-rdm,192,510973,0.0-8.75-0.75,1.0,193.0,,,,,,,[],,,,,,87.9,0.0,u,0.0,True,790.6999999992549,48.0,60.0,40.0,False,,280.1715029160743,[],"[645, 430]",ColorTask,100.0,76.0,,,HRV,HRV_0139,2022-11-30 18:14:41
,wl-rdm,193,513123,0.0-8.76-0.76,1.0,194.0,,,,,,,[],,,,,,62.5,0.0,u,0.0,True,802.4999999981374,49.0,60.0,40.0,False,,273.2194728335083,[],"[645, 430]",ColorTask,101.0,77.0,,,HRV,HRV_0139,2022-11-30 18:14:41
,wl-rdm,194,515006,0.0-8.77-0.77,1.0,195.0,,,,,,,[],,,,,,87.9,0.0,u,0.0,True,606.6999999992549,37.0,60.0,40.0,False,,205.28070100508896,[],"[645, 430]",ColorTask,102.0,78.0,,,HRV,HRV_0139,2022-11-30 18:14:41
,wl-rdm,195,516890,0.0-8.78-0.78,1.0,196.0,,,,,,,[],,,,,,87.9,0.0,u,0.0,True,593.5999999996275,36.0,60.0,40.0,False,,200.77154908247212,[],"[645, 430]",ColorTask,103.0,79.0,,,HRV,HRV_0139,2022-11-30 18:14:41
,wl-rdm,196,519306,0.0-8.79-0.79,1.0,197.0,,,,,,,[],,,,,,50.0,1.0,i,1.0,True,961.4000000003725,58.0,60.0,40.0,False,,375.169483414364,[],"[645, 430]",ColorTask,104.0,80.0,,,HRV,HRV_0139,2022-11-30 18:14:41
,wl-rdm,197,522090,0.0-8.80-0.80,1.0,198.0,,,,,,,[],,,,,,62.5,0.0,u,0.0,True,1414.4000000003725,85.0,60.0,40.0,False,,311.42645935680446,[],"[645, 430]",ColorTask,105.0,81.0,,,HRV,HRV_0139,2022-11-30 18:14:41
,wl-rdm,198,525240,0.0-8.81-0.81,1.0,199.0,,,,,,,[],,,,,,56.4,1.0,i,1.0,True,1709.5999999996275,103.0,60.0,40.0,False,,375.4267963706518,[],"[645, 430]",ColorTask,106.0,82.0,,,HRV,HRV_0139,2022-11-30 18:14:41
,wl-rdm,199,527407,0.0-8.82-0.82,1.0,200.0,,,,,,,[],,,,,,87.9,0.0,u,0.0,True,783.4000000003725,48.0,60.0,40.0,False,,309.4831987833582,[],"[645, 430]",ColorTask,107.0,83.0,,,HRV,HRV_0139,2022-11-30 18:14:41
,wl-rdm,200,529991,0.0-8.83-0.83,1.0,201.0,,,,,,,[],,,,,,50.0,0.0,i,1.0,False,1145.6000000014901,69.0,60.0,40.0,False,,368.6250720664177,[],"[645, 430]",ColorTask,106.0,84.0,,,HRV,HRV_0139,2022-11-30 18:14:41
,wl-rdm,201,532123,0.0-8.84-0.84,1.0,202.0,,,,,,,[],,,,,,87.9,0.0,u,0.0,True,705.9000000003725,43.0,60.0,40.0,False,,346.5275764297086,[],"[645, 430]",ColorTask,107.0,85.0,,,HRV,HRV_0139,2022-11-30 18:14:41
,wl-rdm,202,534091,0.0-8.85-0.85,1.0,203.0,,,,,,,[],,,,,,73.6,0.0,u,0.0,True,652.0999999996275,40.0,60.0,40.0,False,,244.15317780388645,[],"[645, 430]",ColorTask,108.0,86.0,,,HRV,HRV_0139,2022-11-30 18:14:41
,wl-rdm,203,535923,0.0-8.86-0.86,1.0,204.0,,,,,,,[],,,,,,56.4,0.0,u,0.0,True,520.5,32.0,60.0,40.0,False,,221.37301042229922,[],"[645, 430]",ColorTask,109.0,87.0,,,HRV,HRV_0139,2022-11-30 18:14:41
,wl-rdm,204,538257,0.0-8.87-0.87,1.0,205.0,,,,,,,[],,,,,,56.4,0.0,i,1.0,False,956.0999999996275,58.0,60.0,40.0,False,,308.2982950445467,[],"[645, 430]",ColorTask,108.0,88.0,,,HRV,HRV_0139,2022-11-30 18:14:41
,wl-rdm,205,540324,0.0-8.88-0.88,1.0,206.0,,,,,,,[],,,,,,87.9,0.0,u,0.0,True,662.5999999996275,40.0,60.0,40.0,False,,323.54782342438966,[],"[645, 430]",ColorTask,109.0,89.0,,,HRV,HRV_0139,2022-11-30 18:14:41
,wl-rdm,206,542723,0.0-8.89-0.89,1.0,207.0,,,,,,,[],,,,,,73.6,1.0,i,1.0,True,975.4000000003725,59.0,60.0,40.0,False,,342.1965967785427,[],"[645, 430]",ColorTask,110.0,90.0,,,HRV,HRV_0139,2022-11-30 18:14:41
,wl-rdm,207,545907,0.0-8.90-0.90,1.0,208.0,,,,,,,[],,,,,,53.2,1.0,i,1.0,True,1778.9000000003725,107.0,60.0,40.0,False,,325.7023682234633,[],"[645, 430]",ColorTask,111.0,91.0,,,HRV,HRV_0139,2022-11-30 18:14:41
,wl-rdm,208,548724,0.0-8.91-0.91,1.0,209.0,,,,,,,[],,,,,,56.4,1.0,u,0.0,False,1356.2000000011176,82.0,60.0,40.0,False,,375.33711759977473,[],"[645, 430]",ColorTask,110.0,92.0,,,HRV,HRV_0139,2022-11-30 18:14:41
,wl-rdm,209,550591,0.0-8.92-0.92,1.0,210.0,,,,,,,[],,,,,,87.9,0.0,u,0.0,True,574.0999999996275,35.0,60.0,40.0,False,,217.49133282853998,[],"[645, 430]",ColorTask,111.0,93.0,,,HRV,HRV_0139,2022-11-30 18:14:41
,wl-rdm,210,552991,0.0-8.93-0.93,1.0,211.0,,,,,,,[],,,,,,62.5,1.0,u,0.0,False,1121.1000000014901,68.0,60.0,40.0,False,,211.06226478406938,[],"[645, 430]",ColorTask,110.0,94.0,,,HRV,HRV_0139,2022-11-30 18:14:41
,wl-rdm,211,555024,0.0-8.94-0.94,1.0,212.0,,,,,,,[],,,,,,62.5,1.0,i,1.0,True,727.4000000003725,44.0,60.0,40.0,False,,240.11354737412543,[],"[645, 430]",ColorTask,111.0,95.0,,,HRV,HRV_0139,2022-11-30 18:14:41
,wl-rdm,212,557141,0.0-8.95-0.95,1.0,213.0,,,,,,,[],,,,,,56.4,0.0,u,0.0,True,747.2000000011176,45.0,60.0,40.0,False,,311.5997482559099,[],"[645, 430]",ColorTask,112.0,96.0,,,HRV,HRV_0139,2022-11-30 18:14:41
,wl-rdm,213,560024,0.0-8.96-0.96,1.0,214.0,,,,,,,[],,,,,,53.2,0.0,u,0.0,True,1455.6000000014901,88.0,60.0,40.0,False,,334.43284845703215,[],"[645, 430]",ColorTask,113.0,97.0,,,HRV,HRV_0139,2022-11-30 18:14:41
,wl-rdm,214,562324,0.0-8.97-0.97,1.0,215.0,,,,,,,[],,,,,,73.6,1.0,i,1.0,True,941.4000000003725,57.0,60.0,40.0,False,,280.054872055315,[],"[645, 430]",ColorTask,114.0,98.0,,,HRV,HRV_0139,2022-11-30 18:14:41
,wl-rdm,215,564375,0.0-8.98-0.98,1.0,216.0,,,,,,,[],,,,,,87.9,1.0,i,1.0,True,674.2000000011176,41.0,60.0,40.0,False,,290.0175671434746,[],"[645, 430]",ColorTask,115.0,99.0,,,HRV,HRV_0139,2022-11-30 18:14:41
,wl-rdm,216,566824,0.0-8.99-0.99,1.0,217.0,,,,,,,[],,,,,,73.6,1.0,i,1.0,True,1062.4999999981374,64.0,60.0,40.0,False,,313.359749771399,[],"[645, 430]",ColorTask,116.0,100.0,,,HRV,HRV_0139,2022-11-30 18:14:41
,wl-rdm,217,568958,0.0-8.100-0.100,1.0,218.0,,,,,,,[],,,,,,50.0,1.0,i,1.0,True,774.5,47.0,60.0,40.0,False,,297.20721630557455,[],"[645, 430]",ColorTask,117.0,101.0,,,HRV,HRV_0139,2022-11-30 18:14:41
,wl-rdm,218,570908,0.0-8.101-0.101,1.0,219.0,,,,,,,[],,,,,,73.6,0.0,u,0.0,True,668.5,41.0,60.0,40.0,False,,219.98758417779706,[],"[645, 430]",ColorTask,118.0,102.0,,,HRV,HRV_0139,2022-11-30 18:14:41
,wl-rdm,219,574041,0.0-8.102-0.102,1.0,220.0,,,,,,,[],,,,,,56.4,1.0,i,1.0,True,1806.8999999985099,109.0,60.0,40.0,False,,248.72706742497087,[],"[645, 430]",ColorTask,119.0,103.0,,,HRV,HRV_0139,2022-11-30 18:14:41
,wl-rdm,220,576708,0.0-8.103-0.103,1.0,221.0,,,,,,,[],,,,,,50.0,1.0,u,0.0,False,1374.0,83.0,60.0,40.0,False,,209.32642432804036,[],"[645, 430]",ColorTask,118.0,104.0,,,HRV,HRV_0139,2022-11-30 18:14:41
,wl-rdm,221,579308,0.0-8.104-0.104,1.0,222.0,,,,,,,[],,,,,,50.0,0.0,i,1.0,False,1281.4999999981374,77.0,60.0,40.0,False,,261.66097552807554,[],"[645, 430]",ColorTask,117.0,105.0,,,HRV,HRV_0139,2022-11-30 18:14:41
,wl-rdm,222,581975,0.0-8.105-0.105,1.0,223.0,,,,,,,[],,,,,,73.6,0.0,u,0.0,True,1303.7999999988824,79.0,60.0,40.0,False,,283.7460427863991,[],"[645, 430]",ColorTask,118.0,106.0,,,HRV,HRV_0139,2022-11-30 18:14:41
,wl-rdm,223,583974,0.0-8.106-0.106,1.0,224.0,,,,,,,[],,,,,,87.9,1.0,i,1.0,True,629.2999999988824,38.0,60.0,40.0,False,,288.2747476780299,[],"[645, 430]",ColorTask,119.0,107.0,,,HRV,HRV_0139,2022-11-30 18:14:41
,wl-rdm,224,586508,0.0-8.107-0.107,1.0,225.0,,,,,,,[],,,,,,73.6,0.0,u,0.0,True,1135.5,68.0,60.0,40.0,False,,321.8854646580251,[],"[645, 430]",ColorTask,120.0,108.0,,,HRV,HRV_0139,2022-11-30 18:14:41
,wl-html-button-response,225,588789,0.0-9.0-0.0,,,,,,,,,,2275.699999999255,,0,,,,,,,,,,,,,,,,,,,,<h3>End of this session. Thank you!</h3><br>,['Close window'],HRV,HRV_0139,2022-11-30 18:14:41
