trialN,stimuli,trialStartTime,trialStartTime_UNIX,stimulus1,stimulus2,stimulus1Bid,stimulus2Bid,delta,selected,rt,rt_UNIX,rt_perfnow,receivedResponse,rsp,trialEndTime,trialDuration,trialEndTime_UNIX,trialDuration_UNIX,exp,subjectId,date
0,"[{'imgObject': {}, 'id': 'cheerios', 'src': '/static/foodstim60/cheerios.jpg', 'key': 'u', 'origWidth': 409, 'origHeight': 410, 'width': 409, 'height': 410, 'widthPercent': 0.45, 'rescaleHeight': False, 'trialN': 0, 'loaded': True, 'loadedTime': 1772.5, 'positionName': 'LEFT', 'positionCoords': [210.2, 225], 'bid': 7.65}, {'imgObject': {}, 'id': 'tacos', 'src': '/static/foodstim60/tacos.jpg', 'key': 'i', 'origWidth': 411, 'origHeight': 411, 'width': 411, 'height': 411, 'widthPercent': 0.45, 'rescaleHeight': False, 'trialN': 0, 'loaded': True, 'loadedTime': 1958.7000000011176, 'positionName': 'RIGHT', 'positionCoords': [670.8, 224.5], 'bid': 7.66}]",2222.4000000003725,1669831177858,cheerios,tacos,7.65,7.66,0.009999999999999787,tacos,1283.5999999996275,1284,1284.9000000003725,True,i,4025.10000000149,1802.7000000011176,1669831179660,1802,HRV,HRV_0139,2022-11-30 18:04:47
1,"[{'imgObject': {}, 'id': 'baked potato', 'src': '/static/foodstim60/baked potato.jpg', 'key': 'u', 'origWidth': 409, 'origHeight': 410, 'width': 409, 'height': 410, 'widthPercent': 0.45, 'rescaleHeight': False, 'trialN': 1, 'loaded': True, 'loadedTime': 1981.9000000003725, 'positionName': 'LEFT', 'positionCoords': [210.2, 225], 'bid': 5.26}, {'imgObject': {}, 'id': 'banana', 'src': '/static/foodstim60/banana.jpg', 'key': 'i', 'origWidth': 410, 'origHeight': 410, 'width': 410, 'height': 410, 'widthPercent': 0.45, 'rescaleHeight': False, 'trialN': 1, 'loaded': True, 'loadedTime': 1993.4000000003725, 'positionName': 'RIGHT', 'positionCoords': [670.8, 225], 'bid': 5.13}]",4026.10000000149,1669831179661,baked potato,banana,5.26,5.13,-0.1299999999999999,baked potato,1059.699999999255,1060,1060.2999999988824,True,u,5593.4000000003725,1567.2999999988824,1669831181229,1568,HRV,HRV_0139,2022-11-30 18:04:47
2,"[{'imgObject': {}, 'id': 'apple slices', 'src': '/static/foodstim60/apple slices.jpg', 'key': 'u', 'origWidth': 409, 'origHeight': 410, 'width': 409, 'height': 410, 'widthPercent': 0.45, 'rescaleHeight': False, 'trialN': 2, 'loaded': True, 'loadedTime': 1996.800000000745, 'positionName': 'LEFT', 'positionCoords': [210.2, 225], 'bid': 9.4}, {'imgObject': {}, 'id': 'rigatoni', 'src': '/static/foodstim60/rigatoni.jpg', 'key': 'i', 'origWidth': 411, 'origHeight': 411, 'width': 411, 'height': 411, 'widthPercent': 0.45, 'rescaleHeight': False, 'trialN': 2, 'loaded': True, 'loadedTime': 1812.5, 'positionName': 'RIGHT', 'positionCoords': [670.8, 224.5], 'bid': 9.31}]",5594.200000001118,1669831181229,apple slices,rigatoni,9.4,9.31,-0.08999999999999986,rigatoni,975.6999999992549,976,976.0,True,i,7088.9000000003725,1494.699999999255,1669831182724,1495,HRV,HRV_0139,2022-11-30 18:04:47
3,"[{'imgObject': {}, 'id': 'orange slices', 'src': '/static/foodstim60/orange slices.jpg', 'key': 'u', 'origWidth': 409, 'origHeight': 410, 'width': 409, 'height': 410, 'widthPercent': 0.45, 'rescaleHeight': False, 'trialN': 3, 'loaded': True, 'loadedTime': 1824.800000000745, 'positionName': 'LEFT', 'positionCoords': [210.2, 225], 'bid': 9.1}, {'imgObject': {}, 'id': 'bagel and cc', 'src': '/static/foodstim60/bagel and cc.jpg', 'key': 'i', 'origWidth': 410, 'origHeight': 410, 'width': 410, 'height': 410, 'widthPercent': 0.45, 'rescaleHeight': False, 'trialN': 3, 'loaded': True, 'loadedTime': 1837.4000000003725, 'positionName': 'RIGHT', 'positionCoords': [670.8, 225], 'bid': 8.700000000000001}]",7089.60000000149,1669831182725,orange slices,bagel and cc,9.1,8.700000000000001,-0.3999999999999986,bagel and cc,793.5,794,794.5,True,i,8399.10000000149,1309.5,1669831184034,1309,HRV,HRV_0139,2022-11-30 18:04:47
4,"[{'imgObject': {}, 'id': 'cantaloupe', 'src': '/static/foodstim60/cantaloupe.jpg', 'key': 'u', 'origWidth': 409, 'origHeight': 409, 'width': 409, 'height': 409, 'widthPercent': 0.45, 'rescaleHeight': False, 'trialN': 4, 'loaded': True, 'loadedTime': 1849.800000000745, 'positionName': 'LEFT', 'positionCoords': [210.2, 225.5], 'bid': 8.64}, {'imgObject': {}, 'id': 'cherries', 'src': '/static/foodstim60/cherries.jpg', 'key': 'i', 'origWidth': 410, 'origHeight': 411, 'width': 410, 'height': 411, 'widthPercent': 0.45, 'rescaleHeight': False, 'trialN': 4, 'loaded': True, 'loadedTime': 1849.9000000003725, 'positionName': 'RIGHT', 'positionCoords': [670.8, 224.5], 'bid': 9.07}]",8399.5,1669831184035,cantaloupe,cherries,8.64,9.07,0.4299999999999997,cherries,1063.6000000014901,1064,1064.300000000745,True,i,9977.900000000373,1578.4000000003725,1669831185613,1578,HRV,HRV_0139,2022-11-30 18:04:47
5,"[{'imgObject': {}, 'id': 'rigatoni and sauce', 'src': '/static/foodstim60/rigatoni and sauce.jpg', 'key': 'u', 'origWidth': 410, 'origHeight': 411, 'width': 410, 'height': 411, 'widthPercent': 0.45, 'rescaleHeight': False, 'trialN': 5, 'loaded': True, 'loadedTime': 1864.800000000745, 'positionName': 'LEFT', 'positionCoords': [209.2, 224.5], 'bid': 9.72}, {'imgObject': {}, 'id': 'turkey sandwich', 'src': '/static/foodstim60/turkey sandwich.jpg', 'key': 'i', 'origWidth': 409, 'origHeight': 409, 'width': 409, 'height': 409, 'widthPercent': 0.45, 'rescaleHeight': False, 'trialN': 5, 'loaded': True, 'loadedTime': 1879, 'positionName': 'RIGHT', 'positionCoords': [670.8, 225.5], 'bid': 9.62}]",9979.300000000745,1669831185614,rigatoni and sauce,turkey sandwich,9.72,9.62,-0.10000000000000142,rigatoni and sauce,988.5,990,989.6999999992549,True,u,11490.400000000373,1511.0999999996275,1669831187126,1512,HRV,HRV_0139,2022-11-30 18:04:47
6,"[{'imgObject': {}, 'id': 'yogurt no spoon', 'src': '/static/foodstim60/yogurt no spoon.jpg', 'key': 'u', 'origWidth': 411, 'origHeight': 410, 'width': 411, 'height': 410, 'widthPercent': 0.45, 'rescaleHeight': False, 'trialN': 6, 'loaded': True, 'loadedTime': 1880.5, 'positionName': 'LEFT', 'positionCoords': [208.2, 225], 'bid': 6.76}, {'imgObject': {}, 'id': 'luckycharms', 'src': '/static/foodstim60/luckycharms.jpg', 'key': 'i', 'origWidth': 410, 'origHeight': 409, 'width': 410, 'height': 409, 'widthPercent': 0.45, 'rescaleHeight': False, 'trialN': 6, 'loaded': True, 'loadedTime': 1894.2000000011176, 'positionName': 'RIGHT', 'positionCoords': [670.8, 225.5], 'bid': 7.17}]",11491.900000000373,1669831187127,yogurt no spoon,luckycharms,6.76,7.17,0.41000000000000014,yogurt no spoon,924.5999999996275,925,925.4000000003725,True,u,12927.5,1435.5999999996275,1669831188563,1436,HRV,HRV_0139,2022-11-30 18:04:47
7,"[{'imgObject': {}, 'id': 'blackbeanswithrice', 'src': '/static/foodstim60/blackbeanswithrice.jpg', 'key': 'u', 'origWidth': 410, 'origHeight': 410, 'width': 410, 'height': 410, 'widthPercent': 0.45, 'rescaleHeight': False, 'trialN': 7, 'loaded': True, 'loadedTime': 1902.2000000011176, 'positionName': 'LEFT', 'positionCoords': [209.2, 225], 'bid': 8.81}, {'imgObject': {}, 'id': 'baked potato', 'src': '/static/foodstim60/baked potato.jpg', 'key': 'i', 'origWidth': 409, 'origHeight': 410, 'width': 409, 'height': 410, 'widthPercent': 0.45, 'rescaleHeight': False, 'trialN': 7, 'loaded': True, 'loadedTime': 1981.5, 'positionName': 'RIGHT', 'positionCoords': [670.8, 225], 'bid': 5.26}]",12928.5,1669831188564,blackbeanswithrice,baked potato,8.81,5.26,-3.5500000000000007,blackbeanswithrice,952.6000000014901,953,953.4000000003725,True,u,14391.200000001118,1462.7000000011176,1669831190026,1462,HRV,HRV_0139,2022-11-30 18:04:47
8,"[{'imgObject': {}, 'id': 'Grapes', 'src': '/static/foodstim60/Grapes.jpg', 'key': 'u', 'origWidth': 411, 'origHeight': 411, 'width': 411, 'height': 411, 'widthPercent': 0.45, 'rescaleHeight': False, 'trialN': 8, 'loaded': True, 'loadedTime': 1917.2000000011176, 'positionName': 'LEFT', 'positionCoords': [208.2, 224.5], 'bid': 8.82}, {'imgObject': {}, 'id': 'apple slices', 'src': '/static/foodstim60/apple slices.jpg', 'key': 'i', 'origWidth': 409, 'origHeight': 410, 'width': 409, 'height': 410, 'widthPercent': 0.45, 'rescaleHeight': False, 'trialN': 8, 'loaded': True, 'loadedTime': 1995.300000000745, 'positionName': 'RIGHT', 'positionCoords': [670.8, 225], 'bid': 9.4}]",14391.800000000745,1669831190027,Grapes,apple slices,8.82,9.4,0.5800000000000001,Grapes,801.5,802,801.6999999992549,True,u,15712.10000000149,1320.300000000745,1669831191347,1320,HRV,HRV_0139,2022-11-30 18:04:47
9,"[{'imgObject': {}, 'id': 'eggs', 'src': '/static/foodstim60/eggs.jpg', 'key': 'u', 'origWidth': 409, 'origHeight': 409, 'width': 409, 'height': 409, 'widthPercent': 0.45, 'rescaleHeight': False, 'trialN': 9, 'loaded': True, 'loadedTime': 1934.7000000011176, 'positionName': 'LEFT', 'positionCoords': [210.2, 225.5], 'bid': 5.55}, {'imgObject': {}, 'id': 'chicken nuggets2', 'src': '/static/foodstim60/chicken nuggets2.jpg', 'key': 'i', 'origWidth': 410, 'origHeight': 409, 'width': 410, 'height': 409, 'widthPercent': 0.45, 'rescaleHeight': False, 'trialN': 9, 'loaded': True, 'loadedTime': 1945.6000000014901, 'positionName': 'RIGHT', 'positionCoords': [670.8, 225.5], 'bid': 8.84}]",15713.300000000745,1669831191348,eggs,chicken nuggets2,5.55,8.84,3.29,chicken nuggets2,954.9000000003725,956,955.8000000007451,True,i,17173.900000000373,1460.5999999996275,1669831192809,1461,HRV,HRV_0139,2022-11-30 18:04:47
10,"[{'imgObject': {}, 'id': 'ice cream sundae 002', 'src': '/static/foodstim60/ice cream sundae 002.jpg', 'key': 'u', 'origWidth': 409, 'origHeight': 409, 'width': 409, 'height': 409, 'widthPercent': 0.45, 'rescaleHeight': False, 'trialN': 10, 'loaded': True, 'loadedTime': 1954.6000000014901, 'positionName': 'LEFT', 'positionCoords': [210.2, 225.5], 'bid': 5.91}, {'imgObject': {}, 'id': 'eggs', 'src': '/static/foodstim60/eggs.jpg', 'key': 'i', 'origWidth': 409, 'origHeight': 409, 'width': 409, 'height': 409, 'widthPercent': 0.45, 'rescaleHeight': False, 'trialN': 10, 'loaded': True, 'loadedTime': 1934.800000000745, 'positionName': 'RIGHT', 'positionCoords': [670.8, 225.5], 'bid': 5.55}]",17174.300000000745,1669831192810,ice cream sundae 002,eggs,5.91,5.55,-0.3600000000000003,eggs,1019.4000000003725,1020,1020.4000000003725,True,i,18710.700000001118,1536.4000000003725,1669831194346,1536,HRV,HRV_0139,2022-11-30 18:04:47
11,"[{'imgObject': {}, 'id': 'banana', 'src': '/static/foodstim60/banana.jpg', 'key': 'u', 'origWidth': 410, 'origHeight': 410, 'width': 410, 'height': 410, 'widthPercent': 0.45, 'rescaleHeight': False, 'trialN': 11, 'loaded': True, 'loadedTime': 1993.2000000011176, 'positionName': 'LEFT', 'positionCoords': [209.2, 225], 'bid': 5.13}, {'imgObject': {}, 'id': 'sushi w_condiments', 'src': '/static/foodstim60/sushi w_condiments.jpg', 'key': 'i', 'origWidth': 410, 'origHeight': 410, 'width': 410, 'height': 410, 'widthPercent': 0.45, 'rescaleHeight': False, 'trialN': 11, 'loaded': True, 'loadedTime': 1969.7000000011176, 'positionName': 'RIGHT', 'positionCoords': [670.8, 225], 'bid': 0.24}]",18712.0,1669831194347,banana,sushi w_condiments,5.13,0.24,-4.89,banana,1007.0,1008,1008.0,True,u,20241.5,1529.5,1669831195877,1530,HRV,HRV_0139,2022-11-30 18:04:47
12,"[{'imgObject': {}, 'id': 'olives', 'src': '/static/foodstim60/olives.jpg', 'key': 'u', 'origWidth': 410, 'origHeight': 410, 'width': 410, 'height': 410, 'widthPercent': 0.45, 'rescaleHeight': False, 'trialN': 12, 'loaded': True, 'loadedTime': 1997.1000000014901, 'positionName': 'LEFT', 'positionCoords': [209.2, 225], 'bid': 9.85}, {'imgObject': {}, 'id': 'corn cob', 'src': '/static/foodstim60/corn cob.jpg', 'key': 'i', 'origWidth': 411, 'origHeight': 411, 'width': 411, 'height': 411, 'widthPercent': 0.45, 'rescaleHeight': False, 'trialN': 12, 'loaded': True, 'loadedTime': 2010.4000000003725, 'positionName': 'RIGHT', 'positionCoords': [670.8, 224.5], 'bid': 9.77}]",20242.800000000745,1669831195878,olives,corn cob,9.85,9.77,-0.08000000000000007,olives,984.5,984,985.4000000003725,True,u,21745.0,1502.199999999255,1669831197379,1501,HRV,HRV_0139,2022-11-30 18:04:47
13,"[{'imgObject': {}, 'id': 'sweetpotato', 'src': '/static/foodstim60/sweetpotato.jpg', 'key': 'u', 'origWidth': 410, 'origHeight': 410, 'width': 410, 'height': 410, 'widthPercent': 0.45, 'rescaleHeight': False, 'trialN': 13, 'loaded': True, 'loadedTime': 2024.800000000745, 'positionName': 'LEFT', 'positionCoords': [209.2, 225], 'bid': 4.93}, {'imgObject': {}, 'id': 'strawberries', 'src': '/static/foodstim60/strawberries.jpg', 'key': 'i', 'origWidth': 410, 'origHeight': 410, 'width': 410, 'height': 410, 'widthPercent': 0.45, 'rescaleHeight': False, 'trialN': 13, 'loaded': True, 'loadedTime': 2035.800000000745, 'positionName': 'RIGHT', 'positionCoords': [670.8, 225], 'bid': 6.62}]",21746.300000000745,1669831197381,sweetpotato,strawberries,4.93,6.62,1.6900000000000004,strawberries,936.4000000003725,937,937.3000000007451,True,i,23203.900000000373,1457.5999999996275,1669831198838,1457,HRV,HRV_0139,2022-11-30 18:04:47
14,"[{'imgObject': {}, 'id': 'cherry tomato', 'src': '/static/foodstim60/cherry tomato.jpg', 'key': 'u', 'origWidth': 410, 'origHeight': 410, 'width': 410, 'height': 410, 'widthPercent': 0.45, 'rescaleHeight': False, 'trialN': 14, 'loaded': True, 'loadedTime': 2038.2000000011176, 'positionName': 'LEFT', 'positionCoords': [209.2, 225], 'bid': 2.65}, {'imgObject': {}, 'id': 'Tribe humus pita', 'src': '/static/foodstim60/Tribe humus pita.jpg', 'key': 'i', 'origWidth': 411, 'origHeight': 411, 'width': 411, 'height': 411, 'widthPercent': 0.45, 'rescaleHeight': False, 'trialN': 14, 'loaded': True, 'loadedTime': 2044.2000000011176, 'positionName': 'RIGHT', 'positionCoords': [670.8, 224.5], 'bid': 5.94}]",23204.10000000149,1669831198838,cherry tomato,Tribe humus pita,2.65,5.94,3.2900000000000005,Tribe humus pita,913.8999999985099,915,914.7999999988824,True,i,24629.800000000745,1425.699999999255,1669831200264,1426,HRV,HRV_0139,2022-11-30 18:04:47
15,"[{'imgObject': {}, 'id': 'seaweed', 'src': '/static/foodstim60/seaweed.jpg', 'key': 'u', 'origWidth': 410, 'origHeight': 410, 'width': 410, 'height': 410, 'widthPercent': 0.45, 'rescaleHeight': False, 'trialN': 15, 'loaded': True, 'loadedTime': 2044.9000000003725, 'positionName': 'LEFT', 'positionCoords': [209.2, 225], 'bid': 0.22}, {'imgObject': {}, 'id': 'omelette', 'src': '/static/foodstim60/omelette.jpg', 'key': 'i', 'origWidth': 410, 'origHeight': 409, 'width': 410, 'height': 409, 'widthPercent': 0.45, 'rescaleHeight': False, 'trialN': 15, 'loaded': True, 'loadedTime': 2058.10000000149, 'positionName': 'RIGHT', 'positionCoords': [670.8, 225.5], 'bid': 5.29}]",24630.400000000373,1669831200265,seaweed,omelette,0.22,5.29,5.07,omelette,1061.2000000011176,1062,1062.0,True,i,26207.200000001118,1576.800000000745,1669831201841,1576,HRV,HRV_0139,2022-11-30 18:04:47
16,"[{'imgObject': {}, 'id': 'Tribe humus pita', 'src': '/static/foodstim60/Tribe humus pita.jpg', 'key': 'u', 'origWidth': 411, 'origHeight': 411, 'width': 411, 'height': 411, 'widthPercent': 0.45, 'rescaleHeight': False, 'trialN': 16, 'loaded': True, 'loadedTime': 2042.6000000014901, 'positionName': 'LEFT', 'positionCoords': [208.2, 224.5], 'bid': 5.94}, {'imgObject': {}, 'id': 'eggs', 'src': '/static/foodstim60/eggs.jpg', 'key': 'i', 'origWidth': 409, 'origHeight': 409, 'width': 409, 'height': 409, 'widthPercent': 0.45, 'rescaleHeight': False, 'trialN': 16, 'loaded': True, 'loadedTime': 1934.7000000011176, 'positionName': 'RIGHT', 'positionCoords': [670.8, 225.5], 'bid': 5.55}]",26207.400000000373,1669831201842,Tribe humus pita,eggs,5.94,5.55,-0.39000000000000057,Tribe humus pita,943.9000000003725,944,944.8000000007451,True,u,27672.700000001118,1465.300000000745,1669831203307,1465,HRV,HRV_0139,2022-11-30 18:04:47
17,"[{'imgObject': {}, 'id': 'cherry tomato', 'src': '/static/foodstim60/cherry tomato.jpg', 'key': 'u', 'origWidth': 410, 'origHeight': 410, 'width': 410, 'height': 410, 'widthPercent': 0.45, 'rescaleHeight': False, 'trialN': 17, 'loaded': True, 'loadedTime': 2042.4000000003725, 'positionName': 'LEFT', 'positionCoords': [209.2, 225], 'bid': 2.65}, {'imgObject': {}, 'id': 'salmon', 'src': '/static/foodstim60/salmon.jpg', 'key': 'i', 'origWidth': 410, 'origHeight': 409, 'width': 410, 'height': 409, 'widthPercent': 0.45, 'rescaleHeight': False, 'trialN': 17, 'loaded': True, 'loadedTime': 2074.7000000011176, 'positionName': 'RIGHT', 'positionCoords': [670.8, 225.5], 'bid': 3.82}]",27674.10000000149,1669831203308,cherry tomato,salmon,2.65,3.82,1.17,cherry tomato,1228.5,1229,1229.0,True,u,29415.700000001118,1741.5999999996275,1669831205050,1742,HRV,HRV_0139,2022-11-30 18:04:47
18,"[{'imgObject': {}, 'id': 'apple slices', 'src': '/static/foodstim60/apple slices.jpg', 'key': 'u', 'origWidth': 409, 'origHeight': 410, 'width': 409, 'height': 410, 'widthPercent': 0.45, 'rescaleHeight': False, 'trialN': 18, 'loaded': True, 'loadedTime': 1996.2000000011176, 'positionName': 'LEFT', 'positionCoords': [210.2, 225], 'bid': 9.4}, {'imgObject': {}, 'id': 'granola w milk', 'src': '/static/foodstim60/granola w milk.jpg', 'key': 'i', 'origWidth': 410, 'origHeight': 410, 'width': 410, 'height': 410, 'widthPercent': 0.45, 'rescaleHeight': False, 'trialN': 18, 'loaded': True, 'loadedTime': 2079, 'positionName': 'RIGHT', 'positionCoords': [670.8, 225], 'bid': 8.03}]",29415.800000000745,1669831205050,apple slices,granola w milk,9.4,8.03,-1.370000000000001,apple slices,956.5999999996275,957,957.1999999992549,True,u,30882.400000000373,1466.5999999996275,1669831206517,1467,HRV,HRV_0139,2022-11-30 18:04:47
19,"[{'imgObject': {}, 'id': 'sweetpotato', 'src': '/static/foodstim60/sweetpotato.jpg', 'key': 'u', 'origWidth': 410, 'origHeight': 410, 'width': 410, 'height': 410, 'widthPercent': 0.45, 'rescaleHeight': False, 'trialN': 19, 'loaded': True, 'loadedTime': 2013.1000000014901, 'positionName': 'LEFT', 'positionCoords': [209.2, 225], 'bid': 4.93}, {'imgObject': {}, 'id': 'salmon', 'src': '/static/foodstim60/salmon.jpg', 'key': 'i', 'origWidth': 410, 'origHeight': 409, 'width': 410, 'height': 409, 'widthPercent': 0.45, 'rescaleHeight': False, 'trialN': 19, 'loaded': True, 'loadedTime': 2075.4000000003725, 'positionName': 'RIGHT', 'positionCoords': [670.8, 225.5], 'bid': 3.82}]",30882.700000001118,1669831206517,sweetpotato,salmon,4.93,3.82,-1.1099999999999999,sweetpotato,1162.0999999996275,1163,1162.5999999996275,True,u,32553.0,1670.2999999988824,1669831208187,1670,HRV,HRV_0139,2022-11-30 18:04:47
20,"[{'imgObject': {}, 'id': 'lox', 'src': '/static/foodstim60/lox.jpg', 'key': 'u', 'origWidth': 410, 'origHeight': 411, 'width': 410, 'height': 411, 'widthPercent': 0.45, 'rescaleHeight': False, 'trialN': 20, 'loaded': True, 'loadedTime': 2087.9000000003725, 'positionName': 'LEFT', 'positionCoords': [209.2, 224.5], 'bid': 0.27}, {'imgObject': {}, 'id': 'seaweed', 'src': '/static/foodstim60/seaweed.jpg', 'key': 'i', 'origWidth': 410, 'origHeight': 410, 'width': 410, 'height': 410, 'widthPercent': 0.45, 'rescaleHeight': False, 'trialN': 20, 'loaded': True, 'loadedTime': 2057.5, 'positionName': 'RIGHT', 'positionCoords': [670.8, 225], 'bid': 0.22}]",32553.200000001118,1669831208187,lox,seaweed,0.27,0.22,-0.05000000000000002,lox,1071.2999999988824,1072,1071.5999999996275,True,u,34143.800000000745,1590.5999999996275,1669831209778,1591,HRV,HRV_0139,2022-11-30 18:04:47
21,"[{'imgObject': {}, 'id': 'turkey sandwich', 'src': '/static/foodstim60/turkey sandwich.jpg', 'key': 'u', 'origWidth': 409, 'origHeight': 409, 'width': 409, 'height': 409, 'widthPercent': 0.45, 'rescaleHeight': False, 'trialN': 21, 'loaded': True, 'loadedTime': 1878.5, 'positionName': 'LEFT', 'positionCoords': [210.2, 225.5], 'bid': 9.62}, {'imgObject': {}, 'id': 'olives', 'src': '/static/foodstim60/olives.jpg', 'key': 'i', 'origWidth': 410, 'origHeight': 410, 'width': 410, 'height': 410, 'widthPercent': 0.45, 'rescaleHeight': False, 'trialN': 21, 'loaded': True, 'loadedTime': 2009.5, 'positionName': 'RIGHT', 'positionCoords': [670.8, 225], 'bid': 9.85}]",34144.10000000149,1669831209778,turkey sandwich,olives,9.62,9.85,0.23000000000000043,olives,1514.7999999988824,1516,1515.3999999985099,True,i,36166.5,2022.3999999985099,1669831211801,2023,HRV,HRV_0139,2022-11-30 18:04:47
22,"[{'imgObject': {}, 'id': 'roastedpotatoes', 'src': '/static/foodstim60/roastedpotatoes.jpg', 'key': 'u', 'origWidth': 409, 'origHeight': 410, 'width': 409, 'height': 410, 'widthPercent': 0.45, 'rescaleHeight': False, 'trialN': 22, 'loaded': True, 'loadedTime': 2090.9000000003725, 'positionName': 'LEFT', 'positionCoords': [210.2, 225], 'bid': 8.9}, {'imgObject': {}, 'id': 'mango', 'src': '/static/foodstim60/mango.jpg', 'key': 'i', 'origWidth': 411, 'origHeight': 411, 'width': 411, 'height': 411, 'widthPercent': 0.45, 'rescaleHeight': False, 'trialN': 22, 'loaded': True, 'loadedTime': 2102.800000000745, 'positionName': 'RIGHT', 'positionCoords': [670.8, 224.5], 'bid': 8.61}]",36166.70000000112,1669831211801,roastedpotatoes,mango,8.9,8.61,-0.2900000000000009,roastedpotatoes,938.2999999988824,939,938.7999999988824,True,u,37627.40000000037,1460.699999999255,1669831213262,1461,HRV,HRV_0139,2022-11-30 18:04:47
23,"[{'imgObject': {}, 'id': 'burrito', 'src': '/static/foodstim60/burrito.jpg', 'key': 'u', 'origWidth': 410, 'origHeight': 410, 'width': 410, 'height': 410, 'widthPercent': 0.45, 'rescaleHeight': False, 'trialN': 23, 'loaded': True, 'loadedTime': 2103.2000000011176, 'positionName': 'LEFT', 'positionCoords': [209.2, 225], 'bid': 6.11}, {'imgObject': {}, 'id': 'banana', 'src': '/static/foodstim60/banana.jpg', 'key': 'i', 'origWidth': 410, 'origHeight': 410, 'width': 410, 'height': 410, 'widthPercent': 0.45, 'rescaleHeight': False, 'trialN': 23, 'loaded': True, 'loadedTime': 1983.1000000014901, 'positionName': 'RIGHT', 'positionCoords': [670.8, 225], 'bid': 5.13}]",37628.70000000112,1669831213263,burrito,banana,6.11,5.13,-0.9800000000000004,burrito,969.4000000003725,970,969.7999999988824,True,u,39101.300000000745,1472.5999999996275,1669831214736,1473,HRV,HRV_0139,2022-11-30 18:04:47
24,"[{'imgObject': {}, 'id': 'Grapes', 'src': '/static/foodstim60/Grapes.jpg', 'key': 'u', 'origWidth': 411, 'origHeight': 411, 'width': 411, 'height': 411, 'widthPercent': 0.45, 'rescaleHeight': False, 'trialN': 24, 'loaded': True, 'loadedTime': 1917, 'positionName': 'LEFT', 'positionCoords': [208.2, 224.5], 'bid': 8.82}, {'imgObject': {}, 'id': 'chickenfingers', 'src': '/static/foodstim60/chickenfingers.jpg', 'key': 'i', 'origWidth': 410, 'origHeight': 410, 'width': 410, 'height': 410, 'widthPercent': 0.45, 'rescaleHeight': False, 'trialN': 24, 'loaded': True, 'loadedTime': 2114, 'positionName': 'RIGHT', 'positionCoords': [670.8, 225], 'bid': 9.51}]",39101.5,1669831214736,Grapes,chickenfingers,8.82,9.51,0.6899999999999995,chickenfingers,961.1000000014901,962,961.9000000003725,True,i,40579.70000000112,1478.2000000011176,1669831216214,1478,HRV,HRV_0139,2022-11-30 18:04:47
25,"[{'imgObject': {}, 'id': 'pear', 'src': '/static/foodstim60/pear.jpg', 'key': 'u', 'origWidth': 411, 'origHeight': 410, 'width': 411, 'height': 410, 'widthPercent': 0.45, 'rescaleHeight': False, 'trialN': 25, 'loaded': True, 'loadedTime': 2117.2000000011176, 'positionName': 'LEFT', 'positionCoords': [208.2, 225], 'bid': 9.48}, {'imgObject': {}, 'id': 'chickenfingers', 'src': '/static/foodstim60/chickenfingers.jpg', 'key': 'i', 'origWidth': 410, 'origHeight': 410, 'width': 410, 'height': 410, 'widthPercent': 0.45, 'rescaleHeight': False, 'trialN': 25, 'loaded': True, 'loadedTime': 2114.300000000745, 'positionName': 'RIGHT', 'positionCoords': [670.8, 225], 'bid': 9.51}]",40580.300000000745,1669831216215,pear,chickenfingers,9.48,9.51,0.02999999999999936,chickenfingers,1068.5,1068,1068.9000000003725,True,i,42153.20000000112,1572.9000000003725,1669831217787,1572,HRV,HRV_0139,2022-11-30 18:04:47
26,"[{'imgObject': {}, 'id': 'orange slices', 'src': '/static/foodstim60/orange slices.jpg', 'key': 'u', 'origWidth': 409, 'origHeight': 410, 'width': 409, 'height': 410, 'widthPercent': 0.45, 'rescaleHeight': False, 'trialN': 26, 'loaded': True, 'loadedTime': 1833, 'positionName': 'LEFT', 'positionCoords': [210.2, 225], 'bid': 9.1}, {'imgObject': {}, 'id': 'cherries', 'src': '/static/foodstim60/cherries.jpg', 'key': 'i', 'origWidth': 410, 'origHeight': 411, 'width': 410, 'height': 411, 'widthPercent': 0.45, 'rescaleHeight': False, 'trialN': 26, 'loaded': True, 'loadedTime': 1851.5, 'positionName': 'RIGHT', 'positionCoords': [670.8, 224.5], 'bid': 9.07}]",42154.5,1669831217789,orange slices,cherries,9.1,9.07,-0.02999999999999936,cherries,1236.1000000014901,1236,1236.5,True,i,43896.60000000149,1742.1000000014901,1669831219531,1742,HRV,HRV_0139,2022-11-30 18:04:47
27,"[{'imgObject': {}, 'id': 'cantaloupe', 'src': '/static/foodstim60/cantaloupe.jpg', 'key': 'u', 'origWidth': 409, 'origHeight': 409, 'width': 409, 'height': 409, 'widthPercent': 0.45, 'rescaleHeight': False, 'trialN': 27, 'loaded': True, 'loadedTime': 1849.7000000011176, 'positionName': 'LEFT', 'positionCoords': [210.2, 225.5], 'bid': 8.64}, {'imgObject': {}, 'id': 'cheerios', 'src': '/static/foodstim60/cheerios.jpg', 'key': 'i', 'origWidth': 409, 'origHeight': 410, 'width': 409, 'height': 410, 'widthPercent': 0.45, 'rescaleHeight': False, 'trialN': 27, 'loaded': True, 'loadedTime': 1798.800000000745, 'positionName': 'RIGHT', 'positionCoords': [670.8, 225], 'bid': 7.65}]",43897.800000000745,1669831219532,cantaloupe,cheerios,8.64,7.65,-0.9900000000000002,cheerios,1011.5999999996275,1012,1011.9000000003725,True,i,45413.0,1515.199999999255,1669831221047,1515,HRV,HRV_0139,2022-11-30 18:04:47
28,"[{'imgObject': {}, 'id': 'grilled chicken strips', 'src': '/static/foodstim60/grilled chicken strips.jpg', 'key': 'u', 'origWidth': 410, 'origHeight': 411, 'width': 410, 'height': 411, 'widthPercent': 0.45, 'rescaleHeight': False, 'trialN': 28, 'loaded': True, 'loadedTime': 2126, 'positionName': 'LEFT', 'positionCoords': [209.2, 224.5], 'bid': 9.72}, {'imgObject': {}, 'id': 'blackbeanswithrice', 'src': '/static/foodstim60/blackbeanswithrice.jpg', 'key': 'i', 'origWidth': 410, 'origHeight': 410, 'width': 410, 'height': 410, 'widthPercent': 0.45, 'rescaleHeight': False, 'trialN': 28, 'loaded': True, 'loadedTime': 1903.7000000011176, 'positionName': 'RIGHT', 'positionCoords': [670.8, 225], 'bid': 8.81}]",45416.70000000112,1669831221051,grilled chicken strips,blackbeanswithrice,9.72,8.81,-0.9100000000000001,grilled chicken strips,1411.699999999255,1412,1412.0999999996275,True,u,47335.60000000149,1918.9000000003725,1669831222970,1919,HRV,HRV_0139,2022-11-30 18:04:47
29,"[{'imgObject': {}, 'id': 'popsicles', 'src': '/static/foodstim60/popsicles.jpg', 'key': 'u', 'origWidth': 410, 'origHeight': 410, 'width': 410, 'height': 410, 'widthPercent': 0.45, 'rescaleHeight': False, 'trialN': 29, 'loaded': True, 'loadedTime': 2128, 'positionName': 'LEFT', 'positionCoords': [209.2, 225], 'bid': 4.59}, {'imgObject': {}, 'id': 'cherry tomato', 'src': '/static/foodstim60/cherry tomato.jpg', 'key': 'i', 'origWidth': 410, 'origHeight': 410, 'width': 410, 'height': 410, 'widthPercent': 0.45, 'rescaleHeight': False, 'trialN': 29, 'loaded': True, 'loadedTime': 2036, 'positionName': 'RIGHT', 'positionCoords': [670.8, 225], 'bid': 2.65}]",47335.90000000037,1669831222970,popsicles,cherry tomato,4.59,2.65,-1.94,popsicles,1067.7000000011176,1068,1067.9000000003725,True,u,48918.0,1582.0999999996275,1669831224552,1582,HRV,HRV_0139,2022-11-30 18:04:47
30,"[{'imgObject': {}, 'id': 'cherries', 'src': '/static/foodstim60/cherries.jpg', 'key': 'u', 'origWidth': 410, 'origHeight': 411, 'width': 410, 'height': 411, 'widthPercent': 0.45, 'rescaleHeight': False, 'trialN': 30, 'loaded': True, 'loadedTime': 1851.7000000011176, 'positionName': 'LEFT', 'positionCoords': [209.2, 224.5], 'bid': 9.07}, {'imgObject': {}, 'id': 'rigatoni', 'src': '/static/foodstim60/rigatoni.jpg', 'key': 'i', 'origWidth': 411, 'origHeight': 411, 'width': 411, 'height': 411, 'widthPercent': 0.45, 'rescaleHeight': False, 'trialN': 30, 'loaded': True, 'loadedTime': 1812, 'positionName': 'RIGHT', 'positionCoords': [670.8, 224.5], 'bid': 9.31}]",48918.5,1669831224553,cherries,rigatoni,9.07,9.31,0.2400000000000002,rigatoni,899.9000000003725,900,900.5,True,i,50333.40000000037,1414.9000000003725,1669831225968,1415,HRV,HRV_0139,2022-11-30 18:04:47
31,"[{'imgObject': {}, 'id': 'Tribe humus pita', 'src': '/static/foodstim60/Tribe humus pita.jpg', 'key': 'u', 'origWidth': 411, 'origHeight': 411, 'width': 411, 'height': 411, 'widthPercent': 0.45, 'rescaleHeight': False, 'trialN': 31, 'loaded': True, 'loadedTime': 2044.7000000011176, 'positionName': 'LEFT', 'positionCoords': [208.2, 224.5], 'bid': 5.94}, {'imgObject': {}, 'id': 'raisin bran w milk', 'src': '/static/foodstim60/raisin bran w milk.jpg', 'key': 'i', 'origWidth': 411, 'origHeight': 411, 'width': 411, 'height': 411, 'widthPercent': 0.45, 'rescaleHeight': False, 'trialN': 31, 'loaded': True, 'loadedTime': 2139.4000000003725, 'positionName': 'RIGHT', 'positionCoords': [670.8, 224.5], 'bid': 6.17}]",50334.0,1669831225968,Tribe humus pita,raisin bran w milk,5.94,6.17,0.22999999999999954,Tribe humus pita,1004.7000000011176,1006,1005.6000000014901,True,u,51852.5,1518.5,1669831227487,1519,HRV,HRV_0139,2022-11-30 18:04:47
32,"[{'imgObject': {}, 'id': 'edamame', 'src': '/static/foodstim60/edamame.jpg', 'key': 'u', 'origWidth': 409, 'origHeight': 410, 'width': 409, 'height': 410, 'widthPercent': 0.45, 'rescaleHeight': False, 'trialN': 32, 'loaded': True, 'loadedTime': 2141.9000000003725, 'positionName': 'LEFT', 'positionCoords': [210.2, 225], 'bid': 6.79}, {'imgObject': {}, 'id': 'baked potato', 'src': '/static/foodstim60/baked potato.jpg', 'key': 'i', 'origWidth': 409, 'origHeight': 410, 'width': 409, 'height': 410, 'widthPercent': 0.45, 'rescaleHeight': False, 'trialN': 32, 'loaded': True, 'loadedTime': 1971.4000000003725, 'positionName': 'RIGHT', 'positionCoords': [670.8, 225], 'bid': 5.26}]",51853.40000000037,1669831227488,edamame,baked potato,6.79,5.26,-1.5300000000000002,baked potato,1018.7000000011176,1019,1019.3000000007451,True,i,53394.300000000745,1540.9000000003725,1669831229029,1541,HRV,HRV_0139,2022-11-30 18:04:47
33,"[{'imgObject': {}, 'id': 'corn cob', 'src': '/static/foodstim60/corn cob.jpg', 'key': 'u', 'origWidth': 411, 'origHeight': 411, 'width': 411, 'height': 411, 'widthPercent': 0.45, 'rescaleHeight': False, 'trialN': 33, 'loaded': True, 'loadedTime': 2012.1000000014901, 'positionName': 'LEFT', 'positionCoords': [208.2, 224.5], 'bid': 9.77}, {'imgObject': {}, 'id': 'luckycharms', 'src': '/static/foodstim60/luckycharms.jpg', 'key': 'i', 'origWidth': 410, 'origHeight': 409, 'width': 410, 'height': 409, 'widthPercent': 0.45, 'rescaleHeight': False, 'trialN': 33, 'loaded': True, 'loadedTime': 1901.9000000003725, 'positionName': 'RIGHT', 'positionCoords': [670.8, 225.5], 'bid': 7.17}]",53394.90000000037,1669831229029,corn cob,luckycharms,9.77,7.17,-2.5999999999999996,corn cob,978.5,979,978.9000000003725,True,u,54887.10000000149,1492.2000000011176,1669831230521,1492,HRV,HRV_0139,2022-11-30 18:04:47
34,"[{'imgObject': {}, 'id': 'eggsalad', 'src': '/static/foodstim60/eggsalad.jpg', 'key': 'u', 'origWidth': 410, 'origHeight': 409, 'width': 410, 'height': 409, 'widthPercent': 0.45, 'rescaleHeight': False, 'trialN': 34, 'loaded': True, 'loadedTime': 2154.800000000745, 'positionName': 'LEFT', 'positionCoords': [209.2, 225.5], 'bid': 6.08}, {'imgObject': {}, 'id': 'cocktailshrimp', 'src': '/static/foodstim60/cocktailshrimp.jpg', 'key': 'i', 'origWidth': 410, 'origHeight': 410, 'width': 410, 'height': 410, 'widthPercent': 0.45, 'rescaleHeight': False, 'trialN': 34, 'loaded': True, 'loadedTime': 2157, 'positionName': 'RIGHT', 'positionCoords': [670.8, 225], 'bid': 0.19}]",54887.300000000745,1669831230522,eggsalad,cocktailshrimp,6.08,0.19,-5.89,eggsalad,1157.5,1158,1158.300000000745,True,u,56554.300000000745,1667.0,1669831232189,1667,HRV,HRV_0139,2022-11-30 18:04:47
35,"[{'imgObject': {}, 'id': 'baked potato', 'src': '/static/foodstim60/baked potato.jpg', 'key': 'u', 'origWidth': 409, 'origHeight': 410, 'width': 409, 'height': 410, 'widthPercent': 0.45, 'rescaleHeight': False, 'trialN': 35, 'loaded': True, 'loadedTime': 1982.7000000011176, 'positionName': 'LEFT', 'positionCoords': [210.2, 225], 'bid': 5.26}, {'imgObject': {}, 'id': 'omelette', 'src': '/static/foodstim60/omelette.jpg', 'key': 'i', 'origWidth': 410, 'origHeight': 409, 'width': 410, 'height': 409, 'widthPercent': 0.45, 'rescaleHeight': False, 'trialN': 35, 'loaded': True, 'loadedTime': 2059.4000000003725, 'positionName': 'RIGHT', 'positionCoords': [670.8, 225.5], 'bid': 5.29}]",56554.5,1669831232189,baked potato,omelette,5.26,5.29,0.03000000000000025,baked potato,950.1000000014901,950,950.6000000014901,True,u,58019.90000000037,1465.4000000003725,1669831233654,1465,HRV,HRV_0139,2022-11-30 18:04:47
36,"[{'imgObject': {}, 'id': 'pear', 'src': '/static/foodstim60/pear.jpg', 'key': 'u', 'origWidth': 411, 'origHeight': 410, 'width': 411, 'height': 410, 'widthPercent': 0.45, 'rescaleHeight': False, 'trialN': 36, 'loaded': True, 'loadedTime': 2116.800000000745, 'positionName': 'LEFT', 'positionCoords': [208.2, 225], 'bid': 9.48}, {'imgObject': {}, 'id': 'avocado', 'src': '/static/foodstim60/avocado.jpg', 'key': 'i', 'origWidth': 409, 'origHeight': 409, 'width': 409, 'height': 409, 'widthPercent': 0.45, 'rescaleHeight': False, 'trialN': 36, 'loaded': True, 'loadedTime': 2158.5, 'positionName': 'RIGHT', 'positionCoords': [670.8, 225.5], 'bid': 9.41}]",58021.20000000112,1669831233655,pear,avocado,9.48,9.41,-0.07000000000000028,avocado,1387.9000000003725,1389,1388.7999999988824,True,i,59930.300000000745,1909.0999999996275,1669831235565,1910,HRV,HRV_0139,2022-11-30 18:04:47
37,"[{'imgObject': {}, 'id': 'salad w chicken', 'src': '/static/foodstim60/salad w chicken.jpg', 'key': 'u', 'origWidth': 411, 'origHeight': 411, 'width': 411, 'height': 411, 'widthPercent': 0.45, 'rescaleHeight': False, 'trialN': 37, 'loaded': True, 'loadedTime': 2160.7000000011176, 'positionName': 'LEFT', 'positionCoords': [208.2, 224.5], 'bid': 9.83}, {'imgObject': {}, 'id': 'turkeysandwich', 'src': '/static/foodstim60/turkeysandwich.jpg', 'key': 'i', 'origWidth': 409, 'origHeight': 409, 'width': 409, 'height': 409, 'widthPercent': 0.45, 'rescaleHeight': False, 'trialN': 37, 'loaded': True, 'loadedTime': 2173.2000000011176, 'positionName': 'RIGHT', 'positionCoords': [670.8, 225.5], 'bid': 9.86}]",59931.10000000149,1669831235565,salad w chicken,turkeysandwich,9.83,9.86,0.02999999999999936,turkeysandwich,1138.2999999988824,1139,1138.699999999255,True,i,61572.800000000745,1641.699999999255,1669831237207,1642,HRV,HRV_0139,2022-11-30 18:04:47
38,"[{'imgObject': {}, 'id': 'turkey sandwich', 'src': '/static/foodstim60/turkey sandwich.jpg', 'key': 'u', 'origWidth': 409, 'origHeight': 409, 'width': 409, 'height': 409, 'widthPercent': 0.45, 'rescaleHeight': False, 'trialN': 38, 'loaded': True, 'loadedTime': 1878.800000000745, 'positionName': 'LEFT', 'positionCoords': [210.2, 225.5], 'bid': 9.62}, {'imgObject': {}, 'id': 'strawberries', 'src': '/static/foodstim60/strawberries.jpg', 'key': 'i', 'origWidth': 410, 'origHeight': 410, 'width': 410, 'height': 410, 'widthPercent': 0.45, 'rescaleHeight': False, 'trialN': 38, 'loaded': True, 'loadedTime': 2035, 'positionName': 'RIGHT', 'positionCoords': [670.8, 225], 'bid': 6.62}]",61574.0,1669831237208,turkey sandwich,strawberries,9.62,6.62,-2.999999999999999,turkey sandwich,946.0,947,947.0,True,u,63033.90000000037,1459.9000000003725,1669831238668,1460,HRV,HRV_0139,2022-11-30 18:04:47
39,"[{'imgObject': {}, 'id': 'bagel and cc', 'src': '/static/foodstim60/bagel and cc.jpg', 'key': 'u', 'origWidth': 410, 'origHeight': 410, 'width': 410, 'height': 410, 'widthPercent': 0.45, 'rescaleHeight': False, 'trialN': 39, 'loaded': True, 'loadedTime': 1837.7000000011176, 'positionName': 'LEFT', 'positionCoords': [209.2, 225], 'bid': 8.700000000000001}, {'imgObject': {}, 'id': 'cantaloupe', 'src': '/static/foodstim60/cantaloupe.jpg', 'key': 'i', 'origWidth': 409, 'origHeight': 409, 'width': 409, 'height': 409, 'widthPercent': 0.45, 'rescaleHeight': False, 'trialN': 39, 'loaded': True, 'loadedTime': 1849.4000000003725, 'positionName': 'RIGHT', 'positionCoords': [670.8, 225.5], 'bid': 8.64}]",63034.300000000745,1669831238668,bagel and cc,cantaloupe,8.700000000000001,8.64,-0.0600000000000005,bagel and cc,1157.5,1159,1158.300000000745,True,u,64708.800000000745,1674.5,1669831240343,1675,HRV,HRV_0139,2022-11-30 18:04:47
40,"[{'imgObject': {}, 'id': 'orange slices', 'src': '/static/foodstim60/orange slices.jpg', 'key': 'u', 'origWidth': 409, 'origHeight': 410, 'width': 409, 'height': 410, 'widthPercent': 0.45, 'rescaleHeight': False, 'trialN': 40, 'loaded': True, 'loadedTime': 1822.800000000745, 'positionName': 'LEFT', 'positionCoords': [210.2, 225], 'bid': 9.1}, {'imgObject': {}, 'id': 'eggsalad', 'src': '/static/foodstim60/eggsalad.jpg', 'key': 'i', 'origWidth': 410, 'origHeight': 409, 'width': 410, 'height': 409, 'widthPercent': 0.45, 'rescaleHeight': False, 'trialN': 40, 'loaded': True, 'loadedTime': 2154, 'positionName': 'RIGHT', 'positionCoords': [670.8, 225.5], 'bid': 6.08}]",64709.10000000149,1669831240343,orange slices,eggsalad,9.1,6.08,-3.0199999999999996,orange slices,1047.8999999985099,1049,1048.5,True,u,66269.30000000075,1560.199999999255,1669831241904,1561,HRV,HRV_0139,2022-11-30 18:04:47
41,"[{'imgObject': {}, 'id': 'cocktailshrimp', 'src': '/static/foodstim60/cocktailshrimp.jpg', 'key': 'u', 'origWidth': 410, 'origHeight': 410, 'width': 410, 'height': 410, 'widthPercent': 0.45, 'rescaleHeight': False, 'trialN': 41, 'loaded': True, 'loadedTime': 2156.5, 'positionName': 'LEFT', 'positionCoords': [209.2, 225], 'bid': 0.19}, {'imgObject': {}, 'id': 'popsicles', 'src': '/static/foodstim60/popsicles.jpg', 'key': 'i', 'origWidth': 410, 'origHeight': 410, 'width': 410, 'height': 410, 'widthPercent': 0.45, 'rescaleHeight': False, 'trialN': 41, 'loaded': True, 'loadedTime': 2128.300000000745, 'positionName': 'RIGHT', 'positionCoords': [670.8, 225], 'bid': 4.59}]",66269.40000000037,1669831241904,cocktailshrimp,popsicles,0.19,4.59,4.3999999999999995,popsicles,819.9000000003725,820,820.8000000007451,True,i,67610.5,1341.0999999996275,1669831243245,1341,HRV,HRV_0139,2022-11-30 18:04:47
42,"[{'imgObject': {}, 'id': 'sushi w_condiments', 'src': '/static/foodstim60/sushi w_condiments.jpg', 'key': 'u', 'origWidth': 410, 'origHeight': 410, 'width': 410, 'height': 410, 'widthPercent': 0.45, 'rescaleHeight': False, 'trialN': 42, 'loaded': True, 'loadedTime': 1969.5, 'positionName': 'LEFT', 'positionCoords': [209.2, 225], 'bid': 0.24}, {'imgObject': {}, 'id': 'eggs', 'src': '/static/foodstim60/eggs.jpg', 'key': 'i', 'origWidth': 409, 'origHeight': 409, 'width': 409, 'height': 409, 'widthPercent': 0.45, 'rescaleHeight': False, 'trialN': 42, 'loaded': True, 'loadedTime': 1934.5, 'positionName': 'RIGHT', 'positionCoords': [670.8, 225.5], 'bid': 5.55}]",67611.30000000075,1669831243246,sushi w_condiments,eggs,0.24,5.55,5.31,eggs,931.1999999992549,931,931.6999999992549,True,i,69046.5,1435.199999999255,1669831244681,1435,HRV,HRV_0139,2022-11-30 18:04:47
43,"[{'imgObject': {}, 'id': 'bagel plain', 'src': '/static/foodstim60/bagel plain.jpg', 'key': 'u', 'origWidth': 410, 'origHeight': 410, 'width': 410, 'height': 410, 'widthPercent': 0.45, 'rescaleHeight': False, 'trialN': 43, 'loaded': True, 'loadedTime': 2173.7000000011176, 'positionName': 'LEFT', 'positionCoords': [209.2, 225], 'bid': 9.69}, {'imgObject': {}, 'id': 'turkeysandwich', 'src': '/static/foodstim60/turkeysandwich.jpg', 'key': 'i', 'origWidth': 409, 'origHeight': 409, 'width': 409, 'height': 409, 'widthPercent': 0.45, 'rescaleHeight': False, 'trialN': 43, 'loaded': True, 'loadedTime': 2173.300000000745, 'positionName': 'RIGHT', 'positionCoords': [670.8, 225.5], 'bid': 9.86}]",69046.80000000075,1669831244681,bagel plain,turkeysandwich,9.69,9.86,0.16999999999999993,turkeysandwich,900.1999999992549,901,900.6999999992549,True,i,70462.80000000075,1416.0,1669831246097,1416,HRV,HRV_0139,2022-11-30 18:04:47
44,"[{'imgObject': {}, 'id': 'cherries', 'src': '/static/foodstim60/cherries.jpg', 'key': 'u', 'origWidth': 410, 'origHeight': 411, 'width': 410, 'height': 411, 'widthPercent': 0.45, 'rescaleHeight': False, 'trialN': 44, 'loaded': True, 'loadedTime': 1852, 'positionName': 'LEFT', 'positionCoords': [209.2, 224.5], 'bid': 9.07}, {'imgObject': {}, 'id': 'turkeysandwich', 'src': '/static/foodstim60/turkeysandwich.jpg', 'key': 'i', 'origWidth': 409, 'origHeight': 409, 'width': 409, 'height': 409, 'widthPercent': 0.45, 'rescaleHeight': False, 'trialN': 44, 'loaded': True, 'loadedTime': 2173, 'positionName': 'RIGHT', 'positionCoords': [670.8, 225.5], 'bid': 9.86}]",70463.0,1669831246097,cherries,turkeysandwich,9.07,9.86,0.7899999999999991,turkeysandwich,932.5,933,932.9000000003725,True,i,71914.60000000149,1451.6000000014901,1669831247549,1452,HRV,HRV_0139,2022-11-30 18:04:47
45,"[{'imgObject': {}, 'id': 'lox', 'src': '/static/foodstim60/lox.jpg', 'key': 'u', 'origWidth': 410, 'origHeight': 411, 'width': 410, 'height': 411, 'widthPercent': 0.45, 'rescaleHeight': False, 'trialN': 45, 'loaded': True, 'loadedTime': 2088.300000000745, 'positionName': 'LEFT', 'positionCoords': [209.2, 224.5], 'bid': 0.27}, {'imgObject': {}, 'id': 'veggieswithdip', 'src': '/static/foodstim60/veggieswithdip.jpg', 'key': 'i', 'origWidth': 409, 'origHeight': 409, 'width': 409, 'height': 409, 'widthPercent': 0.45, 'rescaleHeight': False, 'trialN': 45, 'loaded': True, 'loadedTime': 2185.300000000745, 'positionName': 'RIGHT', 'positionCoords': [670.8, 225.5], 'bid': 8.28}]",71915.90000000037,1669831247550,lox,veggieswithdip,0.27,8.28,8.01,veggieswithdip,938.9000000003725,939,939.3000000007451,True,i,73366.5,1450.5999999996275,1669831249001,1451,HRV,HRV_0139,2022-11-30 18:04:47
46,"[{'imgObject': {}, 'id': 'kiwi', 'src': '/static/foodstim60/kiwi.jpg', 'key': 'u', 'origWidth': 410, 'origHeight': 410, 'width': 410, 'height': 410, 'widthPercent': 0.45, 'rescaleHeight': False, 'trialN': 46, 'loaded': True, 'loadedTime': 2187.60000000149, 'positionName': 'LEFT', 'positionCoords': [209.2, 225], 'bid': 6.3}, {'imgObject': {}, 'id': 'chickenfingers', 'src': '/static/foodstim60/chickenfingers.jpg', 'key': 'i', 'origWidth': 410, 'origHeight': 410, 'width': 410, 'height': 410, 'widthPercent': 0.45, 'rescaleHeight': False, 'trialN': 46, 'loaded': True, 'loadedTime': 2106.300000000745, 'positionName': 'RIGHT', 'positionCoords': [670.8, 225], 'bid': 9.51}]",73366.80000000075,1669831249001,kiwi,chickenfingers,6.3,9.51,3.21,chickenfingers,952.0999999996275,955,955.1999999992549,True,i,74841.40000000037,1474.5999999996275,1669831250476,1475,HRV,HRV_0139,2022-11-30 18:04:47
47,"[{'imgObject': {}, 'id': 'ice cream sundae 002', 'src': '/static/foodstim60/ice cream sundae 002.jpg', 'key': 'u', 'origWidth': 409, 'origHeight': 409, 'width': 409, 'height': 409, 'widthPercent': 0.45, 'rescaleHeight': False, 'trialN': 47, 'loaded': True, 'loadedTime': 1954.1000000014901, 'positionName': 'LEFT', 'positionCoords': [210.2, 225.5], 'bid': 5.91}, {'imgObject': {}, 'id': 'eggsalad', 'src': '/static/foodstim60/eggsalad.jpg', 'key': 'i', 'origWidth': 410, 'origHeight': 409, 'width': 410, 'height': 409, 'widthPercent': 0.45, 'rescaleHeight': False, 'trialN': 47, 'loaded': True, 'loadedTime': 2154.300000000745, 'positionName': 'RIGHT', 'positionCoords': [670.8, 225.5], 'bid': 6.08}]",74841.60000000149,1669831250476,ice cream sundae 002,eggsalad,5.91,6.08,0.16999999999999993,eggsalad,1231.5999999996275,1232,1232.2999999988824,True,i,76594.40000000037,1752.7999999988824,1669831252229,1753,HRV,HRV_0139,2022-11-30 18:04:47
48,"[{'imgObject': {}, 'id': 'mango', 'src': '/static/foodstim60/mango.jpg', 'key': 'u', 'origWidth': 411, 'origHeight': 411, 'width': 411, 'height': 411, 'widthPercent': 0.45, 'rescaleHeight': False, 'trialN': 48, 'loaded': True, 'loadedTime': 2092.60000000149, 'positionName': 'LEFT', 'positionCoords': [208.2, 224.5], 'bid': 8.61}, {'imgObject': {}, 'id': 'shreddedwheatwithmilk', 'src': '/static/foodstim60/shreddedwheatwithmilk.jpg', 'key': 'i', 'origWidth': 410, 'origHeight': 410, 'width': 410, 'height': 410, 'widthPercent': 0.45, 'rescaleHeight': False, 'trialN': 48, 'loaded': True, 'loadedTime': 2189.2000000011176, 'positionName': 'RIGHT', 'positionCoords': [670.8, 225], 'bid': 7.35}]",76595.30000000075,1669831252230,mango,shreddedwheatwithmilk,8.61,7.35,-1.2599999999999998,mango,1243.300000000745,1244,1244.199999999255,True,u,78354.80000000075,1759.5,1669831253989,1759,HRV,HRV_0139,2022-11-30 18:04:47
49,"[{'imgObject': {}, 'id': 'raisin bran w milk', 'src': '/static/foodstim60/raisin bran w milk.jpg', 'key': 'u', 'origWidth': 411, 'origHeight': 411, 'width': 411, 'height': 411, 'widthPercent': 0.45, 'rescaleHeight': False, 'trialN': 49, 'loaded': True, 'loadedTime': 2137.7000000011176, 'positionName': 'LEFT', 'positionCoords': [208.2, 224.5], 'bid': 6.17}, {'imgObject': {}, 'id': 'strawberries', 'src': '/static/foodstim60/strawberries.jpg', 'key': 'i', 'origWidth': 410, 'origHeight': 410, 'width': 410, 'height': 410, 'widthPercent': 0.45, 'rescaleHeight': False, 'trialN': 49, 'loaded': True, 'loadedTime': 2034.300000000745, 'positionName': 'RIGHT', 'positionCoords': [670.8, 225], 'bid': 6.62}]",78355.40000000037,1669831253990,raisin bran w milk,strawberries,6.17,6.62,0.4500000000000002,raisin bran w milk,1231.0999999996275,1232,1232.0,True,u,80093.60000000149,1738.2000000011176,1669831255728,1738,HRV,HRV_0139,2022-11-30 18:04:47
50,"[{'imgObject': {}, 'id': 'raspberries', 'src': '/static/foodstim60/raspberries.jpg', 'key': 'u', 'origWidth': 411, 'origHeight': 411, 'width': 411, 'height': 411, 'widthPercent': 0.45, 'rescaleHeight': False, 'trialN': 50, 'loaded': True, 'loadedTime': 2191.4000000003725, 'positionName': 'LEFT', 'positionCoords': [208.2, 224.5], 'bid': 8.45}, {'imgObject': {}, 'id': 'tacos', 'src': '/static/foodstim60/tacos.jpg', 'key': 'i', 'origWidth': 411, 'origHeight': 411, 'width': 411, 'height': 411, 'widthPercent': 0.45, 'rescaleHeight': False, 'trialN': 50, 'loaded': True, 'loadedTime': 1960, 'positionName': 'RIGHT', 'positionCoords': [670.8, 224.5], 'bid': 7.66}]",80094.30000000075,1669831255729,raspberries,tacos,8.45,7.66,-0.7899999999999991,tacos,1223.5999999996275,1224,1224.0,True,i,81823.0,1728.699999999255,1669831257457,1728,HRV,HRV_0139,2022-11-30 18:04:47
51,"[{'imgObject': {}, 'id': 'cocktailshrimp', 'src': '/static/foodstim60/cocktailshrimp.jpg', 'key': 'u', 'origWidth': 410, 'origHeight': 410, 'width': 410, 'height': 410, 'widthPercent': 0.45, 'rescaleHeight': False, 'trialN': 51, 'loaded': True, 'loadedTime': 2156.800000000745, 'positionName': 'LEFT', 'positionCoords': [209.2, 225], 'bid': 0.19}, {'imgObject': {}, 'id': 'sushi w_condiments', 'src': '/static/foodstim60/sushi w_condiments.jpg', 'key': 'i', 'origWidth': 410, 'origHeight': 410, 'width': 410, 'height': 410, 'widthPercent': 0.45, 'rescaleHeight': False, 'trialN': 51, 'loaded': True, 'loadedTime': 1968.800000000745, 'positionName': 'RIGHT', 'positionCoords': [670.8, 225], 'bid': 0.24}]",81824.30000000075,1669831257459,cocktailshrimp,sushi w_condiments,0.19,0.24,0.04999999999999999,sushi w_condiments,1356.0,1356,1356.5,True,i,83693.80000000075,1869.5,1669831259328,1869,HRV,HRV_0139,2022-11-30 18:04:47
52,"[{'imgObject': {}, 'id': 'edamame', 'src': '/static/foodstim60/edamame.jpg', 'key': 'u', 'origWidth': 409, 'origHeight': 410, 'width': 409, 'height': 410, 'widthPercent': 0.45, 'rescaleHeight': False, 'trialN': 52, 'loaded': True, 'loadedTime': 2142.300000000745, 'positionName': 'LEFT', 'positionCoords': [210.2, 225], 'bid': 6.79}, {'imgObject': {}, 'id': 'fruitsalad', 'src': '/static/foodstim60/fruitsalad.jpg', 'key': 'i', 'origWidth': 410, 'origHeight': 410, 'width': 410, 'height': 410, 'widthPercent': 0.45, 'rescaleHeight': False, 'trialN': 52, 'loaded': True, 'loadedTime': 2193.10000000149, 'positionName': 'RIGHT', 'positionCoords': [670.8, 225], 'bid': 7.8}]",83694.10000000149,1669831259329,edamame,fruitsalad,6.79,7.8,1.0099999999999998,fruitsalad,1219.5,1219,1219.8999999985099,True,i,85425.10000000149,1731.0,1669831261060,1731,HRV,HRV_0139,2022-11-30 18:04:47
53,"[{'imgObject': {}, 'id': 'turkeysandwich', 'src': '/static/foodstim60/turkeysandwich.jpg', 'key': 'u', 'origWidth': 409, 'origHeight': 409, 'width': 409, 'height': 409, 'widthPercent': 0.45, 'rescaleHeight': False, 'trialN': 53, 'loaded': True, 'loadedTime': 2170.60000000149, 'positionName': 'LEFT', 'positionCoords': [210.2, 225.5], 'bid': 9.86}, {'imgObject': {}, 'id': 'burger', 'src': '/static/foodstim60/burger.jpg', 'key': 'i', 'origWidth': 409, 'origHeight': 409, 'width': 409, 'height': 409, 'widthPercent': 0.45, 'rescaleHeight': False, 'trialN': 53, 'loaded': True, 'loadedTime': 2195.60000000149, 'positionName': 'RIGHT', 'positionCoords': [670.8, 225.5], 'bid': 9.44}]",85425.30000000075,1669831261060,turkeysandwich,burger,9.86,9.44,-0.41999999999999993,burger,1226.199999999255,1227,1226.9000000003725,True,i,87156.5,1731.199999999255,1669831262791,1731,HRV,HRV_0139,2022-11-30 18:04:47
54,"[{'imgObject': {}, 'id': 'rigatoni', 'src': '/static/foodstim60/rigatoni.jpg', 'key': 'u', 'origWidth': 411, 'origHeight': 411, 'width': 411, 'height': 411, 'widthPercent': 0.45, 'rescaleHeight': False, 'trialN': 54, 'loaded': True, 'loadedTime': 1810.6000000014901, 'positionName': 'LEFT', 'positionCoords': [208.2, 224.5], 'bid': 9.31}, {'imgObject': {}, 'id': 'corn cob', 'src': '/static/foodstim60/corn cob.jpg', 'key': 'i', 'origWidth': 411, 'origHeight': 411, 'width': 411, 'height': 411, 'widthPercent': 0.45, 'rescaleHeight': False, 'trialN': 54, 'loaded': True, 'loadedTime': 2012.7000000011176, 'positionName': 'RIGHT', 'positionCoords': [670.8, 224.5], 'bid': 9.77}]",87156.70000000112,1669831262791,rigatoni,corn cob,9.31,9.77,0.4599999999999991,rigatoni,1346.199999999255,1347,1346.699999999255,True,u,89015.90000000037,1859.199999999255,1669831264650,1859,HRV,HRV_0139,2022-11-30 18:04:47
55,"[{'imgObject': {}, 'id': 'froot loops w milk', 'src': '/static/foodstim60/froot loops w milk.jpg', 'key': 'u', 'origWidth': 410, 'origHeight': 410, 'width': 410, 'height': 410, 'widthPercent': 0.45, 'rescaleHeight': False, 'trialN': 55, 'loaded': True, 'loadedTime': 2207.5, 'positionName': 'LEFT', 'positionCoords': [209.2, 225], 'bid': 6.1000000000000005}, {'imgObject': {}, 'id': 'hotdog w must', 'src': '/static/foodstim60/hotdog w must.jpg', 'key': 'i', 'origWidth': 409, 'origHeight': 409, 'width': 409, 'height': 409, 'widthPercent': 0.45, 'rescaleHeight': False, 'trialN': 55, 'loaded': True, 'loadedTime': 2209.2000000011176, 'positionName': 'RIGHT', 'positionCoords': [670.8, 225.5], 'bid': 6.1000000000000005}]",89016.5,1669831264651,froot loops w milk,hotdog w must,6.1000000000000005,6.1000000000000005,0.0,froot loops w milk,1243.0,1243,1243.2000000011176,True,u,90777.10000000149,1760.6000000014901,1669831266412,1761,HRV,HRV_0139,2022-11-30 18:04:47
56,"[{'imgObject': {}, 'id': 'bagel and cc', 'src': '/static/foodstim60/bagel and cc.jpg', 'key': 'u', 'origWidth': 410, 'origHeight': 410, 'width': 410, 'height': 410, 'widthPercent': 0.45, 'rescaleHeight': False, 'trialN': 56, 'loaded': True, 'loadedTime': 1835.800000000745, 'positionName': 'LEFT', 'positionCoords': [209.2, 225], 'bid': 8.700000000000001}, {'imgObject': {}, 'id': 'rigatoni and sauce', 'src': '/static/foodstim60/rigatoni and sauce.jpg', 'key': 'i', 'origWidth': 410, 'origHeight': 411, 'width': 410, 'height': 411, 'widthPercent': 0.45, 'rescaleHeight': False, 'trialN': 56, 'loaded': True, 'loadedTime': 1864.6000000014901, 'positionName': 'RIGHT', 'positionCoords': [670.8, 224.5], 'bid': 9.72}]",90777.5,1669831266412,bagel and cc,rigatoni and sauce,8.700000000000001,9.72,1.0199999999999996,rigatoni and sauce,881.4000000003725,882,882.0,True,i,92163.40000000037,1385.9000000003725,1669831267798,1386,HRV,HRV_0139,2022-11-30 18:04:47
57,"[{'imgObject': {}, 'id': 'strawberries', 'src': '/static/foodstim60/strawberries.jpg', 'key': 'u', 'origWidth': 410, 'origHeight': 410, 'width': 410, 'height': 410, 'widthPercent': 0.45, 'rescaleHeight': False, 'trialN': 57, 'loaded': True, 'loadedTime': 2035.1000000014901, 'positionName': 'LEFT', 'positionCoords': [209.2, 225], 'bid': 6.62}, {'imgObject': {}, 'id': 'mashed potato', 'src': '/static/foodstim60/mashed potato.jpg', 'key': 'i', 'origWidth': 409, 'origHeight': 409, 'width': 409, 'height': 409, 'widthPercent': 0.45, 'rescaleHeight': False, 'trialN': 57, 'loaded': True, 'loadedTime': 2210.7000000011176, 'positionName': 'RIGHT', 'positionCoords': [670.8, 225.5], 'bid': 6.68}]",92163.70000000112,1669831267798,strawberries,mashed potato,6.62,6.68,0.05999999999999961,strawberries,955.5,956,956.0999999996275,True,u,93641.10000000149,1477.4000000003725,1669831269276,1478,HRV,HRV_0139,2022-11-30 18:04:47
58,"[{'imgObject': {}, 'id': 'salad w chicken', 'src': '/static/foodstim60/salad w chicken.jpg', 'key': 'u', 'origWidth': 411, 'origHeight': 411, 'width': 411, 'height': 411, 'widthPercent': 0.45, 'rescaleHeight': False, 'trialN': 58, 'loaded': True, 'loadedTime': 2170.300000000745, 'positionName': 'LEFT', 'positionCoords': [208.2, 224.5], 'bid': 9.83}, {'imgObject': {}, 'id': 'apple slices', 'src': '/static/foodstim60/apple slices.jpg', 'key': 'i', 'origWidth': 409, 'origHeight': 410, 'width': 409, 'height': 410, 'widthPercent': 0.45, 'rescaleHeight': False, 'trialN': 58, 'loaded': True, 'loadedTime': 1993.9000000003725, 'positionName': 'RIGHT', 'positionCoords': [670.8, 225], 'bid': 9.4}]",93641.40000000037,1669831269276,salad w chicken,apple slices,9.83,9.4,-0.4299999999999997,salad w chicken,890.2000000011176,891,890.7000000011176,True,u,95045.60000000149,1404.2000000011176,1669831270680,1404,HRV,HRV_0139,2022-11-30 18:04:47
59,"[{'imgObject': {}, 'id': 'mashed potato', 'src': '/static/foodstim60/mashed potato.jpg', 'key': 'u', 'origWidth': 409, 'origHeight': 409, 'width': 409, 'height': 409, 'widthPercent': 0.45, 'rescaleHeight': False, 'trialN': 59, 'loaded': True, 'loadedTime': 2210.4000000003725, 'positionName': 'LEFT', 'positionCoords': [210.2, 225.5], 'bid': 6.68}, {'imgObject': {}, 'id': 'veggieswithdip', 'src': '/static/foodstim60/veggieswithdip.jpg', 'key': 'i', 'origWidth': 409, 'origHeight': 409, 'width': 409, 'height': 409, 'widthPercent': 0.45, 'rescaleHeight': False, 'trialN': 59, 'loaded': True, 'loadedTime': 2177.300000000745, 'positionName': 'RIGHT', 'positionCoords': [670.8, 225.5], 'bid': 8.28}]",95046.20000000112,1669831270681,mashed potato,veggieswithdip,6.68,8.28,1.5999999999999996,veggieswithdip,1282.4000000003725,1282,1282.7999999988824,True,i,96850.90000000037,1804.699999999255,1669831272485,1804,HRV,HRV_0139,2022-11-30 18:04:47
60,"[{'imgObject': {}, 'id': 'shreddedwheatwithmilk', 'src': '/static/foodstim60/shreddedwheatwithmilk.jpg', 'key': 'u', 'origWidth': 410, 'origHeight': 410, 'width': 410, 'height': 410, 'widthPercent': 0.45, 'rescaleHeight': False, 'trialN': 60, 'loaded': True, 'loadedTime': 2189.2000000011176, 'positionName': 'LEFT', 'positionCoords': [209.2, 225], 'bid': 7.35}, {'imgObject': {}, 'id': 'salad w chicken', 'src': '/static/foodstim60/salad w chicken.jpg', 'key': 'i', 'origWidth': 411, 'origHeight': 411, 'width': 411, 'height': 411, 'widthPercent': 0.45, 'rescaleHeight': False, 'trialN': 60, 'loaded': True, 'loadedTime': 2160.9000000003725, 'positionName': 'RIGHT', 'positionCoords': [670.8, 224.5], 'bid': 9.83}]",96851.20000000112,1669831272486,shreddedwheatwithmilk,salad w chicken,7.35,9.83,2.4800000000000004,salad w chicken,868.2999999988824,869,869.0,True,i,98242.20000000112,1391.0,1669831273877,1391,HRV,HRV_0139,2022-11-30 18:04:47
61,"[{'imgObject': {}, 'id': 'hotdog w must', 'src': '/static/foodstim60/hotdog w must.jpg', 'key': 'u', 'origWidth': 409, 'origHeight': 409, 'width': 409, 'height': 409, 'widthPercent': 0.45, 'rescaleHeight': False, 'trialN': 61, 'loaded': True, 'loadedTime': 2209.300000000745, 'positionName': 'LEFT', 'positionCoords': [210.2, 225.5], 'bid': 6.1000000000000005}, {'imgObject': {}, 'id': 'seaweed', 'src': '/static/foodstim60/seaweed.jpg', 'key': 'i', 'origWidth': 410, 'origHeight': 410, 'width': 410, 'height': 410, 'widthPercent': 0.45, 'rescaleHeight': False, 'trialN': 61, 'loaded': True, 'loadedTime': 2057.7000000011176, 'positionName': 'RIGHT', 'positionCoords': [670.8, 225], 'bid': 0.22}]",98242.40000000037,1669831273877,hotdog w must,seaweed,6.1000000000000005,0.22,-5.880000000000001,hotdog w must,869.5999999996275,871,870.7000000011176,True,u,99633.90000000037,1391.5,1669831275268,1391,HRV,HRV_0139,2022-11-30 18:04:47
62,"[{'imgObject': {}, 'id': 'veggieswithdip', 'src': '/static/foodstim60/veggieswithdip.jpg', 'key': 'u', 'origWidth': 409, 'origHeight': 409, 'width': 409, 'height': 409, 'widthPercent': 0.45, 'rescaleHeight': False, 'trialN': 62, 'loaded': True, 'loadedTime': 2177.60000000149, 'positionName': 'LEFT', 'positionCoords': [210.2, 225.5], 'bid': 8.28}, {'imgObject': {}, 'id': 'granola w milk', 'src': '/static/foodstim60/granola w milk.jpg', 'key': 'i', 'origWidth': 410, 'origHeight': 410, 'width': 410, 'height': 410, 'widthPercent': 0.45, 'rescaleHeight': False, 'trialN': 62, 'loaded': True, 'loadedTime': 2078.10000000149, 'positionName': 'RIGHT', 'positionCoords': [670.8, 225], 'bid': 8.03}]",99634.10000000149,1669831275269,veggieswithdip,granola w milk,8.28,8.03,-0.25,veggieswithdip,1194.5999999996275,1195,1195.5999999996275,True,u,101334.10000000149,1700.0,1669831276969,1700,HRV,HRV_0139,2022-11-30 18:04:47
63,"[{'imgObject': {}, 'id': 'mac & cheese', 'src': '/static/foodstim60/mac & cheese.jpg', 'key': 'u', 'origWidth': 410, 'origHeight': 410, 'width': 410, 'height': 410, 'widthPercent': 0.45, 'rescaleHeight': False, 'trialN': 63, 'loaded': True, 'loadedTime': 2212.5, 'positionName': 'LEFT', 'positionCoords': [209.2, 225], 'bid': 8.41}, {'imgObject': {}, 'id': 'raspberries', 'src': '/static/foodstim60/raspberries.jpg', 'key': 'i', 'origWidth': 411, 'origHeight': 411, 'width': 411, 'height': 411, 'widthPercent': 0.45, 'rescaleHeight': False, 'trialN': 63, 'loaded': True, 'loadedTime': 2191, 'positionName': 'RIGHT', 'positionCoords': [670.8, 224.5], 'bid': 8.45}]",101334.40000000037,1669831276969,mac & cheese,raspberries,8.41,8.45,0.03999999999999915,mac & cheese,992.8000000007451,993,993.0999999996275,True,u,102843.60000000149,1509.2000000011176,1669831278478,1509,HRV,HRV_0139,2022-11-30 18:04:47
64,"[{'imgObject': {}, 'id': 'yogurt no spoon', 'src': '/static/foodstim60/yogurt no spoon.jpg', 'key': 'u', 'origWidth': 411, 'origHeight': 410, 'width': 411, 'height': 410, 'widthPercent': 0.45, 'rescaleHeight': False, 'trialN': 64, 'loaded': True, 'loadedTime': 1889.5, 'positionName': 'LEFT', 'positionCoords': [208.2, 225], 'bid': 6.76}, {'imgObject': {}, 'id': 'fried eggs', 'src': '/static/foodstim60/fried eggs.jpg', 'key': 'i', 'origWidth': 410, 'origHeight': 410, 'width': 410, 'height': 410, 'widthPercent': 0.45, 'rescaleHeight': False, 'trialN': 64, 'loaded': True, 'loadedTime': 2214, 'positionName': 'RIGHT', 'positionCoords': [670.8, 225], 'bid': 5.21}]",102844.5,1669831278479,yogurt no spoon,fried eggs,6.76,5.21,-1.5499999999999998,yogurt no spoon,983.6000000014901,985,984.9000000003725,True,u,104337.70000000112,1493.2000000011176,1669831279972,1493,HRV,HRV_0139,2022-11-30 18:04:47
65,"[{'imgObject': {}, 'id': 'cheerios', 'src': '/static/foodstim60/cheerios.jpg', 'key': 'u', 'origWidth': 409, 'origHeight': 410, 'width': 409, 'height': 410, 'widthPercent': 0.45, 'rescaleHeight': False, 'trialN': 65, 'loaded': True, 'loadedTime': 1799.1000000014901, 'positionName': 'LEFT', 'positionCoords': [210.2, 225], 'bid': 7.65}, {'imgObject': {}, 'id': 'ice cream sundae 002', 'src': '/static/foodstim60/ice cream sundae 002.jpg', 'key': 'i', 'origWidth': 409, 'origHeight': 409, 'width': 409, 'height': 409, 'widthPercent': 0.45, 'rescaleHeight': False, 'trialN': 65, 'loaded': True, 'loadedTime': 1946.9000000003725, 'positionName': 'RIGHT', 'positionCoords': [670.8, 225.5], 'bid': 5.91}]",104337.90000000037,1669831279972,cheerios,ice cream sundae 002,7.65,5.91,-1.7400000000000002,ice cream sundae 002,1847.7000000011176,1849,1848.300000000745,True,i,106704.40000000037,2366.5,1669831282339,2367,HRV,HRV_0139,2022-11-30 18:04:47
66,"[{'imgObject': {}, 'id': 'sweetpotato', 'src': '/static/foodstim60/sweetpotato.jpg', 'key': 'u', 'origWidth': 410, 'origHeight': 410, 'width': 410, 'height': 410, 'widthPercent': 0.45, 'rescaleHeight': False, 'trialN': 66, 'loaded': True, 'loadedTime': 2015, 'positionName': 'LEFT', 'positionCoords': [209.2, 225], 'bid': 4.93}, {'imgObject': {}, 'id': 'seaweed', 'src': '/static/foodstim60/seaweed.jpg', 'key': 'i', 'origWidth': 410, 'origHeight': 410, 'width': 410, 'height': 410, 'widthPercent': 0.45, 'rescaleHeight': False, 'trialN': 66, 'loaded': True, 'loadedTime': 2057.9000000003725, 'positionName': 'RIGHT', 'positionCoords': [670.8, 225], 'bid': 0.22}]",106704.70000000112,1669831282339,sweetpotato,seaweed,4.93,0.22,-4.71,sweetpotato,874.7999999988824,876,875.7999999988824,True,u,108095.60000000149,1390.9000000003725,1669831283730,1391,HRV,HRV_0139,2022-11-30 18:04:47
67,"[{'imgObject': {}, 'id': 'pear', 'src': '/static/foodstim60/pear.jpg', 'key': 'u', 'origWidth': 411, 'origHeight': 410, 'width': 411, 'height': 410, 'widthPercent': 0.45, 'rescaleHeight': False, 'trialN': 67, 'loaded': True, 'loadedTime': 2117.300000000745, 'positionName': 'LEFT', 'positionCoords': [208.2, 225], 'bid': 9.48}, {'imgObject': {}, 'id': 'raisin bran w milk', 'src': '/static/foodstim60/raisin bran w milk.jpg', 'key': 'i', 'origWidth': 411, 'origHeight': 411, 'width': 411, 'height': 411, 'widthPercent': 0.45, 'rescaleHeight': False, 'trialN': 67, 'loaded': True, 'loadedTime': 2139.7000000011176, 'positionName': 'RIGHT', 'positionCoords': [670.8, 224.5], 'bid': 6.17}]",108095.90000000037,1669831283730,pear,raisin bran w milk,9.48,6.17,-3.3100000000000005,raisin bran w milk,1523.9000000003725,1525,1524.4000000003725,True,i,110124.5,2028.5999999996275,1669831285759,2029,HRV,HRV_0139,2022-11-30 18:04:47
68,"[{'imgObject': {}, 'id': 'mashed potato', 'src': '/static/foodstim60/mashed potato.jpg', 'key': 'u', 'origWidth': 409, 'origHeight': 409, 'width': 409, 'height': 409, 'widthPercent': 0.45, 'rescaleHeight': False, 'trialN': 68, 'loaded': True, 'loadedTime': 2210.60000000149, 'positionName': 'LEFT', 'positionCoords': [210.2, 225.5], 'bid': 6.68}, {'imgObject': {}, 'id': 'bagel plain', 'src': '/static/foodstim60/bagel plain.jpg', 'key': 'i', 'origWidth': 410, 'origHeight': 410, 'width': 410, 'height': 410, 'widthPercent': 0.45, 'rescaleHeight': False, 'trialN': 68, 'loaded': True, 'loadedTime': 2174.800000000745, 'positionName': 'RIGHT', 'positionCoords': [670.8, 225], 'bid': 9.69}]",110124.80000000075,1669831285759,mashed potato,bagel plain,6.68,9.69,3.01,bagel plain,934.1999999992549,935,935.0,True,i,111574.90000000037,1450.0999999996275,1669831287209,1450,HRV,HRV_0139,2022-11-30 18:04:47
69,"[{'imgObject': {}, 'id': 'steak', 'src': '/static/foodstim60/steak.jpg', 'key': 'u', 'origWidth': 410, 'origHeight': 410, 'width': 410, 'height': 410, 'widthPercent': 0.45, 'rescaleHeight': False, 'trialN': 69, 'loaded': True, 'loadedTime': 2216, 'positionName': 'LEFT', 'positionCoords': [209.2, 225], 'bid': 8.61}, {'imgObject': {}, 'id': 'luckycharms', 'src': '/static/foodstim60/luckycharms.jpg', 'key': 'i', 'origWidth': 410, 'origHeight': 409, 'width': 410, 'height': 409, 'widthPercent': 0.45, 'rescaleHeight': False, 'trialN': 69, 'loaded': True, 'loadedTime': 1901.4000000003725, 'positionName': 'RIGHT', 'positionCoords': [670.8, 225.5], 'bid': 7.17}]",111575.30000000075,1669831287210,steak,luckycharms,8.61,7.17,-1.4399999999999995,luckycharms,1483.300000000745,1484,1483.9000000003725,True,i,113565.80000000075,1990.5,1669831289200,1990,HRV,HRV_0139,2022-11-30 18:04:47
70,"[{'imgObject': {}, 'id': 'mac & cheese', 'src': '/static/foodstim60/mac & cheese.jpg', 'key': 'u', 'origWidth': 410, 'origHeight': 410, 'width': 410, 'height': 410, 'widthPercent': 0.45, 'rescaleHeight': False, 'trialN': 70, 'loaded': True, 'loadedTime': 2212.4000000003725, 'positionName': 'LEFT', 'positionCoords': [209.2, 225], 'bid': 8.41}, {'imgObject': {}, 'id': 'burger', 'src': '/static/foodstim60/burger.jpg', 'key': 'i', 'origWidth': 409, 'origHeight': 409, 'width': 409, 'height': 409, 'widthPercent': 0.45, 'rescaleHeight': False, 'trialN': 70, 'loaded': True, 'loadedTime': 2194.10000000149, 'positionName': 'RIGHT', 'positionCoords': [670.8, 225.5], 'bid': 9.44}]",113566.40000000037,1669831289201,mac & cheese,burger,8.41,9.44,1.0299999999999994,burger,1047.4000000003725,1048,1047.800000000745,True,i,115120.40000000037,1554.0,1669831290755,1554,HRV,HRV_0139,2022-11-30 18:04:47
71,"[{'imgObject': {}, 'id': 'fried eggs', 'src': '/static/foodstim60/fried eggs.jpg', 'key': 'u', 'origWidth': 410, 'origHeight': 410, 'width': 410, 'height': 410, 'widthPercent': 0.45, 'rescaleHeight': False, 'trialN': 71, 'loaded': True, 'loadedTime': 2213.9000000003725, 'positionName': 'LEFT', 'positionCoords': [209.2, 225], 'bid': 5.21}, {'imgObject': {}, 'id': 'omelette', 'src': '/static/foodstim60/omelette.jpg', 'key': 'i', 'origWidth': 410, 'origHeight': 409, 'width': 410, 'height': 409, 'widthPercent': 0.45, 'rescaleHeight': False, 'trialN': 71, 'loaded': True, 'loadedTime': 2059.7000000011176, 'positionName': 'RIGHT', 'positionCoords': [670.8, 225.5], 'bid': 5.29}]",115122.20000000112,1669831290757,fried eggs,omelette,5.21,5.29,0.08000000000000007,fried eggs,1298.199999999255,1298,1298.5,True,u,116941.5,1819.2999999988824,1669831292576,1819,HRV,HRV_0139,2022-11-30 18:04:47
72,"[{'imgObject': {}, 'id': 'strawberries', 'src': '/static/foodstim60/strawberries.jpg', 'key': 'u', 'origWidth': 410, 'origHeight': 410, 'width': 410, 'height': 410, 'widthPercent': 0.45, 'rescaleHeight': False, 'trialN': 72, 'loaded': True, 'loadedTime': 2032.4000000003725, 'positionName': 'LEFT', 'positionCoords': [209.2, 225], 'bid': 6.62}, {'imgObject': {}, 'id': 'granola w milk', 'src': '/static/foodstim60/granola w milk.jpg', 'key': 'i', 'origWidth': 410, 'origHeight': 410, 'width': 410, 'height': 410, 'widthPercent': 0.45, 'rescaleHeight': False, 'trialN': 72, 'loaded': True, 'loadedTime': 2078.7000000011176, 'positionName': 'RIGHT', 'positionCoords': [670.8, 225], 'bid': 8.03}]",116941.70000000112,1669831292576,strawberries,granola w milk,6.62,8.03,1.4099999999999993,granola w milk,1065.699999999255,1067,1066.699999999255,True,i,118520.0,1578.2999999988824,1669831294154,1578,HRV,HRV_0139,2022-11-30 18:04:47
73,"[{'imgObject': {}, 'id': 'turkey sandwich', 'src': '/static/foodstim60/turkey sandwich.jpg', 'key': 'u', 'origWidth': 409, 'origHeight': 409, 'width': 409, 'height': 409, 'widthPercent': 0.45, 'rescaleHeight': False, 'trialN': 73, 'loaded': True, 'loadedTime': 1865.5, 'positionName': 'LEFT', 'positionCoords': [210.2, 225.5], 'bid': 9.62}, {'imgObject': {}, 'id': 'mango', 'src': '/static/foodstim60/mango.jpg', 'key': 'i', 'origWidth': 411, 'origHeight': 411, 'width': 411, 'height': 411, 'widthPercent': 0.45, 'rescaleHeight': False, 'trialN': 73, 'loaded': True, 'loadedTime': 2091.4000000003725, 'positionName': 'RIGHT', 'positionCoords': [670.8, 224.5], 'bid': 8.61}]",118520.20000000112,1669831294155,turkey sandwich,mango,9.62,8.61,-1.0099999999999998,turkey sandwich,1020.5,1021,1021.0,True,u,120044.20000000112,1524.0,1669831295679,1524,HRV,HRV_0139,2022-11-30 18:04:47
74,"[{'imgObject': {}, 'id': 'hashbrowns', 'src': '/static/foodstim60/hashbrowns.jpg', 'key': 'u', 'origWidth': 411, 'origHeight': 410, 'width': 411, 'height': 410, 'widthPercent': 0.45, 'rescaleHeight': False, 'trialN': 74, 'loaded': True, 'loadedTime': 2219.2000000011176, 'positionName': 'LEFT', 'positionCoords': [208.2, 225], 'bid': 6.16}, {'imgObject': {}, 'id': 'cherry tomato', 'src': '/static/foodstim60/cherry tomato.jpg', 'key': 'i', 'origWidth': 410, 'origHeight': 410, 'width': 410, 'height': 410, 'widthPercent': 0.45, 'rescaleHeight': False, 'trialN': 74, 'loaded': True, 'loadedTime': 2041.6000000014901, 'positionName': 'RIGHT', 'positionCoords': [670.8, 225], 'bid': 2.65}]",120044.40000000037,1669831295679,hashbrowns,cherry tomato,6.16,2.65,-3.5100000000000002,hashbrowns,1124.7000000011176,1126,1126.0999999996275,True,u,121676.30000000075,1631.9000000003725,1669831297311,1632,HRV,HRV_0139,2022-11-30 18:04:47
75,"[{'imgObject': {}, 'id': 'popsicles', 'src': '/static/foodstim60/popsicles.jpg', 'key': 'u', 'origWidth': 410, 'origHeight': 410, 'width': 410, 'height': 410, 'widthPercent': 0.45, 'rescaleHeight': False, 'trialN': 75, 'loaded': True, 'loadedTime': 2127.800000000745, 'positionName': 'LEFT', 'positionCoords': [209.2, 225], 'bid': 4.59}, {'imgObject': {}, 'id': 'sweetpotato', 'src': '/static/foodstim60/sweetpotato.jpg', 'key': 'i', 'origWidth': 410, 'origHeight': 410, 'width': 410, 'height': 410, 'widthPercent': 0.45, 'rescaleHeight': False, 'trialN': 75, 'loaded': True, 'loadedTime': 2025.2000000011176, 'positionName': 'RIGHT', 'positionCoords': [670.8, 225], 'bid': 4.93}]",121677.70000000112,1669831297312,popsicles,sweetpotato,4.59,4.93,0.33999999999999986,sweetpotato,863.2999999988824,864,863.7999999988824,True,i,123046.30000000075,1368.5999999996275,1669831298681,1369,HRV,HRV_0139,2022-11-30 18:04:47
76,"[{'imgObject': {}, 'id': 'fruitsalad', 'src': '/static/foodstim60/fruitsalad.jpg', 'key': 'u', 'origWidth': 410, 'origHeight': 410, 'width': 410, 'height': 410, 'widthPercent': 0.45, 'rescaleHeight': False, 'trialN': 76, 'loaded': True, 'loadedTime': 2193.300000000745, 'positionName': 'LEFT', 'positionCoords': [209.2, 225], 'bid': 7.8}, {'imgObject': {}, 'id': 'blueberries', 'src': '/static/foodstim60/blueberries.jpg', 'key': 'i', 'origWidth': 411, 'origHeight': 411, 'width': 411, 'height': 411, 'widthPercent': 0.45, 'rescaleHeight': False, 'trialN': 76, 'loaded': True, 'loadedTime': 2220.300000000745, 'positionName': 'RIGHT', 'positionCoords': [670.8, 224.5], 'bid': 7.74}]",123047.60000000149,1669831298682,fruitsalad,blueberries,7.8,7.74,-0.05999999999999961,blueberries,1473.8999999985099,1474,1474.3999999985099,True,i,125028.5,1980.8999999985099,1669831300663,1981,HRV,HRV_0139,2022-11-30 18:04:47
77,"[{'imgObject': {}, 'id': 'orange slices', 'src': '/static/foodstim60/orange slices.jpg', 'key': 'u', 'origWidth': 409, 'origHeight': 410, 'width': 409, 'height': 410, 'widthPercent': 0.45, 'rescaleHeight': False, 'trialN': 77, 'loaded': True, 'loadedTime': 1824.4000000003725, 'positionName': 'LEFT', 'positionCoords': [210.2, 225], 'bid': 9.1}, {'imgObject': {}, 'id': 'grilled chicken strips', 'src': '/static/foodstim60/grilled chicken strips.jpg', 'key': 'i', 'origWidth': 410, 'origHeight': 411, 'width': 410, 'height': 411, 'widthPercent': 0.45, 'rescaleHeight': False, 'trialN': 77, 'loaded': True, 'loadedTime': 2117.7000000011176, 'positionName': 'RIGHT', 'positionCoords': [670.8, 224.5], 'bid': 9.72}]",125028.80000000075,1669831300663,orange slices,grilled chicken strips,9.1,9.72,0.620000000000001,grilled chicken strips,940.5999999996275,941,941.0999999996275,True,i,126476.0,1447.199999999255,1669831302110,1447,HRV,HRV_0139,2022-11-30 18:04:47
78,"[{'imgObject': {}, 'id': 'grilled chicken strips', 'src': '/static/foodstim60/grilled chicken strips.jpg', 'key': 'u', 'origWidth': 410, 'origHeight': 411, 'width': 410, 'height': 411, 'widthPercent': 0.45, 'rescaleHeight': False, 'trialN': 78, 'loaded': True, 'loadedTime': 2126, 'positionName': 'LEFT', 'positionCoords': [209.2, 224.5], 'bid': 9.72}, {'imgObject': {}, 'id': 'burger', 'src': '/static/foodstim60/burger.jpg', 'key': 'i', 'origWidth': 409, 'origHeight': 409, 'width': 409, 'height': 409, 'widthPercent': 0.45, 'rescaleHeight': False, 'trialN': 78, 'loaded': True, 'loadedTime': 2195.9000000003725, 'positionName': 'RIGHT', 'positionCoords': [670.8, 225.5], 'bid': 9.44}]",126476.60000000149,1669831302111,grilled chicken strips,burger,9.72,9.44,-0.28000000000000114,burger,1449.5,1450,1450.0,True,i,128431.30000000075,1954.699999999255,1669831304066,1955,HRV,HRV_0139,2022-11-30 18:04:47
79,"[{'imgObject': {}, 'id': 'chicken nuggets2', 'src': '/static/foodstim60/chicken nuggets2.jpg', 'key': 'u', 'origWidth': 410, 'origHeight': 409, 'width': 410, 'height': 409, 'widthPercent': 0.45, 'rescaleHeight': False, 'trialN': 79, 'loaded': True, 'loadedTime': 1945.6000000014901, 'positionName': 'LEFT', 'positionCoords': [209.2, 225.5], 'bid': 8.84}, {'imgObject': {}, 'id': 'turkey sandwich', 'src': '/static/foodstim60/turkey sandwich.jpg', 'key': 'i', 'origWidth': 409, 'origHeight': 409, 'width': 409, 'height': 409, 'widthPercent': 0.45, 'rescaleHeight': False, 'trialN': 79, 'loaded': True, 'loadedTime': 1876.6000000014901, 'positionName': 'RIGHT', 'positionCoords': [670.8, 225.5], 'bid': 9.62}]",128431.70000000112,1669831304066,chicken nuggets2,turkey sandwich,8.84,9.62,0.7799999999999994,turkey sandwich,1679.199999999255,1680,1679.5999999996275,True,i,130617.40000000037,2185.699999999255,1669831306252,2186,HRV,HRV_0139,2022-11-30 18:04:47
80,"[{'imgObject': {}, 'id': 'salmon', 'src': '/static/foodstim60/salmon.jpg', 'key': 'u', 'origWidth': 410, 'origHeight': 409, 'width': 410, 'height': 409, 'widthPercent': 0.45, 'rescaleHeight': False, 'trialN': 80, 'loaded': True, 'loadedTime': 2072.800000000745, 'positionName': 'LEFT', 'positionCoords': [209.2, 225.5], 'bid': 3.82}, {'imgObject': {}, 'id': 'raspberries', 'src': '/static/foodstim60/raspberries.jpg', 'key': 'i', 'origWidth': 411, 'origHeight': 411, 'width': 411, 'height': 411, 'widthPercent': 0.45, 'rescaleHeight': False, 'trialN': 80, 'loaded': True, 'loadedTime': 2189.4000000003725, 'positionName': 'RIGHT', 'positionCoords': [670.8, 224.5], 'bid': 8.45}]",130618.70000000112,1669831306253,salmon,raspberries,3.82,8.45,4.629999999999999,raspberries,1107.5999999996275,1108,1108.2999999988824,True,i,132239.0,1620.2999999988824,1669831307873,1620,HRV,HRV_0139,2022-11-30 18:04:47
81,"[{'imgObject': {}, 'id': 'omelette', 'src': '/static/foodstim60/omelette.jpg', 'key': 'u', 'origWidth': 410, 'origHeight': 409, 'width': 410, 'height': 409, 'widthPercent': 0.45, 'rescaleHeight': False, 'trialN': 81, 'loaded': True, 'loadedTime': 2060.10000000149, 'positionName': 'LEFT', 'positionCoords': [209.2, 225.5], 'bid': 5.29}, {'imgObject': {}, 'id': 'salmon', 'src': '/static/foodstim60/salmon.jpg', 'key': 'i', 'origWidth': 410, 'origHeight': 409, 'width': 410, 'height': 409, 'widthPercent': 0.45, 'rescaleHeight': False, 'trialN': 81, 'loaded': True, 'loadedTime': 2075.7000000011176, 'positionName': 'RIGHT', 'positionCoords': [670.8, 225.5], 'bid': 3.82}]",132239.20000000112,1669831307874,omelette,salmon,5.29,3.82,-1.4700000000000002,salmon,835.6999999992549,836,836.6999999992549,True,i,133581.20000000112,1342.0,1669831309216,1342,HRV,HRV_0139,2022-11-30 18:04:47
82,"[{'imgObject': {}, 'id': 'veggieswithdip', 'src': '/static/foodstim60/veggieswithdip.jpg', 'key': 'u', 'origWidth': 409, 'origHeight': 409, 'width': 409, 'height': 409, 'widthPercent': 0.45, 'rescaleHeight': False, 'trialN': 82, 'loaded': True, 'loadedTime': 2177, 'positionName': 'LEFT', 'positionCoords': [210.2, 225.5], 'bid': 8.28}, {'imgObject': {}, 'id': 'shreddedwheatwithmilk', 'src': '/static/foodstim60/shreddedwheatwithmilk.jpg', 'key': 'i', 'origWidth': 410, 'origHeight': 410, 'width': 410, 'height': 410, 'widthPercent': 0.45, 'rescaleHeight': False, 'trialN': 82, 'loaded': True, 'loadedTime': 2189.300000000745, 'positionName': 'RIGHT', 'positionCoords': [670.8, 225], 'bid': 7.35}]",133581.5,1669831309216,veggieswithdip,shreddedwheatwithmilk,8.28,7.35,-0.9299999999999997,veggieswithdip,1120.2000000011176,1121,1121.2000000011176,True,u,135209.0,1627.5,1669831310843,1627,HRV,HRV_0139,2022-11-30 18:04:47
83,"[{'imgObject': {}, 'id': 'edamame', 'src': '/static/foodstim60/edamame.jpg', 'key': 'u', 'origWidth': 409, 'origHeight': 410, 'width': 409, 'height': 410, 'widthPercent': 0.45, 'rescaleHeight': False, 'trialN': 83, 'loaded': True, 'loadedTime': 2140.10000000149, 'positionName': 'LEFT', 'positionCoords': [210.2, 225], 'bid': 6.79}, {'imgObject': {}, 'id': 'yogurt no spoon', 'src': '/static/foodstim60/yogurt no spoon.jpg', 'key': 'i', 'origWidth': 411, 'origHeight': 410, 'width': 411, 'height': 410, 'widthPercent': 0.45, 'rescaleHeight': False, 'trialN': 83, 'loaded': True, 'loadedTime': 1880.2000000011176, 'positionName': 'RIGHT', 'positionCoords': [670.8, 225], 'bid': 6.76}]",135209.5,1669831310844,edamame,yogurt no spoon,6.79,6.76,-0.03000000000000025,yogurt no spoon,819.3000000007451,820,820.1000000014901,True,i,136534.90000000037,1325.4000000003725,1669831312169,1325,HRV,HRV_0139,2022-11-30 18:04:47
84,"[{'imgObject': {}, 'id': 'salmon', 'src': '/static/foodstim60/salmon.jpg', 'key': 'u', 'origWidth': 410, 'origHeight': 409, 'width': 410, 'height': 409, 'widthPercent': 0.45, 'rescaleHeight': False, 'trialN': 84, 'loaded': True, 'loadedTime': 2074.300000000745, 'positionName': 'LEFT', 'positionCoords': [209.2, 225.5], 'bid': 3.82}, {'imgObject': {}, 'id': 'eggsalad', 'src': '/static/foodstim60/eggsalad.jpg', 'key': 'i', 'origWidth': 410, 'origHeight': 409, 'width': 410, 'height': 409, 'widthPercent': 0.45, 'rescaleHeight': False, 'trialN': 84, 'loaded': True, 'loadedTime': 2142.800000000745, 'positionName': 'RIGHT', 'positionCoords': [670.8, 225.5], 'bid': 6.08}]",136535.6000000015,1669831312170,salmon,eggsalad,3.82,6.08,2.2600000000000002,eggsalad,1043.5,1044,1044.0999999996275,True,i,138099.20000000112,1563.5999999996275,1669831313734,1564,HRV,HRV_0139,2022-11-30 18:04:47
85,"[{'imgObject': {}, 'id': 'baked potato', 'src': '/static/foodstim60/baked potato.jpg', 'key': 'u', 'origWidth': 409, 'origHeight': 410, 'width': 409, 'height': 410, 'widthPercent': 0.45, 'rescaleHeight': False, 'trialN': 85, 'loaded': True, 'loadedTime': 1970.1000000014901, 'positionName': 'LEFT', 'positionCoords': [210.2, 225], 'bid': 5.26}, {'imgObject': {}, 'id': 'cherry tomato', 'src': '/static/foodstim60/cherry tomato.jpg', 'key': 'i', 'origWidth': 410, 'origHeight': 410, 'width': 410, 'height': 410, 'widthPercent': 0.45, 'rescaleHeight': False, 'trialN': 85, 'loaded': True, 'loadedTime': 2038, 'positionName': 'RIGHT', 'positionCoords': [670.8, 225], 'bid': 2.65}]",138100.40000000037,1669831313735,baked potato,cherry tomato,5.26,2.65,-2.61,baked potato,837.5999999996275,838,838.0,True,u,139443.70000000112,1343.300000000745,1669831315078,1343,HRV,HRV_0139,2022-11-30 18:04:47
86,"[{'imgObject': {}, 'id': 'fruitsalad', 'src': '/static/foodstim60/fruitsalad.jpg', 'key': 'u', 'origWidth': 410, 'origHeight': 410, 'width': 410, 'height': 410, 'widthPercent': 0.45, 'rescaleHeight': False, 'trialN': 86, 'loaded': True, 'loadedTime': 2193.800000000745, 'positionName': 'LEFT', 'positionCoords': [209.2, 225], 'bid': 7.8}, {'imgObject': {}, 'id': 'tacos', 'src': '/static/foodstim60/tacos.jpg', 'key': 'i', 'origWidth': 411, 'origHeight': 411, 'width': 411, 'height': 411, 'widthPercent': 0.45, 'rescaleHeight': False, 'trialN': 86, 'loaded': True, 'loadedTime': 1959.6000000014901, 'positionName': 'RIGHT', 'positionCoords': [670.8, 224.5], 'bid': 7.66}]",139443.90000000037,1669831315078,fruitsalad,tacos,7.8,7.66,-0.13999999999999968,fruitsalad,1066.5,1068,1067.5,True,u,141025.70000000112,1581.800000000745,1669831316660,1582,HRV,HRV_0139,2022-11-30 18:04:47
87,"[{'imgObject': {}, 'id': 'Tribe humus pita', 'src': '/static/foodstim60/Tribe humus pita.jpg', 'key': 'u', 'origWidth': 411, 'origHeight': 411, 'width': 411, 'height': 411, 'widthPercent': 0.45, 'rescaleHeight': False, 'trialN': 87, 'loaded': True, 'loadedTime': 2044, 'positionName': 'LEFT', 'positionCoords': [208.2, 224.5], 'bid': 5.94}, {'imgObject': {}, 'id': 'tacos', 'src': '/static/foodstim60/tacos.jpg', 'key': 'i', 'origWidth': 411, 'origHeight': 411, 'width': 411, 'height': 411, 'widthPercent': 0.45, 'rescaleHeight': False, 'trialN': 87, 'loaded': True, 'loadedTime': 1959.9000000003725, 'positionName': 'RIGHT', 'positionCoords': [670.8, 224.5], 'bid': 7.66}]",141026.40000000037,1669831316661,Tribe humus pita,tacos,5.94,7.66,1.7199999999999998,tacos,1180.5,1180,1181.4000000003725,True,i,142723.90000000037,1697.5,1669831318358,1697,HRV,HRV_0139,2022-11-30 18:04:47
88,"[{'imgObject': {}, 'id': 'pear', 'src': '/static/foodstim60/pear.jpg', 'key': 'u', 'origWidth': 411, 'origHeight': 410, 'width': 411, 'height': 410, 'widthPercent': 0.45, 'rescaleHeight': False, 'trialN': 88, 'loaded': True, 'loadedTime': 2116.60000000149, 'positionName': 'LEFT', 'positionCoords': [208.2, 225], 'bid': 9.48}, {'imgObject': {}, 'id': 'blackbeanswithrice', 'src': '/static/foodstim60/blackbeanswithrice.jpg', 'key': 'i', 'origWidth': 410, 'origHeight': 410, 'width': 410, 'height': 410, 'widthPercent': 0.45, 'rescaleHeight': False, 'trialN': 88, 'loaded': True, 'loadedTime': 1903.9000000003725, 'positionName': 'RIGHT', 'positionCoords': [670.8, 225], 'bid': 8.81}]",142724.6000000015,1669831318358,pear,blackbeanswithrice,9.48,8.81,-0.6699999999999999,pear,859.1999999992549,860,859.7999999988824,True,u,144103.70000000112,1379.0999999996275,1669831319737,1379,HRV,HRV_0139,2022-11-30 18:04:47
89,"[{'imgObject': {}, 'id': 'froot loops w milk', 'src': '/static/foodstim60/froot loops w milk.jpg', 'key': 'u', 'origWidth': 410, 'origHeight': 410, 'width': 410, 'height': 410, 'widthPercent': 0.45, 'rescaleHeight': False, 'trialN': 89, 'loaded': True, 'loadedTime': 2207.300000000745, 'positionName': 'LEFT', 'positionCoords': [209.2, 225], 'bid': 6.1000000000000005}, {'imgObject': {}, 'id': 'sweetpotato', 'src': '/static/foodstim60/sweetpotato.jpg', 'key': 'i', 'origWidth': 410, 'origHeight': 410, 'width': 410, 'height': 410, 'widthPercent': 0.45, 'rescaleHeight': False, 'trialN': 89, 'loaded': True, 'loadedTime': 2014.5, 'positionName': 'RIGHT', 'positionCoords': [670.8, 225], 'bid': 4.93}]",144104.20000000112,1669831319738,froot loops w milk,sweetpotato,6.1000000000000005,4.93,-1.1700000000000008,sweetpotato,964.0999999996275,965,964.6999999992549,True,i,145585.20000000112,1481.0,1669831321219,1481,HRV,HRV_0139,2022-11-30 18:04:47
90,"[{'imgObject': {}, 'id': 'cocktailshrimp', 'src': '/static/foodstim60/cocktailshrimp.jpg', 'key': 'u', 'origWidth': 410, 'origHeight': 410, 'width': 410, 'height': 410, 'widthPercent': 0.45, 'rescaleHeight': False, 'trialN': 90, 'loaded': True, 'loadedTime': 2157, 'positionName': 'LEFT', 'positionCoords': [209.2, 225], 'bid': 0.19}, {'imgObject': {}, 'id': 'seaweed', 'src': '/static/foodstim60/seaweed.jpg', 'key': 'i', 'origWidth': 410, 'origHeight': 410, 'width': 410, 'height': 410, 'widthPercent': 0.45, 'rescaleHeight': False, 'trialN': 90, 'loaded': True, 'loadedTime': 2056.7000000011176, 'positionName': 'RIGHT', 'positionCoords': [670.8, 225], 'bid': 0.22}]",149234.1000000015,1669831324868,cocktailshrimp,seaweed,0.19,0.22,0.03,cocktailshrimp,1247.699999999255,1249,1249.0999999996275,True,u,150992.0,1757.8999999985099,1669831326626,1758,HRV,HRV_0139,2022-11-30 18:04:47
91,"[{'imgObject': {}, 'id': 'mashed potato', 'src': '/static/foodstim60/mashed potato.jpg', 'key': 'u', 'origWidth': 409, 'origHeight': 409, 'width': 409, 'height': 409, 'widthPercent': 0.45, 'rescaleHeight': False, 'trialN': 91, 'loaded': True, 'loadedTime': 2210.7000000011176, 'positionName': 'LEFT', 'positionCoords': [210.2, 225.5], 'bid': 6.68}, {'imgObject': {}, 'id': 'kiwi', 'src': '/static/foodstim60/kiwi.jpg', 'key': 'i', 'origWidth': 410, 'origHeight': 410, 'width': 410, 'height': 410, 'widthPercent': 0.45, 'rescaleHeight': False, 'trialN': 91, 'loaded': True, 'loadedTime': 2185.7000000011176, 'positionName': 'RIGHT', 'positionCoords': [670.8, 225], 'bid': 6.3}]",150992.80000000075,1669831326626,mashed potato,kiwi,6.68,6.3,-0.3799999999999999,kiwi,987.9000000003725,989,988.8000000007451,True,i,152490.5,1497.699999999255,1669831328124,1498,HRV,HRV_0139,2022-11-30 18:04:47
92,"[{'imgObject': {}, 'id': 'orange slices', 'src': '/static/foodstim60/orange slices.jpg', 'key': 'u', 'origWidth': 409, 'origHeight': 410, 'width': 409, 'height': 410, 'widthPercent': 0.45, 'rescaleHeight': False, 'trialN': 92, 'loaded': True, 'loadedTime': 1825.300000000745, 'positionName': 'LEFT', 'positionCoords': [210.2, 225], 'bid': 9.1}, {'imgObject': {}, 'id': 'apple slices', 'src': '/static/foodstim60/apple slices.jpg', 'key': 'i', 'origWidth': 409, 'origHeight': 410, 'width': 409, 'height': 410, 'widthPercent': 0.45, 'rescaleHeight': False, 'trialN': 92, 'loaded': True, 'loadedTime': 1995.5, 'positionName': 'RIGHT', 'positionCoords': [670.8, 225], 'bid': 9.4}]",152491.30000000075,1669831328125,orange slices,apple slices,9.1,9.4,0.3000000000000007,apple slices,1029.5,1030,1030.0999999996275,True,i,154040.5,1549.199999999255,1669831329674,1549,HRV,HRV_0139,2022-11-30 18:04:47
93,"[{'imgObject': {}, 'id': 'lox', 'src': '/static/foodstim60/lox.jpg', 'key': 'u', 'origWidth': 410, 'origHeight': 411, 'width': 410, 'height': 411, 'widthPercent': 0.45, 'rescaleHeight': False, 'trialN': 93, 'loaded': True, 'loadedTime': 2088.60000000149, 'positionName': 'LEFT', 'positionCoords': [209.2, 224.5], 'bid': 0.27}, {'imgObject': {}, 'id': 'fried eggs', 'src': '/static/foodstim60/fried eggs.jpg', 'key': 'i', 'origWidth': 410, 'origHeight': 410, 'width': 410, 'height': 410, 'widthPercent': 0.45, 'rescaleHeight': False, 'trialN': 93, 'loaded': True, 'loadedTime': 2214.2000000011176, 'positionName': 'RIGHT', 'positionCoords': [670.8, 225], 'bid': 5.21}]",154040.70000000112,1669831329674,lox,fried eggs,0.27,5.21,4.9399999999999995,fried eggs,980.0,981,980.9000000003725,True,i,155524.90000000037,1484.199999999255,1669831331159,1485,HRV,HRV_0139,2022-11-30 18:04:47
94,"[{'imgObject': {}, 'id': 'fruitsalad', 'src': '/static/foodstim60/fruitsalad.jpg', 'key': 'u', 'origWidth': 410, 'origHeight': 410, 'width': 410, 'height': 410, 'widthPercent': 0.45, 'rescaleHeight': False, 'trialN': 94, 'loaded': True, 'loadedTime': 2192.9000000003725, 'positionName': 'LEFT', 'positionCoords': [209.2, 225], 'bid': 7.8}, {'imgObject': {}, 'id': 'kiwi', 'src': '/static/foodstim60/kiwi.jpg', 'key': 'i', 'origWidth': 410, 'origHeight': 410, 'width': 410, 'height': 410, 'widthPercent': 0.45, 'rescaleHeight': False, 'trialN': 94, 'loaded': True, 'loadedTime': 2187.2000000011176, 'positionName': 'RIGHT', 'positionCoords': [670.8, 225], 'bid': 6.3}]",155525.20000000112,1669831331159,fruitsalad,kiwi,7.8,6.3,-1.5,fruitsalad,1014.5999999996275,1015,1015.0999999996275,True,u,157055.40000000037,1530.199999999255,1669831332689,1530,HRV,HRV_0139,2022-11-30 18:04:47
95,"[{'imgObject': {}, 'id': 'shreddedwheatwithmilk', 'src': '/static/foodstim60/shreddedwheatwithmilk.jpg', 'key': 'u', 'origWidth': 410, 'origHeight': 410, 'width': 410, 'height': 410, 'widthPercent': 0.45, 'rescaleHeight': False, 'trialN': 95, 'loaded': True, 'loadedTime': 2189, 'positionName': 'LEFT', 'positionCoords': [209.2, 225], 'bid': 7.35}, {'imgObject': {}, 'id': 'luckycharms', 'src': '/static/foodstim60/luckycharms.jpg', 'key': 'i', 'origWidth': 410, 'origHeight': 409, 'width': 410, 'height': 409, 'widthPercent': 0.45, 'rescaleHeight': False, 'trialN': 95, 'loaded': True, 'loadedTime': 1893, 'positionName': 'RIGHT', 'positionCoords': [670.8, 225.5], 'bid': 7.17}]",157055.80000000075,1669831332689,shreddedwheatwithmilk,luckycharms,7.35,7.17,-0.17999999999999972,shreddedwheatwithmilk,1256.5999999996275,1258,1257.4000000003725,True,u,158825.80000000075,1770.0,1669831334459,1770,HRV,HRV_0139,2022-11-30 18:04:47
96,"[{'imgObject': {}, 'id': 'raisin bran w milk', 'src': '/static/foodstim60/raisin bran w milk.jpg', 'key': 'u', 'origWidth': 411, 'origHeight': 411, 'width': 411, 'height': 411, 'widthPercent': 0.45, 'rescaleHeight': False, 'trialN': 96, 'loaded': True, 'loadedTime': 2139.9000000003725, 'positionName': 'LEFT', 'positionCoords': [208.2, 224.5], 'bid': 6.17}, {'imgObject': {}, 'id': 'kiwi', 'src': '/static/foodstim60/kiwi.jpg', 'key': 'i', 'origWidth': 410, 'origHeight': 410, 'width': 410, 'height': 410, 'widthPercent': 0.45, 'rescaleHeight': False, 'trialN': 96, 'loaded': True, 'loadedTime': 2187.7000000011176, 'positionName': 'RIGHT', 'positionCoords': [670.8, 225], 'bid': 6.3}]",158827.1000000015,1669831334461,raisin bran w milk,kiwi,6.17,6.3,0.1299999999999999,raisin bran w milk,883.8999999985099,884,884.3999999985099,True,u,160214.40000000037,1387.2999999988824,1669831335848,1387,HRV,HRV_0139,2022-11-30 18:04:47
97,"[{'imgObject': {}, 'id': 'burger', 'src': '/static/foodstim60/burger.jpg', 'key': 'u', 'origWidth': 409, 'origHeight': 409, 'width': 409, 'height': 409, 'widthPercent': 0.45, 'rescaleHeight': False, 'trialN': 97, 'loaded': True, 'loadedTime': 2195.800000000745, 'positionName': 'LEFT', 'positionCoords': [210.2, 225.5], 'bid': 9.44}, {'imgObject': {}, 'id': 'avocado', 'src': '/static/foodstim60/avocado.jpg', 'key': 'i', 'origWidth': 409, 'origHeight': 409, 'width': 409, 'height': 409, 'widthPercent': 0.45, 'rescaleHeight': False, 'trialN': 97, 'loaded': True, 'loadedTime': 2157.10000000149, 'positionName': 'RIGHT', 'positionCoords': [670.8, 225.5], 'bid': 9.41}]",160214.70000000112,1669831335848,burger,avocado,9.44,9.41,-0.02999999999999936,burger,921.2999999988824,922,921.9000000003725,True,u,161642.30000000075,1427.5999999996275,1669831337276,1428,HRV,HRV_0139,2022-11-30 18:04:47
98,"[{'imgObject': {}, 'id': 'omelette', 'src': '/static/foodstim60/omelette.jpg', 'key': 'u', 'origWidth': 410, 'origHeight': 409, 'width': 410, 'height': 409, 'widthPercent': 0.45, 'rescaleHeight': False, 'trialN': 98, 'loaded': True, 'loadedTime': 2072, 'positionName': 'LEFT', 'positionCoords': [209.2, 225.5], 'bid': 5.29}, {'imgObject': {}, 'id': 'luckycharms', 'src': '/static/foodstim60/luckycharms.jpg', 'key': 'i', 'origWidth': 410, 'origHeight': 409, 'width': 410, 'height': 409, 'widthPercent': 0.45, 'rescaleHeight': False, 'trialN': 98, 'loaded': True, 'loadedTime': 1894, 'positionName': 'RIGHT', 'positionCoords': [670.8, 225.5], 'bid': 7.17}]",161642.6000000015,1669831337276,omelette,luckycharms,5.29,7.17,1.88,luckycharms,1191.199999999255,1193,1193.199999999255,True,i,163347.6000000015,1705.0,1669831338981,1705,HRV,HRV_0139,2022-11-30 18:04:47
99,"[{'imgObject': {}, 'id': 'roastedpotatoes', 'src': '/static/foodstim60/roastedpotatoes.jpg', 'key': 'u', 'origWidth': 409, 'origHeight': 410, 'width': 409, 'height': 410, 'widthPercent': 0.45, 'rescaleHeight': False, 'trialN': 99, 'loaded': True, 'loadedTime': 2091.2000000011176, 'positionName': 'LEFT', 'positionCoords': [210.2, 225], 'bid': 8.9}, {'imgObject': {}, 'id': 'olives', 'src': '/static/foodstim60/olives.jpg', 'key': 'i', 'origWidth': 410, 'origHeight': 410, 'width': 410, 'height': 410, 'widthPercent': 0.45, 'rescaleHeight': False, 'trialN': 99, 'loaded': True, 'loadedTime': 2009.800000000745, 'positionName': 'RIGHT', 'positionCoords': [670.8, 225], 'bid': 9.85}]",163347.80000000075,1669831338981,roastedpotatoes,olives,8.9,9.85,0.9499999999999993,roastedpotatoes,1206.9000000003725,1208,1207.800000000745,True,u,165067.30000000075,1719.5,1669831340701,1720,HRV,HRV_0139,2022-11-30 18:04:47
100,"[{'imgObject': {}, 'id': 'roastedpotatoes', 'src': '/static/foodstim60/roastedpotatoes.jpg', 'key': 'u', 'origWidth': 409, 'origHeight': 410, 'width': 409, 'height': 410, 'widthPercent': 0.45, 'rescaleHeight': False, 'trialN': 100, 'loaded': True, 'loadedTime': 2090.7000000011176, 'positionName': 'LEFT', 'positionCoords': [210.2, 225], 'bid': 8.9}, {'imgObject': {}, 'id': 'Grapes', 'src': '/static/foodstim60/Grapes.jpg', 'key': 'i', 'origWidth': 411, 'origHeight': 411, 'width': 411, 'height': 411, 'widthPercent': 0.45, 'rescaleHeight': False, 'trialN': 100, 'loaded': True, 'loadedTime': 1915.9000000003725, 'positionName': 'RIGHT', 'positionCoords': [670.8, 224.5], 'bid': 8.82}]",165067.90000000037,1669831340702,roastedpotatoes,Grapes,8.9,8.82,-0.08000000000000007,roastedpotatoes,1375.0,1375,1375.5,True,u,166950.70000000112,1882.800000000745,1669831342584,1882,HRV,HRV_0139,2022-11-30 18:04:47
101,"[{'imgObject': {}, 'id': 'yogurt no spoon', 'src': '/static/foodstim60/yogurt no spoon.jpg', 'key': 'u', 'origWidth': 411, 'origHeight': 410, 'width': 411, 'height': 410, 'widthPercent': 0.45, 'rescaleHeight': False, 'trialN': 101, 'loaded': True, 'loadedTime': 1890.1000000014901, 'positionName': 'LEFT', 'positionCoords': [208.2, 225], 'bid': 6.76}, {'imgObject': {}, 'id': 'mac & cheese', 'src': '/static/foodstim60/mac & cheese.jpg', 'key': 'i', 'origWidth': 410, 'origHeight': 410, 'width': 410, 'height': 410, 'widthPercent': 0.45, 'rescaleHeight': False, 'trialN': 101, 'loaded': True, 'loadedTime': 2212.300000000745, 'positionName': 'RIGHT', 'positionCoords': [670.8, 225], 'bid': 8.41}]",166951.90000000037,1669831342585,yogurt no spoon,mac & cheese,6.76,8.41,1.6500000000000004,yogurt no spoon,1111.300000000745,1112,1112.0,True,u,168582.1000000015,1630.2000000011176,1669831344216,1631,HRV,HRV_0139,2022-11-30 18:04:47
102,"[{'imgObject': {}, 'id': 'froot loops w milk', 'src': '/static/foodstim60/froot loops w milk.jpg', 'key': 'u', 'origWidth': 410, 'origHeight': 410, 'width': 410, 'height': 410, 'widthPercent': 0.45, 'rescaleHeight': False, 'trialN': 102, 'loaded': True, 'loadedTime': 2206.7000000011176, 'positionName': 'LEFT', 'positionCoords': [209.2, 225], 'bid': 6.1000000000000005}, {'imgObject': {}, 'id': 'apple slices', 'src': '/static/foodstim60/apple slices.jpg', 'key': 'i', 'origWidth': 409, 'origHeight': 410, 'width': 409, 'height': 410, 'widthPercent': 0.45, 'rescaleHeight': False, 'trialN': 102, 'loaded': True, 'loadedTime': 1995.6000000014901, 'positionName': 'RIGHT', 'positionCoords': [670.8, 225], 'bid': 9.4}]",168583.6000000015,1669831344217,froot loops w milk,apple slices,6.1000000000000005,9.4,3.3,apple slices,1004.8999999985099,1006,1005.5,True,i,170095.70000000112,1512.0999999996275,1669831345729,1512,HRV,HRV_0139,2022-11-30 18:04:47
103,"[{'imgObject': {}, 'id': 'salad w chicken', 'src': '/static/foodstim60/salad w chicken.jpg', 'key': 'u', 'origWidth': 411, 'origHeight': 411, 'width': 411, 'height': 411, 'widthPercent': 0.45, 'rescaleHeight': False, 'trialN': 103, 'loaded': True, 'loadedTime': 2159, 'positionName': 'LEFT', 'positionCoords': [208.2, 224.5], 'bid': 9.83}, {'imgObject': {}, 'id': 'chickenfingers', 'src': '/static/foodstim60/chickenfingers.jpg', 'key': 'i', 'origWidth': 410, 'origHeight': 410, 'width': 410, 'height': 410, 'widthPercent': 0.45, 'rescaleHeight': False, 'trialN': 103, 'loaded': True, 'loadedTime': 2106.5, 'positionName': 'RIGHT', 'positionCoords': [670.8, 225], 'bid': 9.51}]",170095.90000000037,1669831345730,salad w chicken,chickenfingers,9.83,9.51,-0.3200000000000003,chickenfingers,795.3000000007451,796,796.0,True,i,171396.90000000037,1301.0,1669831347031,1301,HRV,HRV_0139,2022-11-30 18:04:47
104,"[{'imgObject': {}, 'id': 'mango', 'src': '/static/foodstim60/mango.jpg', 'key': 'u', 'origWidth': 411, 'origHeight': 411, 'width': 411, 'height': 411, 'widthPercent': 0.45, 'rescaleHeight': False, 'trialN': 104, 'loaded': True, 'loadedTime': 2103, 'positionName': 'LEFT', 'positionCoords': [208.2, 224.5], 'bid': 8.61}, {'imgObject': {}, 'id': 'sweetpotato', 'src': '/static/foodstim60/sweetpotato.jpg', 'key': 'i', 'origWidth': 410, 'origHeight': 410, 'width': 410, 'height': 410, 'widthPercent': 0.45, 'rescaleHeight': False, 'trialN': 104, 'loaded': True, 'loadedTime': 2025.5, 'positionName': 'RIGHT', 'positionCoords': [670.8, 225], 'bid': 4.93}]",171397.0,1669831347031,mango,sweetpotato,8.61,4.93,-3.6799999999999997,mango,1241.0,1241,1241.800000000745,True,u,173150.1000000015,1753.1000000014901,1669831348784,1753,HRV,HRV_0139,2022-11-30 18:04:47
105,"[{'imgObject': {}, 'id': 'yogurt no spoon', 'src': '/static/foodstim60/yogurt no spoon.jpg', 'key': 'u', 'origWidth': 411, 'origHeight': 410, 'width': 411, 'height': 410, 'widthPercent': 0.45, 'rescaleHeight': False, 'trialN': 105, 'loaded': True, 'loadedTime': 1889.9000000003725, 'positionName': 'LEFT', 'positionCoords': [208.2, 225], 'bid': 6.76}, {'imgObject': {}, 'id': 'blueberries', 'src': '/static/foodstim60/blueberries.jpg', 'key': 'i', 'origWidth': 411, 'origHeight': 411, 'width': 411, 'height': 411, 'widthPercent': 0.45, 'rescaleHeight': False, 'trialN': 105, 'loaded': True, 'loadedTime': 2220.9000000003725, 'positionName': 'RIGHT', 'positionCoords': [670.8, 224.5], 'bid': 7.74}]",173150.5,1669831348784,yogurt no spoon,blueberries,6.76,7.74,0.9800000000000004,blueberries,1184.6000000014901,1185,1185.2000000011176,True,i,174854.1000000015,1703.6000000014901,1669831350488,1704,HRV,HRV_0139,2022-11-30 18:04:47
106,"[{'imgObject': {}, 'id': 'blackbeanswithrice', 'src': '/static/foodstim60/blackbeanswithrice.jpg', 'key': 'u', 'origWidth': 410, 'origHeight': 410, 'width': 410, 'height': 410, 'widthPercent': 0.45, 'rescaleHeight': False, 'trialN': 106, 'loaded': True, 'loadedTime': 1903.6000000014901, 'positionName': 'LEFT', 'positionCoords': [209.2, 225], 'bid': 8.81}, {'imgObject': {}, 'id': 'rigatoni', 'src': '/static/foodstim60/rigatoni.jpg', 'key': 'i', 'origWidth': 411, 'origHeight': 411, 'width': 411, 'height': 411, 'widthPercent': 0.45, 'rescaleHeight': False, 'trialN': 106, 'loaded': True, 'loadedTime': 1812.7000000011176, 'positionName': 'RIGHT', 'positionCoords': [670.8, 224.5], 'bid': 9.31}]",174855.70000000112,1669831350489,blackbeanswithrice,rigatoni,8.81,9.31,0.5,blackbeanswithrice,1332.0999999996275,1333,1332.9000000003725,True,u,176704.30000000075,1848.5999999996275,1669831352338,1849,HRV,HRV_0139,2022-11-30 18:04:47
107,"[{'imgObject': {}, 'id': 'salmon', 'src': '/static/foodstim60/salmon.jpg', 'key': 'u', 'origWidth': 410, 'origHeight': 409, 'width': 410, 'height': 409, 'widthPercent': 0.45, 'rescaleHeight': False, 'trialN': 107, 'loaded': True, 'loadedTime': 2075, 'positionName': 'LEFT', 'positionCoords': [209.2, 225.5], 'bid': 3.82}, {'imgObject': {}, 'id': 'raisin bran w milk', 'src': '/static/foodstim60/raisin bran w milk.jpg', 'key': 'i', 'origWidth': 411, 'origHeight': 411, 'width': 411, 'height': 411, 'widthPercent': 0.45, 'rescaleHeight': False, 'trialN': 107, 'loaded': True, 'loadedTime': 2139.60000000149, 'positionName': 'RIGHT', 'positionCoords': [670.8, 224.5], 'bid': 6.17}]",176705.80000000075,1669831352339,salmon,raisin bran w milk,3.82,6.17,2.35,raisin bran w milk,895.4000000003725,906,905.5,True,i,178130.90000000037,1425.0999999996275,1669831353765,1426,HRV,HRV_0139,2022-11-30 18:04:47
108,"[{'imgObject': {}, 'id': 'cheerios', 'src': '/static/foodstim60/cheerios.jpg', 'key': 'u', 'origWidth': 409, 'origHeight': 410, 'width': 409, 'height': 410, 'widthPercent': 0.45, 'rescaleHeight': False, 'trialN': 108, 'loaded': True, 'loadedTime': 1799.300000000745, 'positionName': 'LEFT', 'positionCoords': [210.2, 225], 'bid': 7.65}, {'imgObject': {}, 'id': 'mac & cheese', 'src': '/static/foodstim60/mac & cheese.jpg', 'key': 'i', 'origWidth': 410, 'origHeight': 410, 'width': 410, 'height': 410, 'widthPercent': 0.45, 'rescaleHeight': False, 'trialN': 108, 'loaded': True, 'loadedTime': 2212.2000000011176, 'positionName': 'RIGHT', 'positionCoords': [670.8, 225], 'bid': 8.41}]",178131.40000000037,1669831353765,cheerios,mac & cheese,7.65,8.41,0.7599999999999998,cheerios,1520.2000000011176,1522,1522.5,True,u,180158.0,2026.5999999996275,1669831355792,2027,HRV,HRV_0139,2022-11-30 18:04:47
