trialN,stimuli,trialStartTime,trialStartTime_UNIX,stimulus1,stimulus2,stimulus1Bid,stimulus2Bid,delta,selected,rt,rt_UNIX,rt_perfnow,receivedResponse,rsp,trialEndTime,trialDuration,trialEndTime_UNIX,trialDuration_UNIX,exp,subjectId,date
0,"[{'imgObject': {}, 'id': 'cantaloupe', 'src': '/static/foodstim60/cantaloupe.jpg', 'key': 'u', 'origWidth': 409, 'origHeight': 409, 'width': 409, 'height': 409, 'widthPercent': 0.45, 'rescaleHeight': False, 'trialN': 0, 'loaded': True, 'loadedTime': 2703.300000011921, 'positionName': 'LEFT', 'positionCoords': [205.4, 195.5], 'bid': 6.54}, {'imgObject': {}, 'id': 'luckycharms', 'src': '/static/foodstim60/luckycharms.jpg', 'key': 'i', 'origWidth': 410, 'origHeight': 409, 'width': 410, 'height': 409, 'widthPercent': 0.45, 'rescaleHeight': False, 'trialN': 0, 'loaded': True, 'loadedTime': 2712.699999988079, 'positionName': 'RIGHT', 'positionCoords': [665.6, 195.5], 'bid': 2.14}]",3360.100000023842,1669838118338,cantaloupe,luckycharms,6.54,2.14,-4.4,cantaloupe,3429.7999999523163,3435,3434.099999964237,True,u,7299.600000023842,3939.5,1669838122278,3940,HRV,HRV_0270,2022-11-30 20:02:18
1,"[{'imgObject': {}, 'id': 'shreddedwheatwithmilk', 'src': '/static/foodstim60/shreddedwheatwithmilk.jpg', 'key': 'u', 'origWidth': 410, 'origHeight': 410, 'width': 410, 'height': 410, 'widthPercent': 0.45, 'rescaleHeight': False, 'trialN': 1, 'loaded': True, 'loadedTime': 2724.300000011921, 'positionName': 'LEFT', 'positionCoords': [204.4, 195], 'bid': 2.25}, {'imgObject': {}, 'id': 'grilled chicken strips', 'src': '/static/foodstim60/grilled chicken strips.jpg', 'key': 'i', 'origWidth': 410, 'origHeight': 411, 'width': 410, 'height': 411, 'widthPercent': 0.45, 'rescaleHeight': False, 'trialN': 1, 'loaded': True, 'loadedTime': 2732.300000011921, 'positionName': 'RIGHT', 'positionCoords': [665.6, 194.5], 'bid': 6.7}]",7300.199999988079,1669838122278,shreddedwheatwithmilk,grilled chicken strips,2.25,6.7,4.45,grilled chicken strips,1609.800000011921,1614,1613.699999988079,True,i,9417.800000011921,2117.600000023842,1669838124396,2118,HRV,HRV_0270,2022-11-30 20:02:18
2,"[{'imgObject': {}, 'id': 'raisin bran w milk', 'src': '/static/foodstim60/raisin bran w milk.jpg', 'key': 'u', 'origWidth': 411, 'origHeight': 411, 'width': 411, 'height': 411, 'widthPercent': 0.45, 'rescaleHeight': False, 'trialN': 2, 'loaded': True, 'loadedTime': 2742, 'positionName': 'LEFT', 'positionCoords': [203.4, 194.5], 'bid': 4.98}, {'imgObject': {}, 'id': 'bagel and cc', 'src': '/static/foodstim60/bagel and cc.jpg', 'key': 'i', 'origWidth': 410, 'origHeight': 410, 'width': 410, 'height': 410, 'widthPercent': 0.45, 'rescaleHeight': False, 'trialN': 2, 'loaded': True, 'loadedTime': 2752.800000011921, 'positionName': 'RIGHT', 'positionCoords': [665.6, 195], 'bid': 2.43}]",9418.199999988079,1669838124396,raisin bran w milk,bagel and cc,4.98,2.43,-2.5500000000000003,raisin bran w milk,1251.800000011921,1258,1257.199999988079,True,u,11177.600000023842,1759.4000000357628,1669838126156,1760,HRV,HRV_0270,2022-11-30 20:02:18
3,"[{'imgObject': {}, 'id': 'burger', 'src': '/static/foodstim60/burger.jpg', 'key': 'u', 'origWidth': 409, 'origHeight': 409, 'width': 409, 'height': 409, 'widthPercent': 0.45, 'rescaleHeight': False, 'trialN': 3, 'loaded': True, 'loadedTime': 2759.300000011921, 'positionName': 'LEFT', 'positionCoords': [205.4, 195.5], 'bid': 5.01}, {'imgObject': {}, 'id': 'cheerios', 'src': '/static/foodstim60/cheerios.jpg', 'key': 'i', 'origWidth': 409, 'origHeight': 410, 'width': 409, 'height': 410, 'widthPercent': 0.45, 'rescaleHeight': False, 'trialN': 3, 'loaded': True, 'loadedTime': 2765, 'positionName': 'RIGHT', 'positionCoords': [665.6, 195], 'bid': 5}]",11178.0,1669838126156,burger,cheerios,5.01,5.0,-0.009999999999999787,burger,1644,1648,1648.300000011921,True,u,13327.800000011921,2149.800000011921,1669838128306,2150,HRV,HRV_0270,2022-11-30 20:02:18
4,"[{'imgObject': {}, 'id': 'popsicles', 'src': '/static/foodstim60/popsicles.jpg', 'key': 'u', 'origWidth': 410, 'origHeight': 410, 'width': 410, 'height': 410, 'widthPercent': 0.45, 'rescaleHeight': False, 'trialN': 4, 'loaded': True, 'loadedTime': 2810.399999976158, 'positionName': 'LEFT', 'positionCoords': [204.4, 195], 'bid': 4.9}, {'imgObject': {}, 'id': 'luckycharms', 'src': '/static/foodstim60/luckycharms.jpg', 'key': 'i', 'origWidth': 410, 'origHeight': 409, 'width': 410, 'height': 409, 'widthPercent': 0.45, 'rescaleHeight': False, 'trialN': 4, 'loaded': True, 'loadedTime': 2716.699999988079, 'positionName': 'RIGHT', 'positionCoords': [665.6, 195.5], 'bid': 2.14}]",13328.0,1669838128306,popsicles,luckycharms,4.9,2.14,-2.7600000000000002,popsicles,2798,2802,2802.0,True,u,16633.100000023842,3305.100000023842,1669838131611,3305,HRV,HRV_0270,2022-11-30 20:02:18
5,"[{'imgObject': {}, 'id': 'edamame', 'src': '/static/foodstim60/edamame.jpg', 'key': 'u', 'origWidth': 409, 'origHeight': 410, 'width': 409, 'height': 410, 'widthPercent': 0.45, 'rescaleHeight': False, 'trialN': 5, 'loaded': True, 'loadedTime': 2769.199999988079, 'positionName': 'LEFT', 'positionCoords': [205.4, 195], 'bid': 3.37}, {'imgObject': {}, 'id': 'eggs', 'src': '/static/foodstim60/eggs.jpg', 'key': 'i', 'origWidth': 409, 'origHeight': 409, 'width': 409, 'height': 409, 'widthPercent': 0.45, 'rescaleHeight': False, 'trialN': 5, 'loaded': True, 'loadedTime': 2775.899999976158, 'positionName': 'RIGHT', 'positionCoords': [665.6, 195.5], 'bid': 0.1}]",16633.600000023842,1669838131612,edamame,eggs,3.37,0.1,-3.27,edamame,1164.3999999761581,1168,1168.5999999642372,True,u,18305.0,1671.3999999761581,1669838133283,1671,HRV,HRV_0270,2022-11-30 20:02:18
6,"[{'imgObject': {}, 'id': 'popsicles', 'src': '/static/foodstim60/popsicles.jpg', 'key': 'u', 'origWidth': 410, 'origHeight': 410, 'width': 410, 'height': 410, 'widthPercent': 0.45, 'rescaleHeight': False, 'trialN': 6, 'loaded': True, 'loadedTime': 2808.5, 'positionName': 'LEFT', 'positionCoords': [204.4, 195], 'bid': 4.9}, {'imgObject': {}, 'id': 'salmon', 'src': '/static/foodstim60/salmon.jpg', 'key': 'i', 'origWidth': 410, 'origHeight': 409, 'width': 410, 'height': 409, 'widthPercent': 0.45, 'rescaleHeight': False, 'trialN': 6, 'loaded': True, 'loadedTime': 2779.100000023842, 'positionName': 'RIGHT', 'positionCoords': [665.6, 195.5], 'bid': 5.0600000000000005}]",18305.30000001192,1669838133283,popsicles,salmon,4.9,5.0600000000000005,0.16000000000000014,popsicles,1828.699999988079,1833,1832.5,True,u,20639.399999976158,2334.099999964237,1669838135617,2334,HRV,HRV_0270,2022-11-30 20:02:18
7,"[{'imgObject': {}, 'id': 'kiwi', 'src': '/static/foodstim60/kiwi.jpg', 'key': 'u', 'origWidth': 410, 'origHeight': 410, 'width': 410, 'height': 410, 'widthPercent': 0.45, 'rescaleHeight': False, 'trialN': 7, 'loaded': True, 'loadedTime': 2825.600000023842, 'positionName': 'LEFT', 'positionCoords': [204.4, 195], 'bid': 6.96}, {'imgObject': {}, 'id': 'baked potato', 'src': '/static/foodstim60/baked potato.jpg', 'key': 'i', 'origWidth': 409, 'origHeight': 410, 'width': 409, 'height': 410, 'widthPercent': 0.45, 'rescaleHeight': False, 'trialN': 7, 'loaded': True, 'loadedTime': 2828.399999976158, 'positionName': 'RIGHT', 'positionCoords': [665.6, 195], 'bid': 3.0700000000000003}]",20639.899999976158,1669838135618,kiwi,baked potato,6.96,3.0700000000000003,-3.8899999999999997,NaN,NaN,NaN,,False,NaN,24651.100000023842,4011.2000000476837,1669838139629,4011,HRV,HRV_0270,2022-11-30 20:02:18
8,"[{'imgObject': {}, 'id': 'lox', 'src': '/static/foodstim60/lox.jpg', 'key': 'u', 'origWidth': 410, 'origHeight': 411, 'width': 410, 'height': 411, 'widthPercent': 0.45, 'rescaleHeight': False, 'trialN': 8, 'loaded': True, 'loadedTime': 2839, 'positionName': 'LEFT', 'positionCoords': [204.4, 194.5], 'bid': 0}, {'imgObject': {}, 'id': 'mango', 'src': '/static/foodstim60/mango.jpg', 'key': 'i', 'origWidth': 411, 'origHeight': 411, 'width': 411, 'height': 411, 'widthPercent': 0.45, 'rescaleHeight': False, 'trialN': 8, 'loaded': True, 'loadedTime': 2845.300000011921, 'positionName': 'RIGHT', 'positionCoords': [665.6, 194.5], 'bid': 2.76}]",24651.5,1669838139629,lox,mango,0.0,2.76,2.76,mango,1130.3999999761581,1135,1134.300000011921,True,i,26287.600000023842,1636.1000000238419,1669838141265,1636,HRV,HRV_0270,2022-11-30 20:02:18
9,"[{'imgObject': {}, 'id': 'turkeysandwich', 'src': '/static/foodstim60/turkeysandwich.jpg', 'key': 'u', 'origWidth': 409, 'origHeight': 409, 'width': 409, 'height': 409, 'widthPercent': 0.45, 'rescaleHeight': False, 'trialN': 9, 'loaded': True, 'loadedTime': 2848.199999988079, 'positionName': 'LEFT', 'positionCoords': [205.4, 195.5], 'bid': 4.8500000000000005}, {'imgObject': {}, 'id': 'cocktailshrimp', 'src': '/static/foodstim60/cocktailshrimp.jpg', 'key': 'i', 'origWidth': 410, 'origHeight': 410, 'width': 410, 'height': 410, 'widthPercent': 0.45, 'rescaleHeight': False, 'trialN': 9, 'loaded': True, 'loadedTime': 2852.399999976158, 'positionName': 'RIGHT', 'positionCoords': [665.6, 195], 'bid': 5}]",26288.0,1669838141266,turkeysandwich,cocktailshrimp,4.8500000000000005,5.0,0.14999999999999947,NaN,NaN,NaN,,False,NaN,30294.0,4006.0,1669838145272,4006,HRV,HRV_0270,2022-11-30 20:02:18
10,"[{'imgObject': {}, 'id': 'cherry tomato', 'src': '/static/foodstim60/cherry tomato.jpg', 'key': 'u', 'origWidth': 410, 'origHeight': 410, 'width': 410, 'height': 410, 'widthPercent': 0.45, 'rescaleHeight': False, 'trialN': 10, 'loaded': True, 'loadedTime': 2856.600000023842, 'positionName': 'LEFT', 'positionCoords': [204.4, 195], 'bid': 2.96}, {'imgObject': {}, 'id': 'eggsalad', 'src': '/static/foodstim60/eggsalad.jpg', 'key': 'i', 'origWidth': 410, 'origHeight': 409, 'width': 410, 'height': 409, 'widthPercent': 0.45, 'rescaleHeight': False, 'trialN': 10, 'loaded': True, 'loadedTime': 2858.5, 'positionName': 'RIGHT', 'positionCoords': [665.6, 195.5], 'bid': 0}]",30294.69999998808,1669838145272,cherry tomato,eggsalad,2.96,0.0,-2.96,cherry tomato,2719.100000023842,2724,2723.600000023842,True,u,33523.60000002384,3228.900000035763,1669838148501,3229,HRV,HRV_0270,2022-11-30 20:02:18
11,"[{'imgObject': {}, 'id': 'fried eggs', 'src': '/static/foodstim60/fried eggs.jpg', 'key': 'u', 'origWidth': 410, 'origHeight': 410, 'width': 410, 'height': 410, 'widthPercent': 0.45, 'rescaleHeight': False, 'trialN': 11, 'loaded': True, 'loadedTime': 2864.100000023842, 'positionName': 'LEFT', 'positionCoords': [204.4, 195], 'bid': 0.2}, {'imgObject': {}, 'id': 'eggs', 'src': '/static/foodstim60/eggs.jpg', 'key': 'i', 'origWidth': 409, 'origHeight': 409, 'width': 409, 'height': 409, 'widthPercent': 0.45, 'rescaleHeight': False, 'trialN': 11, 'loaded': True, 'loadedTime': 2774.300000011921, 'positionName': 'RIGHT', 'positionCoords': [665.6, 195.5], 'bid': 0.1}]",33524.0,1669838148502,fried eggs,eggs,0.2,0.1,-0.1,fried eggs,1434,1438,1438.6000000238419,True,u,35464.0,1940.0,1669838150442,1940,HRV,HRV_0270,2022-11-30 20:02:18
12,"[{'imgObject': {}, 'id': 'mac & cheese', 'src': '/static/foodstim60/mac & cheese.jpg', 'key': 'u', 'origWidth': 410, 'origHeight': 410, 'width': 410, 'height': 410, 'widthPercent': 0.45, 'rescaleHeight': False, 'trialN': 12, 'loaded': True, 'loadedTime': 2868.300000011921, 'positionName': 'LEFT', 'positionCoords': [204.4, 195], 'bid': 7.85}, {'imgObject': {}, 'id': 'Grapes', 'src': '/static/foodstim60/Grapes.jpg', 'key': 'i', 'origWidth': 411, 'origHeight': 411, 'width': 411, 'height': 411, 'widthPercent': 0.45, 'rescaleHeight': False, 'trialN': 12, 'loaded': True, 'loadedTime': 2869.699999988079, 'positionName': 'RIGHT', 'positionCoords': [665.6, 194.5], 'bid': 10}]",35464.39999997616,1669838150442,mac & cheese,Grapes,7.85,10.0,2.1500000000000004,mac & cheese,1621.6000000238419,1626,1625.6000000238419,True,u,37595.19999998808,2130.800000011921,1669838152573,2131,HRV,HRV_0270,2022-11-30 20:02:18
13,"[{'imgObject': {}, 'id': 'cherry tomato', 'src': '/static/foodstim60/cherry tomato.jpg', 'key': 'u', 'origWidth': 410, 'origHeight': 410, 'width': 410, 'height': 410, 'widthPercent': 0.45, 'rescaleHeight': False, 'trialN': 13, 'loaded': True, 'loadedTime': 2858.100000023842, 'positionName': 'LEFT', 'positionCoords': [204.4, 195], 'bid': 2.96}, {'imgObject': {}, 'id': 'seaweed', 'src': '/static/foodstim60/seaweed.jpg', 'key': 'i', 'origWidth': 410, 'origHeight': 410, 'width': 410, 'height': 410, 'widthPercent': 0.45, 'rescaleHeight': False, 'trialN': 13, 'loaded': True, 'loadedTime': 2874, 'positionName': 'RIGHT', 'positionCoords': [665.6, 195], 'bid': 3.03}]",37595.5,1669838152573,cherry tomato,seaweed,2.96,3.03,0.06999999999999984,cherry tomato,2162.5,2167,2167.100000023842,True,u,40267.80000001192,2672.300000011921,1669838155245,2672,HRV,HRV_0270,2022-11-30 20:02:18
14,"[{'imgObject': {}, 'id': 'Tribe humus pita', 'src': '/static/foodstim60/Tribe humus pita.jpg', 'key': 'u', 'origWidth': 411, 'origHeight': 411, 'width': 411, 'height': 411, 'widthPercent': 0.45, 'rescaleHeight': False, 'trialN': 14, 'loaded': True, 'loadedTime': 2879.800000011921, 'positionName': 'LEFT', 'positionCoords': [203.4, 194.5], 'bid': 6.7}, {'imgObject': {}, 'id': 'bagel and cc', 'src': '/static/foodstim60/bagel and cc.jpg', 'key': 'i', 'origWidth': 410, 'origHeight': 410, 'width': 410, 'height': 410, 'widthPercent': 0.45, 'rescaleHeight': False, 'trialN': 14, 'loaded': True, 'loadedTime': 2748.699999988079, 'positionName': 'RIGHT', 'positionCoords': [665.6, 195], 'bid': 2.43}]",40268.10000002384,1669838155246,Tribe humus pita,bagel and cc,6.7,2.43,-4.27,NaN,NaN,NaN,,False,NaN,44276.39999997616,4008.2999999523163,1669838159254,4008,HRV,HRV_0270,2022-11-30 20:02:18
15,"[{'imgObject': {}, 'id': 'cocktailshrimp', 'src': '/static/foodstim60/cocktailshrimp.jpg', 'key': 'u', 'origWidth': 410, 'origHeight': 410, 'width': 410, 'height': 410, 'widthPercent': 0.45, 'rescaleHeight': False, 'trialN': 15, 'loaded': True, 'loadedTime': 2851.899999976158, 'positionName': 'LEFT', 'positionCoords': [204.4, 195], 'bid': 5}, {'imgObject': {}, 'id': 'eggsalad', 'src': '/static/foodstim60/eggsalad.jpg', 'key': 'i', 'origWidth': 410, 'origHeight': 409, 'width': 410, 'height': 409, 'widthPercent': 0.45, 'rescaleHeight': False, 'trialN': 15, 'loaded': True, 'loadedTime': 2860.100000023842, 'positionName': 'RIGHT', 'positionCoords': [665.6, 195.5], 'bid': 0}]",44276.80000001192,1669838159254,cocktailshrimp,eggsalad,5.0,0.0,-5.0,cocktailshrimp,1617.300000011921,1622,1621.699999988079,True,u,46403.69999998808,2126.899999976158,1669838161381,2127,HRV,HRV_0270,2022-11-30 20:02:18
16,"[{'imgObject': {}, 'id': 'chicken nuggets2', 'src': '/static/foodstim60/chicken nuggets2.jpg', 'key': 'u', 'origWidth': 410, 'origHeight': 409, 'width': 410, 'height': 409, 'widthPercent': 0.45, 'rescaleHeight': False, 'trialN': 16, 'loaded': True, 'loadedTime': 2880.5, 'positionName': 'LEFT', 'positionCoords': [204.4, 195.5], 'bid': 6.28}, {'imgObject': {}, 'id': 'fried eggs', 'src': '/static/foodstim60/fried eggs.jpg', 'key': 'i', 'origWidth': 410, 'origHeight': 410, 'width': 410, 'height': 410, 'widthPercent': 0.45, 'rescaleHeight': False, 'trialN': 16, 'loaded': True, 'loadedTime': 2864.5, 'positionName': 'RIGHT', 'positionCoords': [665.6, 195], 'bid': 0.2}]",46404.10000002384,1669838161381,chicken nuggets2,fried eggs,6.28,0.2,-6.08,chicken nuggets2,1217.8999999761581,1223,1222.0999999642372,True,u,48131.39999997616,1727.2999999523163,1669838163109,1728,HRV,HRV_0270,2022-11-30 20:02:18
17,"[{'imgObject': {}, 'id': 'olives', 'src': '/static/foodstim60/olives.jpg', 'key': 'u', 'origWidth': 410, 'origHeight': 410, 'width': 410, 'height': 410, 'widthPercent': 0.45, 'rescaleHeight': False, 'trialN': 17, 'loaded': True, 'loadedTime': 2900.100000023842, 'positionName': 'LEFT', 'positionCoords': [204.4, 195], 'bid': 0.06}, {'imgObject': {}, 'id': 'eggs', 'src': '/static/foodstim60/eggs.jpg', 'key': 'i', 'origWidth': 409, 'origHeight': 409, 'width': 409, 'height': 409, 'widthPercent': 0.45, 'rescaleHeight': False, 'trialN': 17, 'loaded': True, 'loadedTime': 2775.199999988079, 'positionName': 'RIGHT', 'positionCoords': [665.6, 195.5], 'bid': 0.1}]",48131.89999997616,1669838163109,olives,eggs,0.06,0.1,0.04000000000000001,NaN,NaN,NaN,,False,NaN,52143.0,4011.100000023842,1669838167120,4011,HRV,HRV_0270,2022-11-30 20:02:18
18,"[{'imgObject': {}, 'id': 'cocktailshrimp', 'src': '/static/foodstim60/cocktailshrimp.jpg', 'key': 'u', 'origWidth': 410, 'origHeight': 410, 'width': 410, 'height': 410, 'widthPercent': 0.45, 'rescaleHeight': False, 'trialN': 18, 'loaded': True, 'loadedTime': 2853, 'positionName': 'LEFT', 'positionCoords': [204.4, 195], 'bid': 5}, {'imgObject': {}, 'id': 'steak', 'src': '/static/foodstim60/steak.jpg', 'key': 'i', 'origWidth': 410, 'origHeight': 410, 'width': 410, 'height': 410, 'widthPercent': 0.45, 'rescaleHeight': False, 'trialN': 18, 'loaded': True, 'loadedTime': 2906, 'positionName': 'RIGHT', 'positionCoords': [665.6, 195], 'bid': 4.98}]",52143.30000001192,1669838167120,cocktailshrimp,steak,5.0,4.98,-0.019999999999999574,steak,1470.5999999642372,1476,1475.199999988079,True,i,54123.69999998808,1980.3999999761581,1669838169101,1981,HRV,HRV_0270,2022-11-30 20:02:18
19,"[{'imgObject': {}, 'id': 'cheerios', 'src': '/static/foodstim60/cheerios.jpg', 'key': 'u', 'origWidth': 409, 'origHeight': 410, 'width': 409, 'height': 410, 'widthPercent': 0.45, 'rescaleHeight': False, 'trialN': 19, 'loaded': True, 'loadedTime': 2765.300000011921, 'positionName': 'LEFT', 'positionCoords': [205.4, 195], 'bid': 5}, {'imgObject': {}, 'id': 'mashed potato', 'src': '/static/foodstim60/mashed potato.jpg', 'key': 'i', 'origWidth': 409, 'origHeight': 409, 'width': 409, 'height': 409, 'widthPercent': 0.45, 'rescaleHeight': False, 'trialN': 19, 'loaded': True, 'loadedTime': 2935.300000011921, 'positionName': 'RIGHT', 'positionCoords': [665.6, 195.5], 'bid': 6.890000000000001}]",54124.0,1669838169101,cheerios,mashed potato,5.0,6.890000000000001,1.8900000000000006,mashed potato,3362,3369,3368.899999976158,True,i,57998.0,3874.0,1669838172975,3874,HRV,HRV_0270,2022-11-30 20:02:18
20,"[{'imgObject': {}, 'id': 'burrito', 'src': '/static/foodstim60/burrito.jpg', 'key': 'u', 'origWidth': 410, 'origHeight': 410, 'width': 410, 'height': 410, 'widthPercent': 0.45, 'rescaleHeight': False, 'trialN': 20, 'loaded': True, 'loadedTime': 2936.100000023842, 'positionName': 'LEFT', 'positionCoords': [204.4, 195], 'bid': 6.48}, {'imgObject': {}, 'id': 'rigatoni and sauce', 'src': '/static/foodstim60/rigatoni and sauce.jpg', 'key': 'i', 'origWidth': 410, 'origHeight': 411, 'width': 410, 'height': 411, 'widthPercent': 0.45, 'rescaleHeight': False, 'trialN': 20, 'loaded': True, 'loadedTime': 2977.100000023842, 'positionName': 'RIGHT', 'positionCoords': [665.6, 194.5], 'bid': 6.5}]",57998.39999997616,1669838172975,burrito,rigatoni and sauce,6.48,6.5,0.019999999999999574,burrito,3383.600000023842,3390,3389.300000011921,True,u,61892.80000001192,3894.400000035763,1669838176870,3895,HRV,HRV_0270,2022-11-30 20:02:18
21,"[{'imgObject': {}, 'id': 'veggieswithdip', 'src': '/static/foodstim60/veggieswithdip.jpg', 'key': 'u', 'origWidth': 409, 'origHeight': 409, 'width': 409, 'height': 409, 'widthPercent': 0.45, 'rescaleHeight': False, 'trialN': 21, 'loaded': True, 'loadedTime': 2980.800000011921, 'positionName': 'LEFT', 'positionCoords': [205.4, 195.5], 'bid': 4.98}, {'imgObject': {}, 'id': 'orange slices', 'src': '/static/foodstim60/orange slices.jpg', 'key': 'i', 'origWidth': 409, 'origHeight': 410, 'width': 409, 'height': 410, 'widthPercent': 0.45, 'rescaleHeight': False, 'trialN': 21, 'loaded': True, 'loadedTime': 3017.300000011921, 'positionName': 'RIGHT', 'positionCoords': [665.6, 195], 'bid': 10}]",61893.19999998808,1669838176870,veggieswithdip,orange slices,4.98,10.0,5.02,orange slices,1152.6000000238419,1157,1157.1000000238419,True,i,63551.60000002384,1658.4000000357628,1669838178528,1658,HRV,HRV_0270,2022-11-30 20:02:18
22,"[{'imgObject': {}, 'id': 'froot loops w milk', 'src': '/static/foodstim60/froot loops w milk.jpg', 'key': 'u', 'origWidth': 410, 'origHeight': 410, 'width': 410, 'height': 410, 'widthPercent': 0.45, 'rescaleHeight': False, 'trialN': 22, 'loaded': True, 'loadedTime': 3017.800000011921, 'positionName': 'LEFT', 'positionCoords': [204.4, 195], 'bid': 3.1}, {'imgObject': {}, 'id': 'seaweed', 'src': '/static/foodstim60/seaweed.jpg', 'key': 'i', 'origWidth': 410, 'origHeight': 410, 'width': 410, 'height': 410, 'widthPercent': 0.45, 'rescaleHeight': False, 'trialN': 22, 'loaded': True, 'loadedTime': 2877, 'positionName': 'RIGHT', 'positionCoords': [665.6, 195], 'bid': 3.03}]",63551.89999997616,1669838178529,froot loops w milk,seaweed,3.1,3.03,-0.07000000000000028,NaN,NaN,NaN,,False,NaN,67561.19999998808,4009.300000011921,1669838182538,4009,HRV,HRV_0270,2022-11-30 20:02:18
23,"[{'imgObject': {}, 'id': 'rigatoni and sauce', 'src': '/static/foodstim60/rigatoni and sauce.jpg', 'key': 'u', 'origWidth': 410, 'origHeight': 411, 'width': 410, 'height': 411, 'widthPercent': 0.45, 'rescaleHeight': False, 'trialN': 23, 'loaded': True, 'loadedTime': 2977.399999976158, 'positionName': 'LEFT', 'positionCoords': [204.4, 194.5], 'bid': 6.5}, {'imgObject': {}, 'id': 'cherries', 'src': '/static/foodstim60/cherries.jpg', 'key': 'i', 'origWidth': 410, 'origHeight': 411, 'width': 410, 'height': 411, 'widthPercent': 0.45, 'rescaleHeight': False, 'trialN': 23, 'loaded': True, 'loadedTime': 3051.800000011921, 'positionName': 'RIGHT', 'positionCoords': [665.6, 194.5], 'bid': 1.84}]",67561.60000002384,1669838182538,rigatoni and sauce,cherries,6.5,1.84,-4.66,rigatoni and sauce,2348.2999999523163,2353,2352.2999999523163,True,u,70414.30000001192,2852.699999988079,1669838185391,2853,HRV,HRV_0270,2022-11-30 20:02:18
24,"[{'imgObject': {}, 'id': 'rigatoni', 'src': '/static/foodstim60/rigatoni.jpg', 'key': 'u', 'origWidth': 411, 'origHeight': 411, 'width': 411, 'height': 411, 'widthPercent': 0.45, 'rescaleHeight': False, 'trialN': 24, 'loaded': True, 'loadedTime': 3065.800000011921, 'positionName': 'LEFT', 'positionCoords': [203.4, 194.5], 'bid': 2.07}, {'imgObject': {}, 'id': 'luckycharms', 'src': '/static/foodstim60/luckycharms.jpg', 'key': 'i', 'origWidth': 410, 'origHeight': 409, 'width': 410, 'height': 409, 'widthPercent': 0.45, 'rescaleHeight': False, 'trialN': 24, 'loaded': True, 'loadedTime': 2715.199999988079, 'positionName': 'RIGHT', 'positionCoords': [665.6, 195.5], 'bid': 2.14}]",70414.69999998808,1669838185391,rigatoni,luckycharms,2.07,2.14,0.07000000000000028,rigatoni,2759.100000023842,2764,2763.300000011921,True,u,73679.30000001192,3264.600000023842,1669838188656,3265,HRV,HRV_0270,2022-11-30 20:02:18
25,"[{'imgObject': {}, 'id': 'turkeysandwich', 'src': '/static/foodstim60/turkeysandwich.jpg', 'key': 'u', 'origWidth': 409, 'origHeight': 409, 'width': 409, 'height': 409, 'widthPercent': 0.45, 'rescaleHeight': False, 'trialN': 25, 'loaded': True, 'loadedTime': 2848.800000011921, 'positionName': 'LEFT', 'positionCoords': [205.4, 195.5], 'bid': 4.8500000000000005}, {'imgObject': {}, 'id': 'blackbeanswithrice', 'src': '/static/foodstim60/blackbeanswithrice.jpg', 'key': 'i', 'origWidth': 410, 'origHeight': 410, 'width': 410, 'height': 410, 'widthPercent': 0.45, 'rescaleHeight': False, 'trialN': 25, 'loaded': True, 'loadedTime': 3105.5, 'positionName': 'RIGHT', 'positionCoords': [665.6, 195], 'bid': 4.82}]",73679.60000002384,1669838188656,turkeysandwich,blackbeanswithrice,4.8500000000000005,4.82,-0.03000000000000025,blackbeanswithrice,1350.2999999523163,1355,1354.3999999761581,True,i,75538.19999998808,1858.5999999642372,1669838190515,1859,HRV,HRV_0270,2022-11-30 20:02:18
26,"[{'imgObject': {}, 'id': 'lox', 'src': '/static/foodstim60/lox.jpg', 'key': 'u', 'origWidth': 410, 'origHeight': 411, 'width': 410, 'height': 411, 'widthPercent': 0.45, 'rescaleHeight': False, 'trialN': 26, 'loaded': True, 'loadedTime': 2834.800000011921, 'positionName': 'LEFT', 'positionCoords': [204.4, 194.5], 'bid': 0}, {'imgObject': {}, 'id': 'eggsalad', 'src': '/static/foodstim60/eggsalad.jpg', 'key': 'i', 'origWidth': 410, 'origHeight': 409, 'width': 410, 'height': 409, 'widthPercent': 0.45, 'rescaleHeight': False, 'trialN': 26, 'loaded': True, 'loadedTime': 2860.300000011921, 'positionName': 'RIGHT', 'positionCoords': [665.6, 195.5], 'bid': 0}]",75538.5,1669838190515,lox,eggsalad,0.0,0.0,0.0,lox,2283.5,2288,2287.699999988079,True,u,78327.5,2789.0,1669838193304,2789,HRV,HRV_0270,2022-11-30 20:02:18
27,"[{'imgObject': {}, 'id': 'cantaloupe', 'src': '/static/foodstim60/cantaloupe.jpg', 'key': 'u', 'origWidth': 409, 'origHeight': 409, 'width': 409, 'height': 409, 'widthPercent': 0.45, 'rescaleHeight': False, 'trialN': 27, 'loaded': True, 'loadedTime': 2702.5, 'positionName': 'LEFT', 'positionCoords': [205.4, 195.5], 'bid': 6.54}, {'imgObject': {}, 'id': 'grilled chicken strips', 'src': '/static/foodstim60/grilled chicken strips.jpg', 'key': 'i', 'origWidth': 410, 'origHeight': 411, 'width': 410, 'height': 411, 'widthPercent': 0.45, 'rescaleHeight': False, 'trialN': 27, 'loaded': True, 'loadedTime': 2730.5, 'positionName': 'RIGHT', 'positionCoords': [665.6, 194.5], 'bid': 6.7}]",78327.89999997616,1669838193304,cantaloupe,grilled chicken strips,6.54,6.7,0.16000000000000014,grilled chicken strips,1118.1000000238419,1130,1130.1000000238419,True,i,79962.60000002384,1634.7000000476837,1669838194939,1635,HRV,HRV_0270,2022-11-30 20:02:18
28,"[{'imgObject': {}, 'id': 'burrito', 'src': '/static/foodstim60/burrito.jpg', 'key': 'u', 'origWidth': 410, 'origHeight': 410, 'width': 410, 'height': 410, 'widthPercent': 0.45, 'rescaleHeight': False, 'trialN': 28, 'loaded': True, 'loadedTime': 2938, 'positionName': 'LEFT', 'positionCoords': [204.4, 195], 'bid': 6.48}, {'imgObject': {}, 'id': 'Tribe humus pita', 'src': '/static/foodstim60/Tribe humus pita.jpg', 'key': 'i', 'origWidth': 411, 'origHeight': 411, 'width': 411, 'height': 411, 'widthPercent': 0.45, 'rescaleHeight': False, 'trialN': 28, 'loaded': True, 'loadedTime': 2877.300000011921, 'positionName': 'RIGHT', 'positionCoords': [665.6, 194.5], 'bid': 6.7}]",79963.0,1669838194939,burrito,Tribe humus pita,6.48,6.7,0.21999999999999975,burrito,2395,2401,2400.699999988079,True,u,82868.60000002384,2905.600000023842,1669838197845,2906,HRV,HRV_0270,2022-11-30 20:02:18
29,"[{'imgObject': {}, 'id': 'salad w chicken', 'src': '/static/foodstim60/salad w chicken.jpg', 'key': 'u', 'origWidth': 411, 'origHeight': 411, 'width': 411, 'height': 411, 'widthPercent': 0.45, 'rescaleHeight': False, 'trialN': 29, 'loaded': True, 'loadedTime': 3110.399999976158, 'positionName': 'LEFT', 'positionCoords': [203.4, 194.5], 'bid': 3.65}, {'imgObject': {}, 'id': 'granola w milk', 'src': '/static/foodstim60/granola w milk.jpg', 'key': 'i', 'origWidth': 410, 'origHeight': 410, 'width': 410, 'height': 410, 'widthPercent': 0.45, 'rescaleHeight': False, 'trialN': 29, 'loaded': True, 'loadedTime': 3132.399999976158, 'positionName': 'RIGHT', 'positionCoords': [665.6, 195], 'bid': 3.95}]",82869.0,1669838197845,salad w chicken,granola w milk,3.65,3.95,0.30000000000000027,salad w chicken,2593,2599,2598.899999976158,True,u,85968.80000001192,3099.800000011921,1669838200945,3100,HRV,HRV_0270,2022-11-30 20:02:18
30,"[{'imgObject': {}, 'id': 'rigatoni and sauce', 'src': '/static/foodstim60/rigatoni and sauce.jpg', 'key': 'u', 'origWidth': 410, 'origHeight': 411, 'width': 410, 'height': 411, 'widthPercent': 0.45, 'rescaleHeight': False, 'trialN': 30, 'loaded': True, 'loadedTime': 2978.100000023842, 'positionName': 'LEFT', 'positionCoords': [204.4, 194.5], 'bid': 6.5}, {'imgObject': {}, 'id': 'raisin bran w milk', 'src': '/static/foodstim60/raisin bran w milk.jpg', 'key': 'i', 'origWidth': 411, 'origHeight': 411, 'width': 411, 'height': 411, 'widthPercent': 0.45, 'rescaleHeight': False, 'trialN': 30, 'loaded': True, 'loadedTime': 2738.100000023842, 'positionName': 'RIGHT', 'positionCoords': [665.6, 194.5], 'bid': 4.98}]",85969.10000002384,1669838200945,rigatoni and sauce,raisin bran w milk,6.5,4.98,-1.5199999999999996,rigatoni and sauce,2756.899999976158,2762,2761.599999964237,True,u,89235.69999998808,3266.599999964237,1669838204212,3267,HRV,HRV_0270,2022-11-30 20:02:18
31,"[{'imgObject': {}, 'id': 'cherry tomato', 'src': '/static/foodstim60/cherry tomato.jpg', 'key': 'u', 'origWidth': 410, 'origHeight': 410, 'width': 410, 'height': 410, 'widthPercent': 0.45, 'rescaleHeight': False, 'trialN': 31, 'loaded': True, 'loadedTime': 2857.600000023842, 'positionName': 'LEFT', 'positionCoords': [204.4, 195], 'bid': 2.96}, {'imgObject': {}, 'id': 'corn cob', 'src': '/static/foodstim60/corn cob.jpg', 'key': 'i', 'origWidth': 411, 'origHeight': 411, 'width': 411, 'height': 411, 'widthPercent': 0.45, 'rescaleHeight': False, 'trialN': 31, 'loaded': True, 'loadedTime': 3135.699999988079, 'positionName': 'RIGHT', 'positionCoords': [665.6, 194.5], 'bid': 3.71}]",89236.0,1669838204212,cherry tomato,corn cob,2.96,3.71,0.75,cherry tomato,3218,3221,3220.800000011921,True,u,92962.10000002384,3726.100000023842,1669838207938,3726,HRV,HRV_0270,2022-11-30 20:02:18
32,"[{'imgObject': {}, 'id': 'blueberries', 'src': '/static/foodstim60/blueberries.jpg', 'key': 'u', 'origWidth': 411, 'origHeight': 411, 'width': 411, 'height': 411, 'widthPercent': 0.45, 'rescaleHeight': False, 'trialN': 32, 'loaded': True, 'loadedTime': 3138.699999988079, 'positionName': 'LEFT', 'positionCoords': [203.4, 194.5], 'bid': 9.9}, {'imgObject': {}, 'id': 'blackbeanswithrice', 'src': '/static/foodstim60/blackbeanswithrice.jpg', 'key': 'i', 'origWidth': 410, 'origHeight': 410, 'width': 410, 'height': 410, 'widthPercent': 0.45, 'rescaleHeight': False, 'trialN': 32, 'loaded': True, 'loadedTime': 3105.899999976158, 'positionName': 'RIGHT', 'positionCoords': [665.6, 195], 'bid': 4.82}]",92962.39999997616,1669838207939,blueberries,blackbeanswithrice,9.9,4.82,-5.08,blueberries,1131.6000000238419,1135,1135.800000011921,True,u,94603.39999997616,1641.0,1669838209579,1640,HRV,HRV_0270,2022-11-30 20:02:18
33,"[{'imgObject': {}, 'id': 'rigatoni and sauce', 'src': '/static/foodstim60/rigatoni and sauce.jpg', 'key': 'u', 'origWidth': 410, 'origHeight': 411, 'width': 410, 'height': 411, 'widthPercent': 0.45, 'rescaleHeight': False, 'trialN': 33, 'loaded': True, 'loadedTime': 2974.699999988079, 'positionName': 'LEFT', 'positionCoords': [204.4, 194.5], 'bid': 6.5}, {'imgObject': {}, 'id': 'apple slices', 'src': '/static/foodstim60/apple slices.jpg', 'key': 'i', 'origWidth': 409, 'origHeight': 410, 'width': 409, 'height': 410, 'widthPercent': 0.45, 'rescaleHeight': False, 'trialN': 33, 'loaded': True, 'loadedTime': 3142.800000011921, 'positionName': 'RIGHT', 'positionCoords': [665.6, 195], 'bid': 6.8500000000000005}]",94603.80000001192,1669838209580,rigatoni and sauce,apple slices,6.5,6.8500000000000005,0.35000000000000053,rigatoni and sauce,2530.300000011921,2534,2534.5,True,u,97639.19999998808,3035.399999976158,1669838212615,3035,HRV,HRV_0270,2022-11-30 20:02:18
34,"[{'imgObject': {}, 'id': 'corn cob', 'src': '/static/foodstim60/corn cob.jpg', 'key': 'u', 'origWidth': 411, 'origHeight': 411, 'width': 411, 'height': 411, 'widthPercent': 0.45, 'rescaleHeight': False, 'trialN': 34, 'loaded': True, 'loadedTime': 3136.199999988079, 'positionName': 'LEFT', 'positionCoords': [203.4, 194.5], 'bid': 3.71}, {'imgObject': {}, 'id': 'raspberries', 'src': '/static/foodstim60/raspberries.jpg', 'key': 'i', 'origWidth': 411, 'origHeight': 411, 'width': 411, 'height': 411, 'widthPercent': 0.45, 'rescaleHeight': False, 'trialN': 34, 'loaded': True, 'loadedTime': 3194.5, 'positionName': 'RIGHT', 'positionCoords': [665.6, 194.5], 'bid': 9.82}]",97639.39999997616,1669838212615,corn cob,raspberries,3.71,9.82,6.11,corn cob,3150.600000023842,3155,3154.800000011921,True,u,101299.30000001192,3659.900000035763,1669838216275,3660,HRV,HRV_0270,2022-11-30 20:02:18
35,"[{'imgObject': {}, 'id': 'chickenfingers', 'src': '/static/foodstim60/chickenfingers.jpg', 'key': 'u', 'origWidth': 410, 'origHeight': 410, 'width': 410, 'height': 410, 'widthPercent': 0.45, 'rescaleHeight': False, 'trialN': 35, 'loaded': True, 'loadedTime': 3196.300000011921, 'positionName': 'LEFT', 'positionCoords': [204.4, 195], 'bid': 5.04}, {'imgObject': {}, 'id': 'turkeysandwich', 'src': '/static/foodstim60/turkeysandwich.jpg', 'key': 'i', 'origWidth': 409, 'origHeight': 409, 'width': 409, 'height': 409, 'widthPercent': 0.45, 'rescaleHeight': False, 'trialN': 35, 'loaded': True, 'loadedTime': 2849.699999988079, 'positionName': 'RIGHT', 'positionCoords': [665.6, 195.5], 'bid': 4.8500000000000005}]",101299.60000002384,1669838216276,chickenfingers,turkeysandwich,5.04,4.8500000000000005,-0.1899999999999995,turkeysandwich,3226.2999999523163,3230,3231.099999964237,True,i,105035.89999997616,3736.2999999523163,1669838220012,3736,HRV,HRV_0270,2022-11-30 20:02:18
36,"[{'imgObject': {}, 'id': 'bagel plain', 'src': '/static/foodstim60/bagel plain.jpg', 'key': 'u', 'origWidth': 410, 'origHeight': 410, 'width': 410, 'height': 410, 'widthPercent': 0.45, 'rescaleHeight': False, 'trialN': 36, 'loaded': True, 'loadedTime': 3202.699999988079, 'positionName': 'LEFT', 'positionCoords': [204.4, 195], 'bid': 2.2}, {'imgObject': {}, 'id': 'roastedpotatoes', 'src': '/static/foodstim60/roastedpotatoes.jpg', 'key': 'i', 'origWidth': 409, 'origHeight': 410, 'width': 409, 'height': 410, 'widthPercent': 0.45, 'rescaleHeight': False, 'trialN': 36, 'loaded': True, 'loadedTime': 3246.399999976158, 'positionName': 'RIGHT', 'positionCoords': [665.6, 195], 'bid': 6.67}]",105036.30000001192,1669838220012,bagel plain,roastedpotatoes,2.2,6.67,4.47,roastedpotatoes,1481.699999988079,1488,1487.3999999761581,True,i,107024.80000001192,1988.5,1669838222001,1989,HRV,HRV_0270,2022-11-30 20:02:18
37,"[{'imgObject': {}, 'id': 'rigatoni', 'src': '/static/foodstim60/rigatoni.jpg', 'key': 'u', 'origWidth': 411, 'origHeight': 411, 'width': 411, 'height': 411, 'widthPercent': 0.45, 'rescaleHeight': False, 'trialN': 37, 'loaded': True, 'loadedTime': 3066.199999988079, 'positionName': 'LEFT', 'positionCoords': [203.4, 194.5], 'bid': 2.07}, {'imgObject': {}, 'id': 'lox', 'src': '/static/foodstim60/lox.jpg', 'key': 'i', 'origWidth': 410, 'origHeight': 411, 'width': 410, 'height': 411, 'widthPercent': 0.45, 'rescaleHeight': False, 'trialN': 37, 'loaded': True, 'loadedTime': 2839.300000011921, 'positionName': 'RIGHT', 'positionCoords': [665.6, 194.5], 'bid': 0}]",107025.10000002384,1669838222001,rigatoni,lox,2.07,0.0,-2.07,rigatoni,1604.8999999761581,1609,1609.0999999642372,True,u,109136.69999998808,2111.599999964237,1669838224112,2111,HRV,HRV_0270,2022-11-30 20:02:18
38,"[{'imgObject': {}, 'id': 'fried eggs', 'src': '/static/foodstim60/fried eggs.jpg', 'key': 'u', 'origWidth': 410, 'origHeight': 410, 'width': 410, 'height': 410, 'widthPercent': 0.45, 'rescaleHeight': False, 'trialN': 38, 'loaded': True, 'loadedTime': 2861.800000011921, 'positionName': 'LEFT', 'positionCoords': [204.4, 195], 'bid': 0.2}, {'imgObject': {}, 'id': 'seaweed', 'src': '/static/foodstim60/seaweed.jpg', 'key': 'i', 'origWidth': 410, 'origHeight': 410, 'width': 410, 'height': 410, 'widthPercent': 0.45, 'rescaleHeight': False, 'trialN': 38, 'loaded': True, 'loadedTime': 2877, 'positionName': 'RIGHT', 'positionCoords': [665.6, 195], 'bid': 3.03}]",109137.10000002384,1669838224113,fried eggs,seaweed,0.2,3.03,2.8299999999999996,fried eggs,3380.7999999523163,3383,3383.5,True,u,113025.80000001192,3888.699999988079,1669838228001,3888,HRV,HRV_0270,2022-11-30 20:02:18
39,"[{'imgObject': {}, 'id': 'cheerios', 'src': '/static/foodstim60/cheerios.jpg', 'key': 'u', 'origWidth': 409, 'origHeight': 410, 'width': 409, 'height': 410, 'widthPercent': 0.45, 'rescaleHeight': False, 'trialN': 39, 'loaded': True, 'loadedTime': 2760.199999988079, 'positionName': 'LEFT', 'positionCoords': [205.4, 195], 'bid': 5}, {'imgObject': {}, 'id': 'popsicles', 'src': '/static/foodstim60/popsicles.jpg', 'key': 'i', 'origWidth': 410, 'origHeight': 410, 'width': 410, 'height': 410, 'widthPercent': 0.45, 'rescaleHeight': False, 'trialN': 39, 'loaded': True, 'loadedTime': 2811.5, 'positionName': 'RIGHT', 'positionCoords': [665.6, 195], 'bid': 4.9}]",113026.10000002384,1669838228002,cheerios,popsicles,5.0,4.9,-0.09999999999999964,cheerios,2851.899999976158,2856,2856.699999988079,True,u,116385.5,3359.399999976158,1669838231361,3359,HRV,HRV_0270,2022-11-30 20:02:18
40,"[{'imgObject': {}, 'id': 'fruitsalad', 'src': '/static/foodstim60/fruitsalad.jpg', 'key': 'u', 'origWidth': 410, 'origHeight': 410, 'width': 410, 'height': 410, 'widthPercent': 0.45, 'rescaleHeight': False, 'trialN': 40, 'loaded': True, 'loadedTime': 3251.800000011921, 'positionName': 'LEFT', 'positionCoords': [204.4, 195], 'bid': 10}, {'imgObject': {}, 'id': 'cantaloupe', 'src': '/static/foodstim60/cantaloupe.jpg', 'key': 'i', 'origWidth': 409, 'origHeight': 409, 'width': 409, 'height': 409, 'widthPercent': 0.45, 'rescaleHeight': False, 'trialN': 40, 'loaded': True, 'loadedTime': 2703.899999976158, 'positionName': 'RIGHT', 'positionCoords': [665.6, 195.5], 'bid': 6.54}]",116385.80000001192,1669838231361,fruitsalad,cantaloupe,10.0,6.54,-3.46,fruitsalad,1396.199999988079,1401,1400.300000011921,True,u,118288.30000001192,1902.5,1669838233264,1903,HRV,HRV_0270,2022-11-30 20:02:18
41,"[{'imgObject': {}, 'id': 'grilled chicken strips', 'src': '/static/foodstim60/grilled chicken strips.jpg', 'key': 'u', 'origWidth': 410, 'origHeight': 411, 'width': 410, 'height': 411, 'widthPercent': 0.45, 'rescaleHeight': False, 'trialN': 41, 'loaded': True, 'loadedTime': 2734.600000023842, 'positionName': 'LEFT', 'positionCoords': [204.4, 194.5], 'bid': 6.7}, {'imgObject': {}, 'id': 'chicken nuggets2', 'src': '/static/foodstim60/chicken nuggets2.jpg', 'key': 'i', 'origWidth': 410, 'origHeight': 409, 'width': 410, 'height': 409, 'widthPercent': 0.45, 'rescaleHeight': False, 'trialN': 41, 'loaded': True, 'loadedTime': 2882.199999988079, 'positionName': 'RIGHT', 'positionCoords': [665.6, 195.5], 'bid': 6.28}]",118288.60000002384,1669838233264,grilled chicken strips,chicken nuggets2,6.7,6.28,-0.41999999999999993,chicken nuggets2,1445.3999999761581,1450,1449.5,True,i,120241.89999997616,1953.2999999523163,1669838235217,1953,HRV,HRV_0270,2022-11-30 20:02:18
42,"[{'imgObject': {}, 'id': 'yogurt no spoon', 'src': '/static/foodstim60/yogurt no spoon.jpg', 'key': 'u', 'origWidth': 411, 'origHeight': 410, 'width': 411, 'height': 410, 'widthPercent': 0.45, 'rescaleHeight': False, 'trialN': 42, 'loaded': True, 'loadedTime': 3252.600000023842, 'positionName': 'LEFT', 'positionCoords': [203.4, 195], 'bid': 1.84}, {'imgObject': {}, 'id': 'cherries', 'src': '/static/foodstim60/cherries.jpg', 'key': 'i', 'origWidth': 410, 'origHeight': 411, 'width': 410, 'height': 411, 'widthPercent': 0.45, 'rescaleHeight': False, 'trialN': 42, 'loaded': True, 'loadedTime': 3051.199999988079, 'positionName': 'RIGHT', 'positionCoords': [665.6, 194.5], 'bid': 1.84}]",120242.39999997616,1669838235218,yogurt no spoon,cherries,1.84,1.84,0.0,cherries,3267.400000035763,3272,3272.7000000476837,True,i,124016.60000002384,3774.2000000476837,1669838238992,3774,HRV,HRV_0270,2022-11-30 20:02:18
43,"[{'imgObject': {}, 'id': 'burger', 'src': '/static/foodstim60/burger.jpg', 'key': 'u', 'origWidth': 409, 'origHeight': 409, 'width': 409, 'height': 409, 'widthPercent': 0.45, 'rescaleHeight': False, 'trialN': 43, 'loaded': True, 'loadedTime': 2757.5, 'positionName': 'LEFT', 'positionCoords': [205.4, 195.5], 'bid': 5.01}, {'imgObject': {}, 'id': 'hashbrowns', 'src': '/static/foodstim60/hashbrowns.jpg', 'key': 'i', 'origWidth': 411, 'origHeight': 410, 'width': 411, 'height': 410, 'widthPercent': 0.45, 'rescaleHeight': False, 'trialN': 43, 'loaded': True, 'loadedTime': 3300.199999988079, 'positionName': 'RIGHT', 'positionCoords': [665.6, 195], 'bid': 0.04}]",124017.0,1669838238992,burger,hashbrowns,5.01,0.04,-4.97,burger,1084.800000011921,1089,1089.1000000238419,True,u,125610.10000002384,1593.1000000238419,1669838240585,1593,HRV,HRV_0270,2022-11-30 20:02:18
44,"[{'imgObject': {}, 'id': 'hotdog w must', 'src': '/static/foodstim60/hotdog w must.jpg', 'key': 'u', 'origWidth': 409, 'origHeight': 409, 'width': 409, 'height': 409, 'widthPercent': 0.45, 'rescaleHeight': False, 'trialN': 44, 'loaded': True, 'loadedTime': 3303, 'positionName': 'LEFT', 'positionCoords': [205.4, 195.5], 'bid': 5.03}, {'imgObject': {}, 'id': 'veggieswithdip', 'src': '/static/foodstim60/veggieswithdip.jpg', 'key': 'i', 'origWidth': 409, 'origHeight': 409, 'width': 409, 'height': 409, 'widthPercent': 0.45, 'rescaleHeight': False, 'trialN': 44, 'loaded': True, 'loadedTime': 3013.699999988079, 'positionName': 'RIGHT', 'positionCoords': [665.6, 195.5], 'bid': 4.98}]",125610.39999997616,1669838240586,hotdog w must,veggieswithdip,5.03,4.98,-0.04999999999999982,veggieswithdip,2155.5,2160,2160.0,True,i,128272.69999998808,2662.300000011921,1669838243248,2662,HRV,HRV_0270,2022-11-30 20:02:18
45,"[{'imgObject': {}, 'id': 'bagel and cc', 'src': '/static/foodstim60/bagel and cc.jpg', 'key': 'u', 'origWidth': 410, 'origHeight': 410, 'width': 410, 'height': 410, 'widthPercent': 0.45, 'rescaleHeight': False, 'trialN': 45, 'loaded': True, 'loadedTime': 2747, 'positionName': 'LEFT', 'positionCoords': [204.4, 195], 'bid': 2.43}, {'imgObject': {}, 'id': 'bagel plain', 'src': '/static/foodstim60/bagel plain.jpg', 'key': 'i', 'origWidth': 410, 'origHeight': 410, 'width': 410, 'height': 410, 'widthPercent': 0.45, 'rescaleHeight': False, 'trialN': 45, 'loaded': True, 'loadedTime': 3202.100000023842, 'positionName': 'RIGHT', 'positionCoords': [665.6, 195], 'bid': 2.2}]",128273.10000002384,1669838243248,bagel and cc,bagel plain,2.43,2.2,-0.22999999999999998,bagel and cc,1612.699999988079,1616,1615.5999999642372,True,u,130394.19999998808,2121.099999964237,1669838245369,2121,HRV,HRV_0270,2022-11-30 20:02:18
46,"[{'imgObject': {}, 'id': 'chickenfingers', 'src': '/static/foodstim60/chickenfingers.jpg', 'key': 'u', 'origWidth': 410, 'origHeight': 410, 'width': 410, 'height': 410, 'widthPercent': 0.45, 'rescaleHeight': False, 'trialN': 46, 'loaded': True, 'loadedTime': 3198.5, 'positionName': 'LEFT', 'positionCoords': [204.4, 195], 'bid': 5.04}, {'imgObject': {}, 'id': 'eggs', 'src': '/static/foodstim60/eggs.jpg', 'key': 'i', 'origWidth': 409, 'origHeight': 409, 'width': 409, 'height': 409, 'widthPercent': 0.45, 'rescaleHeight': False, 'trialN': 46, 'loaded': True, 'loadedTime': 2772.300000011921, 'positionName': 'RIGHT', 'positionCoords': [665.6, 195.5], 'bid': 0.1}]",130394.5,1669838245370,chickenfingers,eggs,5.04,0.1,-4.94,chickenfingers,1147.300000011921,1149,1149.699999988079,True,u,132047.10000002384,1652.6000000238419,1669838247022,1652,HRV,HRV_0270,2022-11-30 20:02:18
47,"[{'imgObject': {}, 'id': 'sweetpotato', 'src': '/static/foodstim60/sweetpotato.jpg', 'key': 'u', 'origWidth': 410, 'origHeight': 410, 'width': 410, 'height': 410, 'widthPercent': 0.45, 'rescaleHeight': False, 'trialN': 47, 'loaded': True, 'loadedTime': 3306.5, 'positionName': 'LEFT', 'positionCoords': [204.4, 195], 'bid': 4.96}, {'imgObject': {}, 'id': 'turkey sandwich', 'src': '/static/foodstim60/turkey sandwich.jpg', 'key': 'i', 'origWidth': 409, 'origHeight': 409, 'width': 409, 'height': 409, 'widthPercent': 0.45, 'rescaleHeight': False, 'trialN': 47, 'loaded': True, 'loadedTime': 3309.5, 'positionName': 'RIGHT', 'positionCoords': [665.6, 195.5], 'bid': 10}]",132047.5,1669838247023,sweetpotato,turkey sandwich,4.96,10.0,5.04,turkey sandwich,1310.5,1318,1318.300000011921,True,i,133869.69999998808,1822.199999988079,1669838248845,1822,HRV,HRV_0270,2022-11-30 20:02:18
48,"[{'imgObject': {}, 'id': 'bagel plain', 'src': '/static/foodstim60/bagel plain.jpg', 'key': 'u', 'origWidth': 410, 'origHeight': 410, 'width': 410, 'height': 410, 'widthPercent': 0.45, 'rescaleHeight': False, 'trialN': 48, 'loaded': True, 'loadedTime': 3199.899999976158, 'positionName': 'LEFT', 'positionCoords': [204.4, 195], 'bid': 2.2}, {'imgObject': {}, 'id': 'shreddedwheatwithmilk', 'src': '/static/foodstim60/shreddedwheatwithmilk.jpg', 'key': 'i', 'origWidth': 410, 'origHeight': 410, 'width': 410, 'height': 410, 'widthPercent': 0.45, 'rescaleHeight': False, 'trialN': 48, 'loaded': True, 'loadedTime': 2718.699999988079, 'positionName': 'RIGHT', 'positionCoords': [665.6, 195], 'bid': 2.25}]",133869.80000001192,1669838248845,bagel plain,shreddedwheatwithmilk,2.2,2.25,0.04999999999999982,shreddedwheatwithmilk,1872.0999999642372,1876,1876.0999999642372,True,i,136246.5,2376.699999988079,1669838251222,2377,HRV,HRV_0270,2022-11-30 20:02:18
49,"[{'imgObject': {}, 'id': 'blackbeanswithrice', 'src': '/static/foodstim60/blackbeanswithrice.jpg', 'key': 'u', 'origWidth': 410, 'origHeight': 410, 'width': 410, 'height': 410, 'widthPercent': 0.45, 'rescaleHeight': False, 'trialN': 49, 'loaded': True, 'loadedTime': 3106.899999976158, 'positionName': 'LEFT', 'positionCoords': [204.4, 195], 'bid': 4.82}, {'imgObject': {}, 'id': 'cherries', 'src': '/static/foodstim60/cherries.jpg', 'key': 'i', 'origWidth': 410, 'origHeight': 411, 'width': 410, 'height': 411, 'widthPercent': 0.45, 'rescaleHeight': False, 'trialN': 49, 'loaded': True, 'loadedTime': 3052.100000023842, 'positionName': 'RIGHT', 'positionCoords': [665.6, 194.5], 'bid': 1.84}]",136246.69999998808,1669838251222,blackbeanswithrice,cherries,4.82,1.84,-2.9800000000000004,blackbeanswithrice,1039.4000000357628,1046,1046.1000000238419,True,u,137794.39999997616,1547.699999988079,1669838252769,1547,HRV,HRV_0270,2022-11-30 20:02:18
50,"[{'imgObject': {}, 'id': 'salmon', 'src': '/static/foodstim60/salmon.jpg', 'key': 'u', 'origWidth': 410, 'origHeight': 409, 'width': 410, 'height': 409, 'widthPercent': 0.45, 'rescaleHeight': False, 'trialN': 50, 'loaded': True, 'loadedTime': 2779.899999976158, 'positionName': 'LEFT', 'positionCoords': [204.4, 195.5], 'bid': 5.0600000000000005}, {'imgObject': {}, 'id': 'sushi w_condiments', 'src': '/static/foodstim60/sushi w_condiments.jpg', 'key': 'i', 'origWidth': 410, 'origHeight': 410, 'width': 410, 'height': 410, 'widthPercent': 0.45, 'rescaleHeight': False, 'trialN': 50, 'loaded': True, 'loadedTime': 3313.199999988079, 'positionName': 'RIGHT', 'positionCoords': [665.6, 195], 'bid': 8.51}]",137794.60000002384,1669838252770,salmon,sushi w_condiments,5.0600000000000005,8.51,3.4499999999999993,sushi w_condiments,1091.199999988079,1095,1095.8999999761581,True,i,139395.60000002384,1601.0,1669838254371,1601,HRV,HRV_0270,2022-11-30 20:02:18
51,"[{'imgObject': {}, 'id': 'turkeysandwich', 'src': '/static/foodstim60/turkeysandwich.jpg', 'key': 'u', 'origWidth': 409, 'origHeight': 409, 'width': 409, 'height': 409, 'widthPercent': 0.45, 'rescaleHeight': False, 'trialN': 51, 'loaded': True, 'loadedTime': 2847.699999988079, 'positionName': 'LEFT', 'positionCoords': [205.4, 195.5], 'bid': 4.8500000000000005}, {'imgObject': {}, 'id': 'banana', 'src': '/static/foodstim60/banana.jpg', 'key': 'i', 'origWidth': 410, 'origHeight': 410, 'width': 410, 'height': 410, 'widthPercent': 0.45, 'rescaleHeight': False, 'trialN': 51, 'loaded': True, 'loadedTime': 3316, 'positionName': 'RIGHT', 'positionCoords': [665.6, 195], 'bid': 9.92}]",139395.89999997616,1669838254371,turkeysandwich,banana,4.8500000000000005,9.92,5.069999999999999,turkeysandwich,1169.9000000357628,1172,1172.2000000476837,True,u,141068.60000002384,1672.7000000476837,1669838256043,1672,HRV,HRV_0270,2022-11-30 20:02:18
52,"[{'imgObject': {}, 'id': 'burrito', 'src': '/static/foodstim60/burrito.jpg', 'key': 'u', 'origWidth': 410, 'origHeight': 410, 'width': 410, 'height': 410, 'widthPercent': 0.45, 'rescaleHeight': False, 'trialN': 52, 'loaded': True, 'loadedTime': 2938.199999988079, 'positionName': 'LEFT', 'positionCoords': [204.4, 195], 'bid': 6.48}, {'imgObject': {}, 'id': 'veggieswithdip', 'src': '/static/foodstim60/veggieswithdip.jpg', 'key': 'i', 'origWidth': 409, 'origHeight': 409, 'width': 409, 'height': 409, 'widthPercent': 0.45, 'rescaleHeight': False, 'trialN': 52, 'loaded': True, 'loadedTime': 2980.600000023842, 'positionName': 'RIGHT', 'positionCoords': [665.6, 195.5], 'bid': 4.98}]",141068.80000001192,1669838256044,burrito,veggieswithdip,6.48,4.98,-1.5,burrito,1169.199999988079,1175,1175.3999999761581,True,u,142749.30000001192,1680.5,1669838257724,1680,HRV,HRV_0270,2022-11-30 20:02:18
53,"[{'imgObject': {}, 'id': 'Tribe humus pita', 'src': '/static/foodstim60/Tribe humus pita.jpg', 'key': 'u', 'origWidth': 411, 'origHeight': 411, 'width': 411, 'height': 411, 'widthPercent': 0.45, 'rescaleHeight': False, 'trialN': 53, 'loaded': True, 'loadedTime': 2879.899999976158, 'positionName': 'LEFT', 'positionCoords': [203.4, 194.5], 'bid': 6.7}, {'imgObject': {}, 'id': 'apple slices', 'src': '/static/foodstim60/apple slices.jpg', 'key': 'i', 'origWidth': 409, 'origHeight': 410, 'width': 409, 'height': 410, 'widthPercent': 0.45, 'rescaleHeight': False, 'trialN': 53, 'loaded': True, 'loadedTime': 3142.800000011921, 'positionName': 'RIGHT', 'positionCoords': [665.6, 195], 'bid': 6.8500000000000005}]",142749.69999998808,1669838257724,Tribe humus pita,apple slices,6.7,6.8500000000000005,0.15000000000000036,Tribe humus pita,1576.199999988079,1579,1578.4000000357628,True,u,144833.60000002384,2083.900000035763,1669838259808,2084,HRV,HRV_0270,2022-11-30 20:02:18
54,"[{'imgObject': {}, 'id': 'edamame', 'src': '/static/foodstim60/edamame.jpg', 'key': 'u', 'origWidth': 409, 'origHeight': 410, 'width': 409, 'height': 410, 'widthPercent': 0.45, 'rescaleHeight': False, 'trialN': 54, 'loaded': True, 'loadedTime': 2766.800000011921, 'positionName': 'LEFT', 'positionCoords': [205.4, 195], 'bid': 3.37}, {'imgObject': {}, 'id': 'steak', 'src': '/static/foodstim60/steak.jpg', 'key': 'i', 'origWidth': 410, 'origHeight': 410, 'width': 410, 'height': 410, 'widthPercent': 0.45, 'rescaleHeight': False, 'trialN': 54, 'loaded': True, 'loadedTime': 2905.800000011921, 'positionName': 'RIGHT', 'positionCoords': [665.6, 195], 'bid': 4.98}]",144834.0,1669838259809,edamame,steak,3.37,4.98,1.6100000000000003,steak,875.8000000119209,880,879.8999999761581,True,i,146218.5,1384.5,1669838261193,1384,HRV,HRV_0270,2022-11-30 20:02:18
55,"[{'imgObject': {}, 'id': 'raisin bran w milk', 'src': '/static/foodstim60/raisin bran w milk.jpg', 'key': 'u', 'origWidth': 411, 'origHeight': 411, 'width': 411, 'height': 411, 'widthPercent': 0.45, 'rescaleHeight': False, 'trialN': 55, 'loaded': True, 'loadedTime': 2743.5, 'positionName': 'LEFT', 'positionCoords': [203.4, 194.5], 'bid': 4.98}, {'imgObject': {}, 'id': 'veggieswithdip', 'src': '/static/foodstim60/veggieswithdip.jpg', 'key': 'i', 'origWidth': 409, 'origHeight': 409, 'width': 409, 'height': 409, 'widthPercent': 0.45, 'rescaleHeight': False, 'trialN': 55, 'loaded': True, 'loadedTime': 3013.100000023842, 'positionName': 'RIGHT', 'positionCoords': [665.6, 195.5], 'bid': 4.98}]",146218.80000001192,1669838261194,raisin bran w milk,veggieswithdip,4.98,4.98,0.0,raisin bran w milk,2515.199999988079,2519,2519.599999964237,True,u,149241.19999998808,3022.399999976158,1669838264216,3022,HRV,HRV_0270,2022-11-30 20:02:18
56,"[{'imgObject': {}, 'id': 'Grapes', 'src': '/static/foodstim60/Grapes.jpg', 'key': 'u', 'origWidth': 411, 'origHeight': 411, 'width': 411, 'height': 411, 'widthPercent': 0.45, 'rescaleHeight': False, 'trialN': 56, 'loaded': True, 'loadedTime': 2871.300000011921, 'positionName': 'LEFT', 'positionCoords': [203.4, 194.5], 'bid': 10}, {'imgObject': {}, 'id': 'turkey sandwich', 'src': '/static/foodstim60/turkey sandwich.jpg', 'key': 'i', 'origWidth': 409, 'origHeight': 409, 'width': 409, 'height': 409, 'widthPercent': 0.45, 'rescaleHeight': False, 'trialN': 56, 'loaded': True, 'loadedTime': 3309.300000011921, 'positionName': 'RIGHT', 'positionCoords': [665.6, 195.5], 'bid': 10}]",149241.5,1669838264216,Grapes,turkey sandwich,10.0,10.0,0.0,turkey sandwich,1740.3999999761581,1745,1744.800000011921,True,i,151489.69999998808,2248.199999988079,1669838266464,2248,HRV,HRV_0270,2022-11-30 20:02:18
57,"[{'imgObject': {}, 'id': 'mashed potato', 'src': '/static/foodstim60/mashed potato.jpg', 'key': 'u', 'origWidth': 409, 'origHeight': 409, 'width': 409, 'height': 409, 'widthPercent': 0.45, 'rescaleHeight': False, 'trialN': 57, 'loaded': True, 'loadedTime': 2936, 'positionName': 'LEFT', 'positionCoords': [205.4, 195.5], 'bid': 6.890000000000001}, {'imgObject': {}, 'id': 'cantaloupe', 'src': '/static/foodstim60/cantaloupe.jpg', 'key': 'i', 'origWidth': 409, 'origHeight': 409, 'width': 409, 'height': 409, 'widthPercent': 0.45, 'rescaleHeight': False, 'trialN': 57, 'loaded': True, 'loadedTime': 2702.800000011921, 'positionName': 'RIGHT', 'positionCoords': [665.6, 195.5], 'bid': 6.54}]",151489.89999997616,1669838266465,mashed potato,cantaloupe,6.890000000000001,6.54,-0.35000000000000053,mashed potato,1595.9000000357628,1598,1598.800000011921,True,u,153589.19999998808,2099.300000011921,1669838268564,2099,HRV,HRV_0270,2022-11-30 20:02:18
58,"[{'imgObject': {}, 'id': 'luckycharms', 'src': '/static/foodstim60/luckycharms.jpg', 'key': 'u', 'origWidth': 410, 'origHeight': 409, 'width': 410, 'height': 409, 'widthPercent': 0.45, 'rescaleHeight': False, 'trialN': 58, 'loaded': True, 'loadedTime': 2715.899999976158, 'positionName': 'LEFT', 'positionCoords': [204.4, 195.5], 'bid': 2.14}, {'imgObject': {}, 'id': 'eggs', 'src': '/static/foodstim60/eggs.jpg', 'key': 'i', 'origWidth': 409, 'origHeight': 409, 'width': 409, 'height': 409, 'widthPercent': 0.45, 'rescaleHeight': False, 'trialN': 58, 'loaded': True, 'loadedTime': 2775.699999988079, 'positionName': 'RIGHT', 'positionCoords': [665.6, 195.5], 'bid': 0.1}]",153589.5,1669838268564,luckycharms,eggs,2.14,0.1,-2.04,luckycharms,1744.5,1749,1748.699999988079,True,u,155843.39999997616,2253.899999976158,1669838270818,2254,HRV,HRV_0270,2022-11-30 20:02:18
59,"[{'imgObject': {}, 'id': 'fruitsalad', 'src': '/static/foodstim60/fruitsalad.jpg', 'key': 'u', 'origWidth': 410, 'origHeight': 410, 'width': 410, 'height': 410, 'widthPercent': 0.45, 'rescaleHeight': False, 'trialN': 59, 'loaded': True, 'loadedTime': 3247.600000023842, 'positionName': 'LEFT', 'positionCoords': [204.4, 195], 'bid': 10}, {'imgObject': {}, 'id': 'pear', 'src': '/static/foodstim60/pear.jpg', 'key': 'i', 'origWidth': 411, 'origHeight': 410, 'width': 411, 'height': 410, 'widthPercent': 0.45, 'rescaleHeight': False, 'trialN': 59, 'loaded': True, 'loadedTime': 3340.399999976158, 'positionName': 'RIGHT', 'positionCoords': [665.6, 195], 'bid': 8.120000000000001}]",155843.80000001192,1669838270818,fruitsalad,pear,10.0,8.120000000000001,-1.879999999999999,fruitsalad,3106.199999988079,3110,3109.5,True,u,159453.80000001192,3610.0,1669838274428,3610,HRV,HRV_0270,2022-11-30 20:02:18
60,"[{'imgObject': {}, 'id': 'burrito', 'src': '/static/foodstim60/burrito.jpg', 'key': 'u', 'origWidth': 410, 'origHeight': 410, 'width': 410, 'height': 410, 'widthPercent': 0.45, 'rescaleHeight': False, 'trialN': 60, 'loaded': True, 'loadedTime': 2973.199999988079, 'positionName': 'LEFT', 'positionCoords': [204.4, 195], 'bid': 6.48}, {'imgObject': {}, 'id': 'strawberries', 'src': '/static/foodstim60/strawberries.jpg', 'key': 'i', 'origWidth': 410, 'origHeight': 410, 'width': 410, 'height': 410, 'widthPercent': 0.45, 'rescaleHeight': False, 'trialN': 60, 'loaded': True, 'loadedTime': 3346.600000023842, 'positionName': 'RIGHT', 'positionCoords': [665.6, 195], 'bid': 9.84}]",159454.10000002384,1669838274429,burrito,strawberries,6.48,9.84,3.3599999999999994,strawberries,1383.7999999523163,1387,1387.699999988079,True,i,161345.89999997616,1891.7999999523163,1669838276320,1891,HRV,HRV_0270,2022-11-30 20:02:18
61,"[{'imgObject': {}, 'id': 'salad w chicken', 'src': '/static/foodstim60/salad w chicken.jpg', 'key': 'u', 'origWidth': 411, 'origHeight': 411, 'width': 411, 'height': 411, 'widthPercent': 0.45, 'rescaleHeight': False, 'trialN': 61, 'loaded': True, 'loadedTime': 3107.100000023842, 'positionName': 'LEFT', 'positionCoords': [203.4, 194.5], 'bid': 3.65}, {'imgObject': {}, 'id': 'mango', 'src': '/static/foodstim60/mango.jpg', 'key': 'i', 'origWidth': 411, 'origHeight': 411, 'width': 411, 'height': 411, 'widthPercent': 0.45, 'rescaleHeight': False, 'trialN': 61, 'loaded': True, 'loadedTime': 2839.699999988079, 'positionName': 'RIGHT', 'positionCoords': [665.6, 194.5], 'bid': 2.76}]",161346.19999998808,1669838276321,salad w chicken,mango,3.65,2.76,-0.8900000000000001,salad w chicken,1531.800000011921,1536,1536.4000000357628,True,u,163387.80000001192,2041.6000000238419,1669838278362,2041,HRV,HRV_0270,2022-11-30 20:02:18
62,"[{'imgObject': {}, 'id': 'sushi w_condiments', 'src': '/static/foodstim60/sushi w_condiments.jpg', 'key': 'u', 'origWidth': 410, 'origHeight': 410, 'width': 410, 'height': 410, 'widthPercent': 0.45, 'rescaleHeight': False, 'trialN': 62, 'loaded': True, 'loadedTime': 3312.199999988079, 'positionName': 'LEFT', 'positionCoords': [204.4, 195], 'bid': 8.51}, {'imgObject': {}, 'id': 'pear', 'src': '/static/foodstim60/pear.jpg', 'key': 'i', 'origWidth': 411, 'origHeight': 410, 'width': 411, 'height': 410, 'widthPercent': 0.45, 'rescaleHeight': False, 'trialN': 62, 'loaded': True, 'loadedTime': 3343.100000023842, 'positionName': 'RIGHT', 'positionCoords': [665.6, 195], 'bid': 8.120000000000001}]",163388.19999998808,1669838278362,sushi w_condiments,pear,8.51,8.120000000000001,-0.3899999999999988,sushi w_condiments,1465.6000000238419,1469,1468.199999988079,True,u,165357.89999997616,1969.699999988079,1669838280332,1970,HRV,HRV_0270,2022-11-30 20:02:18
63,"[{'imgObject': {}, 'id': 'corn cob', 'src': '/static/foodstim60/corn cob.jpg', 'key': 'u', 'origWidth': 411, 'origHeight': 411, 'width': 411, 'height': 411, 'widthPercent': 0.45, 'rescaleHeight': False, 'trialN': 63, 'loaded': True, 'loadedTime': 3133.600000023842, 'positionName': 'LEFT', 'positionCoords': [203.4, 194.5], 'bid': 3.71}, {'imgObject': {}, 'id': 'granola w milk', 'src': '/static/foodstim60/granola w milk.jpg', 'key': 'i', 'origWidth': 410, 'origHeight': 410, 'width': 410, 'height': 410, 'widthPercent': 0.45, 'rescaleHeight': False, 'trialN': 63, 'loaded': True, 'loadedTime': 3131.800000011921, 'positionName': 'RIGHT', 'positionCoords': [665.6, 195], 'bid': 3.95}]",165358.30000001192,1669838280333,corn cob,granola w milk,3.71,3.95,0.2400000000000002,granola w milk,2823.699999988079,2827,2827.899999976158,True,i,168691.39999997616,3333.099999964237,1669838283666,3333,HRV,HRV_0270,2022-11-30 20:02:18
64,"[{'imgObject': {}, 'id': 'roastedpotatoes', 'src': '/static/foodstim60/roastedpotatoes.jpg', 'key': 'u', 'origWidth': 409, 'origHeight': 410, 'width': 409, 'height': 410, 'widthPercent': 0.45, 'rescaleHeight': False, 'trialN': 64, 'loaded': True, 'loadedTime': 3243.699999988079, 'positionName': 'LEFT', 'positionCoords': [205.4, 195], 'bid': 6.67}, {'imgObject': {}, 'id': 'turkey sandwich', 'src': '/static/foodstim60/turkey sandwich.jpg', 'key': 'i', 'origWidth': 409, 'origHeight': 409, 'width': 409, 'height': 409, 'widthPercent': 0.45, 'rescaleHeight': False, 'trialN': 64, 'loaded': True, 'loadedTime': 3309.800000011921, 'positionName': 'RIGHT', 'positionCoords': [665.6, 195.5], 'bid': 10}]",168691.60000002384,1669838283666,roastedpotatoes,turkey sandwich,6.67,10.0,3.33,turkey sandwich,1546.3999999761581,1553,1552.7999999523163,True,i,170744.89999997616,2053.2999999523163,1669838285719,2053,HRV,HRV_0270,2022-11-30 20:02:18
65,"[{'imgObject': {}, 'id': 'mac & cheese', 'src': '/static/foodstim60/mac & cheese.jpg', 'key': 'u', 'origWidth': 410, 'origHeight': 410, 'width': 410, 'height': 410, 'widthPercent': 0.45, 'rescaleHeight': False, 'trialN': 65, 'loaded': True, 'loadedTime': 2868, 'positionName': 'LEFT', 'positionCoords': [204.4, 195], 'bid': 7.85}, {'imgObject': {}, 'id': 'kiwi', 'src': '/static/foodstim60/kiwi.jpg', 'key': 'i', 'origWidth': 410, 'origHeight': 410, 'width': 410, 'height': 410, 'widthPercent': 0.45, 'rescaleHeight': False, 'trialN': 65, 'loaded': True, 'loadedTime': 2827, 'positionName': 'RIGHT', 'positionCoords': [665.6, 195], 'bid': 6.96}]",170745.30000001192,1669838285719,mac & cheese,kiwi,7.85,6.96,-0.8899999999999997,mac & cheese,1804.699999988079,1810,1809.199999988079,True,u,173057.89999997616,2312.599999964237,1669838288032,2313,HRV,HRV_0270,2022-11-30 20:02:18
66,"[{'imgObject': {}, 'id': 'froot loops w milk', 'src': '/static/foodstim60/froot loops w milk.jpg', 'key': 'u', 'origWidth': 410, 'origHeight': 410, 'width': 410, 'height': 410, 'widthPercent': 0.45, 'rescaleHeight': False, 'trialN': 66, 'loaded': True, 'loadedTime': 3019.600000023842, 'positionName': 'LEFT', 'positionCoords': [204.4, 195], 'bid': 3.1}, {'imgObject': {}, 'id': 'shreddedwheatwithmilk', 'src': '/static/foodstim60/shreddedwheatwithmilk.jpg', 'key': 'i', 'origWidth': 410, 'origHeight': 410, 'width': 410, 'height': 410, 'widthPercent': 0.45, 'rescaleHeight': False, 'trialN': 66, 'loaded': True, 'loadedTime': 2729.600000023842, 'positionName': 'RIGHT', 'positionCoords': [665.6, 195], 'bid': 2.25}]",173058.10000002384,1669838288032,froot loops w milk,shreddedwheatwithmilk,3.1,2.25,-0.8500000000000001,froot loops w milk,1675.8999999761581,1681,1680.699999988079,True,u,175244.0,2185.899999976158,1669838290218,2186,HRV,HRV_0270,2022-11-30 20:02:18
67,"[{'imgObject': {}, 'id': 'tacos', 'src': '/static/foodstim60/tacos.jpg', 'key': 'u', 'origWidth': 411, 'origHeight': 411, 'width': 411, 'height': 411, 'widthPercent': 0.45, 'rescaleHeight': False, 'trialN': 67, 'loaded': True, 'loadedTime': 3351.199999988079, 'positionName': 'LEFT', 'positionCoords': [203.4, 194.5], 'bid': 6.51}, {'imgObject': {}, 'id': 'rigatoni', 'src': '/static/foodstim60/rigatoni.jpg', 'key': 'i', 'origWidth': 411, 'origHeight': 411, 'width': 411, 'height': 411, 'widthPercent': 0.45, 'rescaleHeight': False, 'trialN': 67, 'loaded': True, 'loadedTime': 3066.300000011921, 'positionName': 'RIGHT', 'positionCoords': [665.6, 194.5], 'bid': 2.07}]",175244.30000001192,1669838290218,tacos,rigatoni,6.51,2.07,-4.4399999999999995,tacos,2073.699999988079,2079,2078.399999976158,True,u,177827.60000002384,2583.300000011921,1669838292802,2584,HRV,HRV_0270,2022-11-30 20:02:18
68,"[{'imgObject': {}, 'id': 'rigatoni', 'src': '/static/foodstim60/rigatoni.jpg', 'key': 'u', 'origWidth': 411, 'origHeight': 411, 'width': 411, 'height': 411, 'widthPercent': 0.45, 'rescaleHeight': False, 'trialN': 68, 'loaded': True, 'loadedTime': 3066.800000011921, 'positionName': 'LEFT', 'positionCoords': [203.4, 194.5], 'bid': 2.07}, {'imgObject': {}, 'id': 'olives', 'src': '/static/foodstim60/olives.jpg', 'key': 'i', 'origWidth': 410, 'origHeight': 410, 'width': 410, 'height': 410, 'widthPercent': 0.45, 'rescaleHeight': False, 'trialN': 68, 'loaded': True, 'loadedTime': 2902.5, 'positionName': 'RIGHT', 'positionCoords': [665.6, 195], 'bid': 0.06}]",177828.0,1669838292802,rigatoni,olives,2.07,0.06,-2.01,rigatoni,1745.8999999761581,1751,1750.5,True,u,180083.60000002384,2255.600000023842,1669838295058,2256,HRV,HRV_0270,2022-11-30 20:02:18
69,"[{'imgObject': {}, 'id': 'omelette', 'src': '/static/foodstim60/omelette.jpg', 'key': 'u', 'origWidth': 410, 'origHeight': 409, 'width': 410, 'height': 409, 'widthPercent': 0.45, 'rescaleHeight': False, 'trialN': 69, 'loaded': True, 'loadedTime': 3351.5, 'positionName': 'LEFT', 'positionCoords': [204.4, 195.5], 'bid': 0.04}, {'imgObject': {}, 'id': 'hashbrowns', 'src': '/static/foodstim60/hashbrowns.jpg', 'key': 'i', 'origWidth': 411, 'origHeight': 410, 'width': 411, 'height': 410, 'widthPercent': 0.45, 'rescaleHeight': False, 'trialN': 69, 'loaded': True, 'loadedTime': 3297.800000011921, 'positionName': 'RIGHT', 'positionCoords': [665.6, 195], 'bid': 0.04}]",180083.89999997616,1669838295058,omelette,hashbrowns,0.04,0.04,0.0,omelette,1498.1000000238419,1503,1502.5,True,u,182091.5,2007.6000000238419,1669838297066,2008,HRV,HRV_0270,2022-11-30 20:02:18
70,"[{'imgObject': {}, 'id': 'burger', 'src': '/static/foodstim60/burger.jpg', 'key': 'u', 'origWidth': 409, 'origHeight': 409, 'width': 409, 'height': 409, 'widthPercent': 0.45, 'rescaleHeight': False, 'trialN': 70, 'loaded': True, 'loadedTime': 2753.600000023842, 'positionName': 'LEFT', 'positionCoords': [205.4, 195.5], 'bid': 5.01}, {'imgObject': {}, 'id': 'kiwi', 'src': '/static/foodstim60/kiwi.jpg', 'key': 'i', 'origWidth': 410, 'origHeight': 410, 'width': 410, 'height': 410, 'widthPercent': 0.45, 'rescaleHeight': False, 'trialN': 70, 'loaded': True, 'loadedTime': 2828.300000011921, 'positionName': 'RIGHT', 'positionCoords': [665.6, 195], 'bid': 6.96}]",182091.80000001192,1669838297066,burger,kiwi,5.01,6.96,1.9500000000000002,burger,2658.099999964237,2662,2662.399999976158,True,u,185255.69999998808,3163.899999976158,1669838300230,3164,HRV,HRV_0270,2022-11-30 20:02:18
71,"[{'imgObject': {}, 'id': 'omelette', 'src': '/static/foodstim60/omelette.jpg', 'key': 'u', 'origWidth': 410, 'origHeight': 409, 'width': 410, 'height': 409, 'widthPercent': 0.45, 'rescaleHeight': False, 'trialN': 71, 'loaded': True, 'loadedTime': 3353.300000011921, 'positionName': 'LEFT', 'positionCoords': [204.4, 195.5], 'bid': 0.04}, {'imgObject': {}, 'id': 'bagel plain', 'src': '/static/foodstim60/bagel plain.jpg', 'key': 'i', 'origWidth': 410, 'origHeight': 410, 'width': 410, 'height': 410, 'widthPercent': 0.45, 'rescaleHeight': False, 'trialN': 71, 'loaded': True, 'loadedTime': 3202.300000011921, 'positionName': 'RIGHT', 'positionCoords': [665.6, 195], 'bid': 2.2}]",185256.0,1669838300230,omelette,bagel plain,0.04,2.2,2.16,bagel plain,1030,1037,1036.8999999761581,True,i,186798.30000001192,1542.300000011921,1669838301772,1542,HRV,HRV_0270,2022-11-30 20:02:18
72,"[{'imgObject': {}, 'id': 'sweetpotato', 'src': '/static/foodstim60/sweetpotato.jpg', 'key': 'u', 'origWidth': 410, 'origHeight': 410, 'width': 410, 'height': 410, 'widthPercent': 0.45, 'rescaleHeight': False, 'trialN': 72, 'loaded': True, 'loadedTime': 3306.199999988079, 'positionName': 'LEFT', 'positionCoords': [204.4, 195], 'bid': 4.96}, {'imgObject': {}, 'id': 'burger', 'src': '/static/foodstim60/burger.jpg', 'key': 'i', 'origWidth': 409, 'origHeight': 409, 'width': 409, 'height': 409, 'widthPercent': 0.45, 'rescaleHeight': False, 'trialN': 72, 'loaded': True, 'loadedTime': 2756.699999988079, 'positionName': 'RIGHT', 'positionCoords': [665.6, 195.5], 'bid': 5.01}]",186798.60000002384,1669838301773,sweetpotato,burger,4.96,5.01,0.04999999999999982,burger,1471.3999999761581,1477,1477.199999988079,True,i,188776.19999998808,1977.5999999642372,1669838303750,1977,HRV,HRV_0270,2022-11-30 20:02:18
73,"[{'imgObject': {}, 'id': 'bagel and cc', 'src': '/static/foodstim60/bagel and cc.jpg', 'key': 'u', 'origWidth': 410, 'origHeight': 410, 'width': 410, 'height': 410, 'widthPercent': 0.45, 'rescaleHeight': False, 'trialN': 73, 'loaded': True, 'loadedTime': 2747.899999976158, 'positionName': 'LEFT', 'positionCoords': [204.4, 195], 'bid': 2.43}, {'imgObject': {}, 'id': 'olives', 'src': '/static/foodstim60/olives.jpg', 'key': 'i', 'origWidth': 410, 'origHeight': 410, 'width': 410, 'height': 410, 'widthPercent': 0.45, 'rescaleHeight': False, 'trialN': 73, 'loaded': True, 'loadedTime': 2902.800000011921, 'positionName': 'RIGHT', 'positionCoords': [665.6, 195], 'bid': 0.06}]",188776.5,1669838303751,bagel and cc,olives,2.43,0.06,-2.37,bagel and cc,941.5,944,944.3000000119209,True,u,190225.89999997616,1449.3999999761581,1669838305200,1449,HRV,HRV_0270,2022-11-30 20:02:18
74,"[{'imgObject': {}, 'id': 'banana', 'src': '/static/foodstim60/banana.jpg', 'key': 'u', 'origWidth': 410, 'origHeight': 410, 'width': 410, 'height': 410, 'widthPercent': 0.45, 'rescaleHeight': False, 'trialN': 74, 'loaded': True, 'loadedTime': 3315.199999988079, 'positionName': 'LEFT', 'positionCoords': [204.4, 195], 'bid': 9.92}, {'imgObject': {}, 'id': 'blueberries', 'src': '/static/foodstim60/blueberries.jpg', 'key': 'i', 'origWidth': 411, 'origHeight': 411, 'width': 411, 'height': 411, 'widthPercent': 0.45, 'rescaleHeight': False, 'trialN': 74, 'loaded': True, 'loadedTime': 3136.699999988079, 'positionName': 'RIGHT', 'positionCoords': [665.6, 194.5], 'bid': 9.9}]",190226.30000001192,1669838305200,banana,blueberries,9.92,9.9,-0.019999999999999574,blueberries,811.6999999880791,816,815.8000000119209,True,i,191542.89999997616,1316.5999999642372,1669838306517,1317,HRV,HRV_0270,2022-11-30 20:02:18
75,"[{'imgObject': {}, 'id': 'banana', 'src': '/static/foodstim60/banana.jpg', 'key': 'u', 'origWidth': 410, 'origHeight': 410, 'width': 410, 'height': 410, 'widthPercent': 0.45, 'rescaleHeight': False, 'trialN': 75, 'loaded': True, 'loadedTime': 3315.5, 'positionName': 'LEFT', 'positionCoords': [204.4, 195], 'bid': 9.92}, {'imgObject': {}, 'id': 'apple slices', 'src': '/static/foodstim60/apple slices.jpg', 'key': 'i', 'origWidth': 409, 'origHeight': 410, 'width': 409, 'height': 410, 'widthPercent': 0.45, 'rescaleHeight': False, 'trialN': 75, 'loaded': True, 'loadedTime': 3142.5, 'positionName': 'RIGHT', 'positionCoords': [665.6, 195], 'bid': 6.8500000000000005}]",191543.19999998808,1669838306517,banana,apple slices,9.92,6.8500000000000005,-3.0699999999999994,apple slices,3118.800000011921,3123,3123.199999988079,True,i,195170.5,3627.300000011921,1669838310144,3627,HRV,HRV_0270,2022-11-30 20:02:18
76,"[{'imgObject': {}, 'id': 'chicken nuggets2', 'src': '/static/foodstim60/chicken nuggets2.jpg', 'key': 'u', 'origWidth': 410, 'origHeight': 409, 'width': 410, 'height': 409, 'widthPercent': 0.45, 'rescaleHeight': False, 'trialN': 76, 'loaded': True, 'loadedTime': 2882.399999976158, 'positionName': 'LEFT', 'positionCoords': [204.4, 195.5], 'bid': 6.28}, {'imgObject': {}, 'id': 'raspberries', 'src': '/static/foodstim60/raspberries.jpg', 'key': 'i', 'origWidth': 411, 'origHeight': 411, 'width': 411, 'height': 411, 'widthPercent': 0.45, 'rescaleHeight': False, 'trialN': 76, 'loaded': True, 'loadedTime': 3195.699999988079, 'positionName': 'RIGHT', 'positionCoords': [665.6, 194.5], 'bid': 9.82}]",195170.89999997616,1669838310145,chicken nuggets2,raspberries,6.28,9.82,3.54,raspberries,1611,1616,1615.9000000357628,True,i,197287.19999998808,2116.300000011921,1669838312261,2116,HRV,HRV_0270,2022-11-30 20:02:18
77,"[{'imgObject': {}, 'id': 'kiwi', 'src': '/static/foodstim60/kiwi.jpg', 'key': 'u', 'origWidth': 410, 'origHeight': 410, 'width': 410, 'height': 410, 'widthPercent': 0.45, 'rescaleHeight': False, 'trialN': 77, 'loaded': True, 'loadedTime': 2827.800000011921, 'positionName': 'LEFT', 'positionCoords': [204.4, 195], 'bid': 6.96}, {'imgObject': {}, 'id': 'blueberries', 'src': '/static/foodstim60/blueberries.jpg', 'key': 'i', 'origWidth': 411, 'origHeight': 411, 'width': 411, 'height': 411, 'widthPercent': 0.45, 'rescaleHeight': False, 'trialN': 77, 'loaded': True, 'loadedTime': 3138.5, 'positionName': 'RIGHT', 'positionCoords': [665.6, 194.5], 'bid': 9.9}]",197287.30000001192,1669838312261,kiwi,blueberries,6.96,9.9,2.9400000000000004,blueberries,1254.699999988079,1261,1260.5999999642372,True,i,199052.39999997616,1765.0999999642372,1669838314026,1765,HRV,HRV_0270,2022-11-30 20:02:18
78,"[{'imgObject': {}, 'id': 'cherry tomato', 'src': '/static/foodstim60/cherry tomato.jpg', 'key': 'u', 'origWidth': 410, 'origHeight': 410, 'width': 410, 'height': 410, 'widthPercent': 0.45, 'rescaleHeight': False, 'trialN': 78, 'loaded': True, 'loadedTime': 2857.100000023842, 'positionName': 'LEFT', 'positionCoords': [204.4, 195], 'bid': 2.96}, {'imgObject': {}, 'id': 'avocado', 'src': '/static/foodstim60/avocado.jpg', 'key': 'i', 'origWidth': 409, 'origHeight': 409, 'width': 409, 'height': 409, 'widthPercent': 0.45, 'rescaleHeight': False, 'trialN': 78, 'loaded': True, 'loadedTime': 3355.600000023842, 'positionName': 'RIGHT', 'positionCoords': [665.6, 195.5], 'bid': 0.17}]",199052.69999998808,1669838314027,cherry tomato,avocado,2.96,0.17,-2.79,cherry tomato,1209.199999988079,1217,1217.0,True,u,200772.39999997616,1719.699999988079,1669838315746,1719,HRV,HRV_0270,2022-11-30 20:02:18
79,"[{'imgObject': {}, 'id': 'cantaloupe', 'src': '/static/foodstim60/cantaloupe.jpg', 'key': 'u', 'origWidth': 409, 'origHeight': 409, 'width': 409, 'height': 409, 'widthPercent': 0.45, 'rescaleHeight': False, 'trialN': 79, 'loaded': True, 'loadedTime': 2702.100000023842, 'positionName': 'LEFT', 'positionCoords': [205.4, 195.5], 'bid': 6.54}, {'imgObject': {}, 'id': 'tacos', 'src': '/static/foodstim60/tacos.jpg', 'key': 'i', 'origWidth': 411, 'origHeight': 411, 'width': 411, 'height': 411, 'widthPercent': 0.45, 'rescaleHeight': False, 'trialN': 79, 'loaded': True, 'loadedTime': 3351.100000023842, 'positionName': 'RIGHT', 'positionCoords': [665.6, 194.5], 'bid': 6.51}]",200772.80000001192,1669838315747,cantaloupe,tacos,6.54,6.51,-0.03000000000000025,cantaloupe,2633.199999988079,2638,2638.899999976158,True,u,203913.69999998808,3140.899999976158,1669838318887,3140,HRV,HRV_0270,2022-11-30 20:02:18
80,"[{'imgObject': {}, 'id': 'salmon', 'src': '/static/foodstim60/salmon.jpg', 'key': 'u', 'origWidth': 410, 'origHeight': 409, 'width': 410, 'height': 409, 'widthPercent': 0.45, 'rescaleHeight': False, 'trialN': 80, 'loaded': True, 'loadedTime': 2794.600000023842, 'positionName': 'LEFT', 'positionCoords': [204.4, 195.5], 'bid': 5.0600000000000005}, {'imgObject': {}, 'id': 'avocado', 'src': '/static/foodstim60/avocado.jpg', 'key': 'i', 'origWidth': 409, 'origHeight': 409, 'width': 409, 'height': 409, 'widthPercent': 0.45, 'rescaleHeight': False, 'trialN': 80, 'loaded': True, 'loadedTime': 3356, 'positionName': 'RIGHT', 'positionCoords': [665.6, 195.5], 'bid': 0.17}]",203913.89999997616,1669838318888,salmon,avocado,5.0600000000000005,0.17,-4.890000000000001,salmon,1884.1000000238419,1888,1888.2000000476837,True,u,206307.0,2393.100000023842,1669838321281,2393,HRV,HRV_0270,2022-11-30 20:02:18
81,"[{'imgObject': {}, 'id': 'fried eggs', 'src': '/static/foodstim60/fried eggs.jpg', 'key': 'u', 'origWidth': 410, 'origHeight': 410, 'width': 410, 'height': 410, 'widthPercent': 0.45, 'rescaleHeight': False, 'trialN': 81, 'loaded': True, 'loadedTime': 2863.600000023842, 'positionName': 'LEFT', 'positionCoords': [204.4, 195], 'bid': 0.2}, {'imgObject': {}, 'id': 'corn cob', 'src': '/static/foodstim60/corn cob.jpg', 'key': 'i', 'origWidth': 411, 'origHeight': 411, 'width': 411, 'height': 411, 'widthPercent': 0.45, 'rescaleHeight': False, 'trialN': 81, 'loaded': True, 'loadedTime': 3135.899999976158, 'positionName': 'RIGHT', 'positionCoords': [665.6, 194.5], 'bid': 3.71}]",206307.30000001192,1669838321281,fried eggs,corn cob,0.2,3.71,3.51,fried eggs,2186.699999988079,2192,2192.099999964237,True,u,209004.69999998808,2697.399999976158,1669838323978,2697,HRV,HRV_0270,2022-11-30 20:02:18
82,"[{'imgObject': {}, 'id': 'edamame', 'src': '/static/foodstim60/edamame.jpg', 'key': 'u', 'origWidth': 409, 'origHeight': 410, 'width': 409, 'height': 410, 'widthPercent': 0.45, 'rescaleHeight': False, 'trialN': 82, 'loaded': True, 'loadedTime': 2770.5, 'positionName': 'LEFT', 'positionCoords': [205.4, 195], 'bid': 3.37}, {'imgObject': {}, 'id': 'pear', 'src': '/static/foodstim60/pear.jpg', 'key': 'i', 'origWidth': 411, 'origHeight': 410, 'width': 411, 'height': 410, 'widthPercent': 0.45, 'rescaleHeight': False, 'trialN': 82, 'loaded': True, 'loadedTime': 3343.300000011921, 'positionName': 'RIGHT', 'positionCoords': [665.6, 195], 'bid': 8.120000000000001}]",209005.10000002384,1669838323979,edamame,pear,3.37,8.120000000000001,4.750000000000001,edamame,2496.699999988079,2499,2499.599999964237,True,u,212010.0,3004.899999976158,1669838326984,3005,HRV,HRV_0270,2022-11-30 20:02:18
83,"[{'imgObject': {}, 'id': 'mashed potato', 'src': '/static/foodstim60/mashed potato.jpg', 'key': 'u', 'origWidth': 409, 'origHeight': 409, 'width': 409, 'height': 409, 'widthPercent': 0.45, 'rescaleHeight': False, 'trialN': 83, 'loaded': True, 'loadedTime': 2935.600000023842, 'positionName': 'LEFT', 'positionCoords': [205.4, 195.5], 'bid': 6.890000000000001}, {'imgObject': {}, 'id': 'apple slices', 'src': '/static/foodstim60/apple slices.jpg', 'key': 'i', 'origWidth': 409, 'origHeight': 410, 'width': 409, 'height': 410, 'widthPercent': 0.45, 'rescaleHeight': False, 'trialN': 83, 'loaded': True, 'loadedTime': 3139.899999976158, 'positionName': 'RIGHT', 'positionCoords': [665.6, 195], 'bid': 6.8500000000000005}]",212010.39999997616,1669838326984,mashed potato,apple slices,6.890000000000001,6.8500000000000005,-0.040000000000000036,NaN,NaN,NaN,,False,NaN,216016.10000002384,4005.7000000476837,1669838330990,4006,HRV,HRV_0270,2022-11-30 20:02:18
84,"[{'imgObject': {}, 'id': 'Grapes', 'src': '/static/foodstim60/Grapes.jpg', 'key': 'u', 'origWidth': 411, 'origHeight': 411, 'width': 411, 'height': 411, 'widthPercent': 0.45, 'rescaleHeight': False, 'trialN': 84, 'loaded': True, 'loadedTime': 2871.899999976158, 'positionName': 'LEFT', 'positionCoords': [203.4, 194.5], 'bid': 10}, {'imgObject': {}, 'id': 'orange slices', 'src': '/static/foodstim60/orange slices.jpg', 'key': 'i', 'origWidth': 409, 'origHeight': 410, 'width': 409, 'height': 410, 'widthPercent': 0.45, 'rescaleHeight': False, 'trialN': 84, 'loaded': True, 'loadedTime': 3017.600000023842, 'positionName': 'RIGHT', 'positionCoords': [665.6, 195], 'bid': 10}]",216016.30000001192,1669838330990,Grapes,orange slices,10.0,10.0,0.0,orange slices,2725.699999988079,2731,2730.899999976158,True,i,219251.39999997616,3235.099999964237,1669838334225,3235,HRV,HRV_0270,2022-11-30 20:02:18
85,"[{'imgObject': {}, 'id': 'granola w milk', 'src': '/static/foodstim60/granola w milk.jpg', 'key': 'u', 'origWidth': 410, 'origHeight': 410, 'width': 410, 'height': 410, 'widthPercent': 0.45, 'rescaleHeight': False, 'trialN': 85, 'loaded': True, 'loadedTime': 3133, 'positionName': 'LEFT', 'positionCoords': [204.4, 195], 'bid': 3.95}, {'imgObject': {}, 'id': 'burger', 'src': '/static/foodstim60/burger.jpg', 'key': 'i', 'origWidth': 409, 'origHeight': 409, 'width': 409, 'height': 409, 'widthPercent': 0.45, 'rescaleHeight': False, 'trialN': 85, 'loaded': True, 'loadedTime': 2757.899999976158, 'positionName': 'RIGHT', 'positionCoords': [665.6, 195.5], 'bid': 5.01}]",219251.80000001192,1669838334225,granola w milk,burger,3.95,5.01,1.0599999999999996,burger,906.1999999880791,910,910.1999999880791,True,i,220667.10000002384,1415.300000011921,1669838335640,1415,HRV,HRV_0270,2022-11-30 20:02:18
86,"[{'imgObject': {}, 'id': 'mashed potato', 'src': '/static/foodstim60/mashed potato.jpg', 'key': 'u', 'origWidth': 409, 'origHeight': 409, 'width': 409, 'height': 409, 'widthPercent': 0.45, 'rescaleHeight': False, 'trialN': 86, 'loaded': True, 'loadedTime': 2935.5, 'positionName': 'LEFT', 'positionCoords': [205.4, 195.5], 'bid': 6.890000000000001}, {'imgObject': {}, 'id': 'seaweed', 'src': '/static/foodstim60/seaweed.jpg', 'key': 'i', 'origWidth': 410, 'origHeight': 410, 'width': 410, 'height': 410, 'widthPercent': 0.45, 'rescaleHeight': False, 'trialN': 86, 'loaded': True, 'loadedTime': 2876.699999988079, 'positionName': 'RIGHT', 'positionCoords': [665.6, 195], 'bid': 3.03}]",220667.39999997616,1669838335641,mashed potato,seaweed,6.890000000000001,3.03,-3.8600000000000008,mashed potato,1010.6000000238419,1015,1015.0,True,u,222187.39999997616,1520.0,1669838337161,1520,HRV,HRV_0270,2022-11-30 20:02:18
87,"[{'imgObject': {}, 'id': 'edamame', 'src': '/static/foodstim60/edamame.jpg', 'key': 'u', 'origWidth': 409, 'origHeight': 410, 'width': 409, 'height': 410, 'widthPercent': 0.45, 'rescaleHeight': False, 'trialN': 87, 'loaded': True, 'loadedTime': 2771.199999988079, 'positionName': 'LEFT', 'positionCoords': [205.4, 195], 'bid': 3.37}, {'imgObject': {}, 'id': 'salad w chicken', 'src': '/static/foodstim60/salad w chicken.jpg', 'key': 'i', 'origWidth': 411, 'origHeight': 411, 'width': 411, 'height': 411, 'widthPercent': 0.45, 'rescaleHeight': False, 'trialN': 87, 'loaded': True, 'loadedTime': 3109.699999988079, 'positionName': 'RIGHT', 'positionCoords': [665.6, 194.5], 'bid': 3.65}]",222187.80000001192,1669838337161,edamame,salad w chicken,3.37,3.65,0.2799999999999998,salad w chicken,930.1999999880791,935,934.6999999880791,True,i,223625.5,1437.699999988079,1669838338599,1438,HRV,HRV_0270,2022-11-30 20:02:18
88,"[{'imgObject': {}, 'id': 'mac & cheese', 'src': '/static/foodstim60/mac & cheese.jpg', 'key': 'u', 'origWidth': 410, 'origHeight': 410, 'width': 410, 'height': 410, 'widthPercent': 0.45, 'rescaleHeight': False, 'trialN': 88, 'loaded': True, 'loadedTime': 2867.600000023842, 'positionName': 'LEFT', 'positionCoords': [204.4, 195], 'bid': 7.85}, {'imgObject': {}, 'id': 'hotdog w must', 'src': '/static/foodstim60/hotdog w must.jpg', 'key': 'i', 'origWidth': 409, 'origHeight': 409, 'width': 409, 'height': 409, 'widthPercent': 0.45, 'rescaleHeight': False, 'trialN': 88, 'loaded': True, 'loadedTime': 3303.699999988079, 'positionName': 'RIGHT', 'positionCoords': [665.6, 195.5], 'bid': 5.03}]",223625.80000001192,1669838338599,mac & cheese,hotdog w must,7.85,5.03,-2.8199999999999994,mac & cheese,820.1999999880791,823,822.6999999880791,True,u,224951.10000002384,1325.300000011921,1669838339924,1325,HRV,HRV_0270,2022-11-30 20:02:18
89,"[{'imgObject': {}, 'id': 'froot loops w milk', 'src': '/static/foodstim60/froot loops w milk.jpg', 'key': 'u', 'origWidth': 410, 'origHeight': 410, 'width': 410, 'height': 410, 'widthPercent': 0.45, 'rescaleHeight': False, 'trialN': 89, 'loaded': True, 'loadedTime': 3020, 'positionName': 'LEFT', 'positionCoords': [204.4, 195], 'bid': 3.1}, {'imgObject': {}, 'id': 'cherries', 'src': '/static/foodstim60/cherries.jpg', 'key': 'i', 'origWidth': 410, 'origHeight': 411, 'width': 410, 'height': 411, 'widthPercent': 0.45, 'rescaleHeight': False, 'trialN': 89, 'loaded': True, 'loadedTime': 3050.800000011921, 'positionName': 'RIGHT', 'positionCoords': [665.6, 194.5], 'bid': 1.84}]",224951.5,1669838339925,froot loops w milk,cherries,3.1,1.84,-1.26,cherries,2310.5,2316,2316.800000011921,True,i,227770.30000001192,2818.800000011921,1669838342744,2819,HRV,HRV_0270,2022-11-30 20:02:18
90,"[{'imgObject': {}, 'id': 'blackbeanswithrice', 'src': '/static/foodstim60/blackbeanswithrice.jpg', 'key': 'u', 'origWidth': 410, 'origHeight': 410, 'width': 410, 'height': 410, 'widthPercent': 0.45, 'rescaleHeight': False, 'trialN': 90, 'loaded': True, 'loadedTime': 3106.699999988079, 'positionName': 'LEFT', 'positionCoords': [204.4, 195], 'bid': 4.82}, {'imgObject': {}, 'id': 'steak', 'src': '/static/foodstim60/steak.jpg', 'key': 'i', 'origWidth': 410, 'origHeight': 410, 'width': 410, 'height': 410, 'widthPercent': 0.45, 'rescaleHeight': False, 'trialN': 90, 'loaded': True, 'loadedTime': 2932.300000011921, 'positionName': 'RIGHT', 'positionCoords': [665.6, 195], 'bid': 4.98}]",230840.10000002384,1669838345813,blackbeanswithrice,steak,4.82,4.98,0.16000000000000014,steak,1349.8999999761581,1355,1354.8999999761581,True,i,232695.5,1855.3999999761581,1669838347669,1856,HRV,HRV_0270,2022-11-30 20:02:18
91,"[{'imgObject': {}, 'id': 'yogurt no spoon', 'src': '/static/foodstim60/yogurt no spoon.jpg', 'key': 'u', 'origWidth': 411, 'origHeight': 410, 'width': 411, 'height': 410, 'widthPercent': 0.45, 'rescaleHeight': False, 'trialN': 91, 'loaded': True, 'loadedTime': 3297.5, 'positionName': 'LEFT', 'positionCoords': [203.4, 195], 'bid': 1.84}, {'imgObject': {}, 'id': 'rigatoni', 'src': '/static/foodstim60/rigatoni.jpg', 'key': 'i', 'origWidth': 411, 'origHeight': 411, 'width': 411, 'height': 411, 'widthPercent': 0.45, 'rescaleHeight': False, 'trialN': 91, 'loaded': True, 'loadedTime': 3063.5, 'positionName': 'RIGHT', 'positionCoords': [665.6, 194.5], 'bid': 2.07}]",232695.89999997616,1669838347669,yogurt no spoon,rigatoni,1.84,2.07,0.22999999999999976,yogurt no spoon,3270.100000023842,3274,3274.2000000476837,True,u,236475.10000002384,3779.2000000476837,1669838351448,3779,HRV,HRV_0270,2022-11-30 20:02:18
92,"[{'imgObject': {}, 'id': 'salmon', 'src': '/static/foodstim60/salmon.jpg', 'key': 'u', 'origWidth': 410, 'origHeight': 409, 'width': 410, 'height': 409, 'widthPercent': 0.45, 'rescaleHeight': False, 'trialN': 92, 'loaded': True, 'loadedTime': 2795.600000023842, 'positionName': 'LEFT', 'positionCoords': [204.4, 195.5], 'bid': 5.0600000000000005}, {'imgObject': {}, 'id': 'burrito', 'src': '/static/foodstim60/burrito.jpg', 'key': 'i', 'origWidth': 410, 'origHeight': 410, 'width': 410, 'height': 410, 'widthPercent': 0.45, 'rescaleHeight': False, 'trialN': 92, 'loaded': True, 'loadedTime': 2938.199999988079, 'positionName': 'RIGHT', 'positionCoords': [665.6, 195], 'bid': 6.48}]",236475.30000001192,1669838351448,salmon,burrito,5.0600000000000005,6.48,1.42,salmon,1810.699999988079,1814,1813.3999999761581,True,u,238794.0,2318.699999988079,1669838353767,2319,HRV,HRV_0270,2022-11-30 20:02:18
93,"[{'imgObject': {}, 'id': 'turkey sandwich', 'src': '/static/foodstim60/turkey sandwich.jpg', 'key': 'u', 'origWidth': 409, 'origHeight': 409, 'width': 409, 'height': 409, 'widthPercent': 0.45, 'rescaleHeight': False, 'trialN': 93, 'loaded': True, 'loadedTime': 3307.199999988079, 'positionName': 'LEFT', 'positionCoords': [205.4, 195.5], 'bid': 10}, {'imgObject': {}, 'id': 'sushi w_condiments', 'src': '/static/foodstim60/sushi w_condiments.jpg', 'key': 'i', 'origWidth': 410, 'origHeight': 410, 'width': 410, 'height': 410, 'widthPercent': 0.45, 'rescaleHeight': False, 'trialN': 93, 'loaded': True, 'loadedTime': 3313.300000011921, 'positionName': 'RIGHT', 'positionCoords': [665.6, 195], 'bid': 8.51}]",238794.39999997616,1669838353767,turkey sandwich,sushi w_condiments,10.0,8.51,-1.4900000000000002,turkey sandwich,1771.5,1777,1776.2000000476837,True,u,241075.69999998808,2281.300000011921,1669838356049,2282,HRV,HRV_0270,2022-11-30 20:02:18
94,"[{'imgObject': {}, 'id': 'mango', 'src': '/static/foodstim60/mango.jpg', 'key': 'u', 'origWidth': 411, 'origHeight': 411, 'width': 411, 'height': 411, 'widthPercent': 0.45, 'rescaleHeight': False, 'trialN': 94, 'loaded': True, 'loadedTime': 2844.899999976158, 'positionName': 'LEFT', 'positionCoords': [203.4, 194.5], 'bid': 2.76}, {'imgObject': {}, 'id': 'bagel and cc', 'src': '/static/foodstim60/bagel and cc.jpg', 'key': 'i', 'origWidth': 410, 'origHeight': 410, 'width': 410, 'height': 410, 'widthPercent': 0.45, 'rescaleHeight': False, 'trialN': 94, 'loaded': True, 'loadedTime': 2751.800000011921, 'positionName': 'RIGHT', 'positionCoords': [665.6, 195], 'bid': 2.43}]",241076.0,1669838356049,mango,bagel and cc,2.76,2.43,-0.3299999999999996,bagel and cc,1177.8999999761581,1185,1185.300000011921,True,i,242761.60000002384,1685.6000000238419,1669838357735,1686,HRV,HRV_0270,2022-11-30 20:02:18
95,"[{'imgObject': {}, 'id': 'lox', 'src': '/static/foodstim60/lox.jpg', 'key': 'u', 'origWidth': 410, 'origHeight': 411, 'width': 410, 'height': 411, 'widthPercent': 0.45, 'rescaleHeight': False, 'trialN': 95, 'loaded': True, 'loadedTime': 2838.100000023842, 'positionName': 'LEFT', 'positionCoords': [204.4, 194.5], 'bid': 0}, {'imgObject': {}, 'id': 'omelette', 'src': '/static/foodstim60/omelette.jpg', 'key': 'i', 'origWidth': 410, 'origHeight': 409, 'width': 410, 'height': 409, 'widthPercent': 0.45, 'rescaleHeight': False, 'trialN': 95, 'loaded': True, 'loadedTime': 3353.600000023842, 'positionName': 'RIGHT', 'positionCoords': [665.6, 195.5], 'bid': 0.04}]",242761.89999997616,1669838357735,lox,omelette,0.0,0.04,0.04,omelette,1388.1000000238419,1392,1392.0,True,i,244657.0,1895.1000000238419,1669838359630,1895,HRV,HRV_0270,2022-11-30 20:02:18
96,"[{'imgObject': {}, 'id': 'salmon', 'src': '/static/foodstim60/salmon.jpg', 'key': 'u', 'origWidth': 410, 'origHeight': 409, 'width': 410, 'height': 409, 'widthPercent': 0.45, 'rescaleHeight': False, 'trialN': 96, 'loaded': True, 'loadedTime': 2778.300000011921, 'positionName': 'LEFT', 'positionCoords': [204.4, 195.5], 'bid': 5.0600000000000005}, {'imgObject': {}, 'id': 'chicken nuggets2', 'src': '/static/foodstim60/chicken nuggets2.jpg', 'key': 'i', 'origWidth': 410, 'origHeight': 409, 'width': 410, 'height': 409, 'widthPercent': 0.45, 'rescaleHeight': False, 'trialN': 96, 'loaded': True, 'loadedTime': 2882.800000011921, 'positionName': 'RIGHT', 'positionCoords': [665.6, 195.5], 'bid': 6.28}]",244657.30000001192,1669838359630,salmon,chicken nuggets2,5.0600000000000005,6.28,1.2199999999999998,salmon,2108.699999988079,2112,2112.099999964237,True,u,247272.69999998808,2615.399999976158,1669838362245,2615,HRV,HRV_0270,2022-11-30 20:02:18
97,"[{'imgObject': {}, 'id': 'avocado', 'src': '/static/foodstim60/avocado.jpg', 'key': 'u', 'origWidth': 409, 'origHeight': 409, 'width': 409, 'height': 409, 'widthPercent': 0.45, 'rescaleHeight': False, 'trialN': 97, 'loaded': True, 'loadedTime': 3355.5, 'positionName': 'LEFT', 'positionCoords': [205.4, 195.5], 'bid': 0.17}, {'imgObject': {}, 'id': 'olives', 'src': '/static/foodstim60/olives.jpg', 'key': 'i', 'origWidth': 410, 'origHeight': 410, 'width': 410, 'height': 410, 'widthPercent': 0.45, 'rescaleHeight': False, 'trialN': 97, 'loaded': True, 'loadedTime': 2902.300000011921, 'positionName': 'RIGHT', 'positionCoords': [665.6, 195], 'bid': 0.06}]",247273.0,1669838362246,avocado,olives,0.17,0.06,-0.11000000000000001,olives,1141,1147,1147.300000011921,True,i,248924.10000002384,1651.1000000238419,1669838363897,1651,HRV,HRV_0270,2022-11-30 20:02:18
98,"[{'imgObject': {}, 'id': 'olives', 'src': '/static/foodstim60/olives.jpg', 'key': 'u', 'origWidth': 410, 'origHeight': 410, 'width': 410, 'height': 410, 'widthPercent': 0.45, 'rescaleHeight': False, 'trialN': 98, 'loaded': True, 'loadedTime': 2903, 'positionName': 'LEFT', 'positionCoords': [204.4, 195], 'bid': 0.06}, {'imgObject': {}, 'id': 'froot loops w milk', 'src': '/static/foodstim60/froot loops w milk.jpg', 'key': 'i', 'origWidth': 410, 'origHeight': 410, 'width': 410, 'height': 410, 'widthPercent': 0.45, 'rescaleHeight': False, 'trialN': 98, 'loaded': True, 'loadedTime': 3020.699999988079, 'positionName': 'RIGHT', 'positionCoords': [665.6, 195], 'bid': 3.1}]",248924.5,1669838363897,olives,froot loops w milk,0.06,3.1,3.04,froot loops w milk,969.5,974,973.5,True,i,250398.39999997616,1473.8999999761581,1669838365371,1474,HRV,HRV_0270,2022-11-30 20:02:18
99,"[{'imgObject': {}, 'id': 'blueberries', 'src': '/static/foodstim60/blueberries.jpg', 'key': 'u', 'origWidth': 411, 'origHeight': 411, 'width': 411, 'height': 411, 'widthPercent': 0.45, 'rescaleHeight': False, 'trialN': 99, 'loaded': True, 'loadedTime': 3139.100000023842, 'positionName': 'LEFT', 'positionCoords': [203.4, 194.5], 'bid': 9.9}, {'imgObject': {}, 'id': 'raspberries', 'src': '/static/foodstim60/raspberries.jpg', 'key': 'i', 'origWidth': 411, 'origHeight': 411, 'width': 411, 'height': 411, 'widthPercent': 0.45, 'rescaleHeight': False, 'trialN': 99, 'loaded': True, 'loadedTime': 3143.100000023842, 'positionName': 'RIGHT', 'positionCoords': [665.6, 194.5], 'bid': 9.82}]",250398.80000001192,1669838365371,blueberries,raspberries,9.9,9.82,-0.08000000000000007,blueberries,1543.199999988079,1546,1545.800000011921,True,u,252449.80000001192,2051.0,1669838367422,2051,HRV,HRV_0270,2022-11-30 20:02:18
100,"[{'imgObject': {}, 'id': 'mac & cheese', 'src': '/static/foodstim60/mac & cheese.jpg', 'key': 'u', 'origWidth': 410, 'origHeight': 410, 'width': 410, 'height': 410, 'widthPercent': 0.45, 'rescaleHeight': False, 'trialN': 100, 'loaded': True, 'loadedTime': 2865.5, 'positionName': 'LEFT', 'positionCoords': [204.4, 195], 'bid': 7.85}, {'imgObject': {}, 'id': 'froot loops w milk', 'src': '/static/foodstim60/froot loops w milk.jpg', 'key': 'i', 'origWidth': 410, 'origHeight': 410, 'width': 410, 'height': 410, 'widthPercent': 0.45, 'rescaleHeight': False, 'trialN': 100, 'loaded': True, 'loadedTime': 3020.600000023842, 'positionName': 'RIGHT', 'positionCoords': [665.6, 195], 'bid': 3.1}]",252450.10000002384,1669838367423,mac & cheese,froot loops w milk,7.85,3.1,-4.75,mac & cheese,1955.5999999642372,1960,1959.8999999761581,True,u,254915.10000002384,2465.0,1669838369888,2465,HRV,HRV_0270,2022-11-30 20:02:18
101,"[{'imgObject': {}, 'id': 'popsicles', 'src': '/static/foodstim60/popsicles.jpg', 'key': 'u', 'origWidth': 410, 'origHeight': 410, 'width': 410, 'height': 410, 'widthPercent': 0.45, 'rescaleHeight': False, 'trialN': 101, 'loaded': True, 'loadedTime': 2811.699999988079, 'positionName': 'LEFT', 'positionCoords': [204.4, 195], 'bid': 4.9}, {'imgObject': {}, 'id': 'fruitsalad', 'src': '/static/foodstim60/fruitsalad.jpg', 'key': 'i', 'origWidth': 410, 'origHeight': 410, 'width': 410, 'height': 410, 'widthPercent': 0.45, 'rescaleHeight': False, 'trialN': 101, 'loaded': True, 'loadedTime': 3252, 'positionName': 'RIGHT', 'positionCoords': [665.6, 195], 'bid': 10}]",254915.30000001192,1669838369888,popsicles,fruitsalad,4.9,10.0,5.1,fruitsalad,1578.699999988079,1583,1582.699999988079,True,i,256998.89999997616,2083.599999964237,1669838371971,2083,HRV,HRV_0270,2022-11-30 20:02:18
102,"[{'imgObject': {}, 'id': 'hotdog w must', 'src': '/static/foodstim60/hotdog w must.jpg', 'key': 'u', 'origWidth': 409, 'origHeight': 409, 'width': 409, 'height': 409, 'widthPercent': 0.45, 'rescaleHeight': False, 'trialN': 102, 'loaded': True, 'loadedTime': 3303.199999988079, 'positionName': 'LEFT', 'positionCoords': [205.4, 195.5], 'bid': 5.03}, {'imgObject': {}, 'id': 'chickenfingers', 'src': '/static/foodstim60/chickenfingers.jpg', 'key': 'i', 'origWidth': 410, 'origHeight': 410, 'width': 410, 'height': 410, 'widthPercent': 0.45, 'rescaleHeight': False, 'trialN': 102, 'loaded': True, 'loadedTime': 3198.899999976158, 'positionName': 'RIGHT', 'positionCoords': [665.6, 195], 'bid': 5.04}]",256999.10000002384,1669838371972,hotdog w must,chickenfingers,5.03,5.04,0.009999999999999787,chickenfingers,1238.8999999761581,1248,1248.0,True,i,258752.10000002384,1753.0,1669838373725,1753,HRV,HRV_0270,2022-11-30 20:02:18
103,"[{'imgObject': {}, 'id': 'hotdog w must', 'src': '/static/foodstim60/hotdog w must.jpg', 'key': 'u', 'origWidth': 409, 'origHeight': 409, 'width': 409, 'height': 409, 'widthPercent': 0.45, 'rescaleHeight': False, 'trialN': 103, 'loaded': True, 'loadedTime': 3301, 'positionName': 'LEFT', 'positionCoords': [205.4, 195.5], 'bid': 5.03}, {'imgObject': {}, 'id': 'blackbeanswithrice', 'src': '/static/foodstim60/blackbeanswithrice.jpg', 'key': 'i', 'origWidth': 410, 'origHeight': 410, 'width': 410, 'height': 410, 'widthPercent': 0.45, 'rescaleHeight': False, 'trialN': 103, 'loaded': True, 'loadedTime': 3067.199999988079, 'positionName': 'RIGHT', 'positionCoords': [665.6, 195], 'bid': 4.82}]",258752.5,1669838373725,hotdog w must,blackbeanswithrice,5.03,4.82,-0.20999999999999996,blackbeanswithrice,2381.5,2385,2385.5,True,i,261640.0,2887.5,1669838376612,2887,HRV,HRV_0270,2022-11-30 20:02:18
104,"[{'imgObject': {}, 'id': 'baked potato', 'src': '/static/foodstim60/baked potato.jpg', 'key': 'u', 'origWidth': 409, 'origHeight': 410, 'width': 409, 'height': 410, 'widthPercent': 0.45, 'rescaleHeight': False, 'trialN': 104, 'loaded': True, 'loadedTime': 2833.600000023842, 'positionName': 'LEFT', 'positionCoords': [205.4, 195], 'bid': 3.0700000000000003}, {'imgObject': {}, 'id': 'froot loops w milk', 'src': '/static/foodstim60/froot loops w milk.jpg', 'key': 'i', 'origWidth': 410, 'origHeight': 410, 'width': 410, 'height': 410, 'widthPercent': 0.45, 'rescaleHeight': False, 'trialN': 104, 'loaded': True, 'loadedTime': 3020.300000011921, 'positionName': 'RIGHT', 'positionCoords': [665.6, 195], 'bid': 3.1}]",261640.30000001192,1669838376613,baked potato,froot loops w milk,3.0700000000000003,3.1,0.029999999999999805,baked potato,1797.699999988079,1802,1802.800000011921,True,u,263943.6999999881,2303.399999976158,1669838378916,2303,HRV,HRV_0270,2022-11-30 20:02:18
105,"[{'imgObject': {}, 'id': 'cocktailshrimp', 'src': '/static/foodstim60/cocktailshrimp.jpg', 'key': 'u', 'origWidth': 410, 'origHeight': 410, 'width': 410, 'height': 410, 'widthPercent': 0.45, 'rescaleHeight': False, 'trialN': 105, 'loaded': True, 'loadedTime': 2852.600000023842, 'positionName': 'LEFT', 'positionCoords': [204.4, 195], 'bid': 5}, {'imgObject': {}, 'id': 'ice cream sundae 002', 'src': '/static/foodstim60/ice cream sundae 002.jpg', 'key': 'i', 'origWidth': 409, 'origHeight': 409, 'width': 409, 'height': 409, 'widthPercent': 0.45, 'rescaleHeight': False, 'trialN': 105, 'loaded': True, 'loadedTime': 3356.300000011921, 'positionName': 'RIGHT', 'positionCoords': [665.6, 195.5], 'bid': 6.87}]",263944.10000002384,1669838378916,cocktailshrimp,ice cream sundae 002,5.0,6.87,1.87,ice cream sundae 002,1773.8999999761581,1778,1777.8999999761581,True,i,266224.0,2279.899999976158,1669838381196,2280,HRV,HRV_0270,2022-11-30 20:02:18
106,"[{'imgObject': {}, 'id': 'blueberries', 'src': '/static/foodstim60/blueberries.jpg', 'key': 'u', 'origWidth': 411, 'origHeight': 411, 'width': 411, 'height': 411, 'widthPercent': 0.45, 'rescaleHeight': False, 'trialN': 106, 'loaded': True, 'loadedTime': 3138.899999976158, 'positionName': 'LEFT', 'positionCoords': [203.4, 194.5], 'bid': 9.9}, {'imgObject': {}, 'id': 'rigatoni and sauce', 'src': '/static/foodstim60/rigatoni and sauce.jpg', 'key': 'i', 'origWidth': 410, 'origHeight': 411, 'width': 410, 'height': 411, 'widthPercent': 0.45, 'rescaleHeight': False, 'trialN': 106, 'loaded': True, 'loadedTime': 2977.699999988079, 'positionName': 'RIGHT', 'positionCoords': [665.6, 194.5], 'bid': 6.5}]",266224.10000002384,1669838381196,blueberries,rigatoni and sauce,9.9,6.5,-3.4000000000000004,blueberries,1501.8999999761581,1506,1505.8999999761581,True,u,268235.1999999881,2011.0999999642372,1669838383207,2011,HRV,HRV_0270,2022-11-30 20:02:18
107,"[{'imgObject': {}, 'id': 'veggieswithdip', 'src': '/static/foodstim60/veggieswithdip.jpg', 'key': 'u', 'origWidth': 409, 'origHeight': 409, 'width': 409, 'height': 409, 'widthPercent': 0.45, 'rescaleHeight': False, 'trialN': 107, 'loaded': True, 'loadedTime': 2978.300000011921, 'positionName': 'LEFT', 'positionCoords': [205.4, 195.5], 'bid': 4.98}, {'imgObject': {}, 'id': 'shreddedwheatwithmilk', 'src': '/static/foodstim60/shreddedwheatwithmilk.jpg', 'key': 'i', 'origWidth': 410, 'origHeight': 410, 'width': 410, 'height': 410, 'widthPercent': 0.45, 'rescaleHeight': False, 'trialN': 107, 'loaded': True, 'loadedTime': 2725.5, 'positionName': 'RIGHT', 'positionCoords': [665.6, 195], 'bid': 2.25}]",268235.5,1669838383208,veggieswithdip,shreddedwheatwithmilk,4.98,2.25,-2.7300000000000004,veggieswithdip,1210.5,1216,1216.699999988079,True,u,269957.39999997616,1721.8999999761581,1669838384930,1722,HRV,HRV_0270,2022-11-30 20:02:18
108,"[{'imgObject': {}, 'id': 'edamame', 'src': '/static/foodstim60/edamame.jpg', 'key': 'u', 'origWidth': 409, 'origHeight': 410, 'width': 409, 'height': 410, 'widthPercent': 0.45, 'rescaleHeight': False, 'trialN': 108, 'loaded': True, 'loadedTime': 2769, 'positionName': 'LEFT', 'positionCoords': [205.4, 195], 'bid': 3.37}, {'imgObject': {}, 'id': 'bagel and cc', 'src': '/static/foodstim60/bagel and cc.jpg', 'key': 'i', 'origWidth': 410, 'origHeight': 410, 'width': 410, 'height': 410, 'widthPercent': 0.45, 'rescaleHeight': False, 'trialN': 108, 'loaded': True, 'loadedTime': 2745.100000023842, 'positionName': 'RIGHT', 'positionCoords': [665.6, 195], 'bid': 2.43}]",269957.8000000119,1669838384930,edamame,bagel and cc,3.37,2.43,-0.94,edamame,2840.199999988079,2845,2844.599999964237,True,u,273307.60000002384,3349.800000011921,1669838388280,3350,HRV,HRV_0270,2022-11-30 20:02:18
