trialN,stimuli,question,trialStartTime,trialStartTime_UNIX,stimulus1,rt,receivedResponse,rating,trialEndTime,trialDuration,stimulus1Loaded,exp,subjectId,date
0,"[{'imgObject': {}, 'id': 'burrito', 'src': '/static/foodstim60/burrito.jpg', 'key': 'NaN', 'origWidth': 410, 'origHeight': 410, 'width': 410, 'height': 410, 'widthPercent': 0.8, 'rescaleHeight': True, 'trialN': 0, 'loaded': True, 'loadedTime': 76119.39999997616, 'positionName': 'CENTER', 'positionCoords': [435, 195]}]",Rate how much you want to eat this food from 0 (least) to 10 (most).,76440.29999995232,1669837792842,burrito,4141.0,True,6.48,80581.29999995232,4141.0,True,HRV,HRV_0270,2022-11-30 19:52:13
1,"[{'imgObject': {}, 'id': 'salad w chicken', 'src': '/static/foodstim60/salad w chicken.jpg', 'key': 'NaN', 'origWidth': 411, 'origHeight': 411, 'width': 411, 'height': 411, 'widthPercent': 0.8, 'rescaleHeight': True, 'trialN': 1, 'loaded': True, 'loadedTime': 76122.69999998808, 'positionName': 'CENTER', 'positionCoords': [434.5, 194.5]}]",Rate how much you want to eat this food from 0 (least) to 10 (most).,80585.89999997616,1669837796988,salad w chicken,3895.199999988079,True,3.65,84481.09999996424,3895.199999988079,True,HRV,HRV_0270,2022-11-30 19:52:13
2,"[{'imgObject': {}, 'id': 'banana', 'src': '/static/foodstim60/banana.jpg', 'key': 'NaN', 'origWidth': 410, 'origHeight': 410, 'width': 410, 'height': 410, 'widthPercent': 0.8, 'rescaleHeight': True, 'trialN': 2, 'loaded': True, 'loadedTime': 76125.19999998808, 'positionName': 'CENTER', 'positionCoords': [435, 195]}]",Rate how much you want to eat this food from 0 (least) to 10 (most).,84484.0,1669837800886,banana,1943.0999999642372,True,9.92,86427.09999996424,1943.0999999642372,True,HRV,HRV_0270,2022-11-30 19:52:13
3,"[{'imgObject': {}, 'id': 'ice cream sundae 002', 'src': '/static/foodstim60/ice cream sundae 002.jpg', 'key': 'NaN', 'origWidth': 409, 'origHeight': 409, 'width': 409, 'height': 409, 'widthPercent': 0.8, 'rescaleHeight': True, 'trialN': 3, 'loaded': True, 'loadedTime': 76126.79999995232, 'positionName': 'CENTER', 'positionCoords': [435.5, 195.5]}]",Rate how much you want to eat this food from 0 (least) to 10 (most).,86430.19999998808,1669837802832,ice cream sundae 002,2336.899999976158,True,6.87,88767.09999996424,2336.899999976158,True,HRV,HRV_0270,2022-11-30 19:52:13
4,"[{'imgObject': {}, 'id': 'cherries', 'src': '/static/foodstim60/cherries.jpg', 'key': 'NaN', 'origWidth': 410, 'origHeight': 411, 'width': 410, 'height': 411, 'widthPercent': 0.8, 'rescaleHeight': True, 'trialN': 4, 'loaded': True, 'loadedTime': 76128.29999995232, 'positionName': 'CENTER', 'positionCoords': [435, 194.5]}]",Rate how much you want to eat this food from 0 (least) to 10 (most).,88770.09999996424,1669837805172,cherries,4671.100000023842,True,1.84,93441.19999998808,4671.100000023842,True,HRV,HRV_0270,2022-11-30 19:52:13
5,"[{'imgObject': {}, 'id': 'burger', 'src': '/static/foodstim60/burger.jpg', 'key': 'NaN', 'origWidth': 409, 'origHeight': 409, 'width': 409, 'height': 409, 'widthPercent': 0.8, 'rescaleHeight': True, 'trialN': 5, 'loaded': True, 'loadedTime': 76154.5, 'positionName': 'CENTER', 'positionCoords': [435.5, 195.5]}]",Rate how much you want to eat this food from 0 (least) to 10 (most).,93444.39999997616,1669837809846,burger,3232.800000011921,True,5.01,96677.19999998808,3232.800000011921,True,HRV,HRV_0270,2022-11-30 19:52:13
6,"[{'imgObject': {}, 'id': 'raspberries', 'src': '/static/foodstim60/raspberries.jpg', 'key': 'NaN', 'origWidth': 411, 'origHeight': 411, 'width': 411, 'height': 411, 'widthPercent': 0.8, 'rescaleHeight': True, 'trialN': 6, 'loaded': True, 'loadedTime': 76160.19999998808, 'positionName': 'CENTER', 'positionCoords': [434.5, 194.5]}]",Rate how much you want to eat this food from 0 (least) to 10 (most).,96680.5,1669837813082,raspberries,1586.5999999642372,True,9.82,98267.09999996424,1586.5999999642372,True,HRV,HRV_0270,2022-11-30 19:52:13
7,"[{'imgObject': {}, 'id': 'salmon', 'src': '/static/foodstim60/salmon.jpg', 'key': 'NaN', 'origWidth': 410, 'origHeight': 409, 'width': 410, 'height': 409, 'widthPercent': 0.8, 'rescaleHeight': True, 'trialN': 7, 'loaded': True, 'loadedTime': 76164.5, 'positionName': 'CENTER', 'positionCoords': [435, 195.5]}]",Rate how much you want to eat this food from 0 (least) to 10 (most).,98270.19999998808,1669837814671,salmon,1861.0999999642372,True,5.0600000000000005,100131.29999995232,1861.0999999642372,True,HRV,HRV_0270,2022-11-30 19:52:13
8,"[{'imgObject': {}, 'id': 'seaweed', 'src': '/static/foodstim60/seaweed.jpg', 'key': 'NaN', 'origWidth': 410, 'origHeight': 410, 'width': 410, 'height': 410, 'widthPercent': 0.8, 'rescaleHeight': True, 'trialN': 8, 'loaded': True, 'loadedTime': 76168.19999998808, 'positionName': 'CENTER', 'positionCoords': [435, 195]}]",Rate how much you want to eat this food from 0 (least) to 10 (most).,100134.5,1669837816536,seaweed,1988.7999999523163,True,3.0300000000000002,102123.29999995232,1988.7999999523163,True,HRV,HRV_0270,2022-11-30 19:52:13
9,"[{'imgObject': {}, 'id': 'sushi w_condiments', 'src': '/static/foodstim60/sushi w_condiments.jpg', 'key': 'NaN', 'origWidth': 410, 'origHeight': 410, 'width': 410, 'height': 410, 'widthPercent': 0.8, 'rescaleHeight': True, 'trialN': 9, 'loaded': True, 'loadedTime': 76174.09999996424, 'positionName': 'CENTER', 'positionCoords': [435, 195]}]",Rate how much you want to eat this food from 0 (least) to 10 (most).,102126.59999996424,1669837818528,sushi w_condiments,1476.0,True,8.51,103602.59999996424,1476.0,True,HRV,HRV_0270,2022-11-30 19:52:13
10,"[{'imgObject': {}, 'id': 'turkey sandwich', 'src': '/static/foodstim60/turkey sandwich.jpg', 'key': 'NaN', 'origWidth': 409, 'origHeight': 409, 'width': 409, 'height': 409, 'widthPercent': 0.8, 'rescaleHeight': True, 'trialN': 10, 'loaded': True, 'loadedTime': 76171.89999997616, 'positionName': 'CENTER', 'positionCoords': [435.5, 195.5]}]",Rate how much you want to eat this food from 0 (least) to 10 (most).,103605.5,1669837820006,turkey sandwich,1951.699999988079,True,10.0,105557.19999998808,1951.699999988079,True,HRV,HRV_0270,2022-11-30 19:52:13
11,"[{'imgObject': {}, 'id': 'fruitsalad', 'src': '/static/foodstim60/fruitsalad.jpg', 'key': 'NaN', 'origWidth': 410, 'origHeight': 410, 'width': 410, 'height': 410, 'widthPercent': 0.8, 'rescaleHeight': True, 'trialN': 11, 'loaded': True, 'loadedTime': 76204, 'positionName': 'CENTER', 'positionCoords': [435, 195]}]",Rate how much you want to eat this food from 0 (least) to 10 (most).,105560.79999995232,1669837821962,fruitsalad,2549.900000035763,True,10.0,108110.69999998808,2549.900000035763,True,HRV,HRV_0270,2022-11-30 19:52:13
12,"[{'imgObject': {}, 'id': 'bagel plain', 'src': '/static/foodstim60/bagel plain.jpg', 'key': 'NaN', 'origWidth': 410, 'origHeight': 410, 'width': 410, 'height': 410, 'widthPercent': 0.8, 'rescaleHeight': True, 'trialN': 12, 'loaded': True, 'loadedTime': 76219.09999996424, 'positionName': 'CENTER', 'positionCoords': [435, 195]}]",Rate how much you want to eat this food from 0 (least) to 10 (most).,108113.69999998808,1669837824515,bagel plain,2205.599999964237,True,2.2,110319.29999995232,2205.599999964237,True,HRV,HRV_0270,2022-11-30 19:52:13
13,"[{'imgObject': {}, 'id': 'steak', 'src': '/static/foodstim60/steak.jpg', 'key': 'NaN', 'origWidth': 410, 'origHeight': 410, 'width': 410, 'height': 410, 'widthPercent': 0.8, 'rescaleHeight': True, 'trialN': 13, 'loaded': True, 'loadedTime': 76223.39999997616, 'positionName': 'CENTER', 'positionCoords': [435, 195]}]",Rate how much you want to eat this food from 0 (least) to 10 (most).,110322.69999998808,1669837826724,steak,1627.800000011921,True,4.98,111950.5,1627.800000011921,True,HRV,HRV_0270,2022-11-30 19:52:13
14,"[{'imgObject': {}, 'id': 'bagel and cc', 'src': '/static/foodstim60/bagel and cc.jpg', 'key': 'NaN', 'origWidth': 410, 'origHeight': 410, 'width': 410, 'height': 410, 'widthPercent': 0.8, 'rescaleHeight': True, 'trialN': 14, 'loaded': True, 'loadedTime': 76221.39999997616, 'positionName': 'CENTER', 'positionCoords': [435, 195]}]",Rate how much you want to eat this food from 0 (least) to 10 (most).,111954.19999998808,1669837828355,bagel and cc,2406.800000011921,True,2.43,114361.0,2406.800000011921,True,HRV,HRV_0270,2022-11-30 19:52:13
15,"[{'imgObject': {}, 'id': 'mac & cheese', 'src': '/static/foodstim60/mac & cheese.jpg', 'key': 'NaN', 'origWidth': 410, 'origHeight': 410, 'width': 410, 'height': 410, 'widthPercent': 0.8, 'rescaleHeight': True, 'trialN': 15, 'loaded': True, 'loadedTime': 76225.79999995232, 'positionName': 'CENTER', 'positionCoords': [435, 195]}]",Rate how much you want to eat this food from 0 (least) to 10 (most).,114364.59999996424,1669837830765,mac & cheese,2312.5,True,7.8500000000000005,116677.09999996424,2312.5,True,HRV,HRV_0270,2022-11-30 19:52:13
16,"[{'imgObject': {}, 'id': 'pear', 'src': '/static/foodstim60/pear.jpg', 'key': 'NaN', 'origWidth': 411, 'origHeight': 410, 'width': 411, 'height': 410, 'widthPercent': 0.8, 'rescaleHeight': True, 'trialN': 16, 'loaded': True, 'loadedTime': 76228, 'positionName': 'CENTER', 'positionCoords': [434.5, 195]}]",Rate how much you want to eat this food from 0 (least) to 10 (most).,116680.19999998808,1669837833081,pear,2530.800000011921,True,8.120000000000001,119211.0,2530.800000011921,True,HRV,HRV_0270,2022-11-30 19:52:13
17,"[{'imgObject': {}, 'id': 'chickenfingers', 'src': '/static/foodstim60/chickenfingers.jpg', 'key': 'NaN', 'origWidth': 410, 'origHeight': 410, 'width': 410, 'height': 410, 'widthPercent': 0.8, 'rescaleHeight': True, 'trialN': 17, 'loaded': True, 'loadedTime': 76251.39999997616, 'positionName': 'CENTER', 'positionCoords': [435, 195]}]",Rate how much you want to eat this food from 0 (least) to 10 (most).,119213.59999996424,1669837835614,chickenfingers,3599.699999988079,True,5.04,122813.29999995232,3599.699999988079,True,HRV,HRV_0270,2022-11-30 19:52:13
18,"[{'imgObject': {}, 'id': 'cheerios', 'src': '/static/foodstim60/cheerios.jpg', 'key': 'NaN', 'origWidth': 409, 'origHeight': 410, 'width': 409, 'height': 410, 'widthPercent': 0.8, 'rescaleHeight': True, 'trialN': 18, 'loaded': True, 'loadedTime': 76255.19999998808, 'positionName': 'CENTER', 'positionCoords': [435.5, 195]}]",Rate how much you want to eat this food from 0 (least) to 10 (most).,122817.0,1669837839218,cheerios,2388.199999988079,True,5.0,125205.19999998808,2388.199999988079,True,HRV,HRV_0270,2022-11-30 19:52:13
19,"[{'imgObject': {}, 'id': 'popsicles', 'src': '/static/foodstim60/popsicles.jpg', 'key': 'NaN', 'origWidth': 410, 'origHeight': 410, 'width': 410, 'height': 410, 'widthPercent': 0.8, 'rescaleHeight': True, 'trialN': 19, 'loaded': True, 'loadedTime': 76257.59999996424, 'positionName': 'CENTER', 'positionCoords': [435, 195]}]",Rate how much you want to eat this food from 0 (least) to 10 (most).,125209.09999996424,1669837841610,popsicles,1551.4000000357628,True,4.9,126760.5,1551.4000000357628,True,HRV,HRV_0270,2022-11-30 19:52:13
20,"[{'imgObject': {}, 'id': 'apple slices', 'src': '/static/foodstim60/apple slices.jpg', 'key': 'NaN', 'origWidth': 409, 'origHeight': 410, 'width': 409, 'height': 410, 'widthPercent': 0.8, 'rescaleHeight': True, 'trialN': 20, 'loaded': True, 'loadedTime': 76261.29999995232, 'positionName': 'CENTER', 'positionCoords': [435.5, 195]}]",Rate how much you want to eat this food from 0 (least) to 10 (most).,126763.59999996424,1669837843164,apple slices,2125.199999988079,True,6.8500000000000005,128888.79999995232,2125.199999988079,True,HRV,HRV_0270,2022-11-30 19:52:13
21,"[{'imgObject': {}, 'id': 'cherry tomato', 'src': '/static/foodstim60/cherry tomato.jpg', 'key': 'NaN', 'origWidth': 410, 'origHeight': 410, 'width': 410, 'height': 410, 'widthPercent': 0.8, 'rescaleHeight': True, 'trialN': 21, 'loaded': True, 'loadedTime': 76263.69999998808, 'positionName': 'CENTER', 'positionCoords': [435, 195]}]",Rate how much you want to eat this food from 0 (least) to 10 (most).,128891.79999995232,1669837845292,cherry tomato,1905.4000000357628,True,2.96,130797.19999998808,1905.4000000357628,True,HRV,HRV_0270,2022-11-30 19:52:13
22,"[{'imgObject': {}, 'id': 'mango', 'src': '/static/foodstim60/mango.jpg', 'key': 'NaN', 'origWidth': 411, 'origHeight': 411, 'width': 411, 'height': 411, 'widthPercent': 0.8, 'rescaleHeight': True, 'trialN': 22, 'loaded': True, 'loadedTime': 76265.5, 'positionName': 'CENTER', 'positionCoords': [434.5, 194.5]}]",Rate how much you want to eat this food from 0 (least) to 10 (most).,130800.09999996424,1669837847200,mango,1666.6000000238419,True,2.7600000000000002,132466.69999998808,1666.6000000238419,True,HRV,HRV_0270,2022-11-30 19:52:13
23,"[{'imgObject': {}, 'id': 'mashed potato', 'src': '/static/foodstim60/mashed potato.jpg', 'key': 'NaN', 'origWidth': 409, 'origHeight': 409, 'width': 409, 'height': 409, 'widthPercent': 0.8, 'rescaleHeight': True, 'trialN': 23, 'loaded': True, 'loadedTime': 76281.29999995232, 'positionName': 'CENTER', 'positionCoords': [435.5, 195.5]}]",Rate how much you want to eat this food from 0 (least) to 10 (most).,132469.0,1669837848869,mashed potato,1918.199999988079,True,6.890000000000001,134387.19999998808,1918.199999988079,True,HRV,HRV_0270,2022-11-30 19:52:13
24,"[{'imgObject': {}, 'id': 'baked potato', 'src': '/static/foodstim60/baked potato.jpg', 'key': 'NaN', 'origWidth': 409, 'origHeight': 410, 'width': 409, 'height': 410, 'widthPercent': 0.8, 'rescaleHeight': True, 'trialN': 24, 'loaded': True, 'loadedTime': 76282.89999997616, 'positionName': 'CENTER', 'positionCoords': [435.5, 195]}]",Rate how much you want to eat this food from 0 (least) to 10 (most).,134390.29999995232,1669837850791,baked potato,2232.800000011921,True,3.0700000000000003,136623.09999996424,2232.800000011921,True,HRV,HRV_0270,2022-11-30 19:52:13
25,"[{'imgObject': {}, 'id': 'hotdog w must', 'src': '/static/foodstim60/hotdog w must.jpg', 'key': 'NaN', 'origWidth': 409, 'origHeight': 409, 'width': 409, 'height': 409, 'widthPercent': 0.8, 'rescaleHeight': True, 'trialN': 25, 'loaded': True, 'loadedTime': 76284.59999996424, 'positionName': 'CENTER', 'positionCoords': [435.5, 195.5]}]",Rate how much you want to eat this food from 0 (least) to 10 (most).,136626.39999997616,1669837853027,hotdog w must,2016.3999999761581,True,5.03,138642.79999995232,2016.3999999761581,True,HRV,HRV_0270,2022-11-30 19:52:13
26,"[{'imgObject': {}, 'id': 'roastedpotatoes', 'src': '/static/foodstim60/roastedpotatoes.jpg', 'key': 'NaN', 'origWidth': 409, 'origHeight': 410, 'width': 409, 'height': 410, 'widthPercent': 0.8, 'rescaleHeight': True, 'trialN': 26, 'loaded': True, 'loadedTime': 76287.5, 'positionName': 'CENTER', 'positionCoords': [435.5, 195]}]",Rate how much you want to eat this food from 0 (least) to 10 (most).,138646.19999998808,1669837855046,roastedpotatoes,1488.8999999761581,True,6.67,140135.09999996424,1488.8999999761581,True,HRV,HRV_0270,2022-11-30 19:52:13
27,"[{'imgObject': {}, 'id': 'sweetpotato', 'src': '/static/foodstim60/sweetpotato.jpg', 'key': 'NaN', 'origWidth': 410, 'origHeight': 410, 'width': 410, 'height': 410, 'widthPercent': 0.8, 'rescaleHeight': True, 'trialN': 27, 'loaded': True, 'loadedTime': 76289.19999998808, 'positionName': 'CENTER', 'positionCoords': [435, 195]}]",Rate how much you want to eat this food from 0 (least) to 10 (most).,140138.19999998808,1669837856538,sweetpotato,4777.099999964237,True,4.96,144915.29999995232,4777.099999964237,True,HRV,HRV_0270,2022-11-30 19:52:13
28,"[{'imgObject': {}, 'id': 'veggieswithdip', 'src': '/static/foodstim60/veggieswithdip.jpg', 'key': 'NaN', 'origWidth': 409, 'origHeight': 409, 'width': 409, 'height': 409, 'widthPercent': 0.8, 'rescaleHeight': True, 'trialN': 28, 'loaded': True, 'loadedTime': 76293.19999998808, 'positionName': 'CENTER', 'positionCoords': [435.5, 195.5]}]",Rate how much you want to eat this food from 0 (least) to 10 (most).,144918.69999998808,1669837861319,veggieswithdip,3584.5,True,4.98,148503.19999998808,3584.5,True,HRV,HRV_0270,2022-11-30 19:52:13
29,"[{'imgObject': {}, 'id': 'chicken nuggets2', 'src': '/static/foodstim60/chicken nuggets2.jpg', 'key': 'NaN', 'origWidth': 410, 'origHeight': 409, 'width': 410, 'height': 409, 'widthPercent': 0.8, 'rescaleHeight': True, 'trialN': 29, 'loaded': True, 'loadedTime': 76306.29999995232, 'positionName': 'CENTER', 'positionCoords': [435, 195.5]}]",Rate how much you want to eat this food from 0 (least) to 10 (most).,148506.79999995232,1669837864907,chicken nuggets2,1764.4000000357628,True,6.28,150271.19999998808,1764.4000000357628,True,HRV,HRV_0270,2022-11-30 19:52:13
30,"[{'imgObject': {}, 'id': 'luckycharms', 'src': '/static/foodstim60/luckycharms.jpg', 'key': 'NaN', 'origWidth': 410, 'origHeight': 409, 'width': 410, 'height': 409, 'widthPercent': 0.8, 'rescaleHeight': True, 'trialN': 30, 'loaded': True, 'loadedTime': 76319.59999996424, 'positionName': 'CENTER', 'positionCoords': [435, 195.5]}]",Rate how much you want to eat this food from 0 (least) to 10 (most).,150274.79999995232,1669837866675,luckycharms,2356.100000023842,True,2.14,152630.89999997616,2356.100000023842,True,HRV,HRV_0270,2022-11-30 19:52:13
31,"[{'imgObject': {}, 'id': 'avocado', 'src': '/static/foodstim60/avocado.jpg', 'key': 'NaN', 'origWidth': 409, 'origHeight': 409, 'width': 409, 'height': 409, 'widthPercent': 0.8, 'rescaleHeight': True, 'trialN': 31, 'loaded': True, 'loadedTime': 76321, 'positionName': 'CENTER', 'positionCoords': [435.5, 195.5]}]",Rate how much you want to eat this food from 0 (least) to 10 (most).,152634.0,1669837869034,avocado,1649.0999999642372,True,0.17,154283.09999996424,1649.0999999642372,True,HRV,HRV_0270,2022-11-30 19:52:13
32,"[{'imgObject': {}, 'id': 'eggsalad', 'src': '/static/foodstim60/eggsalad.jpg', 'key': 'NaN', 'origWidth': 410, 'origHeight': 409, 'width': 410, 'height': 409, 'widthPercent': 0.8, 'rescaleHeight': True, 'trialN': 32, 'loaded': True, 'loadedTime': 76322.39999997616, 'positionName': 'CENTER', 'positionCoords': [435, 195.5]}]",Rate how much you want to eat this food from 0 (least) to 10 (most).,154286.89999997616,1669837870687,eggsalad,1551.3999999761581,True,0.0,155838.29999995232,1551.3999999761581,True,HRV,HRV_0270,2022-11-30 19:52:13
33,"[{'imgObject': {}, 'id': 'granola w milk', 'src': '/static/foodstim60/granola w milk.jpg', 'key': 'NaN', 'origWidth': 410, 'origHeight': 410, 'width': 410, 'height': 410, 'widthPercent': 0.8, 'rescaleHeight': True, 'trialN': 33, 'loaded': True, 'loadedTime': 76323.79999995232, 'positionName': 'CENTER', 'positionCoords': [435, 195]}]",Rate how much you want to eat this food from 0 (least) to 10 (most).,155842.19999998808,1669837872242,granola w milk,4393.0,True,3.95,160235.19999998808,4393.0,True,HRV,HRV_0270,2022-11-30 19:52:13
34,"[{'imgObject': {}, 'id': 'tacos', 'src': '/static/foodstim60/tacos.jpg', 'key': 'NaN', 'origWidth': 411, 'origHeight': 411, 'width': 411, 'height': 411, 'widthPercent': 0.8, 'rescaleHeight': True, 'trialN': 34, 'loaded': True, 'loadedTime': 76325.5, 'positionName': 'CENTER', 'positionCoords': [434.5, 194.5]}]",Rate how much you want to eat this food from 0 (least) to 10 (most).,160239.29999995232,1669837876639,tacos,2845.600000023842,True,6.51,163084.89999997616,2845.600000023842,True,HRV,HRV_0270,2022-11-30 19:52:13
35,"[{'imgObject': {}, 'id': 'rigatoni and sauce', 'src': '/static/foodstim60/rigatoni and sauce.jpg', 'key': 'NaN', 'origWidth': 410, 'origHeight': 411, 'width': 410, 'height': 411, 'widthPercent': 0.8, 'rescaleHeight': True, 'trialN': 35, 'loaded': True, 'loadedTime': 76341.19999998808, 'positionName': 'CENTER', 'positionCoords': [435, 194.5]}]",Rate how much you want to eat this food from 0 (least) to 10 (most).,163087.19999998808,1669837879487,rigatoni and sauce,2167.399999976158,True,6.5,165254.59999996424,2167.399999976158,True,HRV,HRV_0270,2022-11-30 19:52:13
36,"[{'imgObject': {}, 'id': 'cantaloupe', 'src': '/static/foodstim60/cantaloupe.jpg', 'key': 'NaN', 'origWidth': 409, 'origHeight': 409, 'width': 409, 'height': 409, 'widthPercent': 0.8, 'rescaleHeight': True, 'trialN': 36, 'loaded': True, 'loadedTime': 76343, 'positionName': 'CENTER', 'positionCoords': [435.5, 195.5]}]",Rate how much you want to eat this food from 0 (least) to 10 (most).,165257.39999997616,1669837881657,cantaloupe,3221.800000011921,True,6.54,168479.19999998808,3221.800000011921,True,HRV,HRV_0270,2022-11-30 19:52:13
37,"[{'imgObject': {}, 'id': 'omelette', 'src': '/static/foodstim60/omelette.jpg', 'key': 'NaN', 'origWidth': 410, 'origHeight': 409, 'width': 410, 'height': 409, 'widthPercent': 0.8, 'rescaleHeight': True, 'trialN': 37, 'loaded': True, 'loadedTime': 76344.69999998808, 'positionName': 'CENTER', 'positionCoords': [435, 195.5]}]",Rate how much you want to eat this food from 0 (least) to 10 (most).,168482.29999995232,1669837884882,omelette,2038.9000000357628,True,0.04,170521.19999998808,2038.9000000357628,True,HRV,HRV_0270,2022-11-30 19:52:13
38,"[{'imgObject': {}, 'id': 'kiwi', 'src': '/static/foodstim60/kiwi.jpg', 'key': 'NaN', 'origWidth': 410, 'origHeight': 410, 'width': 410, 'height': 410, 'widthPercent': 0.8, 'rescaleHeight': True, 'trialN': 38, 'loaded': True, 'loadedTime': 76346.39999997616, 'positionName': 'CENTER', 'positionCoords': [435, 195]}]",Rate how much you want to eat this food from 0 (least) to 10 (most).,170524.39999997616,1669837886924,kiwi,1452.3999999761581,True,6.96,171976.79999995232,1452.3999999761581,True,HRV,HRV_0270,2022-11-30 19:52:13
39,"[{'imgObject': {}, 'id': 'olives', 'src': '/static/foodstim60/olives.jpg', 'key': 'NaN', 'origWidth': 410, 'origHeight': 410, 'width': 410, 'height': 410, 'widthPercent': 0.8, 'rescaleHeight': True, 'trialN': 39, 'loaded': True, 'loadedTime': 76348.19999998808, 'positionName': 'CENTER', 'positionCoords': [435, 195]}]",Rate how much you want to eat this food from 0 (least) to 10 (most).,171979.39999997616,1669837888379,olives,1491.699999988079,True,0.06,173471.09999996424,1491.699999988079,True,HRV,HRV_0270,2022-11-30 19:52:13
40,"[{'imgObject': {}, 'id': 'blueberries', 'src': '/static/foodstim60/blueberries.jpg', 'key': 'NaN', 'origWidth': 411, 'origHeight': 411, 'width': 411, 'height': 411, 'widthPercent': 0.8, 'rescaleHeight': True, 'trialN': 40, 'loaded': True, 'loadedTime': 76349.89999997616, 'positionName': 'CENTER', 'positionCoords': [434.5, 194.5]}]",Rate how much you want to eat this food from 0 (least) to 10 (most).,173474.39999997616,1669837889874,blueberries,2318.899999976158,True,9.9,175793.29999995232,2318.899999976158,True,HRV,HRV_0270,2022-11-30 19:52:13
41,"[{'imgObject': {}, 'id': 'cocktailshrimp', 'src': '/static/foodstim60/cocktailshrimp.jpg', 'key': 'NaN', 'origWidth': 410, 'origHeight': 410, 'width': 410, 'height': 410, 'widthPercent': 0.8, 'rescaleHeight': True, 'trialN': 41, 'loaded': True, 'loadedTime': 76366, 'positionName': 'CENTER', 'positionCoords': [435, 195]}]",Rate how much you want to eat this food from 0 (least) to 10 (most).,175796.59999996424,1669837892196,cocktailshrimp,1636.6000000238419,True,5.0,177433.19999998808,1636.6000000238419,True,HRV,HRV_0270,2022-11-30 19:52:13
42,"[{'imgObject': {}, 'id': 'turkeysandwich', 'src': '/static/foodstim60/turkeysandwich.jpg', 'key': 'NaN', 'origWidth': 409, 'origHeight': 409, 'width': 409, 'height': 409, 'widthPercent': 0.8, 'rescaleHeight': True, 'trialN': 42, 'loaded': True, 'loadedTime': 76367.29999995232, 'positionName': 'CENTER', 'positionCoords': [435.5, 195.5]}]",Rate how much you want to eat this food from 0 (least) to 10 (most).,177436.19999998808,1669837893835,turkeysandwich,1660.8999999761581,True,4.8500000000000005,179097.09999996424,1660.8999999761581,True,HRV,HRV_0270,2022-11-30 19:52:13
43,"[{'imgObject': {}, 'id': 'grilled chicken strips', 'src': '/static/foodstim60/grilled chicken strips.jpg', 'key': 'NaN', 'origWidth': 410, 'origHeight': 411, 'width': 410, 'height': 411, 'widthPercent': 0.8, 'rescaleHeight': True, 'trialN': 43, 'loaded': True, 'loadedTime': 76368.59999996424, 'positionName': 'CENTER', 'positionCoords': [435, 194.5]}]",Rate how much you want to eat this food from 0 (least) to 10 (most).,179100.69999998808,1669837895500,grilled chicken strips,1122.300000011921,True,6.7,180223.0,1122.300000011921,True,HRV,HRV_0270,2022-11-30 19:52:13
44,"[{'imgObject': {}, 'id': 'Tribe humus pita', 'src': '/static/foodstim60/Tribe humus pita.jpg', 'key': 'NaN', 'origWidth': 411, 'origHeight': 411, 'width': 411, 'height': 411, 'widthPercent': 0.8, 'rescaleHeight': True, 'trialN': 44, 'loaded': True, 'loadedTime': 76370.5, 'positionName': 'CENTER', 'positionCoords': [434.5, 194.5]}]",Rate how much you want to eat this food from 0 (least) to 10 (most).,180225.79999995232,1669837896625,Tribe humus pita,124.80000001192093,True,6.7,180350.59999996424,124.80000001192093,True,HRV,HRV_0270,2022-11-30 19:52:13
45,"[{'imgObject': {}, 'id': 'Grapes', 'src': '/static/foodstim60/Grapes.jpg', 'key': 'NaN', 'origWidth': 411, 'origHeight': 411, 'width': 411, 'height': 411, 'widthPercent': 0.8, 'rescaleHeight': True, 'trialN': 45, 'loaded': True, 'loadedTime': 76372.5, 'positionName': 'CENTER', 'positionCoords': [434.5, 194.5]}]",Rate how much you want to eat this food from 0 (least) to 10 (most).,180353.69999998808,1669837896753,Grapes,2104.899999976158,True,10.0,182458.59999996424,2104.899999976158,True,HRV,HRV_0270,2022-11-30 19:52:13
46,"[{'imgObject': {}, 'id': 'edamame', 'src': '/static/foodstim60/edamame.jpg', 'key': 'NaN', 'origWidth': 409, 'origHeight': 410, 'width': 409, 'height': 410, 'widthPercent': 0.8, 'rescaleHeight': True, 'trialN': 46, 'loaded': True, 'loadedTime': 76374.09999996424, 'positionName': 'CENTER', 'positionCoords': [435.5, 195]}]",Rate how much you want to eat this food from 0 (least) to 10 (most).,182461.39999997616,1669837898860,edamame,3483.199999988079,True,3.37,185944.59999996424,3483.199999988079,True,HRV,HRV_0270,2022-11-30 19:52:13
47,"[{'imgObject': {}, 'id': 'rigatoni', 'src': '/static/foodstim60/rigatoni.jpg', 'key': 'NaN', 'origWidth': 411, 'origHeight': 411, 'width': 411, 'height': 411, 'widthPercent': 0.8, 'rescaleHeight': True, 'trialN': 47, 'loaded': True, 'loadedTime': 76391.19999998808, 'positionName': 'CENTER', 'positionCoords': [434.5, 194.5]}]",Rate how much you want to eat this food from 0 (least) to 10 (most).,185948.79999995232,1669837902348,rigatoni,2139.900000035763,True,2.07,188088.69999998808,2139.900000035763,True,HRV,HRV_0270,2022-11-30 19:52:13
48,"[{'imgObject': {}, 'id': 'shreddedwheatwithmilk', 'src': '/static/foodstim60/shreddedwheatwithmilk.jpg', 'key': 'NaN', 'origWidth': 410, 'origHeight': 410, 'width': 410, 'height': 410, 'widthPercent': 0.8, 'rescaleHeight': True, 'trialN': 48, 'loaded': True, 'loadedTime': 76393.69999998808, 'positionName': 'CENTER', 'positionCoords': [435, 195]}]",Rate how much you want to eat this food from 0 (least) to 10 (most).,188092.29999995232,1669837904491,shreddedwheatwithmilk,3050.900000035763,True,2.25,191143.19999998808,3050.900000035763,True,HRV,HRV_0270,2022-11-30 19:52:13
49,"[{'imgObject': {}, 'id': 'raisin bran w milk', 'src': '/static/foodstim60/raisin bran w milk.jpg', 'key': 'NaN', 'origWidth': 411, 'origHeight': 411, 'width': 411, 'height': 411, 'widthPercent': 0.8, 'rescaleHeight': True, 'trialN': 49, 'loaded': True, 'loadedTime': 76395.69999998808, 'positionName': 'CENTER', 'positionCoords': [434.5, 194.5]}]",Rate how much you want to eat this food from 0 (least) to 10 (most).,191147.09999996424,1669837907546,raisin bran w milk,1693.5,True,4.98,192840.59999996424,1693.5,True,HRV,HRV_0270,2022-11-30 19:52:13
50,"[{'imgObject': {}, 'id': 'corn cob', 'src': '/static/foodstim60/corn cob.jpg', 'key': 'NaN', 'origWidth': 411, 'origHeight': 411, 'width': 411, 'height': 411, 'widthPercent': 0.8, 'rescaleHeight': True, 'trialN': 50, 'loaded': True, 'loadedTime': 76397.39999997616, 'positionName': 'CENTER', 'positionCoords': [434.5, 194.5]}]",Rate how much you want to eat this food from 0 (least) to 10 (most).,192843.29999995232,1669837909242,corn cob,3801.900000035763,True,3.71,196645.19999998808,3801.900000035763,True,HRV,HRV_0270,2022-11-30 19:52:13
51,"[{'imgObject': {}, 'id': 'strawberries', 'src': '/static/foodstim60/strawberries.jpg', 'key': 'NaN', 'origWidth': 410, 'origHeight': 410, 'width': 410, 'height': 410, 'widthPercent': 0.8, 'rescaleHeight': True, 'trialN': 51, 'loaded': True, 'loadedTime': 76398.89999997616, 'positionName': 'CENTER', 'positionCoords': [435, 195]}]",Rate how much you want to eat this food from 0 (least) to 10 (most).,196649.09999996424,1669837913048,strawberries,1693.9000000357628,True,9.84,198343.0,1693.9000000357628,True,HRV,HRV_0270,2022-11-30 19:52:13
52,"[{'imgObject': {}, 'id': 'eggs', 'src': '/static/foodstim60/eggs.jpg', 'key': 'NaN', 'origWidth': 409, 'origHeight': 409, 'width': 409, 'height': 409, 'widthPercent': 0.8, 'rescaleHeight': True, 'trialN': 52, 'loaded': True, 'loadedTime': 76400.79999995232, 'positionName': 'CENTER', 'positionCoords': [435.5, 195.5]}]",Rate how much you want to eat this food from 0 (least) to 10 (most).,198346.19999998808,1669837914745,eggs,1504.5999999642372,True,0.1,199850.79999995232,1504.5999999642372,True,HRV,HRV_0270,2022-11-30 19:52:13
53,"[{'imgObject': {}, 'id': 'orange slices', 'src': '/static/foodstim60/orange slices.jpg', 'key': 'NaN', 'origWidth': 409, 'origHeight': 410, 'width': 409, 'height': 410, 'widthPercent': 0.8, 'rescaleHeight': True, 'trialN': 53, 'loaded': True, 'loadedTime': 76416.79999995232, 'positionName': 'CENTER', 'positionCoords': [435.5, 195]}]",Rate how much you want to eat this food from 0 (least) to 10 (most).,199853.89999997616,1669837916252,orange slices,3733.300000011921,True,10.0,203587.19999998808,3733.300000011921,True,HRV,HRV_0270,2022-11-30 19:52:13
54,"[{'imgObject': {}, 'id': 'froot loops w milk', 'src': '/static/foodstim60/froot loops w milk.jpg', 'key': 'NaN', 'origWidth': 410, 'origHeight': 410, 'width': 410, 'height': 410, 'widthPercent': 0.8, 'rescaleHeight': True, 'trialN': 54, 'loaded': True, 'loadedTime': 76419, 'positionName': 'CENTER', 'positionCoords': [435, 195]}]",Rate how much you want to eat this food from 0 (least) to 10 (most).,203590.29999995232,1669837919989,froot loops w milk,1952.9000000357628,True,3.1,205543.19999998808,1952.9000000357628,True,HRV,HRV_0270,2022-11-30 19:52:13
55,"[{'imgObject': {}, 'id': 'fried eggs', 'src': '/static/foodstim60/fried eggs.jpg', 'key': 'NaN', 'origWidth': 410, 'origHeight': 410, 'width': 410, 'height': 410, 'widthPercent': 0.8, 'rescaleHeight': True, 'trialN': 55, 'loaded': True, 'loadedTime': 76420.69999998808, 'positionName': 'CENTER', 'positionCoords': [435, 195]}]",Rate how much you want to eat this food from 0 (least) to 10 (most).,205546.29999995232,1669837921945,fried eggs,1528.800000011921,True,0.2,207075.09999996424,1528.800000011921,True,HRV,HRV_0270,2022-11-30 19:52:13
56,"[{'imgObject': {}, 'id': 'yogurt no spoon', 'src': '/static/foodstim60/yogurt no spoon.jpg', 'key': 'NaN', 'origWidth': 411, 'origHeight': 410, 'width': 411, 'height': 410, 'widthPercent': 0.8, 'rescaleHeight': True, 'trialN': 56, 'loaded': True, 'loadedTime': 76422, 'positionName': 'CENTER', 'positionCoords': [434.5, 195]}]",Rate how much you want to eat this food from 0 (least) to 10 (most).,207078.39999997616,1669837923477,yogurt no spoon,4976.800000011921,True,1.84,212055.19999998808,4976.800000011921,True,HRV,HRV_0270,2022-11-30 19:52:13
57,"[{'imgObject': {}, 'id': 'hashbrowns', 'src': '/static/foodstim60/hashbrowns.jpg', 'key': 'NaN', 'origWidth': 411, 'origHeight': 410, 'width': 411, 'height': 410, 'widthPercent': 0.8, 'rescaleHeight': True, 'trialN': 57, 'loaded': True, 'loadedTime': 76423.59999996424, 'positionName': 'CENTER', 'positionCoords': [434.5, 195]}]",Rate how much you want to eat this food from 0 (least) to 10 (most).,212058.69999998808,1669837928457,hashbrowns,1727.699999988079,True,0.04,213786.39999997616,1727.699999988079,True,HRV,HRV_0270,2022-11-30 19:52:13
58,"[{'imgObject': {}, 'id': 'lox', 'src': '/static/foodstim60/lox.jpg', 'key': 'NaN', 'origWidth': 410, 'origHeight': 411, 'width': 410, 'height': 411, 'widthPercent': 0.8, 'rescaleHeight': True, 'trialN': 58, 'loaded': True, 'loadedTime': 76425.5, 'positionName': 'CENTER', 'positionCoords': [435, 194.5]}]",Rate how much you want to eat this food from 0 (least) to 10 (most).,213789.29999995232,1669837930187,lox,1406.0,True,0.0,215195.29999995232,1406.0,True,HRV,HRV_0270,2022-11-30 19:52:13
59,"[{'imgObject': {}, 'id': 'blackbeanswithrice', 'src': '/static/foodstim60/blackbeanswithrice.jpg', 'key': 'NaN', 'origWidth': 410, 'origHeight': 410, 'width': 410, 'height': 410, 'widthPercent': 0.8, 'rescaleHeight': True, 'trialN': 59, 'loaded': True, 'loadedTime': 76439.39999997616, 'positionName': 'CENTER', 'positionCoords': [435, 195]}]",Rate how much you want to eat this food from 0 (least) to 10 (most).,215198.79999995232,1669837931597,blackbeanswithrice,1466.5,True,4.82,216665.29999995232,1466.5,True,HRV,HRV_0270,2022-11-30 19:52:13
