success,trial_type,trial_index,time_elapsed,internal_node_id,Block,TrialNumber,TrialTime,trialTimeDiff,FPS_avg,FPS_med,FPS_mode,TrialDur,winResizeTime,rt,block,button_pressed,MotCoh,MotDir,ColCoh,Color,ChoiceKey,Choice,Accuracy,RT,nFrames,FPS,PPD,missTrial,missTrialMsg,onsetDelay,fullScreenExitTime,canvCenter,TrialType,Score,BlockTrial,stimulus,button_labels,exp,subjectId,date
True,fullscreen,0,1937,0.0-0.0,0.0,1.0,,,,,,,,,,,,,,,,,,,,,,,,,,,,,,,,HRV,HRV_0270,2022-11-30 20:27:22
,wl-check-fps,1,6939,0.0-1.0,0.0,2.0,"[2505.9, 2509.7, 2530, 2541.2, 2554.8, 2571.7, 2587.9, 2605.3, 2619.9, 2636.5, 2654.6, 2670.3, 2687.1, 2704.1, 2720.6, 2737.3, 2753.4, 2771.6, 2787.9, 2804.3, 2821, 2837.8, 2853.7, 2870.9, 2888.1, 2904.8, 2921.5, 2938.3, 2954.9, 2971.2, 2987.8, 3004.5, 3021, 3038.1, 3055.1, 3071, 3087.4, 3104.7, 3121.6, 3138.3, 3154.8, 3171.2, 3188, 3204.8, 3222.2, 3238.3, 3259.7, 3272, 3288.3, 3306, 3321.4, 3338.5, 3354.8, 3372.4, 3387.8, 3405.5, 3422.2, 3438.7, 3454.4, 3472.1, 3489.3, 3505.7, 3522.3, 3538.5, 3555.7, 3572.1, 3589.3, 3605.8, 3622.6, 3639.1, 3655.8, 3672.3, 3689.6, 3705.9, 3722.7, 3739.4, 3756.5, 3772.8, 3789.8, 3807.1, 3823.4, 3839.2, 3856.4, 3872.6, 3889.8, 3907.2, 3923.7, 3939.7, 3956.5, 3972.9, 3990.2, 4006, 4023.4, 4039.8, 4056.4, 4074, 4089.9, 4106.3, 4122.7, 4139.6, 4156.4, 4172.7, 4190.2, 4206.5, 4223.7, 4239.9, 4257, 4274.1, 4290.4, 4306.7, 4324.1, 4341.5, 4356.8, 4374.2, 4390.7, 4406.8, 4423.8, 4441.4, 4457.2, 4474.4, 4491, 4507.2, 4524.5, 4541.7, 4557.5, 4574.8, 4591.2, 4608.4, 4624.6, 4641.7, 4658.1, 4674.8, 4690.9, 4708.5, 4724.5, 4741.1, 4758.2, 4774.7, 4791.5, 4808.1, 4824.5, 4841.9, 4858.7, 4875.6, 4891.7, 4908.1, 4925, 4941, 4958, 4975.3, 4992.3, 5008.5, 5025.5, 5041.7, 5059.3, 5075.6, 5092.6, 5108.9, 5126.2, 5141.7, 5159.1, 5175.7, 5192.7, 5209.4, 5226.4, 5242.5, 5258.6, 5276, 5293.1, 5309.4, 5326.2, 5342.4, 5359.7, 5376, 5392.4, 5409.7, 5426.3, 5443.4, 5459.4, 5476.2, 5492.2, 5509.5, 5526.9, 5543, 5560.3, 5576.7, 5593, 5610.6, 5626.7, 5642.8, 5660.4, 5676.6, 5693.3, 5709.6, 5726.9, 5743.6, 5760.3, 5776.4, 5793.9, 5811, 5827.7, 5843.7, 5860.1, 5877, 5893.8, 5911.2, 5927.6, 5944.6, 5960.2, 5977.3, 5994.3, 6010.7, 6026.6, 6043.6, 6061, 6078.1, 6095.7, 6111, 6127.7, 6144.1, 6160.4, 6177.1, 6194.2, 6210.4, 6227.9, 6243.8, 6261.9, 6278.1, 6294.9, 6310.7, 6328, 6345.4, 6361.6, 6378.7, 6394.9, 6410.9, 6428.4, 6444.7, 6461.9, 6477.7, 6494.5, 6511.2, 6528.1, 6545.5, 6561.9, 6577.7, 6595.3, 6612.1, 6628.2, 6645.9, 6662.2, 6678.8, 6695.5, 6712.6, 6728.5, 6745.7, 6763.2, 6778.9, 6795.5, 6811.4, 6828.5, 6846, 6861.9, 6879.8, 6896.7, 6912.3, 6929.1, 6946.3, 6963.5, 6979.7, 6995.7, 7013.1, 7030.1, 7046.3, 7062.9, 7079.9, 7097, 7113.5, 7130, 7146.6, 7163.8, 7180.2, 7196.7, 7213.6, 7230.1, 7246.8, 7262.9, 7280.2, 7296.2, 7314.4, 7330, 7347.1, 7364, 7380.3, 7397.4, 7413.3, 7431.1, 7447.2, 7463.8, 7480.5]","[4.5, 3.8, 20.3, 11.2, 13.6, 16.9, 16.2, 17.4, 14.6, 16.6, 18.1, 15.7, 16.8, 17, 16.5, 16.7, 16.1, 18.2, 16.3, 16.4, 16.7, 16.8, 15.9, 17.2, 17.2, 16.7, 16.7, 16.8, 16.6, 16.3, 16.6, 16.7, 16.5, 17.1, 17, 15.9, 16.4, 17.3, 16.9, 16.7, 16.5, 16.4, 16.8, 16.8, 17.4, 16.1, 21.4, 12.3, 16.3, 17.7, 15.4, 17.1, 16.3, 17.6, 15.4, 17.7, 16.7, 16.5, 15.7, 17.7, 17.2, 16.4, 16.6, 16.2, 17.2, 16.4, 17.2, 16.5, 16.8, 16.5, 16.7, 16.5, 17.3, 16.3, 16.8, 16.7, 17.1, 16.3, 17, 17.3, 16.3, 15.8, 17.2, 16.2, 17.2, 17.4, 16.5, 16, 16.8, 16.4, 17.3, 15.8, 17.4, 16.4, 16.6, 17.6, 15.9, 16.4, 16.4, 16.9, 16.8, 16.3, 17.5, 16.3, 17.2, 16.2, 17.1, 17.1, 16.3, 16.3, 17.4, 17.4, 15.3, 17.4, 16.5, 16.1, 17, 17.6, 15.8, 17.2, 16.6, 16.2, 17.3, 17.2, 15.8, 17.3, 16.4, 17.2, 16.2, 17.1, 16.4, 16.7, 16.1, 17.6, 16, 16.6, 17.1, 16.5, 16.8, 16.6, 16.4, 17.4, 16.8, 16.9, 16.1, 16.4, 16.9, 16, 17, 17.3, 17, 16.2, 17, 16.2, 17.6, 16.3, 17, 16.3, 17.3, 15.5, 17.4, 16.6, 17, 16.7, 17, 16.1, 16.1, 17.4, 17.1, 16.3, 16.8, 16.2, 17.3, 16.3, 16.4, 17.3, 16.6, 17.1, 16, 16.8, 16, 17.3, 17.4, 16.1, 17.3, 16.4, 16.3, 17.6, 16.1, 16.1, 17.6, 16.2, 16.7, 16.3, 17.3, 16.7, 16.7, 16.1, 17.5, 17.1, 16.7, 16, 16.4, 16.9, 16.8, 17.4, 16.4, 17, 15.6, 17.1, 17, 16.4, 15.9, 17, 17.4, 17.1, 17.6, 15.3, 16.7, 16.4, 16.3, 16.7, 17.1, 16.2, 17.5, 15.9, 18.1, 16.2, 16.8, 15.8, 17.3, 17.4, 16.2, 17.1, 16.2, 16, 17.5, 16.3, 17.2, 15.8, 16.8, 16.7, 16.9, 17.4, 16.4, 15.8, 17.6, 16.8, 16.1, 17.7, 16.3, 16.6, 16.7, 17.1, 15.9, 17.2, 17.5, 15.7, 16.6, 15.9, 17.1, 17.5, 15.9, 17.9, 16.9, 15.6, 16.8, 17.2, 17.2, 16.2, 16, 17.4, 17, 16.2, 16.6, 17, 17.1, 16.5, 16.5, 16.6, 17.2, 16.4, 16.5, 16.9, 16.5, 16.7, 16.1, 17.3, 16, 18.2, 15.6, 17.1, 16.9, 16.3, 17.1, 15.9, 17.8, 16.1, 16.6, 16.7]",60.0,58.0,61.0,4996.0,[],,,,,,,,,,,,,,,,,,,,,,,,,HRV,HRV_0270,2022-11-30 20:27:22
,wl-html-keyboard-response,2,17487,0.0-2.0-0.0,0.0,3.0,,,,,,,,8540.0,0.0,0,,,,,,,,,,,,,,,,,,,,,,HRV,HRV_0270,2022-11-30 20:27:22
,wl-rdm,3,45970,0.0-3.0-0.0,0.0,4.0,,,,,,,[],,,,0.0,0.0,87.9,0.0,u,0.0,True,3637.399999976158,218.0,61.0,40.0,False,too_early too_early ,3000.0,[],"[640, 400]",ColorTask_Demo,,,,,HRV,HRV_0270,2022-11-30 20:27:22
,wl-rdm,4,53118,0.0-3.0-1.0,0.0,5.0,,,,,,,[],,,,0.0,0.0,87.9,1.0,i,1.0,True,3077.199999988079,185.0,61.0,40.0,False,,2000.0,[],"[640, 400]",ColorTask_Demo,,,,,HRV,HRV_0270,2022-11-30 20:27:22
,wl-html-keyboard-response,5,63085,0.0-3.0-2.0,0.0,6.0,,,,,,,,7956.699999988079,0.0,1,,,,,,,,,,,,,,,,,,,,,,HRV,HRV_0270,2022-11-30 20:27:22
,wl-html-keyboard-response,6,74450,0.0-4.0-0.0,0.0,7.0,,,,,,,,9361.600000023842,0.0,0,,,,,,,,,,,,,,,,,,,,,,HRV,HRV_0270,2022-11-30 20:27:22
,wl-html-keyboard-response,7,90495,0.0-5.0-0.0,0.0,8.0,,,,,,,,14042.199999988079,0.0,0,,,,,,,,,,,,,,,,,,,,,,HRV,HRV_0270,2022-11-30 20:27:22
,wl-rdm,8,93186,0.0-6.0-0.0,0.0,9.0,,,,,,,[],,,,,,50.0,1.0,i,1.0,True,1381.1000000238419,83.0,61.0,40.0,False,,233.80866415388564,[],"[640, 400]",ColorTask,1.0,1.0,,,HRV,HRV_0270,2022-11-30 20:27:22
,wl-rdm,9,96042,0.0-6.1-0.1,0.0,10.0,,,,,,,[],,,,,,73.6,0.0,u,0.0,True,1393.199999988079,84.0,61.0,40.0,False,,391.14961105142527,[],"[640, 400]",ColorTask,2.0,2.0,,,HRV,HRV_0270,2022-11-30 20:27:22
,wl-rdm,10,98848,0.0-6.2-0.2,0.0,11.0,,,,,,,[],,,,,,62.5,0.0,i,1.0,False,1458.3999999761581,88.0,61.0,40.0,False,,272.33506627464845,[],"[640, 400]",ColorTask,1.0,3.0,,,HRV,HRV_0270,2022-11-30 20:27:22
,wl-rdm,11,102756,0.0-6.3-0.3,0.0,12.0,,,,,,,[],,,,,,53.2,0.0,i,1.0,False,2544.800000011921,153.0,61.0,40.0,False,,298.41707540148604,[],"[640, 400]",ColorTask,0.0,4.0,,,HRV,HRV_0270,2022-11-30 20:27:22
,wl-rdm,12,105478,0.0-6.4-0.4,0.0,13.0,,,,,,,[],,,,,,62.5,1.0,i,1.0,True,1368.9000000357628,82.0,61.0,40.0,False,,292.23328756372445,[],"[640, 400]",ColorTask,1.0,5.0,,,HRV,HRV_0270,2022-11-30 20:27:22
,wl-rdm,13,108318,0.0-6.5-0.5,0.0,14.0,,,,,,,[],,,,,,73.6,1.0,u,0.0,False,1403.800000011921,85.0,61.0,40.0,False,,367.080548222237,[],"[640, 400]",ColorTask,0.0,6.0,,,HRV,HRV_0270,2022-11-30 20:27:22
,wl-rdm,14,111174,0.0-6.6-0.6,0.0,15.0,,,,,,,[],,,,,,56.4,1.0,i,1.0,True,1443.300000011921,87.0,61.0,40.0,False,,345.8185306360619,[],"[640, 400]",ColorTask,1.0,7.0,,,HRV,HRV_0270,2022-11-30 20:27:22
,wl-rdm,15,114882,0.0-6.7-0.7,0.0,16.0,,,,,,,[],,,,,,50.0,1.0,i,1.0,True,2346.0,141.0,61.0,40.0,False,,298.6133055316093,[],"[640, 400]",ColorTask,2.0,8.0,,,HRV,HRV_0270,2022-11-30 20:27:22
,wl-rdm,16,117421,0.0-6.8-0.8,0.0,17.0,,,,,,,[],,,,,,87.9,0.0,u,0.0,True,1268.5,76.0,61.0,40.0,False,,207.30355907190864,[],"[640, 400]",ColorTask,3.0,9.0,,,HRV,HRV_0270,2022-11-30 20:27:22
,wl-rdm,17,120979,0.0-6.9-0.9,0.0,18.0,,,,,,,[],,,,,,62.5,1.0,i,1.0,True,2248.699999988079,135.0,61.0,40.0,False,,247.29822609085318,[],"[640, 400]",ColorTask,4.0,10.0,,,HRV,HRV_0270,2022-11-30 20:27:22
,wl-rdm,18,123818,0.0-6.10-0.10,0.0,19.0,,,,,,,[],,,,,,56.4,1.0,i,1.0,True,1465.1000000238419,88.0,61.0,40.0,False,,306.7207738024399,[],"[640, 400]",ColorTask,5.0,11.0,,,HRV,HRV_0270,2022-11-30 20:27:22
,wl-rdm,19,126407,0.0-6.11-0.11,0.0,20.0,,,,,,,[],,,,,,87.9,1.0,i,1.0,True,1309.5,79.0,61.0,40.0,False,,208.47309001243295,[],"[640, 400]",ColorTask,6.0,12.0,,,HRV,HRV_0270,2022-11-30 20:27:22
,wl-rdm,20,128609,0.0-6.12-0.12,0.0,21.0,,,,,,,[],,,,,,62.5,0.0,u,0.0,True,856.7000000476837,52.0,61.0,40.0,False,,282.5787015640364,[],"[640, 400]",ColorTask,7.0,13.0,,,HRV,HRV_0270,2022-11-30 20:27:22
,wl-rdm,21,130749,0.0-6.13-0.13,0.0,22.0,,,,,,,[],,,,,,87.9,0.0,u,0.0,True,742.9000000357628,45.0,61.0,40.0,False,,326.02226782090065,[],"[640, 400]",ColorTask,8.0,14.0,,,HRV,HRV_0270,2022-11-30 20:27:22
,wl-rdm,22,133037,0.0-6.14-0.14,0.0,23.0,,,,,,,[],,,,,,56.4,0.0,i,1.0,False,900.8000000119209,54.0,61.0,40.0,False,,325.42286344196384,[],"[640, 400]",ColorTask,7.0,15.0,,,HRV,HRV_0270,2022-11-30 20:27:22
,wl-rdm,23,135260,0.0-6.15-0.15,0.0,24.0,,,,,,,[],,,,,,53.2,1.0,i,1.0,True,940.4000000357628,57.0,61.0,40.0,False,,201.44537776802818,[],"[640, 400]",ColorTask,8.0,16.0,,,HRV,HRV_0270,2022-11-30 20:27:22
,wl-rdm,24,137447,0.0-6.16-0.16,0.0,25.0,,,,,,,[],,,,,,62.5,1.0,i,1.0,True,908.1999999880791,55.0,61.0,40.0,False,,206.7798399120089,[],"[640, 400]",ColorTask,9.0,17.0,,,HRV,HRV_0270,2022-11-30 20:27:22
,wl-rdm,25,139852,0.0-6.17-0.17,0.0,26.0,,,,,,,[],,,,,,62.5,0.0,i,1.0,False,1093.0,66.0,61.0,40.0,False,,242.08344390970774,[],"[640, 400]",ColorTask,8.0,18.0,,,HRV,HRV_0270,2022-11-30 20:27:22
,wl-rdm,26,142091,0.0-6.18-0.18,0.0,27.0,,,,,,,[],,,,,,73.6,0.0,u,0.0,True,846.1000000238419,51.0,61.0,40.0,False,,332.1233263407479,[],"[640, 400]",ColorTask,9.0,19.0,,,HRV,HRV_0270,2022-11-30 20:27:22
,wl-rdm,27,144528,0.0-6.19-0.19,0.0,28.0,,,,,,,[],,,,,,62.5,1.0,u,0.0,False,1158.5999999642372,70.0,61.0,40.0,False,,204.6728672556207,[],"[640, 400]",ColorTask,8.0,20.0,,,HRV,HRV_0270,2022-11-30 20:27:22
,wl-rdm,28,146783,0.0-6.20-0.20,0.0,29.0,,,,,,,[],,,,,,73.6,1.0,i,1.0,True,882.6000000238419,53.0,61.0,40.0,False,,310.05483247546675,[],"[640, 400]",ColorTask,9.0,21.0,,,HRV,HRV_0270,2022-11-30 20:27:22
,wl-rdm,29,149304,0.0-6.21-0.21,0.0,30.0,,,,,,,[],,,,,,73.6,0.0,u,0.0,True,1076.9000000357628,65.0,61.0,40.0,False,,375.50668126094234,[],"[640, 400]",ColorTask,10.0,22.0,,,HRV,HRV_0270,2022-11-30 20:27:22
,wl-rdm,30,151727,0.0-6.22-0.22,0.0,31.0,,,,,,,[],,,,,,56.4,1.0,i,1.0,True,1150.300000011921,69.0,61.0,40.0,False,,207.96019181306147,[],"[640, 400]",ColorTask,11.0,23.0,,,HRV,HRV_0270,2022-11-30 20:27:22
,wl-rdm,31,153982,0.0-6.23-0.23,0.0,32.0,,,,,,,[],,,,,,50.0,0.0,u,0.0,True,1000.0,60.0,61.0,40.0,False,,200.40868367377962,[],"[640, 400]",ColorTask,12.0,24.0,,,HRV,HRV_0270,2022-11-30 20:27:22
,wl-rdm,32,156087,0.0-6.24-0.24,0.0,33.0,,,,,,,[],,,,,,62.5,0.0,u,0.0,True,832.6000000238419,50.0,61.0,40.0,False,,203.1708453832594,[],"[640, 400]",ColorTask,13.0,25.0,,,HRV,HRV_0270,2022-11-30 20:27:22
,wl-rdm,33,158408,0.0-6.25-0.25,0.0,34.0,,,,,,,[],,,,,,50.0,0.0,i,1.0,False,973.2999999523163,59.0,61.0,40.0,False,,283.87614259526936,[],"[640, 400]",ColorTask,12.0,26.0,,,HRV,HRV_0270,2022-11-30 20:27:22
,wl-rdm,34,160997,0.0-6.26-0.26,0.0,35.0,,,,,,,[],,,,,,73.6,1.0,i,1.0,True,1273.0999999642372,77.0,61.0,40.0,False,,240.10941902752995,[],"[640, 400]",ColorTask,13.0,27.0,,,HRV,HRV_0270,2022-11-30 20:27:22
,wl-rdm,35,163619,0.0-6.27-0.27,0.0,36.0,,,,,,,[],,,,,,56.4,1.0,i,1.0,True,1324.2999999523163,80.0,61.0,40.0,False,,231.21730773213207,[],"[640, 400]",ColorTask,14.0,28.0,,,HRV,HRV_0270,2022-11-30 20:27:22
,wl-rdm,36,165824,0.0-6.28-0.28,0.0,37.0,,,,,,,[],,,,,,56.4,0.0,u,0.0,True,842.0999999642372,51.0,61.0,40.0,False,,296.49071505503116,[],"[640, 400]",ColorTask,15.0,29.0,,,HRV,HRV_0270,2022-11-30 20:27:22
,wl-rdm,37,167995,0.0-6.29-0.29,0.0,38.0,,,,,,,[],,,,,,53.2,1.0,u,0.0,False,790.1999999880791,48.0,61.0,40.0,False,,310.5579382457641,[],"[640, 400]",ColorTask,14.0,30.0,,,HRV,HRV_0270,2022-11-30 20:27:22
,wl-rdm,38,170183,0.0-6.30-0.30,0.0,39.0,,,,,,,[],,,,,,53.2,1.0,i,1.0,True,792.5999999642372,48.0,61.0,40.0,False,,329.1202666159246,[],"[640, 400]",ColorTask,15.0,31.0,,,HRV,HRV_0270,2022-11-30 20:27:22
,wl-rdm,39,172387,0.0-6.31-0.31,0.0,40.0,,,,,,,[],,,,,,87.9,1.0,i,1.0,True,922.3000000119209,56.0,61.0,40.0,False,,209.9603729363591,[],"[640, 400]",ColorTask,16.0,32.0,,,HRV,HRV_0270,2022-11-30 20:27:22
,wl-rdm,40,174594,0.0-6.32-0.32,0.0,41.0,,,,,,,[],,,,,,73.6,1.0,i,1.0,True,745.3000000119209,45.0,61.0,40.0,False,,396.3677466022668,[],"[640, 400]",ColorTask,17.0,33.0,,,HRV,HRV_0270,2022-11-30 20:27:22
,wl-rdm,41,176964,0.0-6.33-0.33,0.0,42.0,,,,,,,[],,,,,,50.0,0.0,u,0.0,True,1016.0999999642372,61.0,61.0,40.0,False,,289.20921226878215,[],"[640, 400]",ColorTask,18.0,34.0,,,HRV,HRV_0270,2022-11-30 20:27:22
,wl-rdm,42,179370,0.0-6.34-0.34,0.0,43.0,,,,,,,[],,,,,,62.5,1.0,i,1.0,True,945.1000000238419,57.0,61.0,40.0,False,,385.5409757787575,[],"[640, 400]",ColorTask,19.0,35.0,,,HRV,HRV_0270,2022-11-30 20:27:22
,wl-rdm,43,181658,0.0-6.35-0.35,0.0,44.0,,,,,,,[],,,,,,56.4,0.0,u,0.0,True,876.7999999523163,53.0,61.0,40.0,False,,338.1661799559736,[],"[640, 400]",ColorTask,20.0,36.0,,,HRV,HRV_0270,2022-11-30 20:27:22
,wl-rdm,44,183878,0.0-6.36-0.36,0.0,45.0,,,,,,,[],,,,,,56.4,0.0,i,1.0,False,841.4999999403954,51.0,61.0,40.0,False,,306.47027019952486,[],"[640, 400]",ColorTask,19.0,37.0,,,HRV,HRV_0270,2022-11-30 20:27:22
,wl-rdm,45,186200,0.0-6.37-0.37,0.0,46.0,,,,,,,[],,,,,,50.0,1.0,i,1.0,True,1024.8999999761581,62.0,61.0,40.0,False,,221.3788179714721,[],"[640, 400]",ColorTask,20.0,38.0,,,HRV,HRV_0270,2022-11-30 20:27:22
,wl-rdm,46,188454,0.0-6.38-0.38,0.0,47.0,,,,,,,[],,,,,,73.6,0.0,u,0.0,True,972.9000000357628,58.0,61.0,40.0,False,,206.89282700126859,[],"[640, 400]",ColorTask,21.0,39.0,,,HRV,HRV_0270,2022-11-30 20:27:22
,wl-rdm,47,190860,0.0-6.39-0.39,0.0,48.0,,,,,,,[],,,,,,62.5,1.0,i,1.0,True,984.5,59.0,61.0,40.0,False,,357.595679289333,[],"[640, 400]",ColorTask,22.0,40.0,,,HRV,HRV_0270,2022-11-30 20:27:22
,wl-rdm,48,193114,0.0-6.40-0.40,0.0,49.0,,,,,,,[],,,,,,53.2,0.0,u,0.0,True,877.3999999761581,53.0,61.0,40.0,False,,306.1410556908171,[],"[640, 400]",ColorTask,23.0,41.0,,,HRV,HRV_0270,2022-11-30 20:27:22
,wl-rdm,49,195170,0.0-6.41-0.41,0.0,50.0,,,,,,,[],,,,,,53.2,0.0,i,1.0,False,710.8000000119209,43.0,61.0,40.0,False,,284.0313101089732,[],"[640, 400]",ColorTask,22.0,42.0,,,HRV,HRV_0270,2022-11-30 20:27:22
,wl-rdm,50,197358,0.0-6.42-0.42,0.0,51.0,,,,,,,[],,,,,,56.4,0.0,u,0.0,True,899.0000000596046,54.0,61.0,40.0,False,,219.12684410309052,[],"[640, 400]",ColorTask,23.0,43.0,,,HRV,HRV_0270,2022-11-30 20:27:22
,wl-rdm,51,199446,0.0-6.43-0.43,0.0,52.0,,,,,,,[],,,,,,56.4,0.0,u,0.0,True,758.1000000238419,46.0,61.0,40.0,False,,260.80124955268406,[],"[640, 400]",ColorTask,24.0,44.0,,,HRV,HRV_0270,2022-11-30 20:27:22
,wl-rdm,52,201500,0.0-6.44-0.44,0.0,53.0,,,,,,,[],,,,,,56.4,1.0,i,1.0,True,774.5999999642372,47.0,61.0,40.0,False,,207.91389120827796,[],"[640, 400]",ColorTask,25.0,45.0,,,HRV,HRV_0270,2022-11-30 20:27:22
,wl-rdm,53,203655,0.0-6.45-0.45,0.0,54.0,,,,,,,[],,,,,,62.5,0.0,i,1.0,False,875.6999999284744,53.0,61.0,40.0,False,,215.55810043331232,[],"[640, 400]",ColorTask,24.0,46.0,,,HRV,HRV_0270,2022-11-30 20:27:22
,wl-rdm,54,206093,0.0-6.46-0.46,0.0,55.0,,,,,,,[],,,,,,53.2,0.0,u,0.0,True,1069.4999999403954,64.0,61.0,40.0,False,,299.41748583043005,[],"[640, 400]",ColorTask,25.0,47.0,,,HRV,HRV_0270,2022-11-30 20:27:22
,wl-rdm,55,208665,0.0-6.47-0.47,0.0,56.0,,,,,,,[],,,,,,50.0,0.0,i,1.0,False,1280.0,77.0,61.0,40.0,False,,217.52642453770548,[],"[640, 400]",ColorTask,24.0,48.0,,,HRV,HRV_0270,2022-11-30 20:27:22
,wl-rdm,56,210818,0.0-6.48-0.48,0.0,57.0,,,,,,,[],,,,,,53.2,0.0,u,0.0,True,876.6000000238419,53.0,61.0,40.0,False,,208.0495542597373,[],"[640, 400]",ColorTask,25.0,49.0,,,HRV,HRV_0270,2022-11-30 20:27:22
,wl-rdm,57,212956,0.0-6.49-0.49,0.0,58.0,,,,,,,[],,,,,,73.6,0.0,u,0.0,True,775.8999999761581,47.0,61.0,40.0,False,,293.20857171259763,[],"[640, 400]",ColorTask,26.0,50.0,,,HRV,HRV_0270,2022-11-30 20:27:22
,wl-rdm,58,214928,0.0-6.50-0.50,0.0,59.0,,,,,,,[],,,,,,87.9,1.0,i,1.0,True,623.4999999403954,38.0,61.0,40.0,False,,299.13282467702203,[],"[640, 400]",ColorTask,27.0,51.0,,,HRV,HRV_0270,2022-11-30 20:27:22
,wl-rdm,59,217166,0.0-6.51-0.51,0.0,60.0,,,,,,,[],,,,,,50.0,1.0,u,0.0,False,892.9999999403954,54.0,61.0,40.0,False,,273.17338676461986,[],"[640, 400]",ColorTask,26.0,52.0,,,HRV,HRV_0270,2022-11-30 20:27:22
,wl-rdm,60,220156,0.0-6.52-0.52,0.0,61.0,,,,,,,[],,,,,,53.2,1.0,u,0.0,False,1567.8999999761581,94.0,61.0,40.0,False,,365.4509465319808,[],"[640, 400]",ColorTask,25.0,53.0,,,HRV,HRV_0270,2022-11-30 20:27:22
,wl-rdm,61,223263,0.0-6.53-0.53,0.0,62.0,,,,,,,[],,,,,,73.6,0.0,u,0.0,True,1699.4000000357628,102.0,61.0,40.0,False,,339.6616696917167,[],"[640, 400]",ColorTask,26.0,54.0,,,HRV,HRV_0270,2022-11-30 20:27:22
,wl-rdm,62,227355,0.0-6.54-0.54,0.0,63.0,,,,,,,[],,,,,,87.9,0.0,u,0.0,True,2739.900000035763,165.0,61.0,40.0,False,,279.21522371067454,[],"[640, 400]",ColorTask,27.0,55.0,,,HRV,HRV_0270,2022-11-30 20:27:22
,wl-rdm,63,231362,0.0-6.55-0.55,0.0,64.0,,,,,,,[],,,,,,56.4,0.0,u,0.0,True,2605.7000000476837,156.0,61.0,40.0,False,,323.2614067331034,[],"[640, 400]",ColorTask,28.0,56.0,,,HRV,HRV_0270,2022-11-30 20:27:22
,wl-rdm,64,234971,0.0-6.56-0.56,0.0,65.0,,,,,,,[],,,,,,50.0,0.0,i,1.0,False,2312.899999976158,139.0,61.0,40.0,False,,232.92908203254004,[],"[640, 400]",ColorTask,27.0,57.0,,,HRV,HRV_0270,2022-11-30 20:27:22
,wl-rdm,65,237594,0.0-6.57-0.57,0.0,66.0,,,,,,,[],,,,,,62.5,0.0,u,0.0,True,1244.8999999761581,75.0,61.0,40.0,False,,314.64666185767504,[],"[640, 400]",ColorTask,28.0,58.0,,,HRV,HRV_0270,2022-11-30 20:27:22
,wl-rdm,66,239848,0.0-6.58-0.58,0.0,67.0,,,,,,,[],,,,,,87.9,0.0,u,0.0,True,911.7000000476837,55.0,61.0,40.0,False,,268.8132309007573,[],"[640, 400]",ColorTask,29.0,59.0,,,HRV,HRV_0270,2022-11-30 20:27:22
,wl-rdm,67,242086,0.0-6.59-0.59,0.0,68.0,,,,,,,[],,,,,,87.9,0.0,u,0.0,True,831.0999999642372,50.0,61.0,40.0,False,,342.36977688886293,[],"[640, 400]",ColorTask,30.0,60.0,,,HRV,HRV_0270,2022-11-30 20:27:22
,wl-rdm,68,244057,0.0-6.60-0.60,0.0,69.0,,,,,,,[],,,,,,87.9,1.0,i,1.0,True,637.3000000119209,39.0,61.0,40.0,False,,255.59114839982806,[],"[640, 400]",ColorTask,31.0,61.0,,,HRV,HRV_0270,2022-11-30 20:27:22
,wl-rdm,69,245928,0.0-6.61-0.61,0.0,70.0,,,,,,,[],,,,,,73.6,1.0,u,0.0,False,589.8000000715256,36.0,61.0,40.0,False,,210.39594073893448,[],"[640, 400]",ColorTask,30.0,62.0,,,HRV,HRV_0270,2022-11-30 20:27:22
,wl-rdm,70,247931,0.0-6.62-0.62,0.0,71.0,,,,,,,[],,,,,,53.2,1.0,i,1.0,True,549.2999999523163,33.0,61.0,40.0,False,,393.0556328283064,[],"[640, 400]",ColorTask,31.0,63.0,,,HRV,HRV_0270,2022-11-30 20:27:22
,wl-rdm,71,249786,0.0-6.63-0.63,0.0,72.0,,,,,,,[],,,,,,62.5,0.0,u,0.0,True,542.9000000357628,33.0,61.0,40.0,False,,239.75740304902266,[],"[640, 400]",ColorTask,32.0,64.0,,,HRV,HRV_0270,2022-11-30 20:27:22
,wl-rdm,72,251656,0.0-6.64-0.64,0.0,73.0,,,,,,,[],,,,,,50.0,1.0,i,1.0,True,477.69999998807907,29.0,61.0,40.0,False,,317.689573194105,[],"[640, 400]",ColorTask,33.0,65.0,,,HRV,HRV_0270,2022-11-30 20:27:22
,wl-rdm,73,253560,0.0-6.65-0.65,0.0,74.0,,,,,,,[],,,,,,87.9,1.0,i,1.0,True,609.6999999880791,37.0,61.0,40.0,False,,234.85448129899896,[],"[640, 400]",ColorTask,34.0,66.0,,,HRV,HRV_0270,2022-11-30 20:27:22
,wl-rdm,74,255649,0.0-6.66-0.66,0.0,75.0,,,,,,,[],,,,,,62.5,0.0,u,0.0,True,722.0,44.0,61.0,40.0,False,,298.0058924245861,[],"[640, 400]",ColorTask,35.0,67.0,,,HRV,HRV_0270,2022-11-30 20:27:22
,wl-rdm,75,257602,0.0-6.67-0.67,0.0,76.0,,,,,,,[],,,,,,56.4,1.0,i,1.0,True,675.9000000357628,41.0,61.0,40.0,False,,201.9139525442171,[],"[640, 400]",ColorTask,36.0,68.0,,,HRV,HRV_0270,2022-11-30 20:27:22
,wl-rdm,76,259724,0.0-6.68-0.68,0.0,77.0,,,,,,,[],,,,,,62.5,1.0,i,1.0,True,716.0999999642372,43.0,61.0,40.0,False,,340.8737303274428,[],"[640, 400]",ColorTask,37.0,69.0,,,HRV,HRV_0270,2022-11-30 20:27:22
,wl-rdm,77,261762,0.0-6.69-0.69,0.0,78.0,,,,,,,[],,,,,,87.9,1.0,u,0.0,False,603.6999999880791,37.0,61.0,40.0,False,,359.82848610657993,[],"[640, 400]",ColorTask,36.0,70.0,,,HRV,HRV_0270,2022-11-30 20:27:22
,wl-rdm,78,263867,0.0-6.70-0.70,0.0,79.0,,,,,,,[],,,,,,73.6,0.0,u,0.0,True,670.6000000238419,41.0,61.0,40.0,False,,356.01924523052526,[],"[640, 400]",ColorTask,37.0,71.0,,,HRV,HRV_0270,2022-11-30 20:27:22
,wl-rdm,79,265819,0.0-6.71-0.71,0.0,80.0,,,,,,,[],,,,,,87.9,1.0,i,1.0,True,673.8999999165535,41.0,61.0,40.0,False,,200.64198559710226,[],"[640, 400]",ColorTask,38.0,72.0,,,HRV,HRV_0270,2022-11-30 20:27:22
,wl-rdm,80,267740,0.0-6.72-0.72,0.0,81.0,,,,,,,[],,,,,,53.2,1.0,i,1.0,True,640.6000000238419,39.0,61.0,40.0,False,,212.8772196843011,[],"[640, 400]",ColorTask,39.0,73.0,,,HRV,HRV_0270,2022-11-30 20:27:22
,wl-rdm,81,269778,0.0-6.73-0.73,0.0,82.0,,,,,,,[],,,,,,73.6,1.0,i,1.0,True,653.6999999880791,40.0,61.0,40.0,False,,304.583912158536,[],"[640, 400]",ColorTask,40.0,74.0,,,HRV,HRV_0270,2022-11-30 20:27:22
,wl-rdm,82,271698,0.0-6.74-0.74,0.0,83.0,,,,,,,[],,,,,,53.2,1.0,i,1.0,True,641.8000000119209,39.0,61.0,40.0,False,,208.97563548969785,[],"[640, 400]",ColorTask,41.0,75.0,,,HRV,HRV_0270,2022-11-30 20:27:22
,wl-rdm,83,273804,0.0-6.75-0.75,0.0,84.0,,,,,,,[],,,,,,62.5,1.0,i,1.0,True,641.6000000238419,39.0,61.0,40.0,False,,391.9853586650662,[],"[640, 400]",ColorTask,42.0,76.0,,,HRV,HRV_0270,2022-11-30 20:27:22
,wl-rdm,84,275876,0.0-6.76-0.76,0.0,85.0,,,,,,,[],,,,,,53.2,0.0,u,0.0,True,666.1999999880791,40.0,61.0,40.0,False,,344.47149014596346,[],"[640, 400]",ColorTask,43.0,77.0,,,HRV,HRV_0270,2022-11-30 20:27:22
,wl-rdm,85,277762,0.0-6.77-0.77,0.0,86.0,,,,,,,[],,,,,,73.6,1.0,i,1.0,True,591.1999999880791,36.0,61.0,40.0,False,,223.62138794992433,[],"[640, 400]",ColorTask,44.0,78.0,,,HRV,HRV_0270,2022-11-30 20:27:22
,wl-rdm,86,279716,0.0-6.78-0.78,0.0,87.0,,,,,,,[],,,,,,62.5,0.0,u,0.0,True,658.0000000596046,40.0,61.0,40.0,False,,230.84751203243235,[],"[640, 400]",ColorTask,45.0,79.0,,,HRV,HRV_0270,2022-11-30 20:27:22
,wl-rdm,87,281788,0.0-6.79-0.79,0.0,88.0,,,,,,,[],,,,,,56.4,0.0,i,1.0,False,658.0,40.0,61.0,40.0,False,,345.38017095565584,[],"[640, 400]",ColorTask,44.0,80.0,,,HRV,HRV_0270,2022-11-30 20:27:22
,wl-rdm,88,283791,0.0-6.80-0.80,0.0,89.0,,,,,,,[],,,,,,73.6,0.0,u,0.0,True,655.8000000119209,40.0,61.0,40.0,False,,279.0511243593605,[],"[640, 400]",ColorTask,45.0,81.0,,,HRV,HRV_0270,2022-11-30 20:27:22
,wl-rdm,89,285729,0.0-6.81-0.81,0.0,90.0,,,,,,,[],,,,,,87.9,1.0,i,1.0,True,651.1999999284744,39.0,61.0,40.0,False,,223.161278156378,[],"[640, 400]",ColorTask,46.0,82.0,,,HRV,HRV_0270,2022-11-30 20:27:22
,wl-rdm,90,287816,0.0-6.82-0.82,0.0,91.0,,,,,,,[],,,,,,87.9,0.0,u,0.0,True,737.9000000357628,45.0,61.0,40.0,False,,270.85041247766895,[],"[640, 400]",ColorTask,47.0,83.0,,,HRV,HRV_0270,2022-11-30 20:27:22
,wl-rdm,91,289954,0.0-6.83-0.83,0.0,92.0,,,,,,,[],,,,,,73.6,1.0,i,1.0,True,833.6000000238419,50.0,61.0,40.0,False,,249.14784410148468,[],"[640, 400]",ColorTask,48.0,84.0,,,HRV,HRV_0270,2022-11-30 20:27:22
,wl-rdm,92,292074,0.0-6.84-0.84,0.0,93.0,,,,,,,[],,,,,,87.9,0.0,u,0.0,True,759.0999999642372,46.0,61.0,40.0,False,,299.06225440488095,[],"[640, 400]",ColorTask,49.0,85.0,,,HRV,HRV_0270,2022-11-30 20:27:22
,wl-rdm,93,294148,0.0-6.85-0.85,0.0,94.0,,,,,,,[],,,,,,87.9,1.0,i,1.0,True,699.6000000834465,42.0,61.0,40.0,False,,305.5047126992081,[],"[640, 400]",ColorTask,50.0,86.0,,,HRV,HRV_0270,2022-11-30 20:27:22
,wl-rdm,94,296235,0.0-6.86-0.86,0.0,95.0,,,,,,,[],,,,,,50.0,1.0,i,1.0,True,791.7999999523163,48.0,61.0,40.0,False,,229.5916403122951,[],"[640, 400]",ColorTask,51.0,87.0,,,HRV,HRV_0270,2022-11-30 20:27:22
,wl-rdm,95,298156,0.0-6.87-0.87,0.0,96.0,,,,,,,[],,,,,,73.6,1.0,i,1.0,True,631.5,38.0,61.0,40.0,False,,231.25933074922378,[],"[640, 400]",ColorTask,52.0,88.0,,,HRV,HRV_0270,2022-11-30 20:27:22
,wl-rdm,96,300728,0.0-6.88-0.88,0.0,97.0,,,,,,,[],,,,,,53.2,0.0,i,1.0,False,1204.699999988079,73.0,61.0,40.0,False,,290.17631992156237,[],"[640, 400]",ColorTask,51.0,89.0,,,HRV,HRV_0270,2022-11-30 20:27:22
,wl-rdm,97,302932,0.0-6.89-0.89,0.0,98.0,,,,,,,[],,,,,,53.2,0.0,i,1.0,False,808.7000000476837,49.0,61.0,40.0,False,,327.7894644278319,[],"[640, 400]",ColorTask,50.0,90.0,,,HRV,HRV_0270,2022-11-30 20:27:22
,wl-rdm,98,306089,0.0-6.90-0.90,0.0,99.0,,,,,,,[],,,,,,56.4,1.0,u,0.0,False,1854.5999999642372,110.0,61.0,40.0,False,,218.13631641483985,[],"[640, 400]",ColorTask,49.0,91.0,,,HRV,HRV_0270,2022-11-30 20:27:22
,wl-rdm,99,308110,0.0-6.91-0.91,0.0,100.0,,,,,,,[],,,,,,56.4,1.0,i,1.0,True,678.5,41.0,61.0,40.0,False,,267.3844400969266,[],"[640, 400]",ColorTask,50.0,92.0,,,HRV,HRV_0270,2022-11-30 20:27:22
,wl-rdm,100,310230,0.0-6.92-0.92,0.0,101.0,,,,,,,[],,,,,,73.6,0.0,u,0.0,True,777.6000000238419,47.0,61.0,40.0,False,,275.27083992304443,[],"[640, 400]",ColorTask,51.0,93.0,,,HRV,HRV_0270,2022-11-30 20:27:22
,wl-rdm,101,312351,0.0-6.93-0.93,0.0,102.0,,,,,,,[],,,,,,50.0,1.0,u,0.0,False,675.3000000119209,41.0,61.0,40.0,False,,382.1427114195146,[],"[640, 400]",ColorTask,50.0,94.0,,,HRV,HRV_0270,2022-11-30 20:27:22
,wl-rdm,102,314558,0.0-6.94-0.94,0.0,103.0,,,,,,,[],,,,,,53.2,0.0,i,1.0,False,947.9000000357628,57.0,61.0,40.0,False,,200.1526769140529,[],"[640, 400]",ColorTask,49.0,95.0,,,HRV,HRV_0270,2022-11-30 20:27:22
,wl-rdm,103,317046,0.0-6.95-0.95,0.0,104.0,,,,,,,[],,,,,,53.2,1.0,i,1.0,True,1091.300000011921,66.0,61.0,40.0,False,,318.6654120834452,[],"[640, 400]",ColorTask,50.0,96.0,,,HRV,HRV_0270,2022-11-30 20:27:22
,wl-rdm,104,319183,0.0-6.96-0.96,0.0,105.0,,,,,,,[],,,,,,87.9,0.0,u,0.0,True,843.4000000357628,51.0,61.0,40.0,False,,232.45786082147717,[],"[640, 400]",ColorTask,51.0,97.0,,,HRV,HRV_0270,2022-11-30 20:27:22
,wl-rdm,105,321589,0.0-6.97-0.97,0.0,106.0,,,,,,,[],,,,,,50.0,0.0,u,0.0,True,957.7999999523163,58.0,61.0,40.0,False,,376.3813322340576,[],"[640, 400]",ColorTask,52.0,98.0,,,HRV,HRV_0270,2022-11-30 20:27:22
,wl-rdm,106,323777,0.0-6.98-0.98,0.0,107.0,,,,,,,[],,,,,,56.4,0.0,u,0.0,True,854.8999999761581,52.0,61.0,40.0,False,,256.036529834393,[],"[640, 400]",ColorTask,53.0,99.0,,,HRV,HRV_0270,2022-11-30 20:27:22
,wl-rdm,107,325847,0.0-6.99-0.99,0.0,108.0,,,,,,,[],,,,,,53.2,1.0,u,0.0,False,626.6000000238419,38.0,61.0,40.0,False,,370.4397099046315,[],"[640, 400]",ColorTask,52.0,100.0,,,HRV,HRV_0270,2022-11-30 20:27:22
,wl-rdm,108,327952,0.0-6.100-0.100,0.0,109.0,,,,,,,[],,,,,,62.5,1.0,i,1.0,True,820.0999999642372,50.0,61.0,40.0,False,,208.8926361258298,[],"[640, 400]",ColorTask,53.0,101.0,,,HRV,HRV_0270,2022-11-30 20:27:22
,wl-rdm,109,330022,0.0-6.101-0.101,0.0,110.0,,,,,,,[],,,,,,50.0,0.0,u,0.0,True,777.6000000238419,47.0,61.0,40.0,False,,237.95046102559414,[],"[640, 400]",ColorTask,54.0,102.0,,,HRV,HRV_0270,2022-11-30 20:27:22
,wl-rdm,110,331993,0.0-6.102-0.102,0.0,111.0,,,,,,,[],,,,,,50.0,0.0,i,1.0,False,624.1999999880791,38.0,61.0,40.0,False,,268.1576634079464,[],"[640, 400]",ColorTask,53.0,103.0,,,HRV,HRV_0270,2022-11-30 20:27:22
,wl-rdm,111,334099,0.0-6.103-0.103,0.0,112.0,,,,,,,[],,,,,,50.0,1.0,i,1.0,True,773.1999999284744,47.0,61.0,40.0,False,,262.06314764872104,[],"[640, 400]",ColorTask,54.0,104.0,,,HRV,HRV_0270,2022-11-30 20:27:22
,wl-rdm,112,336520,0.0-6.104-0.104,0.0,113.0,,,,,,,[],,,,,,56.4,1.0,u,0.0,False,1118.300000011921,67.0,61.0,40.0,False,,239.23412189102407,[],"[640, 400]",ColorTask,53.0,105.0,,,HRV,HRV_0270,2022-11-30 20:27:22
,wl-rdm,113,338492,0.0-6.105-0.105,0.0,114.0,,,,,,,[],,,,,,87.9,0.0,u,0.0,True,571.1000000238419,35.0,61.0,40.0,False,,320.5693172224919,[],"[640, 400]",ColorTask,54.0,106.0,,,HRV,HRV_0270,2022-11-30 20:27:22
,wl-rdm,114,341347,0.0-6.106-0.106,0.0,115.0,,,,,,,[],,,,,,50.0,0.0,u,0.0,True,1531.199999988079,92.0,61.0,40.0,False,,263.90049708456365,[],"[640, 400]",ColorTask,55.0,107.0,,,HRV,HRV_0270,2022-11-30 20:27:22
,wl-rdm,115,343685,0.0-6.107-0.107,0.0,116.0,,,,,,,[],,,,,,50.0,1.0,u,0.0,False,1011.2999999523163,61.0,61.0,40.0,False,,259.2631351034388,[],"[640, 400]",ColorTask,54.0,108.0,,,HRV,HRV_0270,2022-11-30 20:27:22
,wl-html-keyboard-response,116,368774,0.0-7.0-0.0,1.0,117.0,,,,,,,,23079.900000035763,1.0,0,,,,,,,,,,,,,,,,,,,,,,HRV,HRV_0270,2022-11-30 20:27:22
,wl-rdm,117,372094,0.0-8.0-0.0,1.0,118.0,,,,,,,[],,,,,,53.2,0.0,u,0.0,True,2045.699999988079,123.0,61.0,40.0,False,,209.24438840370388,[],"[640, 400]",ColorTask,55.0,1.0,,,HRV,HRV_0270,2022-11-30 20:27:22
,wl-rdm,118,374317,0.0-8.1-0.1,1.0,119.0,,,,,,,[],,,,,,73.6,1.0,i,1.0,True,756.7999999523163,46.0,61.0,40.0,False,,384.0487269343124,[],"[640, 400]",ColorTask,56.0,2.0,,,HRV,HRV_0270,2022-11-30 20:27:22
,wl-rdm,119,376256,0.0-8.2-0.2,1.0,120.0,,,,,,,[],,,,,,56.4,1.0,i,1.0,True,667.7000000476837,40.0,61.0,40.0,False,,202.35597732052494,[],"[640, 400]",ColorTask,57.0,3.0,,,HRV,HRV_0270,2022-11-30 20:27:22
,wl-rdm,120,378343,0.0-8.3-0.3,1.0,121.0,,,,,,,[],,,,,,50.0,1.0,i,1.0,True,777.0000000596046,47.0,61.0,40.0,False,,242.33559539150772,[],"[640, 400]",ColorTask,58.0,4.0,,,HRV,HRV_0270,2022-11-30 20:27:22
,wl-rdm,121,380564,0.0-8.4-0.4,1.0,122.0,,,,,,,[],,,,,,62.5,1.0,i,1.0,True,756.3000000119209,46.0,61.0,40.0,False,,396.673603739314,[],"[640, 400]",ColorTask,59.0,5.0,,,HRV,HRV_0270,2022-11-30 20:27:22
,wl-rdm,122,382618,0.0-8.5-0.5,1.0,123.0,,,,,,,[],,,,,,87.9,0.0,u,0.0,True,746.0999999642372,45.0,61.0,40.0,False,,234.766421039458,[],"[640, 400]",ColorTask,60.0,6.0,,,HRV,HRV_0270,2022-11-30 20:27:22
,wl-rdm,123,384707,0.0-8.6-0.6,1.0,124.0,,,,,,,[],,,,,,87.9,0.0,u,0.0,True,630.8000000715256,38.0,61.0,40.0,False,,387.9641972818114,[],"[640, 400]",ColorTask,61.0,7.0,,,HRV,HRV_0270,2022-11-30 20:27:22
,wl-rdm,124,386894,0.0-8.7-0.7,1.0,125.0,,,,,,,[],,,,,,53.2,0.0,i,1.0,False,787.3000000119209,48.0,61.0,40.0,False,,326.8987814532666,[],"[640, 400]",ColorTask,60.0,8.0,,,HRV,HRV_0270,2022-11-30 20:27:22
,wl-rdm,125,389015,0.0-8.8-0.8,1.0,126.0,,,,,,,[],,,,,,56.4,1.0,u,0.0,False,844.1999999880791,51.0,61.0,40.0,False,,200.01695925330148,[],"[640, 400]",ColorTask,59.0,9.0,,,HRV,HRV_0270,2022-11-30 20:27:22
,wl-rdm,126,391337,0.0-8.9-0.9,1.0,127.0,,,,,,,[],,,,,,50.0,0.0,i,1.0,False,915.4000000357628,55.0,61.0,40.0,False,,338.9357711272406,[],"[640, 400]",ColorTask,58.0,10.0,,,HRV,HRV_0270,2022-11-30 20:27:22
,wl-rdm,127,394360,0.0-8.10-0.10,1.0,128.0,,,,,,,[],,,,,,50.0,1.0,u,0.0,False,1610.800000011921,97.0,61.0,40.0,False,,339.52724240227303,[],"[640, 400]",ColorTask,57.0,11.0,,,HRV,HRV_0270,2022-11-30 20:27:22
,wl-rdm,128,396782,0.0-8.11-0.11,1.0,129.0,,,,,,,[],,,,,,53.2,0.0,i,1.0,False,1126.1000000238419,68.0,61.0,40.0,False,,226.3059473583565,[],"[640, 400]",ColorTask,56.0,12.0,,,HRV,HRV_0270,2022-11-30 20:27:22
,wl-rdm,129,398887,0.0-8.12-0.12,1.0,130.0,,,,,,,[],,,,,,87.9,0.0,u,0.0,True,792.1999999880791,48.0,61.0,40.0,False,,236.79810620377003,[],"[640, 400]",ColorTask,57.0,13.0,,,HRV,HRV_0270,2022-11-30 20:27:22
,wl-rdm,130,401358,0.0-8.13-0.13,1.0,131.0,,,,,,,[],,,,,,73.6,1.0,i,1.0,True,1127.199999988079,68.0,61.0,40.0,False,,281.2437925201938,[],"[640, 400]",ColorTask,58.0,14.0,,,HRV,HRV_0270,2022-11-30 20:27:22
,wl-rdm,131,404114,0.0-8.14-0.14,1.0,132.0,,,,,,,[],,,,,,62.5,1.0,u,0.0,False,1389.4000000357628,84.0,61.0,40.0,False,,300.9457070543907,[],"[640, 400]",ColorTask,57.0,15.0,,,HRV,HRV_0270,2022-11-30 20:27:22
,wl-rdm,132,406569,0.0-8.15-0.15,1.0,133.0,,,,,,,[],,,,,,56.4,0.0,u,0.0,True,1147.4000000357628,69.0,61.0,40.0,False,,249.92109322963893,[],"[640, 400]",ColorTask,58.0,16.0,,,HRV,HRV_0270,2022-11-30 20:27:22
,wl-rdm,133,408757,0.0-8.16-0.16,1.0,134.0,,,,,,,[],,,,,,56.4,1.0,i,1.0,True,772.4000000357628,47.0,61.0,40.0,False,,323.1750225060799,[],"[640, 400]",ColorTask,59.0,17.0,,,HRV,HRV_0270,2022-11-30 20:27:22
,wl-rdm,134,410978,0.0-8.17-0.17,1.0,135.0,,,,,,,[],,,,,,50.0,0.0,i,1.0,False,915.0,55.0,61.0,40.0,False,,244.39705576042087,[],"[640, 400]",ColorTask,58.0,18.0,,,HRV,HRV_0270,2022-11-30 20:27:22
,wl-rdm,135,413634,0.0-8.18-0.18,1.0,136.0,,,,,,,[],,,,,,62.5,0.0,i,1.0,False,1225.199999988079,74.0,61.0,40.0,False,,350.85256196469425,[],"[640, 400]",ColorTask,57.0,19.0,,,HRV,HRV_0270,2022-11-30 20:27:22
,wl-rdm,136,416040,0.0-8.19-0.19,1.0,137.0,,,,,,,[],,,,,,50.0,1.0,u,0.0,False,998.8999999761581,60.0,61.0,40.0,False,,345.54856572193216,[],"[640, 400]",ColorTask,56.0,20.0,,,HRV,HRV_0270,2022-11-30 20:27:22
,wl-rdm,137,418279,0.0-8.20-0.20,1.0,138.0,,,,,,,[],,,,,,53.2,0.0,u,0.0,True,942.6999999880791,57.0,61.0,40.0,False,,232.53572658357922,[],"[640, 400]",ColorTask,57.0,21.0,,,HRV,HRV_0270,2022-11-30 20:27:22
,wl-rdm,138,420733,0.0-8.21-0.21,1.0,139.0,,,,,,,[],,,,,,56.4,0.0,u,0.0,True,1137.3999999761581,69.0,61.0,40.0,False,,243.9414290189898,[],"[640, 400]",ColorTask,58.0,22.0,,,HRV,HRV_0270,2022-11-30 20:27:22
,wl-rdm,139,423171,0.0-8.22-0.22,1.0,140.0,,,,,,,[],,,,,,62.5,0.0,u,0.0,True,1041.6000000238419,63.0,61.0,40.0,False,,324.5530476278425,[],"[640, 400]",ColorTask,59.0,23.0,,,HRV,HRV_0270,2022-11-30 20:27:22
,wl-rdm,140,425644,0.0-8.23-0.23,1.0,141.0,,,,,,,[],,,,,,62.5,1.0,u,0.0,False,1055.9000000357628,64.0,61.0,40.0,False,,339.72810820833286,[],"[640, 400]",ColorTask,58.0,24.0,,,HRV,HRV_0270,2022-11-30 20:27:22
,wl-rdm,141,427748,0.0-8.24-0.24,1.0,142.0,,,,,,,[],,,,,,73.6,0.0,u,0.0,True,711.3000000119209,43.0,61.0,40.0,False,,327.5054416180952,[],"[640, 400]",ColorTask,59.0,25.0,,,HRV,HRV_0270,2022-11-30 20:27:22
,wl-rdm,142,429919,0.0-8.25-0.25,1.0,143.0,,,,,,,[],,,,,,56.4,0.0,u,0.0,True,833.3000000119209,50.0,61.0,40.0,False,,271.2142786668687,[],"[640, 400]",ColorTask,60.0,26.0,,,HRV,HRV_0270,2022-11-30 20:27:22
,wl-rdm,143,432023,0.0-8.26-0.26,1.0,144.0,,,,,,,[],,,,,,50.0,0.0,u,0.0,True,766.5999999642372,46.0,61.0,40.0,False,,271.87029504799375,[],"[640, 400]",ColorTask,61.0,27.0,,,HRV,HRV_0270,2022-11-30 20:27:22
,wl-rdm,144,434145,0.0-8.27-0.27,1.0,145.0,,,,,,,[],,,,,,56.4,0.0,u,0.0,True,829.8999999761581,50.0,61.0,40.0,False,,221.2115727791649,[],"[640, 400]",ColorTask,62.0,28.0,,,HRV,HRV_0270,2022-11-30 20:27:22
,wl-rdm,145,436450,0.0-8.28-0.28,1.0,146.0,,,,,,,[],,,,,,56.4,0.0,u,0.0,True,896.6000000238419,54.0,61.0,40.0,False,,341.2049080516853,[],"[640, 400]",ColorTask,63.0,29.0,,,HRV,HRV_0270,2022-11-30 20:27:22
,wl-rdm,146,438687,0.0-8.29-0.29,1.0,147.0,,,,,,,[],,,,,,53.2,1.0,u,0.0,False,798.8000000119209,48.0,61.0,40.0,False,,380.8586173869409,[],"[640, 400]",ColorTask,62.0,30.0,,,HRV,HRV_0270,2022-11-30 20:27:22
,wl-rdm,147,440709,0.0-8.30-0.30,1.0,148.0,,,,,,,[],,,,,,73.6,1.0,i,1.0,True,620.0999999642372,38.0,61.0,40.0,False,,318.1531564231753,[],"[640, 400]",ColorTask,63.0,31.0,,,HRV,HRV_0270,2022-11-30 20:27:22
,wl-rdm,148,442696,0.0-8.31-0.31,1.0,149.0,,,,,,,[],,,,,,56.4,1.0,i,1.0,True,624.1000000238419,38.0,61.0,40.0,False,,292.212546289186,[],"[640, 400]",ColorTask,64.0,32.0,,,HRV,HRV_0270,2022-11-30 20:27:22
,wl-rdm,149,444834,0.0-8.32-0.32,1.0,150.0,,,,,,,[],,,,,,73.6,0.0,u,0.0,True,790.1999999880791,48.0,61.0,40.0,False,,283.92090898410424,[],"[640, 400]",ColorTask,65.0,33.0,,,HRV,HRV_0270,2022-11-30 20:27:22
,wl-rdm,150,447172,0.0-8.33-0.33,1.0,151.0,,,,,,,[],,,,,,73.6,1.0,i,1.0,True,1004.0000000596046,61.0,61.0,40.0,False,,266.91659424837314,[],"[640, 400]",ColorTask,66.0,34.0,,,HRV,HRV_0270,2022-11-30 20:27:22
,wl-rdm,151,449277,0.0-8.34-0.34,1.0,152.0,,,,,,,[],,,,,,56.4,1.0,i,1.0,True,807.5,49.0,61.0,40.0,False,,227.7247524336894,[],"[640, 400]",ColorTask,67.0,35.0,,,HRV,HRV_0270,2022-11-30 20:27:22
,wl-rdm,152,451380,0.0-8.35-0.35,1.0,153.0,,,,,,,[],,,,,,62.5,1.0,i,1.0,True,802.6000000238419,48.0,61.0,40.0,False,,248.03978761688126,[],"[640, 400]",ColorTask,68.0,36.0,,,HRV,HRV_0270,2022-11-30 20:27:22
,wl-rdm,153,453452,0.0-8.36-0.36,1.0,154.0,,,,,,,[],,,,,,62.5,0.0,i,1.0,False,703.8999999761581,42.0,61.0,40.0,False,,298.3129705940537,[],"[640, 400]",ColorTask,67.0,37.0,,,HRV,HRV_0270,2022-11-30 20:27:22
,wl-rdm,154,455707,0.0-8.37-0.37,1.0,155.0,,,,,,,[],,,,,,50.0,1.0,i,1.0,True,810.6000000238419,49.0,61.0,40.0,False,,383.7468892357636,[],"[640, 400]",ColorTask,68.0,38.0,,,HRV,HRV_0270,2022-11-30 20:27:22
,wl-rdm,155,457779,0.0-8.38-0.38,1.0,156.0,,,,,,,[],,,,,,73.6,1.0,i,1.0,True,794.8999999761581,48.0,61.0,40.0,False,,211.6684118955017,[],"[640, 400]",ColorTask,69.0,39.0,,,HRV,HRV_0270,2022-11-30 20:27:22
,wl-rdm,156,459950,0.0-8.39-0.39,1.0,157.0,,,,,,,[],,,,,,62.5,0.0,u,0.0,True,741.6999999880791,45.0,61.0,40.0,False,,350.4087701524489,[],"[640, 400]",ColorTask,70.0,40.0,,,HRV,HRV_0270,2022-11-30 20:27:22
,wl-rdm,157,462021,0.0-8.40-0.40,1.0,158.0,,,,,,,[],,,,,,53.2,0.0,i,1.0,False,754.3999999761581,46.0,61.0,40.0,False,,249.6962552083152,[],"[640, 400]",ColorTask,69.0,41.0,,,HRV,HRV_0270,2022-11-30 20:27:22
,wl-rdm,158,464075,0.0-8.41-0.41,1.0,159.0,,,,,,,[],,,,,,50.0,1.0,u,0.0,False,701.4999999403954,42.0,61.0,40.0,False,,289.38199234494914,[],"[640, 400]",ColorTask,68.0,42.0,,,HRV,HRV_0270,2022-11-30 20:27:22
,wl-rdm,159,466430,0.0-8.42-0.42,1.0,160.0,,,,,,,[],,,,,,87.9,1.0,i,1.0,True,970.5999999642372,59.0,61.0,40.0,False,,304.9345222119779,[],"[640, 400]",ColorTask,69.0,43.0,,,HRV,HRV_0270,2022-11-30 20:27:22
,wl-rdm,160,468718,0.0-8.43-0.43,1.0,161.0,,,,,,,[],,,,,,87.9,1.0,i,1.0,True,858.5,52.0,61.0,40.0,False,,353.87044455446255,[],"[640, 400]",ColorTask,70.0,44.0,,,HRV,HRV_0270,2022-11-30 20:27:22
,wl-rdm,161,471524,0.0-8.44-0.44,1.0,162.0,,,,,,,[],,,,,,62.5,1.0,i,1.0,True,1411.1000000238419,85.0,61.0,40.0,False,,318.11904623969104,[],"[640, 400]",ColorTask,71.0,45.0,,,HRV,HRV_0270,2022-11-30 20:27:22
,wl-rdm,162,473828,0.0-8.45-0.45,1.0,163.0,,,,,,,[],,,,,,53.2,1.0,u,0.0,False,992.9999999403954,60.0,61.0,40.0,False,,242.96732137697447,[],"[640, 400]",ColorTask,70.0,46.0,,,HRV,HRV_0270,2022-11-30 20:27:22
,wl-rdm,163,475884,0.0-8.46-0.46,1.0,164.0,,,,,,,[],,,,,,87.9,1.0,i,1.0,True,653.2000000476837,40.0,61.0,40.0,False,,319.09112273960886,[],"[640, 400]",ColorTask,71.0,47.0,,,HRV,HRV_0270,2022-11-30 20:27:22
,wl-rdm,164,477888,0.0-8.47-0.47,1.0,165.0,,,,,,,[],,,,,,87.9,0.0,u,0.0,True,714.1000000238419,43.0,61.0,40.0,False,,222.83172849104832,[],"[640, 400]",ColorTask,72.0,48.0,,,HRV,HRV_0270,2022-11-30 20:27:22
,wl-rdm,165,480009,0.0-8.48-0.48,1.0,166.0,,,,,,,[],,,,,,87.9,1.0,i,1.0,True,807.3000000715256,49.0,61.0,40.0,False,,245.47832726466675,[],"[640, 400]",ColorTask,73.0,49.0,,,HRV,HRV_0270,2022-11-30 20:27:22
,wl-rdm,166,482047,0.0-8.49-0.49,1.0,167.0,,,,,,,[],,,,,,87.9,0.0,u,0.0,True,699.3000000119209,42.0,61.0,40.0,False,,267.6241266795882,[],"[640, 400]",ColorTask,74.0,50.0,,,HRV,HRV_0270,2022-11-30 20:27:22
,wl-rdm,167,484669,0.0-8.50-0.50,1.0,168.0,,,,,,,[],,,,,,53.2,0.0,u,0.0,True,1251.5,75.0,61.0,40.0,False,,308.5934826713408,[],"[640, 400]",ColorTask,75.0,51.0,,,HRV,HRV_0270,2022-11-30 20:27:22
,wl-rdm,168,486957,0.0-8.51-0.51,1.0,169.0,,,,,,,[],,,,,,50.0,0.0,u,0.0,True,892.8000000119209,54.0,61.0,40.0,False,,304.94108758845096,[],"[640, 400]",ColorTask,76.0,52.0,,,HRV,HRV_0270,2022-11-30 20:27:22
,wl-rdm,169,489076,0.0-8.52-0.52,1.0,170.0,,,,,,,[],,,,,,50.0,1.0,i,1.0,True,806.7000000476837,49.0,61.0,40.0,False,,243.07988283930166,[],"[640, 400]",ColorTask,77.0,53.0,,,HRV,HRV_0270,2022-11-30 20:27:22
,wl-rdm,170,491550,0.0-8.53-0.53,1.0,171.0,,,,,,,[],,,,,,73.6,1.0,i,1.0,True,1050.199999988079,63.0,61.0,40.0,False,,365.705338938522,[],"[640, 400]",ColorTask,78.0,54.0,,,HRV,HRV_0270,2022-11-30 20:27:22
,wl-rdm,171,493870,0.0-8.54-0.54,1.0,172.0,,,,,,,[],,,,,,56.4,0.0,u,0.0,True,1016.1000000238419,61.0,61.0,40.0,False,,246.98125206310078,[],"[640, 400]",ColorTask,79.0,55.0,,,HRV,HRV_0270,2022-11-30 20:27:22
,wl-rdm,172,495960,0.0-8.55-0.55,1.0,173.0,,,,,,,[],,,,,,73.6,0.0,u,0.0,True,762.8999999761581,46.0,61.0,40.0,False,,252.7691901825615,[],"[640, 400]",ColorTask,80.0,56.0,,,HRV,HRV_0270,2022-11-30 20:27:22
,wl-rdm,173,497897,0.0-8.56-0.56,1.0,174.0,,,,,,,[],,,,,,87.9,0.0,u,0.0,True,644.8000000119209,39.0,61.0,40.0,False,,219.30138875174862,[],"[640, 400]",ColorTask,81.0,57.0,,,HRV,HRV_0270,2022-11-30 20:27:22
,wl-rdm,174,500036,0.0-8.57-0.57,1.0,175.0,,,,,,,[],,,,,,87.9,1.0,i,1.0,True,701.8000000119209,42.0,61.0,40.0,False,,378.2798720772287,[],"[640, 400]",ColorTask,82.0,58.0,,,HRV,HRV_0270,2022-11-30 20:27:22
,wl-rdm,175,502223,0.0-8.58-0.58,1.0,176.0,,,,,,,[],,,,,,53.2,0.0,i,1.0,False,765.4000000357628,46.0,61.0,40.0,False,,367.06864548083024,[],"[640, 400]",ColorTask,81.0,59.0,,,HRV,HRV_0270,2022-11-30 20:27:22
,wl-rdm,176,504511,0.0-8.59-0.59,1.0,177.0,,,,,,,[],,,,,,87.9,1.0,i,1.0,True,830.4000000357628,50.0,61.0,40.0,False,,395.36040588172386,[],"[640, 400]",ColorTask,82.0,60.0,,,HRV,HRV_0270,2022-11-30 20:27:22
,wl-rdm,177,506649,0.0-8.60-0.60,1.0,178.0,,,,,,,[],,,,,,87.9,1.0,i,1.0,True,758.2999999523163,46.0,61.0,40.0,False,,304.0964811597298,[],"[640, 400]",ColorTask,83.0,61.0,,,HRV,HRV_0270,2022-11-30 20:27:22
,wl-rdm,178,508720,0.0-8.61-0.61,1.0,179.0,,,,,,,[],,,,,,56.4,1.0,u,0.0,False,721.9999999403954,42.0,61.0,40.0,False,,266.80635271997176,[],"[640, 400]",ColorTask,82.0,62.0,,,HRV,HRV_0270,2022-11-30 20:27:22
,wl-rdm,179,510590,0.0-8.62-0.62,1.0,180.0,,,,,,,[],,,,,,73.6,0.0,u,0.0,True,487.5,30.0,61.0,40.0,False,,313.079125052192,[],"[640, 400]",ColorTask,83.0,63.0,,,HRV,HRV_0270,2022-11-30 20:27:22
,wl-rdm,180,512827,0.0-8.63-0.63,1.0,181.0,,,,,,,[],,,,,,62.5,0.0,i,1.0,False,943.5999999642372,57.0,61.0,40.0,False,,223.61348259686613,[],"[640, 400]",ColorTask,82.0,64.0,,,HRV,HRV_0270,2022-11-30 20:27:22
,wl-rdm,181,515652,0.0-8.64-0.64,1.0,182.0,,,,,,,[],,,,,,87.9,0.0,u,0.0,True,1456.699999988079,88.0,61.0,40.0,False,,298.0488780763787,[],"[640, 400]",ColorTask,83.0,65.0,,,HRV,HRV_0270,2022-11-30 20:27:22
,wl-rdm,182,517790,0.0-8.65-0.65,1.0,183.0,,,,,,,[],,,,,,50.0,0.0,i,1.0,False,747.8999999761581,45.0,61.0,40.0,False,,331.6671500363361,[],"[640, 400]",ColorTask,82.0,66.0,,,HRV,HRV_0270,2022-11-30 20:27:22
,wl-rdm,183,520044,0.0-8.66-0.66,1.0,184.0,,,,,,,[],,,,,,53.2,1.0,u,0.0,False,817.8000000119209,49.0,61.0,40.0,False,,369.99645245415195,[],"[640, 400]",ColorTask,81.0,67.0,,,HRV,HRV_0270,2022-11-30 20:27:22
,wl-rdm,184,522166,0.0-8.67-0.67,1.0,185.0,,,,,,,[],,,,,,73.6,1.0,i,1.0,True,761.0999999642372,46.0,61.0,40.0,False,,294.21231556313114,[],"[640, 400]",ColorTask,82.0,68.0,,,HRV,HRV_0270,2022-11-30 20:27:22
,wl-rdm,185,524856,0.0-8.68-0.68,1.0,186.0,,,,,,,[],,,,,,56.4,0.0,u,0.0,True,1274.800000011921,77.0,61.0,40.0,False,,349.7000784881447,[],"[640, 400]",ColorTask,83.0,69.0,,,HRV,HRV_0270,2022-11-30 20:27:22
,wl-rdm,186,526910,0.0-8.69-0.69,1.0,187.0,,,,,,,[],,,,,,73.6,0.0,i,1.0,False,706.3999999761581,43.0,61.0,40.0,False,,273.76394580154385,[],"[640, 400]",ColorTask,82.0,70.0,,,HRV,HRV_0270,2022-11-30 20:27:22
,wl-rdm,187,528997,0.0-8.70-0.70,1.0,188.0,,,,,,,[],,,,,,56.4,1.0,i,1.0,True,707.6999999880791,43.0,61.0,40.0,False,,304.95331430858033,[],"[640, 400]",ColorTask,83.0,71.0,,,HRV,HRV_0270,2022-11-30 20:27:22
,wl-rdm,188,531201,0.0-8.71-0.71,1.0,189.0,,,,,,,[],,,,,,53.2,1.0,u,0.0,False,872.8000000119209,53.0,61.0,40.0,False,,252.76322418197657,[],"[640, 400]",ColorTask,82.0,72.0,,,HRV,HRV_0270,2022-11-30 20:27:22
,wl-rdm,189,533539,0.0-8.72-0.72,1.0,190.0,,,,,,,[],,,,,,53.2,1.0,u,0.0,False,949.5,57.0,61.0,40.0,False,,320.4794427511081,[],"[640, 400]",ColorTask,81.0,73.0,,,HRV,HRV_0270,2022-11-30 20:27:22
,wl-rdm,190,535912,0.0-8.73-0.73,1.0,191.0,,,,,,,[],,,,,,50.0,0.0,i,1.0,False,1090.800000011921,66.0,61.0,40.0,False,,214.9578985626601,[],"[640, 400]",ColorTask,80.0,74.0,,,HRV,HRV_0270,2022-11-30 20:27:22
,wl-rdm,191,538233,0.0-8.74-0.74,1.0,192.0,,,,,,,[],,,,,,73.6,0.0,u,0.0,True,888.5999999642372,54.0,61.0,40.0,False,,358.283960145734,[],"[640, 400]",ColorTask,81.0,75.0,,,HRV,HRV_0270,2022-11-30 20:27:22
,wl-rdm,192,540387,0.0-8.75-0.75,1.0,193.0,,,,,,,[],,,,,,73.6,0.0,u,0.0,True,826.0999999642372,50.0,61.0,40.0,False,,250.86010514336613,[],"[640, 400]",ColorTask,82.0,76.0,,,HRV,HRV_0270,2022-11-30 20:27:22
,wl-rdm,193,542640,0.0-8.76-0.76,1.0,194.0,,,,,,,[],,,,,,53.2,1.0,i,1.0,True,810.8000000715256,49.0,61.0,40.0,False,,375.3572492080845,[],"[640, 400]",ColorTask,83.0,77.0,,,HRV,HRV_0270,2022-11-30 20:27:22
,wl-rdm,194,544915,0.0-8.77-0.77,1.0,195.0,,,,,,,[],,,,,,62.5,0.0,u,0.0,True,811.3000000119209,49.0,61.0,40.0,False,,389.0154980557243,[],"[640, 400]",ColorTask,84.0,78.0,,,HRV,HRV_0270,2022-11-30 20:27:22
,wl-rdm,195,547070,0.0-8.78-0.78,1.0,196.0,,,,,,,[],,,,,,87.9,1.0,i,1.0,True,833.8000000119209,50.0,61.0,40.0,False,,256.16195342200785,[],"[640, 400]",ColorTask,85.0,79.0,,,HRV,HRV_0270,2022-11-30 20:27:22
,wl-rdm,196,549157,0.0-8.79-0.79,1.0,197.0,,,,,,,[],,,,,,62.5,0.0,u,0.0,True,790.5,48.0,61.0,40.0,False,,225.92149035527493,[],"[640, 400]",ColorTask,86.0,80.0,,,HRV,HRV_0270,2022-11-30 20:27:22
,wl-rdm,197,551261,0.0-8.80-0.80,1.0,198.0,,,,,,,[],,,,,,73.6,0.0,u,0.0,True,681.6000000238419,41.0,61.0,40.0,False,,358.3051170943771,[],"[640, 400]",ColorTask,87.0,81.0,,,HRV,HRV_0270,2022-11-30 20:27:22
,wl-rdm,198,553465,0.0-8.81-0.81,1.0,199.0,,,,,,,[],,,,,,50.0,0.0,i,1.0,False,843.7999999523163,51.0,61.0,40.0,False,,292.4381045087422,[],"[640, 400]",ColorTask,86.0,82.0,,,HRV,HRV_0270,2022-11-30 20:27:22
,wl-rdm,199,555554,0.0-8.82-0.82,1.0,200.0,,,,,,,[],,,,,,53.2,1.0,u,0.0,False,738.3999999165535,45.0,61.0,40.0,False,,283.32534501991245,[],"[640, 400]",ColorTask,85.0,83.0,,,HRV,HRV_0270,2022-11-30 20:27:22
,wl-rdm,200,557942,0.0-8.83-0.83,1.0,201.0,,,,,,,[],,,,,,53.2,0.0,i,1.0,False,1114.8999999761581,67.0,61.0,40.0,False,,205.60781739465858,[],"[640, 400]",ColorTask,84.0,84.0,,,HRV,HRV_0270,2022-11-30 20:27:22
,wl-rdm,201,560246,0.0-8.84-0.84,1.0,202.0,,,,,,,[],,,,,,62.5,1.0,u,0.0,False,1022.1999999880791,62.0,61.0,40.0,False,,202.68806976097585,[],"[640, 400]",ColorTask,83.0,85.0,,,HRV,HRV_0270,2022-11-30 20:27:22
,wl-rdm,202,563035,0.0-8.85-0.85,1.0,203.0,,,,,,,[],,,,,,56.4,0.0,u,0.0,True,1495.1000000238419,90.0,61.0,40.0,False,,229.5854388558631,[],"[640, 400]",ColorTask,84.0,86.0,,,HRV,HRV_0270,2022-11-30 20:27:22
,wl-rdm,203,566127,0.0-8.86-0.86,1.0,204.0,,,,,,,[],,,,,,50.0,0.0,u,0.0,True,1727.199999988079,104.0,61.0,40.0,False,,287.0366115703126,[],"[640, 400]",ColorTask,85.0,87.0,,,HRV,HRV_0270,2022-11-30 20:27:22
,wl-rdm,204,568481,0.0-8.87-0.87,1.0,205.0,,,,,,,[],,,,,,62.5,1.0,i,1.0,True,985.9000000357628,59.0,61.0,40.0,False,,312.5396384285573,[],"[640, 400]",ColorTask,86.0,88.0,,,HRV,HRV_0270,2022-11-30 20:27:22
,wl-rdm,205,570820,0.0-8.88-0.88,1.0,206.0,,,,,,,[],,,,,,53.2,1.0,i,1.0,True,1041.800000011921,63.0,61.0,40.0,False,,227.41043367315336,[],"[640, 400]",ColorTask,87.0,89.0,,,HRV,HRV_0270,2022-11-30 20:27:22
,wl-rdm,206,573443,0.0-8.89-0.89,1.0,207.0,,,,,,,[],,,,,,50.0,0.0,u,0.0,True,1176.9000000357628,71.0,61.0,40.0,False,,368.0722336992351,[],"[640, 400]",ColorTask,88.0,90.0,,,HRV,HRV_0270,2022-11-30 20:27:22
,wl-rdm,207,576013,0.0-8.90-0.90,1.0,208.0,,,,,,,[],,,,,,62.5,0.0,u,0.0,True,1314.6000000238419,79.0,61.0,40.0,False,,201.17514759324328,[],"[640, 400]",ColorTask,89.0,91.0,,,HRV,HRV_0270,2022-11-30 20:27:22
,wl-rdm,208,578184,0.0-8.91-0.91,1.0,209.0,,,,,,,[],,,,,,73.6,0.0,u,0.0,True,860.8000000119209,52.0,61.0,40.0,False,,232.37685884735322,[],"[640, 400]",ColorTask,90.0,92.0,,,HRV,HRV_0270,2022-11-30 20:27:22
,wl-rdm,209,580289,0.0-8.92-0.92,1.0,210.0,,,,,,,[],,,,,,50.0,1.0,i,1.0,True,702.7999999523163,43.0,61.0,40.0,False,,319.82753215028987,[],"[640, 400]",ColorTask,91.0,93.0,,,HRV,HRV_0270,2022-11-30 20:27:22
,wl-rdm,210,582309,0.0-8.93-0.93,1.0,211.0,,,,,,,[],,,,,,50.0,1.0,i,1.0,True,681.1000000238419,41.0,61.0,40.0,False,,275.58855296616247,[],"[640, 400]",ColorTask,92.0,94.0,,,HRV,HRV_0270,2022-11-30 20:27:22
,wl-rdm,211,584498,0.0-8.94-0.94,1.0,212.0,,,,,,,[],,,,,,56.4,1.0,i,1.0,True,810.0,49.0,61.0,40.0,False,,302.82491390130537,[],"[640, 400]",ColorTask,93.0,95.0,,,HRV,HRV_0270,2022-11-30 20:27:22
,wl-rdm,212,586838,0.0-8.95-0.95,1.0,213.0,,,,,,,[],,,,,,53.2,1.0,u,0.0,False,914.5999999642372,55.0,61.0,40.0,False,,366.9598806606663,[],"[640, 400]",ColorTask,92.0,96.0,,,HRV,HRV_0270,2022-11-30 20:27:22
,wl-rdm,213,588892,0.0-8.96-0.96,1.0,214.0,,,,,,,[],,,,,,87.9,0.0,u,0.0,True,775.1000000834465,47.0,61.0,40.0,False,,202.56511110249724,[],"[640, 400]",ColorTask,93.0,97.0,,,HRV,HRV_0270,2022-11-30 20:27:22
,wl-rdm,214,591080,0.0-8.97-0.97,1.0,215.0,,,,,,,[],,,,,,50.0,1.0,i,1.0,True,858.1999999880791,52.0,61.0,40.0,False,,256.02666710741136,[],"[640, 400]",ColorTask,94.0,98.0,,,HRV,HRV_0270,2022-11-30 20:27:22
,wl-rdm,215,593083,0.0-8.98-0.98,1.0,216.0,,,,,,,[],,,,,,62.5,1.0,i,1.0,True,691.8000000119209,42.0,61.0,40.0,False,,245.08486331619844,[],"[640, 400]",ColorTask,95.0,99.0,,,HRV,HRV_0270,2022-11-30 20:27:22
,wl-rdm,216,595221,0.0-8.99-0.99,1.0,217.0,,,,,,,[],,,,,,73.6,1.0,i,1.0,True,847.3999999761581,51.0,61.0,40.0,False,,228.1264641272851,[],"[640, 400]",ColorTask,96.0,100.0,,,HRV,HRV_0270,2022-11-30 20:27:22
,wl-rdm,217,597543,0.0-8.100-0.100,1.0,218.0,,,,,,,[],,,,,,56.4,0.0,u,0.0,True,962.3000000119209,58.0,61.0,40.0,False,,286.78525435058054,[],"[640, 400]",ColorTask,97.0,101.0,,,HRV,HRV_0270,2022-11-30 20:27:22
,wl-rdm,218,599779,0.0-8.101-0.101,1.0,219.0,,,,,,,[],,,,,,73.6,1.0,i,1.0,True,898.3999999761581,54.0,61.0,40.0,False,,280.7851040426491,[],"[640, 400]",ColorTask,98.0,102.0,,,HRV,HRV_0270,2022-11-30 20:27:22
,wl-rdm,219,602135,0.0-8.102-0.102,1.0,220.0,,,,,,,[],,,,,,62.5,1.0,u,0.0,False,1022.2000000476837,62.0,61.0,40.0,False,,260.2423762887307,[],"[640, 400]",ColorTask,97.0,103.0,,,HRV,HRV_0270,2022-11-30 20:27:22
,wl-rdm,220,604708,0.0-8.103-0.103,1.0,221.0,,,,,,,[],,,,,,53.2,0.0,u,0.0,True,1299.4000000357628,78.0,61.0,40.0,False,,206.52559714224375,[],"[640, 400]",ColorTask,98.0,104.0,,,HRV,HRV_0270,2022-11-30 20:27:22
,wl-rdm,221,607064,0.0-8.104-0.104,1.0,222.0,,,,,,,[],,,,,,87.9,0.0,u,0.0,True,944.0,57.0,61.0,40.0,False,,340.9551890888913,[],"[640, 400]",ColorTask,99.0,105.0,,,HRV,HRV_0270,2022-11-30 20:27:22
,wl-rdm,222,609200,0.0-8.105-0.105,1.0,223.0,,,,,,,[],,,,,,87.9,1.0,i,1.0,True,670.8000000119209,41.0,61.0,40.0,False,,390.3170165170382,[],"[640, 400]",ColorTask,100.0,106.0,,,HRV,HRV_0270,2022-11-30 20:27:22
,wl-rdm,223,611806,0.0-8.106-0.106,1.0,224.0,,,,,,,[],,,,,,62.5,0.0,u,0.0,True,1225.0999999642372,74.0,61.0,40.0,False,,303.3285316866176,[],"[640, 400]",ColorTask,101.0,107.0,,,HRV,HRV_0270,2022-11-30 20:27:22
,wl-rdm,224,614312,0.0-8.107-0.107,1.0,225.0,,,,,,,[],,,,,,56.4,1.0,i,1.0,True,1121.0999999642372,68.0,61.0,40.0,False,,309.5222073691397,[],"[640, 400]",ColorTask,102.0,108.0,,,HRV,HRV_0270,2022-11-30 20:27:22
,wl-html-button-response,225,616265,0.0-9.0-0.0,,,,,,,,,,1946.5999999642372,,0,,,,,,,,,,,,,,,,,,,,<h3>End of this session. Thank you!</h3><br>,['Close window'],HRV,HRV_0270,2022-11-30 20:27:22
