trialN,stimuli,trialStartTime,trialStartTime_UNIX,stimulus1,stimulus2,stimulus1Bid,stimulus2Bid,delta,selected,rt,rt_UNIX,rt_perfnow,receivedResponse,rsp,trialEndTime,trialDuration,trialEndTime_UNIX,trialDuration_UNIX,exp,subjectId,date
0,"[{'imgObject': {}, 'id': 'popsicles', 'src': '/static/foodstim60/popsicles.jpg', 'key': 'u', 'origWidth': 410, 'origHeight': 410, 'width': 410, 'height': 410, 'widthPercent': 0.45, 'rescaleHeight': False, 'trialN': 0, 'loaded': True, 'loadedTime': 5592, 'positionName': 'LEFT', 'positionCoords': [186.16, 144], 'bid': 4.51}, {'imgObject': {}, 'id': 'mashed potato', 'src': '/static/foodstim60/mashed potato.jpg', 'key': 'i', 'origWidth': 409, 'origHeight': 409, 'width': 409, 'height': 409, 'widthPercent': 0.45, 'rescaleHeight': False, 'trialN': 0, 'loaded': True, 'loadedTime': 5614.399999856949, 'positionName': 'RIGHT', 'positionCoords': [645.84, 144.5], 'bid': 6.61}]",6605.899999856949,1669830667012,popsicles,mashed potato,4.51,6.61,2.1000000000000005,popsicles,760.5,764,763.8000001907349,True,u,7878.399999856949,1272.5,1669830668285,1273,HRV,HRV_0032,2022-11-30 17:54:20
1,"[{'imgObject': {}, 'id': 'luckycharms', 'src': '/static/foodstim60/luckycharms.jpg', 'key': 'u', 'origWidth': 410, 'origHeight': 409, 'width': 410, 'height': 409, 'widthPercent': 0.45, 'rescaleHeight': False, 'trialN': 1, 'loaded': True, 'loadedTime': 5628.399999856949, 'positionName': 'LEFT', 'positionCoords': [186.16, 144.5], 'bid': 4.29}, {'imgObject': {}, 'id': 'cherries', 'src': '/static/foodstim60/cherries.jpg', 'key': 'i', 'origWidth': 410, 'origHeight': 411, 'width': 410, 'height': 411, 'widthPercent': 0.45, 'rescaleHeight': False, 'trialN': 1, 'loaded': True, 'loadedTime': 5673.700000047684, 'positionName': 'RIGHT', 'positionCoords': [645.84, 143.5], 'bid': 6.11}]",7878.599999904633,1669830668285,luckycharms,cherries,4.29,6.11,1.8200000000000003,cherries,426.90000009536743,428,427.90000009536743,True,i,8821.599999904633,943.0,1669830669228,943,HRV,HRV_0032,2022-11-30 17:54:20
2,"[{'imgObject': {}, 'id': 'steak', 'src': '/static/foodstim60/steak.jpg', 'key': 'u', 'origWidth': 410, 'origHeight': 410, 'width': 410, 'height': 410, 'widthPercent': 0.45, 'rescaleHeight': False, 'trialN': 2, 'loaded': True, 'loadedTime': 5741.700000047684, 'positionName': 'LEFT', 'positionCoords': [186.16, 144], 'bid': 8.65}, {'imgObject': {}, 'id': 'bagel plain', 'src': '/static/foodstim60/bagel plain.jpg', 'key': 'i', 'origWidth': 410, 'origHeight': 410, 'width': 410, 'height': 410, 'widthPercent': 0.45, 'rescaleHeight': False, 'trialN': 2, 'loaded': True, 'loadedTime': 5776, 'positionName': 'RIGHT', 'positionCoords': [645.84, 144], 'bid': 6.93}]",8821.799999952316,1669830669228,steak,bagel plain,8.65,6.93,-1.7200000000000006,steak,665.0999999046326,667,666.4000000953674,True,u,9991.799999952316,1170.0,1669830670399,1171,HRV,HRV_0032,2022-11-30 17:54:20
3,"[{'imgObject': {}, 'id': 'grilled chicken strips', 'src': '/static/foodstim60/grilled chicken strips.jpg', 'key': 'u', 'origWidth': 410, 'origHeight': 411, 'width': 410, 'height': 411, 'widthPercent': 0.45, 'rescaleHeight': False, 'trialN': 3, 'loaded': True, 'loadedTime': 5811.399999856949, 'positionName': 'LEFT', 'positionCoords': [186.16, 143.5], 'bid': 5.33}, {'imgObject': {}, 'id': 'tacos', 'src': '/static/foodstim60/tacos.jpg', 'key': 'i', 'origWidth': 411, 'origHeight': 411, 'width': 411, 'height': 411, 'widthPercent': 0.45, 'rescaleHeight': False, 'trialN': 3, 'loaded': True, 'loadedTime': 5815.399999856949, 'positionName': 'RIGHT', 'positionCoords': [645.84, 143.5], 'bid': 7.54}]",9992.399999856949,1669830670399,grilled chicken strips,tacos,5.33,7.54,2.21,tacos,486.2000000476837,487,487.0,True,i,10990.599999904633,998.2000000476837,1669830671397,998,HRV,HRV_0032,2022-11-30 17:54:20
4,"[{'imgObject': {}, 'id': 'mango', 'src': '/static/foodstim60/mango.jpg', 'key': 'u', 'origWidth': 411, 'origHeight': 411, 'width': 411, 'height': 411, 'widthPercent': 0.45, 'rescaleHeight': False, 'trialN': 4, 'loaded': True, 'loadedTime': 5849.599999904633, 'positionName': 'LEFT', 'positionCoords': [185.16, 143.5], 'bid': 3.51}, {'imgObject': {}, 'id': 'kiwi', 'src': '/static/foodstim60/kiwi.jpg', 'key': 'i', 'origWidth': 410, 'origHeight': 410, 'width': 410, 'height': 410, 'widthPercent': 0.45, 'rescaleHeight': False, 'trialN': 4, 'loaded': True, 'loadedTime': 5882.299999952316, 'positionName': 'RIGHT', 'positionCoords': [645.84, 144], 'bid': 3.74}]",10990.899999856949,1669830671397,mango,kiwi,3.51,3.74,0.23000000000000043,mango,421.7000000476837,423,422.80000019073486,True,u,11928.200000047684,937.3000001907349,1669830672335,938,HRV,HRV_0032,2022-11-30 17:54:20
5,"[{'imgObject': {}, 'id': 'luckycharms', 'src': '/static/foodstim60/luckycharms.jpg', 'key': 'u', 'origWidth': 410, 'origHeight': 409, 'width': 410, 'height': 409, 'widthPercent': 0.45, 'rescaleHeight': False, 'trialN': 5, 'loaded': True, 'loadedTime': 5655, 'positionName': 'LEFT', 'positionCoords': [186.16, 144.5], 'bid': 4.29}, {'imgObject': {}, 'id': 'turkeysandwich', 'src': '/static/foodstim60/turkeysandwich.jpg', 'key': 'i', 'origWidth': 409, 'origHeight': 409, 'width': 409, 'height': 409, 'widthPercent': 0.45, 'rescaleHeight': False, 'trialN': 5, 'loaded': True, 'loadedTime': 5924.899999856949, 'positionName': 'RIGHT', 'positionCoords': [645.84, 144.5], 'bid': 4.17}]",11928.700000047684,1669830672335,luckycharms,turkeysandwich,4.29,4.17,-0.1200000000000001,turkeysandwich,486.19999980926514,487,486.89999985694885,True,i,12919.200000047684,990.5,1669830673326,991,HRV,HRV_0032,2022-11-30 17:54:20
6,"[{'imgObject': {}, 'id': 'Tribe humus pita', 'src': '/static/foodstim60/Tribe humus pita.jpg', 'key': 'u', 'origWidth': 411, 'origHeight': 411, 'width': 411, 'height': 411, 'widthPercent': 0.45, 'rescaleHeight': False, 'trialN': 6, 'loaded': True, 'loadedTime': 5971, 'positionName': 'LEFT', 'positionCoords': [185.16, 143.5], 'bid': 6.94}, {'imgObject': {}, 'id': 'pear', 'src': '/static/foodstim60/pear.jpg', 'key': 'i', 'origWidth': 411, 'origHeight': 410, 'width': 411, 'height': 410, 'widthPercent': 0.45, 'rescaleHeight': False, 'trialN': 6, 'loaded': True, 'loadedTime': 6017.799999952316, 'positionName': 'RIGHT', 'positionCoords': [645.84, 144], 'bid': 6.67}]",12919.599999904633,1669830673326,Tribe humus pita,pear,6.94,6.67,-0.27000000000000046,Tribe humus pita,456,457,456.7999999523163,True,u,13890.5,970.9000000953674,1669830674297,971,HRV,HRV_0032,2022-11-30 17:54:20
7,"[{'imgObject': {}, 'id': 'mashed potato', 'src': '/static/foodstim60/mashed potato.jpg', 'key': 'u', 'origWidth': 409, 'origHeight': 409, 'width': 409, 'height': 409, 'widthPercent': 0.45, 'rescaleHeight': False, 'trialN': 7, 'loaded': True, 'loadedTime': 5604.899999856949, 'positionName': 'LEFT', 'positionCoords': [187.16, 144.5], 'bid': 6.61}, {'imgObject': {}, 'id': 'cheerios', 'src': '/static/foodstim60/cheerios.jpg', 'key': 'i', 'origWidth': 409, 'origHeight': 410, 'width': 409, 'height': 410, 'widthPercent': 0.45, 'rescaleHeight': False, 'trialN': 7, 'loaded': True, 'loadedTime': 6039.799999952316, 'positionName': 'RIGHT', 'positionCoords': [645.84, 144], 'bid': 6.9}]",13890.599999904633,1669830674297,mashed potato,cheerios,6.61,6.9,0.29000000000000004,mashed potato,433.7999999523163,435,435.0,True,u,14865.0,974.4000000953674,1669830675272,975,HRV,HRV_0032,2022-11-30 17:54:20
8,"[{'imgObject': {}, 'id': 'eggsalad', 'src': '/static/foodstim60/eggsalad.jpg', 'key': 'u', 'origWidth': 410, 'origHeight': 409, 'width': 410, 'height': 409, 'widthPercent': 0.45, 'rescaleHeight': False, 'trialN': 8, 'loaded': True, 'loadedTime': 6054.599999904633, 'positionName': 'LEFT', 'positionCoords': [186.16, 144.5], 'bid': 6.640000000000001}, {'imgObject': {}, 'id': 'chicken nuggets2', 'src': '/static/foodstim60/chicken nuggets2.jpg', 'key': 'i', 'origWidth': 410, 'origHeight': 409, 'width': 410, 'height': 409, 'widthPercent': 0.45, 'rescaleHeight': False, 'trialN': 8, 'loaded': True, 'loadedTime': 6063.5, 'positionName': 'RIGHT', 'positionCoords': [645.84, 144.5], 'bid': 9.21}]",14865.799999952316,1669830675272,eggsalad,chicken nuggets2,6.640000000000001,9.21,2.5700000000000003,eggsalad,441.7999999523163,443,442.59999990463257,True,u,15827.700000047684,961.9000000953674,1669830676234,962,HRV,HRV_0032,2022-11-30 17:54:20
9,"[{'imgObject': {}, 'id': 'fruitsalad', 'src': '/static/foodstim60/fruitsalad.jpg', 'key': 'u', 'origWidth': 410, 'origHeight': 410, 'width': 410, 'height': 410, 'widthPercent': 0.45, 'rescaleHeight': False, 'trialN': 9, 'loaded': True, 'loadedTime': 6099.700000047684, 'positionName': 'LEFT', 'positionCoords': [186.16, 144], 'bid': 7.07}, {'imgObject': {}, 'id': 'tacos', 'src': '/static/foodstim60/tacos.jpg', 'key': 'i', 'origWidth': 411, 'origHeight': 411, 'width': 411, 'height': 411, 'widthPercent': 0.45, 'rescaleHeight': False, 'trialN': 9, 'loaded': True, 'loadedTime': 5821.899999856949, 'positionName': 'RIGHT', 'positionCoords': [645.84, 143.5], 'bid': 7.54}]",15827.899999856949,1669830676234,fruitsalad,tacos,7.07,7.54,0.46999999999999975,tacos,406.90000009536743,408,407.80000019073486,True,i,16745.099999904633,917.2000000476837,1669830677151,917,HRV,HRV_0032,2022-11-30 17:54:20
10,"[{'imgObject': {}, 'id': 'blackbeanswithrice', 'src': '/static/foodstim60/blackbeanswithrice.jpg', 'key': 'u', 'origWidth': 410, 'origHeight': 410, 'width': 410, 'height': 410, 'widthPercent': 0.45, 'rescaleHeight': False, 'trialN': 10, 'loaded': True, 'loadedTime': 6120.299999952316, 'positionName': 'LEFT', 'positionCoords': [186.16, 144], 'bid': 9.17}, {'imgObject': {}, 'id': 'edamame', 'src': '/static/foodstim60/edamame.jpg', 'key': 'i', 'origWidth': 409, 'origHeight': 410, 'width': 409, 'height': 410, 'widthPercent': 0.45, 'rescaleHeight': False, 'trialN': 10, 'loaded': True, 'loadedTime': 6135.099999904633, 'positionName': 'RIGHT', 'positionCoords': [645.84, 144], 'bid': 6.62}]",16745.200000047684,1669830677152,blackbeanswithrice,edamame,9.17,6.62,-2.55,blackbeanswithrice,447.39999985694885,448,448.09999990463257,True,u,17715.099999904633,969.8999998569489,1669830678122,970,HRV,HRV_0032,2022-11-30 17:54:20
11,"[{'imgObject': {}, 'id': 'burger', 'src': '/static/foodstim60/burger.jpg', 'key': 'u', 'origWidth': 409, 'origHeight': 409, 'width': 409, 'height': 409, 'widthPercent': 0.45, 'rescaleHeight': False, 'trialN': 11, 'loaded': True, 'loadedTime': 6148.399999856949, 'positionName': 'LEFT', 'positionCoords': [187.16, 144.5], 'bid': 6.8500000000000005}, {'imgObject': {}, 'id': 'froot loops w milk', 'src': '/static/foodstim60/froot loops w milk.jpg', 'key': 'i', 'origWidth': 410, 'origHeight': 410, 'width': 410, 'height': 410, 'widthPercent': 0.45, 'rescaleHeight': False, 'trialN': 11, 'loaded': True, 'loadedTime': 6192.399999856949, 'positionName': 'RIGHT', 'positionCoords': [645.84, 144], 'bid': 3.48}]",17715.299999952316,1669830678122,burger,froot loops w milk,6.8500000000000005,3.48,-3.3700000000000006,froot loops w milk,411.59999990463257,412,412.59999990463257,True,i,18637.700000047684,922.4000000953674,1669830679044,922,HRV,HRV_0032,2022-11-30 17:54:20
12,"[{'imgObject': {}, 'id': 'cantaloupe', 'src': '/static/foodstim60/cantaloupe.jpg', 'key': 'u', 'origWidth': 409, 'origHeight': 409, 'width': 409, 'height': 409, 'widthPercent': 0.45, 'rescaleHeight': False, 'trialN': 12, 'loaded': True, 'loadedTime': 6198.700000047684, 'positionName': 'LEFT', 'positionCoords': [187.16, 144.5], 'bid': 4.62}, {'imgObject': {}, 'id': 'kiwi', 'src': '/static/foodstim60/kiwi.jpg', 'key': 'i', 'origWidth': 410, 'origHeight': 410, 'width': 410, 'height': 410, 'widthPercent': 0.45, 'rescaleHeight': False, 'trialN': 12, 'loaded': True, 'loadedTime': 5885, 'positionName': 'RIGHT', 'positionCoords': [645.84, 144], 'bid': 3.74}]",18637.89999985695,1669830679044,cantaloupe,kiwi,4.62,3.74,-0.8799999999999999,cantaloupe,596.8000001907349,598,597.8000001907349,True,u,19753.299999952316,1115.4000000953674,1669830680160,1116,HRV,HRV_0032,2022-11-30 17:54:20
13,"[{'imgObject': {}, 'id': 'lox', 'src': '/static/foodstim60/lox.jpg', 'key': 'u', 'origWidth': 410, 'origHeight': 411, 'width': 410, 'height': 411, 'widthPercent': 0.45, 'rescaleHeight': False, 'trialN': 13, 'loaded': True, 'loadedTime': 6212.200000047684, 'positionName': 'LEFT', 'positionCoords': [186.16, 143.5], 'bid': 9.38}, {'imgObject': {}, 'id': 'seaweed', 'src': '/static/foodstim60/seaweed.jpg', 'key': 'i', 'origWidth': 410, 'origHeight': 410, 'width': 410, 'height': 410, 'widthPercent': 0.45, 'rescaleHeight': False, 'trialN': 13, 'loaded': True, 'loadedTime': 6163.5, 'positionName': 'RIGHT', 'positionCoords': [645.84, 144], 'bid': 7.35}]",19753.599999904633,1669830680160,lox,seaweed,9.38,7.35,-2.030000000000001,seaweed,423,424,423.7999999523163,True,i,20710.39999985695,956.7999999523163,1669830681117,957,HRV,HRV_0032,2022-11-30 17:54:20
14,"[{'imgObject': {}, 'id': 'mac & cheese', 'src': '/static/foodstim60/mac & cheese.jpg', 'key': 'u', 'origWidth': 410, 'origHeight': 410, 'width': 410, 'height': 410, 'widthPercent': 0.45, 'rescaleHeight': False, 'trialN': 14, 'loaded': True, 'loadedTime': 6229.099999904633, 'positionName': 'LEFT', 'positionCoords': [186.16, 144], 'bid': 5.8500000000000005}, {'imgObject': {}, 'id': 'rigatoni', 'src': '/static/foodstim60/rigatoni.jpg', 'key': 'i', 'origWidth': 411, 'origHeight': 411, 'width': 411, 'height': 411, 'widthPercent': 0.45, 'rescaleHeight': False, 'trialN': 14, 'loaded': True, 'loadedTime': 6242.399999856949, 'positionName': 'RIGHT', 'positionCoords': [645.84, 143.5], 'bid': 6.54}]",20710.599999904633,1669830681117,mac & cheese,rigatoni,5.8500000000000005,6.54,0.6899999999999995,rigatoni,468.2000000476837,469,469.10000014305115,True,i,21694.0,983.4000000953674,1669830682100,983,HRV,HRV_0032,2022-11-30 17:54:20
15,"[{'imgObject': {}, 'id': 'rigatoni and sauce', 'src': '/static/foodstim60/rigatoni and sauce.jpg', 'key': 'u', 'origWidth': 410, 'origHeight': 411, 'width': 410, 'height': 411, 'widthPercent': 0.45, 'rescaleHeight': False, 'trialN': 15, 'loaded': True, 'loadedTime': 6259.299999952316, 'positionName': 'LEFT', 'positionCoords': [186.16, 143.5], 'bid': 7.12}, {'imgObject': {}, 'id': 'Tribe humus pita', 'src': '/static/foodstim60/Tribe humus pita.jpg', 'key': 'i', 'origWidth': 411, 'origHeight': 411, 'width': 411, 'height': 411, 'widthPercent': 0.45, 'rescaleHeight': False, 'trialN': 15, 'loaded': True, 'loadedTime': 6002.5, 'positionName': 'RIGHT', 'positionCoords': [645.84, 143.5], 'bid': 6.94}]",21694.200000047684,1669830682101,rigatoni and sauce,Tribe humus pita,7.12,6.94,-0.17999999999999972,rigatoni and sauce,439.59999990463257,440,440.69999980926514,True,u,22652.700000047684,958.5,1669830683059,958,HRV,HRV_0032,2022-11-30 17:54:20
16,"[{'imgObject': {}, 'id': 'tacos', 'src': '/static/foodstim60/tacos.jpg', 'key': 'u', 'origWidth': 411, 'origHeight': 411, 'width': 411, 'height': 411, 'widthPercent': 0.45, 'rescaleHeight': False, 'trialN': 16, 'loaded': True, 'loadedTime': 5843.799999952316, 'positionName': 'LEFT', 'positionCoords': [185.16, 143.5], 'bid': 7.54}, {'imgObject': {}, 'id': 'olives', 'src': '/static/foodstim60/olives.jpg', 'key': 'i', 'origWidth': 410, 'origHeight': 410, 'width': 410, 'height': 410, 'widthPercent': 0.45, 'rescaleHeight': False, 'trialN': 16, 'loaded': True, 'loadedTime': 6294.399999856949, 'positionName': 'RIGHT', 'positionCoords': [645.84, 144], 'bid': 8.88}]",22652.799999952316,1669830683059,tacos,olives,7.54,8.88,1.3400000000000007,olives,513.4000000953674,514,514.2000000476837,True,i,23673.0,1020.2000000476837,1669830684079,1020,HRV,HRV_0032,2022-11-30 17:54:20
17,"[{'imgObject': {}, 'id': 'mac & cheese', 'src': '/static/foodstim60/mac & cheese.jpg', 'key': 'u', 'origWidth': 410, 'origHeight': 410, 'width': 410, 'height': 410, 'widthPercent': 0.45, 'rescaleHeight': False, 'trialN': 17, 'loaded': True, 'loadedTime': 6221.899999856949, 'positionName': 'LEFT', 'positionCoords': [186.16, 144], 'bid': 5.8500000000000005}, {'imgObject': {}, 'id': 'chickenfingers', 'src': '/static/foodstim60/chickenfingers.jpg', 'key': 'i', 'origWidth': 410, 'origHeight': 410, 'width': 410, 'height': 410, 'widthPercent': 0.45, 'rescaleHeight': False, 'trialN': 17, 'loaded': True, 'loadedTime': 6262.200000047684, 'positionName': 'RIGHT', 'positionCoords': [645.84, 144], 'bid': 8.44}]",23673.39999985695,1669830684080,mac & cheese,chickenfingers,5.8500000000000005,8.44,2.589999999999999,mac & cheese,481.5,483,482.80000019073486,True,u,24663.799999952316,990.4000000953674,1669830685070,990,HRV,HRV_0032,2022-11-30 17:54:20
18,"[{'imgObject': {}, 'id': 'chickenfingers', 'src': '/static/foodstim60/chickenfingers.jpg', 'key': 'u', 'origWidth': 410, 'origHeight': 410, 'width': 410, 'height': 410, 'widthPercent': 0.45, 'rescaleHeight': False, 'trialN': 18, 'loaded': True, 'loadedTime': 6281.899999856949, 'positionName': 'LEFT', 'positionCoords': [186.16, 144], 'bid': 8.44}, {'imgObject': {}, 'id': 'shreddedwheatwithmilk', 'src': '/static/foodstim60/shreddedwheatwithmilk.jpg', 'key': 'i', 'origWidth': 410, 'origHeight': 410, 'width': 410, 'height': 410, 'widthPercent': 0.45, 'rescaleHeight': False, 'trialN': 18, 'loaded': True, 'loadedTime': 6301.099999904633, 'positionName': 'RIGHT', 'positionCoords': [645.84, 144], 'bid': 9.28}]",24664.0,1669830685070,chickenfingers,shreddedwheatwithmilk,8.44,9.28,0.8399999999999999,shreddedwheatwithmilk,529.2999999523163,531,530.0999999046326,True,i,25714.700000047684,1050.7000000476837,1669830686121,1051,HRV,HRV_0032,2022-11-30 17:54:20
19,"[{'imgObject': {}, 'id': 'granola w milk', 'src': '/static/foodstim60/granola w milk.jpg', 'key': 'u', 'origWidth': 410, 'origHeight': 410, 'width': 410, 'height': 410, 'widthPercent': 0.45, 'rescaleHeight': False, 'trialN': 19, 'loaded': True, 'loadedTime': 6309.299999952316, 'positionName': 'LEFT', 'positionCoords': [186.16, 144], 'bid': 6.73}, {'imgObject': {}, 'id': 'burrito', 'src': '/static/foodstim60/burrito.jpg', 'key': 'i', 'origWidth': 410, 'origHeight': 410, 'width': 410, 'height': 410, 'widthPercent': 0.45, 'rescaleHeight': False, 'trialN': 19, 'loaded': True, 'loadedTime': 6323.899999856949, 'positionName': 'RIGHT', 'positionCoords': [645.84, 144], 'bid': 6.8500000000000005}]",25714.89999985695,1669830686121,granola w milk,burrito,6.73,6.8500000000000005,0.1200000000000001,granola w milk,476.60000014305115,478,477.7000000476837,True,u,26698.799999952316,983.9000000953674,1669830687105,984,HRV,HRV_0032,2022-11-30 17:54:20
20,"[{'imgObject': {}, 'id': 'granola w milk', 'src': '/static/foodstim60/granola w milk.jpg', 'key': 'u', 'origWidth': 410, 'origHeight': 410, 'width': 410, 'height': 410, 'widthPercent': 0.45, 'rescaleHeight': False, 'trialN': 20, 'loaded': True, 'loadedTime': 6314.200000047684, 'positionName': 'LEFT', 'positionCoords': [186.16, 144], 'bid': 6.73}, {'imgObject': {}, 'id': 'burger', 'src': '/static/foodstim60/burger.jpg', 'key': 'i', 'origWidth': 409, 'origHeight': 409, 'width': 409, 'height': 409, 'widthPercent': 0.45, 'rescaleHeight': False, 'trialN': 20, 'loaded': True, 'loadedTime': 6150.700000047684, 'positionName': 'RIGHT', 'positionCoords': [645.84, 144.5], 'bid': 6.8500000000000005}]",26699.200000047684,1669830687106,granola w milk,burger,6.73,6.8500000000000005,0.1200000000000001,burger,781.7999999523163,782,782.5999999046326,True,i,27998.099999904633,1298.8999998569489,1669830688404,1298,HRV,HRV_0032,2022-11-30 17:54:20
21,"[{'imgObject': {}, 'id': 'chicken nuggets2', 'src': '/static/foodstim60/chicken nuggets2.jpg', 'key': 'u', 'origWidth': 410, 'origHeight': 409, 'width': 410, 'height': 409, 'widthPercent': 0.45, 'rescaleHeight': False, 'trialN': 21, 'loaded': True, 'loadedTime': 6077.399999856949, 'positionName': 'LEFT', 'positionCoords': [186.16, 144.5], 'bid': 9.21}, {'imgObject': {}, 'id': 'olives', 'src': '/static/foodstim60/olives.jpg', 'key': 'i', 'origWidth': 410, 'origHeight': 410, 'width': 410, 'height': 410, 'widthPercent': 0.45, 'rescaleHeight': False, 'trialN': 21, 'loaded': True, 'loadedTime': 6289, 'positionName': 'RIGHT', 'positionCoords': [645.84, 144], 'bid': 8.88}]",27998.200000047684,1669830688405,chicken nuggets2,olives,9.21,8.88,-0.33000000000000007,chicken nuggets2,465.2999999523163,466,466.69999980926514,True,u,28969.5,971.2999999523163,1669830689376,971,HRV,HRV_0032,2022-11-30 17:54:20
22,"[{'imgObject': {}, 'id': 'froot loops w milk', 'src': '/static/foodstim60/froot loops w milk.jpg', 'key': 'u', 'origWidth': 410, 'origHeight': 410, 'width': 410, 'height': 410, 'widthPercent': 0.45, 'rescaleHeight': False, 'trialN': 22, 'loaded': True, 'loadedTime': 6175, 'positionName': 'LEFT', 'positionCoords': [186.16, 144], 'bid': 3.48}, {'imgObject': {}, 'id': 'cherry tomato', 'src': '/static/foodstim60/cherry tomato.jpg', 'key': 'i', 'origWidth': 410, 'origHeight': 410, 'width': 410, 'height': 410, 'widthPercent': 0.45, 'rescaleHeight': False, 'trialN': 22, 'loaded': True, 'loadedTime': 6344.399999856949, 'positionName': 'RIGHT', 'positionCoords': [645.84, 144], 'bid': 5.72}]",28969.700000047684,1669830689376,froot loops w milk,cherry tomato,3.48,5.72,2.2399999999999998,cherry tomato,667.1999998092651,668,668.2999999523163,True,i,30141.89999985695,1172.1999998092651,1669830690548,1172,HRV,HRV_0032,2022-11-30 17:54:20
23,"[{'imgObject': {}, 'id': 'rigatoni and sauce', 'src': '/static/foodstim60/rigatoni and sauce.jpg', 'key': 'u', 'origWidth': 410, 'origHeight': 411, 'width': 410, 'height': 411, 'widthPercent': 0.45, 'rescaleHeight': False, 'trialN': 23, 'loaded': True, 'loadedTime': 6253.299999952316, 'positionName': 'LEFT', 'positionCoords': [186.16, 143.5], 'bid': 7.12}, {'imgObject': {}, 'id': 'fried eggs', 'src': '/static/foodstim60/fried eggs.jpg', 'key': 'i', 'origWidth': 410, 'origHeight': 410, 'width': 410, 'height': 410, 'widthPercent': 0.45, 'rescaleHeight': False, 'trialN': 23, 'loaded': True, 'loadedTime': 6344.700000047684, 'positionName': 'RIGHT', 'positionCoords': [645.84, 144], 'bid': 7.88}]",30142.099999904633,1669830690549,rigatoni and sauce,fried eggs,7.12,7.88,0.7599999999999998,fried eggs,1119.6000001430511,1120,1120.5,True,i,31772.5,1630.4000000953674,1669830692179,1630,HRV,HRV_0032,2022-11-30 17:54:20
24,"[{'imgObject': {}, 'id': 'turkey sandwich', 'src': '/static/foodstim60/turkey sandwich.jpg', 'key': 'u', 'origWidth': 409, 'origHeight': 409, 'width': 409, 'height': 409, 'widthPercent': 0.45, 'rescaleHeight': False, 'trialN': 24, 'loaded': True, 'loadedTime': 6383.5, 'positionName': 'LEFT', 'positionCoords': [187.16, 144.5], 'bid': 5.46}, {'imgObject': {}, 'id': 'cherry tomato', 'src': '/static/foodstim60/cherry tomato.jpg', 'key': 'i', 'origWidth': 410, 'origHeight': 410, 'width': 410, 'height': 410, 'widthPercent': 0.45, 'rescaleHeight': False, 'trialN': 24, 'loaded': True, 'loadedTime': 6331.700000047684, 'positionName': 'RIGHT', 'positionCoords': [645.84, 144], 'bid': 5.72}]",31772.700000047684,1669830692179,turkey sandwich,cherry tomato,5.46,5.72,0.2599999999999998,turkey sandwich,780.2999999523163,782,782.0999999046326,True,u,33061.89999985695,1289.1999998092651,1669830693468,1289,HRV,HRV_0032,2022-11-30 17:54:20
25,"[{'imgObject': {}, 'id': 'kiwi', 'src': '/static/foodstim60/kiwi.jpg', 'key': 'u', 'origWidth': 410, 'origHeight': 410, 'width': 410, 'height': 410, 'widthPercent': 0.45, 'rescaleHeight': False, 'trialN': 25, 'loaded': True, 'loadedTime': 5893.399999856949, 'positionName': 'LEFT', 'positionCoords': [186.16, 144], 'bid': 3.74}, {'imgObject': {}, 'id': 'cheerios', 'src': '/static/foodstim60/cheerios.jpg', 'key': 'i', 'origWidth': 409, 'origHeight': 410, 'width': 409, 'height': 410, 'widthPercent': 0.45, 'rescaleHeight': False, 'trialN': 25, 'loaded': True, 'loadedTime': 6038.700000047684, 'positionName': 'RIGHT', 'positionCoords': [645.84, 144], 'bid': 6.9}]",33062.200000047684,1669830693469,kiwi,cheerios,3.74,6.9,3.16,cheerios,761.0999999046326,762,762.0,True,i,34326.39999985695,1264.1999998092651,1669830694733,1264,HRV,HRV_0032,2022-11-30 17:54:20
26,"[{'imgObject': {}, 'id': 'blueberries', 'src': '/static/foodstim60/blueberries.jpg', 'key': 'u', 'origWidth': 411, 'origHeight': 411, 'width': 411, 'height': 411, 'widthPercent': 0.45, 'rescaleHeight': False, 'trialN': 26, 'loaded': True, 'loadedTime': 6384.299999952316, 'positionName': 'LEFT', 'positionCoords': [185.16, 143.5], 'bid': 8.68}, {'imgObject': {}, 'id': 'blackbeanswithrice', 'src': '/static/foodstim60/blackbeanswithrice.jpg', 'key': 'i', 'origWidth': 410, 'origHeight': 410, 'width': 410, 'height': 410, 'widthPercent': 0.45, 'rescaleHeight': False, 'trialN': 26, 'loaded': True, 'loadedTime': 6110.5, 'positionName': 'RIGHT', 'positionCoords': [645.84, 144], 'bid': 9.17}]",34326.700000047684,1669830694733,blueberries,blackbeanswithrice,8.68,9.17,0.4900000000000002,blueberries,501.2999999523163,503,502.59999990463257,True,u,35334.299999952316,1007.5999999046326,1669830695741,1008,HRV,HRV_0032,2022-11-30 17:54:20
27,"[{'imgObject': {}, 'id': 'banana', 'src': '/static/foodstim60/banana.jpg', 'key': 'u', 'origWidth': 410, 'origHeight': 410, 'width': 410, 'height': 410, 'widthPercent': 0.45, 'rescaleHeight': False, 'trialN': 27, 'loaded': True, 'loadedTime': 6392.399999856949, 'positionName': 'LEFT', 'positionCoords': [186.16, 144], 'bid': 7.140000000000001}, {'imgObject': {}, 'id': 'burrito', 'src': '/static/foodstim60/burrito.jpg', 'key': 'i', 'origWidth': 410, 'origHeight': 410, 'width': 410, 'height': 410, 'widthPercent': 0.45, 'rescaleHeight': False, 'trialN': 27, 'loaded': True, 'loadedTime': 6317.700000047684, 'positionName': 'RIGHT', 'positionCoords': [645.84, 144], 'bid': 6.8500000000000005}]",35334.700000047684,1669830695741,banana,burrito,7.140000000000001,6.8500000000000005,-0.29000000000000004,banana,1295.5999999046326,1297,1296.5999999046326,True,u,37134.299999952316,1799.5999999046326,1669830697541,1800,HRV,HRV_0032,2022-11-30 17:54:20
28,"[{'imgObject': {}, 'id': 'omelette', 'src': '/static/foodstim60/omelette.jpg', 'key': 'u', 'origWidth': 410, 'origHeight': 409, 'width': 410, 'height': 409, 'widthPercent': 0.45, 'rescaleHeight': False, 'trialN': 28, 'loaded': True, 'loadedTime': 6410.899999856949, 'positionName': 'LEFT', 'positionCoords': [186.16, 144.5], 'bid': 7.33}, {'imgObject': {}, 'id': 'shreddedwheatwithmilk', 'src': '/static/foodstim60/shreddedwheatwithmilk.jpg', 'key': 'i', 'origWidth': 410, 'origHeight': 410, 'width': 410, 'height': 410, 'widthPercent': 0.45, 'rescaleHeight': False, 'trialN': 28, 'loaded': True, 'loadedTime': 6303.700000047684, 'positionName': 'RIGHT', 'positionCoords': [645.84, 144], 'bid': 9.28}]",37134.59999990463,1669830697541,omelette,shreddedwheatwithmilk,7.33,9.28,1.9499999999999993,shreddedwheatwithmilk,526,527,526.7999999523163,True,i,38166.200000047684,1031.6000001430511,1669830698573,1032,HRV,HRV_0032,2022-11-30 17:54:20
29,"[{'imgObject': {}, 'id': 'burger', 'src': '/static/foodstim60/burger.jpg', 'key': 'u', 'origWidth': 409, 'origHeight': 409, 'width': 409, 'height': 409, 'widthPercent': 0.45, 'rescaleHeight': False, 'trialN': 29, 'loaded': True, 'loadedTime': 6152.899999856949, 'positionName': 'LEFT', 'positionCoords': [187.16, 144.5], 'bid': 6.8500000000000005}, {'imgObject': {}, 'id': 'baked potato', 'src': '/static/foodstim60/baked potato.jpg', 'key': 'i', 'origWidth': 409, 'origHeight': 410, 'width': 409, 'height': 410, 'widthPercent': 0.45, 'rescaleHeight': False, 'trialN': 29, 'loaded': True, 'loadedTime': 6426.5, 'positionName': 'RIGHT', 'positionCoords': [645.84, 144], 'bid': 6.33}]",38166.5,1669830698573,burger,baked potato,6.8500000000000005,6.33,-0.5200000000000005,burger,1129.0999999046326,1130,1130.2999999523163,True,u,39806.59999990463,1640.0999999046326,1669830700213,1640,HRV,HRV_0032,2022-11-30 17:54:20
30,"[{'imgObject': {}, 'id': 'raisin bran w milk', 'src': '/static/foodstim60/raisin bran w milk.jpg', 'key': 'u', 'origWidth': 411, 'origHeight': 411, 'width': 411, 'height': 411, 'widthPercent': 0.45, 'rescaleHeight': False, 'trialN': 30, 'loaded': True, 'loadedTime': 6429.799999952316, 'positionName': 'LEFT', 'positionCoords': [185.16, 143.5], 'bid': 3.58}, {'imgObject': {}, 'id': 'raspberries', 'src': '/static/foodstim60/raspberries.jpg', 'key': 'i', 'origWidth': 411, 'origHeight': 411, 'width': 411, 'height': 411, 'widthPercent': 0.45, 'rescaleHeight': False, 'trialN': 30, 'loaded': True, 'loadedTime': 6443.5, 'positionName': 'RIGHT', 'positionCoords': [645.84, 143.5], 'bid': 5.11}]",39806.89999985695,1669830700213,raisin bran w milk,raspberries,3.58,5.11,1.5300000000000002,raspberries,598.7000000476837,601,599.3000001907349,True,i,40921.700000047684,1114.8000001907349,1669830701329,1116,HRV,HRV_0032,2022-11-30 17:54:20
31,"[{'imgObject': {}, 'id': 'olives', 'src': '/static/foodstim60/olives.jpg', 'key': 'u', 'origWidth': 410, 'origHeight': 410, 'width': 410, 'height': 410, 'widthPercent': 0.45, 'rescaleHeight': False, 'trialN': 31, 'loaded': True, 'loadedTime': 6294.899999856949, 'positionName': 'LEFT', 'positionCoords': [186.16, 144], 'bid': 8.88}, {'imgObject': {}, 'id': 'rigatoni and sauce', 'src': '/static/foodstim60/rigatoni and sauce.jpg', 'key': 'i', 'origWidth': 410, 'origHeight': 411, 'width': 410, 'height': 411, 'widthPercent': 0.45, 'rescaleHeight': False, 'trialN': 31, 'loaded': True, 'loadedTime': 6259.700000047684, 'positionName': 'RIGHT', 'positionCoords': [645.84, 143.5], 'bid': 7.12}]",40922.09999990463,1669830701330,olives,rigatoni and sauce,8.88,7.12,-1.7600000000000007,rigatoni and sauce,602.2000000476837,603,603.7000000476837,True,i,42034.09999990463,1112.0,1669830702442,1112,HRV,HRV_0032,2022-11-30 17:54:20
32,"[{'imgObject': {}, 'id': 'blueberries', 'src': '/static/foodstim60/blueberries.jpg', 'key': 'u', 'origWidth': 411, 'origHeight': 411, 'width': 411, 'height': 411, 'widthPercent': 0.45, 'rescaleHeight': False, 'trialN': 32, 'loaded': True, 'loadedTime': 6391.899999856949, 'positionName': 'LEFT', 'positionCoords': [185.16, 143.5], 'bid': 8.68}, {'imgObject': {}, 'id': 'seaweed', 'src': '/static/foodstim60/seaweed.jpg', 'key': 'i', 'origWidth': 410, 'origHeight': 410, 'width': 410, 'height': 410, 'widthPercent': 0.45, 'rescaleHeight': False, 'trialN': 32, 'loaded': True, 'loadedTime': 6154.799999952316, 'positionName': 'RIGHT', 'positionCoords': [645.84, 144], 'bid': 7.35}]",42034.59999990463,1669830702442,blueberries,seaweed,8.68,7.35,-1.33,blueberries,989.6000001430511,990,990.2999999523163,True,u,43525.59999990463,1491.0,1669830703933,1491,HRV,HRV_0032,2022-11-30 17:54:20
33,"[{'imgObject': {}, 'id': 'baked potato', 'src': '/static/foodstim60/baked potato.jpg', 'key': 'u', 'origWidth': 409, 'origHeight': 410, 'width': 409, 'height': 410, 'widthPercent': 0.45, 'rescaleHeight': False, 'trialN': 33, 'loaded': True, 'loadedTime': 6422.899999856949, 'positionName': 'LEFT', 'positionCoords': [187.16, 144], 'bid': 6.33}, {'imgObject': {}, 'id': 'turkey sandwich', 'src': '/static/foodstim60/turkey sandwich.jpg', 'key': 'i', 'origWidth': 409, 'origHeight': 409, 'width': 409, 'height': 409, 'widthPercent': 0.45, 'rescaleHeight': False, 'trialN': 33, 'loaded': True, 'loadedTime': 6378.399999856949, 'positionName': 'RIGHT', 'positionCoords': [645.84, 144.5], 'bid': 5.46}]",43525.89999985695,1669830703933,baked potato,turkey sandwich,6.33,5.46,-0.8700000000000001,turkey sandwich,482.40000009536743,484,483.40000009536743,True,i,44517.59999990463,991.7000000476837,1669830704925,992,HRV,HRV_0032,2022-11-30 17:54:20
34,"[{'imgObject': {}, 'id': 'salad w chicken', 'src': '/static/foodstim60/salad w chicken.jpg', 'key': 'u', 'origWidth': 411, 'origHeight': 411, 'width': 411, 'height': 411, 'widthPercent': 0.45, 'rescaleHeight': False, 'trialN': 34, 'loaded': True, 'loadedTime': 6448.5, 'positionName': 'LEFT', 'positionCoords': [185.16, 143.5], 'bid': 4.82}, {'imgObject': {}, 'id': 'cantaloupe', 'src': '/static/foodstim60/cantaloupe.jpg', 'key': 'i', 'origWidth': 409, 'origHeight': 409, 'width': 409, 'height': 409, 'widthPercent': 0.45, 'rescaleHeight': False, 'trialN': 34, 'loaded': True, 'loadedTime': 6199.599999904633, 'positionName': 'RIGHT', 'positionCoords': [645.84, 144.5], 'bid': 4.62}]",44517.700000047684,1669830704925,salad w chicken,cantaloupe,4.82,4.62,-0.20000000000000018,cantaloupe,848.1999998092651,850,850.1999998092651,True,i,45870.5,1352.7999999523163,1669830706278,1353,HRV,HRV_0032,2022-11-30 17:54:20
35,"[{'imgObject': {}, 'id': 'omelette', 'src': '/static/foodstim60/omelette.jpg', 'key': 'u', 'origWidth': 410, 'origHeight': 409, 'width': 410, 'height': 409, 'widthPercent': 0.45, 'rescaleHeight': False, 'trialN': 35, 'loaded': True, 'loadedTime': 6405.599999904633, 'positionName': 'LEFT', 'positionCoords': [186.16, 144.5], 'bid': 7.33}, {'imgObject': {}, 'id': 'salad w chicken', 'src': '/static/foodstim60/salad w chicken.jpg', 'key': 'i', 'origWidth': 411, 'origHeight': 411, 'width': 411, 'height': 411, 'widthPercent': 0.45, 'rescaleHeight': False, 'trialN': 35, 'loaded': True, 'loadedTime': 6457.899999856949, 'positionName': 'RIGHT', 'positionCoords': [645.84, 143.5], 'bid': 4.82}]",45870.59999990463,1669830706278,omelette,salad w chicken,7.33,4.82,-2.51,omelette,561.7000000476837,564,564.1000001430511,True,u,46941.89999985695,1071.2999999523163,1669830707349,1071,HRV,HRV_0032,2022-11-30 17:54:20
36,"[{'imgObject': {}, 'id': 'chicken nuggets2', 'src': '/static/foodstim60/chicken nuggets2.jpg', 'key': 'u', 'origWidth': 410, 'origHeight': 409, 'width': 410, 'height': 409, 'widthPercent': 0.45, 'rescaleHeight': False, 'trialN': 36, 'loaded': True, 'loadedTime': 6069.299999952316, 'positionName': 'LEFT', 'positionCoords': [186.16, 144.5], 'bid': 9.21}, {'imgObject': {}, 'id': 'sweetpotato', 'src': '/static/foodstim60/sweetpotato.jpg', 'key': 'i', 'origWidth': 410, 'origHeight': 410, 'width': 410, 'height': 410, 'widthPercent': 0.45, 'rescaleHeight': False, 'trialN': 36, 'loaded': True, 'loadedTime': 6461.099999904633, 'positionName': 'RIGHT', 'positionCoords': [645.84, 144], 'bid': 7.25}]",46942.0,1669830707349,chicken nuggets2,sweetpotato,9.21,7.25,-1.9600000000000009,sweetpotato,433.59999990463257,435,434.2000000476837,True,i,47878.299999952316,936.2999999523163,1669830708286,937,HRV,HRV_0032,2022-11-30 17:54:20
37,"[{'imgObject': {}, 'id': 'yogurt no spoon', 'src': '/static/foodstim60/yogurt no spoon.jpg', 'key': 'u', 'origWidth': 411, 'origHeight': 410, 'width': 411, 'height': 410, 'widthPercent': 0.45, 'rescaleHeight': False, 'trialN': 37, 'loaded': True, 'loadedTime': 6468.5, 'positionName': 'LEFT', 'positionCoords': [185.16, 144], 'bid': 3.88}, {'imgObject': {}, 'id': 'salmon', 'src': '/static/foodstim60/salmon.jpg', 'key': 'i', 'origWidth': 410, 'origHeight': 409, 'width': 410, 'height': 409, 'widthPercent': 0.45, 'rescaleHeight': False, 'trialN': 37, 'loaded': True, 'loadedTime': 6500.299999952316, 'positionName': 'RIGHT', 'positionCoords': [645.84, 144.5], 'bid': 4.67}]",47878.5,1669830708286,yogurt no spoon,salmon,3.88,4.67,0.79,yogurt no spoon,469.2000000476837,470,470.39999985694885,True,u,48853.39999985695,974.8999998569489,1669830709261,975,HRV,HRV_0032,2022-11-30 17:54:20
38,"[{'imgObject': {}, 'id': 'apple slices', 'src': '/static/foodstim60/apple slices.jpg', 'key': 'u', 'origWidth': 409, 'origHeight': 410, 'width': 409, 'height': 410, 'widthPercent': 0.45, 'rescaleHeight': False, 'trialN': 38, 'loaded': True, 'loadedTime': 6503.799999952316, 'positionName': 'LEFT', 'positionCoords': [187.16, 144], 'bid': 8.52}, {'imgObject': {}, 'id': 'corn cob', 'src': '/static/foodstim60/corn cob.jpg', 'key': 'i', 'origWidth': 411, 'origHeight': 411, 'width': 411, 'height': 411, 'widthPercent': 0.45, 'rescaleHeight': False, 'trialN': 38, 'loaded': True, 'loadedTime': 6525.399999856949, 'positionName': 'RIGHT', 'positionCoords': [645.84, 143.5], 'bid': 9.92}]",48853.59999990463,1669830709261,apple slices,corn cob,8.52,9.92,1.4000000000000004,corn cob,474.2000000476837,475,475.2999999523163,True,i,49842.0,988.4000000953674,1669830710249,988,HRV,HRV_0032,2022-11-30 17:54:20
39,"[{'imgObject': {}, 'id': 'froot loops w milk', 'src': '/static/foodstim60/froot loops w milk.jpg', 'key': 'u', 'origWidth': 410, 'origHeight': 410, 'width': 410, 'height': 410, 'widthPercent': 0.45, 'rescaleHeight': False, 'trialN': 39, 'loaded': True, 'loadedTime': 6170.700000047684, 'positionName': 'LEFT', 'positionCoords': [186.16, 144], 'bid': 3.48}, {'imgObject': {}, 'id': 'turkeysandwich', 'src': '/static/foodstim60/turkeysandwich.jpg', 'key': 'i', 'origWidth': 409, 'origHeight': 409, 'width': 409, 'height': 409, 'widthPercent': 0.45, 'rescaleHeight': False, 'trialN': 39, 'loaded': True, 'loadedTime': 5908.099999904633, 'positionName': 'RIGHT', 'positionCoords': [645.84, 144.5], 'bid': 4.17}]",49842.200000047684,1669830710250,froot loops w milk,turkeysandwich,3.48,4.17,0.69,turkeysandwich,556.8999998569489,558,558.5,True,i,50910.5,1068.2999999523163,1669830711318,1068,HRV,HRV_0032,2022-11-30 17:54:20
40,"[{'imgObject': {}, 'id': 'banana', 'src': '/static/foodstim60/banana.jpg', 'key': 'u', 'origWidth': 410, 'origHeight': 410, 'width': 410, 'height': 410, 'widthPercent': 0.45, 'rescaleHeight': False, 'trialN': 40, 'loaded': True, 'loadedTime': 6398.700000047684, 'positionName': 'LEFT', 'positionCoords': [186.16, 144], 'bid': 7.140000000000001}, {'imgObject': {}, 'id': 'rigatoni and sauce', 'src': '/static/foodstim60/rigatoni and sauce.jpg', 'key': 'i', 'origWidth': 410, 'origHeight': 411, 'width': 410, 'height': 411, 'widthPercent': 0.45, 'rescaleHeight': False, 'trialN': 40, 'loaded': True, 'loadedTime': 6245.299999952316, 'positionName': 'RIGHT', 'positionCoords': [645.84, 143.5], 'bid': 7.12}]",50910.700000047684,1669830711318,banana,rigatoni and sauce,7.140000000000001,7.12,-0.020000000000000462,banana,427.5,429,428.5,True,u,51861.200000047684,950.5,1669830712269,951,HRV,HRV_0032,2022-11-30 17:54:20
41,"[{'imgObject': {}, 'id': 'pear', 'src': '/static/foodstim60/pear.jpg', 'key': 'u', 'origWidth': 411, 'origHeight': 410, 'width': 411, 'height': 410, 'widthPercent': 0.45, 'rescaleHeight': False, 'trialN': 41, 'loaded': True, 'loadedTime': 6022.599999904633, 'positionName': 'LEFT', 'positionCoords': [185.16, 144], 'bid': 6.67}, {'imgObject': {}, 'id': 'edamame', 'src': '/static/foodstim60/edamame.jpg', 'key': 'i', 'origWidth': 409, 'origHeight': 410, 'width': 409, 'height': 410, 'widthPercent': 0.45, 'rescaleHeight': False, 'trialN': 41, 'loaded': True, 'loadedTime': 6132.599999904633, 'positionName': 'RIGHT', 'positionCoords': [645.84, 144], 'bid': 6.62}]",51861.299999952316,1669830712269,pear,edamame,6.67,6.62,-0.04999999999999982,edamame,520.5,521,521.4000000953674,True,i,52902.89999985695,1041.5999999046326,1669830713310,1041,HRV,HRV_0032,2022-11-30 17:54:20
42,"[{'imgObject': {}, 'id': 'tacos', 'src': '/static/foodstim60/tacos.jpg', 'key': 'u', 'origWidth': 411, 'origHeight': 411, 'width': 411, 'height': 411, 'widthPercent': 0.45, 'rescaleHeight': False, 'trialN': 42, 'loaded': True, 'loadedTime': 5819, 'positionName': 'LEFT', 'positionCoords': [185.16, 143.5], 'bid': 7.54}, {'imgObject': {}, 'id': 'seaweed', 'src': '/static/foodstim60/seaweed.jpg', 'key': 'i', 'origWidth': 410, 'origHeight': 410, 'width': 410, 'height': 410, 'widthPercent': 0.45, 'rescaleHeight': False, 'trialN': 42, 'loaded': True, 'loadedTime': 6167, 'positionName': 'RIGHT', 'positionCoords': [645.84, 144], 'bid': 7.35}]",52903.299999952316,1669830713311,tacos,seaweed,7.54,7.35,-0.1900000000000004,tacos,471.5,472,472.59999990463257,True,u,53891.5,988.2000000476837,1669830714299,988,HRV,HRV_0032,2022-11-30 17:54:20
43,"[{'imgObject': {}, 'id': 'bagel and cc', 'src': '/static/foodstim60/bagel and cc.jpg', 'key': 'u', 'origWidth': 410, 'origHeight': 410, 'width': 410, 'height': 410, 'widthPercent': 0.45, 'rescaleHeight': False, 'trialN': 43, 'loaded': True, 'loadedTime': 6526, 'positionName': 'LEFT', 'positionCoords': [186.16, 144], 'bid': 9.63}, {'imgObject': {}, 'id': 'blueberries', 'src': '/static/foodstim60/blueberries.jpg', 'key': 'i', 'origWidth': 411, 'origHeight': 411, 'width': 411, 'height': 411, 'widthPercent': 0.45, 'rescaleHeight': False, 'trialN': 43, 'loaded': True, 'loadedTime': 6386.700000047684, 'positionName': 'RIGHT', 'positionCoords': [645.84, 143.5], 'bid': 8.68}]",53891.700000047684,1669830714299,bagel and cc,blueberries,9.63,8.68,-0.9500000000000011,blueberries,467.89999985694885,469,468.69999980926514,True,i,54866.89999985695,975.1999998092651,1669830715274,975,HRV,HRV_0032,2022-11-30 17:54:20
44,"[{'imgObject': {}, 'id': 'salad w chicken', 'src': '/static/foodstim60/salad w chicken.jpg', 'key': 'u', 'origWidth': 411, 'origHeight': 411, 'width': 411, 'height': 411, 'widthPercent': 0.45, 'rescaleHeight': False, 'trialN': 44, 'loaded': True, 'loadedTime': 6451.599999904633, 'positionName': 'LEFT', 'positionCoords': [185.16, 143.5], 'bid': 4.82}, {'imgObject': {}, 'id': 'salmon', 'src': '/static/foodstim60/salmon.jpg', 'key': 'i', 'origWidth': 410, 'origHeight': 409, 'width': 410, 'height': 409, 'widthPercent': 0.45, 'rescaleHeight': False, 'trialN': 44, 'loaded': True, 'loadedTime': 6499.099999904633, 'positionName': 'RIGHT', 'positionCoords': [645.84, 144.5], 'bid': 4.67}]",54867.09999990463,1669830715275,salad w chicken,salmon,4.82,4.67,-0.15000000000000036,salad w chicken,471,471,471.7999999523163,True,u,55857.700000047684,990.6000001430511,1669830716265,990,HRV,HRV_0032,2022-11-30 17:54:20
45,"[{'imgObject': {}, 'id': 'lox', 'src': '/static/foodstim60/lox.jpg', 'key': 'u', 'origWidth': 410, 'origHeight': 411, 'width': 410, 'height': 411, 'widthPercent': 0.45, 'rescaleHeight': False, 'trialN': 45, 'loaded': True, 'loadedTime': 6209.399999856949, 'positionName': 'LEFT', 'positionCoords': [186.16, 143.5], 'bid': 9.38}, {'imgObject': {}, 'id': 'hashbrowns', 'src': '/static/foodstim60/hashbrowns.jpg', 'key': 'i', 'origWidth': 411, 'origHeight': 410, 'width': 411, 'height': 410, 'widthPercent': 0.45, 'rescaleHeight': False, 'trialN': 45, 'loaded': True, 'loadedTime': 6540.700000047684, 'positionName': 'RIGHT', 'positionCoords': [645.84, 144], 'bid': 8.47}]",55858.0,1669830716265,lox,hashbrowns,9.38,8.47,-0.9100000000000001,hashbrowns,611.2000000476837,613,612.0999999046326,True,i,56981.0,1123.0,1669830717389,1124,HRV,HRV_0032,2022-11-30 17:54:20
46,"[{'imgObject': {}, 'id': 'shreddedwheatwithmilk', 'src': '/static/foodstim60/shreddedwheatwithmilk.jpg', 'key': 'u', 'origWidth': 410, 'origHeight': 410, 'width': 410, 'height': 410, 'widthPercent': 0.45, 'rescaleHeight': False, 'trialN': 46, 'loaded': True, 'loadedTime': 6298.399999856949, 'positionName': 'LEFT', 'positionCoords': [186.16, 144], 'bid': 9.28}, {'imgObject': {}, 'id': 'steak', 'src': '/static/foodstim60/steak.jpg', 'key': 'i', 'origWidth': 410, 'origHeight': 410, 'width': 410, 'height': 410, 'widthPercent': 0.45, 'rescaleHeight': False, 'trialN': 46, 'loaded': True, 'loadedTime': 5749.200000047684, 'positionName': 'RIGHT', 'positionCoords': [645.84, 144], 'bid': 8.65}]",56981.299999952316,1669830717389,shreddedwheatwithmilk,steak,9.28,8.65,-0.629999999999999,steak,480.09999990463257,481,480.7999999523163,True,i,57967.59999990463,986.2999999523163,1669830718375,986,HRV,HRV_0032,2022-11-30 17:54:20
47,"[{'imgObject': {}, 'id': 'Tribe humus pita', 'src': '/static/foodstim60/Tribe humus pita.jpg', 'key': 'u', 'origWidth': 411, 'origHeight': 411, 'width': 411, 'height': 411, 'widthPercent': 0.45, 'rescaleHeight': False, 'trialN': 47, 'loaded': True, 'loadedTime': 5993.200000047684, 'positionName': 'LEFT', 'positionCoords': [185.16, 143.5], 'bid': 6.94}, {'imgObject': {}, 'id': 'fruitsalad', 'src': '/static/foodstim60/fruitsalad.jpg', 'key': 'i', 'origWidth': 410, 'origHeight': 410, 'width': 410, 'height': 410, 'widthPercent': 0.45, 'rescaleHeight': False, 'trialN': 47, 'loaded': True, 'loadedTime': 6094.299999952316, 'positionName': 'RIGHT', 'positionCoords': [645.84, 144], 'bid': 7.07}]",57967.799999952316,1669830718375,Tribe humus pita,fruitsalad,6.94,7.07,0.1299999999999999,Tribe humus pita,545.9000000953674,547,546.4000000953674,True,u,59036.89999985695,1069.0999999046326,1669830719444,1069,HRV,HRV_0032,2022-11-30 17:54:20
48,"[{'imgObject': {}, 'id': 'salmon', 'src': '/static/foodstim60/salmon.jpg', 'key': 'u', 'origWidth': 410, 'origHeight': 409, 'width': 410, 'height': 409, 'widthPercent': 0.45, 'rescaleHeight': False, 'trialN': 48, 'loaded': True, 'loadedTime': 6499.899999856949, 'positionName': 'LEFT', 'positionCoords': [186.16, 144.5], 'bid': 4.67}, {'imgObject': {}, 'id': 'eggsalad', 'src': '/static/foodstim60/eggsalad.jpg', 'key': 'i', 'origWidth': 410, 'origHeight': 409, 'width': 410, 'height': 409, 'widthPercent': 0.45, 'rescaleHeight': False, 'trialN': 48, 'loaded': True, 'loadedTime': 6047, 'positionName': 'RIGHT', 'positionCoords': [645.84, 144.5], 'bid': 6.640000000000001}]",59037.0,1669830719444,salmon,eggsalad,4.67,6.640000000000001,1.9700000000000006,eggsalad,565.7000000476837,568,567.0,True,i,60110.299999952316,1073.2999999523163,1669830720518,1074,HRV,HRV_0032,2022-11-30 17:54:20
49,"[{'imgObject': {}, 'id': 'salmon', 'src': '/static/foodstim60/salmon.jpg', 'key': 'u', 'origWidth': 410, 'origHeight': 409, 'width': 410, 'height': 409, 'widthPercent': 0.45, 'rescaleHeight': False, 'trialN': 49, 'loaded': True, 'loadedTime': 6500.700000047684, 'positionName': 'LEFT', 'positionCoords': [186.16, 144.5], 'bid': 4.67}, {'imgObject': {}, 'id': 'sweetpotato', 'src': '/static/foodstim60/sweetpotato.jpg', 'key': 'i', 'origWidth': 410, 'origHeight': 410, 'width': 410, 'height': 410, 'widthPercent': 0.45, 'rescaleHeight': False, 'trialN': 49, 'loaded': True, 'loadedTime': 6462.5, 'positionName': 'RIGHT', 'positionCoords': [645.84, 144], 'bid': 7.25}]",60110.5,1669830720518,salmon,sweetpotato,4.67,7.25,2.58,sweetpotato,1224.8999998569489,1226,1226.2000000476837,True,i,61847.89999985695,1737.3999998569489,1669830722255,1737,HRV,HRV_0032,2022-11-30 17:54:20
50,"[{'imgObject': {}, 'id': 'mango', 'src': '/static/foodstim60/mango.jpg', 'key': 'u', 'origWidth': 411, 'origHeight': 411, 'width': 411, 'height': 411, 'widthPercent': 0.45, 'rescaleHeight': False, 'trialN': 50, 'loaded': True, 'loadedTime': 5866.099999904633, 'positionName': 'LEFT', 'positionCoords': [185.16, 143.5], 'bid': 3.51}, {'imgObject': {}, 'id': 'sushi w_condiments', 'src': '/static/foodstim60/sushi w_condiments.jpg', 'key': 'i', 'origWidth': 410, 'origHeight': 410, 'width': 410, 'height': 410, 'widthPercent': 0.45, 'rescaleHeight': False, 'trialN': 50, 'loaded': True, 'loadedTime': 6548.5, 'positionName': 'RIGHT', 'positionCoords': [645.84, 144], 'bid': 6.86}]",61848.09999990463,1669830722256,mango,sushi w_condiments,3.51,6.86,3.3500000000000005,mango,445.7000000476837,446,446.60000014305115,True,u,62803.0,954.9000000953674,1669830723210,954,HRV,HRV_0032,2022-11-30 17:54:20
51,"[{'imgObject': {}, 'id': 'mashed potato', 'src': '/static/foodstim60/mashed potato.jpg', 'key': 'u', 'origWidth': 409, 'origHeight': 409, 'width': 409, 'height': 409, 'widthPercent': 0.45, 'rescaleHeight': False, 'trialN': 51, 'loaded': True, 'loadedTime': 5621.899999856949, 'positionName': 'LEFT', 'positionCoords': [187.16, 144.5], 'bid': 6.61}, {'imgObject': {}, 'id': 'cherries', 'src': '/static/foodstim60/cherries.jpg', 'key': 'i', 'origWidth': 410, 'origHeight': 411, 'width': 410, 'height': 411, 'widthPercent': 0.45, 'rescaleHeight': False, 'trialN': 51, 'loaded': True, 'loadedTime': 5669.099999904633, 'positionName': 'RIGHT', 'positionCoords': [645.84, 143.5], 'bid': 6.11}]",62803.299999952316,1669830723211,mashed potato,cherries,6.61,6.11,-0.5,cherries,516.7999999523163,517,517.5,True,i,63834.799999952316,1031.5,1669830724242,1031,HRV,HRV_0032,2022-11-30 17:54:20
52,"[{'imgObject': {}, 'id': 'yogurt no spoon', 'src': '/static/foodstim60/yogurt no spoon.jpg', 'key': 'u', 'origWidth': 411, 'origHeight': 410, 'width': 411, 'height': 410, 'widthPercent': 0.45, 'rescaleHeight': False, 'trialN': 52, 'loaded': True, 'loadedTime': 6490, 'positionName': 'LEFT', 'positionCoords': [185.16, 144], 'bid': 3.88}, {'imgObject': {}, 'id': 'veggieswithdip', 'src': '/static/foodstim60/veggieswithdip.jpg', 'key': 'i', 'origWidth': 409, 'origHeight': 409, 'width': 409, 'height': 409, 'widthPercent': 0.45, 'rescaleHeight': False, 'trialN': 52, 'loaded': True, 'loadedTime': 6549.299999952316, 'positionName': 'RIGHT', 'positionCoords': [645.84, 144.5], 'bid': 6.3}]",63835.0,1669830724242,yogurt no spoon,veggieswithdip,3.88,6.3,2.42,veggieswithdip,553.0999999046326,555,554.3999998569489,True,i,64906.299999952316,1071.2999999523163,1669830725314,1072,HRV,HRV_0032,2022-11-30 17:54:20
53,"[{'imgObject': {}, 'id': 'eggs', 'src': '/static/foodstim60/eggs.jpg', 'key': 'u', 'origWidth': 409, 'origHeight': 409, 'width': 409, 'height': 409, 'widthPercent': 0.45, 'rescaleHeight': False, 'trialN': 53, 'loaded': True, 'loadedTime': 6560.700000047684, 'positionName': 'LEFT', 'positionCoords': [187.16, 144.5], 'bid': 8.51}, {'imgObject': {}, 'id': 'blackbeanswithrice', 'src': '/static/foodstim60/blackbeanswithrice.jpg', 'key': 'i', 'origWidth': 410, 'origHeight': 410, 'width': 410, 'height': 410, 'widthPercent': 0.45, 'rescaleHeight': False, 'trialN': 53, 'loaded': True, 'loadedTime': 6118.200000047684, 'positionName': 'RIGHT', 'positionCoords': [645.84, 144], 'bid': 9.17}]",64906.59999990463,1669830725314,eggs,blackbeanswithrice,8.51,9.17,0.6600000000000001,eggs,433.90000009536743,435,435.2000000476837,True,u,65850.89999985695,944.2999999523163,1669830726258,944,HRV,HRV_0032,2022-11-30 17:54:20
54,"[{'imgObject': {}, 'id': 'mango', 'src': '/static/foodstim60/mango.jpg', 'key': 'u', 'origWidth': 411, 'origHeight': 411, 'width': 411, 'height': 411, 'widthPercent': 0.45, 'rescaleHeight': False, 'trialN': 54, 'loaded': True, 'loadedTime': 5855.099999904633, 'positionName': 'LEFT', 'positionCoords': [185.16, 143.5], 'bid': 3.51}, {'imgObject': {}, 'id': 'salad w chicken', 'src': '/static/foodstim60/salad w chicken.jpg', 'key': 'i', 'origWidth': 411, 'origHeight': 411, 'width': 411, 'height': 411, 'widthPercent': 0.45, 'rescaleHeight': False, 'trialN': 54, 'loaded': True, 'loadedTime': 6454.200000047684, 'positionName': 'RIGHT', 'positionCoords': [645.84, 143.5], 'bid': 4.82}]",65851.09999990463,1669830726259,mango,salad w chicken,3.51,4.82,1.3100000000000005,mango,924.9000000953674,925,925.7999999523163,True,u,67288.0,1436.9000000953674,1669830727696,1437,HRV,HRV_0032,2022-11-30 17:54:20
55,"[{'imgObject': {}, 'id': 'banana', 'src': '/static/foodstim60/banana.jpg', 'key': 'u', 'origWidth': 410, 'origHeight': 410, 'width': 410, 'height': 410, 'widthPercent': 0.45, 'rescaleHeight': False, 'trialN': 55, 'loaded': True, 'loadedTime': 6399.099999904633, 'positionName': 'LEFT', 'positionCoords': [186.16, 144], 'bid': 7.140000000000001}, {'imgObject': {}, 'id': 'cantaloupe', 'src': '/static/foodstim60/cantaloupe.jpg', 'key': 'i', 'origWidth': 409, 'origHeight': 409, 'width': 409, 'height': 409, 'widthPercent': 0.45, 'rescaleHeight': False, 'trialN': 55, 'loaded': True, 'loadedTime': 6193, 'positionName': 'RIGHT', 'positionCoords': [645.84, 144.5], 'bid': 4.62}]",67288.29999995232,1669830727696,banana,cantaloupe,7.140000000000001,4.62,-2.5200000000000005,cantaloupe,1559,1561,1560.7000000476837,True,i,69357.5,2069.2000000476837,1669830729765,2069,HRV,HRV_0032,2022-11-30 17:54:20
56,"[{'imgObject': {}, 'id': 'turkey sandwich', 'src': '/static/foodstim60/turkey sandwich.jpg', 'key': 'u', 'origWidth': 409, 'origHeight': 409, 'width': 409, 'height': 409, 'widthPercent': 0.45, 'rescaleHeight': False, 'trialN': 56, 'loaded': True, 'loadedTime': 6383.799999952316, 'positionName': 'LEFT', 'positionCoords': [187.16, 144.5], 'bid': 5.46}, {'imgObject': {}, 'id': 'fried eggs', 'src': '/static/foodstim60/fried eggs.jpg', 'key': 'i', 'origWidth': 410, 'origHeight': 410, 'width': 410, 'height': 410, 'widthPercent': 0.45, 'rescaleHeight': False, 'trialN': 56, 'loaded': True, 'loadedTime': 6347.399999856949, 'positionName': 'RIGHT', 'positionCoords': [645.84, 144], 'bid': 7.88}]",69357.79999995232,1669830729765,turkey sandwich,fried eggs,5.46,7.88,2.42,turkey sandwich,682.2999999523163,683,682.9000000953674,True,u,70551.59999990463,1193.7999999523163,1669830730959,1194,HRV,HRV_0032,2022-11-30 17:54:20
57,"[{'imgObject': {}, 'id': 'chicken nuggets2', 'src': '/static/foodstim60/chicken nuggets2.jpg', 'key': 'u', 'origWidth': 410, 'origHeight': 409, 'width': 410, 'height': 409, 'widthPercent': 0.45, 'rescaleHeight': False, 'trialN': 57, 'loaded': True, 'loadedTime': 6071.700000047684, 'positionName': 'LEFT', 'positionCoords': [186.16, 144.5], 'bid': 9.21}, {'imgObject': {}, 'id': 'apple slices', 'src': '/static/foodstim60/apple slices.jpg', 'key': 'i', 'origWidth': 409, 'origHeight': 410, 'width': 409, 'height': 410, 'widthPercent': 0.45, 'rescaleHeight': False, 'trialN': 57, 'loaded': True, 'loadedTime': 6501, 'positionName': 'RIGHT', 'positionCoords': [645.84, 144], 'bid': 8.52}]",70551.79999995232,1669830730959,chicken nuggets2,apple slices,9.21,8.52,-0.6900000000000013,apple slices,554.9000000953674,557,556.4000000953674,True,i,71620.89999985695,1069.0999999046326,1669830732028,1069,HRV,HRV_0032,2022-11-30 17:54:20
58,"[{'imgObject': {}, 'id': 'rigatoni and sauce', 'src': '/static/foodstim60/rigatoni and sauce.jpg', 'key': 'u', 'origWidth': 410, 'origHeight': 411, 'width': 410, 'height': 411, 'widthPercent': 0.45, 'rescaleHeight': False, 'trialN': 58, 'loaded': True, 'loadedTime': 6258.899999856949, 'positionName': 'LEFT', 'positionCoords': [186.16, 143.5], 'bid': 7.12}, {'imgObject': {}, 'id': 'popsicles', 'src': '/static/foodstim60/popsicles.jpg', 'key': 'i', 'origWidth': 410, 'origHeight': 410, 'width': 410, 'height': 410, 'widthPercent': 0.45, 'rescaleHeight': False, 'trialN': 58, 'loaded': True, 'loadedTime': 5589.5, 'positionName': 'RIGHT', 'positionCoords': [645.84, 144], 'bid': 4.51}]",71621.0,1669830732028,rigatoni and sauce,popsicles,7.12,4.51,-2.6100000000000003,rigatoni and sauce,660.3999998569489,662,661.2000000476837,True,u,72802.0,1181.0,1669830733209,1181,HRV,HRV_0032,2022-11-30 17:54:20
59,"[{'imgObject': {}, 'id': 'omelette', 'src': '/static/foodstim60/omelette.jpg', 'key': 'u', 'origWidth': 410, 'origHeight': 409, 'width': 410, 'height': 409, 'widthPercent': 0.45, 'rescaleHeight': False, 'trialN': 59, 'loaded': True, 'loadedTime': 6399.5, 'positionName': 'LEFT', 'positionCoords': [186.16, 144.5], 'bid': 7.33}, {'imgObject': {}, 'id': 'sweetpotato', 'src': '/static/foodstim60/sweetpotato.jpg', 'key': 'i', 'origWidth': 410, 'origHeight': 410, 'width': 410, 'height': 410, 'widthPercent': 0.45, 'rescaleHeight': False, 'trialN': 59, 'loaded': True, 'loadedTime': 6462.200000047684, 'positionName': 'RIGHT', 'positionCoords': [645.84, 144], 'bid': 7.25}]",72802.09999990463,1669830733210,omelette,sweetpotato,7.33,7.25,-0.08000000000000007,sweetpotato,709.2000000476837,710,710.2000000476837,True,i,74024.0,1221.9000000953674,1669830734431,1221,HRV,HRV_0032,2022-11-30 17:54:20
60,"[{'imgObject': {}, 'id': 'apple slices', 'src': '/static/foodstim60/apple slices.jpg', 'key': 'u', 'origWidth': 409, 'origHeight': 410, 'width': 409, 'height': 410, 'widthPercent': 0.45, 'rescaleHeight': False, 'trialN': 60, 'loaded': True, 'loadedTime': 6513.200000047684, 'positionName': 'LEFT', 'positionCoords': [187.16, 144], 'bid': 8.52}, {'imgObject': {}, 'id': 'hotdog w must', 'src': '/static/foodstim60/hotdog w must.jpg', 'key': 'i', 'origWidth': 409, 'origHeight': 409, 'width': 409, 'height': 409, 'widthPercent': 0.45, 'rescaleHeight': False, 'trialN': 60, 'loaded': True, 'loadedTime': 6572.399999856949, 'positionName': 'RIGHT', 'positionCoords': [645.84, 144.5], 'bid': 8.68}]",74024.29999995232,1669830734432,apple slices,hotdog w must,8.52,8.68,0.16000000000000014,hotdog w must,694.7999999523163,695,695.5,True,i,75234.79999995232,1210.5,1669830735642,1210,HRV,HRV_0032,2022-11-30 17:54:20
61,"[{'imgObject': {}, 'id': 'cheerios', 'src': '/static/foodstim60/cheerios.jpg', 'key': 'u', 'origWidth': 409, 'origHeight': 410, 'width': 409, 'height': 410, 'widthPercent': 0.45, 'rescaleHeight': False, 'trialN': 61, 'loaded': True, 'loadedTime': 6040.299999952316, 'positionName': 'LEFT', 'positionCoords': [187.16, 144], 'bid': 6.9}, {'imgObject': {}, 'id': 'ice cream sundae 002', 'src': '/static/foodstim60/ice cream sundae 002.jpg', 'key': 'i', 'origWidth': 409, 'origHeight': 409, 'width': 409, 'height': 409, 'widthPercent': 0.45, 'rescaleHeight': False, 'trialN': 61, 'loaded': True, 'loadedTime': 6576.399999856949, 'positionName': 'RIGHT', 'positionCoords': [645.84, 144.5], 'bid': 6.72}]",75235.0,1669830735642,cheerios,ice cream sundae 002,6.9,6.72,-0.1800000000000006,cheerios,635.2000000476837,637,636.2000000476837,True,u,76395.5,1160.5,1669830736803,1161,HRV,HRV_0032,2022-11-30 17:54:20
62,"[{'imgObject': {}, 'id': 'rigatoni', 'src': '/static/foodstim60/rigatoni.jpg', 'key': 'u', 'origWidth': 411, 'origHeight': 411, 'width': 411, 'height': 411, 'widthPercent': 0.45, 'rescaleHeight': False, 'trialN': 62, 'loaded': True, 'loadedTime': 6233.099999904633, 'positionName': 'LEFT', 'positionCoords': [185.16, 143.5], 'bid': 6.54}, {'imgObject': {}, 'id': 'baked potato', 'src': '/static/foodstim60/baked potato.jpg', 'key': 'i', 'origWidth': 409, 'origHeight': 410, 'width': 409, 'height': 410, 'widthPercent': 0.45, 'rescaleHeight': False, 'trialN': 62, 'loaded': True, 'loadedTime': 6425.899999856949, 'positionName': 'RIGHT', 'positionCoords': [645.84, 144], 'bid': 6.33}]",76396.0,1669830736803,rigatoni,baked potato,6.54,6.33,-0.20999999999999996,baked potato,539.7000000476837,542,541.0,True,i,77451.5,1055.5,1669830737859,1056,HRV,HRV_0032,2022-11-30 17:54:20
63,"[{'imgObject': {}, 'id': 'raisin bran w milk', 'src': '/static/foodstim60/raisin bran w milk.jpg', 'key': 'u', 'origWidth': 411, 'origHeight': 411, 'width': 411, 'height': 411, 'widthPercent': 0.45, 'rescaleHeight': False, 'trialN': 63, 'loaded': True, 'loadedTime': 6426.899999856949, 'positionName': 'LEFT', 'positionCoords': [185.16, 143.5], 'bid': 3.58}, {'imgObject': {}, 'id': 'froot loops w milk', 'src': '/static/foodstim60/froot loops w milk.jpg', 'key': 'i', 'origWidth': 410, 'origHeight': 410, 'width': 410, 'height': 410, 'widthPercent': 0.45, 'rescaleHeight': False, 'trialN': 63, 'loaded': True, 'loadedTime': 6173.099999904633, 'positionName': 'RIGHT', 'positionCoords': [645.84, 144], 'bid': 3.48}]",77451.89999985695,1669830737859,raisin bran w milk,froot loops w milk,3.58,3.48,-0.10000000000000009,raisin bran w milk,424.30000019073486,425,424.90000009536743,True,u,78390.29999995232,938.4000000953674,1669830738798,939,HRV,HRV_0032,2022-11-30 17:54:20
64,"[{'imgObject': {}, 'id': 'olives', 'src': '/static/foodstim60/olives.jpg', 'key': 'u', 'origWidth': 410, 'origHeight': 410, 'width': 410, 'height': 410, 'widthPercent': 0.45, 'rescaleHeight': False, 'trialN': 64, 'loaded': True, 'loadedTime': 6295.299999952316, 'positionName': 'LEFT', 'positionCoords': [186.16, 144], 'bid': 8.88}, {'imgObject': {}, 'id': 'mashed potato', 'src': '/static/foodstim60/mashed potato.jpg', 'key': 'i', 'origWidth': 409, 'origHeight': 409, 'width': 409, 'height': 409, 'widthPercent': 0.45, 'rescaleHeight': False, 'trialN': 64, 'loaded': True, 'loadedTime': 5614.799999952316, 'positionName': 'RIGHT', 'positionCoords': [645.84, 144.5], 'bid': 6.61}]",78390.5,1669830738798,olives,mashed potato,8.88,6.61,-2.2700000000000005,mashed potato,463.59999990463257,464,464.2999999523163,True,i,79372.70000004768,982.2000000476837,1669830739780,982,HRV,HRV_0032,2022-11-30 17:54:20
65,"[{'imgObject': {}, 'id': 'grilled chicken strips', 'src': '/static/foodstim60/grilled chicken strips.jpg', 'key': 'u', 'origWidth': 410, 'origHeight': 411, 'width': 410, 'height': 411, 'widthPercent': 0.45, 'rescaleHeight': False, 'trialN': 65, 'loaded': True, 'loadedTime': 5802.299999952316, 'positionName': 'LEFT', 'positionCoords': [186.16, 143.5], 'bid': 5.33}, {'imgObject': {}, 'id': 'kiwi', 'src': '/static/foodstim60/kiwi.jpg', 'key': 'i', 'origWidth': 410, 'origHeight': 410, 'width': 410, 'height': 410, 'widthPercent': 0.45, 'rescaleHeight': False, 'trialN': 65, 'loaded': True, 'loadedTime': 5896.700000047684, 'positionName': 'RIGHT', 'positionCoords': [645.84, 144], 'bid': 3.74}]",79372.79999995232,1669830739780,grilled chicken strips,kiwi,5.33,3.74,-1.5899999999999999,kiwi,684.0999999046326,685,685.0999999046326,True,i,80579.70000004768,1206.9000000953674,1669830740987,1207,HRV,HRV_0032,2022-11-30 17:54:20
66,"[{'imgObject': {}, 'id': 'bagel and cc', 'src': '/static/foodstim60/bagel and cc.jpg', 'key': 'u', 'origWidth': 410, 'origHeight': 410, 'width': 410, 'height': 410, 'widthPercent': 0.45, 'rescaleHeight': False, 'trialN': 66, 'loaded': True, 'loadedTime': 6530.099999904633, 'positionName': 'LEFT', 'positionCoords': [186.16, 144], 'bid': 9.63}, {'imgObject': {}, 'id': 'eggs', 'src': '/static/foodstim60/eggs.jpg', 'key': 'i', 'origWidth': 409, 'origHeight': 409, 'width': 409, 'height': 409, 'widthPercent': 0.45, 'rescaleHeight': False, 'trialN': 66, 'loaded': True, 'loadedTime': 6557.799999952316, 'positionName': 'RIGHT', 'positionCoords': [645.84, 144.5], 'bid': 8.51}]",80579.89999985695,1669830740987,bagel and cc,eggs,9.63,8.51,-1.120000000000001,eggs,778.4000000953674,780,779.1000001430511,True,i,81869.59999990463,1289.7000000476837,1669830742277,1290,HRV,HRV_0032,2022-11-30 17:54:20
67,"[{'imgObject': {}, 'id': 'olives', 'src': '/static/foodstim60/olives.jpg', 'key': 'u', 'origWidth': 410, 'origHeight': 410, 'width': 410, 'height': 410, 'widthPercent': 0.45, 'rescaleHeight': False, 'trialN': 67, 'loaded': True, 'loadedTime': 6295.700000047684, 'positionName': 'LEFT', 'positionCoords': [186.16, 144], 'bid': 8.88}, {'imgObject': {}, 'id': 'corn cob', 'src': '/static/foodstim60/corn cob.jpg', 'key': 'i', 'origWidth': 411, 'origHeight': 411, 'width': 411, 'height': 411, 'widthPercent': 0.45, 'rescaleHeight': False, 'trialN': 67, 'loaded': True, 'loadedTime': 6519.5, 'positionName': 'RIGHT', 'positionCoords': [645.84, 143.5], 'bid': 9.92}]",81869.70000004768,1669830742277,olives,corn cob,8.88,9.92,1.0399999999999991,olives,430.89999985694885,432,431.59999990463257,True,u,82815.29999995232,945.5999999046326,1669830743223,946,HRV,HRV_0032,2022-11-30 17:54:20
68,"[{'imgObject': {}, 'id': 'grilled chicken strips', 'src': '/static/foodstim60/grilled chicken strips.jpg', 'key': 'u', 'origWidth': 410, 'origHeight': 411, 'width': 410, 'height': 411, 'widthPercent': 0.45, 'rescaleHeight': False, 'trialN': 68, 'loaded': True, 'loadedTime': 5791, 'positionName': 'LEFT', 'positionCoords': [186.16, 143.5], 'bid': 5.33}, {'imgObject': {}, 'id': 'veggieswithdip', 'src': '/static/foodstim60/veggieswithdip.jpg', 'key': 'i', 'origWidth': 409, 'origHeight': 409, 'width': 409, 'height': 409, 'widthPercent': 0.45, 'rescaleHeight': False, 'trialN': 68, 'loaded': True, 'loadedTime': 6553.799999952316, 'positionName': 'RIGHT', 'positionCoords': [645.84, 144.5], 'bid': 6.3}]",82815.59999990463,1669830743223,grilled chicken strips,veggieswithdip,5.33,6.3,0.9699999999999998,veggieswithdip,419.90000009536743,421,420.7999999523163,True,i,83757.5,941.9000000953674,1669830744165,942,HRV,HRV_0032,2022-11-30 17:54:20
69,"[{'imgObject': {}, 'id': 'roastedpotatoes', 'src': '/static/foodstim60/roastedpotatoes.jpg', 'key': 'u', 'origWidth': 409, 'origHeight': 410, 'width': 409, 'height': 410, 'widthPercent': 0.45, 'rescaleHeight': False, 'trialN': 69, 'loaded': True, 'loadedTime': 6580.599999904633, 'positionName': 'LEFT', 'positionCoords': [187.16, 144], 'bid': 6.86}, {'imgObject': {}, 'id': 'pear', 'src': '/static/foodstim60/pear.jpg', 'key': 'i', 'origWidth': 411, 'origHeight': 410, 'width': 411, 'height': 410, 'widthPercent': 0.45, 'rescaleHeight': False, 'trialN': 69, 'loaded': True, 'loadedTime': 6007.099999904633, 'positionName': 'RIGHT', 'positionCoords': [645.84, 144], 'bid': 6.67}]",83757.59999990463,1669830744165,roastedpotatoes,pear,6.86,6.67,-0.1900000000000004,pear,773.9000000953674,775,774.6000001430511,True,i,85044.59999990463,1287.0,1669830745452,1287,HRV,HRV_0032,2022-11-30 17:54:20
70,"[{'imgObject': {}, 'id': 'lox', 'src': '/static/foodstim60/lox.jpg', 'key': 'u', 'origWidth': 410, 'origHeight': 411, 'width': 410, 'height': 411, 'widthPercent': 0.45, 'rescaleHeight': False, 'trialN': 70, 'loaded': True, 'loadedTime': 6203.799999952316, 'positionName': 'LEFT', 'positionCoords': [186.16, 143.5], 'bid': 9.38}, {'imgObject': {}, 'id': 'hotdog w must', 'src': '/static/foodstim60/hotdog w must.jpg', 'key': 'i', 'origWidth': 409, 'origHeight': 409, 'width': 409, 'height': 409, 'widthPercent': 0.45, 'rescaleHeight': False, 'trialN': 70, 'loaded': True, 'loadedTime': 6564.799999952316, 'positionName': 'RIGHT', 'positionCoords': [645.84, 144.5], 'bid': 8.68}]",85044.79999995232,1669830745452,lox,hotdog w must,9.38,8.68,-0.7000000000000011,lox,921.7999999523163,923,923.2000000476837,True,u,86486.29999995232,1441.5,1669830746894,1442,HRV,HRV_0032,2022-11-30 17:54:20
71,"[{'imgObject': {}, 'id': 'eggs', 'src': '/static/foodstim60/eggs.jpg', 'key': 'u', 'origWidth': 409, 'origHeight': 409, 'width': 409, 'height': 409, 'widthPercent': 0.45, 'rescaleHeight': False, 'trialN': 71, 'loaded': True, 'loadedTime': 6561.200000047684, 'positionName': 'LEFT', 'positionCoords': [187.16, 144.5], 'bid': 8.51}, {'imgObject': {}, 'id': 'strawberries', 'src': '/static/foodstim60/strawberries.jpg', 'key': 'i', 'origWidth': 410, 'origHeight': 410, 'width': 410, 'height': 410, 'widthPercent': 0.45, 'rescaleHeight': False, 'trialN': 71, 'loaded': True, 'loadedTime': 6587.299999952316, 'positionName': 'RIGHT', 'positionCoords': [645.84, 144], 'bid': 6.2700000000000005}]",86499.5,1669830746907,eggs,strawberries,8.51,6.2700000000000005,-2.2399999999999993,strawberries,768.3999998569489,769,769.0999999046326,True,i,87782.70000004768,1283.2000000476837,1669830748190,1283,HRV,HRV_0032,2022-11-30 17:54:20
72,"[{'imgObject': {}, 'id': 'Tribe humus pita', 'src': '/static/foodstim60/Tribe humus pita.jpg', 'key': 'u', 'origWidth': 411, 'origHeight': 411, 'width': 411, 'height': 411, 'widthPercent': 0.45, 'rescaleHeight': False, 'trialN': 72, 'loaded': True, 'loadedTime': 5959.899999856949, 'positionName': 'LEFT', 'positionCoords': [185.16, 143.5], 'bid': 6.94}, {'imgObject': {}, 'id': 'seaweed', 'src': '/static/foodstim60/seaweed.jpg', 'key': 'i', 'origWidth': 410, 'origHeight': 410, 'width': 410, 'height': 410, 'widthPercent': 0.45, 'rescaleHeight': False, 'trialN': 72, 'loaded': True, 'loadedTime': 6166.5, 'positionName': 'RIGHT', 'positionCoords': [645.84, 144], 'bid': 7.35}]",87783.0,1669830748190,Tribe humus pita,seaweed,6.94,7.35,0.40999999999999925,seaweed,1805.7000000476837,1807,1806.3999998569489,True,i,90096.09999990463,2313.0999999046326,1669830750504,2314,HRV,HRV_0032,2022-11-30 17:54:20
73,"[{'imgObject': {}, 'id': 'sushi w_condiments', 'src': '/static/foodstim60/sushi w_condiments.jpg', 'key': 'u', 'origWidth': 410, 'origHeight': 410, 'width': 410, 'height': 410, 'widthPercent': 0.45, 'rescaleHeight': False, 'trialN': 73, 'loaded': True, 'loadedTime': 6548.200000047684, 'positionName': 'LEFT', 'positionCoords': [186.16, 144], 'bid': 6.86}, {'imgObject': {}, 'id': 'chickenfingers', 'src': '/static/foodstim60/chickenfingers.jpg', 'key': 'i', 'origWidth': 410, 'origHeight': 410, 'width': 410, 'height': 410, 'widthPercent': 0.45, 'rescaleHeight': False, 'trialN': 73, 'loaded': True, 'loadedTime': 6267, 'positionName': 'RIGHT', 'positionCoords': [645.84, 144], 'bid': 8.44}]",90096.20000004768,1669830750504,sushi w_condiments,chickenfingers,6.86,8.44,1.5799999999999992,sushi w_condiments,771.5999999046326,772,772.3999998569489,True,u,91381.59999990463,1285.3999998569489,1669830751789,1285,HRV,HRV_0032,2022-11-30 17:54:20
74,"[{'imgObject': {}, 'id': 'granola w milk', 'src': '/static/foodstim60/granola w milk.jpg', 'key': 'u', 'origWidth': 410, 'origHeight': 410, 'width': 410, 'height': 410, 'widthPercent': 0.45, 'rescaleHeight': False, 'trialN': 74, 'loaded': True, 'loadedTime': 6314.599999904633, 'positionName': 'LEFT', 'positionCoords': [186.16, 144], 'bid': 6.73}, {'imgObject': {}, 'id': 'orange slices', 'src': '/static/foodstim60/orange slices.jpg', 'key': 'i', 'origWidth': 409, 'origHeight': 410, 'width': 409, 'height': 410, 'widthPercent': 0.45, 'rescaleHeight': False, 'trialN': 74, 'loaded': True, 'loadedTime': 6590.099999904633, 'positionName': 'RIGHT', 'positionCoords': [645.84, 144], 'bid': 6.9}]",91382.20000004768,1669830751790,granola w milk,orange slices,6.73,6.9,0.16999999999999993,orange slices,769.2999999523163,770,770.5,True,i,92660.0,1277.7999999523163,1669830753067,1277,HRV,HRV_0032,2022-11-30 17:54:20
75,"[{'imgObject': {}, 'id': 'mac & cheese', 'src': '/static/foodstim60/mac & cheese.jpg', 'key': 'u', 'origWidth': 410, 'origHeight': 410, 'width': 410, 'height': 410, 'widthPercent': 0.45, 'rescaleHeight': False, 'trialN': 75, 'loaded': True, 'loadedTime': 6232.700000047684, 'positionName': 'LEFT', 'positionCoords': [186.16, 144], 'bid': 5.8500000000000005}, {'imgObject': {}, 'id': 'cherries', 'src': '/static/foodstim60/cherries.jpg', 'key': 'i', 'origWidth': 410, 'origHeight': 411, 'width': 410, 'height': 411, 'widthPercent': 0.45, 'rescaleHeight': False, 'trialN': 75, 'loaded': True, 'loadedTime': 5673.899999856949, 'positionName': 'RIGHT', 'positionCoords': [645.84, 143.5], 'bid': 6.11}]",92660.39999985695,1669830753068,mac & cheese,cherries,5.8500000000000005,6.11,0.2599999999999998,mac & cheese,592,594,593.8000001907349,True,u,93769.09999990463,1108.7000000476837,1669830754177,1109,HRV,HRV_0032,2022-11-30 17:54:20
76,"[{'imgObject': {}, 'id': 'shreddedwheatwithmilk', 'src': '/static/foodstim60/shreddedwheatwithmilk.jpg', 'key': 'u', 'origWidth': 410, 'origHeight': 410, 'width': 410, 'height': 410, 'widthPercent': 0.45, 'rescaleHeight': False, 'trialN': 76, 'loaded': True, 'loadedTime': 6305.799999952316, 'positionName': 'LEFT', 'positionCoords': [186.16, 144], 'bid': 9.28}, {'imgObject': {}, 'id': 'pear', 'src': '/static/foodstim60/pear.jpg', 'key': 'i', 'origWidth': 411, 'origHeight': 410, 'width': 411, 'height': 410, 'widthPercent': 0.45, 'rescaleHeight': False, 'trialN': 76, 'loaded': True, 'loadedTime': 6013.5, 'positionName': 'RIGHT', 'positionCoords': [645.84, 144], 'bid': 6.67}]",93769.5,1669830754177,shreddedwheatwithmilk,pear,9.28,6.67,-2.6099999999999994,pear,451.7000000476837,452,452.5,True,i,94729.39999985695,959.8999998569489,1669830755137,960,HRV,HRV_0032,2022-11-30 17:54:20
77,"[{'imgObject': {}, 'id': 'sweetpotato', 'src': '/static/foodstim60/sweetpotato.jpg', 'key': 'u', 'origWidth': 410, 'origHeight': 410, 'width': 410, 'height': 410, 'widthPercent': 0.45, 'rescaleHeight': False, 'trialN': 77, 'loaded': True, 'loadedTime': 6458.200000047684, 'positionName': 'LEFT', 'positionCoords': [186.16, 144], 'bid': 7.25}, {'imgObject': {}, 'id': 'steak', 'src': '/static/foodstim60/steak.jpg', 'key': 'i', 'origWidth': 410, 'origHeight': 410, 'width': 410, 'height': 410, 'widthPercent': 0.45, 'rescaleHeight': False, 'trialN': 77, 'loaded': True, 'loadedTime': 5721.700000047684, 'positionName': 'RIGHT', 'positionCoords': [645.84, 144], 'bid': 8.65}]",94733.59999990463,1669830755141,sweetpotato,steak,7.25,8.65,1.4000000000000004,sweetpotato,396.5,398,397.5,True,u,95640.0,906.4000000953674,1669830756048,907,HRV,HRV_0032,2022-11-30 17:54:20
78,"[{'imgObject': {}, 'id': 'yogurt no spoon', 'src': '/static/foodstim60/yogurt no spoon.jpg', 'key': 'u', 'origWidth': 411, 'origHeight': 410, 'width': 411, 'height': 410, 'widthPercent': 0.45, 'rescaleHeight': False, 'trialN': 78, 'loaded': True, 'loadedTime': 6495.599999904633, 'positionName': 'LEFT', 'positionCoords': [185.16, 144], 'bid': 3.88}, {'imgObject': {}, 'id': 'turkeysandwich', 'src': '/static/foodstim60/turkeysandwich.jpg', 'key': 'i', 'origWidth': 409, 'origHeight': 409, 'width': 409, 'height': 409, 'widthPercent': 0.45, 'rescaleHeight': False, 'trialN': 78, 'loaded': True, 'loadedTime': 5911.700000047684, 'positionName': 'RIGHT', 'positionCoords': [645.84, 144.5], 'bid': 4.17}]",95640.29999995232,1669830756048,yogurt no spoon,turkeysandwich,3.88,4.17,0.29000000000000004,turkeysandwich,329.7999999523163,331,331.2999999523163,True,i,96488.59999990463,848.2999999523163,1669830756896,848,HRV,HRV_0032,2022-11-30 17:54:20
79,"[{'imgObject': {}, 'id': 'hashbrowns', 'src': '/static/foodstim60/hashbrowns.jpg', 'key': 'u', 'origWidth': 411, 'origHeight': 410, 'width': 411, 'height': 410, 'widthPercent': 0.45, 'rescaleHeight': False, 'trialN': 79, 'loaded': True, 'loadedTime': 6538, 'positionName': 'LEFT', 'positionCoords': [185.16, 144], 'bid': 8.47}, {'imgObject': {}, 'id': 'cocktailshrimp', 'src': '/static/foodstim60/cocktailshrimp.jpg', 'key': 'i', 'origWidth': 410, 'origHeight': 410, 'width': 410, 'height': 410, 'widthPercent': 0.45, 'rescaleHeight': False, 'trialN': 79, 'loaded': True, 'loadedTime': 6594.599999904633, 'positionName': 'RIGHT', 'positionCoords': [645.84, 144], 'bid': 8.38}]",96488.70000004768,1669830756896,hashbrowns,cocktailshrimp,8.47,8.38,-0.08999999999999986,hashbrowns,269.09999990463257,270,270.0,True,u,97273.89999985695,785.1999998092651,1669830757681,785,HRV,HRV_0032,2022-11-30 17:54:20
80,"[{'imgObject': {}, 'id': 'hashbrowns', 'src': '/static/foodstim60/hashbrowns.jpg', 'key': 'u', 'origWidth': 411, 'origHeight': 410, 'width': 411, 'height': 410, 'widthPercent': 0.45, 'rescaleHeight': False, 'trialN': 80, 'loaded': True, 'loadedTime': 6532.799999952316, 'positionName': 'LEFT', 'positionCoords': [185.16, 144], 'bid': 8.47}, {'imgObject': {}, 'id': 'roastedpotatoes', 'src': '/static/foodstim60/roastedpotatoes.jpg', 'key': 'i', 'origWidth': 409, 'origHeight': 410, 'width': 409, 'height': 410, 'widthPercent': 0.45, 'rescaleHeight': False, 'trialN': 80, 'loaded': True, 'loadedTime': 6580.299999952316, 'positionName': 'RIGHT', 'positionCoords': [645.84, 144], 'bid': 6.86}]",97274.20000004768,1669830757682,hashbrowns,roastedpotatoes,8.47,6.86,-1.6100000000000003,roastedpotatoes,254.69999980926514,255,255.5,True,i,98046.79999995232,772.5999999046326,1669830758454,772,HRV,HRV_0032,2022-11-30 17:54:20
81,"[{'imgObject': {}, 'id': 'avocado', 'src': '/static/foodstim60/avocado.jpg', 'key': 'u', 'origWidth': 409, 'origHeight': 409, 'width': 409, 'height': 409, 'widthPercent': 0.45, 'rescaleHeight': False, 'trialN': 81, 'loaded': True, 'loadedTime': 6598.700000047684, 'positionName': 'LEFT', 'positionCoords': [187.16, 144.5], 'bid': 6.3500000000000005}, {'imgObject': {}, 'id': 'cherry tomato', 'src': '/static/foodstim60/cherry tomato.jpg', 'key': 'i', 'origWidth': 410, 'origHeight': 410, 'width': 410, 'height': 410, 'widthPercent': 0.45, 'rescaleHeight': False, 'trialN': 81, 'loaded': True, 'loadedTime': 6337.899999856949, 'positionName': 'RIGHT', 'positionCoords': [645.84, 144], 'bid': 5.72}]",98047.0,1669830758454,avocado,cherry tomato,6.3500000000000005,5.72,-0.6300000000000008,avocado,237.79999995231628,239,238.39999985694885,True,u,98802.59999990463,755.5999999046326,1669830759210,756,HRV,HRV_0032,2022-11-30 17:54:20
82,"[{'imgObject': {}, 'id': 'ice cream sundae 002', 'src': '/static/foodstim60/ice cream sundae 002.jpg', 'key': 'u', 'origWidth': 409, 'origHeight': 409, 'width': 409, 'height': 409, 'widthPercent': 0.45, 'rescaleHeight': False, 'trialN': 82, 'loaded': True, 'loadedTime': 6573.099999904633, 'positionName': 'LEFT', 'positionCoords': [187.16, 144.5], 'bid': 6.72}, {'imgObject': {}, 'id': 'eggsalad', 'src': '/static/foodstim60/eggsalad.jpg', 'key': 'i', 'origWidth': 410, 'origHeight': 409, 'width': 410, 'height': 409, 'widthPercent': 0.45, 'rescaleHeight': False, 'trialN': 82, 'loaded': True, 'loadedTime': 6056.899999856949, 'positionName': 'RIGHT', 'positionCoords': [645.84, 144.5], 'bid': 6.640000000000001}]",98803.5,1669830759211,ice cream sundae 002,eggsalad,6.72,6.640000000000001,-0.07999999999999918,eggsalad,311.5,312,312.39999985694885,True,i,99623.20000004768,819.7000000476837,1669830760031,820,HRV,HRV_0032,2022-11-30 17:54:20
83,"[{'imgObject': {}, 'id': 'rigatoni', 'src': '/static/foodstim60/rigatoni.jpg', 'key': 'u', 'origWidth': 411, 'origHeight': 411, 'width': 411, 'height': 411, 'widthPercent': 0.45, 'rescaleHeight': False, 'trialN': 83, 'loaded': True, 'loadedTime': 6239.299999952316, 'positionName': 'LEFT', 'positionCoords': [185.16, 143.5], 'bid': 6.54}, {'imgObject': {}, 'id': 'mashed potato', 'src': '/static/foodstim60/mashed potato.jpg', 'key': 'i', 'origWidth': 409, 'origHeight': 409, 'width': 409, 'height': 409, 'widthPercent': 0.45, 'rescaleHeight': False, 'trialN': 83, 'loaded': True, 'loadedTime': 5609.700000047684, 'positionName': 'RIGHT', 'positionCoords': [645.84, 144.5], 'bid': 6.61}]",99623.39999985695,1669830760031,rigatoni,mashed potato,6.54,6.61,0.07000000000000028,rigatoni,375.40000009536743,376,376.10000014305115,True,u,100503.0,879.6000001430511,1669830760912,881,HRV,HRV_0032,2022-11-30 17:54:20
84,"[{'imgObject': {}, 'id': 'tacos', 'src': '/static/foodstim60/tacos.jpg', 'key': 'u', 'origWidth': 411, 'origHeight': 411, 'width': 411, 'height': 411, 'widthPercent': 0.45, 'rescaleHeight': False, 'trialN': 84, 'loaded': True, 'loadedTime': 5841.099999904633, 'positionName': 'LEFT', 'positionCoords': [185.16, 143.5], 'bid': 7.54}, {'imgObject': {}, 'id': 'omelette', 'src': '/static/foodstim60/omelette.jpg', 'key': 'i', 'origWidth': 410, 'origHeight': 409, 'width': 410, 'height': 409, 'widthPercent': 0.45, 'rescaleHeight': False, 'trialN': 84, 'loaded': True, 'loadedTime': 6410.5, 'positionName': 'RIGHT', 'positionCoords': [645.84, 144.5], 'bid': 7.33}]",100503.09999990463,1669830760912,tacos,omelette,7.54,7.33,-0.20999999999999996,omelette,288.2999999523163,289,289.0,True,i,101303.59999990463,800.5,1669830761713,801,HRV,HRV_0032,2022-11-30 17:54:20
85,"[{'imgObject': {}, 'id': 'orange slices', 'src': '/static/foodstim60/orange slices.jpg', 'key': 'u', 'origWidth': 409, 'origHeight': 410, 'width': 409, 'height': 410, 'widthPercent': 0.45, 'rescaleHeight': False, 'trialN': 85, 'loaded': True, 'loadedTime': 6590.899999856949, 'positionName': 'LEFT', 'positionCoords': [187.16, 144], 'bid': 6.9}, {'imgObject': {}, 'id': 'bagel plain', 'src': '/static/foodstim60/bagel plain.jpg', 'key': 'i', 'origWidth': 410, 'origHeight': 410, 'width': 410, 'height': 410, 'widthPercent': 0.45, 'rescaleHeight': False, 'trialN': 85, 'loaded': True, 'loadedTime': 5783.200000047684, 'positionName': 'RIGHT', 'positionCoords': [645.84, 144], 'bid': 6.93}]",101303.89999985695,1669830761713,orange slices,bagel plain,6.9,6.93,0.02999999999999936,orange slices,330.40000009536743,331,331.40000009536743,True,u,102150.89999985695,847.0,1669830762560,847,HRV,HRV_0032,2022-11-30 17:54:20
86,"[{'imgObject': {}, 'id': 'froot loops w milk', 'src': '/static/foodstim60/froot loops w milk.jpg', 'key': 'u', 'origWidth': 410, 'origHeight': 410, 'width': 410, 'height': 410, 'widthPercent': 0.45, 'rescaleHeight': False, 'trialN': 86, 'loaded': True, 'loadedTime': 6171.099999904633, 'positionName': 'LEFT', 'positionCoords': [186.16, 144], 'bid': 3.48}, {'imgObject': {}, 'id': 'salmon', 'src': '/static/foodstim60/salmon.jpg', 'key': 'i', 'origWidth': 410, 'origHeight': 409, 'width': 410, 'height': 409, 'widthPercent': 0.45, 'rescaleHeight': False, 'trialN': 86, 'loaded': True, 'loadedTime': 6499.599999904633, 'positionName': 'RIGHT', 'positionCoords': [645.84, 144.5], 'bid': 4.67}]",102151.09999990463,1669830762560,froot loops w milk,salmon,3.48,4.67,1.19,salmon,227.60000014305115,230,230.40000009536743,True,i,102895.20000004768,744.1000001430511,1669830763304,744,HRV,HRV_0032,2022-11-30 17:54:20
87,"[{'imgObject': {}, 'id': 'chickenfingers', 'src': '/static/foodstim60/chickenfingers.jpg', 'key': 'u', 'origWidth': 410, 'origHeight': 410, 'width': 410, 'height': 410, 'widthPercent': 0.45, 'rescaleHeight': False, 'trialN': 87, 'loaded': True, 'loadedTime': 6264.799999952316, 'positionName': 'LEFT', 'positionCoords': [186.16, 144], 'bid': 8.44}, {'imgObject': {}, 'id': 'hashbrowns', 'src': '/static/foodstim60/hashbrowns.jpg', 'key': 'i', 'origWidth': 411, 'origHeight': 410, 'width': 411, 'height': 410, 'widthPercent': 0.45, 'rescaleHeight': False, 'trialN': 87, 'loaded': True, 'loadedTime': 6541, 'positionName': 'RIGHT', 'positionCoords': [645.84, 144], 'bid': 8.47}]",102895.29999995232,1669830763304,chickenfingers,hashbrowns,8.44,8.47,0.030000000000001137,chickenfingers,195.29999995231628,196,195.90000009536743,True,u,103610.39999985695,715.0999999046326,1669830764019,715,HRV,HRV_0032,2022-11-30 17:54:20
88,"[{'imgObject': {}, 'id': 'roastedpotatoes', 'src': '/static/foodstim60/roastedpotatoes.jpg', 'key': 'u', 'origWidth': 409, 'origHeight': 410, 'width': 409, 'height': 410, 'widthPercent': 0.45, 'rescaleHeight': False, 'trialN': 88, 'loaded': True, 'loadedTime': 6581.5, 'positionName': 'LEFT', 'positionCoords': [187.16, 144], 'bid': 6.86}, {'imgObject': {}, 'id': 'orange slices', 'src': '/static/foodstim60/orange slices.jpg', 'key': 'i', 'origWidth': 409, 'origHeight': 410, 'width': 409, 'height': 410, 'widthPercent': 0.45, 'rescaleHeight': False, 'trialN': 88, 'loaded': True, 'loadedTime': 6590.5, 'positionName': 'RIGHT', 'positionCoords': [645.84, 144], 'bid': 6.9}]",103610.79999995232,1669830764020,roastedpotatoes,orange slices,6.86,6.9,0.040000000000000036,orange slices,266.7000000476837,267,267.59999990463257,True,i,104381.59999990463,770.7999999523163,1669830764791,771,HRV,HRV_0032,2022-11-30 17:54:20
89,"[{'imgObject': {}, 'id': 'cantaloupe', 'src': '/static/foodstim60/cantaloupe.jpg', 'key': 'u', 'origWidth': 409, 'origHeight': 409, 'width': 409, 'height': 409, 'widthPercent': 0.45, 'rescaleHeight': False, 'trialN': 89, 'loaded': True, 'loadedTime': 6199, 'positionName': 'LEFT', 'positionCoords': [187.16, 144.5], 'bid': 4.62}, {'imgObject': {}, 'id': 'edamame', 'src': '/static/foodstim60/edamame.jpg', 'key': 'i', 'origWidth': 409, 'origHeight': 410, 'width': 409, 'height': 410, 'widthPercent': 0.45, 'rescaleHeight': False, 'trialN': 89, 'loaded': True, 'loadedTime': 6133.099999904633, 'positionName': 'RIGHT', 'positionCoords': [645.84, 144], 'bid': 6.62}]",104381.79999995232,1669830764791,cantaloupe,edamame,4.62,6.62,2.0,cantaloupe,268,269,269.09999990463257,True,u,105164.20000004768,782.4000000953674,1669830765573,782,HRV,HRV_0032,2022-11-30 17:54:20
90,"[{'imgObject': {}, 'id': 'corn cob', 'src': '/static/foodstim60/corn cob.jpg', 'key': 'u', 'origWidth': 411, 'origHeight': 411, 'width': 411, 'height': 411, 'widthPercent': 0.45, 'rescaleHeight': False, 'trialN': 90, 'loaded': True, 'loadedTime': 6522.5, 'positionName': 'LEFT', 'positionCoords': [185.16, 143.5], 'bid': 9.92}, {'imgObject': {}, 'id': 'bagel and cc', 'src': '/static/foodstim60/bagel and cc.jpg', 'key': 'i', 'origWidth': 410, 'origHeight': 410, 'width': 410, 'height': 410, 'widthPercent': 0.45, 'rescaleHeight': False, 'trialN': 90, 'loaded': True, 'loadedTime': 6528.5, 'positionName': 'RIGHT', 'positionCoords': [645.84, 144], 'bid': 9.63}]",109104.20000004768,1669830769513,corn cob,bagel and cc,9.92,9.63,-0.28999999999999915,corn cob,1152.0999999046326,1154,1154.1999998092651,True,u,110767.20000004768,1663.0,1669830771176,1663,HRV,HRV_0032,2022-11-30 17:54:20
91,"[{'imgObject': {}, 'id': 'fried eggs', 'src': '/static/foodstim60/fried eggs.jpg', 'key': 'u', 'origWidth': 410, 'origHeight': 410, 'width': 410, 'height': 410, 'widthPercent': 0.45, 'rescaleHeight': False, 'trialN': 91, 'loaded': True, 'loadedTime': 6349.399999856949, 'positionName': 'LEFT', 'positionCoords': [186.16, 144], 'bid': 7.88}, {'imgObject': {}, 'id': 'blackbeanswithrice', 'src': '/static/foodstim60/blackbeanswithrice.jpg', 'key': 'i', 'origWidth': 410, 'origHeight': 410, 'width': 410, 'height': 410, 'widthPercent': 0.45, 'rescaleHeight': False, 'trialN': 91, 'loaded': True, 'loadedTime': 6115.899999856949, 'positionName': 'RIGHT', 'positionCoords': [645.84, 144], 'bid': 9.17}]",110767.29999995232,1669830771176,fried eggs,blackbeanswithrice,7.88,9.17,1.29,blackbeanswithrice,536.2999999523163,537,537.0,True,i,111812.59999990463,1045.2999999523163,1669830772222,1046,HRV,HRV_0032,2022-11-30 17:54:20
92,"[{'imgObject': {}, 'id': 'cocktailshrimp', 'src': '/static/foodstim60/cocktailshrimp.jpg', 'key': 'u', 'origWidth': 410, 'origHeight': 410, 'width': 410, 'height': 410, 'widthPercent': 0.45, 'rescaleHeight': False, 'trialN': 92, 'loaded': True, 'loadedTime': 6594.899999856949, 'positionName': 'LEFT', 'positionCoords': [186.16, 144], 'bid': 8.38}, {'imgObject': {}, 'id': 'fried eggs', 'src': '/static/foodstim60/fried eggs.jpg', 'key': 'i', 'origWidth': 410, 'origHeight': 410, 'width': 410, 'height': 410, 'widthPercent': 0.45, 'rescaleHeight': False, 'trialN': 92, 'loaded': True, 'loadedTime': 6370.599999904633, 'positionName': 'RIGHT', 'positionCoords': [645.84, 144], 'bid': 7.88}]",111813.0,1669830772222,cocktailshrimp,fried eggs,8.38,7.88,-0.5000000000000009,cocktailshrimp,450.7000000476837,452,451.59999990463257,True,u,112771.79999995232,958.7999999523163,1669830773181,959,HRV,HRV_0032,2022-11-30 17:54:20
93,"[{'imgObject': {}, 'id': 'raisin bran w milk', 'src': '/static/foodstim60/raisin bran w milk.jpg', 'key': 'u', 'origWidth': 411, 'origHeight': 411, 'width': 411, 'height': 411, 'widthPercent': 0.45, 'rescaleHeight': False, 'trialN': 93, 'loaded': True, 'loadedTime': 6436.799999952316, 'positionName': 'LEFT', 'positionCoords': [185.16, 143.5], 'bid': 3.58}, {'imgObject': {}, 'id': 'cherries', 'src': '/static/foodstim60/cherries.jpg', 'key': 'i', 'origWidth': 410, 'origHeight': 411, 'width': 410, 'height': 411, 'widthPercent': 0.45, 'rescaleHeight': False, 'trialN': 93, 'loaded': True, 'loadedTime': 5659.700000047684, 'positionName': 'RIGHT', 'positionCoords': [645.84, 143.5], 'bid': 6.11}]",112772.0,1669830773181,raisin bran w milk,cherries,3.58,6.11,2.5300000000000002,cherries,395.7000000476837,397,397.2999999523163,True,i,113673.0,901.0,1669830774082,901,HRV,HRV_0032,2022-11-30 17:54:20
94,"[{'imgObject': {}, 'id': 'bagel and cc', 'src': '/static/foodstim60/bagel and cc.jpg', 'key': 'u', 'origWidth': 410, 'origHeight': 410, 'width': 410, 'height': 410, 'widthPercent': 0.45, 'rescaleHeight': False, 'trialN': 94, 'loaded': True, 'loadedTime': 6529.599999904633, 'positionName': 'LEFT', 'positionCoords': [186.16, 144], 'bid': 9.63}, {'imgObject': {}, 'id': 'granola w milk', 'src': '/static/foodstim60/granola w milk.jpg', 'key': 'i', 'origWidth': 410, 'origHeight': 410, 'width': 410, 'height': 410, 'widthPercent': 0.45, 'rescaleHeight': False, 'trialN': 94, 'loaded': True, 'loadedTime': 6311.599999904633, 'positionName': 'RIGHT', 'positionCoords': [645.84, 144], 'bid': 6.73}]",113673.20000004768,1669830774082,bagel and cc,granola w milk,9.63,6.73,-2.9000000000000004,bagel and cc,96.39999985694885,98,98.29999995231628,True,u,114282.5,609.2999999523163,1669830774691,609,HRV,HRV_0032,2022-11-30 17:54:20
95,"[{'imgObject': {}, 'id': 'burger', 'src': '/static/foodstim60/burger.jpg', 'key': 'u', 'origWidth': 409, 'origHeight': 409, 'width': 409, 'height': 409, 'widthPercent': 0.45, 'rescaleHeight': False, 'trialN': 95, 'loaded': True, 'loadedTime': 6138.700000047684, 'positionName': 'LEFT', 'positionCoords': [187.16, 144.5], 'bid': 6.8500000000000005}, {'imgObject': {}, 'id': 'cocktailshrimp', 'src': '/static/foodstim60/cocktailshrimp.jpg', 'key': 'i', 'origWidth': 410, 'origHeight': 410, 'width': 410, 'height': 410, 'widthPercent': 0.45, 'rescaleHeight': False, 'trialN': 95, 'loaded': True, 'loadedTime': 6594.099999904633, 'positionName': 'RIGHT', 'positionCoords': [645.84, 144], 'bid': 8.38}]",114282.59999990463,1669830774692,burger,cocktailshrimp,6.8500000000000005,8.38,1.5300000000000002,cocktailshrimp,667,667,667.5,True,i,115468.59999990463,1186.0,1669830775878,1186,HRV,HRV_0032,2022-11-30 17:54:20
96,"[{'imgObject': {}, 'id': 'banana', 'src': '/static/foodstim60/banana.jpg', 'key': 'u', 'origWidth': 410, 'origHeight': 410, 'width': 410, 'height': 410, 'widthPercent': 0.45, 'rescaleHeight': False, 'trialN': 96, 'loaded': True, 'loadedTime': 6394.899999856949, 'positionName': 'LEFT', 'positionCoords': [186.16, 144], 'bid': 7.140000000000001}, {'imgObject': {}, 'id': 'fruitsalad', 'src': '/static/foodstim60/fruitsalad.jpg', 'key': 'i', 'origWidth': 410, 'origHeight': 410, 'width': 410, 'height': 410, 'widthPercent': 0.45, 'rescaleHeight': False, 'trialN': 96, 'loaded': True, 'loadedTime': 6097.299999952316, 'positionName': 'RIGHT', 'positionCoords': [645.84, 144], 'bid': 7.07}]",115468.79999995232,1669830775878,banana,fruitsalad,7.140000000000001,7.07,-0.07000000000000028,banana,403.59999990463257,405,404.90000009536743,True,u,116396.59999990463,927.7999999523163,1669830776806,928,HRV,HRV_0032,2022-11-30 17:54:20
97,"[{'imgObject': {}, 'id': 'luckycharms', 'src': '/static/foodstim60/luckycharms.jpg', 'key': 'u', 'origWidth': 410, 'origHeight': 409, 'width': 410, 'height': 409, 'widthPercent': 0.45, 'rescaleHeight': False, 'trialN': 97, 'loaded': True, 'loadedTime': 5636.099999904633, 'positionName': 'LEFT', 'positionCoords': [186.16, 144.5], 'bid': 4.29}, {'imgObject': {}, 'id': 'fruitsalad', 'src': '/static/foodstim60/fruitsalad.jpg', 'key': 'i', 'origWidth': 410, 'origHeight': 410, 'width': 410, 'height': 410, 'widthPercent': 0.45, 'rescaleHeight': False, 'trialN': 97, 'loaded': True, 'loadedTime': 6079.899999856949, 'positionName': 'RIGHT', 'positionCoords': [645.84, 144], 'bid': 7.07}]",116396.89999985695,1669830776806,luckycharms,fruitsalad,4.29,7.07,2.7800000000000002,fruitsalad,223,224,224.10000014305115,True,i,117130.39999985695,733.5,1669830777539,733,HRV,HRV_0032,2022-11-30 17:54:20
98,"[{'imgObject': {}, 'id': 'hashbrowns', 'src': '/static/foodstim60/hashbrowns.jpg', 'key': 'u', 'origWidth': 411, 'origHeight': 410, 'width': 411, 'height': 410, 'widthPercent': 0.45, 'rescaleHeight': False, 'trialN': 98, 'loaded': True, 'loadedTime': 6541.700000047684, 'positionName': 'LEFT', 'positionCoords': [185.16, 144], 'bid': 8.47}, {'imgObject': {}, 'id': 'omelette', 'src': '/static/foodstim60/omelette.jpg', 'key': 'i', 'origWidth': 410, 'origHeight': 409, 'width': 410, 'height': 409, 'widthPercent': 0.45, 'rescaleHeight': False, 'trialN': 98, 'loaded': True, 'loadedTime': 6413.899999856949, 'positionName': 'RIGHT', 'positionCoords': [645.84, 144.5], 'bid': 7.33}]",117130.59999990463,1669830777540,hashbrowns,omelette,8.47,7.33,-1.1400000000000006,hashbrowns,379.90000009536743,380,380.7999999523163,True,u,118021.29999995232,890.7000000476837,1669830778430,890,HRV,HRV_0032,2022-11-30 17:54:20
99,"[{'imgObject': {}, 'id': 'cocktailshrimp', 'src': '/static/foodstim60/cocktailshrimp.jpg', 'key': 'u', 'origWidth': 410, 'origHeight': 410, 'width': 410, 'height': 410, 'widthPercent': 0.45, 'rescaleHeight': False, 'trialN': 99, 'loaded': True, 'loadedTime': 6591.799999952316, 'positionName': 'LEFT', 'positionCoords': [186.16, 144], 'bid': 8.38}, {'imgObject': {}, 'id': 'banana', 'src': '/static/foodstim60/banana.jpg', 'key': 'i', 'origWidth': 410, 'origHeight': 410, 'width': 410, 'height': 410, 'widthPercent': 0.45, 'rescaleHeight': False, 'trialN': 99, 'loaded': True, 'loadedTime': 6395.799999952316, 'positionName': 'RIGHT', 'positionCoords': [645.84, 144], 'bid': 7.140000000000001}]",118021.39999985695,1669830778430,cocktailshrimp,banana,8.38,7.140000000000001,-1.2400000000000002,banana,648.2000000476837,649,649.0,True,i,119183.39999985695,1162.0,1669830779592,1162,HRV,HRV_0032,2022-11-30 17:54:20
100,"[{'imgObject': {}, 'id': 'burrito', 'src': '/static/foodstim60/burrito.jpg', 'key': 'u', 'origWidth': 410, 'origHeight': 410, 'width': 410, 'height': 410, 'widthPercent': 0.45, 'rescaleHeight': False, 'trialN': 100, 'loaded': True, 'loadedTime': 6327.099999904633, 'positionName': 'LEFT', 'positionCoords': [186.16, 144], 'bid': 6.8500000000000005}, {'imgObject': {}, 'id': 'turkey sandwich', 'src': '/static/foodstim60/turkey sandwich.jpg', 'key': 'i', 'origWidth': 409, 'origHeight': 409, 'width': 409, 'height': 409, 'widthPercent': 0.45, 'rescaleHeight': False, 'trialN': 100, 'loaded': True, 'loadedTime': 6373.099999904633, 'positionName': 'RIGHT', 'positionCoords': [645.84, 144.5], 'bid': 5.46}]",119183.5,1669830779592,burrito,turkey sandwich,6.8500000000000005,5.46,-1.3900000000000006,burrito,424.7999999523163,427,426.09999990463257,True,u,120118.20000004768,934.7000000476837,1669830780527,935,HRV,HRV_0032,2022-11-30 17:54:20
101,"[{'imgObject': {}, 'id': 'cantaloupe', 'src': '/static/foodstim60/cantaloupe.jpg', 'key': 'u', 'origWidth': 409, 'origHeight': 409, 'width': 409, 'height': 409, 'widthPercent': 0.45, 'rescaleHeight': False, 'trialN': 101, 'loaded': True, 'loadedTime': 6198.299999952316, 'positionName': 'LEFT', 'positionCoords': [187.16, 144.5], 'bid': 4.62}, {'imgObject': {}, 'id': 'popsicles', 'src': '/static/foodstim60/popsicles.jpg', 'key': 'i', 'origWidth': 410, 'origHeight': 410, 'width': 410, 'height': 410, 'widthPercent': 0.45, 'rescaleHeight': False, 'trialN': 101, 'loaded': True, 'loadedTime': 5460.700000047684, 'positionName': 'RIGHT', 'positionCoords': [645.84, 144], 'bid': 4.51}]",120118.39999985695,1669830780527,cantaloupe,popsicles,4.62,4.51,-0.11000000000000032,popsicles,405.30000019073486,407,406.10000014305115,True,i,121039.09999990463,920.7000000476837,1669830781448,921,HRV,HRV_0032,2022-11-30 17:54:20
102,"[{'imgObject': {}, 'id': 'burrito', 'src': '/static/foodstim60/burrito.jpg', 'key': 'u', 'origWidth': 410, 'origHeight': 410, 'width': 410, 'height': 410, 'widthPercent': 0.45, 'rescaleHeight': False, 'trialN': 102, 'loaded': True, 'loadedTime': 6324.599999904633, 'positionName': 'LEFT', 'positionCoords': [186.16, 144], 'bid': 6.8500000000000005}, {'imgObject': {}, 'id': 'sushi w_condiments', 'src': '/static/foodstim60/sushi w_condiments.jpg', 'key': 'i', 'origWidth': 410, 'origHeight': 410, 'width': 410, 'height': 410, 'widthPercent': 0.45, 'rescaleHeight': False, 'trialN': 102, 'loaded': True, 'loadedTime': 6542.200000047684, 'positionName': 'RIGHT', 'positionCoords': [645.84, 144], 'bid': 6.86}]",121039.29999995232,1669830781448,burrito,sushi w_condiments,6.8500000000000005,6.86,0.009999999999999787,burrito,436.40000009536743,437,437.09999990463257,True,u,121995.89999985695,956.5999999046326,1669830782405,957,HRV,HRV_0032,2022-11-30 17:54:20
103,"[{'imgObject': {}, 'id': 'cocktailshrimp', 'src': '/static/foodstim60/cocktailshrimp.jpg', 'key': 'u', 'origWidth': 410, 'origHeight': 410, 'width': 410, 'height': 410, 'widthPercent': 0.45, 'rescaleHeight': False, 'trialN': 103, 'loaded': True, 'loadedTime': 6594.399999856949, 'positionName': 'LEFT', 'positionCoords': [186.16, 144], 'bid': 8.38}, {'imgObject': {}, 'id': 'cherry tomato', 'src': '/static/foodstim60/cherry tomato.jpg', 'key': 'i', 'origWidth': 410, 'origHeight': 410, 'width': 410, 'height': 410, 'widthPercent': 0.45, 'rescaleHeight': False, 'trialN': 103, 'loaded': True, 'loadedTime': 6339.899999856949, 'positionName': 'RIGHT', 'positionCoords': [645.84, 144], 'bid': 5.72}]",121996.09999990463,1669830782405,cocktailshrimp,cherry tomato,8.38,5.72,-2.660000000000001,cherry tomato,321,322,321.7999999523163,True,i,122830.79999995232,834.7000000476837,1669830783240,835,HRV,HRV_0032,2022-11-30 17:54:20
104,"[{'imgObject': {}, 'id': 'burrito', 'src': '/static/foodstim60/burrito.jpg', 'key': 'u', 'origWidth': 410, 'origHeight': 410, 'width': 410, 'height': 410, 'widthPercent': 0.45, 'rescaleHeight': False, 'trialN': 104, 'loaded': True, 'loadedTime': 6323.399999856949, 'positionName': 'LEFT', 'positionCoords': [186.16, 144], 'bid': 6.8500000000000005}, {'imgObject': {}, 'id': 'bagel plain', 'src': '/static/foodstim60/bagel plain.jpg', 'key': 'i', 'origWidth': 410, 'origHeight': 410, 'width': 410, 'height': 410, 'widthPercent': 0.45, 'rescaleHeight': False, 'trialN': 104, 'loaded': True, 'loadedTime': 5776.599999904633, 'positionName': 'RIGHT', 'positionCoords': [645.84, 144], 'bid': 6.93}]",122830.89999985695,1669830783240,burrito,bagel plain,6.8500000000000005,6.93,0.07999999999999918,burrito,362.5,363,363.30000019073486,True,u,123707.59999990463,876.7000000476837,1669830784117,877,HRV,HRV_0032,2022-11-30 17:54:20
105,"[{'imgObject': {}, 'id': 'blueberries', 'src': '/static/foodstim60/blueberries.jpg', 'key': 'u', 'origWidth': 411, 'origHeight': 411, 'width': 411, 'height': 411, 'widthPercent': 0.45, 'rescaleHeight': False, 'trialN': 105, 'loaded': True, 'loadedTime': 6390.299999952316, 'positionName': 'LEFT', 'positionCoords': [185.16, 143.5], 'bid': 8.68}, {'imgObject': {}, 'id': 'fruitsalad', 'src': '/static/foodstim60/fruitsalad.jpg', 'key': 'i', 'origWidth': 410, 'origHeight': 410, 'width': 410, 'height': 410, 'widthPercent': 0.45, 'rescaleHeight': False, 'trialN': 105, 'loaded': True, 'loadedTime': 6094.799999952316, 'positionName': 'RIGHT', 'positionCoords': [645.84, 144], 'bid': 7.07}]",123707.70000004768,1669830784117,blueberries,fruitsalad,8.68,7.07,-1.6099999999999994,fruitsalad,357,357,357.59999990463257,True,i,124583.5,875.7999999523163,1669830784992,875,HRV,HRV_0032,2022-11-30 17:54:20
106,"[{'imgObject': {}, 'id': 'mango', 'src': '/static/foodstim60/mango.jpg', 'key': 'u', 'origWidth': 411, 'origHeight': 411, 'width': 411, 'height': 411, 'widthPercent': 0.45, 'rescaleHeight': False, 'trialN': 106, 'loaded': True, 'loadedTime': 5859, 'positionName': 'LEFT', 'positionCoords': [185.16, 143.5], 'bid': 3.51}, {'imgObject': {}, 'id': 'froot loops w milk', 'src': '/static/foodstim60/froot loops w milk.jpg', 'key': 'i', 'origWidth': 410, 'origHeight': 410, 'width': 410, 'height': 410, 'widthPercent': 0.45, 'rescaleHeight': False, 'trialN': 106, 'loaded': True, 'loadedTime': 6167.5, 'positionName': 'RIGHT', 'positionCoords': [645.84, 144], 'bid': 3.48}]",124583.70000004768,1669830784993,mango,froot loops w milk,3.51,3.48,-0.029999999999999805,mango,395.69999980926514,396,396.69999980926514,True,u,125495.79999995232,912.0999999046326,1669830785905,912,HRV,HRV_0032,2022-11-30 17:54:20
107,"[{'imgObject': {}, 'id': 'raspberries', 'src': '/static/foodstim60/raspberries.jpg', 'key': 'u', 'origWidth': 411, 'origHeight': 411, 'width': 411, 'height': 411, 'widthPercent': 0.45, 'rescaleHeight': False, 'trialN': 107, 'loaded': True, 'loadedTime': 6441.5, 'positionName': 'LEFT', 'positionCoords': [185.16, 143.5], 'bid': 5.11}, {'imgObject': {}, 'id': 'ice cream sundae 002', 'src': '/static/foodstim60/ice cream sundae 002.jpg', 'key': 'i', 'origWidth': 409, 'origHeight': 409, 'width': 409, 'height': 409, 'widthPercent': 0.45, 'rescaleHeight': False, 'trialN': 107, 'loaded': True, 'loadedTime': 6575.799999952316, 'positionName': 'RIGHT', 'positionCoords': [645.84, 144.5], 'bid': 6.72}]",125496.0,1669830785905,raspberries,ice cream sundae 002,5.11,6.72,1.6099999999999994,ice cream sundae 002,387,388,387.7000000476837,True,i,126393.59999990463,897.5999999046326,1669830786803,898,HRV,HRV_0032,2022-11-30 17:54:20
108,"[{'imgObject': {}, 'id': 'tacos', 'src': '/static/foodstim60/tacos.jpg', 'key': 'u', 'origWidth': 411, 'origHeight': 411, 'width': 411, 'height': 411, 'widthPercent': 0.45, 'rescaleHeight': False, 'trialN': 108, 'loaded': True, 'loadedTime': 5846.399999856949, 'positionName': 'LEFT', 'positionCoords': [185.16, 143.5], 'bid': 7.54}, {'imgObject': {}, 'id': 'bagel and cc', 'src': '/static/foodstim60/bagel and cc.jpg', 'key': 'i', 'origWidth': 410, 'origHeight': 410, 'width': 410, 'height': 410, 'widthPercent': 0.45, 'rescaleHeight': False, 'trialN': 108, 'loaded': True, 'loadedTime': 6529.099999904633, 'positionName': 'RIGHT', 'positionCoords': [645.84, 144], 'bid': 9.63}]",126393.70000004768,1669830786803,tacos,bagel and cc,7.54,9.63,2.0900000000000007,tacos,319,320,320.0,True,u,127225.29999995232,831.5999999046326,1669830787634,831,HRV,HRV_0032,2022-11-30 17:54:20
