trialN,stimuli,question,trialStartTime,trialStartTime_UNIX,stimulus1,rt,receivedResponse,rating,trialEndTime,trialDuration,stimulus1Loaded,exp,subjectId,date
0,"[{'imgObject': {}, 'id': 'fried eggs', 'src': '/static/foodstim60/fried eggs.jpg', 'key': 'NaN', 'origWidth': 410, 'origHeight': 410, 'width': 410, 'height': 410, 'widthPercent': 0.8, 'rescaleHeight': True, 'trialN': 0, 'loaded': True, 'loadedTime': 18066.60000014305, 'positionName': 'CENTER', 'positionCoords': [416, 144]}]",Rate how much you want to eat this food from 0 (least) to 10 (most).,18623.300000190735,1669830492977,fried eggs,4265.599999904633,True,7.88,22888.900000095367,4265.599999904633,True,HRV,HRV_0032,2022-11-30 17:49:01
1,"[{'imgObject': {}, 'id': 'corn cob', 'src': '/static/foodstim60/corn cob.jpg', 'key': 'NaN', 'origWidth': 411, 'origHeight': 411, 'width': 411, 'height': 411, 'widthPercent': 0.8, 'rescaleHeight': True, 'trialN': 1, 'loaded': True, 'loadedTime': 18076.900000095367, 'positionName': 'CENTER', 'positionCoords': [415.5, 143.5]}]",Rate how much you want to eat this food from 0 (least) to 10 (most).,22891.5,1669830497246,corn cob,829.9000000953674,True,9.92,23721.400000095367,829.9000000953674,True,HRV,HRV_0032,2022-11-30 17:49:01
2,"[{'imgObject': {}, 'id': 'omelette', 'src': '/static/foodstim60/omelette.jpg', 'key': 'NaN', 'origWidth': 410, 'origHeight': 409, 'width': 410, 'height': 409, 'widthPercent': 0.8, 'rescaleHeight': True, 'trialN': 2, 'loaded': True, 'loadedTime': 18087.300000190735, 'positionName': 'CENTER', 'positionCoords': [416, 144.5]}]",Rate how much you want to eat this food from 0 (least) to 10 (most).,23724.800000190735,1669830498079,omelette,603.6999998092651,True,7.33,24328.5,603.6999998092651,True,HRV,HRV_0032,2022-11-30 17:49:01
3,"[{'imgObject': {}, 'id': 'raspberries', 'src': '/static/foodstim60/raspberries.jpg', 'key': 'NaN', 'origWidth': 411, 'origHeight': 411, 'width': 411, 'height': 411, 'widthPercent': 0.8, 'rescaleHeight': True, 'trialN': 3, 'loaded': True, 'loadedTime': 18097, 'positionName': 'CENTER', 'positionCoords': [415.5, 143.5]}]",Rate how much you want to eat this food from 0 (least) to 10 (most).,24330.300000190735,1669830498684,raspberries,582.1999998092651,True,5.11,24912.5,582.1999998092651,True,HRV,HRV_0032,2022-11-30 17:49:01
4,"[{'imgObject': {}, 'id': 'pear', 'src': '/static/foodstim60/pear.jpg', 'key': 'NaN', 'origWidth': 411, 'origHeight': 410, 'width': 411, 'height': 410, 'widthPercent': 0.8, 'rescaleHeight': True, 'trialN': 4, 'loaded': True, 'loadedTime': 18110.800000190735, 'positionName': 'CENTER', 'positionCoords': [415.5, 144]}]",Rate how much you want to eat this food from 0 (least) to 10 (most).,24915.300000190735,1669830499270,pear,654.2999999523163,True,6.67,25569.60000014305,654.2999999523163,True,HRV,HRV_0032,2022-11-30 17:49:01
5,"[{'imgObject': {}, 'id': 'lox', 'src': '/static/foodstim60/lox.jpg', 'key': 'NaN', 'origWidth': 410, 'origHeight': 411, 'width': 410, 'height': 411, 'widthPercent': 0.8, 'rescaleHeight': True, 'trialN': 5, 'loaded': True, 'loadedTime': 18156.200000047684, 'positionName': 'CENTER', 'positionCoords': [416, 143.5]}]",Rate how much you want to eat this food from 0 (least) to 10 (most).,25571.800000190735,1669830499926,lox,476.69999980926514,True,9.38,26048.5,476.69999980926514,True,HRV,HRV_0032,2022-11-30 17:49:01
6,"[{'imgObject': {}, 'id': 'banana', 'src': '/static/foodstim60/banana.jpg', 'key': 'NaN', 'origWidth': 410, 'origHeight': 410, 'width': 410, 'height': 410, 'widthPercent': 0.8, 'rescaleHeight': True, 'trialN': 6, 'loaded': True, 'loadedTime': 18167.60000014305, 'positionName': 'CENTER', 'positionCoords': [416, 144]}]",Rate how much you want to eat this food from 0 (least) to 10 (most).,26050.5,1669830500405,banana,575.7000000476837,True,7.140000000000001,26626.200000047684,575.7000000476837,True,HRV,HRV_0032,2022-11-30 17:49:01
7,"[{'imgObject': {}, 'id': 'grilled chicken strips', 'src': '/static/foodstim60/grilled chicken strips.jpg', 'key': 'NaN', 'origWidth': 410, 'origHeight': 411, 'width': 410, 'height': 411, 'widthPercent': 0.8, 'rescaleHeight': True, 'trialN': 7, 'loaded': True, 'loadedTime': 18187.900000095367, 'positionName': 'CENTER', 'positionCoords': [416, 143.5]}]",Rate how much you want to eat this food from 0 (least) to 10 (most).,26628.900000095367,1669830500983,grilled chicken strips,619.7000000476837,True,5.33,27248.60000014305,619.7000000476837,True,HRV,HRV_0032,2022-11-30 17:49:01
8,"[{'imgObject': {}, 'id': 'kiwi', 'src': '/static/foodstim60/kiwi.jpg', 'key': 'NaN', 'origWidth': 410, 'origHeight': 410, 'width': 410, 'height': 410, 'widthPercent': 0.8, 'rescaleHeight': True, 'trialN': 8, 'loaded': True, 'loadedTime': 18204.10000014305, 'positionName': 'CENTER', 'positionCoords': [416, 144]}]",Rate how much you want to eat this food from 0 (least) to 10 (most).,27250.800000190735,1669830501605,kiwi,739.5,True,3.74,27990.300000190735,739.5,True,HRV,HRV_0032,2022-11-30 17:49:01
9,"[{'imgObject': {}, 'id': 'baked potato', 'src': '/static/foodstim60/baked potato.jpg', 'key': 'NaN', 'origWidth': 409, 'origHeight': 410, 'width': 409, 'height': 410, 'widthPercent': 0.8, 'rescaleHeight': True, 'trialN': 9, 'loaded': True, 'loadedTime': 18216.700000047684, 'positionName': 'CENTER', 'positionCoords': [416.5, 144]}]",Rate how much you want to eat this food from 0 (least) to 10 (most).,27992.0,1669830502346,baked potato,464.40000009536743,True,6.33,28456.400000095367,464.40000009536743,True,HRV,HRV_0032,2022-11-30 17:49:01
10,"[{'imgObject': {}, 'id': 'cocktailshrimp', 'src': '/static/foodstim60/cocktailshrimp.jpg', 'key': 'NaN', 'origWidth': 410, 'origHeight': 410, 'width': 410, 'height': 410, 'widthPercent': 0.8, 'rescaleHeight': True, 'trialN': 10, 'loaded': True, 'loadedTime': 18231.60000014305, 'positionName': 'CENTER', 'positionCoords': [416, 144]}]",Rate how much you want to eat this food from 0 (least) to 10 (most).,28458.60000014305,1669830502813,cocktailshrimp,558.0,True,8.38,29016.60000014305,558.0,True,HRV,HRV_0032,2022-11-30 17:49:01
11,"[{'imgObject': {}, 'id': 'ice cream sundae 002', 'src': '/static/foodstim60/ice cream sundae 002.jpg', 'key': 'NaN', 'origWidth': 409, 'origHeight': 409, 'width': 409, 'height': 409, 'widthPercent': 0.8, 'rescaleHeight': True, 'trialN': 11, 'loaded': True, 'loadedTime': 18246.10000014305, 'positionName': 'CENTER', 'positionCoords': [416.5, 144.5]}]",Rate how much you want to eat this food from 0 (least) to 10 (most).,29018.800000190735,1669830503373,ice cream sundae 002,509.89999985694885,True,6.72,29528.700000047684,509.89999985694885,True,HRV,HRV_0032,2022-11-30 17:49:01
12,"[{'imgObject': {}, 'id': 'froot loops w milk', 'src': '/static/foodstim60/froot loops w milk.jpg', 'key': 'NaN', 'origWidth': 410, 'origHeight': 410, 'width': 410, 'height': 410, 'widthPercent': 0.8, 'rescaleHeight': True, 'trialN': 12, 'loaded': True, 'loadedTime': 18263.800000190735, 'positionName': 'CENTER', 'positionCoords': [416, 144]}]",Rate how much you want to eat this food from 0 (least) to 10 (most).,29530.800000190735,1669830503885,froot loops w milk,574.5999999046326,True,3.48,30105.400000095367,574.5999999046326,True,HRV,HRV_0032,2022-11-30 17:49:01
13,"[{'imgObject': {}, 'id': 'mashed potato', 'src': '/static/foodstim60/mashed potato.jpg', 'key': 'NaN', 'origWidth': 409, 'origHeight': 409, 'width': 409, 'height': 409, 'widthPercent': 0.8, 'rescaleHeight': True, 'trialN': 13, 'loaded': True, 'loadedTime': 18277.700000047684, 'positionName': 'CENTER', 'positionCoords': [416.5, 144.5]}]",Rate how much you want to eat this food from 0 (least) to 10 (most).,30108.800000190735,1669830504463,mashed potato,595.0999999046326,True,6.61,30703.900000095367,595.0999999046326,True,HRV,HRV_0032,2022-11-30 17:49:01
14,"[{'imgObject': {}, 'id': 'blackbeanswithrice', 'src': '/static/foodstim60/blackbeanswithrice.jpg', 'key': 'NaN', 'origWidth': 410, 'origHeight': 410, 'width': 410, 'height': 410, 'widthPercent': 0.8, 'rescaleHeight': True, 'trialN': 14, 'loaded': True, 'loadedTime': 18289.700000047684, 'positionName': 'CENTER', 'positionCoords': [416, 144]}]",Rate how much you want to eat this food from 0 (least) to 10 (most).,30706.0,1669830505060,blackbeanswithrice,568.3000001907349,True,9.17,31274.300000190735,568.3000001907349,True,HRV,HRV_0032,2022-11-30 17:49:01
15,"[{'imgObject': {}, 'id': 'sushi w_condiments', 'src': '/static/foodstim60/sushi w_condiments.jpg', 'key': 'NaN', 'origWidth': 410, 'origHeight': 410, 'width': 410, 'height': 410, 'widthPercent': 0.8, 'rescaleHeight': True, 'trialN': 15, 'loaded': True, 'loadedTime': 18295.800000190735, 'positionName': 'CENTER', 'positionCoords': [416, 144]}]",Rate how much you want to eat this food from 0 (least) to 10 (most).,31276.200000047684,1669830505630,sushi w_condiments,556.2999999523163,True,6.86,31832.5,556.2999999523163,True,HRV,HRV_0032,2022-11-30 17:49:01
16,"[{'imgObject': {}, 'id': 'mango', 'src': '/static/foodstim60/mango.jpg', 'key': 'NaN', 'origWidth': 411, 'origHeight': 411, 'width': 411, 'height': 411, 'widthPercent': 0.8, 'rescaleHeight': True, 'trialN': 16, 'loaded': True, 'loadedTime': 18301.5, 'positionName': 'CENTER', 'positionCoords': [415.5, 143.5]}]",Rate how much you want to eat this food from 0 (least) to 10 (most).,31835.200000047684,1669830506189,mango,589.6000001430511,True,3.5100000000000002,32424.800000190735,589.6000001430511,True,HRV,HRV_0032,2022-11-30 17:49:01
17,"[{'imgObject': {}, 'id': 'avocado', 'src': '/static/foodstim60/avocado.jpg', 'key': 'NaN', 'origWidth': 409, 'origHeight': 409, 'width': 409, 'height': 409, 'widthPercent': 0.8, 'rescaleHeight': True, 'trialN': 17, 'loaded': True, 'loadedTime': 18306.800000190735, 'positionName': 'CENTER', 'positionCoords': [416.5, 144.5]}]",Rate how much you want to eat this food from 0 (least) to 10 (most).,32428.5,1669830506783,avocado,476.7000000476837,True,6.3500000000000005,32905.200000047684,476.7000000476837,True,HRV,HRV_0032,2022-11-30 17:49:01
18,"[{'imgObject': {}, 'id': 'chickenfingers', 'src': '/static/foodstim60/chickenfingers.jpg', 'key': 'NaN', 'origWidth': 410, 'origHeight': 410, 'width': 410, 'height': 410, 'widthPercent': 0.8, 'rescaleHeight': True, 'trialN': 18, 'loaded': True, 'loadedTime': 18312.700000047684, 'positionName': 'CENTER', 'positionCoords': [416, 144]}]",Rate how much you want to eat this food from 0 (least) to 10 (most).,32909.200000047684,1669830507263,chickenfingers,803.7000000476837,True,8.44,33712.90000009537,803.7000000476837,True,HRV,HRV_0032,2022-11-30 17:49:01
19,"[{'imgObject': {}, 'id': 'sweetpotato', 'src': '/static/foodstim60/sweetpotato.jpg', 'key': 'NaN', 'origWidth': 410, 'origHeight': 410, 'width': 410, 'height': 410, 'widthPercent': 0.8, 'rescaleHeight': True, 'trialN': 19, 'loaded': True, 'loadedTime': 18334.60000014305, 'positionName': 'CENTER', 'positionCoords': [416, 144]}]",Rate how much you want to eat this food from 0 (least) to 10 (most).,33715.800000190735,1669830508070,sweetpotato,548.8999998569489,True,7.25,34264.700000047684,548.8999998569489,True,HRV,HRV_0032,2022-11-30 17:49:01
20,"[{'imgObject': {}, 'id': 'mac & cheese', 'src': '/static/foodstim60/mac & cheese.jpg', 'key': 'NaN', 'origWidth': 410, 'origHeight': 410, 'width': 410, 'height': 410, 'widthPercent': 0.8, 'rescaleHeight': True, 'trialN': 20, 'loaded': True, 'loadedTime': 18341.800000190735, 'positionName': 'CENTER', 'positionCoords': [416, 144]}]",Rate how much you want to eat this food from 0 (least) to 10 (most).,34266.60000014305,1669830508622,mac & cheese,1574.2000000476837,True,5.8500000000000005,35840.800000190735,1574.2000000476837,True,HRV,HRV_0032,2022-11-30 17:49:01
21,"[{'imgObject': {}, 'id': 'blueberries', 'src': '/static/foodstim60/blueberries.jpg', 'key': 'NaN', 'origWidth': 411, 'origHeight': 411, 'width': 411, 'height': 411, 'widthPercent': 0.8, 'rescaleHeight': True, 'trialN': 21, 'loaded': True, 'loadedTime': 18348.60000014305, 'positionName': 'CENTER', 'positionCoords': [415.5, 143.5]}]",Rate how much you want to eat this food from 0 (least) to 10 (most).,35842.800000190735,1669830510198,blueberries,661.0999999046326,True,8.68,36503.90000009537,661.0999999046326,True,HRV,HRV_0032,2022-11-30 17:49:01
22,"[{'imgObject': {}, 'id': 'rigatoni and sauce', 'src': '/static/foodstim60/rigatoni and sauce.jpg', 'key': 'NaN', 'origWidth': 410, 'origHeight': 411, 'width': 410, 'height': 411, 'widthPercent': 0.8, 'rescaleHeight': True, 'trialN': 22, 'loaded': True, 'loadedTime': 18354.900000095367, 'positionName': 'CENTER', 'positionCoords': [416, 143.5]}]",Rate how much you want to eat this food from 0 (least) to 10 (most).,36508.90000009537,1669830510864,rigatoni and sauce,546.7999999523163,True,7.12,37055.700000047684,546.7999999523163,True,HRV,HRV_0032,2022-11-30 17:49:01
23,"[{'imgObject': {}, 'id': 'salmon', 'src': '/static/foodstim60/salmon.jpg', 'key': 'NaN', 'origWidth': 410, 'origHeight': 409, 'width': 410, 'height': 409, 'widthPercent': 0.8, 'rescaleHeight': True, 'trialN': 23, 'loaded': True, 'loadedTime': 18367.700000047684, 'positionName': 'CENTER', 'positionCoords': [416, 144.5]}]",Rate how much you want to eat this food from 0 (least) to 10 (most).,37058.10000014305,1669830511413,salmon,661.5,True,4.67,37719.60000014305,661.5,True,HRV,HRV_0032,2022-11-30 17:49:01
24,"[{'imgObject': {}, 'id': 'cheerios', 'src': '/static/foodstim60/cheerios.jpg', 'key': 'NaN', 'origWidth': 409, 'origHeight': 410, 'width': 409, 'height': 410, 'widthPercent': 0.8, 'rescaleHeight': True, 'trialN': 24, 'loaded': True, 'loadedTime': 18383.900000095367, 'positionName': 'CENTER', 'positionCoords': [416.5, 144]}]",Rate how much you want to eat this food from 0 (least) to 10 (most).,37722.90000009537,1669830512078,cheerios,581.5,True,6.9,38304.40000009537,581.5,True,HRV,HRV_0032,2022-11-30 17:49:01
25,"[{'imgObject': {}, 'id': 'chicken nuggets2', 'src': '/static/foodstim60/chicken nuggets2.jpg', 'key': 'NaN', 'origWidth': 410, 'origHeight': 409, 'width': 410, 'height': 409, 'widthPercent': 0.8, 'rescaleHeight': True, 'trialN': 25, 'loaded': True, 'loadedTime': 18394.300000190735, 'positionName': 'CENTER', 'positionCoords': [416, 144.5]}]",Rate how much you want to eat this food from 0 (least) to 10 (most).,38306.60000014305,1669830512662,chicken nuggets2,742.2000000476837,True,9.21,39048.800000190735,742.2000000476837,True,HRV,HRV_0032,2022-11-30 17:49:01
26,"[{'imgObject': {}, 'id': 'fruitsalad', 'src': '/static/foodstim60/fruitsalad.jpg', 'key': 'NaN', 'origWidth': 410, 'origHeight': 410, 'width': 410, 'height': 410, 'widthPercent': 0.8, 'rescaleHeight': True, 'trialN': 26, 'loaded': True, 'loadedTime': 18399.60000014305, 'positionName': 'CENTER', 'positionCoords': [416, 144]}]",Rate how much you want to eat this food from 0 (least) to 10 (most).,39051.700000047684,1669830513407,fruitsalad,548.2000000476837,True,7.07,39599.90000009537,548.2000000476837,True,HRV,HRV_0032,2022-11-30 17:49:01
27,"[{'imgObject': {}, 'id': 'turkeysandwich', 'src': '/static/foodstim60/turkeysandwich.jpg', 'key': 'NaN', 'origWidth': 409, 'origHeight': 409, 'width': 409, 'height': 409, 'widthPercent': 0.8, 'rescaleHeight': True, 'trialN': 27, 'loaded': True, 'loadedTime': 18405.200000047684, 'positionName': 'CENTER', 'positionCoords': [416.5, 144.5]}]",Rate how much you want to eat this food from 0 (least) to 10 (most).,39604.40000009537,1669830513959,turkeysandwich,842.2999999523163,True,4.17,40446.700000047684,842.2999999523163,True,HRV,HRV_0032,2022-11-30 17:49:01
28,"[{'imgObject': {}, 'id': 'roastedpotatoes', 'src': '/static/foodstim60/roastedpotatoes.jpg', 'key': 'NaN', 'origWidth': 409, 'origHeight': 410, 'width': 409, 'height': 410, 'widthPercent': 0.8, 'rescaleHeight': True, 'trialN': 28, 'loaded': True, 'loadedTime': 18413.5, 'positionName': 'CENTER', 'positionCoords': [416.5, 144]}]",Rate how much you want to eat this food from 0 (least) to 10 (most).,40451.10000014305,1669830514806,roastedpotatoes,565.5,True,6.86,41016.60000014305,565.5,True,HRV,HRV_0032,2022-11-30 17:49:01
29,"[{'imgObject': {}, 'id': 'bagel and cc', 'src': '/static/foodstim60/bagel and cc.jpg', 'key': 'NaN', 'origWidth': 410, 'origHeight': 410, 'width': 410, 'height': 410, 'widthPercent': 0.8, 'rescaleHeight': True, 'trialN': 29, 'loaded': True, 'loadedTime': 18418.900000095367, 'positionName': 'CENTER', 'positionCoords': [416, 144]}]",Rate how much you want to eat this food from 0 (least) to 10 (most).,41018.800000190735,1669830515374,bagel and cc,772.8999998569489,True,9.63,41791.700000047684,772.8999998569489,True,HRV,HRV_0032,2022-11-30 17:49:01
30,"[{'imgObject': {}, 'id': 'strawberries', 'src': '/static/foodstim60/strawberries.jpg', 'key': 'NaN', 'origWidth': 410, 'origHeight': 410, 'width': 410, 'height': 410, 'widthPercent': 0.8, 'rescaleHeight': True, 'trialN': 30, 'loaded': True, 'loadedTime': 18424.300000190735, 'positionName': 'CENTER', 'positionCoords': [416, 144]}]",Rate how much you want to eat this food from 0 (least) to 10 (most).,41794.90000009537,1669830516150,strawberries,581.2999999523163,True,6.2700000000000005,42376.200000047684,581.2999999523163,True,HRV,HRV_0032,2022-11-30 17:49:01
31,"[{'imgObject': {}, 'id': 'yogurt no spoon', 'src': '/static/foodstim60/yogurt no spoon.jpg', 'key': 'NaN', 'origWidth': 411, 'origHeight': 410, 'width': 411, 'height': 410, 'widthPercent': 0.8, 'rescaleHeight': True, 'trialN': 31, 'loaded': True, 'loadedTime': 18429.10000014305, 'positionName': 'CENTER', 'positionCoords': [415.5, 144]}]",Rate how much you want to eat this food from 0 (least) to 10 (most).,42379.60000014305,1669830516735,yogurt no spoon,596.8999998569489,True,3.88,42976.5,596.8999998569489,True,HRV,HRV_0032,2022-11-30 17:49:01
32,"[{'imgObject': {}, 'id': 'veggieswithdip', 'src': '/static/foodstim60/veggieswithdip.jpg', 'key': 'NaN', 'origWidth': 409, 'origHeight': 409, 'width': 409, 'height': 409, 'widthPercent': 0.8, 'rescaleHeight': True, 'trialN': 32, 'loaded': True, 'loadedTime': 18433.900000095367, 'positionName': 'CENTER', 'positionCoords': [416.5, 144.5]}]",Rate how much you want to eat this food from 0 (least) to 10 (most).,42980.0,1669830517335,veggieswithdip,595.7000000476837,True,6.3,43575.700000047684,595.7000000476837,True,HRV,HRV_0032,2022-11-30 17:49:01
33,"[{'imgObject': {}, 'id': 'hashbrowns', 'src': '/static/foodstim60/hashbrowns.jpg', 'key': 'NaN', 'origWidth': 411, 'origHeight': 410, 'width': 411, 'height': 410, 'widthPercent': 0.8, 'rescaleHeight': True, 'trialN': 33, 'loaded': True, 'loadedTime': 18440.10000014305, 'positionName': 'CENTER', 'positionCoords': [415.5, 144]}]",Rate how much you want to eat this food from 0 (least) to 10 (most).,43579.10000014305,1669830517934,hashbrowns,1173.2000000476837,True,8.47,44752.300000190735,1173.2000000476837,True,HRV,HRV_0032,2022-11-30 17:49:01
34,"[{'imgObject': {}, 'id': 'cherry tomato', 'src': '/static/foodstim60/cherry tomato.jpg', 'key': 'NaN', 'origWidth': 410, 'origHeight': 410, 'width': 410, 'height': 410, 'widthPercent': 0.8, 'rescaleHeight': True, 'trialN': 34, 'loaded': True, 'loadedTime': 18445.200000047684, 'positionName': 'CENTER', 'positionCoords': [416, 144]}]",Rate how much you want to eat this food from 0 (least) to 10 (most).,44754.800000190735,1669830519110,cherry tomato,500.89999985694885,True,5.72,45255.700000047684,500.89999985694885,True,HRV,HRV_0032,2022-11-30 17:49:01
35,"[{'imgObject': {}, 'id': 'seaweed', 'src': '/static/foodstim60/seaweed.jpg', 'key': 'NaN', 'origWidth': 410, 'origHeight': 410, 'width': 410, 'height': 410, 'widthPercent': 0.8, 'rescaleHeight': True, 'trialN': 35, 'loaded': True, 'loadedTime': 18450, 'positionName': 'CENTER', 'positionCoords': [416, 144]}]",Rate how much you want to eat this food from 0 (least) to 10 (most).,45261.0,1669830519616,seaweed,506.80000019073486,True,7.3500000000000005,45767.800000190735,506.80000019073486,True,HRV,HRV_0032,2022-11-30 17:49:01
36,"[{'imgObject': {}, 'id': 'turkey sandwich', 'src': '/static/foodstim60/turkey sandwich.jpg', 'key': 'NaN', 'origWidth': 409, 'origHeight': 409, 'width': 409, 'height': 409, 'widthPercent': 0.8, 'rescaleHeight': True, 'trialN': 36, 'loaded': True, 'loadedTime': 18455.300000190735, 'positionName': 'CENTER', 'positionCoords': [416.5, 144.5]}]",Rate how much you want to eat this food from 0 (least) to 10 (most).,45771.0,1669830520126,turkey sandwich,997.4000000953674,True,5.46,46768.40000009537,997.4000000953674,True,HRV,HRV_0032,2022-11-30 17:49:01
37,"[{'imgObject': {}, 'id': 'tacos', 'src': '/static/foodstim60/tacos.jpg', 'key': 'NaN', 'origWidth': 411, 'origHeight': 411, 'width': 411, 'height': 411, 'widthPercent': 0.8, 'rescaleHeight': True, 'trialN': 37, 'loaded': True, 'loadedTime': 18460, 'positionName': 'CENTER', 'positionCoords': [415.5, 143.5]}]",Rate how much you want to eat this food from 0 (least) to 10 (most).,46773.200000047684,1669830521128,tacos,579.1000001430511,True,7.54,47352.300000190735,579.1000001430511,True,HRV,HRV_0032,2022-11-30 17:49:01
38,"[{'imgObject': {}, 'id': 'hotdog w must', 'src': '/static/foodstim60/hotdog w must.jpg', 'key': 'NaN', 'origWidth': 409, 'origHeight': 409, 'width': 409, 'height': 409, 'widthPercent': 0.8, 'rescaleHeight': True, 'trialN': 38, 'loaded': True, 'loadedTime': 18469.200000047684, 'positionName': 'CENTER', 'positionCoords': [416.5, 144.5]}]",Rate how much you want to eat this food from 0 (least) to 10 (most).,47355.200000047684,1669830521710,hotdog w must,638.6000001430511,True,8.68,47993.800000190735,638.6000001430511,True,HRV,HRV_0032,2022-11-30 17:49:01
39,"[{'imgObject': {}, 'id': 'cherries', 'src': '/static/foodstim60/cherries.jpg', 'key': 'NaN', 'origWidth': 410, 'origHeight': 411, 'width': 410, 'height': 411, 'widthPercent': 0.8, 'rescaleHeight': True, 'trialN': 39, 'loaded': True, 'loadedTime': 18486.400000095367, 'positionName': 'CENTER', 'positionCoords': [416, 143.5]}]",Rate how much you want to eat this food from 0 (least) to 10 (most).,48000.60000014305,1669830522356,cherries,599.0999999046326,True,6.11,48599.700000047684,599.0999999046326,True,HRV,HRV_0032,2022-11-30 17:49:01
40,"[{'imgObject': {}, 'id': 'cantaloupe', 'src': '/static/foodstim60/cantaloupe.jpg', 'key': 'NaN', 'origWidth': 409, 'origHeight': 409, 'width': 409, 'height': 409, 'widthPercent': 0.8, 'rescaleHeight': True, 'trialN': 40, 'loaded': True, 'loadedTime': 18493, 'positionName': 'CENTER', 'positionCoords': [416.5, 144.5]}]",Rate how much you want to eat this food from 0 (least) to 10 (most).,48603.90000009537,1669830522959,cantaloupe,692.7000000476837,True,4.62,49296.60000014305,692.7000000476837,True,HRV,HRV_0032,2022-11-30 17:49:01
41,"[{'imgObject': {}, 'id': 'Tribe humus pita', 'src': '/static/foodstim60/Tribe humus pita.jpg', 'key': 'NaN', 'origWidth': 411, 'origHeight': 411, 'width': 411, 'height': 411, 'widthPercent': 0.8, 'rescaleHeight': True, 'trialN': 41, 'loaded': True, 'loadedTime': 18498.10000014305, 'positionName': 'CENTER', 'positionCoords': [415.5, 143.5]}]",Rate how much you want to eat this food from 0 (least) to 10 (most).,49299.800000190735,1669830523655,Tribe humus pita,517.5999999046326,True,6.94,49817.40000009537,517.5999999046326,True,HRV,HRV_0032,2022-11-30 17:49:01
42,"[{'imgObject': {}, 'id': 'steak', 'src': '/static/foodstim60/steak.jpg', 'key': 'NaN', 'origWidth': 410, 'origHeight': 410, 'width': 410, 'height': 410, 'widthPercent': 0.8, 'rescaleHeight': True, 'trialN': 42, 'loaded': True, 'loadedTime': 18502.700000047684, 'positionName': 'CENTER', 'positionCoords': [416, 144]}]",Rate how much you want to eat this food from 0 (least) to 10 (most).,49821.200000047684,1669830524176,steak,587.1000001430511,True,8.65,50408.300000190735,587.1000001430511,True,HRV,HRV_0032,2022-11-30 17:49:01
43,"[{'imgObject': {}, 'id': 'granola w milk', 'src': '/static/foodstim60/granola w milk.jpg', 'key': 'NaN', 'origWidth': 410, 'origHeight': 410, 'width': 410, 'height': 410, 'widthPercent': 0.8, 'rescaleHeight': True, 'trialN': 43, 'loaded': True, 'loadedTime': 18507.60000014305, 'positionName': 'CENTER', 'positionCoords': [416, 144]}]",Rate how much you want to eat this food from 0 (least) to 10 (most).,50411.10000014305,1669830524766,granola w milk,589.2999999523163,True,6.73,51000.40000009537,589.2999999523163,True,HRV,HRV_0032,2022-11-30 17:49:01
44,"[{'imgObject': {}, 'id': 'luckycharms', 'src': '/static/foodstim60/luckycharms.jpg', 'key': 'NaN', 'origWidth': 410, 'origHeight': 409, 'width': 410, 'height': 409, 'widthPercent': 0.8, 'rescaleHeight': True, 'trialN': 44, 'loaded': True, 'loadedTime': 18512.400000095367, 'positionName': 'CENTER', 'positionCoords': [416, 144.5]}]",Rate how much you want to eat this food from 0 (least) to 10 (most).,51002.5,1669830525357,luckycharms,597.7000000476837,True,4.29,51600.200000047684,597.7000000476837,True,HRV,HRV_0032,2022-11-30 17:49:01
45,"[{'imgObject': {}, 'id': 'bagel plain', 'src': '/static/foodstim60/bagel plain.jpg', 'key': 'NaN', 'origWidth': 410, 'origHeight': 410, 'width': 410, 'height': 410, 'widthPercent': 0.8, 'rescaleHeight': True, 'trialN': 45, 'loaded': True, 'loadedTime': 18518.5, 'positionName': 'CENTER', 'positionCoords': [416, 144]}]",Rate how much you want to eat this food from 0 (least) to 10 (most).,51602.0,1669830525957,bagel plain,678.5,True,6.93,52280.5,678.5,True,HRV,HRV_0032,2022-11-30 17:49:01
46,"[{'imgObject': {}, 'id': 'shreddedwheatwithmilk', 'src': '/static/foodstim60/shreddedwheatwithmilk.jpg', 'key': 'NaN', 'origWidth': 410, 'origHeight': 410, 'width': 410, 'height': 410, 'widthPercent': 0.8, 'rescaleHeight': True, 'trialN': 46, 'loaded': True, 'loadedTime': 18535, 'positionName': 'CENTER', 'positionCoords': [416, 144]}]",Rate how much you want to eat this food from 0 (least) to 10 (most).,52283.200000047684,1669830526638,shreddedwheatwithmilk,676.2000000476837,True,9.28,52959.40000009537,676.2000000476837,True,HRV,HRV_0032,2022-11-30 17:49:01
47,"[{'imgObject': {}, 'id': 'eggsalad', 'src': '/static/foodstim60/eggsalad.jpg', 'key': 'NaN', 'origWidth': 410, 'origHeight': 409, 'width': 410, 'height': 409, 'widthPercent': 0.8, 'rescaleHeight': True, 'trialN': 47, 'loaded': True, 'loadedTime': 18543.700000047684, 'positionName': 'CENTER', 'positionCoords': [416, 144.5]}]",Rate how much you want to eat this food from 0 (least) to 10 (most).,52961.40000009537,1669830527316,eggsalad,759.0,True,6.640000000000001,53720.40000009537,759.0,True,HRV,HRV_0032,2022-11-30 17:49:01
48,"[{'imgObject': {}, 'id': 'raisin bran w milk', 'src': '/static/foodstim60/raisin bran w milk.jpg', 'key': 'NaN', 'origWidth': 411, 'origHeight': 411, 'width': 411, 'height': 411, 'widthPercent': 0.8, 'rescaleHeight': True, 'trialN': 48, 'loaded': True, 'loadedTime': 18550.700000047684, 'positionName': 'CENTER', 'positionCoords': [415.5, 143.5]}]",Rate how much you want to eat this food from 0 (least) to 10 (most).,53723.40000009537,1669830528078,raisin bran w milk,736.0999999046326,True,3.58,54459.5,736.0999999046326,True,HRV,HRV_0032,2022-11-30 17:49:01
49,"[{'imgObject': {}, 'id': 'burger', 'src': '/static/foodstim60/burger.jpg', 'key': 'NaN', 'origWidth': 409, 'origHeight': 409, 'width': 409, 'height': 409, 'widthPercent': 0.8, 'rescaleHeight': True, 'trialN': 49, 'loaded': True, 'loadedTime': 18556.60000014305, 'positionName': 'CENTER', 'positionCoords': [416.5, 144.5]}]",Rate how much you want to eat this food from 0 (least) to 10 (most).,54461.5,1669830528816,burger,815.4000000953674,True,6.8500000000000005,55276.90000009537,815.4000000953674,True,HRV,HRV_0032,2022-11-30 17:49:01
50,"[{'imgObject': {}, 'id': 'eggs', 'src': '/static/foodstim60/eggs.jpg', 'key': 'NaN', 'origWidth': 409, 'origHeight': 409, 'width': 409, 'height': 409, 'widthPercent': 0.8, 'rescaleHeight': True, 'trialN': 50, 'loaded': True, 'loadedTime': 18562.300000190735, 'positionName': 'CENTER', 'positionCoords': [416.5, 144.5]}]",Rate how much you want to eat this food from 0 (least) to 10 (most).,55279.700000047684,1669830529635,eggs,599.9000000953674,True,8.51,55879.60000014305,599.9000000953674,True,HRV,HRV_0032,2022-11-30 17:49:01
51,"[{'imgObject': {}, 'id': 'rigatoni', 'src': '/static/foodstim60/rigatoni.jpg', 'key': 'NaN', 'origWidth': 411, 'origHeight': 411, 'width': 411, 'height': 411, 'widthPercent': 0.8, 'rescaleHeight': True, 'trialN': 51, 'loaded': True, 'loadedTime': 18567.300000190735, 'positionName': 'CENTER', 'positionCoords': [415.5, 143.5]}]",Rate how much you want to eat this food from 0 (least) to 10 (most).,55882.5,1669830530238,rigatoni,628.8000001907349,True,6.54,56511.300000190735,628.8000001907349,True,HRV,HRV_0032,2022-11-30 17:49:01
52,"[{'imgObject': {}, 'id': 'Grapes', 'src': '/static/foodstim60/Grapes.jpg', 'key': 'NaN', 'origWidth': 411, 'origHeight': 411, 'width': 411, 'height': 411, 'widthPercent': 0.8, 'rescaleHeight': True, 'trialN': 52, 'loaded': True, 'loadedTime': 18573.5, 'positionName': 'CENTER', 'positionCoords': [415.5, 143.5]}]",Rate how much you want to eat this food from 0 (least) to 10 (most).,56512.800000190735,1669830530868,Grapes,631.0,True,4.01,57143.800000190735,631.0,True,HRV,HRV_0032,2022-11-30 17:49:01
53,"[{'imgObject': {}, 'id': 'apple slices', 'src': '/static/foodstim60/apple slices.jpg', 'key': 'NaN', 'origWidth': 409, 'origHeight': 410, 'width': 409, 'height': 410, 'widthPercent': 0.8, 'rescaleHeight': True, 'trialN': 53, 'loaded': True, 'loadedTime': 18578.5, 'positionName': 'CENTER', 'positionCoords': [416.5, 144]}]",Rate how much you want to eat this food from 0 (least) to 10 (most).,57145.40000009537,1669830531500,apple slices,1495.5999999046326,True,8.52,58641.0,1495.5999999046326,True,HRV,HRV_0032,2022-11-30 17:49:01
54,"[{'imgObject': {}, 'id': 'burrito', 'src': '/static/foodstim60/burrito.jpg', 'key': 'NaN', 'origWidth': 410, 'origHeight': 410, 'width': 410, 'height': 410, 'widthPercent': 0.8, 'rescaleHeight': True, 'trialN': 54, 'loaded': True, 'loadedTime': 18583.200000047684, 'positionName': 'CENTER', 'positionCoords': [416, 144]}]",Rate how much you want to eat this food from 0 (least) to 10 (most).,58643.200000047684,1669830532998,burrito,676.9000000953674,True,6.8500000000000005,59320.10000014305,676.9000000953674,True,HRV,HRV_0032,2022-11-30 17:49:01
55,"[{'imgObject': {}, 'id': 'salad w chicken', 'src': '/static/foodstim60/salad w chicken.jpg', 'key': 'NaN', 'origWidth': 411, 'origHeight': 411, 'width': 411, 'height': 411, 'widthPercent': 0.8, 'rescaleHeight': True, 'trialN': 55, 'loaded': True, 'loadedTime': 18587.900000095367, 'positionName': 'CENTER', 'positionCoords': [415.5, 143.5]}]",Rate how much you want to eat this food from 0 (least) to 10 (most).,59323.40000009537,1669830533678,salad w chicken,636.5,True,4.82,59959.90000009537,636.5,True,HRV,HRV_0032,2022-11-30 17:49:01
56,"[{'imgObject': {}, 'id': 'orange slices', 'src': '/static/foodstim60/orange slices.jpg', 'key': 'NaN', 'origWidth': 409, 'origHeight': 410, 'width': 409, 'height': 410, 'widthPercent': 0.8, 'rescaleHeight': True, 'trialN': 56, 'loaded': True, 'loadedTime': 18593.400000095367, 'positionName': 'CENTER', 'positionCoords': [416.5, 144]}]",Rate how much you want to eat this food from 0 (least) to 10 (most).,59962.40000009537,1669830534317,orange slices,639.7999999523163,True,6.9,60602.200000047684,639.7999999523163,True,HRV,HRV_0032,2022-11-30 17:49:01
57,"[{'imgObject': {}, 'id': 'olives', 'src': '/static/foodstim60/olives.jpg', 'key': 'NaN', 'origWidth': 410, 'origHeight': 410, 'width': 410, 'height': 410, 'widthPercent': 0.8, 'rescaleHeight': True, 'trialN': 57, 'loaded': True, 'loadedTime': 18599.200000047684, 'positionName': 'CENTER', 'positionCoords': [416, 144]}]",Rate how much you want to eat this food from 0 (least) to 10 (most).,60605.90000009537,1669830534961,olives,650.2000000476837,True,8.88,61256.10000014305,650.2000000476837,True,HRV,HRV_0032,2022-11-30 17:49:01
58,"[{'imgObject': {}, 'id': 'popsicles', 'src': '/static/foodstim60/popsicles.jpg', 'key': 'NaN', 'origWidth': 410, 'origHeight': 410, 'width': 410, 'height': 410, 'widthPercent': 0.8, 'rescaleHeight': True, 'trialN': 58, 'loaded': True, 'loadedTime': 18605, 'positionName': 'CENTER', 'positionCoords': [416, 144]}]",Rate how much you want to eat this food from 0 (least) to 10 (most).,61259.10000014305,1669830535614,popsicles,652.0999999046326,True,4.51,61911.200000047684,652.0999999046326,True,HRV,HRV_0032,2022-11-30 17:49:01
59,"[{'imgObject': {}, 'id': 'edamame', 'src': '/static/foodstim60/edamame.jpg', 'key': 'NaN', 'origWidth': 409, 'origHeight': 410, 'width': 409, 'height': 410, 'widthPercent': 0.8, 'rescaleHeight': True, 'trialN': 59, 'loaded': True, 'loadedTime': 18619.5, 'positionName': 'CENTER', 'positionCoords': [416.5, 144]}]",Rate how much you want to eat this food from 0 (least) to 10 (most).,61912.800000190735,1669830536268,edamame,663.8999998569489,True,6.62,62576.700000047684,663.8999998569489,True,HRV,HRV_0032,2022-11-30 17:49:01
