trialN,stimuli,trialStartTime,trialStartTime_UNIX,stimulus1,stimulus2,stimulus1Bid,stimulus2Bid,delta,selected,rt,rt_UNIX,rt_perfnow,receivedResponse,rsp,trialEndTime,trialDuration,trialEndTime_UNIX,trialDuration_UNIX,exp,subjectId,date
0,"[{'imgObject': {}, 'id': 'orange slices', 'src': '/static/foodstim60/orange slices.jpg', 'key': 'u', 'origWidth': 409, 'origHeight': 410, 'width': 409, 'height': 410, 'widthPercent': 0.45, 'rescaleHeight': False, 'trialN': 0, 'loaded': True, 'loadedTime': 3778.600000023842, 'positionName': 'LEFT', 'positionCoords': [359, 245], 'bid': 4.88}, {'imgObject': {}, 'id': 'steak', 'src': '/static/foodstim60/steak.jpg', 'key': 'i', 'origWidth': 410, 'origHeight': 410, 'width': 410, 'height': 410, 'widthPercent': 0.45, 'rescaleHeight': False, 'trialN': 0, 'loaded': True, 'loadedTime': 3828.8000000715256, 'positionName': 'RIGHT', 'positionCoords': [832, 245], 'bid': 0.7000000000000001}]",4120.399999976158,1669833514077,orange slices,steak,4.88,0.7000000000000001,-4.18,orange slices,1381.1000000238419,1386,1385.5,True,u,6020.800000071526,1900.4000000953674,1669833515978,1901,HRV,HRV_0214,2022-11-30 18:45:40
1,"[{'imgObject': {}, 'id': 'sushi w_condiments', 'src': '/static/foodstim60/sushi w_condiments.jpg', 'key': 'u', 'origWidth': 410, 'origHeight': 410, 'width': 410, 'height': 410, 'widthPercent': 0.45, 'rescaleHeight': False, 'trialN': 1, 'loaded': True, 'loadedTime': 3837, 'positionName': 'LEFT', 'positionCoords': [358, 245], 'bid': 2.1}, {'imgObject': {}, 'id': 'tacos', 'src': '/static/foodstim60/tacos.jpg', 'key': 'i', 'origWidth': 411, 'origHeight': 411, 'width': 411, 'height': 411, 'widthPercent': 0.45, 'rescaleHeight': False, 'trialN': 1, 'loaded': True, 'loadedTime': 3846.899999976158, 'positionName': 'RIGHT', 'positionCoords': [832, 244.5], 'bid': 1.01}]",6021.200000047684,1669833515978,sushi w_condiments,tacos,2.1,1.01,-1.09,tacos,3372.1999999284744,3373,3372.6999999284744,True,i,9906.899999976158,3885.6999999284744,1669833519864,3886,HRV,HRV_0214,2022-11-30 18:45:40
2,"[{'imgObject': {}, 'id': 'chickenfingers', 'src': '/static/foodstim60/chickenfingers.jpg', 'key': 'u', 'origWidth': 410, 'origHeight': 410, 'width': 410, 'height': 410, 'widthPercent': 0.45, 'rescaleHeight': False, 'trialN': 2, 'loaded': True, 'loadedTime': 3868.100000023842, 'positionName': 'LEFT', 'positionCoords': [358, 245], 'bid': 2.75}, {'imgObject': {}, 'id': 'turkey sandwich', 'src': '/static/foodstim60/turkey sandwich.jpg', 'key': 'i', 'origWidth': 409, 'origHeight': 409, 'width': 409, 'height': 409, 'widthPercent': 0.45, 'rescaleHeight': False, 'trialN': 2, 'loaded': True, 'loadedTime': 3877.5, 'positionName': 'RIGHT', 'positionCoords': [832, 245.5], 'bid': 4.41}]",9907.300000071526,1669833519864,chickenfingers,turkey sandwich,2.75,4.41,1.6600000000000001,turkey sandwich,1461.2999999523163,1462,1461.5999999046326,True,i,11887.800000071526,1980.5,1669833521845,1981,HRV,HRV_0214,2022-11-30 18:45:40
3,"[{'imgObject': {}, 'id': 'eggs', 'src': '/static/foodstim60/eggs.jpg', 'key': 'u', 'origWidth': 409, 'origHeight': 409, 'width': 409, 'height': 409, 'widthPercent': 0.45, 'rescaleHeight': False, 'trialN': 3, 'loaded': True, 'loadedTime': 3887.5, 'positionName': 'LEFT', 'positionCoords': [359, 245.5], 'bid': 4.7700000000000005}, {'imgObject': {}, 'id': 'cherries', 'src': '/static/foodstim60/cherries.jpg', 'key': 'i', 'origWidth': 410, 'origHeight': 411, 'width': 410, 'height': 411, 'widthPercent': 0.45, 'rescaleHeight': False, 'trialN': 3, 'loaded': True, 'loadedTime': 3897.3000000715256, 'positionName': 'RIGHT', 'positionCoords': [832, 244.5], 'bid': 2.01}]",11888.200000047684,1669833521845,eggs,cherries,4.7700000000000005,2.01,-2.7600000000000007,eggs,1335.2999999523163,1336,1335.6999999284744,True,u,13736.300000071526,1848.1000000238419,1669833523693,1848,HRV,HRV_0214,2022-11-30 18:45:40
4,"[{'imgObject': {}, 'id': 'blueberries', 'src': '/static/foodstim60/blueberries.jpg', 'key': 'u', 'origWidth': 411, 'origHeight': 411, 'width': 411, 'height': 411, 'widthPercent': 0.45, 'rescaleHeight': False, 'trialN': 4, 'loaded': True, 'loadedTime': 3906.7000000476837, 'positionName': 'LEFT', 'positionCoords': [357, 244.5], 'bid': 5.08}, {'imgObject': {}, 'id': 'baked potato', 'src': '/static/foodstim60/baked potato.jpg', 'key': 'i', 'origWidth': 409, 'origHeight': 410, 'width': 409, 'height': 410, 'widthPercent': 0.45, 'rescaleHeight': False, 'trialN': 4, 'loaded': True, 'loadedTime': 3916.8000000715256, 'positionName': 'RIGHT', 'positionCoords': [832, 245], 'bid': 4.76}]",13736.800000071526,1669833523694,blueberries,baked potato,5.08,4.76,-0.3200000000000003,NaN,NaN,NaN,,False,NaN,17770.300000071526,4033.5,1669833527727,4033,HRV,HRV_0214,2022-11-30 18:45:40
5,"[{'imgObject': {}, 'id': 'lox', 'src': '/static/foodstim60/lox.jpg', 'key': 'u', 'origWidth': 410, 'origHeight': 411, 'width': 410, 'height': 411, 'widthPercent': 0.45, 'rescaleHeight': False, 'trialN': 5, 'loaded': True, 'loadedTime': 3919, 'positionName': 'LEFT', 'positionCoords': [358, 244.5], 'bid': 0.15}, {'imgObject': {}, 'id': 'popsicles', 'src': '/static/foodstim60/popsicles.jpg', 'key': 'i', 'origWidth': 410, 'origHeight': 410, 'width': 410, 'height': 410, 'widthPercent': 0.45, 'rescaleHeight': False, 'trialN': 5, 'loaded': True, 'loadedTime': 4118.899999976158, 'positionName': 'RIGHT', 'positionCoords': [832, 245], 'bid': 0.1}]",17770.5,1669833527728,lox,popsicles,0.15,0.1,-0.04999999999999999,popsicles,1893.2000000476837,1894,1894.2000000476837,True,i,20174.100000023842,2403.600000023842,1669833530131,2403,HRV,HRV_0214,2022-11-30 18:45:40
6,"[{'imgObject': {}, 'id': 'turkeysandwich', 'src': '/static/foodstim60/turkeysandwich.jpg', 'key': 'u', 'origWidth': 409, 'origHeight': 409, 'width': 409, 'height': 409, 'widthPercent': 0.45, 'rescaleHeight': False, 'trialN': 6, 'loaded': True, 'loadedTime': 3932.399999976158, 'positionName': 'LEFT', 'positionCoords': [359, 245.5], 'bid': 1.52}, {'imgObject': {}, 'id': 'fruitsalad', 'src': '/static/foodstim60/fruitsalad.jpg', 'key': 'i', 'origWidth': 410, 'origHeight': 410, 'width': 410, 'height': 410, 'widthPercent': 0.45, 'rescaleHeight': False, 'trialN': 6, 'loaded': True, 'loadedTime': 3933.600000023842, 'positionName': 'RIGHT', 'positionCoords': [832, 245], 'bid': 0.87}]",20174.700000047684,1669833530132,turkeysandwich,fruitsalad,1.52,0.87,-0.65,turkeysandwich,1610.3999999761581,1611,1611.2999999523163,True,u,22312.300000071526,2137.600000023842,1669833532269,2137,HRV,HRV_0214,2022-11-30 18:45:40
7,"[{'imgObject': {}, 'id': 'Tribe humus pita', 'src': '/static/foodstim60/Tribe humus pita.jpg', 'key': 'u', 'origWidth': 411, 'origHeight': 411, 'width': 411, 'height': 411, 'widthPercent': 0.45, 'rescaleHeight': False, 'trialN': 7, 'loaded': True, 'loadedTime': 3943.5, 'positionName': 'LEFT', 'positionCoords': [357, 244.5], 'bid': 0.11}, {'imgObject': {}, 'id': 'edamame', 'src': '/static/foodstim60/edamame.jpg', 'key': 'i', 'origWidth': 409, 'origHeight': 410, 'width': 409, 'height': 410, 'widthPercent': 0.45, 'rescaleHeight': False, 'trialN': 7, 'loaded': True, 'loadedTime': 3947.600000023842, 'positionName': 'RIGHT', 'positionCoords': [832, 245], 'bid': 0.1}]",22312.600000023842,1669833532270,Tribe humus pita,edamame,0.11,0.1,-0.009999999999999995,edamame,2037.8999999761581,2038,2038.6000000238419,True,i,24867.399999976158,2554.7999999523163,1669833534824,2554,HRV,HRV_0214,2022-11-30 18:45:40
8,"[{'imgObject': {}, 'id': 'salmon', 'src': '/static/foodstim60/salmon.jpg', 'key': 'u', 'origWidth': 410, 'origHeight': 409, 'width': 410, 'height': 409, 'widthPercent': 0.45, 'rescaleHeight': False, 'trialN': 8, 'loaded': True, 'loadedTime': 3954.3000000715256, 'positionName': 'LEFT', 'positionCoords': [358, 245.5], 'bid': 0.31}, {'imgObject': {}, 'id': 'bagel plain', 'src': '/static/foodstim60/bagel plain.jpg', 'key': 'i', 'origWidth': 410, 'origHeight': 410, 'width': 410, 'height': 410, 'widthPercent': 0.45, 'rescaleHeight': False, 'trialN': 8, 'loaded': True, 'loadedTime': 3955.3000000715256, 'positionName': 'RIGHT', 'positionCoords': [832, 245], 'bid': 1.08}]",24867.899999976158,1669833534825,salmon,bagel plain,0.31,1.08,0.77,bagel plain,1448.2000000476837,1449,1448.8000000715256,True,i,26832.700000047684,1964.8000000715256,1669833536790,1965,HRV,HRV_0214,2022-11-30 18:45:40
9,"[{'imgObject': {}, 'id': 'corn cob', 'src': '/static/foodstim60/corn cob.jpg', 'key': 'u', 'origWidth': 411, 'origHeight': 411, 'width': 411, 'height': 411, 'widthPercent': 0.45, 'rescaleHeight': False, 'trialN': 9, 'loaded': True, 'loadedTime': 3797.2000000476837, 'positionName': 'LEFT', 'positionCoords': [357, 244.5], 'bid': 4.41}, {'imgObject': {}, 'id': 'rigatoni and sauce', 'src': '/static/foodstim60/rigatoni and sauce.jpg', 'key': 'i', 'origWidth': 410, 'origHeight': 411, 'width': 410, 'height': 411, 'widthPercent': 0.45, 'rescaleHeight': False, 'trialN': 9, 'loaded': True, 'loadedTime': 3814.5, 'positionName': 'RIGHT', 'positionCoords': [832, 244.5], 'bid': 4.62}]",26833.300000071526,1669833536790,corn cob,rigatoni and sauce,4.41,4.62,0.20999999999999996,rigatoni and sauce,1283.6999999284744,1285,1284.5,True,i,28626.0,1792.6999999284744,1669833538583,1793,HRV,HRV_0214,2022-11-30 18:45:40
10,"[{'imgObject': {}, 'id': 'rigatoni and sauce', 'src': '/static/foodstim60/rigatoni and sauce.jpg', 'key': 'u', 'origWidth': 410, 'origHeight': 411, 'width': 410, 'height': 411, 'widthPercent': 0.45, 'rescaleHeight': False, 'trialN': 10, 'loaded': True, 'loadedTime': 3810.8000000715256, 'positionName': 'LEFT', 'positionCoords': [358, 244.5], 'bid': 4.62}, {'imgObject': {}, 'id': 'orange slices', 'src': '/static/foodstim60/orange slices.jpg', 'key': 'i', 'origWidth': 409, 'origHeight': 410, 'width': 409, 'height': 410, 'widthPercent': 0.45, 'rescaleHeight': False, 'trialN': 10, 'loaded': True, 'loadedTime': 3778.8000000715256, 'positionName': 'RIGHT', 'positionCoords': [832, 245], 'bid': 4.88}]",28626.5,1669833538583,rigatoni and sauce,orange slices,4.62,4.88,0.2599999999999998,rigatoni and sauce,1566.2000000476837,1567,1566.8999999761581,True,u,30706.600000023842,2080.100000023842,1669833540664,2081,HRV,HRV_0214,2022-11-30 18:45:40
11,"[{'imgObject': {}, 'id': 'cantaloupe', 'src': '/static/foodstim60/cantaloupe.jpg', 'key': 'u', 'origWidth': 409, 'origHeight': 409, 'width': 409, 'height': 409, 'widthPercent': 0.45, 'rescaleHeight': False, 'trialN': 11, 'loaded': True, 'loadedTime': 3814.8000000715256, 'positionName': 'LEFT', 'positionCoords': [359, 245.5], 'bid': 0.1}, {'imgObject': {}, 'id': 'granola w milk', 'src': '/static/foodstim60/granola w milk.jpg', 'key': 'i', 'origWidth': 410, 'origHeight': 410, 'width': 410, 'height': 410, 'widthPercent': 0.45, 'rescaleHeight': False, 'trialN': 11, 'loaded': True, 'loadedTime': 3846.5, 'positionName': 'RIGHT', 'positionCoords': [832, 245], 'bid': 0.15}]",30706.899999976158,1669833540664,cantaloupe,granola w milk,0.1,0.15,0.04999999999999999,cantaloupe,1703.5,1704,1704.4000000953674,True,u,32917.5,2210.600000023842,1669833542875,2211,HRV,HRV_0214,2022-11-30 18:45:40
12,"[{'imgObject': {}, 'id': 'corn cob', 'src': '/static/foodstim60/corn cob.jpg', 'key': 'u', 'origWidth': 411, 'origHeight': 411, 'width': 411, 'height': 411, 'widthPercent': 0.45, 'rescaleHeight': False, 'trialN': 12, 'loaded': True, 'loadedTime': 3795.899999976158, 'positionName': 'LEFT', 'positionCoords': [357, 244.5], 'bid': 4.41}, {'imgObject': {}, 'id': 'Grapes', 'src': '/static/foodstim60/Grapes.jpg', 'key': 'i', 'origWidth': 411, 'origHeight': 411, 'width': 411, 'height': 411, 'widthPercent': 0.45, 'rescaleHeight': False, 'trialN': 12, 'loaded': True, 'loadedTime': 3871.2000000476837, 'positionName': 'RIGHT', 'positionCoords': [832, 244.5], 'bid': 4.83}]",32917.89999997616,1669833542875,corn cob,Grapes,4.41,4.83,0.41999999999999993,Grapes,1077.7000000476837,1079,1078.8000000715256,True,i,34504.300000071526,1586.4000000953674,1669833544461,1586,HRV,HRV_0214,2022-11-30 18:45:40
13,"[{'imgObject': {}, 'id': 'luckycharms', 'src': '/static/foodstim60/luckycharms.jpg', 'key': 'u', 'origWidth': 410, 'origHeight': 409, 'width': 410, 'height': 409, 'widthPercent': 0.45, 'rescaleHeight': False, 'trialN': 13, 'loaded': True, 'loadedTime': 3890.5, 'positionName': 'LEFT', 'positionCoords': [358, 245.5], 'bid': 0.1}, {'imgObject': {}, 'id': 'blackbeanswithrice', 'src': '/static/foodstim60/blackbeanswithrice.jpg', 'key': 'i', 'origWidth': 410, 'origHeight': 410, 'width': 410, 'height': 410, 'widthPercent': 0.45, 'rescaleHeight': False, 'trialN': 13, 'loaded': True, 'loadedTime': 3966.5, 'positionName': 'RIGHT', 'positionCoords': [832, 245], 'bid': 1.62}]",34504.5,1669833544461,luckycharms,blackbeanswithrice,0.1,1.62,1.52,blackbeanswithrice,1646.6000000238419,1648,1647.2000000476837,True,i,36656.300000071526,2151.8000000715256,1669833546613,2152,HRV,HRV_0214,2022-11-30 18:45:40
14,"[{'imgObject': {}, 'id': 'hotdog w must', 'src': '/static/foodstim60/hotdog w must.jpg', 'key': 'u', 'origWidth': 409, 'origHeight': 409, 'width': 409, 'height': 409, 'widthPercent': 0.45, 'rescaleHeight': False, 'trialN': 14, 'loaded': True, 'loadedTime': 3973.100000023842, 'positionName': 'LEFT', 'positionCoords': [359, 245.5], 'bid': 1.03}, {'imgObject': {}, 'id': 'apple slices', 'src': '/static/foodstim60/apple slices.jpg', 'key': 'i', 'origWidth': 409, 'origHeight': 410, 'width': 409, 'height': 410, 'widthPercent': 0.45, 'rescaleHeight': False, 'trialN': 14, 'loaded': True, 'loadedTime': 3977.8000000715256, 'positionName': 'RIGHT', 'positionCoords': [832, 245], 'bid': 4.17}]",36656.60000002384,1669833546614,hotdog w must,apple slices,1.03,4.17,3.1399999999999997,hotdog w must,2271.2999999523163,2272,2272.100000023842,True,u,39441.800000071526,2785.2000000476837,1669833549399,2785,HRV,HRV_0214,2022-11-30 18:45:40
15,"[{'imgObject': {}, 'id': 'eggsalad', 'src': '/static/foodstim60/eggsalad.jpg', 'key': 'u', 'origWidth': 410, 'origHeight': 409, 'width': 410, 'height': 409, 'widthPercent': 0.45, 'rescaleHeight': False, 'trialN': 15, 'loaded': True, 'loadedTime': 3987, 'positionName': 'LEFT', 'positionCoords': [358, 245.5], 'bid': 0.12}, {'imgObject': {}, 'id': 'granola w milk', 'src': '/static/foodstim60/granola w milk.jpg', 'key': 'i', 'origWidth': 410, 'origHeight': 410, 'width': 410, 'height': 410, 'widthPercent': 0.45, 'rescaleHeight': False, 'trialN': 15, 'loaded': True, 'loadedTime': 3843.5, 'positionName': 'RIGHT', 'positionCoords': [832, 245], 'bid': 0.15}]",39442.200000047684,1669833549399,eggsalad,granola w milk,0.12,0.15,0.03,eggsalad,1932,1933,1932.6999999284744,True,u,41885.300000071526,2443.100000023842,1669833551842,2443,HRV,HRV_0214,2022-11-30 18:45:40
16,"[{'imgObject': {}, 'id': 'burrito', 'src': '/static/foodstim60/burrito.jpg', 'key': 'u', 'origWidth': 410, 'origHeight': 410, 'width': 410, 'height': 410, 'widthPercent': 0.45, 'rescaleHeight': False, 'trialN': 16, 'loaded': True, 'loadedTime': 3997.600000023842, 'positionName': 'LEFT', 'positionCoords': [358, 245], 'bid': 0.1}, {'imgObject': {}, 'id': 'turkeysandwich', 'src': '/static/foodstim60/turkeysandwich.jpg', 'key': 'i', 'origWidth': 409, 'origHeight': 409, 'width': 409, 'height': 409, 'widthPercent': 0.45, 'rescaleHeight': False, 'trialN': 16, 'loaded': True, 'loadedTime': 3924.100000023842, 'positionName': 'RIGHT', 'positionCoords': [832, 245.5], 'bid': 1.52}]",41885.700000047684,1669833551843,burrito,turkeysandwich,0.1,1.52,1.42,turkeysandwich,1032.6000000238419,1033,1033.1999999284744,True,i,43422.60000002384,1536.8999999761581,1669833553380,1537,HRV,HRV_0214,2022-11-30 18:45:40
17,"[{'imgObject': {}, 'id': 'yogurt no spoon', 'src': '/static/foodstim60/yogurt no spoon.jpg', 'key': 'u', 'origWidth': 411, 'origHeight': 410, 'width': 411, 'height': 410, 'widthPercent': 0.45, 'rescaleHeight': False, 'trialN': 17, 'loaded': True, 'loadedTime': 3999.399999976158, 'positionName': 'LEFT', 'positionCoords': [357, 245], 'bid': 0.63}, {'imgObject': {}, 'id': 'steak', 'src': '/static/foodstim60/steak.jpg', 'key': 'i', 'origWidth': 410, 'origHeight': 410, 'width': 410, 'height': 410, 'widthPercent': 0.45, 'rescaleHeight': False, 'trialN': 17, 'loaded': True, 'loadedTime': 3829.2000000476837, 'positionName': 'RIGHT', 'positionCoords': [832, 245], 'bid': 0.7000000000000001}]",43423.0,1669833553380,yogurt no spoon,steak,0.63,0.7000000000000001,0.07000000000000006,yogurt no spoon,2529,2529,2529.899999976158,True,u,46467.60000002384,3044.600000023842,1669833556424,3044,HRV,HRV_0214,2022-11-30 18:45:40
18,"[{'imgObject': {}, 'id': 'mac & cheese', 'src': '/static/foodstim60/mac & cheese.jpg', 'key': 'u', 'origWidth': 410, 'origHeight': 410, 'width': 410, 'height': 410, 'widthPercent': 0.45, 'rescaleHeight': False, 'trialN': 18, 'loaded': True, 'loadedTime': 4003, 'positionName': 'LEFT', 'positionCoords': [358, 245], 'bid': 0.37}, {'imgObject': {}, 'id': 'eggs', 'src': '/static/foodstim60/eggs.jpg', 'key': 'i', 'origWidth': 409, 'origHeight': 409, 'width': 409, 'height': 409, 'widthPercent': 0.45, 'rescaleHeight': False, 'trialN': 18, 'loaded': True, 'loadedTime': 3886.8000000715256, 'positionName': 'RIGHT', 'positionCoords': [832, 245.5], 'bid': 4.7700000000000005}]",46468.0,1669833556424,mac & cheese,eggs,0.37,4.7700000000000005,4.4,eggs,1364.2000000476837,1365,1365.1000000238419,True,i,48342.60000002384,1874.6000000238419,1669833558299,1875,HRV,HRV_0214,2022-11-30 18:45:40
19,"[{'imgObject': {}, 'id': 'veggieswithdip', 'src': '/static/foodstim60/veggieswithdip.jpg', 'key': 'u', 'origWidth': 409, 'origHeight': 409, 'width': 409, 'height': 409, 'widthPercent': 0.45, 'rescaleHeight': False, 'trialN': 19, 'loaded': True, 'loadedTime': 4005.3000000715256, 'positionName': 'LEFT', 'positionCoords': [359, 245.5], 'bid': 0.11}, {'imgObject': {}, 'id': 'popsicles', 'src': '/static/foodstim60/popsicles.jpg', 'key': 'i', 'origWidth': 410, 'origHeight': 410, 'width': 410, 'height': 410, 'widthPercent': 0.45, 'rescaleHeight': False, 'trialN': 19, 'loaded': True, 'loadedTime': 4117.800000071526, 'positionName': 'RIGHT', 'positionCoords': [832, 245], 'bid': 0.1}]",48342.89999997616,1669833558299,veggieswithdip,popsicles,0.11,0.1,-0.009999999999999995,popsicles,1676.5,1678,1677.5,True,i,50531.200000047684,2188.3000000715256,1669833560488,2189,HRV,HRV_0214,2022-11-30 18:45:40
20,"[{'imgObject': {}, 'id': 'cocktailshrimp', 'src': '/static/foodstim60/cocktailshrimp.jpg', 'key': 'u', 'origWidth': 410, 'origHeight': 410, 'width': 410, 'height': 410, 'widthPercent': 0.45, 'rescaleHeight': False, 'trialN': 20, 'loaded': True, 'loadedTime': 4009.899999976158, 'positionName': 'LEFT', 'positionCoords': [358, 245], 'bid': 3.5700000000000003}, {'imgObject': {}, 'id': 'blueberries', 'src': '/static/foodstim60/blueberries.jpg', 'key': 'i', 'origWidth': 411, 'origHeight': 411, 'width': 411, 'height': 411, 'widthPercent': 0.45, 'rescaleHeight': False, 'trialN': 20, 'loaded': True, 'loadedTime': 3898.3000000715256, 'positionName': 'RIGHT', 'positionCoords': [832, 244.5], 'bid': 5.08}]",50531.5,1669833560488,cocktailshrimp,blueberries,3.5700000000000003,5.08,1.5099999999999998,blueberries,2485.2000000476837,2486,2486.5,True,i,53533.0,3001.5,1669833563489,3001,HRV,HRV_0214,2022-11-30 18:45:40
21,"[{'imgObject': {}, 'id': 'chickenfingers', 'src': '/static/foodstim60/chickenfingers.jpg', 'key': 'u', 'origWidth': 410, 'origHeight': 410, 'width': 410, 'height': 410, 'widthPercent': 0.45, 'rescaleHeight': False, 'trialN': 21, 'loaded': True, 'loadedTime': 3865.100000023842, 'positionName': 'LEFT', 'positionCoords': [358, 245], 'bid': 2.75}, {'imgObject': {}, 'id': 'raspberries', 'src': '/static/foodstim60/raspberries.jpg', 'key': 'i', 'origWidth': 411, 'origHeight': 411, 'width': 411, 'height': 411, 'widthPercent': 0.45, 'rescaleHeight': False, 'trialN': 21, 'loaded': True, 'loadedTime': 4011.2000000476837, 'positionName': 'RIGHT', 'positionCoords': [832, 244.5], 'bid': 4.7}]",53533.200000047684,1669833563489,chickenfingers,raspberries,2.75,4.7,1.9500000000000002,chickenfingers,1788.1000000238419,1789,1788.8999999761581,True,u,55839.10000002384,2305.899999976158,1669833565795,2306,HRV,HRV_0214,2022-11-30 18:45:40
22,"[{'imgObject': {}, 'id': 'Grapes', 'src': '/static/foodstim60/Grapes.jpg', 'key': 'u', 'origWidth': 411, 'origHeight': 411, 'width': 411, 'height': 411, 'widthPercent': 0.45, 'rescaleHeight': False, 'trialN': 22, 'loaded': True, 'loadedTime': 3872.2000000476837, 'positionName': 'LEFT', 'positionCoords': [357, 244.5], 'bid': 4.83}, {'imgObject': {}, 'id': 'orange slices', 'src': '/static/foodstim60/orange slices.jpg', 'key': 'i', 'origWidth': 409, 'origHeight': 410, 'width': 409, 'height': 410, 'widthPercent': 0.45, 'rescaleHeight': False, 'trialN': 22, 'loaded': True, 'loadedTime': 3779.7000000476837, 'positionName': 'RIGHT', 'positionCoords': [832, 245], 'bid': 4.88}]",55839.200000047684,1669833565796,Grapes,orange slices,4.83,4.88,0.04999999999999982,orange slices,2508.600000023842,2509,2509.5,True,i,58864.39999997616,3025.1999999284744,1669833568821,3025,HRV,HRV_0214,2022-11-30 18:45:40
23,"[{'imgObject': {}, 'id': 'mango', 'src': '/static/foodstim60/mango.jpg', 'key': 'u', 'origWidth': 411, 'origHeight': 411, 'width': 411, 'height': 411, 'widthPercent': 0.45, 'rescaleHeight': False, 'trialN': 23, 'loaded': True, 'loadedTime': 4019.399999976158, 'positionName': 'LEFT', 'positionCoords': [357, 244.5], 'bid': 0.91}, {'imgObject': {}, 'id': 'fruitsalad', 'src': '/static/foodstim60/fruitsalad.jpg', 'key': 'i', 'origWidth': 410, 'origHeight': 410, 'width': 410, 'height': 410, 'widthPercent': 0.45, 'rescaleHeight': False, 'trialN': 23, 'loaded': True, 'loadedTime': 3943.3000000715256, 'positionName': 'RIGHT', 'positionCoords': [832, 245], 'bid': 0.87}]",58864.89999997616,1669833568821,mango,fruitsalad,0.91,0.87,-0.040000000000000036,mango,2118.2000000476837,2119,2118.600000023842,True,u,61495.800000071526,2630.9000000953674,1669833571452,2631,HRV,HRV_0214,2022-11-30 18:45:40
24,"[{'imgObject': {}, 'id': 'turkeysandwich', 'src': '/static/foodstim60/turkeysandwich.jpg', 'key': 'u', 'origWidth': 409, 'origHeight': 409, 'width': 409, 'height': 409, 'widthPercent': 0.45, 'rescaleHeight': False, 'trialN': 24, 'loaded': True, 'loadedTime': 3925.7000000476837, 'positionName': 'LEFT', 'positionCoords': [359, 245.5], 'bid': 1.52}, {'imgObject': {}, 'id': 'kiwi', 'src': '/static/foodstim60/kiwi.jpg', 'key': 'i', 'origWidth': 410, 'origHeight': 410, 'width': 410, 'height': 410, 'widthPercent': 0.45, 'rescaleHeight': False, 'trialN': 24, 'loaded': True, 'loadedTime': 4027.899999976158, 'positionName': 'RIGHT', 'positionCoords': [832, 245], 'bid': 0.35}]",61496.39999997616,1669833571453,turkeysandwich,kiwi,1.52,0.35,-1.17,turkeysandwich,1531.2000000476837,1532,1532.1000000238419,True,u,63546.200000047684,2049.8000000715256,1669833573502,2049,HRV,HRV_0214,2022-11-30 18:45:40
25,"[{'imgObject': {}, 'id': 'salmon', 'src': '/static/foodstim60/salmon.jpg', 'key': 'u', 'origWidth': 410, 'origHeight': 409, 'width': 410, 'height': 409, 'widthPercent': 0.45, 'rescaleHeight': False, 'trialN': 25, 'loaded': True, 'loadedTime': 3955.2000000476837, 'positionName': 'LEFT', 'positionCoords': [358, 245.5], 'bid': 0.31}, {'imgObject': {}, 'id': 'raspberries', 'src': '/static/foodstim60/raspberries.jpg', 'key': 'i', 'origWidth': 411, 'origHeight': 411, 'width': 411, 'height': 411, 'widthPercent': 0.45, 'rescaleHeight': False, 'trialN': 25, 'loaded': True, 'loadedTime': 4011.3000000715256, 'positionName': 'RIGHT', 'positionCoords': [832, 244.5], 'bid': 4.7}]",63546.60000002384,1669833573503,salmon,raspberries,0.31,4.7,4.390000000000001,raspberries,1570.2999999523163,1571,1571.2999999523163,True,i,65632.10000002384,2085.5,1669833575588,2085,HRV,HRV_0214,2022-11-30 18:45:40
26,"[{'imgObject': {}, 'id': 'granola w milk', 'src': '/static/foodstim60/granola w milk.jpg', 'key': 'u', 'origWidth': 410, 'origHeight': 410, 'width': 410, 'height': 410, 'widthPercent': 0.45, 'rescaleHeight': False, 'trialN': 26, 'loaded': True, 'loadedTime': 3842.3000000715256, 'positionName': 'LEFT', 'positionCoords': [358, 245], 'bid': 0.15}, {'imgObject': {}, 'id': 'seaweed', 'src': '/static/foodstim60/seaweed.jpg', 'key': 'i', 'origWidth': 410, 'origHeight': 410, 'width': 410, 'height': 410, 'widthPercent': 0.45, 'rescaleHeight': False, 'trialN': 26, 'loaded': True, 'loadedTime': 4029.5, 'positionName': 'RIGHT', 'positionCoords': [832, 245], 'bid': 0.08}]",65632.60000002384,1669833575589,granola w milk,seaweed,0.15,0.08,-0.06999999999999999,granola w milk,2036.2000000476837,2037,2037.2999999523163,True,u,68181.60000002384,2549.0,1669833578138,2549,HRV,HRV_0214,2022-11-30 18:45:40
27,"[{'imgObject': {}, 'id': 'banana', 'src': '/static/foodstim60/banana.jpg', 'key': 'u', 'origWidth': 410, 'origHeight': 410, 'width': 410, 'height': 410, 'widthPercent': 0.45, 'rescaleHeight': False, 'trialN': 27, 'loaded': True, 'loadedTime': 4038.7000000476837, 'positionName': 'LEFT', 'positionCoords': [358, 245], 'bid': 4.62}, {'imgObject': {}, 'id': 'strawberries', 'src': '/static/foodstim60/strawberries.jpg', 'key': 'i', 'origWidth': 410, 'origHeight': 410, 'width': 410, 'height': 410, 'widthPercent': 0.45, 'rescaleHeight': False, 'trialN': 27, 'loaded': True, 'loadedTime': 4039.600000023842, 'positionName': 'RIGHT', 'positionCoords': [832, 245], 'bid': 4.95}]",68182.20000004768,1669833578138,banana,strawberries,4.62,4.95,0.33000000000000007,strawberries,1486.2999999523163,1488,1487.3999999761581,True,i,70180.30000007153,1998.1000000238419,1669833580137,1999,HRV,HRV_0214,2022-11-30 18:45:40
28,"[{'imgObject': {}, 'id': 'popsicles', 'src': '/static/foodstim60/popsicles.jpg', 'key': 'u', 'origWidth': 410, 'origHeight': 410, 'width': 410, 'height': 410, 'widthPercent': 0.45, 'rescaleHeight': False, 'trialN': 28, 'loaded': True, 'loadedTime': 4119.399999976158, 'positionName': 'LEFT', 'positionCoords': [358, 245], 'bid': 0.1}, {'imgObject': {}, 'id': 'luckycharms', 'src': '/static/foodstim60/luckycharms.jpg', 'key': 'i', 'origWidth': 410, 'origHeight': 409, 'width': 410, 'height': 409, 'widthPercent': 0.45, 'rescaleHeight': False, 'trialN': 28, 'loaded': True, 'loadedTime': 3891.3000000715256, 'positionName': 'RIGHT', 'positionCoords': [832, 245.5], 'bid': 0.1}]",70180.89999997616,1669833580137,popsicles,luckycharms,0.1,0.1,0.0,luckycharms,1418.9000000953674,1420,1419.7000000476837,True,i,72113.80000007153,1932.9000000953674,1669833582070,1933,HRV,HRV_0214,2022-11-30 18:45:40
29,"[{'imgObject': {}, 'id': 'apple slices', 'src': '/static/foodstim60/apple slices.jpg', 'key': 'u', 'origWidth': 409, 'origHeight': 410, 'width': 409, 'height': 410, 'widthPercent': 0.45, 'rescaleHeight': False, 'trialN': 29, 'loaded': True, 'loadedTime': 3978, 'positionName': 'LEFT', 'positionCoords': [359, 245], 'bid': 4.17}, {'imgObject': {}, 'id': 'sushi w_condiments', 'src': '/static/foodstim60/sushi w_condiments.jpg', 'key': 'i', 'origWidth': 410, 'origHeight': 410, 'width': 410, 'height': 410, 'widthPercent': 0.45, 'rescaleHeight': False, 'trialN': 29, 'loaded': True, 'loadedTime': 3838.8000000715256, 'positionName': 'RIGHT', 'positionCoords': [832, 245], 'bid': 2.1}]",72114.20000004768,1669833582071,apple slices,sushi w_condiments,4.17,2.1,-2.07,sushi w_condiments,2106.1999999284744,2106,2106.7999999523163,True,i,74734.60000002384,2620.399999976158,1669833584691,2620,HRV,HRV_0214,2022-11-30 18:45:40
30,"[{'imgObject': {}, 'id': 'salad w chicken', 'src': '/static/foodstim60/salad w chicken.jpg', 'key': 'u', 'origWidth': 411, 'origHeight': 411, 'width': 411, 'height': 411, 'widthPercent': 0.45, 'rescaleHeight': False, 'trialN': 30, 'loaded': True, 'loadedTime': 4048.100000023842, 'positionName': 'LEFT', 'positionCoords': [357, 244.5], 'bid': 0.26}, {'imgObject': {}, 'id': 'kiwi', 'src': '/static/foodstim60/kiwi.jpg', 'key': 'i', 'origWidth': 410, 'origHeight': 410, 'width': 410, 'height': 410, 'widthPercent': 0.45, 'rescaleHeight': False, 'trialN': 30, 'loaded': True, 'loadedTime': 4020.399999976158, 'positionName': 'RIGHT', 'positionCoords': [832, 245], 'bid': 0.35}]",74735.0,1669833584691,salad w chicken,kiwi,0.26,0.35,0.08999999999999997,kiwi,1703.5,1705,1704.6000000238419,True,i,76947.39999997616,2212.399999976158,1669833586904,2213,HRV,HRV_0214,2022-11-30 18:45:40
31,"[{'imgObject': {}, 'id': 'Tribe humus pita', 'src': '/static/foodstim60/Tribe humus pita.jpg', 'key': 'u', 'origWidth': 411, 'origHeight': 411, 'width': 411, 'height': 411, 'widthPercent': 0.45, 'rescaleHeight': False, 'trialN': 31, 'loaded': True, 'loadedTime': 3945.600000023842, 'positionName': 'LEFT', 'positionCoords': [357, 244.5], 'bid': 0.11}, {'imgObject': {}, 'id': 'salmon', 'src': '/static/foodstim60/salmon.jpg', 'key': 'i', 'origWidth': 410, 'origHeight': 409, 'width': 410, 'height': 409, 'widthPercent': 0.45, 'rescaleHeight': False, 'trialN': 31, 'loaded': True, 'loadedTime': 3954.7000000476837, 'positionName': 'RIGHT', 'positionCoords': [832, 245.5], 'bid': 0.31}]",76947.5,1669833586904,Tribe humus pita,salmon,0.11,0.31,0.2,Tribe humus pita,1831.5,1832,1832.7000000476837,True,u,79294.20000004768,2346.7000000476837,1669833589250,2346,HRV,HRV_0214,2022-11-30 18:45:40
32,"[{'imgObject': {}, 'id': 'shreddedwheatwithmilk', 'src': '/static/foodstim60/shreddedwheatwithmilk.jpg', 'key': 'u', 'origWidth': 410, 'origHeight': 410, 'width': 410, 'height': 410, 'widthPercent': 0.45, 'rescaleHeight': False, 'trialN': 32, 'loaded': True, 'loadedTime': 4048.600000023842, 'positionName': 'LEFT', 'positionCoords': [358, 245], 'bid': 1.66}, {'imgObject': {}, 'id': 'turkeysandwich', 'src': '/static/foodstim60/turkeysandwich.jpg', 'key': 'i', 'origWidth': 409, 'origHeight': 409, 'width': 409, 'height': 409, 'widthPercent': 0.45, 'rescaleHeight': False, 'trialN': 32, 'loaded': True, 'loadedTime': 3932.7000000476837, 'positionName': 'RIGHT', 'positionCoords': [832, 245.5], 'bid': 1.52}]",79294.5,1669833589251,shreddedwheatwithmilk,turkeysandwich,1.66,1.52,-0.1399999999999999,turkeysandwich,1245.2000000476837,1246,1246.2000000476837,True,i,81048.60000002384,1754.1000000238419,1669833591005,1754,HRV,HRV_0214,2022-11-30 18:45:40
33,"[{'imgObject': {}, 'id': 'mac & cheese', 'src': '/static/foodstim60/mac & cheese.jpg', 'key': 'u', 'origWidth': 410, 'origHeight': 410, 'width': 410, 'height': 410, 'widthPercent': 0.45, 'rescaleHeight': False, 'trialN': 33, 'loaded': True, 'loadedTime': 4002.100000023842, 'positionName': 'LEFT', 'positionCoords': [358, 245], 'bid': 0.37}, {'imgObject': {}, 'id': 'blackbeanswithrice', 'src': '/static/foodstim60/blackbeanswithrice.jpg', 'key': 'i', 'origWidth': 410, 'origHeight': 410, 'width': 410, 'height': 410, 'widthPercent': 0.45, 'rescaleHeight': False, 'trialN': 33, 'loaded': True, 'loadedTime': 3968.899999976158, 'positionName': 'RIGHT', 'positionCoords': [832, 245], 'bid': 1.62}]",81048.80000007153,1669833591005,mac & cheese,blackbeanswithrice,0.37,1.62,1.25,blackbeanswithrice,1447.5,1449,1448.5,True,i,83015.0,1966.1999999284744,1669833592971,1966,HRV,HRV_0214,2022-11-30 18:45:40
34,"[{'imgObject': {}, 'id': 'chickenfingers', 'src': '/static/foodstim60/chickenfingers.jpg', 'key': 'u', 'origWidth': 410, 'origHeight': 410, 'width': 410, 'height': 410, 'widthPercent': 0.45, 'rescaleHeight': False, 'trialN': 34, 'loaded': True, 'loadedTime': 3867.399999976158, 'positionName': 'LEFT', 'positionCoords': [358, 245], 'bid': 2.75}, {'imgObject': {}, 'id': 'olives', 'src': '/static/foodstim60/olives.jpg', 'key': 'i', 'origWidth': 410, 'origHeight': 410, 'width': 410, 'height': 410, 'widthPercent': 0.45, 'rescaleHeight': False, 'trialN': 34, 'loaded': True, 'loadedTime': 4049.600000023842, 'positionName': 'RIGHT', 'positionCoords': [832, 245], 'bid': 0.12}]",83015.30000007153,1669833592972,chickenfingers,olives,2.75,0.12,-2.63,chickenfingers,1387.0999999046326,1388,1388.1999999284744,True,u,84913.80000007153,1898.5,1669833594870,1898,HRV,HRV_0214,2022-11-30 18:45:40
35,"[{'imgObject': {}, 'id': 'pear', 'src': '/static/foodstim60/pear.jpg', 'key': 'u', 'origWidth': 411, 'origHeight': 410, 'width': 411, 'height': 410, 'widthPercent': 0.45, 'rescaleHeight': False, 'trialN': 35, 'loaded': True, 'loadedTime': 4067, 'positionName': 'LEFT', 'positionCoords': [357, 245], 'bid': 3.95}, {'imgObject': {}, 'id': 'apple slices', 'src': '/static/foodstim60/apple slices.jpg', 'key': 'i', 'origWidth': 409, 'origHeight': 410, 'width': 409, 'height': 410, 'widthPercent': 0.45, 'rescaleHeight': False, 'trialN': 35, 'loaded': True, 'loadedTime': 3976.5, 'positionName': 'RIGHT', 'positionCoords': [832, 245], 'bid': 4.17}]",84914.30000007153,1669833594871,pear,apple slices,3.95,4.17,0.21999999999999975,pear,2019.7999999523163,2020,2020.6999999284744,True,u,87447.30000007153,2533.0,1669833597404,2533,HRV,HRV_0214,2022-11-30 18:45:40
36,"[{'imgObject': {}, 'id': 'shreddedwheatwithmilk', 'src': '/static/foodstim60/shreddedwheatwithmilk.jpg', 'key': 'u', 'origWidth': 410, 'origHeight': 410, 'width': 410, 'height': 410, 'widthPercent': 0.45, 'rescaleHeight': False, 'trialN': 36, 'loaded': True, 'loadedTime': 4049.399999976158, 'positionName': 'LEFT', 'positionCoords': [358, 245], 'bid': 1.66}, {'imgObject': {}, 'id': 'ice cream sundae 002', 'src': '/static/foodstim60/ice cream sundae 002.jpg', 'key': 'i', 'origWidth': 409, 'origHeight': 409, 'width': 409, 'height': 409, 'widthPercent': 0.45, 'rescaleHeight': False, 'trialN': 36, 'loaded': True, 'loadedTime': 4068, 'positionName': 'RIGHT', 'positionCoords': [832, 245.5], 'bid': 1.72}]",87447.70000004768,1669833597404,shreddedwheatwithmilk,ice cream sundae 002,1.66,1.72,0.06000000000000005,ice cream sundae 002,2166.6999999284744,2168,2168.0,True,i,90127.89999997616,2680.1999999284744,1669833600084,2680,HRV,HRV_0214,2022-11-30 18:45:40
37,"[{'imgObject': {}, 'id': 'raisin bran w milk', 'src': '/static/foodstim60/raisin bran w milk.jpg', 'key': 'u', 'origWidth': 411, 'origHeight': 411, 'width': 411, 'height': 411, 'widthPercent': 0.45, 'rescaleHeight': False, 'trialN': 37, 'loaded': True, 'loadedTime': 4069.399999976158, 'positionName': 'LEFT', 'positionCoords': [357, 244.5], 'bid': 0.11}, {'imgObject': {}, 'id': 'yogurt no spoon', 'src': '/static/foodstim60/yogurt no spoon.jpg', 'key': 'i', 'origWidth': 411, 'origHeight': 410, 'width': 411, 'height': 410, 'widthPercent': 0.45, 'rescaleHeight': False, 'trialN': 37, 'loaded': True, 'loadedTime': 3999.2000000476837, 'positionName': 'RIGHT', 'positionCoords': [832, 245], 'bid': 0.63}]",90128.10000002384,1669833600084,raisin bran w milk,yogurt no spoon,0.11,0.63,0.52,yogurt no spoon,1207.6000000238419,1209,1208.6000000238419,True,i,91846.20000004768,1718.1000000238419,1669833601803,1719,HRV,HRV_0214,2022-11-30 18:45:40
38,"[{'imgObject': {}, 'id': 'fried eggs', 'src': '/static/foodstim60/fried eggs.jpg', 'key': 'u', 'origWidth': 410, 'origHeight': 410, 'width': 410, 'height': 410, 'widthPercent': 0.45, 'rescaleHeight': False, 'trialN': 38, 'loaded': True, 'loadedTime': 4070.7000000476837, 'positionName': 'LEFT', 'positionCoords': [358, 245], 'bid': 5.21}, {'imgObject': {}, 'id': 'rigatoni and sauce', 'src': '/static/foodstim60/rigatoni and sauce.jpg', 'key': 'i', 'origWidth': 410, 'origHeight': 411, 'width': 410, 'height': 411, 'widthPercent': 0.45, 'rescaleHeight': False, 'trialN': 38, 'loaded': True, 'loadedTime': 3813.7000000476837, 'positionName': 'RIGHT', 'positionCoords': [832, 244.5], 'bid': 4.62}]",91846.60000002384,1669833601803,fried eggs,rigatoni and sauce,5.21,4.62,-0.5899999999999999,rigatoni and sauce,2304.7000000476837,2305,2305.600000023842,True,i,94667.89999997616,2821.2999999523163,1669833604624,2821,HRV,HRV_0214,2022-11-30 18:45:40
39,"[{'imgObject': {}, 'id': 'Grapes', 'src': '/static/foodstim60/Grapes.jpg', 'key': 'u', 'origWidth': 411, 'origHeight': 411, 'width': 411, 'height': 411, 'widthPercent': 0.45, 'rescaleHeight': False, 'trialN': 39, 'loaded': True, 'loadedTime': 3868.8000000715256, 'positionName': 'LEFT', 'positionCoords': [357, 244.5], 'bid': 4.83}, {'imgObject': {}, 'id': 'sushi w_condiments', 'src': '/static/foodstim60/sushi w_condiments.jpg', 'key': 'i', 'origWidth': 410, 'origHeight': 410, 'width': 410, 'height': 410, 'widthPercent': 0.45, 'rescaleHeight': False, 'trialN': 39, 'loaded': True, 'loadedTime': 3840, 'positionName': 'RIGHT', 'positionCoords': [832, 245], 'bid': 2.1}]",94668.30000007153,1669833604625,Grapes,sushi w_condiments,4.83,2.1,-2.73,sushi w_condiments,2553.1999999284744,2553,2553.5,True,i,97727.70000004768,3059.399999976158,1669833607684,3059,HRV,HRV_0214,2022-11-30 18:45:40
40,"[{'imgObject': {}, 'id': 'omelette', 'src': '/static/foodstim60/omelette.jpg', 'key': 'u', 'origWidth': 410, 'origHeight': 409, 'width': 410, 'height': 409, 'widthPercent': 0.45, 'rescaleHeight': False, 'trialN': 40, 'loaded': True, 'loadedTime': 4079.5, 'positionName': 'LEFT', 'positionCoords': [358, 245.5], 'bid': 0.12}, {'imgObject': {}, 'id': 'eggsalad', 'src': '/static/foodstim60/eggsalad.jpg', 'key': 'i', 'origWidth': 410, 'origHeight': 409, 'width': 410, 'height': 409, 'widthPercent': 0.45, 'rescaleHeight': False, 'trialN': 40, 'loaded': True, 'loadedTime': 3978, 'positionName': 'RIGHT', 'positionCoords': [832, 245.5], 'bid': 0.12}]",97728.0,1669833607684,omelette,eggsalad,0.12,0.12,0.0,omelette,2086.600000023842,2088,2087.600000023842,True,u,100319.39999997616,2591.399999976158,1669833610276,2592,HRV,HRV_0214,2022-11-30 18:45:40
41,"[{'imgObject': {}, 'id': 'corn cob', 'src': '/static/foodstim60/corn cob.jpg', 'key': 'u', 'origWidth': 411, 'origHeight': 411, 'width': 411, 'height': 411, 'widthPercent': 0.45, 'rescaleHeight': False, 'trialN': 41, 'loaded': True, 'loadedTime': 3810.399999976158, 'positionName': 'LEFT', 'positionCoords': [357, 244.5], 'bid': 4.41}, {'imgObject': {}, 'id': 'banana', 'src': '/static/foodstim60/banana.jpg', 'key': 'i', 'origWidth': 410, 'origHeight': 410, 'width': 410, 'height': 410, 'widthPercent': 0.45, 'rescaleHeight': False, 'trialN': 41, 'loaded': True, 'loadedTime': 4038.3000000715256, 'positionName': 'RIGHT', 'positionCoords': [832, 245], 'bid': 4.62}]",100319.89999997616,1669833610276,corn cob,banana,4.41,4.62,0.20999999999999996,banana,1545.4000000953674,1547,1546.3000000715256,True,i,102383.60000002384,2063.7000000476837,1669833612340,2064,HRV,HRV_0214,2022-11-30 18:45:40
42,"[{'imgObject': {}, 'id': 'fruitsalad', 'src': '/static/foodstim60/fruitsalad.jpg', 'key': 'u', 'origWidth': 410, 'origHeight': 410, 'width': 410, 'height': 410, 'widthPercent': 0.45, 'rescaleHeight': False, 'trialN': 42, 'loaded': True, 'loadedTime': 3933.7000000476837, 'positionName': 'LEFT', 'positionCoords': [358, 245], 'bid': 0.87}, {'imgObject': {}, 'id': 'strawberries', 'src': '/static/foodstim60/strawberries.jpg', 'key': 'i', 'origWidth': 410, 'origHeight': 410, 'width': 410, 'height': 410, 'widthPercent': 0.45, 'rescaleHeight': False, 'trialN': 42, 'loaded': True, 'loadedTime': 4047, 'positionName': 'RIGHT', 'positionCoords': [832, 245], 'bid': 4.95}]",102383.70000004768,1669833612340,fruitsalad,strawberries,0.87,4.95,4.08,strawberries,1012.6000000238419,1014,1013.6000000238419,True,i,103909.30000007153,1525.6000000238419,1669833613866,1526,HRV,HRV_0214,2022-11-30 18:45:40
43,"[{'imgObject': {}, 'id': 'bagel and cc', 'src': '/static/foodstim60/bagel and cc.jpg', 'key': 'u', 'origWidth': 410, 'origHeight': 410, 'width': 410, 'height': 410, 'widthPercent': 0.45, 'rescaleHeight': False, 'trialN': 43, 'loaded': True, 'loadedTime': 4080.600000023842, 'positionName': 'LEFT', 'positionCoords': [358, 245], 'bid': 0.91}, {'imgObject': {}, 'id': 'cherries', 'src': '/static/foodstim60/cherries.jpg', 'key': 'i', 'origWidth': 410, 'origHeight': 411, 'width': 410, 'height': 411, 'widthPercent': 0.45, 'rescaleHeight': False, 'trialN': 43, 'loaded': True, 'loadedTime': 3896.5, 'positionName': 'RIGHT', 'positionCoords': [832, 244.5], 'bid': 2.01}]",103909.70000004768,1669833613866,bagel and cc,cherries,0.91,2.01,1.0999999999999996,cherries,2357.1999999284744,2358,2357.5,True,i,106778.10000002384,2868.399999976158,1669833616735,2869,HRV,HRV_0214,2022-11-30 18:45:40
44,"[{'imgObject': {}, 'id': 'cherry tomato', 'src': '/static/foodstim60/cherry tomato.jpg', 'key': 'u', 'origWidth': 410, 'origHeight': 410, 'width': 410, 'height': 410, 'widthPercent': 0.45, 'rescaleHeight': False, 'trialN': 44, 'loaded': True, 'loadedTime': 4088, 'positionName': 'LEFT', 'positionCoords': [358, 245], 'bid': 0.2}, {'imgObject': {}, 'id': 'omelette', 'src': '/static/foodstim60/omelette.jpg', 'key': 'i', 'origWidth': 410, 'origHeight': 409, 'width': 410, 'height': 409, 'widthPercent': 0.45, 'rescaleHeight': False, 'trialN': 44, 'loaded': True, 'loadedTime': 4078.3000000715256, 'positionName': 'RIGHT', 'positionCoords': [832, 245.5], 'bid': 0.12}]",106778.39999997616,1669833616735,cherry tomato,omelette,0.2,0.12,-0.08000000000000002,cherry tomato,1906.8000000715256,1908,1907.7000000476837,True,u,109195.0,2416.600000023842,1669833619152,2417,HRV,HRV_0214,2022-11-30 18:45:40
45,"[{'imgObject': {}, 'id': 'lox', 'src': '/static/foodstim60/lox.jpg', 'key': 'u', 'origWidth': 410, 'origHeight': 411, 'width': 410, 'height': 411, 'widthPercent': 0.45, 'rescaleHeight': False, 'trialN': 45, 'loaded': True, 'loadedTime': 3919.899999976158, 'positionName': 'LEFT', 'positionCoords': [358, 244.5], 'bid': 0.15}, {'imgObject': {}, 'id': 'cheerios', 'src': '/static/foodstim60/cheerios.jpg', 'key': 'i', 'origWidth': 409, 'origHeight': 410, 'width': 409, 'height': 410, 'widthPercent': 0.45, 'rescaleHeight': False, 'trialN': 45, 'loaded': True, 'loadedTime': 4088.899999976158, 'positionName': 'RIGHT', 'positionCoords': [832, 245], 'bid': 4.23}]",109195.30000007153,1669833619152,lox,cheerios,0.15,4.23,4.08,cheerios,989.5,991,990.5,True,i,110698.10000002384,1502.7999999523163,1669833620655,1503,HRV,HRV_0214,2022-11-30 18:45:40
46,"[{'imgObject': {}, 'id': 'grilled chicken strips', 'src': '/static/foodstim60/grilled chicken strips.jpg', 'key': 'u', 'origWidth': 410, 'origHeight': 411, 'width': 410, 'height': 411, 'widthPercent': 0.45, 'rescaleHeight': False, 'trialN': 46, 'loaded': True, 'loadedTime': 4097.100000023842, 'positionName': 'LEFT', 'positionCoords': [358, 244.5], 'bid': 1.72}, {'imgObject': {}, 'id': 'fruitsalad', 'src': '/static/foodstim60/fruitsalad.jpg', 'key': 'i', 'origWidth': 410, 'origHeight': 410, 'width': 410, 'height': 410, 'widthPercent': 0.45, 'rescaleHeight': False, 'trialN': 46, 'loaded': True, 'loadedTime': 3932.899999976158, 'positionName': 'RIGHT', 'positionCoords': [832, 245], 'bid': 0.87}]",110698.5,1669833620656,grilled chicken strips,fruitsalad,1.72,0.87,-0.85,grilled chicken strips,1157.7000000476837,1158,1158.7000000476837,True,u,112379.89999997616,1681.3999999761581,1669833622337,1681,HRV,HRV_0214,2022-11-30 18:45:40
47,"[{'imgObject': {}, 'id': 'cherry tomato', 'src': '/static/foodstim60/cherry tomato.jpg', 'key': 'u', 'origWidth': 410, 'origHeight': 410, 'width': 410, 'height': 410, 'widthPercent': 0.45, 'rescaleHeight': False, 'trialN': 47, 'loaded': True, 'loadedTime': 4087.600000023842, 'positionName': 'LEFT', 'positionCoords': [358, 245], 'bid': 0.2}, {'imgObject': {}, 'id': 'luckycharms', 'src': '/static/foodstim60/luckycharms.jpg', 'key': 'i', 'origWidth': 410, 'origHeight': 409, 'width': 410, 'height': 409, 'widthPercent': 0.45, 'rescaleHeight': False, 'trialN': 47, 'loaded': True, 'loadedTime': 3891.899999976158, 'positionName': 'RIGHT', 'positionCoords': [832, 245.5], 'bid': 0.1}]",112380.10000002384,1669833622337,cherry tomato,luckycharms,0.2,0.1,-0.1,luckycharms,1782.2000000476837,1783,1783.1000000238419,True,i,114683.80000007153,2303.7000000476837,1669833624641,2304,HRV,HRV_0214,2022-11-30 18:45:40
48,"[{'imgObject': {}, 'id': 'mango', 'src': '/static/foodstim60/mango.jpg', 'key': 'u', 'origWidth': 411, 'origHeight': 411, 'width': 411, 'height': 411, 'widthPercent': 0.45, 'rescaleHeight': False, 'trialN': 48, 'loaded': True, 'loadedTime': 4019.100000023842, 'positionName': 'LEFT', 'positionCoords': [357, 244.5], 'bid': 0.91}, {'imgObject': {}, 'id': 'burger', 'src': '/static/foodstim60/burger.jpg', 'key': 'i', 'origWidth': 409, 'origHeight': 409, 'width': 409, 'height': 409, 'widthPercent': 0.45, 'rescaleHeight': False, 'trialN': 48, 'loaded': True, 'loadedTime': 4098.600000023842, 'positionName': 'RIGHT', 'positionCoords': [832, 245.5], 'bid': 4.97}]",114684.10000002384,1669833624641,mango,burger,0.91,4.97,4.06,burger,1365.1000000238419,1366,1366.1000000238419,True,i,116570.80000007153,1886.7000000476837,1669833626528,1887,HRV,HRV_0214,2022-11-30 18:45:40
49,"[{'imgObject': {}, 'id': 'hotdog w must', 'src': '/static/foodstim60/hotdog w must.jpg', 'key': 'u', 'origWidth': 409, 'origHeight': 409, 'width': 409, 'height': 409, 'widthPercent': 0.45, 'rescaleHeight': False, 'trialN': 49, 'loaded': True, 'loadedTime': 3970.600000023842, 'positionName': 'LEFT', 'positionCoords': [359, 245.5], 'bid': 1.03}, {'imgObject': {}, 'id': 'salad w chicken', 'src': '/static/foodstim60/salad w chicken.jpg', 'key': 'i', 'origWidth': 411, 'origHeight': 411, 'width': 411, 'height': 411, 'widthPercent': 0.45, 'rescaleHeight': False, 'trialN': 49, 'loaded': True, 'loadedTime': 4047.100000023842, 'positionName': 'RIGHT', 'positionCoords': [832, 244.5], 'bid': 0.26}]",116570.89999997616,1669833626528,hotdog w must,salad w chicken,1.03,0.26,-0.77,hotdog w must,1254.7000000476837,1256,1255.6000000238419,True,u,118349.20000004768,1778.3000000715256,1669833628306,1778,HRV,HRV_0214,2022-11-30 18:45:40
50,"[{'imgObject': {}, 'id': 'mashed potato', 'src': '/static/foodstim60/mashed potato.jpg', 'key': 'u', 'origWidth': 409, 'origHeight': 409, 'width': 409, 'height': 409, 'widthPercent': 0.45, 'rescaleHeight': False, 'trialN': 50, 'loaded': True, 'loadedTime': 4098.899999976158, 'positionName': 'LEFT', 'positionCoords': [359, 245.5], 'bid': 0.12}, {'imgObject': {}, 'id': 'edamame', 'src': '/static/foodstim60/edamame.jpg', 'key': 'i', 'origWidth': 409, 'origHeight': 410, 'width': 409, 'height': 410, 'widthPercent': 0.45, 'rescaleHeight': False, 'trialN': 50, 'loaded': True, 'loadedTime': 3948.600000023842, 'positionName': 'RIGHT', 'positionCoords': [832, 245], 'bid': 0.1}]",118349.5,1669833628307,mashed potato,edamame,0.12,0.1,-0.01999999999999999,mashed potato,2362.7000000476837,2363,2363.600000023842,True,u,121228.30000007153,2878.8000000715256,1669833631185,2878,HRV,HRV_0214,2022-11-30 18:45:40
51,"[{'imgObject': {}, 'id': 'orange slices', 'src': '/static/foodstim60/orange slices.jpg', 'key': 'u', 'origWidth': 409, 'origHeight': 410, 'width': 409, 'height': 410, 'widthPercent': 0.45, 'rescaleHeight': False, 'trialN': 51, 'loaded': True, 'loadedTime': 3779.100000023842, 'positionName': 'LEFT', 'positionCoords': [359, 245], 'bid': 4.88}, {'imgObject': {}, 'id': 'eggs', 'src': '/static/foodstim60/eggs.jpg', 'key': 'i', 'origWidth': 409, 'origHeight': 409, 'width': 409, 'height': 409, 'widthPercent': 0.45, 'rescaleHeight': False, 'trialN': 51, 'loaded': True, 'loadedTime': 3887.899999976158, 'positionName': 'RIGHT', 'positionCoords': [832, 245.5], 'bid': 4.7700000000000005}]",121228.60000002384,1669833631186,orange slices,eggs,4.88,4.7700000000000005,-0.10999999999999943,eggs,2549.2000000476837,2550,2550.2000000476837,True,i,124299.80000007153,3071.2000000476837,1669833634257,3071,HRV,HRV_0214,2022-11-30 18:45:40
52,"[{'imgObject': {}, 'id': 'olives', 'src': '/static/foodstim60/olives.jpg', 'key': 'u', 'origWidth': 410, 'origHeight': 410, 'width': 410, 'height': 410, 'widthPercent': 0.45, 'rescaleHeight': False, 'trialN': 52, 'loaded': True, 'loadedTime': 4056.7000000476837, 'positionName': 'LEFT', 'positionCoords': [358, 245], 'bid': 0.12}, {'imgObject': {}, 'id': 'fruitsalad', 'src': '/static/foodstim60/fruitsalad.jpg', 'key': 'i', 'origWidth': 410, 'origHeight': 410, 'width': 410, 'height': 410, 'widthPercent': 0.45, 'rescaleHeight': False, 'trialN': 52, 'loaded': True, 'loadedTime': 3941.100000023842, 'positionName': 'RIGHT', 'positionCoords': [832, 245], 'bid': 0.87}]",124300.10000002384,1669833634257,olives,fruitsalad,0.12,0.87,0.75,fruitsalad,2564.2000000476837,2565,2565.2000000476837,True,i,127388.5,3088.399999976158,1669833637346,3089,HRV,HRV_0214,2022-11-30 18:45:40
53,"[{'imgObject': {}, 'id': 'rigatoni and sauce', 'src': '/static/foodstim60/rigatoni and sauce.jpg', 'key': 'u', 'origWidth': 410, 'origHeight': 411, 'width': 410, 'height': 411, 'widthPercent': 0.45, 'rescaleHeight': False, 'trialN': 53, 'loaded': True, 'loadedTime': 3812.899999976158, 'positionName': 'LEFT', 'positionCoords': [358, 244.5], 'bid': 4.62}, {'imgObject': {}, 'id': 'raspberries', 'src': '/static/foodstim60/raspberries.jpg', 'key': 'i', 'origWidth': 411, 'origHeight': 411, 'width': 411, 'height': 411, 'widthPercent': 0.45, 'rescaleHeight': False, 'trialN': 53, 'loaded': True, 'loadedTime': 4011.2000000476837, 'positionName': 'RIGHT', 'positionCoords': [832, 244.5], 'bid': 4.7}]",127388.80000007153,1669833637346,rigatoni and sauce,raspberries,4.62,4.7,0.08000000000000007,rigatoni and sauce,2417.0999999046326,2418,2418.0,True,u,130316.20000004768,2927.399999976158,1669833640273,2927,HRV,HRV_0214,2022-11-30 18:45:40
54,"[{'imgObject': {}, 'id': 'cherries', 'src': '/static/foodstim60/cherries.jpg', 'key': 'u', 'origWidth': 410, 'origHeight': 411, 'width': 410, 'height': 411, 'widthPercent': 0.45, 'rescaleHeight': False, 'trialN': 54, 'loaded': True, 'loadedTime': 3896.899999976158, 'positionName': 'LEFT', 'positionCoords': [358, 244.5], 'bid': 2.01}, {'imgObject': {}, 'id': 'sweetpotato', 'src': '/static/foodstim60/sweetpotato.jpg', 'key': 'i', 'origWidth': 410, 'origHeight': 410, 'width': 410, 'height': 410, 'widthPercent': 0.45, 'rescaleHeight': False, 'trialN': 54, 'loaded': True, 'loadedTime': 4101.200000047684, 'positionName': 'RIGHT', 'positionCoords': [832, 245], 'bid': 0.11}]",130316.70000004768,1669833640274,cherries,sweetpotato,2.01,0.11,-1.8999999999999997,cherries,1372.1000000238419,1373,1373.2999999523163,True,u,132198.5,1881.7999999523163,1669833642156,1882,HRV,HRV_0214,2022-11-30 18:45:40
55,"[{'imgObject': {}, 'id': 'edamame', 'src': '/static/foodstim60/edamame.jpg', 'key': 'u', 'origWidth': 409, 'origHeight': 410, 'width': 409, 'height': 410, 'widthPercent': 0.45, 'rescaleHeight': False, 'trialN': 55, 'loaded': True, 'loadedTime': 3949.600000023842, 'positionName': 'LEFT', 'positionCoords': [359, 245], 'bid': 0.1}, {'imgObject': {}, 'id': 'avocado', 'src': '/static/foodstim60/avocado.jpg', 'key': 'i', 'origWidth': 409, 'origHeight': 409, 'width': 409, 'height': 409, 'widthPercent': 0.45, 'rescaleHeight': False, 'trialN': 55, 'loaded': True, 'loadedTime': 4102.5, 'positionName': 'RIGHT', 'positionCoords': [832, 245.5], 'bid': 0.22}]",132199.10000002384,1669833642156,edamame,avocado,0.1,0.22,0.12,avocado,1878.1000000238419,1879,1878.5,True,i,134584.20000004768,2385.100000023842,1669833644541,2385,HRV,HRV_0214,2022-11-30 18:45:40
56,"[{'imgObject': {}, 'id': 'granola w milk', 'src': '/static/foodstim60/granola w milk.jpg', 'key': 'u', 'origWidth': 410, 'origHeight': 410, 'width': 410, 'height': 410, 'widthPercent': 0.45, 'rescaleHeight': False, 'trialN': 56, 'loaded': True, 'loadedTime': 3843.899999976158, 'positionName': 'LEFT', 'positionCoords': [358, 245], 'bid': 0.15}, {'imgObject': {}, 'id': 'hashbrowns', 'src': '/static/foodstim60/hashbrowns.jpg', 'key': 'i', 'origWidth': 411, 'origHeight': 410, 'width': 411, 'height': 410, 'widthPercent': 0.45, 'rescaleHeight': False, 'trialN': 56, 'loaded': True, 'loadedTime': 4110.600000023842, 'positionName': 'RIGHT', 'positionCoords': [832, 245], 'bid': 0.13}]",134584.5,1669833644542,granola w milk,hashbrowns,0.15,0.13,-0.01999999999999999,granola w milk,1814.8999999761581,1815,1816.0,True,u,136904.0,2319.5,1669833646861,2319,HRV,HRV_0214,2022-11-30 18:45:40
57,"[{'imgObject': {}, 'id': 'cherry tomato', 'src': '/static/foodstim60/cherry tomato.jpg', 'key': 'u', 'origWidth': 410, 'origHeight': 410, 'width': 410, 'height': 410, 'widthPercent': 0.45, 'rescaleHeight': False, 'trialN': 57, 'loaded': True, 'loadedTime': 4080.8000000715256, 'positionName': 'LEFT', 'positionCoords': [358, 245], 'bid': 0.2}, {'imgObject': {}, 'id': 'avocado', 'src': '/static/foodstim60/avocado.jpg', 'key': 'i', 'origWidth': 409, 'origHeight': 409, 'width': 409, 'height': 409, 'widthPercent': 0.45, 'rescaleHeight': False, 'trialN': 57, 'loaded': True, 'loadedTime': 4102.399999976158, 'positionName': 'RIGHT', 'positionCoords': [832, 245.5], 'bid': 0.22}]",136904.39999997616,1669833646861,cherry tomato,avocado,0.2,0.22,0.01999999999999999,avocado,1592.8000000715256,1594,1593.8000000715256,True,i,139006.80000007153,2102.4000000953674,1669833648964,2103,HRV,HRV_0214,2022-11-30 18:45:40
58,"[{'imgObject': {}, 'id': 'hashbrowns', 'src': '/static/foodstim60/hashbrowns.jpg', 'key': 'u', 'origWidth': 411, 'origHeight': 410, 'width': 411, 'height': 410, 'widthPercent': 0.45, 'rescaleHeight': False, 'trialN': 58, 'loaded': True, 'loadedTime': 4110.700000047684, 'positionName': 'LEFT', 'positionCoords': [357, 245], 'bid': 0.13}, {'imgObject': {}, 'id': 'pear', 'src': '/static/foodstim60/pear.jpg', 'key': 'i', 'origWidth': 411, 'origHeight': 410, 'width': 411, 'height': 410, 'widthPercent': 0.45, 'rescaleHeight': False, 'trialN': 58, 'loaded': True, 'loadedTime': 4057.600000023842, 'positionName': 'RIGHT', 'positionCoords': [832, 245], 'bid': 3.95}]",139007.20000004768,1669833648964,hashbrowns,pear,0.13,3.95,3.8200000000000003,pear,1369.6000000238419,1371,1370.5,True,i,140891.5,1884.2999999523163,1669833650849,1885,HRV,HRV_0214,2022-11-30 18:45:40
59,"[{'imgObject': {}, 'id': 'popsicles', 'src': '/static/foodstim60/popsicles.jpg', 'key': 'u', 'origWidth': 410, 'origHeight': 410, 'width': 410, 'height': 410, 'widthPercent': 0.45, 'rescaleHeight': False, 'trialN': 59, 'loaded': True, 'loadedTime': 4119.100000023842, 'positionName': 'LEFT', 'positionCoords': [358, 245], 'bid': 0.1}, {'imgObject': {}, 'id': 'seaweed', 'src': '/static/foodstim60/seaweed.jpg', 'key': 'i', 'origWidth': 410, 'origHeight': 410, 'width': 410, 'height': 410, 'widthPercent': 0.45, 'rescaleHeight': False, 'trialN': 59, 'loaded': True, 'loadedTime': 4029.3000000715256, 'positionName': 'RIGHT', 'positionCoords': [832, 245], 'bid': 0.08}]",140891.89999997616,1669833650849,popsicles,seaweed,0.1,0.08,-0.020000000000000004,popsicles,1801.5,1802,1802.5,True,u,143203.5,2311.600000023842,1669833653161,2312,HRV,HRV_0214,2022-11-30 18:45:40
60,"[{'imgObject': {}, 'id': 'mango', 'src': '/static/foodstim60/mango.jpg', 'key': 'u', 'origWidth': 411, 'origHeight': 411, 'width': 411, 'height': 411, 'widthPercent': 0.45, 'rescaleHeight': False, 'trialN': 60, 'loaded': True, 'loadedTime': 4019.7000000476837, 'positionName': 'LEFT', 'positionCoords': [357, 244.5], 'bid': 0.91}, {'imgObject': {}, 'id': 'steak', 'src': '/static/foodstim60/steak.jpg', 'key': 'i', 'origWidth': 410, 'origHeight': 410, 'width': 410, 'height': 410, 'widthPercent': 0.45, 'rescaleHeight': False, 'trialN': 60, 'loaded': True, 'loadedTime': 3821.2000000476837, 'positionName': 'RIGHT', 'positionCoords': [832, 245], 'bid': 0.7000000000000001}]",143203.70000004768,1669833653161,mango,steak,0.91,0.7000000000000001,-0.20999999999999996,mango,1826,1827,1827.1000000238419,True,u,145536.10000002384,2332.399999976158,1669833655493,2332,HRV,HRV_0214,2022-11-30 18:45:40
61,"[{'imgObject': {}, 'id': 'hotdog w must', 'src': '/static/foodstim60/hotdog w must.jpg', 'key': 'u', 'origWidth': 409, 'origHeight': 409, 'width': 409, 'height': 409, 'widthPercent': 0.45, 'rescaleHeight': False, 'trialN': 61, 'loaded': True, 'loadedTime': 3973.7000000476837, 'positionName': 'LEFT', 'positionCoords': [359, 245.5], 'bid': 1.03}, {'imgObject': {}, 'id': 'bagel and cc', 'src': '/static/foodstim60/bagel and cc.jpg', 'key': 'i', 'origWidth': 410, 'origHeight': 410, 'width': 410, 'height': 410, 'widthPercent': 0.45, 'rescaleHeight': False, 'trialN': 61, 'loaded': True, 'loadedTime': 4079.8000000715256, 'positionName': 'RIGHT', 'positionCoords': [832, 245], 'bid': 0.91}]",145536.39999997616,1669833655493,hotdog w must,bagel and cc,1.03,0.91,-0.12,hotdog w must,1473.9000000953674,1475,1474.9000000953674,True,u,147526.5,1990.1000000238419,1669833657484,1991,HRV,HRV_0214,2022-11-30 18:45:40
62,"[{'imgObject': {}, 'id': 'cocktailshrimp', 'src': '/static/foodstim60/cocktailshrimp.jpg', 'key': 'u', 'origWidth': 410, 'origHeight': 410, 'width': 410, 'height': 410, 'widthPercent': 0.45, 'rescaleHeight': False, 'trialN': 62, 'loaded': True, 'loadedTime': 4010.100000023842, 'positionName': 'LEFT', 'positionCoords': [358, 245], 'bid': 3.5700000000000003}, {'imgObject': {}, 'id': 'roastedpotatoes', 'src': '/static/foodstim60/roastedpotatoes.jpg', 'key': 'i', 'origWidth': 409, 'origHeight': 410, 'width': 409, 'height': 410, 'widthPercent': 0.45, 'rescaleHeight': False, 'trialN': 62, 'loaded': True, 'loadedTime': 4111.899999976158, 'positionName': 'RIGHT', 'positionCoords': [832, 245], 'bid': 1.76}]",147526.89999997616,1669833657484,cocktailshrimp,roastedpotatoes,3.5700000000000003,1.76,-1.8100000000000003,cocktailshrimp,1941.1000000238419,1942,1942.1000000238419,True,u,149974.0,2447.100000023842,1669833659931,2447,HRV,HRV_0214,2022-11-30 18:45:40
63,"[{'imgObject': {}, 'id': 'mango', 'src': '/static/foodstim60/mango.jpg', 'key': 'u', 'origWidth': 411, 'origHeight': 411, 'width': 411, 'height': 411, 'widthPercent': 0.45, 'rescaleHeight': False, 'trialN': 63, 'loaded': True, 'loadedTime': 4019.5, 'positionName': 'LEFT', 'positionCoords': [357, 244.5], 'bid': 0.91}, {'imgObject': {}, 'id': 'omelette', 'src': '/static/foodstim60/omelette.jpg', 'key': 'i', 'origWidth': 410, 'origHeight': 409, 'width': 410, 'height': 409, 'widthPercent': 0.45, 'rescaleHeight': False, 'trialN': 63, 'loaded': True, 'loadedTime': 4079.600000023842, 'positionName': 'RIGHT', 'positionCoords': [832, 245.5], 'bid': 0.12}]",149974.39999997616,1669833659931,mango,omelette,0.91,0.12,-0.79,mango,1779,1780,1780.0,True,u,152272.30000007153,2297.9000000953674,1669833662229,2298,HRV,HRV_0214,2022-11-30 18:45:40
64,"[{'imgObject': {}, 'id': 'grilled chicken strips', 'src': '/static/foodstim60/grilled chicken strips.jpg', 'key': 'u', 'origWidth': 410, 'origHeight': 411, 'width': 410, 'height': 411, 'widthPercent': 0.45, 'rescaleHeight': False, 'trialN': 64, 'loaded': True, 'loadedTime': 4090, 'positionName': 'LEFT', 'positionCoords': [358, 244.5], 'bid': 1.72}, {'imgObject': {}, 'id': 'raspberries', 'src': '/static/foodstim60/raspberries.jpg', 'key': 'i', 'origWidth': 411, 'origHeight': 411, 'width': 411, 'height': 411, 'widthPercent': 0.45, 'rescaleHeight': False, 'trialN': 64, 'loaded': True, 'loadedTime': 4011, 'positionName': 'RIGHT', 'positionCoords': [832, 244.5], 'bid': 4.7}]",152272.60000002384,1669833662230,grilled chicken strips,raspberries,1.72,4.7,2.9800000000000004,raspberries,2217.7999999523163,2218,2218.7000000476837,True,i,155001.39999997616,2728.7999999523163,1669833664958,2728,HRV,HRV_0214,2022-11-30 18:45:40
65,"[{'imgObject': {}, 'id': 'sushi w_condiments', 'src': '/static/foodstim60/sushi w_condiments.jpg', 'key': 'u', 'origWidth': 410, 'origHeight': 410, 'width': 410, 'height': 410, 'widthPercent': 0.45, 'rescaleHeight': False, 'trialN': 65, 'loaded': True, 'loadedTime': 3839.5, 'positionName': 'LEFT', 'positionCoords': [358, 245], 'bid': 2.1}, {'imgObject': {}, 'id': 'roastedpotatoes', 'src': '/static/foodstim60/roastedpotatoes.jpg', 'key': 'i', 'origWidth': 409, 'origHeight': 410, 'width': 409, 'height': 410, 'widthPercent': 0.45, 'rescaleHeight': False, 'trialN': 65, 'loaded': True, 'loadedTime': 4111.899999976158, 'positionName': 'RIGHT', 'positionCoords': [832, 245], 'bid': 1.76}]",155001.70000004768,1669833664959,sushi w_condiments,roastedpotatoes,2.1,1.76,-0.3400000000000001,sushi w_condiments,1554.1999999284744,1555,1555.1999999284744,True,u,157072.60000002384,2070.899999976158,1669833667030,2071,HRV,HRV_0214,2022-11-30 18:45:40
66,"[{'imgObject': {}, 'id': 'ice cream sundae 002', 'src': '/static/foodstim60/ice cream sundae 002.jpg', 'key': 'u', 'origWidth': 409, 'origHeight': 409, 'width': 409, 'height': 409, 'widthPercent': 0.45, 'rescaleHeight': False, 'trialN': 66, 'loaded': True, 'loadedTime': 4068.100000023842, 'positionName': 'LEFT', 'positionCoords': [359, 245.5], 'bid': 1.72}, {'imgObject': {}, 'id': 'tacos', 'src': '/static/foodstim60/tacos.jpg', 'key': 'i', 'origWidth': 411, 'origHeight': 411, 'width': 411, 'height': 411, 'widthPercent': 0.45, 'rescaleHeight': False, 'trialN': 66, 'loaded': True, 'loadedTime': 3848, 'positionName': 'RIGHT', 'positionCoords': [832, 244.5], 'bid': 1.01}]",157073.0,1669833667030,ice cream sundae 002,tacos,1.72,1.01,-0.71,tacos,1780.2000000476837,1781,1781.2000000476837,True,i,159371.89999997616,2298.899999976158,1669833669329,2299,HRV,HRV_0214,2022-11-30 18:45:40
67,"[{'imgObject': {}, 'id': 'chicken nuggets2', 'src': '/static/foodstim60/chicken nuggets2.jpg', 'key': 'u', 'origWidth': 410, 'origHeight': 409, 'width': 410, 'height': 409, 'widthPercent': 0.45, 'rescaleHeight': False, 'trialN': 67, 'loaded': True, 'loadedTime': 4112.899999976158, 'positionName': 'LEFT', 'positionCoords': [358, 245.5], 'bid': 2.53}, {'imgObject': {}, 'id': 'rigatoni', 'src': '/static/foodstim60/rigatoni.jpg', 'key': 'i', 'origWidth': 411, 'origHeight': 411, 'width': 411, 'height': 411, 'widthPercent': 0.45, 'rescaleHeight': False, 'trialN': 67, 'loaded': True, 'loadedTime': 4114.100000023842, 'positionName': 'RIGHT', 'positionCoords': [832, 244.5], 'bid': 3.12}]",159372.20000004768,1669833669329,chicken nuggets2,rigatoni,2.53,3.12,0.5900000000000003,chicken nuggets2,1987,1988,1987.8999999761581,True,u,161872.20000004768,2500.0,1669833671829,2500,HRV,HRV_0214,2022-11-30 18:45:40
68,"[{'imgObject': {}, 'id': 'chicken nuggets2', 'src': '/static/foodstim60/chicken nuggets2.jpg', 'key': 'u', 'origWidth': 410, 'origHeight': 409, 'width': 410, 'height': 409, 'widthPercent': 0.45, 'rescaleHeight': False, 'trialN': 68, 'loaded': True, 'loadedTime': 4112.100000023842, 'positionName': 'LEFT', 'positionCoords': [358, 245.5], 'bid': 2.53}, {'imgObject': {}, 'id': 'chickenfingers', 'src': '/static/foodstim60/chickenfingers.jpg', 'key': 'i', 'origWidth': 410, 'origHeight': 410, 'width': 410, 'height': 410, 'widthPercent': 0.45, 'rescaleHeight': False, 'trialN': 68, 'loaded': True, 'loadedTime': 3855.8000000715256, 'positionName': 'RIGHT', 'positionCoords': [832, 245], 'bid': 2.75}]",161872.70000004768,1669833671830,chicken nuggets2,chickenfingers,2.53,2.75,0.2200000000000002,chickenfingers,2103.7999999523163,2105,2104.7999999523163,True,i,164485.20000004768,2612.5,1669833674442,2612,HRV,HRV_0214,2022-11-30 18:45:40
69,"[{'imgObject': {}, 'id': 'froot loops w milk', 'src': '/static/foodstim60/froot loops w milk.jpg', 'key': 'u', 'origWidth': 410, 'origHeight': 410, 'width': 410, 'height': 410, 'widthPercent': 0.45, 'rescaleHeight': False, 'trialN': 69, 'loaded': True, 'loadedTime': 4115.399999976158, 'positionName': 'LEFT', 'positionCoords': [358, 245], 'bid': 0.18}, {'imgObject': {}, 'id': 'turkey sandwich', 'src': '/static/foodstim60/turkey sandwich.jpg', 'key': 'i', 'origWidth': 409, 'origHeight': 409, 'width': 409, 'height': 409, 'widthPercent': 0.45, 'rescaleHeight': False, 'trialN': 69, 'loaded': True, 'loadedTime': 3877.3000000715256, 'positionName': 'RIGHT', 'positionCoords': [832, 245.5], 'bid': 4.41}]",164485.80000007153,1669833674443,froot loops w milk,turkey sandwich,0.18,4.41,4.23,turkey sandwich,1507.2999999523163,1508,1508.2999999523163,True,i,166515.80000007153,2030.0,1669833676473,2030,HRV,HRV_0214,2022-11-30 18:45:40
70,"[{'imgObject': {}, 'id': 'ice cream sundae 002', 'src': '/static/foodstim60/ice cream sundae 002.jpg', 'key': 'u', 'origWidth': 409, 'origHeight': 409, 'width': 409, 'height': 409, 'widthPercent': 0.45, 'rescaleHeight': False, 'trialN': 70, 'loaded': True, 'loadedTime': 4068.2000000476837, 'positionName': 'LEFT', 'positionCoords': [359, 245.5], 'bid': 1.72}, {'imgObject': {}, 'id': 'steak', 'src': '/static/foodstim60/steak.jpg', 'key': 'i', 'origWidth': 410, 'origHeight': 410, 'width': 410, 'height': 410, 'widthPercent': 0.45, 'rescaleHeight': False, 'trialN': 70, 'loaded': True, 'loadedTime': 3829.100000023842, 'positionName': 'RIGHT', 'positionCoords': [832, 245], 'bid': 0.7000000000000001}]",166516.20000004768,1669833676473,ice cream sundae 002,steak,1.72,0.7000000000000001,-1.02,ice cream sundae 002,1811.6999999284744,1813,1812.6000000238419,True,u,168834.39999997616,2318.1999999284744,1669833678791,2318,HRV,HRV_0214,2022-11-30 18:45:40
71,"[{'imgObject': {}, 'id': 'pear', 'src': '/static/foodstim60/pear.jpg', 'key': 'u', 'origWidth': 411, 'origHeight': 410, 'width': 411, 'height': 410, 'widthPercent': 0.45, 'rescaleHeight': False, 'trialN': 71, 'loaded': True, 'loadedTime': 4058.600000023842, 'positionName': 'LEFT', 'positionCoords': [357, 245], 'bid': 3.95}, {'imgObject': {}, 'id': 'Grapes', 'src': '/static/foodstim60/Grapes.jpg', 'key': 'i', 'origWidth': 411, 'origHeight': 411, 'width': 411, 'height': 411, 'widthPercent': 0.45, 'rescaleHeight': False, 'trialN': 71, 'loaded': True, 'loadedTime': 3871.3000000715256, 'positionName': 'RIGHT', 'positionCoords': [832, 244.5], 'bid': 4.83}]",168834.70000004768,1669833678792,pear,Grapes,3.95,4.83,0.8799999999999999,Grapes,1363.1999999284744,1363,1363.6999999284744,True,i,170706.60000002384,1871.8999999761581,1669833680663,1871,HRV,HRV_0214,2022-11-30 18:45:40
72,"[{'imgObject': {}, 'id': 'froot loops w milk', 'src': '/static/foodstim60/froot loops w milk.jpg', 'key': 'u', 'origWidth': 410, 'origHeight': 410, 'width': 410, 'height': 410, 'widthPercent': 0.45, 'rescaleHeight': False, 'trialN': 72, 'loaded': True, 'loadedTime': 4114.300000071526, 'positionName': 'LEFT', 'positionCoords': [358, 245], 'bid': 0.18}, {'imgObject': {}, 'id': 'mac & cheese', 'src': '/static/foodstim60/mac & cheese.jpg', 'key': 'i', 'origWidth': 410, 'origHeight': 410, 'width': 410, 'height': 410, 'widthPercent': 0.45, 'rescaleHeight': False, 'trialN': 72, 'loaded': True, 'loadedTime': 4002.100000023842, 'positionName': 'RIGHT', 'positionCoords': [832, 245], 'bid': 0.37}]",170707.0,1669833680664,froot loops w milk,mac & cheese,0.18,0.37,0.19,mac & cheese,2532.5,2533,2532.8000000715256,True,i,173752.89999997616,3045.899999976158,1669833683710,3046,HRV,HRV_0214,2022-11-30 18:45:40
73,"[{'imgObject': {}, 'id': 'burger', 'src': '/static/foodstim60/burger.jpg', 'key': 'u', 'origWidth': 409, 'origHeight': 409, 'width': 409, 'height': 409, 'widthPercent': 0.45, 'rescaleHeight': False, 'trialN': 73, 'loaded': True, 'loadedTime': 4098.600000023842, 'positionName': 'LEFT', 'positionCoords': [359, 245.5], 'bid': 4.97}, {'imgObject': {}, 'id': 'strawberries', 'src': '/static/foodstim60/strawberries.jpg', 'key': 'i', 'origWidth': 410, 'origHeight': 410, 'width': 410, 'height': 410, 'widthPercent': 0.45, 'rescaleHeight': False, 'trialN': 73, 'loaded': True, 'loadedTime': 4038.8000000715256, 'positionName': 'RIGHT', 'positionCoords': [832, 245], 'bid': 4.95}]",173753.30000007153,1669833683710,burger,strawberries,4.97,4.95,-0.019999999999999574,burger,1888.3999999761581,1889,1889.2999999523163,True,u,176152.30000007153,2399.0,1669833686109,2399,HRV,HRV_0214,2022-11-30 18:45:40
74,"[{'imgObject': {}, 'id': 'Tribe humus pita', 'src': '/static/foodstim60/Tribe humus pita.jpg', 'key': 'u', 'origWidth': 411, 'origHeight': 411, 'width': 411, 'height': 411, 'widthPercent': 0.45, 'rescaleHeight': False, 'trialN': 74, 'loaded': True, 'loadedTime': 3946.100000023842, 'positionName': 'LEFT', 'positionCoords': [357, 244.5], 'bid': 0.11}, {'imgObject': {}, 'id': 'lox', 'src': '/static/foodstim60/lox.jpg', 'key': 'i', 'origWidth': 410, 'origHeight': 411, 'width': 410, 'height': 411, 'widthPercent': 0.45, 'rescaleHeight': False, 'trialN': 74, 'loaded': True, 'loadedTime': 3923.8000000715256, 'positionName': 'RIGHT', 'positionCoords': [832, 244.5], 'bid': 0.15}]",176152.70000004768,1669833686110,Tribe humus pita,lox,0.11,0.15,0.039999999999999994,Tribe humus pita,2179.899999976158,2180,2180.5,True,u,178850.20000004768,2697.5,1669833688807,2697,HRV,HRV_0214,2022-11-30 18:45:40
75,"[{'imgObject': {}, 'id': 'bagel and cc', 'src': '/static/foodstim60/bagel and cc.jpg', 'key': 'u', 'origWidth': 410, 'origHeight': 410, 'width': 410, 'height': 410, 'widthPercent': 0.45, 'rescaleHeight': False, 'trialN': 75, 'loaded': True, 'loadedTime': 4080.7000000476837, 'positionName': 'LEFT', 'positionCoords': [358, 245], 'bid': 0.91}, {'imgObject': {}, 'id': 'tacos', 'src': '/static/foodstim60/tacos.jpg', 'key': 'i', 'origWidth': 411, 'origHeight': 411, 'width': 411, 'height': 411, 'widthPercent': 0.45, 'rescaleHeight': False, 'trialN': 75, 'loaded': True, 'loadedTime': 3848.2000000476837, 'positionName': 'RIGHT', 'positionCoords': [832, 244.5], 'bid': 1.01}]",178850.60000002384,1669833688808,bagel and cc,tacos,0.91,1.01,0.09999999999999998,tacos,2419.5,2420,2420.600000023842,True,i,181781.0,2930.399999976158,1669833691738,2930,HRV,HRV_0214,2022-11-30 18:45:40
76,"[{'imgObject': {}, 'id': 'cantaloupe', 'src': '/static/foodstim60/cantaloupe.jpg', 'key': 'u', 'origWidth': 409, 'origHeight': 409, 'width': 409, 'height': 409, 'widthPercent': 0.45, 'rescaleHeight': False, 'trialN': 76, 'loaded': True, 'loadedTime': 3820.899999976158, 'positionName': 'LEFT', 'positionCoords': [359, 245.5], 'bid': 0.1}, {'imgObject': {}, 'id': 'veggieswithdip', 'src': '/static/foodstim60/veggieswithdip.jpg', 'key': 'i', 'origWidth': 409, 'origHeight': 409, 'width': 409, 'height': 409, 'widthPercent': 0.45, 'rescaleHeight': False, 'trialN': 76, 'loaded': True, 'loadedTime': 4005.8000000715256, 'positionName': 'RIGHT', 'positionCoords': [832, 245.5], 'bid': 0.11}]",181781.5,1669833691738,cantaloupe,veggieswithdip,0.1,0.11,0.009999999999999995,cantaloupe,1483.3999999761581,1484,1483.8999999761581,True,u,183780.30000007153,1998.8000000715256,1669833693737,1999,HRV,HRV_0214,2022-11-30 18:45:40
77,"[{'imgObject': {}, 'id': 'mashed potato', 'src': '/static/foodstim60/mashed potato.jpg', 'key': 'u', 'origWidth': 409, 'origHeight': 409, 'width': 409, 'height': 409, 'widthPercent': 0.45, 'rescaleHeight': False, 'trialN': 77, 'loaded': True, 'loadedTime': 4099.600000023842, 'positionName': 'LEFT', 'positionCoords': [359, 245.5], 'bid': 0.12}, {'imgObject': {}, 'id': 'chicken nuggets2', 'src': '/static/foodstim60/chicken nuggets2.jpg', 'key': 'i', 'origWidth': 410, 'origHeight': 409, 'width': 410, 'height': 409, 'widthPercent': 0.45, 'rescaleHeight': False, 'trialN': 77, 'loaded': True, 'loadedTime': 4113.100000023842, 'positionName': 'RIGHT', 'positionCoords': [832, 245.5], 'bid': 2.53}]",183780.70000004768,1669833693738,mashed potato,chicken nuggets2,0.12,2.53,2.4099999999999997,chicken nuggets2,1243,1244,1244.0,True,i,185537.89999997616,1757.1999999284744,1669833695495,1757,HRV,HRV_0214,2022-11-30 18:45:40
78,"[{'imgObject': {}, 'id': 'rigatoni and sauce', 'src': '/static/foodstim60/rigatoni and sauce.jpg', 'key': 'u', 'origWidth': 410, 'origHeight': 411, 'width': 410, 'height': 411, 'widthPercent': 0.45, 'rescaleHeight': False, 'trialN': 78, 'loaded': True, 'loadedTime': 3811.899999976158, 'positionName': 'LEFT', 'positionCoords': [358, 244.5], 'bid': 4.62}, {'imgObject': {}, 'id': 'avocado', 'src': '/static/foodstim60/avocado.jpg', 'key': 'i', 'origWidth': 409, 'origHeight': 409, 'width': 409, 'height': 409, 'widthPercent': 0.45, 'rescaleHeight': False, 'trialN': 78, 'loaded': True, 'loadedTime': 4101.600000023842, 'positionName': 'RIGHT', 'positionCoords': [832, 245.5], 'bid': 0.22}]",185538.10000002384,1669833695495,rigatoni and sauce,avocado,4.62,0.22,-4.4,rigatoni and sauce,1095.2000000476837,1096,1096.1000000238419,True,u,187155.60000002384,1617.5,1669833697112,1617,HRV,HRV_0214,2022-11-30 18:45:40
79,"[{'imgObject': {}, 'id': 'cheerios', 'src': '/static/foodstim60/cheerios.jpg', 'key': 'u', 'origWidth': 409, 'origHeight': 410, 'width': 409, 'height': 410, 'widthPercent': 0.45, 'rescaleHeight': False, 'trialN': 79, 'loaded': True, 'loadedTime': 4088.899999976158, 'positionName': 'LEFT', 'positionCoords': [359, 245], 'bid': 4.23}, {'imgObject': {}, 'id': 'turkey sandwich', 'src': '/static/foodstim60/turkey sandwich.jpg', 'key': 'i', 'origWidth': 409, 'origHeight': 409, 'width': 409, 'height': 409, 'widthPercent': 0.45, 'rescaleHeight': False, 'trialN': 79, 'loaded': True, 'loadedTime': 3872.3000000715256, 'positionName': 'RIGHT', 'positionCoords': [832, 245.5], 'bid': 4.41}]",187156.10000002384,1669833697113,cheerios,turkey sandwich,4.23,4.41,0.17999999999999972,turkey sandwich,1429.1000000238419,1430,1430.0,True,i,189096.39999997616,1940.2999999523163,1669833699053,1940,HRV,HRV_0214,2022-11-30 18:45:40
80,"[{'imgObject': {}, 'id': 'fried eggs', 'src': '/static/foodstim60/fried eggs.jpg', 'key': 'u', 'origWidth': 410, 'origHeight': 410, 'width': 410, 'height': 410, 'widthPercent': 0.45, 'rescaleHeight': False, 'trialN': 80, 'loaded': True, 'loadedTime': 4077.8000000715256, 'positionName': 'LEFT', 'positionCoords': [358, 245], 'bid': 5.21}, {'imgObject': {}, 'id': 'pear', 'src': '/static/foodstim60/pear.jpg', 'key': 'i', 'origWidth': 411, 'origHeight': 410, 'width': 411, 'height': 410, 'widthPercent': 0.45, 'rescaleHeight': False, 'trialN': 80, 'loaded': True, 'loadedTime': 4059, 'positionName': 'RIGHT', 'positionCoords': [832, 245], 'bid': 3.95}]",189096.80000007153,1669833699054,fried eggs,pear,5.21,3.95,-1.2599999999999998,fried eggs,2288.899999976158,2290,2289.899999976158,True,u,191900.10000002384,2803.2999999523163,1669833701857,2803,HRV,HRV_0214,2022-11-30 18:45:40
81,"[{'imgObject': {}, 'id': 'salmon', 'src': '/static/foodstim60/salmon.jpg', 'key': 'u', 'origWidth': 410, 'origHeight': 409, 'width': 410, 'height': 409, 'widthPercent': 0.45, 'rescaleHeight': False, 'trialN': 81, 'loaded': True, 'loadedTime': 3955.3000000715256, 'positionName': 'LEFT', 'positionCoords': [358, 245.5], 'bid': 0.31}, {'imgObject': {}, 'id': 'granola w milk', 'src': '/static/foodstim60/granola w milk.jpg', 'key': 'i', 'origWidth': 410, 'origHeight': 410, 'width': 410, 'height': 410, 'widthPercent': 0.45, 'rescaleHeight': False, 'trialN': 81, 'loaded': True, 'loadedTime': 3846.3000000715256, 'positionName': 'RIGHT', 'positionCoords': [832, 245], 'bid': 0.15}]",191900.5,1669833701857,salmon,granola w milk,0.31,0.15,-0.16,granola w milk,2285.100000023842,2286,2285.5,True,i,194703.60000002384,2803.100000023842,1669833704660,2803,HRV,HRV_0214,2022-11-30 18:45:40
82,"[{'imgObject': {}, 'id': 'corn cob', 'src': '/static/foodstim60/corn cob.jpg', 'key': 'u', 'origWidth': 411, 'origHeight': 411, 'width': 411, 'height': 411, 'widthPercent': 0.45, 'rescaleHeight': False, 'trialN': 82, 'loaded': True, 'loadedTime': 3797.2000000476837, 'positionName': 'LEFT', 'positionCoords': [357, 244.5], 'bid': 4.41}, {'imgObject': {}, 'id': 'blackbeanswithrice', 'src': '/static/foodstim60/blackbeanswithrice.jpg', 'key': 'i', 'origWidth': 410, 'origHeight': 410, 'width': 410, 'height': 410, 'widthPercent': 0.45, 'rescaleHeight': False, 'trialN': 82, 'loaded': True, 'loadedTime': 3969.2000000476837, 'positionName': 'RIGHT', 'positionCoords': [832, 245], 'bid': 1.62}]",194704.10000002384,1669833704661,corn cob,blackbeanswithrice,4.41,1.62,-2.79,corn cob,2315.5,2316,2316.5,True,u,197532.30000007153,2828.2000000476837,1669833707489,2828,HRV,HRV_0214,2022-11-30 18:45:40
83,"[{'imgObject': {}, 'id': 'bagel and cc', 'src': '/static/foodstim60/bagel and cc.jpg', 'key': 'u', 'origWidth': 410, 'origHeight': 410, 'width': 410, 'height': 410, 'widthPercent': 0.45, 'rescaleHeight': False, 'trialN': 83, 'loaded': True, 'loadedTime': 4080.5, 'positionName': 'LEFT', 'positionCoords': [358, 245], 'bid': 0.91}, {'imgObject': {}, 'id': 'eggsalad', 'src': '/static/foodstim60/eggsalad.jpg', 'key': 'i', 'origWidth': 410, 'origHeight': 409, 'width': 410, 'height': 409, 'widthPercent': 0.45, 'rescaleHeight': False, 'trialN': 83, 'loaded': True, 'loadedTime': 3979.399999976158, 'positionName': 'RIGHT', 'positionCoords': [832, 245.5], 'bid': 0.12}]",197532.60000002384,1669833707490,bagel and cc,eggsalad,0.91,0.12,-0.79,bagel and cc,2199.5,2200,2200.5,True,u,200251.60000002384,2719.0,1669833710208,2718,HRV,HRV_0214,2022-11-30 18:45:40
84,"[{'imgObject': {}, 'id': 'sweetpotato', 'src': '/static/foodstim60/sweetpotato.jpg', 'key': 'u', 'origWidth': 410, 'origHeight': 410, 'width': 410, 'height': 410, 'widthPercent': 0.45, 'rescaleHeight': False, 'trialN': 84, 'loaded': True, 'loadedTime': 4100.200000047684, 'positionName': 'LEFT', 'positionCoords': [358, 245], 'bid': 0.11}, {'imgObject': {}, 'id': 'mashed potato', 'src': '/static/foodstim60/mashed potato.jpg', 'key': 'i', 'origWidth': 409, 'origHeight': 409, 'width': 409, 'height': 409, 'widthPercent': 0.45, 'rescaleHeight': False, 'trialN': 84, 'loaded': True, 'loadedTime': 4099.899999976158, 'positionName': 'RIGHT', 'positionCoords': [832, 245.5], 'bid': 0.12}]",200251.89999997616,1669833710209,sweetpotato,mashed potato,0.11,0.12,0.009999999999999995,mashed potato,963.1000000238419,963,963.6000000238419,True,i,201729.89999997616,1478.0,1669833711687,1478,HRV,HRV_0214,2022-11-30 18:45:40
85,"[{'imgObject': {}, 'id': 'cantaloupe', 'src': '/static/foodstim60/cantaloupe.jpg', 'key': 'u', 'origWidth': 409, 'origHeight': 409, 'width': 409, 'height': 409, 'widthPercent': 0.45, 'rescaleHeight': False, 'trialN': 85, 'loaded': True, 'loadedTime': 3817.3000000715256, 'positionName': 'LEFT', 'positionCoords': [359, 245.5], 'bid': 0.1}, {'imgObject': {}, 'id': 'olives', 'src': '/static/foodstim60/olives.jpg', 'key': 'i', 'origWidth': 410, 'origHeight': 410, 'width': 410, 'height': 410, 'widthPercent': 0.45, 'rescaleHeight': False, 'trialN': 85, 'loaded': True, 'loadedTime': 4057.399999976158, 'positionName': 'RIGHT', 'positionCoords': [832, 245], 'bid': 0.12}]",201730.20000004768,1669833711687,cantaloupe,olives,0.1,0.12,0.01999999999999999,cantaloupe,1205.8999999761581,1207,1207.0,True,u,203447.39999997616,1717.1999999284744,1669833713404,1717,HRV,HRV_0214,2022-11-30 18:45:40
86,"[{'imgObject': {}, 'id': 'banana', 'src': '/static/foodstim60/banana.jpg', 'key': 'u', 'origWidth': 410, 'origHeight': 410, 'width': 410, 'height': 410, 'widthPercent': 0.45, 'rescaleHeight': False, 'trialN': 86, 'loaded': True, 'loadedTime': 4038.5, 'positionName': 'LEFT', 'positionCoords': [358, 245], 'bid': 4.62}, {'imgObject': {}, 'id': 'raspberries', 'src': '/static/foodstim60/raspberries.jpg', 'key': 'i', 'origWidth': 411, 'origHeight': 411, 'width': 411, 'height': 411, 'widthPercent': 0.45, 'rescaleHeight': False, 'trialN': 86, 'loaded': True, 'loadedTime': 4010.2000000476837, 'positionName': 'RIGHT', 'positionCoords': [832, 244.5], 'bid': 4.7}]",203447.89999997616,1669833713405,banana,raspberries,4.62,4.7,0.08000000000000007,raspberries,2245.8000000715256,2247,2246.8000000715256,True,i,206197.70000004768,2749.8000000715256,1669833716155,2750,HRV,HRV_0214,2022-11-30 18:45:40
87,"[{'imgObject': {}, 'id': 'fried eggs', 'src': '/static/foodstim60/fried eggs.jpg', 'key': 'u', 'origWidth': 410, 'origHeight': 410, 'width': 410, 'height': 410, 'widthPercent': 0.45, 'rescaleHeight': False, 'trialN': 87, 'loaded': True, 'loadedTime': 4070.8000000715256, 'positionName': 'LEFT', 'positionCoords': [358, 245], 'bid': 5.21}, {'imgObject': {}, 'id': 'burger', 'src': '/static/foodstim60/burger.jpg', 'key': 'i', 'origWidth': 409, 'origHeight': 409, 'width': 409, 'height': 409, 'widthPercent': 0.45, 'rescaleHeight': False, 'trialN': 87, 'loaded': True, 'loadedTime': 4098.5, 'positionName': 'RIGHT', 'positionCoords': [832, 245.5], 'bid': 4.97}]",206197.80000007153,1669833716155,fried eggs,burger,5.21,4.97,-0.2400000000000002,burger,2497.7999999523163,2498,2498.7999999523163,True,i,209197.70000004768,2999.899999976158,1669833719155,3000,HRV,HRV_0214,2022-11-30 18:45:40
88,"[{'imgObject': {}, 'id': 'burger', 'src': '/static/foodstim60/burger.jpg', 'key': 'u', 'origWidth': 409, 'origHeight': 409, 'width': 409, 'height': 409, 'widthPercent': 0.45, 'rescaleHeight': False, 'trialN': 88, 'loaded': True, 'loadedTime': 4098.700000047684, 'positionName': 'LEFT', 'positionCoords': [359, 245.5], 'bid': 4.97}, {'imgObject': {}, 'id': 'turkey sandwich', 'src': '/static/foodstim60/turkey sandwich.jpg', 'key': 'i', 'origWidth': 409, 'origHeight': 409, 'width': 409, 'height': 409, 'widthPercent': 0.45, 'rescaleHeight': False, 'trialN': 88, 'loaded': True, 'loadedTime': 3877.7000000476837, 'positionName': 'RIGHT', 'positionCoords': [832, 245.5], 'bid': 4.41}]",209197.89999997616,1669833719155,burger,turkey sandwich,4.97,4.41,-0.5599999999999996,turkey sandwich,3054.8000000715256,3056,3055.7000000476837,True,i,212765.10000002384,3567.2000000476837,1669833722722,3567,HRV,HRV_0214,2022-11-30 18:45:40
89,"[{'imgObject': {}, 'id': 'raisin bran w milk', 'src': '/static/foodstim60/raisin bran w milk.jpg', 'key': 'u', 'origWidth': 411, 'origHeight': 411, 'width': 411, 'height': 411, 'widthPercent': 0.45, 'rescaleHeight': False, 'trialN': 89, 'loaded': True, 'loadedTime': 4069.600000023842, 'positionName': 'LEFT', 'positionCoords': [357, 244.5], 'bid': 0.11}, {'imgObject': {}, 'id': 'luckycharms', 'src': '/static/foodstim60/luckycharms.jpg', 'key': 'i', 'origWidth': 410, 'origHeight': 409, 'width': 410, 'height': 409, 'widthPercent': 0.45, 'rescaleHeight': False, 'trialN': 89, 'loaded': True, 'loadedTime': 3892.600000023842, 'positionName': 'RIGHT', 'positionCoords': [832, 245.5], 'bid': 0.1}]",212765.60000002384,1669833722722,raisin bran w milk,luckycharms,0.11,0.1,-0.009999999999999995,luckycharms,2475.399999976158,2477,2476.2999999523163,True,i,215761.89999997616,2996.2999999523163,1669833725719,2997,HRV,HRV_0214,2022-11-30 18:45:40
90,"[{'imgObject': {}, 'id': 'strawberries', 'src': '/static/foodstim60/strawberries.jpg', 'key': 'u', 'origWidth': 410, 'origHeight': 410, 'width': 410, 'height': 410, 'widthPercent': 0.45, 'rescaleHeight': False, 'trialN': 90, 'loaded': True, 'loadedTime': 4039.7000000476837, 'positionName': 'LEFT', 'positionCoords': [358, 245], 'bid': 4.95}, {'imgObject': {}, 'id': 'cheerios', 'src': '/static/foodstim60/cheerios.jpg', 'key': 'i', 'origWidth': 409, 'origHeight': 410, 'width': 409, 'height': 410, 'widthPercent': 0.45, 'rescaleHeight': False, 'trialN': 90, 'loaded': True, 'loadedTime': 4089.3000000715256, 'positionName': 'RIGHT', 'positionCoords': [832, 245], 'bid': 4.23}]",221558.70000004768,1669833731516,strawberries,cheerios,4.95,4.23,-0.7199999999999998,strawberries,1574.6000000238419,1575,1575.7999999523163,True,u,223645.60000002384,2086.899999976158,1669833733602,2086,HRV,HRV_0214,2022-11-30 18:45:40
91,"[{'imgObject': {}, 'id': 'kiwi', 'src': '/static/foodstim60/kiwi.jpg', 'key': 'u', 'origWidth': 410, 'origHeight': 410, 'width': 410, 'height': 410, 'widthPercent': 0.45, 'rescaleHeight': False, 'trialN': 91, 'loaded': True, 'loadedTime': 4027.600000023842, 'positionName': 'LEFT', 'positionCoords': [358, 245], 'bid': 0.35}, {'imgObject': {}, 'id': 'lox', 'src': '/static/foodstim60/lox.jpg', 'key': 'i', 'origWidth': 410, 'origHeight': 411, 'width': 410, 'height': 411, 'widthPercent': 0.45, 'rescaleHeight': False, 'trialN': 91, 'loaded': True, 'loadedTime': 3921.100000023842, 'positionName': 'RIGHT', 'positionCoords': [832, 244.5], 'bid': 0.15}]",223646.20000004768,1669833733603,kiwi,lox,0.35,0.15,-0.19999999999999998,kiwi,1977.8999999761581,1979,1978.7999999523163,True,u,226126.89999997616,2480.6999999284744,1669833736084,2481,HRV,HRV_0214,2022-11-30 18:45:40
92,"[{'imgObject': {}, 'id': 'bagel and cc', 'src': '/static/foodstim60/bagel and cc.jpg', 'key': 'u', 'origWidth': 410, 'origHeight': 410, 'width': 410, 'height': 410, 'widthPercent': 0.45, 'rescaleHeight': False, 'trialN': 92, 'loaded': True, 'loadedTime': 4080.600000023842, 'positionName': 'LEFT', 'positionCoords': [358, 245], 'bid': 0.91}, {'imgObject': {}, 'id': 'shreddedwheatwithmilk', 'src': '/static/foodstim60/shreddedwheatwithmilk.jpg', 'key': 'i', 'origWidth': 410, 'origHeight': 410, 'width': 410, 'height': 410, 'widthPercent': 0.45, 'rescaleHeight': False, 'trialN': 92, 'loaded': True, 'loadedTime': 4049.399999976158, 'positionName': 'RIGHT', 'positionCoords': [832, 245], 'bid': 1.66}]",226127.30000007153,1669833736084,bagel and cc,shreddedwheatwithmilk,0.91,1.66,0.7499999999999999,shreddedwheatwithmilk,2688.2999999523163,2690,2689.5,True,i,229329.0,3201.6999999284744,1669833739286,3202,HRV,HRV_0214,2022-11-30 18:45:40
93,"[{'imgObject': {}, 'id': 'kiwi', 'src': '/static/foodstim60/kiwi.jpg', 'key': 'u', 'origWidth': 410, 'origHeight': 410, 'width': 410, 'height': 410, 'widthPercent': 0.45, 'rescaleHeight': False, 'trialN': 93, 'loaded': True, 'loadedTime': 4028.100000023842, 'positionName': 'LEFT', 'positionCoords': [358, 245], 'bid': 0.35}, {'imgObject': {}, 'id': 'baked potato', 'src': '/static/foodstim60/baked potato.jpg', 'key': 'i', 'origWidth': 409, 'origHeight': 410, 'width': 409, 'height': 410, 'widthPercent': 0.45, 'rescaleHeight': False, 'trialN': 93, 'loaded': True, 'loadedTime': 3913.7000000476837, 'positionName': 'RIGHT', 'positionCoords': [832, 245], 'bid': 4.76}]",229329.5,1669833739287,kiwi,baked potato,0.35,4.76,4.41,baked potato,1482.8000000715256,1484,1483.8000000715256,True,i,231329.0,1999.5,1669833741286,1999,HRV,HRV_0214,2022-11-30 18:45:40
94,"[{'imgObject': {}, 'id': 'cantaloupe', 'src': '/static/foodstim60/cantaloupe.jpg', 'key': 'u', 'origWidth': 409, 'origHeight': 409, 'width': 409, 'height': 409, 'widthPercent': 0.45, 'rescaleHeight': False, 'trialN': 94, 'loaded': True, 'loadedTime': 3821, 'positionName': 'LEFT', 'positionCoords': [359, 245.5], 'bid': 0.1}, {'imgObject': {}, 'id': 'salad w chicken', 'src': '/static/foodstim60/salad w chicken.jpg', 'key': 'i', 'origWidth': 411, 'origHeight': 411, 'width': 411, 'height': 411, 'widthPercent': 0.45, 'rescaleHeight': False, 'trialN': 94, 'loaded': True, 'loadedTime': 4048.399999976158, 'positionName': 'RIGHT', 'positionCoords': [832, 244.5], 'bid': 0.26}]",231329.60000002384,1669833741287,cantaloupe,salad w chicken,0.1,0.26,0.16,cantaloupe,2193.5,2195,2194.600000023842,True,u,234041.20000004768,2711.600000023842,1669833743999,2712,HRV,HRV_0214,2022-11-30 18:45:40
95,"[{'imgObject': {}, 'id': 'fried eggs', 'src': '/static/foodstim60/fried eggs.jpg', 'key': 'u', 'origWidth': 410, 'origHeight': 410, 'width': 410, 'height': 410, 'widthPercent': 0.45, 'rescaleHeight': False, 'trialN': 95, 'loaded': True, 'loadedTime': 4078.100000023842, 'positionName': 'LEFT', 'positionCoords': [358, 245], 'bid': 5.21}, {'imgObject': {}, 'id': 'eggs', 'src': '/static/foodstim60/eggs.jpg', 'key': 'i', 'origWidth': 409, 'origHeight': 409, 'width': 409, 'height': 409, 'widthPercent': 0.45, 'rescaleHeight': False, 'trialN': 95, 'loaded': True, 'loadedTime': 3885, 'positionName': 'RIGHT', 'positionCoords': [832, 245.5], 'bid': 4.7700000000000005}]",234041.60000002384,1669833743999,fried eggs,eggs,5.21,4.7700000000000005,-0.4399999999999995,eggs,2728,2729,2728.899999976158,True,i,237280.10000002384,3238.5,1669833747237,3238,HRV,HRV_0214,2022-11-30 18:45:40
96,"[{'imgObject': {}, 'id': 'sweetpotato', 'src': '/static/foodstim60/sweetpotato.jpg', 'key': 'u', 'origWidth': 410, 'origHeight': 410, 'width': 410, 'height': 410, 'widthPercent': 0.45, 'rescaleHeight': False, 'trialN': 96, 'loaded': True, 'loadedTime': 4101.5, 'positionName': 'LEFT', 'positionCoords': [358, 245], 'bid': 0.11}, {'imgObject': {}, 'id': 'mac & cheese', 'src': '/static/foodstim60/mac & cheese.jpg', 'key': 'i', 'origWidth': 410, 'origHeight': 410, 'width': 410, 'height': 410, 'widthPercent': 0.45, 'rescaleHeight': False, 'trialN': 96, 'loaded': True, 'loadedTime': 3999.600000023842, 'positionName': 'RIGHT', 'positionCoords': [832, 245], 'bid': 0.37}]",237280.60000002384,1669833747238,sweetpotato,mac & cheese,0.11,0.37,0.26,mac & cheese,1595.5,1596,1596.3999999761581,True,i,239393.10000002384,2112.5,1669833749351,2113,HRV,HRV_0214,2022-11-30 18:45:40
97,"[{'imgObject': {}, 'id': 'olives', 'src': '/static/foodstim60/olives.jpg', 'key': 'u', 'origWidth': 410, 'origHeight': 410, 'width': 410, 'height': 410, 'widthPercent': 0.45, 'rescaleHeight': False, 'trialN': 97, 'loaded': True, 'loadedTime': 4057.2000000476837, 'positionName': 'LEFT', 'positionCoords': [358, 245], 'bid': 0.12}, {'imgObject': {}, 'id': 'mashed potato', 'src': '/static/foodstim60/mashed potato.jpg', 'key': 'i', 'origWidth': 409, 'origHeight': 409, 'width': 409, 'height': 409, 'widthPercent': 0.45, 'rescaleHeight': False, 'trialN': 97, 'loaded': True, 'loadedTime': 4099.800000071526, 'positionName': 'RIGHT', 'positionCoords': [832, 245.5], 'bid': 0.12}]",239393.70000004768,1669833749351,olives,mashed potato,0.12,0.12,0.0,mashed potato,1624.1999999284744,1625,1625.1999999284744,True,i,241529.30000007153,2135.600000023842,1669833751487,2136,HRV,HRV_0214,2022-11-30 18:45:40
98,"[{'imgObject': {}, 'id': 'chickenfingers', 'src': '/static/foodstim60/chickenfingers.jpg', 'key': 'u', 'origWidth': 410, 'origHeight': 410, 'width': 410, 'height': 410, 'widthPercent': 0.45, 'rescaleHeight': False, 'trialN': 98, 'loaded': True, 'loadedTime': 3867.600000023842, 'positionName': 'LEFT', 'positionCoords': [358, 245], 'bid': 2.75}, {'imgObject': {}, 'id': 'cocktailshrimp', 'src': '/static/foodstim60/cocktailshrimp.jpg', 'key': 'i', 'origWidth': 410, 'origHeight': 410, 'width': 410, 'height': 410, 'widthPercent': 0.45, 'rescaleHeight': False, 'trialN': 98, 'loaded': True, 'loadedTime': 4009.600000023842, 'positionName': 'RIGHT', 'positionCoords': [832, 245], 'bid': 3.5700000000000003}]",241529.60000002384,1669833751487,chickenfingers,cocktailshrimp,2.75,3.5700000000000003,0.8200000000000003,cocktailshrimp,2208.899999976158,2210,2210.100000023842,True,i,244258.80000007153,2729.2000000476837,1669833754216,2729,HRV,HRV_0214,2022-11-30 18:45:40
99,"[{'imgObject': {}, 'id': 'baked potato', 'src': '/static/foodstim60/baked potato.jpg', 'key': 'u', 'origWidth': 409, 'origHeight': 410, 'width': 409, 'height': 410, 'widthPercent': 0.45, 'rescaleHeight': False, 'trialN': 99, 'loaded': True, 'loadedTime': 3916.399999976158, 'positionName': 'LEFT', 'positionCoords': [359, 245], 'bid': 4.76}, {'imgObject': {}, 'id': 'roastedpotatoes', 'src': '/static/foodstim60/roastedpotatoes.jpg', 'key': 'i', 'origWidth': 409, 'origHeight': 410, 'width': 409, 'height': 410, 'widthPercent': 0.45, 'rescaleHeight': False, 'trialN': 99, 'loaded': True, 'loadedTime': 4112, 'positionName': 'RIGHT', 'positionCoords': [832, 245], 'bid': 1.76}]",244259.10000002384,1669833754216,baked potato,roastedpotatoes,4.76,1.76,-3.0,baked potato,1615.3999999761581,1617,1616.2999999523163,True,u,246381.60000002384,2122.5,1669833756339,2123,HRV,HRV_0214,2022-11-30 18:45:40
100,"[{'imgObject': {}, 'id': 'steak', 'src': '/static/foodstim60/steak.jpg', 'key': 'u', 'origWidth': 410, 'origHeight': 410, 'width': 410, 'height': 410, 'widthPercent': 0.45, 'rescaleHeight': False, 'trialN': 100, 'loaded': True, 'loadedTime': 3829.3000000715256, 'positionName': 'LEFT', 'positionCoords': [358, 245], 'bid': 0.7000000000000001}, {'imgObject': {}, 'id': 'mashed potato', 'src': '/static/foodstim60/mashed potato.jpg', 'key': 'i', 'origWidth': 409, 'origHeight': 409, 'width': 409, 'height': 409, 'widthPercent': 0.45, 'rescaleHeight': False, 'trialN': 100, 'loaded': True, 'loadedTime': 4100.100000023842, 'positionName': 'RIGHT', 'positionCoords': [832, 245.5], 'bid': 0.12}]",246382.10000002384,1669833756339,steak,mashed potato,0.7000000000000001,0.12,-0.5800000000000001,mashed potato,1712.1000000238419,1713,1712.7000000476837,True,i,248603.89999997616,2221.7999999523163,1669833758561,2222,HRV,HRV_0214,2022-11-30 18:45:40
101,"[{'imgObject': {}, 'id': 'seaweed', 'src': '/static/foodstim60/seaweed.jpg', 'key': 'u', 'origWidth': 410, 'origHeight': 410, 'width': 410, 'height': 410, 'widthPercent': 0.45, 'rescaleHeight': False, 'trialN': 101, 'loaded': True, 'loadedTime': 4029.5, 'positionName': 'LEFT', 'positionCoords': [358, 245], 'bid': 0.08}, {'imgObject': {}, 'id': 'hotdog w must', 'src': '/static/foodstim60/hotdog w must.jpg', 'key': 'i', 'origWidth': 409, 'origHeight': 409, 'width': 409, 'height': 409, 'widthPercent': 0.45, 'rescaleHeight': False, 'trialN': 101, 'loaded': True, 'loadedTime': 3972.2000000476837, 'positionName': 'RIGHT', 'positionCoords': [832, 245.5], 'bid': 1.03}]",248604.5,1669833758562,seaweed,hotdog w must,0.08,1.03,0.9500000000000001,hotdog w must,861.2000000476837,862,861.8999999761581,True,i,249974.39999997616,1369.8999999761581,1669833759932,1370,HRV,HRV_0214,2022-11-30 18:45:40
102,"[{'imgObject': {}, 'id': 'burrito', 'src': '/static/foodstim60/burrito.jpg', 'key': 'u', 'origWidth': 410, 'origHeight': 410, 'width': 410, 'height': 410, 'widthPercent': 0.45, 'rescaleHeight': False, 'trialN': 102, 'loaded': True, 'loadedTime': 3995.899999976158, 'positionName': 'LEFT', 'positionCoords': [358, 245], 'bid': 0.1}, {'imgObject': {}, 'id': 'sweetpotato', 'src': '/static/foodstim60/sweetpotato.jpg', 'key': 'i', 'origWidth': 410, 'origHeight': 410, 'width': 410, 'height': 410, 'widthPercent': 0.45, 'rescaleHeight': False, 'trialN': 102, 'loaded': True, 'loadedTime': 4101.100000023842, 'positionName': 'RIGHT', 'positionCoords': [832, 245], 'bid': 0.11}]",249974.89999997616,1669833759932,burrito,sweetpotato,0.1,0.11,0.009999999999999995,burrito,1477.6000000238419,1479,1478.6000000238419,True,u,251958.5,1983.6000000238419,1669833761916,1984,HRV,HRV_0214,2022-11-30 18:45:40
103,"[{'imgObject': {}, 'id': 'Grapes', 'src': '/static/foodstim60/Grapes.jpg', 'key': 'u', 'origWidth': 411, 'origHeight': 411, 'width': 411, 'height': 411, 'widthPercent': 0.45, 'rescaleHeight': False, 'trialN': 103, 'loaded': True, 'loadedTime': 3870.5, 'positionName': 'LEFT', 'positionCoords': [357, 244.5], 'bid': 4.83}, {'imgObject': {}, 'id': 'yogurt no spoon', 'src': '/static/foodstim60/yogurt no spoon.jpg', 'key': 'i', 'origWidth': 411, 'origHeight': 410, 'width': 411, 'height': 410, 'widthPercent': 0.45, 'rescaleHeight': False, 'trialN': 103, 'loaded': True, 'loadedTime': 3999.2000000476837, 'positionName': 'RIGHT', 'positionCoords': [832, 245], 'bid': 0.63}]",251958.89999997616,1669833761916,Grapes,yogurt no spoon,4.83,0.63,-4.2,Grapes,1508.6000000238419,1510,1509.4000000953674,True,u,253988.89999997616,2030.0,1669833763946,2030,HRV,HRV_0214,2022-11-30 18:45:40
104,"[{'imgObject': {}, 'id': 'eggsalad', 'src': '/static/foodstim60/eggsalad.jpg', 'key': 'u', 'origWidth': 410, 'origHeight': 409, 'width': 410, 'height': 409, 'widthPercent': 0.45, 'rescaleHeight': False, 'trialN': 104, 'loaded': True, 'loadedTime': 3979, 'positionName': 'LEFT', 'positionCoords': [358, 245.5], 'bid': 0.12}, {'imgObject': {}, 'id': 'avocado', 'src': '/static/foodstim60/avocado.jpg', 'key': 'i', 'origWidth': 409, 'origHeight': 409, 'width': 409, 'height': 409, 'widthPercent': 0.45, 'rescaleHeight': False, 'trialN': 104, 'loaded': True, 'loadedTime': 4102.700000047684, 'positionName': 'RIGHT', 'positionCoords': [832, 245.5], 'bid': 0.22}]",253989.39999997616,1669833763947,eggsalad,avocado,0.12,0.22,0.1,avocado,2078.9000000953674,2079,2079.2000000476837,True,i,256582.5,2593.100000023842,1669833766540,2593,HRV,HRV_0214,2022-11-30 18:45:40
105,"[{'imgObject': {}, 'id': 'kiwi', 'src': '/static/foodstim60/kiwi.jpg', 'key': 'u', 'origWidth': 410, 'origHeight': 410, 'width': 410, 'height': 410, 'widthPercent': 0.45, 'rescaleHeight': False, 'trialN': 105, 'loaded': True, 'loadedTime': 4019.7000000476837, 'positionName': 'LEFT', 'positionCoords': [358, 245], 'bid': 0.35}, {'imgObject': {}, 'id': 'veggieswithdip', 'src': '/static/foodstim60/veggieswithdip.jpg', 'key': 'i', 'origWidth': 409, 'origHeight': 409, 'width': 409, 'height': 409, 'widthPercent': 0.45, 'rescaleHeight': False, 'trialN': 105, 'loaded': True, 'loadedTime': 4004.5, 'positionName': 'RIGHT', 'positionCoords': [832, 245.5], 'bid': 0.11}]",256582.89999997616,1669833766540,kiwi,veggieswithdip,0.35,0.11,-0.24,kiwi,1506.2000000476837,1507,1506.6000000238419,True,u,258600.10000002384,2017.2000000476837,1669833768557,2017,HRV,HRV_0214,2022-11-30 18:45:40
106,"[{'imgObject': {}, 'id': 'cherry tomato', 'src': '/static/foodstim60/cherry tomato.jpg', 'key': 'u', 'origWidth': 410, 'origHeight': 410, 'width': 410, 'height': 410, 'widthPercent': 0.45, 'rescaleHeight': False, 'trialN': 106, 'loaded': True, 'loadedTime': 4087.899999976158, 'positionName': 'LEFT', 'positionCoords': [358, 245], 'bid': 0.2}, {'imgObject': {}, 'id': 'lox', 'src': '/static/foodstim60/lox.jpg', 'key': 'i', 'origWidth': 410, 'origHeight': 411, 'width': 410, 'height': 411, 'widthPercent': 0.45, 'rescaleHeight': False, 'trialN': 106, 'loaded': True, 'loadedTime': 3920.600000023842, 'positionName': 'RIGHT', 'positionCoords': [832, 244.5], 'bid': 0.15}]",258600.5,1669833768558,cherry tomato,lox,0.2,0.15,-0.05000000000000002,cherry tomato,1495.6000000238419,1497,1496.7000000476837,True,u,260617.39999997616,2016.8999999761581,1669833770575,2017,HRV,HRV_0214,2022-11-30 18:45:40
107,"[{'imgObject': {}, 'id': 'cherry tomato', 'src': '/static/foodstim60/cherry tomato.jpg', 'key': 'u', 'origWidth': 410, 'origHeight': 410, 'width': 410, 'height': 410, 'widthPercent': 0.45, 'rescaleHeight': False, 'trialN': 107, 'loaded': True, 'loadedTime': 4088, 'positionName': 'LEFT', 'positionCoords': [358, 245], 'bid': 0.2}, {'imgObject': {}, 'id': 'sweetpotato', 'src': '/static/foodstim60/sweetpotato.jpg', 'key': 'i', 'origWidth': 410, 'origHeight': 410, 'width': 410, 'height': 410, 'widthPercent': 0.45, 'rescaleHeight': False, 'trialN': 107, 'loaded': True, 'loadedTime': 4101.399999976158, 'positionName': 'RIGHT', 'positionCoords': [832, 245], 'bid': 0.11}]",260617.89999997616,1669833770575,cherry tomato,sweetpotato,0.2,0.11,-0.09000000000000001,cherry tomato,1774,1775,1774.9000000953674,True,u,262906.89999997616,2289.0,1669833772864,2289,HRV,HRV_0214,2022-11-30 18:45:40
108,"[{'imgObject': {}, 'id': 'tacos', 'src': '/static/foodstim60/tacos.jpg', 'key': 'u', 'origWidth': 411, 'origHeight': 411, 'width': 411, 'height': 411, 'widthPercent': 0.45, 'rescaleHeight': False, 'trialN': 108, 'loaded': True, 'loadedTime': 3855.7000000476837, 'positionName': 'LEFT', 'positionCoords': [357, 244.5], 'bid': 1.01}, {'imgObject': {}, 'id': 'hashbrowns', 'src': '/static/foodstim60/hashbrowns.jpg', 'key': 'i', 'origWidth': 411, 'origHeight': 410, 'width': 411, 'height': 410, 'widthPercent': 0.45, 'rescaleHeight': False, 'trialN': 108, 'loaded': True, 'loadedTime': 4110.899999976158, 'positionName': 'RIGHT', 'positionCoords': [832, 245], 'bid': 0.13}]",262907.39999997616,1669833772865,tacos,hashbrowns,1.01,0.13,-0.88,tacos,1339.9000000953674,1341,1340.7000000476837,True,u,264759.7000000477,1852.3000000715256,1669833774717,1852,HRV,HRV_0214,2022-11-30 18:45:40
109,"[{'imgObject': {}, 'id': 'salmon', 'src': '/static/foodstim60/salmon.jpg', 'key': 'u', 'origWidth': 410, 'origHeight': 409, 'width': 410, 'height': 409, 'widthPercent': 0.45, 'rescaleHeight': False, 'trialN': 109, 'loaded': True, 'loadedTime': 3950.8000000715256, 'positionName': 'LEFT', 'positionCoords': [358, 245.5], 'bid': 0.31}, {'imgObject': {}, 'id': 'salad w chicken', 'src': '/static/foodstim60/salad w chicken.jpg', 'key': 'i', 'origWidth': 411, 'origHeight': 411, 'width': 411, 'height': 411, 'widthPercent': 0.45, 'rescaleHeight': False, 'trialN': 109, 'loaded': True, 'loadedTime': 4048.3000000715256, 'positionName': 'RIGHT', 'positionCoords': [832, 244.5], 'bid': 0.26}]",264760.10000002384,1669833774718,salmon,salad w chicken,0.31,0.26,-0.04999999999999999,salmon,2001,2002,2002.1000000238419,True,u,267273.2000000477,2513.100000023842,1669833777231,2513,HRV,HRV_0214,2022-11-30 18:45:40
