success,trial_type,trial_index,time_elapsed,internal_node_id,Block,TrialNumber,TrialTime,trialTimeDiff,FPS_avg,FPS_med,FPS_mode,TrialDur,winResizeTime,rt,block,button_pressed,MotCoh,MotDir,ColCoh,Color,ChoiceKey,Choice,Accuracy,RT,nFrames,FPS,PPD,missTrial,missTrialMsg,onsetDelay,fullScreenExitTime,canvCenter,TrialType,Score,BlockTrial,stimulus,button_labels,exp,subjectId,date
True,fullscreen,0,2395,0.0-0.0,0.0,1.0,,,,,,,,,,,,,,,,,,,,,,,,,,,,,,,,HRV,HRV_0214,2022-11-30 19:12:14
,wl-check-fps,1,7404,0.0-1.0,0.0,2.0,"[2962, 2974.2, 2990.9, 3007.6, 3024.6, 3041.3, 3058.3, 3075.2, 3091.3, 3108.1, 3124.5, 3141.3, 3157.8, 3174.4, 3191.5, 3208.4, 3224.5, 3241.2, 3258, 3274.7, 3291.1, 3307.9, 3324.5, 3341.2, 3357.6, 3374.1, 3390.6, 3407.4, 3424.2, 3441.1, 3458.1, 3474.6, 3491.4, 3507.5, 3524.7, 3540.8, 3557.9, 3574.5, 3590.9, 3607.8, 3624.2, 3641, 3657.9, 3674.5, 3691.1, 3707.9, 3724.3, 3740.5, 3757.2, 3774.3, 3790.9, 3807.9, 3824.5, 3841, 3857.7, 3874.7, 3891.2, 3908, 3924.6, 3941.2, 3957.7, 3974.3, 3991.2, 4007.9, 4024.4, 4041.3, 4057.7, 4074.4, 4091.1, 4107.9, 4124.9, 4141.3, 4158.1, 4174.8, 4191, 4207.9, 4224.7, 4241.3, 4258.1, 4274.9, 4290.7, 4307.5, 4324.2, 4341, 4357.6, 4374.7, 4390.9, 4407.6, 4424.6, 4441.1, 4458, 4474.7, 4490.9, 4507.7, 4524.7, 4541, 4558.1, 4574.6, 4591.3, 4607.8, 4624.1, 4640.6, 4657.6, 4674.4, 4690.9, 4707.8, 4724.5, 4741.1, 4757.6, 4773.9, 4790.4, 4807.6, 4824.6, 4840.8, 4857.7, 4874.7, 4890.9, 4907.9, 4924.6, 4940.8, 4957.8, 4974.7, 4990.9, 5007.9, 5024.6, 5041.1, 5057.8, 5074.6, 5090.9, 5107.6, 5124.5, 5140.9, 5157.8, 5174.5, 5190.9, 5207.8, 5224.5, 5240.9, 5257.7, 5274.7, 5291, 5307.9, 5324.9, 5341.1, 5357, 5373.8, 5390.4, 5407.3, 5424.3, 5440.9, 5457.9, 5474.7, 5490.9, 5507.8, 5524.5, 5540.5, 5557.7, 5574.5, 5590.7, 5607.9, 5623.9, 5640.6, 5657.7, 5674.4, 5690.9, 5707.5, 5724.1, 5740.5, 5756.8, 5773.9, 5790.3, 5807, 5823.9, 5840.7, 5857.7, 5874.7, 5890.9, 5907.5, 5924.3, 5940.7, 5957.8, 5974.2, 5990.9, 6007.4, 6024.2, 6040.8, 6057.5, 6074.1, 6090.9, 6107.9, 6124.4, 6140.8, 6157.5, 6174.1, 6190.8, 6207.9, 6224.2, 6240.8, 6258, 6274.6, 6290.7, 6307.5, 6324.6, 6340.6, 6357.7, 6374.4, 6391, 6407.8, 6424.4, 6441, 6457.8, 6474.3, 6490.7, 6507.2, 6524, 6540.8, 6557.5, 6574.3, 6590.8, 6607.9, 6624.2, 6640.5, 6657.8, 6674.5, 6690.7, 6707.5, 6724.3, 6740.5, 6757.5, 6773.9, 6790.3, 6806.9, 6823.5, 6840.3, 6857, 6882.1, 6889.9, 6906.8, 6923.5, 6940.3, 6957.2, 6974.2, 6990.9, 7007.7, 7024.5, 7040.9, 7057.7, 7074.3, 7090.9, 7107.7, 7124.3, 7141, 7157.8, 7174.3, 7191, 7207.8, 7224.3, 7240.9, 7257.9, 7274, 7290.7, 7307.4, 7324.2, 7340.6, 7357.6, 7373.9, 7390.6, 7407.3, 7424.2, 7440.9, 7457.8, 7474.4, 7491.9, 7506.9, 7523.3, 7540, 7556.8, 7573.7, 7590.3, 7607.5, 7623.8, 7640.6, 7657.4, 7673.9, 7690.6, 7707.4, 7724.1, 7740.7, 7757.6, 7773.6, 7790.1, 7807.1, 7823.6, 7840.7, 7857.4, 7874, 7890.5, 7907.5, 7924.2, 7940.7]","[5.3, 12.2, 16.7, 16.7, 17, 16.7, 17, 16.9, 16.1, 16.8, 16.4, 16.8, 16.5, 16.6, 17.1, 16.9, 16.1, 16.7, 16.8, 16.7, 16.4, 16.8, 16.6, 16.7, 16.4, 16.5, 16.5, 16.8, 16.8, 16.9, 17, 16.5, 16.8, 16.1, 17.2, 16.1, 17.1, 16.6, 16.4, 16.9, 16.4, 16.8, 16.9, 16.6, 16.6, 16.8, 16.4, 16.2, 16.7, 17.1, 16.6, 17, 16.6, 16.5, 16.7, 17, 16.5, 16.8, 16.6, 16.6, 16.5, 16.6, 16.9, 16.7, 16.5, 16.9, 16.4, 16.7, 16.7, 16.8, 17, 16.4, 16.8, 16.7, 16.2, 16.9, 16.8, 16.6, 16.8, 16.8, 15.8, 16.8, 16.7, 16.8, 16.6, 17.1, 16.2, 16.7, 17, 16.5, 16.9, 16.7, 16.2, 16.8, 17, 16.3, 17.1, 16.5, 16.7, 16.5, 16.3, 16.5, 17, 16.8, 16.5, 16.9, 16.7, 16.6, 16.5, 16.3, 16.5, 17.2, 17, 16.2, 16.9, 17, 16.2, 17, 16.7, 16.2, 17, 16.9, 16.2, 17, 16.7, 16.5, 16.7, 16.8, 16.3, 16.7, 16.9, 16.4, 16.9, 16.7, 16.4, 16.9, 16.7, 16.4, 16.8, 17, 16.3, 16.9, 17, 16.2, 15.9, 16.8, 16.6, 16.9, 17, 16.6, 17, 16.8, 16.2, 16.9, 16.7, 16, 17.2, 16.8, 16.2, 17.2, 16, 16.7, 17.1, 16.7, 16.5, 16.6, 16.6, 16.4, 16.3, 17.1, 16.4, 16.7, 16.9, 16.8, 17, 17, 16.2, 16.6, 16.8, 16.4, 17.1, 16.4, 16.7, 16.5, 16.8, 16.6, 16.7, 16.6, 16.8, 17, 16.5, 16.4, 16.7, 16.6, 16.7, 17.1, 16.3, 16.6, 17.2, 16.6, 16.1, 16.8, 17.1, 16, 17.1, 16.7, 16.6, 16.8, 16.6, 16.6, 16.8, 16.5, 16.4, 16.5, 16.8, 16.8, 16.7, 16.8, 16.5, 17.1, 16.3, 16.3, 17.3, 16.7, 16.2, 16.8, 16.8, 16.2, 17, 16.4, 16.4, 16.6, 16.6, 16.8, 16.7, 25.1, 7.8, 16.9, 16.7, 16.8, 16.9, 17, 16.7, 16.8, 16.8, 16.4, 16.8, 16.6, 16.6, 16.8, 16.6, 16.7, 16.8, 16.5, 16.7, 16.8, 16.5, 16.6, 17, 16.1, 16.7, 16.7, 16.8, 16.4, 17, 16.3, 16.7, 16.7, 16.9, 16.7, 16.9, 16.6, 17.5, 15, 16.4, 16.7, 16.8, 16.9, 16.6, 17.2, 16.3, 16.8, 16.8, 16.5, 16.7, 16.8, 16.7, 16.6, 16.9, 16, 16.5, 17, 16.5, 17.1, 16.7, 16.6, 16.5, 17, 16.7, 16.5]",60.0,60.0,60.0,5001.0,[],,,,,,,,,,,,,,,,,,,,,,,,,HRV,HRV_0214,2022-11-30 19:12:14
,wl-html-keyboard-response,2,40430,0.0-2.0-0.0,0.0,3.0,,,,,,,,31013.100000023842,0.0,0,,,,,,,,,,,,,,,,,,,,,,HRV,HRV_0214,2022-11-30 19:12:14
,wl-rdm,3,49345,0.0-3.0-0.0,0.0,4.0,,,,,,,[],,,,0.0,0.0,87.9,0.0,u,0.0,True,3333.2000000476837,200.0,60.0,40.0,False,,3000.0,[],"[800, 450]",ColorTask_Demo,,,,,HRV,HRV_0214,2022-11-30 19:12:14
,wl-rdm,4,55328,0.0-3.0-1.0,0.0,5.0,,,,,,,[],,,,0.0,0.0,87.9,1.0,i,1.0,True,1895.5,114.0,60.0,40.0,False,,2000.0,[],"[800, 450]",ColorTask_Demo,,,,,HRV,HRV_0214,2022-11-30 19:12:14
,wl-html-keyboard-response,5,76832,0.0-3.0-2.0,0.0,6.0,,,,,,,,19485.800000071526,0.0,1,,,,,,,,,,,,,,,,,,,,,,HRV,HRV_0214,2022-11-30 19:12:14
,wl-html-keyboard-response,6,90510,0.0-4.0-0.0,0.0,7.0,,,,,,,,11670.5,0.0,0,,,,,,,,,,,,,,,,,,,,,,HRV,HRV_0214,2022-11-30 19:12:14
,wl-html-keyboard-response,7,98038,0.0-5.0-0.0,0.0,8.0,,,,,,,,5520.0,0.0,0,,,,,,,,,,,,,,,,,,,,,,HRV,HRV_0214,2022-11-30 19:12:14
,wl-rdm,8,102422,0.0-6.0-0.0,0.0,8.0,,,,,,,[],,,,,,50.0,1.0,,,,,179.0,60.0,40.0,True,RT_timeout ,277.44853837128534,[],"[800, 450]",ColorTask,-1.0,1.0,,,HRV,HRV_0214,2022-11-30 19:12:14
,wl-rdm,9,103505,0.0-6.1-0.1,0.0,8.0,,,,,,,[],,,,,,62.5,1.0,i,,,230.79999995231628,0.0,60.0,40.0,True,too_early ,236.83438585023038,[],"[800, 450]",ColorTask,-2.0,2.0,,,HRV,HRV_0214,2022-11-30 19:12:14
,wl-rdm,10,107071,0.0-6.2-0.2,0.0,9.0,,,,,,,[],,,,,,56.4,0.0,u,0.0,True,2203.899999976158,133.0,60.0,40.0,False,,266.3540387646251,[],"[800, 450]",ColorTask,-1.0,3.0,,,HRV,HRV_0214,2022-11-30 19:12:14
,wl-rdm,11,110104,0.0-6.3-0.3,0.0,10.0,,,,,,,[],,,,,,50.0,0.0,u,0.0,True,1615.6000000238419,97.0,60.0,40.0,False,,342.765229675962,[],"[800, 450]",ColorTask,0.0,4.0,,,HRV,HRV_0214,2022-11-30 19:12:14
,wl-rdm,12,113219,0.0-6.4-0.4,0.0,11.0,,,,,,,[],,,,,,53.2,0.0,i,1.0,False,1739.3999999761581,105.0,60.0,40.0,False,,298.1336217207345,[],"[800, 450]",ColorTask,-1.0,5.0,,,HRV,HRV_0214,2022-11-30 19:12:14
,wl-rdm,13,116020,0.0-6.5-0.5,0.0,12.0,,,,,,,[],,,,,,73.6,0.0,u,0.0,True,1465.9000000953674,88.0,60.0,40.0,False,,269.022573550152,[],"[800, 450]",ColorTask,0.0,6.0,,,HRV,HRV_0214,2022-11-30 19:12:14
,wl-rdm,14,118486,0.0-6.6-0.6,0.0,13.0,,,,,,,[],,,,,,87.9,0.0,u,0.0,True,1102.9000000953674,67.0,60.0,40.0,False,,293.0404313911958,[],"[800, 450]",ColorTask,1.0,7.0,,,HRV,HRV_0214,2022-11-30 19:12:14
,wl-rdm,15,121053,0.0-6.7-0.7,0.0,14.0,,,,,,,[],,,,,,56.4,0.0,i,1.0,False,1145.6999999284744,69.0,60.0,40.0,False,,362.7530347760589,[],"[800, 450]",ColorTask,0.0,8.0,,,HRV,HRV_0214,2022-11-30 19:12:14
,wl-rdm,16,123669,0.0-6.8-0.8,0.0,15.0,,,,,,,[],,,,,,53.2,1.0,i,1.0,True,1253.1999999284744,76.0,60.0,40.0,False,,281.4888009568838,[],"[800, 450]",ColorTask,1.0,9.0,,,HRV,HRV_0214,2022-11-30 19:12:14
,wl-rdm,17,126403,0.0-6.9-0.9,0.0,16.0,,,,,,,[],,,,,,50.0,0.0,i,1.0,False,1299.7999999523163,78.0,60.0,40.0,False,,364.771988296314,[],"[800, 450]",ColorTask,0.0,10.0,,,HRV,HRV_0214,2022-11-30 19:12:14
,wl-rdm,18,129067,0.0-6.10-0.10,0.0,17.0,,,,,,,[],,,,,,56.4,1.0,i,1.0,True,1384.8999999761581,84.0,60.0,40.0,False,,211.84104360752477,[],"[800, 450]",ColorTask,1.0,11.0,,,HRV,HRV_0214,2022-11-30 19:12:14
,wl-rdm,19,131851,0.0-6.11-0.11,0.0,18.0,,,,,,,[],,,,,,50.0,0.0,i,1.0,False,1330.5,80.0,60.0,40.0,False,,381.28244556333016,[],"[800, 450]",ColorTask,0.0,12.0,,,HRV,HRV_0214,2022-11-30 19:12:14
,wl-rdm,20,134433,0.0-6.12-0.12,0.0,19.0,,,,,,,[],,,,,,73.6,1.0,i,1.0,True,1297.6999999284744,78.0,60.0,40.0,False,,220.77242583957113,[],"[800, 450]",ColorTask,1.0,13.0,,,HRV,HRV_0214,2022-11-30 19:12:14
,wl-rdm,21,136600,0.0-6.13-0.13,0.0,20.0,,,,,,,[],,,,,,87.9,1.0,i,1.0,True,866.3999999761581,51.0,60.0,40.0,False,,229.19195065151752,[],"[800, 450]",ColorTask,2.0,14.0,,,HRV,HRV_0214,2022-11-30 19:12:14
,wl-rdm,22,139267,0.0-6.14-0.14,0.0,21.0,,,,,,,[],,,,,,50.0,0.0,u,0.0,True,1352.3000000715256,82.0,60.0,40.0,False,,236.2674077163065,[],"[800, 450]",ColorTask,3.0,15.0,,,HRV,HRV_0214,2022-11-30 19:12:14
,wl-rdm,23,141633,0.0-6.15-0.15,0.0,22.0,,,,,,,[],,,,,,87.9,0.0,u,0.0,True,1043.3999999761581,63.0,60.0,40.0,False,,253.82232522571326,[],"[800, 450]",ColorTask,4.0,16.0,,,HRV,HRV_0214,2022-11-30 19:12:14
,wl-rdm,24,144366,0.0-6.16-0.16,0.0,23.0,,,,,,,[],,,,,,56.4,0.0,u,0.0,True,1458.1999999284744,88.0,60.0,40.0,False,,201.78160266431127,[],"[800, 450]",ColorTask,5.0,17.0,,,HRV,HRV_0214,2022-11-30 19:12:14
,wl-rdm,25,146899,0.0-6.17-0.17,0.0,24.0,,,,,,,[],,,,,,50.0,0.0,i,1.0,False,1204.5999999046326,73.0,60.0,40.0,False,,235.1910475591635,[],"[800, 450]",ColorTask,4.0,18.0,,,HRV,HRV_0214,2022-11-30 19:12:14
,wl-rdm,26,149515,0.0-6.18-0.18,0.0,25.0,,,,,,,[],,,,,,73.6,1.0,i,1.0,True,1169.9000000953674,71.0,60.0,40.0,False,,361.68524614792364,[],"[800, 450]",ColorTask,5.0,19.0,,,HRV,HRV_0214,2022-11-30 19:12:14
,wl-rdm,27,152032,0.0-6.19-0.19,0.0,26.0,,,,,,,[],,,,,,62.5,1.0,i,1.0,True,1077.1999999284744,65.0,60.0,40.0,False,,367.7431250223777,[],"[800, 450]",ColorTask,6.0,20.0,,,HRV,HRV_0214,2022-11-30 19:12:14
,wl-rdm,28,154598,0.0-6.20-0.20,0.0,27.0,,,,,,,[],,,,,,53.2,1.0,u,0.0,False,1294.0999999046326,78.0,60.0,40.0,False,,215.2677153826729,[],"[800, 450]",ColorTask,5.0,21.0,,,HRV,HRV_0214,2022-11-30 19:12:14
,wl-rdm,29,157281,0.0-6.21-0.21,0.0,28.0,,,,,,,[],,,,,,53.2,1.0,i,1.0,True,1387.0,84.0,60.0,40.0,False,,225.68107818400972,[],"[800, 450]",ColorTask,6.0,22.0,,,HRV,HRV_0214,2022-11-30 19:12:14
,wl-rdm,30,160081,0.0-6.22-0.22,0.0,29.0,,,,,,,[],,,,,,50.0,1.0,i,1.0,True,1480.1000000238419,89.0,60.0,40.0,False,,239.41509919613435,[],"[800, 450]",ColorTask,7.0,23.0,,,HRV,HRV_0214,2022-11-30 19:12:14
,wl-rdm,31,162747,0.0-6.23-0.23,0.0,30.0,,,,,,,[],,,,,,53.2,1.0,i,1.0,True,1299.3999999761581,78.0,60.0,40.0,False,,299.90327818133676,[],"[800, 450]",ColorTask,8.0,24.0,,,HRV,HRV_0214,2022-11-30 19:12:14
,wl-rdm,32,165647,0.0-6.24-0.24,0.0,31.0,,,,,,,[],,,,,,50.0,1.0,i,1.0,True,1563.9999998807907,94.0,60.0,40.0,False,,255.08664792531263,[],"[800, 450]",ColorTask,9.0,25.0,,,HRV,HRV_0214,2022-11-30 19:12:14
,wl-rdm,33,168480,0.0-6.25-0.25,0.0,32.0,,,,,,,[],,,,,,56.4,0.0,u,0.0,True,1520.0000001192093,92.0,60.0,40.0,False,,232.4054724245091,[],"[800, 450]",ColorTask,10.0,26.0,,,HRV,HRV_0214,2022-11-30 19:12:14
,wl-rdm,34,170796,0.0-6.26-0.26,0.0,33.0,,,,,,,[],,,,,,87.9,1.0,i,1.0,True,965.0,58.0,60.0,40.0,False,,283.72546677935327,[],"[800, 450]",ColorTask,11.0,27.0,,,HRV,HRV_0214,2022-11-30 19:12:14
,wl-rdm,35,173262,0.0-6.27-0.27,0.0,34.0,,,,,,,[],,,,,,73.6,1.0,i,1.0,True,1009.0,61.0,60.0,40.0,False,,374.22399623169093,[],"[800, 450]",ColorTask,12.0,28.0,,,HRV,HRV_0214,2022-11-30 19:12:14
,wl-rdm,36,176211,0.0-6.28-0.28,0.0,35.0,,,,,,,[],,,,,,62.5,0.0,i,1.0,False,1547.8000000715256,93.0,60.0,40.0,False,,326.29873851775244,[],"[800, 450]",ColorTask,11.0,29.0,,,HRV,HRV_0214,2022-11-30 19:12:14
,wl-rdm,37,178679,0.0-6.29-0.29,0.0,36.0,,,,,,,[],,,,,,73.6,1.0,i,1.0,True,1041.1999999284744,63.0,60.0,40.0,False,,352.54936893481675,[],"[800, 450]",ColorTask,12.0,30.0,,,HRV,HRV_0214,2022-11-30 19:12:14
,wl-rdm,38,181227,0.0-6.30-0.30,0.0,37.0,,,,,,,[],,,,,,87.9,0.0,u,0.0,True,1085.6999999284744,66.0,60.0,40.0,False,,367.95406009040624,[],"[800, 450]",ColorTask,13.0,31.0,,,HRV,HRV_0214,2022-11-30 19:12:14
,wl-rdm,39,183895,0.0-6.31-0.31,0.0,38.0,,,,,,,[],,,,,,53.2,1.0,u,0.0,False,1376.0999999046326,83.0,60.0,40.0,False,,225.5438362910362,[],"[800, 450]",ColorTask,12.0,32.0,,,HRV,HRV_0214,2022-11-30 19:12:14
,wl-rdm,40,186211,0.0-6.32-0.32,0.0,39.0,,,,,,,[],,,,,,50.0,1.0,i,1.0,True,994.3999999761581,60.0,60.0,40.0,False,,238.58194993308123,[],"[800, 450]",ColorTask,13.0,33.0,,,HRV,HRV_0214,2022-11-30 19:12:14
,wl-rdm,41,188743,0.0-6.33-0.33,0.0,40.0,,,,,,,[],,,,,,62.5,0.0,u,0.0,True,1261.2999999523163,76.0,60.0,40.0,False,,212.4354381885623,[],"[800, 450]",ColorTask,14.0,34.0,,,HRV,HRV_0214,2022-11-30 19:12:14
,wl-rdm,42,191044,0.0-6.34-0.34,0.0,41.0,,,,,,,[],,,,,,53.2,0.0,i,1.0,False,924.4000000953674,56.0,60.0,40.0,False,,304.02167862444475,[],"[800, 450]",ColorTask,13.0,35.0,,,HRV,HRV_0214,2022-11-30 19:12:14
,wl-rdm,43,193444,0.0-6.35-0.35,0.0,42.0,,,,,,,[],,,,,,73.6,1.0,i,1.0,True,1066.8999999761581,64.0,60.0,40.0,False,,241.3327852232226,[],"[800, 450]",ColorTask,14.0,36.0,,,HRV,HRV_0214,2022-11-30 19:12:14
,wl-rdm,44,195960,0.0-6.36-0.36,0.0,43.0,,,,,,,[],,,,,,62.5,1.0,i,1.0,True,1125.6000000238419,68.0,60.0,40.0,False,,320.3112515581648,[],"[800, 450]",ColorTask,15.0,37.0,,,HRV,HRV_0214,2022-11-30 19:12:14
,wl-rdm,45,198559,0.0-6.37-0.37,0.0,44.0,,,,,,,[],,,,,,53.2,0.0,i,1.0,False,1291.8000000715256,78.0,60.0,40.0,False,,221.32387299303394,[],"[800, 450]",ColorTask,14.0,38.0,,,HRV,HRV_0214,2022-11-30 19:12:14
,wl-rdm,46,200925,0.0-6.38-0.38,0.0,45.0,,,,,,,[],,,,,,56.4,1.0,i,1.0,True,997.0,60.0,60.0,40.0,False,,295.43428891109585,[],"[800, 450]",ColorTask,15.0,39.0,,,HRV,HRV_0214,2022-11-30 19:12:14
,wl-rdm,47,203143,0.0-6.39-0.39,0.0,46.0,,,,,,,[],,,,,,62.5,1.0,i,1.0,True,928.0,56.0,60.0,40.0,False,,217.60072416321668,[],"[800, 450]",ColorTask,16.0,40.0,,,HRV,HRV_0214,2022-11-30 19:12:14
,wl-rdm,48,205542,0.0-6.40-0.40,0.0,47.0,,,,,,,[],,,,,,62.5,0.0,u,0.0,True,996.0999999046326,60.0,60.0,40.0,False,,343.16002495219686,[],"[800, 450]",ColorTask,17.0,41.0,,,HRV,HRV_0214,2022-11-30 19:12:14
,wl-rdm,49,208375,0.0-6.41-0.41,0.0,48.0,,,,,,,[],,,,,,56.4,0.0,u,0.0,True,1369.6000000238419,83.0,60.0,40.0,False,,387.64821633593453,[],"[800, 450]",ColorTask,18.0,42.0,,,HRV,HRV_0214,2022-11-30 19:12:14
,wl-rdm,50,210959,0.0-6.42-0.42,0.0,49.0,,,,,,,[],,,,,,73.6,1.0,i,1.0,True,1121.1999999284744,68.0,60.0,40.0,False,,385.01796325108285,[],"[800, 450]",ColorTask,19.0,43.0,,,HRV,HRV_0214,2022-11-30 19:12:14
,wl-rdm,51,213508,0.0-6.43-0.43,0.0,50.0,,,,,,,[],,,,,,56.4,0.0,i,1.0,False,1236.7999999523163,75.0,60.0,40.0,False,,225.23429168377365,[],"[800, 450]",ColorTask,18.0,44.0,,,HRV,HRV_0214,2022-11-30 19:12:14
,wl-rdm,52,215675,0.0-6.44-0.44,0.0,51.0,,,,,,,[],,,,,,87.9,0.0,u,0.0,True,862.1999999284744,52.0,60.0,40.0,False,,231.29275830198736,[],"[800, 450]",ColorTask,19.0,45.0,,,HRV,HRV_0214,2022-11-30 19:12:14
,wl-rdm,53,217907,0.0-6.45-0.45,0.0,52.0,,,,,,,[],,,,,,73.6,1.0,i,1.0,True,958.7999999523163,58.0,60.0,40.0,False,,209.40716210960176,[],"[800, 450]",ColorTask,20.0,46.0,,,HRV,HRV_0214,2022-11-30 19:12:14
,wl-rdm,54,220674,0.0-6.46-0.46,0.0,53.0,,,,,,,[],,,,,,56.4,1.0,i,1.0,True,1353.2000000476837,82.0,60.0,40.0,False,,319.23883201263527,[],"[800, 450]",ColorTask,21.0,47.0,,,HRV,HRV_0214,2022-11-30 19:12:14
,wl-rdm,55,223823,0.0-6.47-0.47,0.0,54.0,,,,,,,[],,,,,,50.0,1.0,u,0.0,False,1736.2999999523163,105.0,60.0,40.0,False,,318.38880250917714,[],"[800, 450]",ColorTask,20.0,48.0,,,HRV,HRV_0214,2022-11-30 19:12:14
,wl-rdm,56,226123,0.0-6.48-0.48,0.0,55.0,,,,,,,[],,,,,,56.4,1.0,i,1.0,True,846.3000000715256,51.0,60.0,40.0,False,,386.91583535760265,[],"[800, 450]",ColorTask,21.0,49.0,,,HRV,HRV_0214,2022-11-30 19:12:14
,wl-rdm,57,228773,0.0-6.49-0.49,0.0,56.0,,,,,,,[],,,,,,73.6,0.0,u,0.0,True,1275.4000000953674,77.0,60.0,40.0,False,,316.6649987492331,[],"[800, 450]",ColorTask,22.0,50.0,,,HRV,HRV_0214,2022-11-30 19:12:14
,wl-rdm,58,231323,0.0-6.50-0.50,0.0,57.0,,,,,,,[],,,,,,62.5,1.0,i,1.0,True,1223.3000000715256,74.0,60.0,40.0,False,,253.59637509506288,[],"[800, 450]",ColorTask,23.0,51.0,,,HRV,HRV_0214,2022-11-30 19:12:14
,wl-rdm,59,233588,0.0-6.51-0.51,0.0,58.0,,,,,,,[],,,,,,87.9,0.0,u,0.0,True,967.7999999523163,59.0,60.0,40.0,False,,221.3592408646044,[],"[800, 450]",ColorTask,24.0,52.0,,,HRV,HRV_0214,2022-11-30 19:12:14
,wl-rdm,60,236055,0.0-6.52-0.52,0.0,59.0,,,,,,,[],,,,,,50.0,1.0,i,1.0,True,1180.2999999523163,71.0,60.0,40.0,False,,217.37731491316407,[],"[800, 450]",ColorTask,25.0,53.0,,,HRV,HRV_0214,2022-11-30 19:12:14
,wl-rdm,61,238672,0.0-6.53-0.53,0.0,60.0,,,,,,,[],,,,,,56.4,0.0,u,0.0,True,1302.9000000953674,79.0,60.0,40.0,False,,230.9856960176553,[],"[800, 450]",ColorTask,26.0,54.0,,,HRV,HRV_0214,2022-11-30 19:12:14
,wl-rdm,62,241638,0.0-6.54-0.54,0.0,61.0,,,,,,,[],,,,,,50.0,0.0,i,1.0,False,1630.3999999761581,98.0,60.0,40.0,False,,281.7547131383186,[],"[800, 450]",ColorTask,25.0,55.0,,,HRV,HRV_0214,2022-11-30 19:12:14
,wl-rdm,63,244671,0.0-6.55-0.55,0.0,62.0,,,,,,,[],,,,,,73.6,0.0,u,0.0,True,1653.2000000476837,100.0,60.0,40.0,False,,285.1102745267051,[],"[800, 450]",ColorTask,26.0,56.0,,,HRV,HRV_0214,2022-11-30 19:12:14
,wl-rdm,64,247487,0.0-6.56-0.56,0.0,63.0,,,,,,,[],,,,,,73.6,0.0,u,0.0,True,1361.0999999046326,82.0,60.0,40.0,False,,371.61984972764947,[],"[800, 450]",ColorTask,27.0,57.0,,,HRV,HRV_0214,2022-11-30 19:12:14
,wl-rdm,65,249837,0.0-6.57-0.57,0.0,64.0,,,,,,,[],,,,,,87.9,0.0,u,0.0,True,935.1999999284744,57.0,60.0,40.0,False,,335.77114100387945,[],"[800, 450]",ColorTask,28.0,58.0,,,HRV,HRV_0214,2022-11-30 19:12:14
,wl-rdm,66,251953,0.0-6.58-0.58,0.0,65.0,,,,,,,[],,,,,,87.9,1.0,i,1.0,True,823.2000000476837,50.0,60.0,40.0,False,,212.4986896139401,[],"[800, 450]",ColorTask,29.0,59.0,,,HRV,HRV_0214,2022-11-30 19:12:14
,wl-rdm,67,254386,0.0-6.59-0.59,0.0,66.0,,,,,,,[],,,,,,53.2,0.0,u,0.0,True,1164.3000000715256,70.0,60.0,40.0,False,,214.17266012253623,[],"[800, 450]",ColorTask,30.0,60.0,,,HRV,HRV_0214,2022-11-30 19:12:14
,wl-rdm,68,256852,0.0-6.60-0.60,0.0,67.0,,,,,,,[],,,,,,62.5,0.0,u,0.0,True,1147.9000000953674,69.0,60.0,40.0,False,,238.59846122761329,[],"[800, 450]",ColorTask,31.0,61.0,,,HRV,HRV_0214,2022-11-30 19:12:14
,wl-rdm,69,259136,0.0-6.61-0.61,0.0,68.0,,,,,,,[],,,,,,56.4,1.0,i,1.0,True,885.8999999761581,54.0,60.0,40.0,False,,307.1719484097207,[],"[800, 450]",ColorTask,32.0,62.0,,,HRV,HRV_0214,2022-11-30 19:12:14
,wl-rdm,70,261685,0.0-6.62-0.62,0.0,69.0,,,,,,,[],,,,,,50.0,0.0,u,0.0,True,1279.2000000476837,77.0,60.0,40.0,False,,215.76545423329,[],"[800, 450]",ColorTask,33.0,63.0,,,HRV,HRV_0214,2022-11-30 19:12:14
,wl-rdm,71,264052,0.0-6.63-0.63,0.0,70.0,,,,,,,[],,,,,,73.6,0.0,u,0.0,True,1035.1000000238419,63.0,60.0,40.0,False,,247.0892102697835,[],"[800, 450]",ColorTask,34.0,64.0,,,HRV,HRV_0214,2022-11-30 19:12:14
,wl-rdm,72,266768,0.0-6.64-0.64,0.0,71.0,,,,,,,[],,,,,,62.5,0.0,u,0.0,True,1385.6000000238419,84.0,60.0,40.0,False,,252.80977671234626,[],"[800, 450]",ColorTask,35.0,65.0,,,HRV,HRV_0214,2022-11-30 19:12:14
,wl-rdm,73,268934,0.0-6.65-0.65,0.0,72.0,,,,,,,[],,,,,,87.9,0.0,u,0.0,True,752.8999999761581,46.0,60.0,40.0,False,,326.7846759979153,[],"[800, 450]",ColorTask,36.0,66.0,,,HRV,HRV_0214,2022-11-30 19:12:14
,wl-rdm,74,271017,0.0-6.66-0.66,0.0,73.0,,,,,,,[],,,,,,87.9,1.0,i,1.0,True,780.3000000715256,47.0,60.0,40.0,False,,221.99995973300352,[],"[800, 450]",ColorTask,37.0,67.0,,,HRV,HRV_0214,2022-11-30 19:12:14
,wl-rdm,75,273401,0.0-6.67-0.67,0.0,74.0,,,,,,,[],,,,,,53.2,0.0,i,1.0,False,925.1000000238419,56.0,60.0,40.0,False,,397.5283214991647,[],"[800, 450]",ColorTask,36.0,68.0,,,HRV,HRV_0214,2022-11-30 19:12:14
,wl-rdm,76,275799,0.0-6.68-0.68,0.0,75.0,,,,,,,[],,,,,,73.6,0.0,u,0.0,True,1057.5,64.0,60.0,40.0,False,,258.06627546851655,[],"[800, 450]",ColorTask,37.0,69.0,,,HRV,HRV_0214,2022-11-30 19:12:14
,wl-rdm,77,278200,0.0-6.69-0.69,0.0,76.0,,,,,,,[],,,,,,50.0,1.0,i,1.0,True,1095.2999999523163,66.0,60.0,40.0,False,,243.37091314168478,[],"[800, 450]",ColorTask,38.0,70.0,,,HRV,HRV_0214,2022-11-30 19:12:14
,wl-rdm,78,280883,0.0-6.70-0.70,0.0,77.0,,,,,,,[],,,,,,62.5,1.0,u,0.0,False,1378.7000000476837,83.0,60.0,40.0,False,,224.52311870447238,[],"[800, 450]",ColorTask,37.0,71.0,,,HRV,HRV_0214,2022-11-30 19:12:14
,wl-rdm,79,283350,0.0-6.71-0.71,0.0,78.0,,,,,,,[],,,,,,56.4,1.0,i,1.0,True,1179.2000000476837,71.0,60.0,40.0,False,,209.15312096260837,[],"[800, 450]",ColorTask,38.0,72.0,,,HRV,HRV_0214,2022-11-30 19:12:14
,wl-rdm,80,285782,0.0-6.72-0.72,0.0,79.0,,,,,,,[],,,,,,62.5,1.0,i,1.0,True,1057.8999998569489,64.0,60.0,40.0,False,,311.1015335889414,[],"[800, 450]",ColorTask,39.0,73.0,,,HRV,HRV_0214,2022-11-30 19:12:14
,wl-rdm,81,288549,0.0-6.73-0.73,0.0,80.0,,,,,,,[],,,,,,56.4,1.0,i,1.0,True,1349.6000000238419,81.0,60.0,40.0,False,,345.09535293627573,[],"[800, 450]",ColorTask,40.0,74.0,,,HRV,HRV_0214,2022-11-30 19:12:14
,wl-rdm,82,290832,0.0-6.74-0.74,0.0,81.0,,,,,,,[],,,,,,73.6,1.0,i,1.0,True,820.2999999523163,50.0,60.0,40.0,False,,367.9859886623831,[],"[800, 450]",ColorTask,41.0,75.0,,,HRV,HRV_0214,2022-11-30 19:12:14
,wl-rdm,83,293464,0.0-6.75-0.75,0.0,82.0,,,,,,,[],,,,,,62.5,0.0,u,0.0,True,1236.3000000715256,75.0,60.0,40.0,False,,313.0739899931868,[],"[800, 450]",ColorTask,42.0,76.0,,,HRV,HRV_0214,2022-11-30 19:12:14
,wl-rdm,84,296365,0.0-6.76-0.76,0.0,83.0,,,,,,,[],,,,,,50.0,1.0,u,0.0,False,1487.5,90.0,60.0,40.0,False,,336.73009293648005,[],"[800, 450]",ColorTask,41.0,77.0,,,HRV,HRV_0214,2022-11-30 19:12:14
,wl-rdm,85,298814,0.0-6.77-0.77,0.0,84.0,,,,,,,[],,,,,,53.2,0.0,i,1.0,False,1030.3000000715256,62.0,60.0,40.0,False,,357.6131176548032,[],"[800, 450]",ColorTask,40.0,78.0,,,HRV,HRV_0214,2022-11-30 19:12:14
,wl-rdm,86,301113,0.0-6.78-0.78,0.0,85.0,,,,,,,[],,,,,,50.0,1.0,i,1.0,True,952.1000000238419,58.0,60.0,40.0,False,,257.9091097137502,[],"[800, 450]",ColorTask,41.0,79.0,,,HRV,HRV_0214,2022-11-30 19:12:14
,wl-rdm,87,303463,0.0-6.79-0.79,0.0,86.0,,,,,,,[],,,,,,53.2,1.0,i,1.0,True,904.1999999284744,55.0,60.0,40.0,False,,366.27135887813847,[],"[800, 450]",ColorTask,42.0,80.0,,,HRV,HRV_0214,2022-11-30 19:12:14
,wl-rdm,88,305713,0.0-6.80-0.80,0.0,87.0,,,,,,,[],,,,,,62.5,1.0,i,1.0,True,820.6000000238419,50.0,60.0,40.0,False,,357.52486666608763,[],"[800, 450]",ColorTask,43.0,81.0,,,HRV,HRV_0214,2022-11-30 19:12:14
,wl-rdm,89,308296,0.0-6.81-0.81,0.0,88.0,,,,,,,[],,,,,,50.0,0.0,i,1.0,False,1258.6000000238419,76.0,60.0,40.0,False,,247.6505942985705,[],"[800, 450]",ColorTask,42.0,82.0,,,HRV,HRV_0214,2022-11-30 19:12:14
,wl-rdm,90,310613,0.0-6.82-0.82,0.0,89.0,,,,,,,[],,,,,,62.5,0.0,u,0.0,True,1029.1000000238419,62.0,60.0,40.0,False,,232.5834738413119,[],"[800, 450]",ColorTask,43.0,83.0,,,HRV,HRV_0214,2022-11-30 19:12:14
,wl-rdm,91,313013,0.0-6.83-0.83,0.0,90.0,,,,,,,[],,,,,,62.5,0.0,u,0.0,True,964.6000000238419,58.0,60.0,40.0,False,,379.7751301977843,[],"[800, 450]",ColorTask,44.0,84.0,,,HRV,HRV_0214,2022-11-30 19:12:14
,wl-rdm,92,315260,0.0-6.84-0.84,0.0,91.0,,,,,,,[],,,,,,87.9,1.0,i,1.0,True,772.8999999761581,47.0,60.0,40.0,False,,396.5284886227746,[],"[800, 450]",ColorTask,45.0,85.0,,,HRV,HRV_0214,2022-11-30 19:12:14
,wl-rdm,93,317444,0.0-6.85-0.85,0.0,92.0,,,,,,,[],,,,,,87.9,0.0,u,0.0,True,854.1000000238419,52.0,60.0,40.0,False,,234.2670091654425,[],"[800, 450]",ColorTask,46.0,86.0,,,HRV,HRV_0214,2022-11-30 19:12:14
,wl-rdm,94,320510,0.0-6.86-0.86,0.0,93.0,,,,,,,[],,,,,,53.2,1.0,i,1.0,True,1614.8000000715256,97.0,60.0,40.0,False,,379.3110797534151,[],"[800, 450]",ColorTask,47.0,87.0,,,HRV,HRV_0214,2022-11-30 19:12:14
,wl-rdm,95,323093,0.0-6.87-0.87,0.0,94.0,,,,,,,[],,,,,,53.2,0.0,i,1.0,False,1102.5,67.0,60.0,40.0,False,,385.90925675271853,[],"[800, 450]",ColorTask,46.0,88.0,,,HRV,HRV_0214,2022-11-30 19:12:14
,wl-rdm,96,325510,0.0-6.88-0.88,0.0,95.0,,,,,,,[],,,,,,62.5,1.0,i,1.0,True,953.5,58.0,60.0,40.0,False,,380.77196356473723,[],"[800, 450]",ColorTask,47.0,89.0,,,HRV,HRV_0214,2022-11-30 19:12:14
,wl-rdm,97,328326,0.0-6.89-0.89,0.0,96.0,,,,,,,[],,,,,,53.2,1.0,u,0.0,False,1493.8999999761581,90.0,60.0,40.0,False,,253.59585939721234,[],"[800, 450]",ColorTask,46.0,90.0,,,HRV,HRV_0214,2022-11-30 19:12:14
,wl-rdm,98,330726,0.0-6.90-0.90,0.0,97.0,,,,,,,[],,,,,,73.6,0.0,u,0.0,True,1122.8000000715256,68.0,60.0,40.0,False,,212.05224536134045,[],"[800, 450]",ColorTask,47.0,91.0,,,HRV,HRV_0214,2022-11-30 19:12:14
,wl-rdm,99,332942,0.0-6.91-0.91,0.0,98.0,,,,,,,[],,,,,,87.9,1.0,i,1.0,True,786.5,48.0,60.0,40.0,False,,342.29853340168955,[],"[800, 450]",ColorTask,48.0,92.0,,,HRV,HRV_0214,2022-11-30 19:12:14
,wl-rdm,100,335958,0.0-6.92-0.92,0.0,99.0,,,,,,,[],,,,,,50.0,1.0,u,0.0,False,1680.4999998807907,101.0,60.0,40.0,False,,253.69451955739154,[],"[800, 450]",ColorTask,47.0,93.0,,,HRV,HRV_0214,2022-11-30 19:12:14
,wl-rdm,101,338108,0.0-6.93-0.93,0.0,100.0,,,,,,,[],,,,,,56.4,0.0,u,0.0,True,854.7999999523163,52.0,60.0,40.0,False,,210.29784160452596,[],"[800, 450]",ColorTask,48.0,94.0,,,HRV,HRV_0214,2022-11-30 19:12:14
,wl-rdm,102,340225,0.0-6.94-0.94,0.0,101.0,,,,,,,[],,,,,,87.9,0.0,u,0.0,True,841.2000000476837,51.0,60.0,40.0,False,,208.86842302500392,[],"[800, 450]",ColorTask,49.0,95.0,,,HRV,HRV_0214,2022-11-30 19:12:14
,wl-rdm,103,342507,0.0-6.95-0.95,0.0,102.0,,,,,,,[],,,,,,50.0,0.0,i,1.0,False,979.4000000953674,59.0,60.0,40.0,False,,221.04371366778133,[],"[800, 450]",ColorTask,48.0,96.0,,,HRV,HRV_0214,2022-11-30 19:12:14
,wl-rdm,104,344474,0.0-6.96-0.96,0.0,103.0,,,,,,,[],,,,,,87.9,1.0,i,1.0,True,670.7000000476837,41.0,60.0,40.0,False,,214.9585021546507,[],"[800, 450]",ColorTask,49.0,97.0,,,HRV,HRV_0214,2022-11-30 19:12:14
,wl-rdm,105,346907,0.0-6.97-0.97,0.0,104.0,,,,,,,[],,,,,,53.2,1.0,u,0.0,False,1159.8000000715256,70.0,60.0,40.0,False,,202.92267434392207,[],"[800, 450]",ColorTask,48.0,98.0,,,HRV,HRV_0214,2022-11-30 19:12:14
,wl-rdm,106,349273,0.0-6.98-0.98,0.0,105.0,,,,,,,[],,,,,,62.5,0.0,i,1.0,False,1007.1000000238419,61.0,60.0,40.0,False,,275.51287932157544,[],"[800, 450]",ColorTask,47.0,99.0,,,HRV,HRV_0214,2022-11-30 19:12:14
,wl-rdm,107,351523,0.0-6.99-0.99,0.0,106.0,,,,,,,[],,,,,,56.4,1.0,i,1.0,True,841.1000000238419,51.0,60.0,40.0,False,,317.81619223887844,[],"[800, 450]",ColorTask,48.0,100.0,,,HRV,HRV_0214,2022-11-30 19:12:14
,wl-rdm,108,354039,0.0-6.100-0.100,0.0,107.0,,,,,,,[],,,,,,73.6,0.0,u,0.0,True,1187.6000000238419,72.0,60.0,40.0,False,,255.9824572666662,[],"[800, 450]",ColorTask,49.0,101.0,,,HRV,HRV_0214,2022-11-30 19:12:14
,wl-rdm,109,356172,0.0-6.101-0.101,0.0,108.0,,,,,,,[],,,,,,73.6,0.0,u,0.0,True,840.0999999046326,51.0,60.0,40.0,False,,210.87482226233453,[],"[800, 450]",ColorTask,50.0,102.0,,,HRV,HRV_0214,2022-11-30 19:12:14
,wl-rdm,110,358389,0.0-6.102-0.102,0.0,109.0,,,,,,,[],,,,,,56.4,1.0,i,1.0,True,947.3000000715256,57.0,60.0,40.0,False,,200.20411919763552,[],"[800, 450]",ColorTask,51.0,103.0,,,HRV,HRV_0214,2022-11-30 19:12:14
,wl-rdm,111,360989,0.0-6.103-0.103,0.0,110.0,,,,,,,[],,,,,,53.2,0.0,u,0.0,True,1263.3999998569489,76.0,60.0,40.0,False,,261.3222023377417,[],"[800, 450]",ColorTask,52.0,104.0,,,HRV,HRV_0214,2022-11-30 19:12:14
,wl-rdm,112,363071,0.0-6.104-0.104,0.0,111.0,,,,,,,[],,,,,,87.9,1.0,i,1.0,True,758.3000000715256,46.0,60.0,40.0,False,,261.053844924699,[],"[800, 450]",ColorTask,53.0,105.0,,,HRV,HRV_0214,2022-11-30 19:12:14
,wl-rdm,113,365588,0.0-6.105-0.105,0.0,112.0,,,,,,,[],,,,,,56.4,0.0,u,0.0,True,1128.6000001430511,68.0,60.0,40.0,False,,327.34552973180683,[],"[800, 450]",ColorTask,54.0,106.0,,,HRV,HRV_0214,2022-11-30 19:12:14
,wl-rdm,114,367954,0.0-6.106-0.106,0.0,113.0,,,,,,,[],,,,,,73.6,1.0,i,1.0,True,1069.3000000715256,65.0,60.0,40.0,False,,223.64021246652914,[],"[800, 450]",ColorTask,55.0,107.0,,,HRV,HRV_0214,2022-11-30 19:12:14
,wl-rdm,115,370437,0.0-6.107-0.107,0.0,114.0,,,,,,,[],,,,,,87.9,1.0,i,1.0,True,1140.7999999523163,69.0,60.0,40.0,False,,250.4038797626323,[],"[800, 450]",ColorTask,56.0,108.0,,,HRV,HRV_0214,2022-11-30 19:12:14
,wl-rdm,116,372953,0.0-6.108-0.108,0.0,115.0,,,,,,,[],,,,,,53.2,0.0,u,0.0,True,1190.3999999761581,72.0,60.0,40.0,False,,234.5795952003217,[],"[800, 450]",ColorTask,57.0,109.0,,,HRV,HRV_0214,2022-11-30 19:12:14
,wl-rdm,117,375271,0.0-6.109-0.109,0.0,116.0,,,,,,,[],,,,,,62.5,1.0,i,1.0,True,1002.0,61.0,60.0,40.0,False,,228.18425749618777,[],"[800, 450]",ColorTask,58.0,110.0,,,HRV,HRV_0214,2022-11-30 19:12:14
,wl-html-keyboard-response,118,385839,0.0-7.0-0.0,1.0,117.0,,,,,,,,8554.800000071526,1.0,0,,,,,,,,,,,,,,,,,,,,,,HRV,HRV_0214,2022-11-30 19:12:14
,wl-rdm,119,388503,0.0-8.0-0.0,1.0,118.0,,,,,,,[],,,,,,53.2,0.0,u,0.0,True,1346.9000000953674,81.0,60.0,40.0,False,,233.21234654691142,[],"[800, 450]",ColorTask,59.0,1.0,,,HRV,HRV_0214,2022-11-30 19:12:14
,wl-rdm,120,390702,0.0-8.1-0.1,1.0,119.0,,,,,,,[],,,,,,73.6,1.0,i,1.0,True,751.9999998807907,46.0,60.0,40.0,False,,378.6193225703655,[],"[800, 450]",ColorTask,60.0,2.0,,,HRV,HRV_0214,2022-11-30 19:12:14
,wl-rdm,121,393152,0.0-8.2-0.2,1.0,120.0,,,,,,,[],,,,,,53.2,1.0,i,1.0,True,994.2000000476837,60.0,60.0,40.0,False,,368.9468427480864,[],"[800, 450]",ColorTask,61.0,3.0,,,HRV,HRV_0214,2022-11-30 19:12:14
,wl-rdm,122,395635,0.0-8.3-0.3,1.0,121.0,,,,,,,[],,,,,,53.2,0.0,i,1.0,False,1128.9999998807907,68.0,60.0,40.0,False,,283.53790759338426,[],"[800, 450]",ColorTask,60.0,4.0,,,HRV,HRV_0214,2022-11-30 19:12:14
,wl-rdm,123,398184,0.0-8.4-0.4,1.0,122.0,,,,,,,[],,,,,,56.4,0.0,u,0.0,True,1089.1000000238419,66.0,60.0,40.0,False,,379.0260562457346,[],"[800, 450]",ColorTask,61.0,5.0,,,HRV,HRV_0214,2022-11-30 19:12:14
,wl-rdm,124,400300,0.0-8.5-0.5,1.0,123.0,,,,,,,[],,,,,,56.4,1.0,i,1.0,True,806.0,49.0,60.0,40.0,False,,226.93916871152018,[],"[800, 450]",ColorTask,62.0,6.0,,,HRV,HRV_0214,2022-11-30 19:12:14
,wl-rdm,125,402801,0.0-8.6-0.6,1.0,124.0,,,,,,,[],,,,,,50.0,0.0,i,1.0,False,1209.7999999523163,73.0,60.0,40.0,False,,218.4156600166653,[],"[800, 450]",ColorTask,61.0,7.0,,,HRV,HRV_0214,2022-11-30 19:12:14
,wl-rdm,126,405317,0.0-8.7-0.7,1.0,125.0,,,,,,,[],,,,,,50.0,1.0,u,0.0,False,1161.1000000238419,70.0,60.0,40.0,False,,295.02682589745837,[],"[800, 450]",ColorTask,60.0,8.0,,,HRV,HRV_0214,2022-11-30 19:12:14
,wl-rdm,127,407634,0.0-8.8-0.8,1.0,126.0,,,,,,,[],,,,,,62.5,1.0,i,1.0,True,1010.3999998569489,61.0,60.0,40.0,False,,242.56086079386256,[],"[800, 450]",ColorTask,61.0,9.0,,,HRV,HRV_0214,2022-11-30 19:12:14
,wl-rdm,128,409716,0.0-8.9-0.9,1.0,127.0,,,,,,,[],,,,,,87.9,0.0,u,0.0,True,758.8000000715256,46.0,60.0,40.0,False,,264.40993224900734,[],"[800, 450]",ColorTask,62.0,10.0,,,HRV,HRV_0214,2022-11-30 19:12:14
,wl-rdm,129,412033,0.0-8.10-0.10,1.0,128.0,,,,,,,[],,,,,,50.0,0.0,i,1.0,False,1027.1999999284744,62.0,60.0,40.0,False,,230.42558433585864,[],"[800, 450]",ColorTask,61.0,11.0,,,HRV,HRV_0214,2022-11-30 19:12:14
,wl-rdm,130,414282,0.0-8.11-0.11,1.0,129.0,,,,,,,[],,,,,,87.9,1.0,i,1.0,True,890.2000000476837,54.0,60.0,40.0,False,,270.182661208588,[],"[800, 450]",ColorTask,62.0,12.0,,,HRV,HRV_0214,2022-11-30 19:12:14
,wl-rdm,131,416299,0.0-8.12-0.12,1.0,130.0,,,,,,,[],,,,,,87.9,0.0,u,0.0,True,606.7000000476837,37.0,60.0,40.0,False,,329.66025731936236,[],"[800, 450]",ColorTask,63.0,13.0,,,HRV,HRV_0214,2022-11-30 19:12:14
,wl-rdm,132,418765,0.0-8.13-0.13,1.0,131.0,,,,,,,[],,,,,,56.4,0.0,i,1.0,False,1198.1000000238419,72.0,60.0,40.0,False,,209.44322726749712,[],"[800, 450]",ColorTask,62.0,14.0,,,HRV,HRV_0214,2022-11-30 19:12:14
,wl-rdm,133,420881,0.0-8.14-0.14,1.0,132.0,,,,,,,[],,,,,,56.4,1.0,i,1.0,True,815.2000000476837,49.0,60.0,40.0,False,,233.8887937680973,[],"[800, 450]",ColorTask,63.0,15.0,,,HRV,HRV_0214,2022-11-30 19:12:14
,wl-rdm,134,422964,0.0-8.15-0.15,1.0,133.0,,,,,,,[],,,,,,53.2,1.0,i,1.0,True,765.5,46.0,60.0,40.0,False,,245.80339340341553,[],"[800, 450]",ColorTask,64.0,16.0,,,HRV,HRV_0214,2022-11-30 19:12:14
,wl-rdm,135,425131,0.0-8.16-0.16,1.0,134.0,,,,,,,[],,,,,,62.5,1.0,i,1.0,True,868.8000000715256,53.0,60.0,40.0,False,,207.44185787548335,[],"[800, 450]",ColorTask,65.0,17.0,,,HRV,HRV_0214,2022-11-30 19:12:14
,wl-rdm,136,427230,0.0-8.17-0.17,1.0,135.0,,,,,,,[],,,,,,62.5,1.0,i,1.0,True,816.0999999046326,49.0,60.0,40.0,False,,212.7100416625915,[],"[800, 450]",ColorTask,66.0,18.0,,,HRV,HRV_0214,2022-11-30 19:12:14
,wl-rdm,137,429564,0.0-8.18-0.18,1.0,136.0,,,,,,,[],,,,,,53.2,1.0,u,0.0,False,940.9000000953674,57.0,60.0,40.0,False,,332.84505366322264,[],"[800, 450]",ColorTask,65.0,19.0,,,HRV,HRV_0214,2022-11-30 19:12:14
,wl-rdm,138,431680,0.0-8.19-0.19,1.0,137.0,,,,,,,[],,,,,,73.6,1.0,i,1.0,True,835.3999998569489,51.0,60.0,40.0,False,,200.45607503201526,[],"[800, 450]",ColorTask,66.0,20.0,,,HRV,HRV_0214,2022-11-30 19:12:14
,wl-rdm,139,433596,0.0-8.20-0.20,1.0,138.0,,,,,,,[],,,,,,53.2,1.0,i,1.0,True,606.4999998807907,37.0,60.0,40.0,False,,235.78261828595487,[],"[800, 450]",ColorTask,67.0,21.0,,,HRV,HRV_0214,2022-11-30 19:12:14
,wl-rdm,140,435596,0.0-8.21-0.21,1.0,139.0,,,,,,,[],,,,,,53.2,0.0,i,1.0,False,707.2000000476837,43.0,60.0,40.0,False,,228.46123364295448,[],"[800, 450]",ColorTask,66.0,22.0,,,HRV,HRV_0214,2022-11-30 19:12:14
,wl-rdm,141,437863,0.0-8.22-0.22,1.0,140.0,,,,,,,[],,,,,,73.6,0.0,i,1.0,False,837.8000000715256,51.0,60.0,40.0,False,,348.6517074186296,[],"[800, 450]",ColorTask,65.0,23.0,,,HRV,HRV_0214,2022-11-30 19:12:14
,wl-rdm,142,440362,0.0-8.23-0.23,1.0,141.0,,,,,,,[],,,,,,62.5,1.0,i,1.0,True,1192.9999998807907,72.0,60.0,40.0,False,,244.4471710771501,[],"[800, 450]",ColorTask,66.0,24.0,,,HRV,HRV_0214,2022-11-30 19:12:14
,wl-rdm,143,442379,0.0-8.24-0.24,1.0,142.0,,,,,,,[],,,,,,87.9,0.0,u,0.0,True,643.7000000476837,39.0,60.0,40.0,False,,309.89354996775455,[],"[800, 450]",ColorTask,67.0,25.0,,,HRV,HRV_0214,2022-11-30 19:12:14
,wl-rdm,144,444545,0.0-8.25-0.25,1.0,143.0,,,,,,,[],,,,,,87.9,1.0,i,1.0,True,828.5,50.0,60.0,40.0,False,,261.48212096793395,[],"[800, 450]",ColorTask,68.0,26.0,,,HRV,HRV_0214,2022-11-30 19:12:14
,wl-rdm,145,447161,0.0-8.26-0.26,1.0,144.0,,,,,,,[],,,,,,53.2,0.0,u,0.0,True,1239.1999999284744,75.0,60.0,40.0,False,,292.99066213818173,[],"[800, 450]",ColorTask,69.0,27.0,,,HRV,HRV_0214,2022-11-30 19:12:14
,wl-rdm,146,449444,0.0-8.27-0.27,1.0,145.0,,,,,,,[],,,,,,62.5,1.0,i,1.0,True,887.2999999523163,54.0,60.0,40.0,False,,321.4747105270246,[],"[800, 450]",ColorTask,70.0,28.0,,,HRV,HRV_0214,2022-11-30 19:12:14
,wl-rdm,147,451961,0.0-8.28-0.28,1.0,146.0,,,,,,,[],,,,,,53.2,1.0,u,0.0,False,1206.3999999761581,73.0,60.0,40.0,False,,237.7204683126576,[],"[800, 450]",ColorTask,69.0,29.0,,,HRV,HRV_0214,2022-11-30 19:12:14
,wl-rdm,148,454144,0.0-8.29-0.29,1.0,147.0,,,,,,,[],,,,,,50.0,1.0,i,1.0,True,711.3999998569489,43.0,60.0,40.0,False,,396.31551051632334,[],"[800, 450]",ColorTask,70.0,30.0,,,HRV,HRV_0214,2022-11-30 19:12:14
,wl-rdm,149,456193,0.0-8.30-0.30,1.0,148.0,,,,,,,[],,,,,,50.0,1.0,i,1.0,True,675.5,41.0,60.0,40.0,False,,286.13540692002823,[],"[800, 450]",ColorTask,71.0,31.0,,,HRV,HRV_0214,2022-11-30 19:12:14
,wl-rdm,150,458526,0.0-8.31-0.31,1.0,149.0,,,,,,,[],,,,,,56.4,1.0,i,1.0,True,1016.1000000238419,61.0,60.0,40.0,False,,241.2709243770458,[],"[800, 450]",ColorTask,72.0,32.0,,,HRV,HRV_0214,2022-11-30 19:12:14
,wl-rdm,151,460793,0.0-8.32-0.32,1.0,150.0,,,,,,,[],,,,,,62.5,1.0,i,1.0,True,802.3000000715256,49.0,60.0,40.0,False,,370.21471676434703,[],"[800, 450]",ColorTask,73.0,33.0,,,HRV,HRV_0214,2022-11-30 19:12:14
,wl-rdm,152,462926,0.0-8.33-0.33,1.0,151.0,,,,,,,[],,,,,,73.6,0.0,u,0.0,True,721.6000000238419,44.0,60.0,40.0,False,,312.70279543972345,[],"[800, 450]",ColorTask,74.0,34.0,,,HRV,HRV_0214,2022-11-30 19:12:14
,wl-rdm,153,465342,0.0-8.34-0.34,1.0,152.0,,,,,,,[],,,,,,50.0,1.0,i,1.0,True,1081.3999999761581,65.0,60.0,40.0,False,,255.36705438477856,[],"[800, 450]",ColorTask,75.0,35.0,,,HRV,HRV_0214,2022-11-30 19:12:14
,wl-rdm,154,467709,0.0-8.35-0.35,1.0,153.0,,,,,,,[],,,,,,56.4,1.0,i,1.0,True,1091.8000000715256,66.0,60.0,40.0,False,,209.51211028820234,[],"[800, 450]",ColorTask,76.0,36.0,,,HRV,HRV_0214,2022-11-30 19:12:14
,wl-rdm,155,470225,0.0-8.36-0.36,1.0,154.0,,,,,,,[],,,,,,53.2,0.0,u,0.0,True,1122.0000001192093,68.0,60.0,40.0,False,,301.23362797831504,[],"[800, 450]",ColorTask,77.0,37.0,,,HRV,HRV_0214,2022-11-30 19:12:14
,wl-rdm,156,472925,0.0-8.37-0.37,1.0,155.0,,,,,,,[],,,,,,62.5,0.0,u,0.0,True,1415.8999999761581,85.0,60.0,40.0,False,,219.7012064249228,[],"[800, 450]",ColorTask,78.0,38.0,,,HRV,HRV_0214,2022-11-30 19:12:14
,wl-rdm,157,475824,0.0-8.38-0.38,1.0,156.0,,,,,,,[],,,,,,50.0,0.0,i,1.0,False,1563.1000000238419,94.0,60.0,40.0,False,,256.03124166370105,[],"[800, 450]",ColorTask,77.0,39.0,,,HRV,HRV_0214,2022-11-30 19:12:14
,wl-rdm,158,477774,0.0-8.39-0.39,1.0,157.0,,,,,,,[],,,,,,87.9,1.0,i,1.0,True,674.3999998569489,41.0,60.0,40.0,False,,216.65676344528563,[],"[800, 450]",ColorTask,78.0,40.0,,,HRV,HRV_0214,2022-11-30 19:12:14
,wl-rdm,159,480357,0.0-8.40-0.40,1.0,158.0,,,,,,,[],,,,,,56.4,0.0,u,0.0,True,1166.0999999046326,70.0,60.0,40.0,False,,363.72401895034113,[],"[800, 450]",ColorTask,79.0,41.0,,,HRV,HRV_0214,2022-11-30 19:12:14
,wl-rdm,160,482390,0.0-8.41-0.41,1.0,159.0,,,,,,,[],,,,,,73.6,1.0,i,1.0,True,748.3000000715256,45.0,60.0,40.0,False,,231.81763962636546,[],"[800, 450]",ColorTask,80.0,42.0,,,HRV,HRV_0214,2022-11-30 19:12:14
,wl-rdm,161,484540,0.0-8.42-0.42,1.0,160.0,,,,,,,[],,,,,,87.9,1.0,i,1.0,True,772.3999999761581,47.0,60.0,40.0,False,,314.9877459137183,[],"[800, 450]",ColorTask,81.0,43.0,,,HRV,HRV_0214,2022-11-30 19:12:14
,wl-rdm,162,486840,0.0-8.43-0.43,1.0,161.0,,,,,,,[],,,,,,73.6,0.0,u,0.0,True,930.6999999284744,56.0,60.0,40.0,False,,293.88696796310523,[],"[800, 450]",ColorTask,82.0,44.0,,,HRV,HRV_0214,2022-11-30 19:12:14
,wl-rdm,163,488956,0.0-8.44-0.44,1.0,162.0,,,,,,,[],,,,,,87.9,1.0,i,1.0,True,785.6000000238419,48.0,60.0,40.0,False,,261.74552111722926,[],"[800, 450]",ColorTask,83.0,45.0,,,HRV,HRV_0214,2022-11-30 19:12:14
,wl-rdm,164,490956,0.0-8.45-0.45,1.0,163.0,,,,,,,[],,,,,,87.9,1.0,i,1.0,True,668.4000000953674,41.0,60.0,40.0,False,,244.06689243408147,[],"[800, 450]",ColorTask,84.0,46.0,,,HRV,HRV_0214,2022-11-30 19:12:14
,wl-rdm,165,493289,0.0-8.46-0.46,1.0,164.0,,,,,,,[],,,,,,87.9,0.0,u,0.0,True,991.8999999761581,60.0,60.0,40.0,False,,256.88480982700077,[],"[800, 450]",ColorTask,85.0,47.0,,,HRV,HRV_0214,2022-11-30 19:12:14
,wl-rdm,166,495756,0.0-8.47-0.47,1.0,165.0,,,,,,,[],,,,,,50.0,1.0,i,1.0,True,1057.6000000238419,64.0,60.0,40.0,False,,347.8607779153946,[],"[800, 450]",ColorTask,86.0,48.0,,,HRV,HRV_0214,2022-11-30 19:12:14
,wl-rdm,167,497872,0.0-8.48-0.48,1.0,166.0,,,,,,,[],,,,,,56.4,0.0,u,0.0,True,833.9000000953674,51.0,60.0,40.0,False,,201.20400912929705,[],"[800, 450]",ColorTask,87.0,49.0,,,HRV,HRV_0214,2022-11-30 19:12:14
,wl-rdm,168,500171,0.0-8.49-0.49,1.0,167.0,,,,,,,[],,,,,,56.4,0.0,u,0.0,True,926.7000000476837,56.0,60.0,40.0,False,,283.274650860599,[],"[800, 450]",ColorTask,88.0,50.0,,,HRV,HRV_0214,2022-11-30 19:12:14
,wl-rdm,169,502638,0.0-8.50-0.50,1.0,168.0,,,,,,,[],,,,,,56.4,0.0,i,1.0,False,1062.6000000238419,64.0,60.0,40.0,False,,346.61932596400544,[],"[800, 450]",ColorTask,87.0,51.0,,,HRV,HRV_0214,2022-11-30 19:12:14
,wl-rdm,170,505271,0.0-8.51-0.51,1.0,169.0,,,,,,,[],,,,,,50.0,0.0,u,0.0,True,1262.8000000715256,76.0,60.0,40.0,False,,290.01131002597344,[],"[800, 450]",ColorTask,88.0,52.0,,,HRV,HRV_0214,2022-11-30 19:12:14
,wl-rdm,171,508154,0.0-8.52-0.52,1.0,170.0,,,,,,,[],,,,,,53.2,0.0,u,0.0,True,1506.0,91.0,60.0,40.0,False,,313.350970279301,[],"[800, 450]",ColorTask,89.0,53.0,,,HRV,HRV_0214,2022-11-30 19:12:14
,wl-rdm,172,510604,0.0-8.53-0.53,1.0,171.0,,,,,,,[],,,,,,50.0,1.0,u,0.0,False,993.6000000238419,60.0,60.0,40.0,False,,372.88596279815965,[],"[800, 450]",ColorTask,88.0,54.0,,,HRV,HRV_0214,2022-11-30 19:12:14
,wl-rdm,173,513353,0.0-8.54-0.54,1.0,172.0,,,,,,,[],,,,,,50.0,1.0,u,0.0,False,1356.7000000476837,82.0,60.0,40.0,False,,307.6746853315859,[],"[800, 450]",ColorTask,87.0,55.0,,,HRV,HRV_0214,2022-11-30 19:12:14
,wl-rdm,174,515570,0.0-8.55-0.55,1.0,173.0,,,,,,,[],,,,,,62.5,0.0,u,0.0,True,897.3000000715256,54.0,60.0,40.0,False,,251.5711960009871,[],"[800, 450]",ColorTask,88.0,56.0,,,HRV,HRV_0214,2022-11-30 19:12:14
,wl-rdm,175,518086,0.0-8.56-0.56,1.0,174.0,,,,,,,[],,,,,,53.2,1.0,i,1.0,True,1160.4000000953674,70.0,60.0,40.0,False,,269.97113207695514,[],"[800, 450]",ColorTask,89.0,57.0,,,HRV,HRV_0214,2022-11-30 19:12:14
,wl-rdm,176,520836,0.0-8.57-0.57,1.0,175.0,,,,,,,[],,,,,,50.0,0.0,i,1.0,False,1396.0,84.0,60.0,40.0,False,,282.8859658242791,[],"[800, 450]",ColorTask,88.0,58.0,,,HRV,HRV_0214,2022-11-30 19:12:14
,wl-rdm,177,523186,0.0-8.58-0.58,1.0,176.0,,,,,,,[],,,,,,87.9,1.0,i,1.0,True,987.5000001192093,60.0,60.0,40.0,False,,280.3660233884416,[],"[800, 450]",ColorTask,89.0,59.0,,,HRV,HRV_0214,2022-11-30 19:12:14
,wl-rdm,178,525685,0.0-8.59-0.59,1.0,177.0,,,,,,,[],,,,,,56.4,1.0,u,0.0,False,1165.7000000476837,70.0,60.0,40.0,False,,260.1858835926205,[],"[800, 450]",ColorTask,88.0,60.0,,,HRV,HRV_0214,2022-11-30 19:12:14
,wl-rdm,179,528218,0.0-8.60-0.60,1.0,178.0,,,,,,,[],,,,,,62.5,0.0,u,0.0,True,1074.1000000238419,65.0,60.0,40.0,False,,367.2189448014607,[],"[800, 450]",ColorTask,89.0,61.0,,,HRV,HRV_0214,2022-11-30 19:12:14
,wl-rdm,180,530435,0.0-8.61-0.61,1.0,179.0,,,,,,,[],,,,,,73.6,0.0,u,0.0,True,921.0,56.0,60.0,40.0,False,,213.55343581935475,[],"[800, 450]",ColorTask,90.0,62.0,,,HRV,HRV_0214,2022-11-30 19:12:14
,wl-rdm,181,532484,0.0-8.62-0.62,1.0,180.0,,,,,,,[],,,,,,73.6,1.0,i,1.0,True,726.8999999761581,44.0,60.0,40.0,False,,248.50719089483002,[],"[800, 450]",ColorTask,91.0,63.0,,,HRV,HRV_0214,2022-11-30 19:12:14
,wl-rdm,182,534834,0.0-8.63-0.63,1.0,181.0,,,,,,,[],,,,,,62.5,1.0,u,0.0,False,1004.1000000238419,61.0,60.0,40.0,False,,273.8976336600455,[],"[800, 450]",ColorTask,90.0,64.0,,,HRV,HRV_0214,2022-11-30 19:12:14
,wl-rdm,183,537167,0.0-8.64-0.64,1.0,182.0,,,,,,,[],,,,,,87.9,0.0,u,0.0,True,915.0999999046326,55.0,60.0,40.0,False,,345.3160681454393,[],"[800, 450]",ColorTask,91.0,65.0,,,HRV,HRV_0214,2022-11-30 19:12:14
,wl-rdm,184,539950,0.0-8.65-0.65,1.0,183.0,,,,,,,[],,,,,,50.0,0.0,u,0.0,True,1405.8999999761581,85.0,60.0,40.0,False,,315.5287391653182,[],"[800, 450]",ColorTask,92.0,66.0,,,HRV,HRV_0214,2022-11-30 19:12:14
,wl-rdm,185,542183,0.0-8.66-0.66,1.0,184.0,,,,,,,[],,,,,,62.5,1.0,i,1.0,True,842.9000000953674,51.0,60.0,40.0,False,,327.47521542089487,[],"[800, 450]",ColorTask,93.0,67.0,,,HRV,HRV_0214,2022-11-30 19:12:14
,wl-rdm,186,544566,0.0-8.67-0.67,1.0,185.0,,,,,,,[],,,,,,56.4,0.0,u,0.0,True,1069.7999999523163,65.0,60.0,40.0,False,,217.43663387417342,[],"[800, 450]",ColorTask,94.0,68.0,,,HRV,HRV_0214,2022-11-30 19:12:14
,wl-rdm,187,547265,0.0-8.68-0.68,1.0,186.0,,,,,,,[],,,,,,53.2,0.0,u,0.0,True,1406.5000001192093,85.0,60.0,40.0,False,,203.96811335959416,[],"[800, 450]",ColorTask,95.0,69.0,,,HRV,HRV_0214,2022-11-30 19:12:14
,wl-rdm,188,550332,0.0-8.69-0.69,1.0,187.0,,,,,,,[],,,,,,53.2,1.0,u,0.0,False,1645.8999999761581,99.0,60.0,40.0,False,,346.13743895566256,[],"[800, 450]",ColorTask,94.0,70.0,,,HRV,HRV_0214,2022-11-30 19:12:14
,wl-rdm,189,552765,0.0-8.70-0.70,1.0,188.0,,,,,,,[],,,,,,73.6,0.0,u,0.0,True,1013.8999999761581,61.0,60.0,40.0,False,,356.5036311521877,[],"[800, 450]",ColorTask,95.0,71.0,,,HRV,HRV_0214,2022-11-30 19:12:14
,wl-rdm,190,555032,0.0-8.71-0.71,1.0,189.0,,,,,,,[],,,,,,73.6,1.0,i,1.0,True,841.7000000476837,51.0,60.0,40.0,False,,364.44780525038345,[],"[800, 450]",ColorTask,96.0,72.0,,,HRV,HRV_0214,2022-11-30 19:12:14
,wl-rdm,191,557615,0.0-8.72-0.72,1.0,190.0,,,,,,,[],,,,,,62.5,0.0,u,0.0,True,1102.8999999761581,67.0,60.0,40.0,False,,399.9623391565763,[],"[800, 450]",ColorTask,97.0,73.0,,,HRV,HRV_0214,2022-11-30 19:12:14
,wl-rdm,192,560031,0.0-8.73-0.73,1.0,191.0,,,,,,,[],,,,,,73.6,0.0,u,0.0,True,1078.2000000476837,65.0,60.0,40.0,False,,277.813481455278,[],"[800, 450]",ColorTask,98.0,74.0,,,HRV,HRV_0214,2022-11-30 19:12:14
,wl-rdm,193,562829,0.0-8.74-0.74,1.0,192.0,,,,,,,[],,,,,,50.0,0.0,u,0.0,True,1444.2000000476837,87.0,60.0,40.0,False,,273.1352440332211,[],"[800, 450]",ColorTask,99.0,75.0,,,HRV,HRV_0214,2022-11-30 19:12:14
,wl-rdm,194,565830,0.0-8.75-0.75,1.0,193.0,,,,,,,[],,,,,,53.2,0.0,u,0.0,True,1713.2000000476837,103.0,60.0,40.0,False,,203.67106931590948,[],"[800, 450]",ColorTask,100.0,76.0,,,HRV,HRV_0214,2022-11-30 19:12:14
,wl-rdm,195,567880,0.0-8.76-0.76,1.0,194.0,,,,,,,[],,,,,,73.6,0.0,u,0.0,True,708.7999999523163,43.0,60.0,40.0,False,,263.71382445860183,[],"[800, 450]",ColorTask,101.0,77.0,,,HRV,HRV_0214,2022-11-30 19:12:14
,wl-rdm,196,570180,0.0-8.77-0.77,1.0,195.0,,,,,,,[],,,,,,50.0,0.0,u,0.0,True,872.2000000476837,53.0,60.0,40.0,False,,346.4307521203554,[],"[800, 450]",ColorTask,102.0,78.0,,,HRV,HRV_0214,2022-11-30 19:12:14
,wl-rdm,197,572513,0.0-8.78-0.78,1.0,196.0,,,,,,,[],,,,,,50.0,1.0,u,0.0,False,870.5999999046326,53.0,60.0,40.0,False,,373.82218547758555,[],"[800, 450]",ColorTask,101.0,79.0,,,HRV,HRV_0214,2022-11-30 19:12:14
,wl-rdm,198,574729,0.0-8.79-0.79,1.0,197.0,,,,,,,[],,,,,,73.6,1.0,i,1.0,True,867.2000000476837,53.0,60.0,40.0,False,,271.37771691006225,[],"[800, 450]",ColorTask,102.0,80.0,,,HRV,HRV_0214,2022-11-30 19:12:14
,wl-rdm,199,577279,0.0-8.80-0.80,1.0,198.0,,,,,,,[],,,,,,56.4,1.0,u,0.0,False,1236.3000000715256,75.0,60.0,40.0,False,,225.03716767861684,[],"[800, 450]",ColorTask,101.0,81.0,,,HRV,HRV_0214,2022-11-30 19:12:14
,wl-rdm,200,579211,0.0-8.81-0.81,1.0,199.0,,,,,,,[],,,,,,87.9,0.0,u,0.0,True,626.2000000476837,38.0,60.0,40.0,False,,233.3452798919396,[],"[800, 450]",ColorTask,102.0,82.0,,,HRV,HRV_0214,2022-11-30 19:12:14
,wl-rdm,201,581645,0.0-8.82-0.82,1.0,200.0,,,,,,,[],,,,,,56.4,0.0,u,0.0,True,1137.2999999523163,69.0,60.0,40.0,False,,226.84996812248556,[],"[800, 450]",ColorTask,103.0,83.0,,,HRV,HRV_0214,2022-11-30 19:12:14
,wl-rdm,202,584178,0.0-8.83-0.83,1.0,201.0,,,,,,,[],,,,,,53.2,1.0,i,1.0,True,1137.1999998092651,69.0,60.0,40.0,False,,331.1629969167716,[],"[800, 450]",ColorTask,104.0,84.0,,,HRV,HRV_0214,2022-11-30 19:12:14
,wl-rdm,203,586361,0.0-8.84-0.84,1.0,202.0,,,,,,,[],,,,,,87.9,0.0,u,0.0,True,719.7000000476837,44.0,60.0,40.0,False,,389.9435996042858,[],"[800, 450]",ColorTask,105.0,85.0,,,HRV,HRV_0214,2022-11-30 19:12:14
,wl-rdm,204,588427,0.0-8.85-0.85,1.0,203.0,,,,,,,[],,,,,,50.0,1.0,i,1.0,True,789.5999999046326,48.0,60.0,40.0,False,,204.4929402465966,[],"[800, 450]",ColorTask,106.0,86.0,,,HRV,HRV_0214,2022-11-30 19:12:14
,wl-rdm,205,591226,0.0-8.86-0.86,1.0,204.0,,,,,,,[],,,,,,56.4,1.0,u,0.0,False,1326.8999999761581,80.0,60.0,40.0,False,,386.86792802355757,[],"[800, 450]",ColorTask,105.0,87.0,,,HRV,HRV_0214,2022-11-30 19:12:14
,wl-rdm,206,593192,0.0-8.87-0.87,1.0,205.0,,,,,,,[],,,,,,87.9,0.0,u,0.0,True,643.0,39.0,60.0,40.0,False,,247.23798736002288,[],"[800, 450]",ColorTask,106.0,88.0,,,HRV,HRV_0214,2022-11-30 19:12:14
,wl-rdm,207,595526,0.0-8.88-0.88,1.0,206.0,,,,,,,[],,,,,,73.6,1.0,i,1.0,True,941.2000000476837,57.0,60.0,40.0,False,,305.81610513488926,[],"[800, 450]",ColorTask,107.0,89.0,,,HRV,HRV_0214,2022-11-30 19:12:14
,wl-rdm,208,597826,0.0-8.89-0.89,1.0,207.0,,,,,,,[],,,,,,73.6,1.0,i,1.0,True,885.3999999761581,54.0,60.0,40.0,False,,329.4304959403628,[],"[800, 450]",ColorTask,108.0,90.0,,,HRV,HRV_0214,2022-11-30 19:12:14
,wl-rdm,209,600275,0.0-8.90-0.90,1.0,208.0,,,,,,,[],,,,,,53.2,0.0,u,0.0,True,1122.8000000715256,68.0,60.0,40.0,False,,241.5705378892652,[],"[800, 450]",ColorTask,109.0,91.0,,,HRV,HRV_0214,2022-11-30 19:12:14
,wl-rdm,210,602825,0.0-8.91-0.91,1.0,209.0,,,,,,,[],,,,,,62.5,0.0,u,0.0,True,1199.6000000238419,72.0,60.0,40.0,False,,297.65297972759737,[],"[800, 450]",ColorTask,110.0,92.0,,,HRV,HRV_0214,2022-11-30 19:12:14
,wl-rdm,211,605625,0.0-8.92-0.92,1.0,210.0,,,,,,,[],,,,,,56.4,1.0,i,1.0,True,1502.1000000238419,91.0,60.0,40.0,False,,226.46021011406827,[],"[800, 450]",ColorTask,111.0,93.0,,,HRV,HRV_0214,2022-11-30 19:12:14
,wl-rdm,212,607658,0.0-8.93-0.93,1.0,211.0,,,,,,,[],,,,,,87.9,0.0,u,0.0,True,668.0000001192093,41.0,60.0,40.0,False,,289.3460475180047,[],"[800, 450]",ColorTask,112.0,94.0,,,HRV,HRV_0214,2022-11-30 19:12:14
,wl-rdm,213,609908,0.0-8.94-0.94,1.0,212.0,,,,,,,[],,,,,,62.5,0.0,u,0.0,True,825.5,50.0,60.0,40.0,False,,340.2126656169655,[],"[800, 450]",ColorTask,113.0,95.0,,,HRV,HRV_0214,2022-11-30 19:12:14
,wl-rdm,214,612374,0.0-8.95-0.95,1.0,213.0,,,,,,,[],,,,,,73.6,1.0,i,1.0,True,1021.8999999761581,62.0,60.0,40.0,False,,355.8111395799524,[],"[800, 450]",ColorTask,114.0,96.0,,,HRV,HRV_0214,2022-11-30 19:12:14
,wl-rdm,215,614873,0.0-8.96-0.96,1.0,214.0,,,,,,,[],,,,,,53.2,1.0,u,0.0,False,1216.3000000715256,73.0,60.0,40.0,False,,209.60807169248778,[],"[800, 450]",ColorTask,113.0,97.0,,,HRV,HRV_0214,2022-11-30 19:12:14
,wl-rdm,216,617606,0.0-8.97-0.97,1.0,215.0,,,,,,,[],,,,,,56.4,0.0,i,1.0,False,1386.7999999523163,84.0,60.0,40.0,False,,259.58921274316094,[],"[800, 450]",ColorTask,112.0,98.0,,,HRV,HRV_0214,2022-11-30 19:12:14
,wl-rdm,217,620039,0.0-8.98-0.98,1.0,216.0,,,,,,,[],,,,,,62.5,0.0,u,0.0,True,1003.1000000238419,61.0,60.0,40.0,False,,366.181892074793,[],"[800, 450]",ColorTask,113.0,99.0,,,HRV,HRV_0214,2022-11-30 19:12:14
,wl-rdm,218,622056,0.0-8.99-0.99,1.0,217.0,,,,,,,[],,,,,,73.6,0.0,u,0.0,True,707.299999833107,43.0,60.0,40.0,False,,230.1440623275101,[],"[800, 450]",ColorTask,114.0,100.0,,,HRV,HRV_0214,2022-11-30 19:12:14
,wl-rdm,219,624190,0.0-8.100-0.100,1.0,218.0,,,,,,,[],,,,,,87.9,1.0,i,1.0,True,655.8999998569489,40.0,60.0,40.0,False,,391.39889979253826,[],"[800, 450]",ColorTask,115.0,101.0,,,HRV,HRV_0214,2022-11-30 19:12:14
,wl-rdm,220,626655,0.0-8.101-0.101,1.0,219.0,,,,,,,[],,,,,,56.4,1.0,u,0.0,False,1035.8000000715256,63.0,60.0,40.0,False,,332.75900365511586,[],"[800, 450]",ColorTask,114.0,102.0,,,HRV,HRV_0214,2022-11-30 19:12:14
,wl-rdm,221,628822,0.0-8.102-0.102,1.0,220.0,,,,,,,[],,,,,,62.5,1.0,i,1.0,True,811.7999999523163,49.0,60.0,40.0,False,,275.5713159874132,[],"[800, 450]",ColorTask,115.0,103.0,,,HRV,HRV_0214,2022-11-30 19:12:14
,wl-rdm,222,631321,0.0-8.103-0.103,1.0,221.0,,,,,,,[],,,,,,62.5,0.0,u,0.0,True,1112.6000000238419,67.0,60.0,40.0,False,,313.6261359623154,[],"[800, 450]",ColorTask,116.0,104.0,,,HRV,HRV_0214,2022-11-30 19:12:14
,wl-rdm,223,633420,0.0-8.104-0.104,1.0,222.0,,,,,,,[],,,,,,62.5,0.0,u,0.0,True,669.7000000476837,41.0,60.0,40.0,False,,351.0305882758462,[],"[800, 450]",ColorTask,117.0,105.0,,,HRV,HRV_0214,2022-11-30 19:12:14
,wl-rdm,224,635438,0.0-8.105-0.105,1.0,223.0,,,,,,,[],,,,,,73.6,0.0,u,0.0,True,740.1000000238419,45.0,60.0,40.0,False,,214.07920605327968,[],"[800, 450]",ColorTask,118.0,106.0,,,HRV,HRV_0214,2022-11-30 19:12:14
,wl-rdm,225,638037,0.0-8.106-0.106,1.0,224.0,,,,,,,[],,,,,,50.0,0.0,i,1.0,False,1169.3999998569489,71.0,60.0,40.0,False,,335.89234330832653,[],"[800, 450]",ColorTask,117.0,107.0,,,HRV,HRV_0214,2022-11-30 19:12:14
,wl-rdm,226,640003,0.0-8.107-0.107,1.0,225.0,,,,,,,[],,,,,,87.9,1.0,i,1.0,True,674.0999999046326,41.0,60.0,40.0,False,,221.57199302046956,[],"[800, 450]",ColorTask,118.0,108.0,,,HRV,HRV_0214,2022-11-30 19:12:14
,wl-html-button-response,227,642479,0.0-9.0-0.0,,,,,,,,,,2470.5,,0,,,,,,,,,,,,,,,,,,,,<h3>End of this session. Thank you!</h3><br>,['Close window'],HRV,HRV_0214,2022-11-30 19:12:14
