trialN,stimuli,trialStartTime,trialStartTime_UNIX,stimulus1,stimulus2,stimulus1Bid,stimulus2Bid,delta,selected,rt,rt_UNIX,rt_perfnow,receivedResponse,rsp,trialEndTime,trialDuration,trialEndTime_UNIX,trialDuration_UNIX,exp,subjectId,date
0,"[{'imgObject': {}, 'id': 'raisin bran w milk', 'src': '/static/foodstim60/raisin bran w milk.jpg', 'key': 'u', 'origWidth': 411, 'origHeight': 411, 'width': 411, 'height': 411, 'widthPercent': 0.45, 'rescaleHeight': False, 'trialN': 0, 'loaded': True, 'loadedTime': 16127.099999904633, 'positionName': 'LEFT', 'positionCoords': [203.4, 194.5], 'bid': 3.67}, {'imgObject': {}, 'id': 'Grapes', 'src': '/static/foodstim60/Grapes.jpg', 'key': 'i', 'origWidth': 411, 'origHeight': 411, 'width': 411, 'height': 411, 'widthPercent': 0.45, 'rescaleHeight': False, 'trialN': 0, 'loaded': True, 'loadedTime': 16305.399999976158, 'positionName': 'RIGHT', 'positionCoords': [665.6, 194.5], 'bid': 3.54}]",19092.099999904633,1669829492641,raisin bran w milk,Grapes,3.67,3.54,-0.1299999999999999,raisin bran w milk,2224.4000000953674,2233,2233.3000000715256,True,u,21826.0,2733.9000000953674,1669829495375,2734,HRV,HRV_0070,2022-11-30 17:37:38
1,"[{'imgObject': {}, 'id': 'kiwi', 'src': '/static/foodstim60/kiwi.jpg', 'key': 'u', 'origWidth': 410, 'origHeight': 410, 'width': 410, 'height': 410, 'widthPercent': 0.45, 'rescaleHeight': False, 'trialN': 1, 'loaded': True, 'loadedTime': 16442.5, 'positionName': 'LEFT', 'positionCoords': [204.4, 195], 'bid': 2.35}, {'imgObject': {}, 'id': 'mango', 'src': '/static/foodstim60/mango.jpg', 'key': 'i', 'origWidth': 411, 'origHeight': 411, 'width': 411, 'height': 411, 'widthPercent': 0.45, 'rescaleHeight': False, 'trialN': 1, 'loaded': True, 'loadedTime': 16290.5, 'positionName': 'RIGHT', 'positionCoords': [665.6, 194.5], 'bid': 3.4}]",21826.299999952316,1669829495375,kiwi,mango,2.35,3.4,1.0499999999999998,mango,2055.2999999523163,2061,2060.7000000476837,True,i,24387.299999952316,2561.0,1669829497936,2561,HRV,HRV_0070,2022-11-30 17:37:38
2,"[{'imgObject': {}, 'id': 'granola w milk', 'src': '/static/foodstim60/granola w milk.jpg', 'key': 'u', 'origWidth': 410, 'origHeight': 410, 'width': 410, 'height': 410, 'widthPercent': 0.45, 'rescaleHeight': False, 'trialN': 2, 'loaded': True, 'loadedTime': 16543.399999976158, 'positionName': 'LEFT', 'positionCoords': [204.4, 195], 'bid': 5.51}, {'imgObject': {}, 'id': 'apple slices', 'src': '/static/foodstim60/apple slices.jpg', 'key': 'i', 'origWidth': 409, 'origHeight': 410, 'width': 409, 'height': 410, 'widthPercent': 0.45, 'rescaleHeight': False, 'trialN': 2, 'loaded': True, 'loadedTime': 16650.399999976158, 'positionName': 'RIGHT', 'positionCoords': [665.6, 195], 'bid': 7.67}]",24387.599999904633,1669829497936,granola w milk,apple slices,5.51,7.67,2.16,apple slices,980.9000000953674,989,988.2000000476837,True,i,25876.199999928474,1488.6000000238419,1669829499425,1489,HRV,HRV_0070,2022-11-30 17:37:38
3,"[{'imgObject': {}, 'id': 'mashed potato', 'src': '/static/foodstim60/mashed potato.jpg', 'key': 'u', 'origWidth': 409, 'origHeight': 409, 'width': 409, 'height': 409, 'widthPercent': 0.45, 'rescaleHeight': False, 'trialN': 3, 'loaded': True, 'loadedTime': 16770.899999976158, 'positionName': 'LEFT', 'positionCoords': [205.4, 195.5], 'bid': 4.12}, {'imgObject': {}, 'id': 'blueberries', 'src': '/static/foodstim60/blueberries.jpg', 'key': 'i', 'origWidth': 411, 'origHeight': 411, 'width': 411, 'height': 411, 'widthPercent': 0.45, 'rescaleHeight': False, 'trialN': 3, 'loaded': True, 'loadedTime': 16771.299999952316, 'positionName': 'RIGHT', 'positionCoords': [665.6, 194.5], 'bid': 9.98}]",25876.399999976158,1669829499425,mashed potato,blueberries,4.12,9.98,5.86,blueberries,788.1000000238419,796,795.7999999523163,True,i,27172.699999928474,1296.2999999523163,1669829500721,1296,HRV,HRV_0070,2022-11-30 17:37:38
4,"[{'imgObject': {}, 'id': 'hashbrowns', 'src': '/static/foodstim60/hashbrowns.jpg', 'key': 'u', 'origWidth': 411, 'origHeight': 410, 'width': 411, 'height': 410, 'widthPercent': 0.45, 'rescaleHeight': False, 'trialN': 4, 'loaded': True, 'loadedTime': 16978.699999928474, 'positionName': 'LEFT', 'positionCoords': [203.4, 195], 'bid': 3.87}, {'imgObject': {}, 'id': 'luckycharms', 'src': '/static/foodstim60/luckycharms.jpg', 'key': 'i', 'origWidth': 410, 'origHeight': 409, 'width': 410, 'height': 409, 'widthPercent': 0.45, 'rescaleHeight': False, 'trialN': 4, 'loaded': True, 'loadedTime': 16987.399999976158, 'positionName': 'RIGHT', 'positionCoords': [665.6, 195.5], 'bid': 9.64}]",27172.899999976158,1669829500722,hashbrowns,luckycharms,3.87,9.64,5.7700000000000005,luckycharms,711.2999999523163,718,718.7999999523163,True,i,28392.199999928474,1219.2999999523163,1669829501941,1219,HRV,HRV_0070,2022-11-30 17:37:38
5,"[{'imgObject': {}, 'id': 'edamame', 'src': '/static/foodstim60/edamame.jpg', 'key': 'u', 'origWidth': 409, 'origHeight': 410, 'width': 409, 'height': 410, 'widthPercent': 0.45, 'rescaleHeight': False, 'trialN': 5, 'loaded': True, 'loadedTime': 17075.599999904633, 'positionName': 'LEFT', 'positionCoords': [205.4, 195], 'bid': 0.75}, {'imgObject': {}, 'id': 'eggs', 'src': '/static/foodstim60/eggs.jpg', 'key': 'i', 'origWidth': 409, 'origHeight': 409, 'width': 409, 'height': 409, 'widthPercent': 0.45, 'rescaleHeight': False, 'trialN': 5, 'loaded': True, 'loadedTime': 17195.5, 'positionName': 'RIGHT', 'positionCoords': [665.6, 195.5], 'bid': 0.03}]",28392.5,1669829501941,edamame,eggs,0.75,0.03,-0.72,edamame,1312.7999999523163,1321,1320.5999999046326,True,u,30213.599999904633,1821.0999999046326,1669829503762,1821,HRV,HRV_0070,2022-11-30 17:37:38
6,"[{'imgObject': {}, 'id': 'mango', 'src': '/static/foodstim60/mango.jpg', 'key': 'u', 'origWidth': 411, 'origHeight': 411, 'width': 411, 'height': 411, 'widthPercent': 0.45, 'rescaleHeight': False, 'trialN': 6, 'loaded': True, 'loadedTime': 16301.199999928474, 'positionName': 'LEFT', 'positionCoords': [203.4, 194.5], 'bid': 3.4}, {'imgObject': {}, 'id': 'shreddedwheatwithmilk', 'src': '/static/foodstim60/shreddedwheatwithmilk.jpg', 'key': 'i', 'origWidth': 410, 'origHeight': 410, 'width': 410, 'height': 410, 'widthPercent': 0.45, 'rescaleHeight': False, 'trialN': 6, 'loaded': True, 'loadedTime': 17198.5, 'positionName': 'RIGHT', 'positionCoords': [665.6, 195], 'bid': 5.29}]",30213.799999952316,1669829503763,mango,shreddedwheatwithmilk,3.4,5.29,1.8900000000000001,shreddedwheatwithmilk,1340.5,1347,1347.6000000238419,True,i,32062.099999904633,1848.2999999523163,1669829505611,1848,HRV,HRV_0070,2022-11-30 17:37:38
7,"[{'imgObject': {}, 'id': 'cocktailshrimp', 'src': '/static/foodstim60/cocktailshrimp.jpg', 'key': 'u', 'origWidth': 410, 'origHeight': 410, 'width': 410, 'height': 410, 'widthPercent': 0.45, 'rescaleHeight': False, 'trialN': 7, 'loaded': True, 'loadedTime': 17301.599999904633, 'positionName': 'LEFT', 'positionCoords': [204.4, 195], 'bid': 1.84}, {'imgObject': {}, 'id': 'roastedpotatoes', 'src': '/static/foodstim60/roastedpotatoes.jpg', 'key': 'i', 'origWidth': 409, 'origHeight': 410, 'width': 409, 'height': 410, 'widthPercent': 0.45, 'rescaleHeight': False, 'trialN': 7, 'loaded': True, 'loadedTime': 17411.199999928474, 'positionName': 'RIGHT', 'positionCoords': [665.6, 195], 'bid': 2.03}]",32062.599999904633,1669829505612,cocktailshrimp,roastedpotatoes,1.84,2.03,0.18999999999999972,roastedpotatoes,780.7000000476837,788,788.0,True,i,33351.0,1288.4000000953674,1669829506900,1288,HRV,HRV_0070,2022-11-30 17:37:38
8,"[{'imgObject': {}, 'id': 'fruitsalad', 'src': '/static/foodstim60/fruitsalad.jpg', 'key': 'u', 'origWidth': 410, 'origHeight': 410, 'width': 410, 'height': 410, 'widthPercent': 0.45, 'rescaleHeight': False, 'trialN': 8, 'loaded': True, 'loadedTime': 17518.699999928474, 'positionName': 'LEFT', 'positionCoords': [204.4, 195], 'bid': 8.06}, {'imgObject': {}, 'id': 'yogurt no spoon', 'src': '/static/foodstim60/yogurt no spoon.jpg', 'key': 'i', 'origWidth': 411, 'origHeight': 410, 'width': 411, 'height': 410, 'widthPercent': 0.45, 'rescaleHeight': False, 'trialN': 8, 'loaded': True, 'loadedTime': 17680, 'positionName': 'RIGHT', 'positionCoords': [665.6, 195], 'bid': 6.75}]",33351.299999952316,1669829506900,fruitsalad,yogurt no spoon,8.06,6.75,-1.3100000000000005,yogurt no spoon,763.1000000238419,771,770.7999999523163,True,i,34622.799999952316,1271.5,1669829508172,1272,HRV,HRV_0070,2022-11-30 17:37:38
9,"[{'imgObject': {}, 'id': 'baked potato', 'src': '/static/foodstim60/baked potato.jpg', 'key': 'u', 'origWidth': 409, 'origHeight': 410, 'width': 409, 'height': 410, 'widthPercent': 0.45, 'rescaleHeight': False, 'trialN': 9, 'loaded': True, 'loadedTime': 17786.099999904633, 'positionName': 'LEFT', 'positionCoords': [205.4, 195], 'bid': 3.29}, {'imgObject': {}, 'id': 'mango', 'src': '/static/foodstim60/mango.jpg', 'key': 'i', 'origWidth': 411, 'origHeight': 411, 'width': 411, 'height': 411, 'widthPercent': 0.45, 'rescaleHeight': False, 'trialN': 9, 'loaded': True, 'loadedTime': 16224.299999952316, 'positionName': 'RIGHT', 'positionCoords': [665.6, 194.5], 'bid': 3.4}]",34623.0,1669829508172,baked potato,mango,3.29,3.4,0.10999999999999988,baked potato,858.0999999046326,866,865.5,True,u,35989.09999990463,1366.0999999046326,1669829509538,1366,HRV,HRV_0070,2022-11-30 17:37:38
10,"[{'imgObject': {}, 'id': 'roastedpotatoes', 'src': '/static/foodstim60/roastedpotatoes.jpg', 'key': 'u', 'origWidth': 409, 'origHeight': 410, 'width': 409, 'height': 410, 'widthPercent': 0.45, 'rescaleHeight': False, 'trialN': 10, 'loaded': True, 'loadedTime': 17410.299999952316, 'positionName': 'LEFT', 'positionCoords': [205.4, 195], 'bid': 2.03}, {'imgObject': {}, 'id': 'hotdog w must', 'src': '/static/foodstim60/hotdog w must.jpg', 'key': 'i', 'origWidth': 409, 'origHeight': 409, 'width': 409, 'height': 409, 'widthPercent': 0.45, 'rescaleHeight': False, 'trialN': 10, 'loaded': True, 'loadedTime': 17880.899999976158, 'positionName': 'RIGHT', 'positionCoords': [665.6, 195.5], 'bid': 0}]",35989.299999952316,1669829509538,roastedpotatoes,hotdog w must,2.03,0.0,-2.03,roastedpotatoes,852.7999999523163,860,860.1000000238419,True,u,37349.59999990463,1360.2999999523163,1669829510899,1361,HRV,HRV_0070,2022-11-30 17:37:38
11,"[{'imgObject': {}, 'id': 'baked potato', 'src': '/static/foodstim60/baked potato.jpg', 'key': 'u', 'origWidth': 409, 'origHeight': 410, 'width': 409, 'height': 410, 'widthPercent': 0.45, 'rescaleHeight': False, 'trialN': 11, 'loaded': True, 'loadedTime': 17785.299999952316, 'positionName': 'LEFT', 'positionCoords': [205.4, 195], 'bid': 3.29}, {'imgObject': {}, 'id': 'sweetpotato', 'src': '/static/foodstim60/sweetpotato.jpg', 'key': 'i', 'origWidth': 410, 'origHeight': 410, 'width': 410, 'height': 410, 'widthPercent': 0.45, 'rescaleHeight': False, 'trialN': 11, 'loaded': True, 'loadedTime': 17884.599999904633, 'positionName': 'RIGHT', 'positionCoords': [665.6, 195], 'bid': 4.98}]",37349.799999952316,1669829510899,baked potato,sweetpotato,3.29,4.98,1.6900000000000004,baked potato,1559.3999999761581,1566,1565.8999999761581,True,u,39416.199999928474,2066.399999976158,1669829512965,2066,HRV,HRV_0070,2022-11-30 17:37:38
12,"[{'imgObject': {}, 'id': 'eggs', 'src': '/static/foodstim60/eggs.jpg', 'key': 'u', 'origWidth': 409, 'origHeight': 409, 'width': 409, 'height': 409, 'widthPercent': 0.45, 'rescaleHeight': False, 'trialN': 12, 'loaded': True, 'loadedTime': 17195.199999928474, 'positionName': 'LEFT', 'positionCoords': [205.4, 195.5], 'bid': 0.03}, {'imgObject': {}, 'id': 'ice cream sundae 002', 'src': '/static/foodstim60/ice cream sundae 002.jpg', 'key': 'i', 'origWidth': 409, 'origHeight': 409, 'width': 409, 'height': 409, 'widthPercent': 0.45, 'rescaleHeight': False, 'trialN': 12, 'loaded': True, 'loadedTime': 17995.799999952316, 'positionName': 'RIGHT', 'positionCoords': [665.6, 195.5], 'bid': 4.92}]",39416.39999997616,1669829512966,eggs,ice cream sundae 002,0.03,4.92,4.89,ice cream sundae 002,1339.5,1346,1346.5,True,i,41263.199999928474,1846.7999999523163,1669829514812,1846,HRV,HRV_0070,2022-11-30 17:37:38
13,"[{'imgObject': {}, 'id': 'chicken nuggets2', 'src': '/static/foodstim60/chicken nuggets2.jpg', 'key': 'u', 'origWidth': 410, 'origHeight': 409, 'width': 410, 'height': 409, 'widthPercent': 0.45, 'rescaleHeight': False, 'trialN': 13, 'loaded': True, 'loadedTime': 17998.899999976158, 'positionName': 'LEFT', 'positionCoords': [204.4, 195.5], 'bid': 1.35}, {'imgObject': {}, 'id': 'bagel plain', 'src': '/static/foodstim60/bagel plain.jpg', 'key': 'i', 'origWidth': 410, 'origHeight': 410, 'width': 410, 'height': 410, 'widthPercent': 0.45, 'rescaleHeight': False, 'trialN': 13, 'loaded': True, 'loadedTime': 18097.5, 'positionName': 'RIGHT', 'positionCoords': [665.6, 195], 'bid': 2.7}]",41263.59999990463,1669829514813,chicken nuggets2,bagel plain,1.35,2.7,1.35,bagel plain,1325.7000000476837,1331,1330.7000000476837,True,i,43095.5,1831.9000000953674,1669829516645,1832,HRV,HRV_0070,2022-11-30 17:37:38
14,"[{'imgObject': {}, 'id': 'salad w chicken', 'src': '/static/foodstim60/salad w chicken.jpg', 'key': 'u', 'origWidth': 411, 'origHeight': 411, 'width': 411, 'height': 411, 'widthPercent': 0.45, 'rescaleHeight': False, 'trialN': 14, 'loaded': True, 'loadedTime': 18102.399999976158, 'positionName': 'LEFT', 'positionCoords': [203.4, 194.5], 'bid': 4.17}, {'imgObject': {}, 'id': 'fruitsalad', 'src': '/static/foodstim60/fruitsalad.jpg', 'key': 'i', 'origWidth': 410, 'origHeight': 410, 'width': 410, 'height': 410, 'widthPercent': 0.45, 'rescaleHeight': False, 'trialN': 14, 'loaded': True, 'loadedTime': 17519.199999928474, 'positionName': 'RIGHT', 'positionCoords': [665.6, 195], 'bid': 8.06}]",43095.699999928474,1669829516645,salad w chicken,fruitsalad,4.17,8.06,3.8900000000000006,fruitsalad,1356.5,1363,1362.6000000238419,True,i,44958.59999990463,1862.8999999761581,1669829518508,1863,HRV,HRV_0070,2022-11-30 17:37:38
15,"[{'imgObject': {}, 'id': 'banana', 'src': '/static/foodstim60/banana.jpg', 'key': 'u', 'origWidth': 410, 'origHeight': 410, 'width': 410, 'height': 410, 'widthPercent': 0.45, 'rescaleHeight': False, 'trialN': 15, 'loaded': True, 'loadedTime': 18206.199999928474, 'positionName': 'LEFT', 'positionCoords': [204.4, 195], 'bid': 2.71}, {'imgObject': {}, 'id': 'salad w chicken', 'src': '/static/foodstim60/salad w chicken.jpg', 'key': 'i', 'origWidth': 411, 'origHeight': 411, 'width': 411, 'height': 411, 'widthPercent': 0.45, 'rescaleHeight': False, 'trialN': 15, 'loaded': True, 'loadedTime': 18102.5, 'positionName': 'RIGHT', 'positionCoords': [665.6, 194.5], 'bid': 4.17}]",44958.699999928474,1669829518508,banana,salad w chicken,2.71,4.17,1.46,salad w chicken,1544.5,1551,1550.8999999761581,True,i,47009.89999997616,2051.2000000476837,1669829520559,2051,HRV,HRV_0070,2022-11-30 17:37:38
16,"[{'imgObject': {}, 'id': 'seaweed', 'src': '/static/foodstim60/seaweed.jpg', 'key': 'u', 'origWidth': 410, 'origHeight': 410, 'width': 410, 'height': 410, 'widthPercent': 0.45, 'rescaleHeight': False, 'trialN': 16, 'loaded': True, 'loadedTime': 18206.5, 'positionName': 'LEFT', 'positionCoords': [204.4, 195], 'bid': 0.12}, {'imgObject': {}, 'id': 'sushi w_condiments', 'src': '/static/foodstim60/sushi w_condiments.jpg', 'key': 'i', 'origWidth': 410, 'origHeight': 410, 'width': 410, 'height': 410, 'widthPercent': 0.45, 'rescaleHeight': False, 'trialN': 16, 'loaded': True, 'loadedTime': 18316.5, 'positionName': 'RIGHT', 'positionCoords': [665.6, 195], 'bid': 0.14}]",47010.09999990463,1669829520559,seaweed,sushi w_condiments,0.12,0.14,0.020000000000000018,seaweed,2369.8000000715256,2376,2375.600000023842,True,u,49885.89999997616,2875.8000000715256,1669829523435,2876,HRV,HRV_0070,2022-11-30 17:37:38
17,"[{'imgObject': {}, 'id': 'steak', 'src': '/static/foodstim60/steak.jpg', 'key': 'u', 'origWidth': 410, 'origHeight': 410, 'width': 410, 'height': 410, 'widthPercent': 0.45, 'rescaleHeight': False, 'trialN': 17, 'loaded': True, 'loadedTime': 18441.899999976158, 'positionName': 'LEFT', 'positionCoords': [204.4, 195], 'bid': 1.25}, {'imgObject': {}, 'id': 'olives', 'src': '/static/foodstim60/olives.jpg', 'key': 'i', 'origWidth': 410, 'origHeight': 410, 'width': 410, 'height': 410, 'widthPercent': 0.45, 'rescaleHeight': False, 'trialN': 17, 'loaded': True, 'loadedTime': 18443.199999928474, 'positionName': 'RIGHT', 'positionCoords': [665.6, 195], 'bid': 0.09}]",49886.199999928474,1669829523436,steak,olives,1.25,0.09,-1.16,steak,1275.7000000476837,1283,1282.8999999761581,True,u,51669.39999997616,1783.2000000476837,1669829525219,1783,HRV,HRV_0070,2022-11-30 17:37:38
18,"[{'imgObject': {}, 'id': 'seaweed', 'src': '/static/foodstim60/seaweed.jpg', 'key': 'u', 'origWidth': 410, 'origHeight': 410, 'width': 410, 'height': 410, 'widthPercent': 0.45, 'rescaleHeight': False, 'trialN': 18, 'loaded': True, 'loadedTime': 18312.299999952316, 'positionName': 'LEFT', 'positionCoords': [204.4, 195], 'bid': 0.12}, {'imgObject': {}, 'id': 'turkeysandwich', 'src': '/static/foodstim60/turkeysandwich.jpg', 'key': 'i', 'origWidth': 409, 'origHeight': 409, 'width': 409, 'height': 409, 'widthPercent': 0.45, 'rescaleHeight': False, 'trialN': 18, 'loaded': True, 'loadedTime': 18451.5, 'positionName': 'RIGHT', 'positionCoords': [665.6, 195.5], 'bid': 1.84}]",51669.59999990463,1669829525219,seaweed,turkeysandwich,0.12,1.84,1.7200000000000002,turkeysandwich,1546.4000000953674,1552,1551.4000000953674,True,i,53721.5,2051.9000000953674,1669829527271,2052,HRV,HRV_0070,2022-11-30 17:37:38
19,"[{'imgObject': {}, 'id': 'rigatoni and sauce', 'src': '/static/foodstim60/rigatoni and sauce.jpg', 'key': 'u', 'origWidth': 410, 'origHeight': 411, 'width': 410, 'height': 411, 'widthPercent': 0.45, 'rescaleHeight': False, 'trialN': 19, 'loaded': True, 'loadedTime': 18557.099999904633, 'positionName': 'LEFT', 'positionCoords': [204.4, 194.5], 'bid': 8.35}, {'imgObject': {}, 'id': 'blueberries', 'src': '/static/foodstim60/blueberries.jpg', 'key': 'i', 'origWidth': 411, 'origHeight': 411, 'width': 411, 'height': 411, 'widthPercent': 0.45, 'rescaleHeight': False, 'trialN': 19, 'loaded': True, 'loadedTime': 16778.599999904633, 'positionName': 'RIGHT', 'positionCoords': [665.6, 194.5], 'bid': 9.98}]",53721.59999990463,1669829527271,rigatoni and sauce,blueberries,8.35,9.98,1.6300000000000008,blueberries,1504.2000000476837,1509,1509.1000000238419,True,i,55731.199999928474,2009.6000000238419,1669829529281,2010,HRV,HRV_0070,2022-11-30 17:37:38
20,"[{'imgObject': {}, 'id': 'eggs', 'src': '/static/foodstim60/eggs.jpg', 'key': 'u', 'origWidth': 409, 'origHeight': 409, 'width': 409, 'height': 409, 'widthPercent': 0.45, 'rescaleHeight': False, 'trialN': 20, 'loaded': True, 'loadedTime': 17194.099999904633, 'positionName': 'LEFT', 'positionCoords': [205.4, 195.5], 'bid': 0.03}, {'imgObject': {}, 'id': 'lox', 'src': '/static/foodstim60/lox.jpg', 'key': 'i', 'origWidth': 410, 'origHeight': 411, 'width': 410, 'height': 411, 'widthPercent': 0.45, 'rescaleHeight': False, 'trialN': 20, 'loaded': True, 'loadedTime': 18560.199999928474, 'positionName': 'RIGHT', 'positionCoords': [665.6, 194.5], 'bid': 0.12}]",55731.39999997616,1669829529281,eggs,lox,0.03,0.12,0.09,lox,3263.5,3272,3271.7999999523163,True,i,59503.799999952316,3772.399999976158,1669829533054,3773,HRV,HRV_0070,2022-11-30 17:37:38
21,"[{'imgObject': {}, 'id': 'steak', 'src': '/static/foodstim60/steak.jpg', 'key': 'u', 'origWidth': 410, 'origHeight': 410, 'width': 410, 'height': 410, 'widthPercent': 0.45, 'rescaleHeight': False, 'trialN': 21, 'loaded': True, 'loadedTime': 18441.299999952316, 'positionName': 'LEFT', 'positionCoords': [204.4, 195], 'bid': 1.25}, {'imgObject': {}, 'id': 'burrito', 'src': '/static/foodstim60/burrito.jpg', 'key': 'i', 'origWidth': 410, 'origHeight': 410, 'width': 410, 'height': 410, 'widthPercent': 0.45, 'rescaleHeight': False, 'trialN': 21, 'loaded': True, 'loadedTime': 18657.799999952316, 'positionName': 'RIGHT', 'positionCoords': [665.6, 195], 'bid': 2.45}]",59504.0,1669829533054,steak,burrito,1.25,2.45,1.2000000000000002,steak,887,893,893.0,True,u,60897.299999952316,1393.2999999523163,1669829534447,1393,HRV,HRV_0070,2022-11-30 17:37:38
22,"[{'imgObject': {}, 'id': 'salad w chicken', 'src': '/static/foodstim60/salad w chicken.jpg', 'key': 'u', 'origWidth': 411, 'origHeight': 411, 'width': 411, 'height': 411, 'widthPercent': 0.45, 'rescaleHeight': False, 'trialN': 22, 'loaded': True, 'loadedTime': 18102, 'positionName': 'LEFT', 'positionCoords': [203.4, 194.5], 'bid': 4.17}, {'imgObject': {}, 'id': 'ice cream sundae 002', 'src': '/static/foodstim60/ice cream sundae 002.jpg', 'key': 'i', 'origWidth': 409, 'origHeight': 409, 'width': 409, 'height': 409, 'widthPercent': 0.45, 'rescaleHeight': False, 'trialN': 22, 'loaded': True, 'loadedTime': 17995.099999904633, 'positionName': 'RIGHT', 'positionCoords': [665.6, 195.5], 'bid': 4.92}]",60897.59999990463,1669829534447,salad w chicken,ice cream sundae 002,4.17,4.92,0.75,ice cream sundae 002,1658.1000000238419,1666,1665.6000000238419,True,i,63063.39999997616,2165.8000000715256,1669829536613,2166,HRV,HRV_0070,2022-11-30 17:37:38
23,"[{'imgObject': {}, 'id': 'chicken nuggets2', 'src': '/static/foodstim60/chicken nuggets2.jpg', 'key': 'u', 'origWidth': 410, 'origHeight': 409, 'width': 410, 'height': 409, 'widthPercent': 0.45, 'rescaleHeight': False, 'trialN': 23, 'loaded': True, 'loadedTime': 17998.699999928474, 'positionName': 'LEFT', 'positionCoords': [204.4, 195.5], 'bid': 1.35}, {'imgObject': {}, 'id': 'yogurt no spoon', 'src': '/static/foodstim60/yogurt no spoon.jpg', 'key': 'i', 'origWidth': 411, 'origHeight': 410, 'width': 411, 'height': 410, 'widthPercent': 0.45, 'rescaleHeight': False, 'trialN': 23, 'loaded': True, 'loadedTime': 17681.399999976158, 'positionName': 'RIGHT', 'positionCoords': [665.6, 195], 'bid': 6.75}]",63063.5,1669829536613,chicken nuggets2,yogurt no spoon,1.35,6.75,5.4,yogurt no spoon,992.1999999284744,1000,999.5999999046326,True,i,64563.799999952316,1500.2999999523163,1669829538114,1501,HRV,HRV_0070,2022-11-30 17:37:38
24,"[{'imgObject': {}, 'id': 'cantaloupe', 'src': '/static/foodstim60/cantaloupe.jpg', 'key': 'u', 'origWidth': 409, 'origHeight': 409, 'width': 409, 'height': 409, 'widthPercent': 0.45, 'rescaleHeight': False, 'trialN': 24, 'loaded': True, 'loadedTime': 18660.299999952316, 'positionName': 'LEFT', 'positionCoords': [205.4, 195.5], 'bid': 9.1}, {'imgObject': {}, 'id': 'Grapes', 'src': '/static/foodstim60/Grapes.jpg', 'key': 'i', 'origWidth': 411, 'origHeight': 411, 'width': 411, 'height': 411, 'widthPercent': 0.45, 'rescaleHeight': False, 'trialN': 24, 'loaded': True, 'loadedTime': 16310.099999904633, 'positionName': 'RIGHT', 'positionCoords': [665.6, 194.5], 'bid': 3.54}]",64564.09999990463,1669829538114,cantaloupe,Grapes,9.1,3.54,-5.56,cantaloupe,824.8000000715256,829,829.4000000953674,True,u,65894.59999990463,1330.5,1669829539444,1330,HRV,HRV_0070,2022-11-30 17:37:38
25,"[{'imgObject': {}, 'id': 'bagel plain', 'src': '/static/foodstim60/bagel plain.jpg', 'key': 'u', 'origWidth': 410, 'origHeight': 410, 'width': 410, 'height': 410, 'widthPercent': 0.45, 'rescaleHeight': False, 'trialN': 25, 'loaded': True, 'loadedTime': 18097.599999904633, 'positionName': 'LEFT', 'positionCoords': [204.4, 195], 'bid': 2.7}, {'imgObject': {}, 'id': 'cocktailshrimp', 'src': '/static/foodstim60/cocktailshrimp.jpg', 'key': 'i', 'origWidth': 410, 'origHeight': 410, 'width': 410, 'height': 410, 'widthPercent': 0.45, 'rescaleHeight': False, 'trialN': 25, 'loaded': True, 'loadedTime': 17303.5, 'positionName': 'RIGHT', 'positionCoords': [665.6, 195], 'bid': 1.84}]",65894.69999992847,1669829539445,bagel plain,cocktailshrimp,2.7,1.84,-0.8600000000000001,bagel plain,838.1000000238419,844,843.8999999761581,True,u,67239.0,1344.3000000715256,1669829540789,1344,HRV,HRV_0070,2022-11-30 17:37:38
26,"[{'imgObject': {}, 'id': 'yogurt no spoon', 'src': '/static/foodstim60/yogurt no spoon.jpg', 'key': 'u', 'origWidth': 411, 'origHeight': 410, 'width': 411, 'height': 410, 'widthPercent': 0.45, 'rescaleHeight': False, 'trialN': 26, 'loaded': True, 'loadedTime': 17681.099999904633, 'positionName': 'LEFT', 'positionCoords': [203.4, 195], 'bid': 6.75}, {'imgObject': {}, 'id': 'cantaloupe', 'src': '/static/foodstim60/cantaloupe.jpg', 'key': 'i', 'origWidth': 409, 'origHeight': 409, 'width': 409, 'height': 409, 'widthPercent': 0.45, 'rescaleHeight': False, 'trialN': 26, 'loaded': True, 'loadedTime': 18665.299999952316, 'positionName': 'RIGHT', 'positionCoords': [665.6, 195.5], 'bid': 9.1}]",67239.29999995232,1669829540789,yogurt no spoon,cantaloupe,6.75,9.1,2.3499999999999996,cantaloupe,1221.3999999761581,1229,1228.3999999761581,True,i,68968.29999995232,1729.0,1669829542518,1729,HRV,HRV_0070,2022-11-30 17:37:38
27,"[{'imgObject': {}, 'id': 'apple slices', 'src': '/static/foodstim60/apple slices.jpg', 'key': 'u', 'origWidth': 409, 'origHeight': 410, 'width': 409, 'height': 410, 'widthPercent': 0.45, 'rescaleHeight': False, 'trialN': 27, 'loaded': True, 'loadedTime': 16651.599999904633, 'positionName': 'LEFT', 'positionCoords': [205.4, 195], 'bid': 7.67}, {'imgObject': {}, 'id': 'cheerios', 'src': '/static/foodstim60/cheerios.jpg', 'key': 'i', 'origWidth': 409, 'origHeight': 410, 'width': 409, 'height': 410, 'widthPercent': 0.45, 'rescaleHeight': False, 'trialN': 27, 'loaded': True, 'loadedTime': 18772.299999952316, 'positionName': 'RIGHT', 'positionCoords': [665.6, 195], 'bid': 7.82}]",68968.5,1669829542519,apple slices,cheerios,7.67,7.82,0.15000000000000036,cheerios,1692.0999999046326,1697,1697.7999999523163,True,i,71166.79999995232,2198.2999999523163,1669829544717,2198,HRV,HRV_0070,2022-11-30 17:37:38
28,"[{'imgObject': {}, 'id': 'steak', 'src': '/static/foodstim60/steak.jpg', 'key': 'u', 'origWidth': 410, 'origHeight': 410, 'width': 410, 'height': 410, 'widthPercent': 0.45, 'rescaleHeight': False, 'trialN': 28, 'loaded': True, 'loadedTime': 18441.599999904633, 'positionName': 'LEFT', 'positionCoords': [204.4, 195], 'bid': 1.25}, {'imgObject': {}, 'id': 'Tribe humus pita', 'src': '/static/foodstim60/Tribe humus pita.jpg', 'key': 'i', 'origWidth': 411, 'origHeight': 411, 'width': 411, 'height': 411, 'widthPercent': 0.45, 'rescaleHeight': False, 'trialN': 28, 'loaded': True, 'loadedTime': 18781.199999928474, 'positionName': 'RIGHT', 'positionCoords': [665.6, 194.5], 'bid': 6.6000000000000005}]",71166.89999997616,1669829544717,steak,Tribe humus pita,1.25,6.6000000000000005,5.3500000000000005,Tribe humus pita,1043.8999999761581,1050,1049.5,True,i,72716.79999995232,1549.8999999761581,1669829546267,1550,HRV,HRV_0070,2022-11-30 17:37:38
29,"[{'imgObject': {}, 'id': 'shreddedwheatwithmilk', 'src': '/static/foodstim60/shreddedwheatwithmilk.jpg', 'key': 'u', 'origWidth': 410, 'origHeight': 410, 'width': 410, 'height': 410, 'widthPercent': 0.45, 'rescaleHeight': False, 'trialN': 29, 'loaded': True, 'loadedTime': 17198.799999952316, 'positionName': 'LEFT', 'positionCoords': [204.4, 195], 'bid': 5.29}, {'imgObject': {}, 'id': 'fried eggs', 'src': '/static/foodstim60/fried eggs.jpg', 'key': 'i', 'origWidth': 410, 'origHeight': 410, 'width': 410, 'height': 410, 'widthPercent': 0.45, 'rescaleHeight': False, 'trialN': 29, 'loaded': True, 'loadedTime': 18783.5, 'positionName': 'RIGHT', 'positionCoords': [665.6, 195], 'bid': 5.39}]",72716.89999997616,1669829546267,shreddedwheatwithmilk,fried eggs,5.29,5.39,0.09999999999999964,shreddedwheatwithmilk,1293,1301,1300.8999999761581,True,u,74518.39999997616,1801.5,1669829548069,1802,HRV,HRV_0070,2022-11-30 17:37:38
30,"[{'imgObject': {}, 'id': 'chickenfingers', 'src': '/static/foodstim60/chickenfingers.jpg', 'key': 'u', 'origWidth': 410, 'origHeight': 410, 'width': 410, 'height': 410, 'widthPercent': 0.45, 'rescaleHeight': False, 'trialN': 30, 'loaded': True, 'loadedTime': 18806.699999928474, 'positionName': 'LEFT', 'positionCoords': [204.4, 195], 'bid': 6.04}, {'imgObject': {}, 'id': 'yogurt no spoon', 'src': '/static/foodstim60/yogurt no spoon.jpg', 'key': 'i', 'origWidth': 411, 'origHeight': 410, 'width': 411, 'height': 410, 'widthPercent': 0.45, 'rescaleHeight': False, 'trialN': 30, 'loaded': True, 'loadedTime': 17681.699999928474, 'positionName': 'RIGHT', 'positionCoords': [665.6, 195], 'bid': 6.75}]",74518.69999992847,1669829548069,chickenfingers,yogurt no spoon,6.04,6.75,0.71,chickenfingers,1176.8000000715256,1182,1181.7000000476837,True,u,76200.59999990463,1681.8999999761581,1669829549751,1682,HRV,HRV_0070,2022-11-30 17:37:38
31,"[{'imgObject': {}, 'id': 'veggieswithdip', 'src': '/static/foodstim60/veggieswithdip.jpg', 'key': 'u', 'origWidth': 409, 'origHeight': 409, 'width': 409, 'height': 409, 'widthPercent': 0.45, 'rescaleHeight': False, 'trialN': 31, 'loaded': True, 'loadedTime': 18807.599999904633, 'positionName': 'LEFT', 'positionCoords': [205.4, 195.5], 'bid': 8.42}, {'imgObject': {}, 'id': 'orange slices', 'src': '/static/foodstim60/orange slices.jpg', 'key': 'i', 'origWidth': 409, 'origHeight': 410, 'width': 409, 'height': 410, 'widthPercent': 0.45, 'rescaleHeight': False, 'trialN': 31, 'loaded': True, 'loadedTime': 18836.299999952316, 'positionName': 'RIGHT', 'positionCoords': [665.6, 195], 'bid': 8.34}]",76200.69999992847,1669829549751,veggieswithdip,orange slices,8.42,8.34,-0.08000000000000007,orange slices,1269.1000000238419,1277,1276.5,True,i,77977.59999990463,1776.8999999761581,1669829551528,1777,HRV,HRV_0070,2022-11-30 17:37:38
32,"[{'imgObject': {}, 'id': 'salmon', 'src': '/static/foodstim60/salmon.jpg', 'key': 'u', 'origWidth': 410, 'origHeight': 409, 'width': 410, 'height': 409, 'widthPercent': 0.45, 'rescaleHeight': False, 'trialN': 32, 'loaded': True, 'loadedTime': 18840.199999928474, 'positionName': 'LEFT', 'positionCoords': [204.4, 195.5], 'bid': 7.84}, {'imgObject': {}, 'id': 'rigatoni', 'src': '/static/foodstim60/rigatoni.jpg', 'key': 'i', 'origWidth': 411, 'origHeight': 411, 'width': 411, 'height': 411, 'widthPercent': 0.45, 'rescaleHeight': False, 'trialN': 32, 'loaded': True, 'loadedTime': 18850.899999976158, 'positionName': 'RIGHT', 'positionCoords': [665.6, 194.5], 'bid': 8.120000000000001}]",77977.79999995232,1669829551528,salmon,rigatoni,7.84,8.120000000000001,0.28000000000000114,rigatoni,781.7999999523163,790,789.3999999761581,True,i,79267.89999997616,1290.1000000238419,1669829552818,1290,HRV,HRV_0070,2022-11-30 17:37:38
33,"[{'imgObject': {}, 'id': 'cheerios', 'src': '/static/foodstim60/cheerios.jpg', 'key': 'u', 'origWidth': 409, 'origHeight': 410, 'width': 409, 'height': 410, 'widthPercent': 0.45, 'rescaleHeight': False, 'trialN': 33, 'loaded': True, 'loadedTime': 18772, 'positionName': 'LEFT', 'positionCoords': [205.4, 195], 'bid': 7.82}, {'imgObject': {}, 'id': 'strawberries', 'src': '/static/foodstim60/strawberries.jpg', 'key': 'i', 'origWidth': 410, 'origHeight': 410, 'width': 410, 'height': 410, 'widthPercent': 0.45, 'rescaleHeight': False, 'trialN': 33, 'loaded': True, 'loadedTime': 18880.899999976158, 'positionName': 'RIGHT', 'positionCoords': [665.6, 195], 'bid': 9.82}]",79268.09999990463,1669829552818,cheerios,strawberries,7.82,9.82,2.0,strawberries,974.3000000715256,980,979.7000000476837,True,i,80748.69999992847,1480.6000000238419,1669829554299,1481,HRV,HRV_0070,2022-11-30 17:37:38
34,"[{'imgObject': {}, 'id': 'tacos', 'src': '/static/foodstim60/tacos.jpg', 'key': 'u', 'origWidth': 411, 'origHeight': 411, 'width': 411, 'height': 411, 'widthPercent': 0.45, 'rescaleHeight': False, 'trialN': 34, 'loaded': True, 'loadedTime': 18883.399999976158, 'positionName': 'LEFT', 'positionCoords': [203.4, 194.5], 'bid': 8.84}, {'imgObject': {}, 'id': 'veggieswithdip', 'src': '/static/foodstim60/veggieswithdip.jpg', 'key': 'i', 'origWidth': 409, 'origHeight': 409, 'width': 409, 'height': 409, 'widthPercent': 0.45, 'rescaleHeight': False, 'trialN': 34, 'loaded': True, 'loadedTime': 18814.399999976158, 'positionName': 'RIGHT', 'positionCoords': [665.6, 195.5], 'bid': 8.42}]",80749.0,1669829554299,tacos,veggieswithdip,8.84,8.42,-0.41999999999999993,tacos,864.6999999284744,873,872.8999999761581,True,u,82122.09999990463,1373.0999999046326,1669829555673,1374,HRV,HRV_0070,2022-11-30 17:37:38
35,"[{'imgObject': {}, 'id': 'hashbrowns', 'src': '/static/foodstim60/hashbrowns.jpg', 'key': 'u', 'origWidth': 411, 'origHeight': 410, 'width': 411, 'height': 410, 'widthPercent': 0.45, 'rescaleHeight': False, 'trialN': 35, 'loaded': True, 'loadedTime': 16878.599999904633, 'positionName': 'LEFT', 'positionCoords': [203.4, 195], 'bid': 3.87}, {'imgObject': {}, 'id': 'chickenfingers', 'src': '/static/foodstim60/chickenfingers.jpg', 'key': 'i', 'origWidth': 410, 'origHeight': 410, 'width': 410, 'height': 410, 'widthPercent': 0.45, 'rescaleHeight': False, 'trialN': 35, 'loaded': True, 'loadedTime': 18803.599999904633, 'positionName': 'RIGHT', 'positionCoords': [665.6, 195], 'bid': 6.04}]",82122.29999995232,1669829555673,hashbrowns,chickenfingers,3.87,6.04,2.17,chickenfingers,1055.2999999523163,1060,1060.3999999761581,True,i,83683.59999990463,1561.2999999523163,1669829557234,1561,HRV,HRV_0070,2022-11-30 17:37:38
36,"[{'imgObject': {}, 'id': 'granola w milk', 'src': '/static/foodstim60/granola w milk.jpg', 'key': 'u', 'origWidth': 410, 'origHeight': 410, 'width': 410, 'height': 410, 'widthPercent': 0.45, 'rescaleHeight': False, 'trialN': 36, 'loaded': True, 'loadedTime': 16543.599999904633, 'positionName': 'LEFT', 'positionCoords': [204.4, 195], 'bid': 5.51}, {'imgObject': {}, 'id': 'pear', 'src': '/static/foodstim60/pear.jpg', 'key': 'i', 'origWidth': 411, 'origHeight': 410, 'width': 411, 'height': 410, 'widthPercent': 0.45, 'rescaleHeight': False, 'trialN': 36, 'loaded': True, 'loadedTime': 18887.599999904633, 'positionName': 'RIGHT', 'positionCoords': [665.6, 195], 'bid': 3.7}]",83683.69999992847,1669829557234,granola w milk,pear,5.51,3.7,-1.8099999999999996,granola w milk,1354.6000000238419,1360,1359.3999999761581,True,u,85543.29999995232,1859.6000000238419,1669829559094,1860,HRV,HRV_0070,2022-11-30 17:37:38
37,"[{'imgObject': {}, 'id': 'salmon', 'src': '/static/foodstim60/salmon.jpg', 'key': 'u', 'origWidth': 410, 'origHeight': 409, 'width': 410, 'height': 409, 'widthPercent': 0.45, 'rescaleHeight': False, 'trialN': 37, 'loaded': True, 'loadedTime': 18837.799999952316, 'positionName': 'LEFT', 'positionCoords': [204.4, 195.5], 'bid': 7.84}, {'imgObject': {}, 'id': 'fruitsalad', 'src': '/static/foodstim60/fruitsalad.jpg', 'key': 'i', 'origWidth': 410, 'origHeight': 410, 'width': 410, 'height': 410, 'widthPercent': 0.45, 'rescaleHeight': False, 'trialN': 37, 'loaded': True, 'loadedTime': 17519.799999952316, 'positionName': 'RIGHT', 'positionCoords': [665.6, 195], 'bid': 8.06}]",85543.89999997616,1669829559094,salmon,fruitsalad,7.84,8.06,0.22000000000000064,fruitsalad,885.5,891,890.6999999284744,True,i,86934.79999995232,1390.8999999761581,1669829560485,1391,HRV,HRV_0070,2022-11-30 17:37:38
38,"[{'imgObject': {}, 'id': 'Grapes', 'src': '/static/foodstim60/Grapes.jpg', 'key': 'u', 'origWidth': 411, 'origHeight': 411, 'width': 411, 'height': 411, 'widthPercent': 0.45, 'rescaleHeight': False, 'trialN': 38, 'loaded': True, 'loadedTime': 16308.599999904633, 'positionName': 'LEFT', 'positionCoords': [203.4, 194.5], 'bid': 3.54}, {'imgObject': {}, 'id': 'chicken nuggets2', 'src': '/static/foodstim60/chicken nuggets2.jpg', 'key': 'i', 'origWidth': 410, 'origHeight': 409, 'width': 410, 'height': 409, 'widthPercent': 0.45, 'rescaleHeight': False, 'trialN': 38, 'loaded': True, 'loadedTime': 17995.899999976158, 'positionName': 'RIGHT', 'positionCoords': [665.6, 195.5], 'bid': 1.35}]",86935.0,1669829560486,Grapes,chicken nuggets2,3.54,1.35,-2.19,chicken nuggets2,1742.5,1747,1747.7999999523163,True,i,89184.09999990463,2249.0999999046326,1669829562735,2249,HRV,HRV_0070,2022-11-30 17:37:38
39,"[{'imgObject': {}, 'id': 'luckycharms', 'src': '/static/foodstim60/luckycharms.jpg', 'key': 'u', 'origWidth': 410, 'origHeight': 409, 'width': 410, 'height': 409, 'widthPercent': 0.45, 'rescaleHeight': False, 'trialN': 39, 'loaded': True, 'loadedTime': 16979.299999952316, 'positionName': 'LEFT', 'positionCoords': [204.4, 195.5], 'bid': 9.64}, {'imgObject': {}, 'id': 'tacos', 'src': '/static/foodstim60/tacos.jpg', 'key': 'i', 'origWidth': 411, 'origHeight': 411, 'width': 411, 'height': 411, 'widthPercent': 0.45, 'rescaleHeight': False, 'trialN': 39, 'loaded': True, 'loadedTime': 18883.599999904633, 'positionName': 'RIGHT', 'positionCoords': [665.6, 194.5], 'bid': 8.84}]",89184.39999997616,1669829562735,luckycharms,tacos,9.64,8.84,-0.8000000000000007,tacos,994.1000000238419,1002,1002.0,True,i,90687.09999990463,1502.6999999284744,1669829564238,1503,HRV,HRV_0070,2022-11-30 17:37:38
40,"[{'imgObject': {}, 'id': 'burger', 'src': '/static/foodstim60/burger.jpg', 'key': 'u', 'origWidth': 409, 'origHeight': 409, 'width': 409, 'height': 409, 'widthPercent': 0.45, 'rescaleHeight': False, 'trialN': 40, 'loaded': True, 'loadedTime': 18895.099999904633, 'positionName': 'LEFT', 'positionCoords': [205.4, 195.5], 'bid': 4.03}, {'imgObject': {}, 'id': 'cocktailshrimp', 'src': '/static/foodstim60/cocktailshrimp.jpg', 'key': 'i', 'origWidth': 410, 'origHeight': 410, 'width': 410, 'height': 410, 'widthPercent': 0.45, 'rescaleHeight': False, 'trialN': 40, 'loaded': True, 'loadedTime': 17303, 'positionName': 'RIGHT', 'positionCoords': [665.6, 195], 'bid': 1.84}]",90687.29999995232,1669829564238,burger,cocktailshrimp,4.03,1.84,-2.1900000000000004,burger,1923.1000000238419,1929,1928.5,True,u,93116.0,2428.7000000476837,1669829566667,2429,HRV,HRV_0070,2022-11-30 17:37:38
41,"[{'imgObject': {}, 'id': 'banana', 'src': '/static/foodstim60/banana.jpg', 'key': 'u', 'origWidth': 410, 'origHeight': 410, 'width': 410, 'height': 410, 'widthPercent': 0.45, 'rescaleHeight': False, 'trialN': 41, 'loaded': True, 'loadedTime': 18204.5, 'positionName': 'LEFT', 'positionCoords': [204.4, 195], 'bid': 2.71}, {'imgObject': {}, 'id': 'sushi w_condiments', 'src': '/static/foodstim60/sushi w_condiments.jpg', 'key': 'i', 'origWidth': 410, 'origHeight': 410, 'width': 410, 'height': 410, 'widthPercent': 0.45, 'rescaleHeight': False, 'trialN': 41, 'loaded': True, 'loadedTime': 18313.799999952316, 'positionName': 'RIGHT', 'positionCoords': [665.6, 195], 'bid': 0.14}]",93116.09999990463,1669829566667,banana,sushi w_condiments,2.71,0.14,-2.57,banana,952.6000000238419,959,959.0,True,u,94575.59999990463,1459.5,1669829568126,1459,HRV,HRV_0070,2022-11-30 17:37:38
42,"[{'imgObject': {}, 'id': 'sushi w_condiments', 'src': '/static/foodstim60/sushi w_condiments.jpg', 'key': 'u', 'origWidth': 410, 'origHeight': 410, 'width': 410, 'height': 410, 'widthPercent': 0.45, 'rescaleHeight': False, 'trialN': 42, 'loaded': True, 'loadedTime': 18315.799999952316, 'positionName': 'LEFT', 'positionCoords': [204.4, 195], 'bid': 0.14}, {'imgObject': {}, 'id': 'edamame', 'src': '/static/foodstim60/edamame.jpg', 'key': 'i', 'origWidth': 409, 'origHeight': 410, 'width': 409, 'height': 410, 'widthPercent': 0.45, 'rescaleHeight': False, 'trialN': 42, 'loaded': True, 'loadedTime': 17073.099999904633, 'positionName': 'RIGHT', 'positionCoords': [665.6, 195], 'bid': 0.75}]",94575.59999990463,1669829568126,sushi w_condiments,edamame,0.14,0.75,0.61,edamame,1036.8000000715256,1044,1044.0,True,i,96119.69999992847,1544.1000000238419,1669829569671,1545,HRV,HRV_0070,2022-11-30 17:37:38
43,"[{'imgObject': {}, 'id': 'raspberries', 'src': '/static/foodstim60/raspberries.jpg', 'key': 'u', 'origWidth': 411, 'origHeight': 411, 'width': 411, 'height': 411, 'widthPercent': 0.45, 'rescaleHeight': False, 'trialN': 43, 'loaded': True, 'loadedTime': 18897.899999976158, 'positionName': 'LEFT', 'positionCoords': [203.4, 194.5], 'bid': 9.01}, {'imgObject': {}, 'id': 'Tribe humus pita', 'src': '/static/foodstim60/Tribe humus pita.jpg', 'key': 'i', 'origWidth': 411, 'origHeight': 411, 'width': 411, 'height': 411, 'widthPercent': 0.45, 'rescaleHeight': False, 'trialN': 43, 'loaded': True, 'loadedTime': 18776.599999904633, 'positionName': 'RIGHT', 'positionCoords': [665.6, 194.5], 'bid': 6.6000000000000005}]",96119.89999997616,1669829569671,raspberries,Tribe humus pita,9.01,6.6000000000000005,-2.4099999999999993,raspberries,1129.2999999523163,1136,1136.6000000238419,True,u,97756.89999997616,1637.0,1669829571308,1637,HRV,HRV_0070,2022-11-30 17:37:38
44,"[{'imgObject': {}, 'id': 'kiwi', 'src': '/static/foodstim60/kiwi.jpg', 'key': 'u', 'origWidth': 410, 'origHeight': 410, 'width': 410, 'height': 410, 'widthPercent': 0.45, 'rescaleHeight': False, 'trialN': 44, 'loaded': True, 'loadedTime': 16453.299999952316, 'positionName': 'LEFT', 'positionCoords': [204.4, 195], 'bid': 2.35}, {'imgObject': {}, 'id': 'olives', 'src': '/static/foodstim60/olives.jpg', 'key': 'i', 'origWidth': 410, 'origHeight': 410, 'width': 410, 'height': 410, 'widthPercent': 0.45, 'rescaleHeight': False, 'trialN': 44, 'loaded': True, 'loadedTime': 18443.599999904633, 'positionName': 'RIGHT', 'positionCoords': [665.6, 195], 'bid': 0.09}]",97757.09999990463,1669829571308,kiwi,olives,2.35,0.09,-2.2600000000000002,kiwi,1556.6000000238419,1563,1562.7000000476837,True,u,99820.39999997616,2063.3000000715256,1669829573371,2063,HRV,HRV_0070,2022-11-30 17:37:38
45,"[{'imgObject': {}, 'id': 'rigatoni and sauce', 'src': '/static/foodstim60/rigatoni and sauce.jpg', 'key': 'u', 'origWidth': 410, 'origHeight': 411, 'width': 410, 'height': 411, 'widthPercent': 0.45, 'rescaleHeight': False, 'trialN': 45, 'loaded': True, 'loadedTime': 18557.699999928474, 'positionName': 'LEFT', 'positionCoords': [204.4, 194.5], 'bid': 8.35}, {'imgObject': {}, 'id': 'orange slices', 'src': '/static/foodstim60/orange slices.jpg', 'key': 'i', 'origWidth': 409, 'origHeight': 410, 'width': 409, 'height': 410, 'widthPercent': 0.45, 'rescaleHeight': False, 'trialN': 45, 'loaded': True, 'loadedTime': 18837.299999952316, 'positionName': 'RIGHT', 'positionCoords': [665.6, 195], 'bid': 8.34}]",99820.59999990463,1669829573372,rigatoni and sauce,orange slices,8.35,8.34,-0.009999999999999787,NaN,NaN,NaN,,False,NaN,103821.69999992847,4001.100000023842,1669829577373,4001,HRV,HRV_0070,2022-11-30 17:37:38
46,"[{'imgObject': {}, 'id': 'chickenfingers', 'src': '/static/foodstim60/chickenfingers.jpg', 'key': 'u', 'origWidth': 410, 'origHeight': 410, 'width': 410, 'height': 410, 'widthPercent': 0.45, 'rescaleHeight': False, 'trialN': 46, 'loaded': True, 'loadedTime': 18806.899999976158, 'positionName': 'LEFT', 'positionCoords': [204.4, 195], 'bid': 6.04}, {'imgObject': {}, 'id': 'cheerios', 'src': '/static/foodstim60/cheerios.jpg', 'key': 'i', 'origWidth': 409, 'origHeight': 410, 'width': 409, 'height': 410, 'widthPercent': 0.45, 'rescaleHeight': False, 'trialN': 46, 'loaded': True, 'loadedTime': 18770.399999976158, 'positionName': 'RIGHT', 'positionCoords': [665.6, 195], 'bid': 7.82}]",103821.89999997616,1669829577373,chickenfingers,cheerios,6.04,7.82,1.7800000000000002,cheerios,2750.2999999523163,2758,2757.7999999523163,True,i,107081.09999990463,3259.1999999284744,1669829580632,3259,HRV,HRV_0070,2022-11-30 17:37:38
47,"[{'imgObject': {}, 'id': 'luckycharms', 'src': '/static/foodstim60/luckycharms.jpg', 'key': 'u', 'origWidth': 410, 'origHeight': 409, 'width': 410, 'height': 409, 'widthPercent': 0.45, 'rescaleHeight': False, 'trialN': 47, 'loaded': True, 'loadedTime': 16983.599999904633, 'positionName': 'LEFT', 'positionCoords': [204.4, 195.5], 'bid': 9.64}, {'imgObject': {}, 'id': 'apple slices', 'src': '/static/foodstim60/apple slices.jpg', 'key': 'i', 'origWidth': 409, 'origHeight': 410, 'width': 409, 'height': 410, 'widthPercent': 0.45, 'rescaleHeight': False, 'trialN': 47, 'loaded': True, 'loadedTime': 16653.899999976158, 'positionName': 'RIGHT', 'positionCoords': [665.6, 195], 'bid': 7.67}]",107081.19999992847,1669829580632,luckycharms,apple slices,9.64,7.67,-1.9700000000000006,apple slices,1629.1000000238419,1637,1637.0,True,i,109218.5,2137.3000000715256,1669829582770,2138,HRV,HRV_0070,2022-11-30 17:37:38
48,"[{'imgObject': {}, 'id': 'ice cream sundae 002', 'src': '/static/foodstim60/ice cream sundae 002.jpg', 'key': 'u', 'origWidth': 409, 'origHeight': 409, 'width': 409, 'height': 409, 'widthPercent': 0.45, 'rescaleHeight': False, 'trialN': 48, 'loaded': True, 'loadedTime': 17995.399999976158, 'positionName': 'LEFT', 'positionCoords': [205.4, 195.5], 'bid': 4.92}, {'imgObject': {}, 'id': 'rigatoni', 'src': '/static/foodstim60/rigatoni.jpg', 'key': 'i', 'origWidth': 411, 'origHeight': 411, 'width': 411, 'height': 411, 'widthPercent': 0.45, 'rescaleHeight': False, 'trialN': 48, 'loaded': True, 'loadedTime': 18852.699999928474, 'positionName': 'RIGHT', 'positionCoords': [665.6, 194.5], 'bid': 8.120000000000001}]",109218.69999992847,1669829582770,ice cream sundae 002,rigatoni,4.92,8.120000000000001,3.200000000000001,rigatoni,871.3999999761581,879,879.1000000238419,True,i,110598.39999997616,1379.7000000476837,1669829584150,1380,HRV,HRV_0070,2022-11-30 17:37:38
49,"[{'imgObject': {}, 'id': 'mashed potato', 'src': '/static/foodstim60/mashed potato.jpg', 'key': 'u', 'origWidth': 409, 'origHeight': 409, 'width': 409, 'height': 409, 'widthPercent': 0.45, 'rescaleHeight': False, 'trialN': 49, 'loaded': True, 'loadedTime': 16771.199999928474, 'positionName': 'LEFT', 'positionCoords': [205.4, 195.5], 'bid': 4.12}, {'imgObject': {}, 'id': 'burger', 'src': '/static/foodstim60/burger.jpg', 'key': 'i', 'origWidth': 409, 'origHeight': 409, 'width': 409, 'height': 409, 'widthPercent': 0.45, 'rescaleHeight': False, 'trialN': 49, 'loaded': True, 'loadedTime': 18895.299999952316, 'positionName': 'RIGHT', 'positionCoords': [665.6, 195.5], 'bid': 4.03}]",110598.5,1669829584150,mashed potato,burger,4.12,4.03,-0.08999999999999986,burger,1576.6999999284744,1584,1584.5999999046326,True,i,112683.79999995232,2085.2999999523163,1669829586235,2085,HRV,HRV_0070,2022-11-30 17:37:38
50,"[{'imgObject': {}, 'id': 'fruitsalad', 'src': '/static/foodstim60/fruitsalad.jpg', 'key': 'u', 'origWidth': 410, 'origHeight': 410, 'width': 410, 'height': 410, 'widthPercent': 0.45, 'rescaleHeight': False, 'trialN': 50, 'loaded': True, 'loadedTime': 17517.399999976158, 'positionName': 'LEFT', 'positionCoords': [204.4, 195], 'bid': 8.06}, {'imgObject': {}, 'id': 'popsicles', 'src': '/static/foodstim60/popsicles.jpg', 'key': 'i', 'origWidth': 410, 'origHeight': 410, 'width': 410, 'height': 410, 'widthPercent': 0.45, 'rescaleHeight': False, 'trialN': 50, 'loaded': True, 'loadedTime': 18903.5, 'positionName': 'RIGHT', 'positionCoords': [665.6, 195], 'bid': 8.2}]",112684.09999990463,1669829586235,fruitsalad,popsicles,8.06,8.2,0.1399999999999988,popsicles,803.8000000715256,813,812.1000000238419,True,i,113997.0,1312.9000000953674,1669829587548,1313,HRV,HRV_0070,2022-11-30 17:37:38
51,"[{'imgObject': {}, 'id': 'cantaloupe', 'src': '/static/foodstim60/cantaloupe.jpg', 'key': 'u', 'origWidth': 409, 'origHeight': 409, 'width': 409, 'height': 409, 'widthPercent': 0.45, 'rescaleHeight': False, 'trialN': 51, 'loaded': True, 'loadedTime': 18665.599999904633, 'positionName': 'LEFT', 'positionCoords': [205.4, 195.5], 'bid': 9.1}, {'imgObject': {}, 'id': 'grilled chicken strips', 'src': '/static/foodstim60/grilled chicken strips.jpg', 'key': 'i', 'origWidth': 410, 'origHeight': 411, 'width': 410, 'height': 411, 'widthPercent': 0.45, 'rescaleHeight': False, 'trialN': 51, 'loaded': True, 'loadedTime': 18904.599999904633, 'positionName': 'RIGHT', 'positionCoords': [665.6, 194.5], 'bid': 8.950000000000001}]",113997.19999992847,1669829587549,cantaloupe,grilled chicken strips,9.1,8.950000000000001,-0.14999999999999858,grilled chicken strips,736,741,741.5,True,i,115239.39999997616,1242.2000000476837,1669829588791,1242,HRV,HRV_0070,2022-11-30 17:37:38
52,"[{'imgObject': {}, 'id': 'seaweed', 'src': '/static/foodstim60/seaweed.jpg', 'key': 'u', 'origWidth': 410, 'origHeight': 410, 'width': 410, 'height': 410, 'widthPercent': 0.45, 'rescaleHeight': False, 'trialN': 52, 'loaded': True, 'loadedTime': 18313, 'positionName': 'LEFT', 'positionCoords': [204.4, 195], 'bid': 0.12}, {'imgObject': {}, 'id': 'mac & cheese', 'src': '/static/foodstim60/mac & cheese.jpg', 'key': 'i', 'origWidth': 410, 'origHeight': 410, 'width': 410, 'height': 410, 'widthPercent': 0.45, 'rescaleHeight': False, 'trialN': 52, 'loaded': True, 'loadedTime': 18955.899999976158, 'positionName': 'RIGHT', 'positionCoords': [665.6, 195], 'bid': 1.46}]",115239.59999990463,1669829588791,seaweed,mac & cheese,0.12,1.46,1.3399999999999999,seaweed,994.3000000715256,1002,1001.5,True,u,116741.79999995232,1502.2000000476837,1669829590293,1502,HRV,HRV_0070,2022-11-30 17:37:38
53,"[{'imgObject': {}, 'id': 'rigatoni', 'src': '/static/foodstim60/rigatoni.jpg', 'key': 'u', 'origWidth': 411, 'origHeight': 411, 'width': 411, 'height': 411, 'widthPercent': 0.45, 'rescaleHeight': False, 'trialN': 53, 'loaded': True, 'loadedTime': 18851.199999928474, 'positionName': 'LEFT', 'positionCoords': [203.4, 194.5], 'bid': 8.120000000000001}, {'imgObject': {}, 'id': 'avocado', 'src': '/static/foodstim60/avocado.jpg', 'key': 'i', 'origWidth': 409, 'origHeight': 409, 'width': 409, 'height': 409, 'widthPercent': 0.45, 'rescaleHeight': False, 'trialN': 53, 'loaded': True, 'loadedTime': 18958, 'positionName': 'RIGHT', 'positionCoords': [665.6, 195.5], 'bid': 2.32}]",116741.89999997616,1669829590293,rigatoni,avocado,8.120000000000001,2.32,-5.800000000000001,rigatoni,834.8999999761581,843,842.6999999284744,True,u,118085.29999995232,1343.3999999761581,1669829591637,1344,HRV,HRV_0070,2022-11-30 17:37:38
54,"[{'imgObject': {}, 'id': 'cocktailshrimp', 'src': '/static/foodstim60/cocktailshrimp.jpg', 'key': 'u', 'origWidth': 410, 'origHeight': 410, 'width': 410, 'height': 410, 'widthPercent': 0.45, 'rescaleHeight': False, 'trialN': 54, 'loaded': True, 'loadedTime': 17406.5, 'positionName': 'LEFT', 'positionCoords': [204.4, 195], 'bid': 1.84}, {'imgObject': {}, 'id': 'froot loops w milk', 'src': '/static/foodstim60/froot loops w milk.jpg', 'key': 'i', 'origWidth': 410, 'origHeight': 410, 'width': 410, 'height': 410, 'widthPercent': 0.45, 'rescaleHeight': False, 'trialN': 54, 'loaded': True, 'loadedTime': 18961.099999904633, 'positionName': 'RIGHT', 'positionCoords': [665.6, 195], 'bid': 1.82}]",118085.5,1669829591637,cocktailshrimp,froot loops w milk,1.84,1.82,-0.020000000000000018,froot loops w milk,1007.5999999046326,1015,1015.5,True,i,119601.29999995232,1515.7999999523163,1669829593153,1516,HRV,HRV_0070,2022-11-30 17:37:38
55,"[{'imgObject': {}, 'id': 'turkeysandwich', 'src': '/static/foodstim60/turkeysandwich.jpg', 'key': 'u', 'origWidth': 409, 'origHeight': 409, 'width': 409, 'height': 409, 'widthPercent': 0.45, 'rescaleHeight': False, 'trialN': 55, 'loaded': True, 'loadedTime': 18451.199999928474, 'positionName': 'LEFT', 'positionCoords': [205.4, 195.5], 'bid': 1.84}, {'imgObject': {}, 'id': 'banana', 'src': '/static/foodstim60/banana.jpg', 'key': 'i', 'origWidth': 410, 'origHeight': 410, 'width': 410, 'height': 410, 'widthPercent': 0.45, 'rescaleHeight': False, 'trialN': 55, 'loaded': True, 'loadedTime': 18204.799999952316, 'positionName': 'RIGHT', 'positionCoords': [665.6, 195], 'bid': 2.71}]",119602.0,1669829593153,turkeysandwich,banana,1.84,2.71,0.8699999999999999,banana,883.0999999046326,891,890.6999999284744,True,i,120993.19999992847,1391.1999999284744,1669829594545,1392,HRV,HRV_0070,2022-11-30 17:37:38
56,"[{'imgObject': {}, 'id': 'kiwi', 'src': '/static/foodstim60/kiwi.jpg', 'key': 'u', 'origWidth': 410, 'origHeight': 410, 'width': 410, 'height': 410, 'widthPercent': 0.45, 'rescaleHeight': False, 'trialN': 56, 'loaded': True, 'loadedTime': 16452.399999976158, 'positionName': 'LEFT', 'positionCoords': [204.4, 195], 'bid': 2.35}, {'imgObject': {}, 'id': 'edamame', 'src': '/static/foodstim60/edamame.jpg', 'key': 'i', 'origWidth': 409, 'origHeight': 410, 'width': 409, 'height': 410, 'widthPercent': 0.45, 'rescaleHeight': False, 'trialN': 56, 'loaded': True, 'loadedTime': 17075.799999952316, 'positionName': 'RIGHT', 'positionCoords': [665.6, 195], 'bid': 0.75}]",120993.39999997616,1669829594545,kiwi,edamame,2.35,0.75,-1.6,edamame,1434.6000000238419,1442,1442.1999999284744,True,i,122935.79999995232,1942.3999999761581,1669829596487,1942,HRV,HRV_0070,2022-11-30 17:37:38
57,"[{'imgObject': {}, 'id': 'burrito', 'src': '/static/foodstim60/burrito.jpg', 'key': 'u', 'origWidth': 410, 'origHeight': 410, 'width': 410, 'height': 410, 'widthPercent': 0.45, 'rescaleHeight': False, 'trialN': 57, 'loaded': True, 'loadedTime': 18657.399999976158, 'positionName': 'LEFT', 'positionCoords': [204.4, 195], 'bid': 2.45}, {'imgObject': {}, 'id': 'bagel plain', 'src': '/static/foodstim60/bagel plain.jpg', 'key': 'i', 'origWidth': 410, 'origHeight': 410, 'width': 410, 'height': 410, 'widthPercent': 0.45, 'rescaleHeight': False, 'trialN': 57, 'loaded': True, 'loadedTime': 18097.599999904633, 'positionName': 'RIGHT', 'positionCoords': [665.6, 195], 'bid': 2.7}]",122936.0,1669829596488,burrito,bagel plain,2.45,2.7,0.25,burrito,1641.2999999523163,1648,1648.3999999761581,True,u,125084.69999992847,2148.6999999284744,1669829598636,2148,HRV,HRV_0070,2022-11-30 17:37:38
58,"[{'imgObject': {}, 'id': 'orange slices', 'src': '/static/foodstim60/orange slices.jpg', 'key': 'u', 'origWidth': 409, 'origHeight': 410, 'width': 409, 'height': 410, 'widthPercent': 0.45, 'rescaleHeight': False, 'trialN': 58, 'loaded': True, 'loadedTime': 18837.699999928474, 'positionName': 'LEFT', 'positionCoords': [205.4, 195], 'bid': 8.34}, {'imgObject': {}, 'id': 'burrito', 'src': '/static/foodstim60/burrito.jpg', 'key': 'i', 'origWidth': 410, 'origHeight': 410, 'width': 410, 'height': 410, 'widthPercent': 0.45, 'rescaleHeight': False, 'trialN': 58, 'loaded': True, 'loadedTime': 18657.899999976158, 'positionName': 'RIGHT', 'positionCoords': [665.6, 195], 'bid': 2.45}]",125084.89999997616,1669829598637,orange slices,burrito,8.34,2.45,-5.89,orange slices,698,706,706.2999999523163,True,u,126291.5,1206.6000000238419,1669829599843,1206,HRV,HRV_0070,2022-11-30 17:37:38
59,"[{'imgObject': {}, 'id': 'rigatoni', 'src': '/static/foodstim60/rigatoni.jpg', 'key': 'u', 'origWidth': 411, 'origHeight': 411, 'width': 411, 'height': 411, 'widthPercent': 0.45, 'rescaleHeight': False, 'trialN': 59, 'loaded': True, 'loadedTime': 18846, 'positionName': 'LEFT', 'positionCoords': [203.4, 194.5], 'bid': 8.120000000000001}, {'imgObject': {}, 'id': 'popsicles', 'src': '/static/foodstim60/popsicles.jpg', 'key': 'i', 'origWidth': 410, 'origHeight': 410, 'width': 410, 'height': 410, 'widthPercent': 0.45, 'rescaleHeight': False, 'trialN': 59, 'loaded': True, 'loadedTime': 18904, 'positionName': 'RIGHT', 'positionCoords': [665.6, 195], 'bid': 8.2}]",126291.59999990463,1669829599843,rigatoni,popsicles,8.120000000000001,8.2,0.0799999999999983,rigatoni,652.3000000715256,661,660.5,True,u,127452.5,1160.9000000953674,1669829601004,1161,HRV,HRV_0070,2022-11-30 17:37:38
60,"[{'imgObject': {}, 'id': 'chickenfingers', 'src': '/static/foodstim60/chickenfingers.jpg', 'key': 'u', 'origWidth': 410, 'origHeight': 410, 'width': 410, 'height': 410, 'widthPercent': 0.45, 'rescaleHeight': False, 'trialN': 60, 'loaded': True, 'loadedTime': 18805.799999952316, 'positionName': 'LEFT', 'positionCoords': [204.4, 195], 'bid': 6.04}, {'imgObject': {}, 'id': 'grilled chicken strips', 'src': '/static/foodstim60/grilled chicken strips.jpg', 'key': 'i', 'origWidth': 410, 'origHeight': 411, 'width': 410, 'height': 411, 'widthPercent': 0.45, 'rescaleHeight': False, 'trialN': 60, 'loaded': True, 'loadedTime': 18927.699999928474, 'positionName': 'RIGHT', 'positionCoords': [665.6, 194.5], 'bid': 8.950000000000001}]",127452.69999992847,1669829601005,chickenfingers,grilled chicken strips,6.04,8.950000000000001,2.910000000000001,chickenfingers,720.2000000476837,728,729.0,True,u,128682.09999990463,1229.3999999761581,1669829602234,1229,HRV,HRV_0070,2022-11-30 17:37:38
61,"[{'imgObject': {}, 'id': 'froot loops w milk', 'src': '/static/foodstim60/froot loops w milk.jpg', 'key': 'u', 'origWidth': 410, 'origHeight': 410, 'width': 410, 'height': 410, 'widthPercent': 0.45, 'rescaleHeight': False, 'trialN': 61, 'loaded': True, 'loadedTime': 18960.099999904633, 'positionName': 'LEFT', 'positionCoords': [204.4, 195], 'bid': 1.82}, {'imgObject': {}, 'id': 'hashbrowns', 'src': '/static/foodstim60/hashbrowns.jpg', 'key': 'i', 'origWidth': 411, 'origHeight': 410, 'width': 411, 'height': 410, 'widthPercent': 0.45, 'rescaleHeight': False, 'trialN': 61, 'loaded': True, 'loadedTime': 16882.599999904633, 'positionName': 'RIGHT', 'positionCoords': [665.6, 195], 'bid': 3.87}]",128682.39999997616,1669829602234,froot loops w milk,hashbrowns,1.82,3.87,2.05,froot loops w milk,983.3999999761581,991,991.1999999284744,True,u,130174.09999990463,1491.6999999284744,1669829603726,1492,HRV,HRV_0070,2022-11-30 17:37:38
62,"[{'imgObject': {}, 'id': 'Tribe humus pita', 'src': '/static/foodstim60/Tribe humus pita.jpg', 'key': 'u', 'origWidth': 411, 'origHeight': 411, 'width': 411, 'height': 411, 'widthPercent': 0.45, 'rescaleHeight': False, 'trialN': 62, 'loaded': True, 'loadedTime': 18775.899999976158, 'positionName': 'LEFT', 'positionCoords': [203.4, 194.5], 'bid': 6.6000000000000005}, {'imgObject': {}, 'id': 'burger', 'src': '/static/foodstim60/burger.jpg', 'key': 'i', 'origWidth': 409, 'origHeight': 409, 'width': 409, 'height': 409, 'widthPercent': 0.45, 'rescaleHeight': False, 'trialN': 62, 'loaded': True, 'loadedTime': 18894.599999904633, 'positionName': 'RIGHT', 'positionCoords': [665.6, 195.5], 'bid': 4.03}]",130174.29999995232,1669829603726,Tribe humus pita,burger,6.6000000000000005,4.03,-2.5700000000000003,Tribe humus pita,1184.5,1192,1192.0,True,u,131866.69999992847,1692.3999999761581,1669829605419,1693,HRV,HRV_0070,2022-11-30 17:37:38
63,"[{'imgObject': {}, 'id': 'avocado', 'src': '/static/foodstim60/avocado.jpg', 'key': 'u', 'origWidth': 409, 'origHeight': 409, 'width': 409, 'height': 409, 'widthPercent': 0.45, 'rescaleHeight': False, 'trialN': 63, 'loaded': True, 'loadedTime': 18958.099999904633, 'positionName': 'LEFT', 'positionCoords': [205.4, 195.5], 'bid': 2.32}, {'imgObject': {}, 'id': 'baked potato', 'src': '/static/foodstim60/baked potato.jpg', 'key': 'i', 'origWidth': 409, 'origHeight': 410, 'width': 409, 'height': 410, 'widthPercent': 0.45, 'rescaleHeight': False, 'trialN': 63, 'loaded': True, 'loadedTime': 17684, 'positionName': 'RIGHT', 'positionCoords': [665.6, 195], 'bid': 3.29}]",131866.89999997616,1669829605419,avocado,baked potato,2.32,3.29,0.9700000000000002,baked potato,1497.8999999761581,1526,1526.5,True,i,133894.29999995232,2027.3999999761581,1669829607446,2027,HRV,HRV_0070,2022-11-30 17:37:38
64,"[{'imgObject': {}, 'id': 'turkeysandwich', 'src': '/static/foodstim60/turkeysandwich.jpg', 'key': 'u', 'origWidth': 409, 'origHeight': 409, 'width': 409, 'height': 409, 'widthPercent': 0.45, 'rescaleHeight': False, 'trialN': 64, 'loaded': True, 'loadedTime': 18451.899999976158, 'positionName': 'LEFT', 'positionCoords': [205.4, 195.5], 'bid': 1.84}, {'imgObject': {}, 'id': 'froot loops w milk', 'src': '/static/foodstim60/froot loops w milk.jpg', 'key': 'i', 'origWidth': 410, 'origHeight': 410, 'width': 410, 'height': 410, 'widthPercent': 0.45, 'rescaleHeight': False, 'trialN': 64, 'loaded': True, 'loadedTime': 18960.399999976158, 'positionName': 'RIGHT', 'positionCoords': [665.6, 195], 'bid': 1.82}]",133894.59999990463,1669829607447,turkeysandwich,froot loops w milk,1.84,1.82,-0.020000000000000018,turkeysandwich,1375.3000000715256,1381,1381.5,True,u,135776.29999995232,1881.7000000476837,1669829609328,1881,HRV,HRV_0070,2022-11-30 17:37:38
65,"[{'imgObject': {}, 'id': 'froot loops w milk', 'src': '/static/foodstim60/froot loops w milk.jpg', 'key': 'u', 'origWidth': 410, 'origHeight': 410, 'width': 410, 'height': 410, 'widthPercent': 0.45, 'rescaleHeight': False, 'trialN': 65, 'loaded': True, 'loadedTime': 18958.299999952316, 'positionName': 'LEFT', 'positionCoords': [204.4, 195], 'bid': 1.82}, {'imgObject': {}, 'id': 'burrito', 'src': '/static/foodstim60/burrito.jpg', 'key': 'i', 'origWidth': 410, 'origHeight': 410, 'width': 410, 'height': 410, 'widthPercent': 0.45, 'rescaleHeight': False, 'trialN': 65, 'loaded': True, 'loadedTime': 18658, 'positionName': 'RIGHT', 'positionCoords': [665.6, 195], 'bid': 2.45}]",135776.5,1669829609328,froot loops w milk,burrito,1.82,2.45,0.6300000000000001,burrito,1152.1999999284744,1161,1160.0,True,i,137436.89999997616,1660.3999999761581,1669829610989,1661,HRV,HRV_0070,2022-11-30 17:37:38
66,"[{'imgObject': {}, 'id': 'burrito', 'src': '/static/foodstim60/burrito.jpg', 'key': 'u', 'origWidth': 410, 'origHeight': 410, 'width': 410, 'height': 410, 'widthPercent': 0.45, 'rescaleHeight': False, 'trialN': 66, 'loaded': True, 'loadedTime': 18656.099999904633, 'positionName': 'LEFT', 'positionCoords': [204.4, 195], 'bid': 2.45}, {'imgObject': {}, 'id': 'avocado', 'src': '/static/foodstim60/avocado.jpg', 'key': 'i', 'origWidth': 409, 'origHeight': 409, 'width': 409, 'height': 409, 'widthPercent': 0.45, 'rescaleHeight': False, 'trialN': 66, 'loaded': True, 'loadedTime': 18957.799999952316, 'positionName': 'RIGHT', 'positionCoords': [665.6, 195.5], 'bid': 2.32}]",137437.19999992847,1669829610989,burrito,avocado,2.45,2.32,-0.13000000000000034,burrito,997.3999999761581,1005,1004.6000000238419,True,u,138941.89999997616,1504.7000000476837,1669829612494,1505,HRV,HRV_0070,2022-11-30 17:37:38
67,"[{'imgObject': {}, 'id': 'cheerios', 'src': '/static/foodstim60/cheerios.jpg', 'key': 'u', 'origWidth': 409, 'origHeight': 410, 'width': 409, 'height': 410, 'widthPercent': 0.45, 'rescaleHeight': False, 'trialN': 67, 'loaded': True, 'loadedTime': 18772.299999952316, 'positionName': 'LEFT', 'positionCoords': [205.4, 195], 'bid': 7.82}, {'imgObject': {}, 'id': 'raspberries', 'src': '/static/foodstim60/raspberries.jpg', 'key': 'i', 'origWidth': 411, 'origHeight': 411, 'width': 411, 'height': 411, 'widthPercent': 0.45, 'rescaleHeight': False, 'trialN': 67, 'loaded': True, 'loadedTime': 18899.699999928474, 'positionName': 'RIGHT', 'positionCoords': [665.6, 194.5], 'bid': 9.01}]",138942.09999990463,1669829612494,cheerios,raspberries,7.82,9.01,1.1899999999999995,raspberries,828.6000000238419,836,836.2000000476837,True,i,140278.39999997616,1336.3000000715256,1669829613831,1337,HRV,HRV_0070,2022-11-30 17:37:38
68,"[{'imgObject': {}, 'id': 'seaweed', 'src': '/static/foodstim60/seaweed.jpg', 'key': 'u', 'origWidth': 410, 'origHeight': 410, 'width': 410, 'height': 410, 'widthPercent': 0.45, 'rescaleHeight': False, 'trialN': 68, 'loaded': True, 'loadedTime': 18209.899999976158, 'positionName': 'LEFT', 'positionCoords': [204.4, 195], 'bid': 0.12}, {'imgObject': {}, 'id': 'omelette', 'src': '/static/foodstim60/omelette.jpg', 'key': 'i', 'origWidth': 410, 'origHeight': 409, 'width': 410, 'height': 409, 'widthPercent': 0.45, 'rescaleHeight': False, 'trialN': 68, 'loaded': True, 'loadedTime': 18963.399999976158, 'positionName': 'RIGHT', 'positionCoords': [665.6, 195.5], 'bid': 5.3100000000000005}]",140278.59999990463,1669829613831,seaweed,omelette,0.12,5.3100000000000005,5.19,omelette,2172.100000023842,2179,2179.5,True,i,142958.69999992847,2680.100000023842,1669829616511,2680,HRV,HRV_0070,2022-11-30 17:37:38
69,"[{'imgObject': {}, 'id': 'grilled chicken strips', 'src': '/static/foodstim60/grilled chicken strips.jpg', 'key': 'u', 'origWidth': 410, 'origHeight': 411, 'width': 410, 'height': 411, 'widthPercent': 0.45, 'rescaleHeight': False, 'trialN': 69, 'loaded': True, 'loadedTime': 18927.699999928474, 'positionName': 'LEFT', 'positionCoords': [204.4, 194.5], 'bid': 8.950000000000001}, {'imgObject': {}, 'id': 'raspberries', 'src': '/static/foodstim60/raspberries.jpg', 'key': 'i', 'origWidth': 411, 'origHeight': 411, 'width': 411, 'height': 411, 'widthPercent': 0.45, 'rescaleHeight': False, 'trialN': 69, 'loaded': True, 'loadedTime': 18895.399999976158, 'positionName': 'RIGHT', 'positionCoords': [665.6, 194.5], 'bid': 9.01}]",142958.89999997616,1669829616511,grilled chicken strips,raspberries,8.950000000000001,9.01,0.05999999999999872,grilled chicken strips,699.7999999523163,708,707.5,True,u,144166.69999992847,1207.7999999523163,1669829617719,1208,HRV,HRV_0070,2022-11-30 17:37:38
70,"[{'imgObject': {}, 'id': 'seaweed', 'src': '/static/foodstim60/seaweed.jpg', 'key': 'u', 'origWidth': 410, 'origHeight': 410, 'width': 410, 'height': 410, 'widthPercent': 0.45, 'rescaleHeight': False, 'trialN': 70, 'loaded': True, 'loadedTime': 18313.5, 'positionName': 'LEFT', 'positionCoords': [204.4, 195], 'bid': 0.12}, {'imgObject': {}, 'id': 'eggsalad', 'src': '/static/foodstim60/eggsalad.jpg', 'key': 'i', 'origWidth': 410, 'origHeight': 409, 'width': 410, 'height': 409, 'widthPercent': 0.45, 'rescaleHeight': False, 'trialN': 70, 'loaded': True, 'loadedTime': 18966.699999928474, 'positionName': 'RIGHT', 'positionCoords': [665.6, 195.5], 'bid': 0.42}]",144166.89999997616,1669829617719,seaweed,eggsalad,0.12,0.42,0.3,eggsalad,841.6000000238419,850,849.6999999284744,True,i,145517.0,1350.1000000238419,1669829619069,1350,HRV,HRV_0070,2022-11-30 17:37:38
71,"[{'imgObject': {}, 'id': 'turkey sandwich', 'src': '/static/foodstim60/turkey sandwich.jpg', 'key': 'u', 'origWidth': 409, 'origHeight': 409, 'width': 409, 'height': 409, 'widthPercent': 0.45, 'rescaleHeight': False, 'trialN': 71, 'loaded': True, 'loadedTime': 18969.5, 'positionName': 'LEFT', 'positionCoords': [205.4, 195.5], 'bid': 1.67}, {'imgObject': {}, 'id': 'mac & cheese', 'src': '/static/foodstim60/mac & cheese.jpg', 'key': 'i', 'origWidth': 410, 'origHeight': 410, 'width': 410, 'height': 410, 'widthPercent': 0.45, 'rescaleHeight': False, 'trialN': 71, 'loaded': True, 'loadedTime': 18931, 'positionName': 'RIGHT', 'positionCoords': [665.6, 195], 'bid': 1.46}]",145517.19999992847,1669829619069,turkey sandwich,mac & cheese,1.67,1.46,-0.20999999999999996,mac & cheese,1029.1000000238419,1035,1034.5,True,i,147052.09999990463,1534.8999999761581,1669829620604,1535,HRV,HRV_0070,2022-11-30 17:37:38
72,"[{'imgObject': {}, 'id': 'cherries', 'src': '/static/foodstim60/cherries.jpg', 'key': 'u', 'origWidth': 410, 'origHeight': 411, 'width': 410, 'height': 411, 'widthPercent': 0.45, 'rescaleHeight': False, 'trialN': 72, 'loaded': True, 'loadedTime': 18971.5, 'positionName': 'LEFT', 'positionCoords': [204.4, 194.5], 'bid': 9.54}, {'imgObject': {}, 'id': 'blackbeanswithrice', 'src': '/static/foodstim60/blackbeanswithrice.jpg', 'key': 'i', 'origWidth': 410, 'origHeight': 410, 'width': 410, 'height': 410, 'widthPercent': 0.45, 'rescaleHeight': False, 'trialN': 72, 'loaded': True, 'loadedTime': 18975.099999904633, 'positionName': 'RIGHT', 'positionCoords': [665.6, 195], 'bid': 7.45}]",147052.19999992847,1669829620605,cherries,blackbeanswithrice,9.54,7.45,-2.089999999999999,cherries,974.2000000476837,981,981.2000000476837,True,u,148534.19999992847,1482.0,1669829622087,1482,HRV,HRV_0070,2022-11-30 17:37:38
73,"[{'imgObject': {}, 'id': 'granola w milk', 'src': '/static/foodstim60/granola w milk.jpg', 'key': 'u', 'origWidth': 410, 'origHeight': 410, 'width': 410, 'height': 410, 'widthPercent': 0.45, 'rescaleHeight': False, 'trialN': 73, 'loaded': True, 'loadedTime': 16542.899999976158, 'positionName': 'LEFT', 'positionCoords': [204.4, 195], 'bid': 5.51}, {'imgObject': {}, 'id': 'chickenfingers', 'src': '/static/foodstim60/chickenfingers.jpg', 'key': 'i', 'origWidth': 410, 'origHeight': 410, 'width': 410, 'height': 410, 'widthPercent': 0.45, 'rescaleHeight': False, 'trialN': 73, 'loaded': True, 'loadedTime': 18807.399999976158, 'positionName': 'RIGHT', 'positionCoords': [665.6, 195], 'bid': 6.04}]",148534.59999990463,1669829622087,granola w milk,chickenfingers,5.51,6.04,0.5300000000000002,chickenfingers,1131.1000000238419,1139,1139.3000000715256,True,i,150174.5,1639.9000000953674,1669829623727,1640,HRV,HRV_0070,2022-11-30 17:37:38
74,"[{'imgObject': {}, 'id': 'avocado', 'src': '/static/foodstim60/avocado.jpg', 'key': 'u', 'origWidth': 409, 'origHeight': 409, 'width': 409, 'height': 409, 'widthPercent': 0.45, 'rescaleHeight': False, 'trialN': 74, 'loaded': True, 'loadedTime': 18957.5, 'positionName': 'LEFT', 'positionCoords': [205.4, 195.5], 'bid': 2.32}, {'imgObject': {}, 'id': 'eggsalad', 'src': '/static/foodstim60/eggsalad.jpg', 'key': 'i', 'origWidth': 410, 'origHeight': 409, 'width': 410, 'height': 409, 'widthPercent': 0.45, 'rescaleHeight': False, 'trialN': 74, 'loaded': True, 'loadedTime': 18965.899999976158, 'positionName': 'RIGHT', 'positionCoords': [665.6, 195.5], 'bid': 0.42}]",150174.69999992847,1669829623727,avocado,eggsalad,2.32,0.42,-1.9,avocado,1158.7000000476837,1166,1166.2000000476837,True,u,151841.39999997616,1666.7000000476837,1669829625394,1667,HRV,HRV_0070,2022-11-30 17:37:38
75,"[{'imgObject': {}, 'id': 'blueberries', 'src': '/static/foodstim60/blueberries.jpg', 'key': 'u', 'origWidth': 411, 'origHeight': 411, 'width': 411, 'height': 411, 'widthPercent': 0.45, 'rescaleHeight': False, 'trialN': 75, 'loaded': True, 'loadedTime': 16878.299999952316, 'positionName': 'LEFT', 'positionCoords': [203.4, 194.5], 'bid': 9.98}, {'imgObject': {}, 'id': 'strawberries', 'src': '/static/foodstim60/strawberries.jpg', 'key': 'i', 'origWidth': 410, 'origHeight': 410, 'width': 410, 'height': 410, 'widthPercent': 0.45, 'rescaleHeight': False, 'trialN': 75, 'loaded': True, 'loadedTime': 18875.599999904633, 'positionName': 'RIGHT', 'positionCoords': [665.6, 195], 'bid': 9.82}]",151841.59999990463,1669829625394,blueberries,strawberries,9.98,9.82,-0.16000000000000014,strawberries,747,755,754.5,True,i,153097.09999990463,1255.5,1669829626650,1256,HRV,HRV_0070,2022-11-30 17:37:38
76,"[{'imgObject': {}, 'id': 'banana', 'src': '/static/foodstim60/banana.jpg', 'key': 'u', 'origWidth': 410, 'origHeight': 410, 'width': 410, 'height': 410, 'widthPercent': 0.45, 'rescaleHeight': False, 'trialN': 76, 'loaded': True, 'loadedTime': 18201.599999904633, 'positionName': 'LEFT', 'positionCoords': [204.4, 195], 'bid': 2.71}, {'imgObject': {}, 'id': 'baked potato', 'src': '/static/foodstim60/baked potato.jpg', 'key': 'i', 'origWidth': 409, 'origHeight': 410, 'width': 409, 'height': 410, 'widthPercent': 0.45, 'rescaleHeight': False, 'trialN': 76, 'loaded': True, 'loadedTime': 17682.099999904633, 'positionName': 'RIGHT', 'positionCoords': [665.6, 195], 'bid': 3.29}]",153097.29999995232,1669829626650,banana,baked potato,2.71,3.29,0.5800000000000001,banana,1075.1000000238419,1082,1082.5,True,u,154680.39999997616,1583.1000000238419,1669829628233,1583,HRV,HRV_0070,2022-11-30 17:37:38
77,"[{'imgObject': {}, 'id': 'luckycharms', 'src': '/static/foodstim60/luckycharms.jpg', 'key': 'u', 'origWidth': 410, 'origHeight': 409, 'width': 410, 'height': 409, 'widthPercent': 0.45, 'rescaleHeight': False, 'trialN': 77, 'loaded': True, 'loadedTime': 16986.199999928474, 'positionName': 'LEFT', 'positionCoords': [204.4, 195.5], 'bid': 9.64}, {'imgObject': {}, 'id': 'popsicles', 'src': '/static/foodstim60/popsicles.jpg', 'key': 'i', 'origWidth': 410, 'origHeight': 410, 'width': 410, 'height': 410, 'widthPercent': 0.45, 'rescaleHeight': False, 'trialN': 77, 'loaded': True, 'loadedTime': 18904.099999904633, 'positionName': 'RIGHT', 'positionCoords': [665.6, 195], 'bid': 8.2}]",154680.5,1669829628233,luckycharms,popsicles,9.64,8.2,-1.4400000000000013,luckycharms,1127.7999999523163,1135,1135.1999999284744,True,u,156316.0,1635.5,1669829629869,1636,HRV,HRV_0070,2022-11-30 17:37:38
78,"[{'imgObject': {}, 'id': 'pear', 'src': '/static/foodstim60/pear.jpg', 'key': 'u', 'origWidth': 411, 'origHeight': 410, 'width': 411, 'height': 410, 'widthPercent': 0.45, 'rescaleHeight': False, 'trialN': 78, 'loaded': True, 'loadedTime': 18888.399999976158, 'positionName': 'LEFT', 'positionCoords': [203.4, 195], 'bid': 3.7}, {'imgObject': {}, 'id': 'cherries', 'src': '/static/foodstim60/cherries.jpg', 'key': 'i', 'origWidth': 410, 'origHeight': 411, 'width': 410, 'height': 411, 'widthPercent': 0.45, 'rescaleHeight': False, 'trialN': 78, 'loaded': True, 'loadedTime': 18969.599999904633, 'positionName': 'RIGHT', 'positionCoords': [665.6, 194.5], 'bid': 9.54}]",156316.09999990463,1669829629869,pear,cherries,3.7,9.54,5.839999999999999,cherries,800.1000000238419,807,806.8000000715256,True,i,157623.5,1307.4000000953674,1669829631176,1307,HRV,HRV_0070,2022-11-30 17:37:38
79,"[{'imgObject': {}, 'id': 'mashed potato', 'src': '/static/foodstim60/mashed potato.jpg', 'key': 'u', 'origWidth': 409, 'origHeight': 409, 'width': 409, 'height': 409, 'widthPercent': 0.45, 'rescaleHeight': False, 'trialN': 79, 'loaded': True, 'loadedTime': 16770.799999952316, 'positionName': 'LEFT', 'positionCoords': [205.4, 195.5], 'bid': 4.12}, {'imgObject': {}, 'id': 'yogurt no spoon', 'src': '/static/foodstim60/yogurt no spoon.jpg', 'key': 'i', 'origWidth': 411, 'origHeight': 410, 'width': 411, 'height': 410, 'widthPercent': 0.45, 'rescaleHeight': False, 'trialN': 79, 'loaded': True, 'loadedTime': 17681.799999952316, 'positionName': 'RIGHT', 'positionCoords': [665.6, 195], 'bid': 6.75}]",157623.69999992847,1669829631176,mashed potato,yogurt no spoon,4.12,6.75,2.63,yogurt no spoon,1953.8000000715256,1962,1961.8000000715256,True,i,160086.19999992847,2462.5,1669829633639,2463,HRV,HRV_0070,2022-11-30 17:37:38
80,"[{'imgObject': {}, 'id': 'corn cob', 'src': '/static/foodstim60/corn cob.jpg', 'key': 'u', 'origWidth': 411, 'origHeight': 411, 'width': 411, 'height': 411, 'widthPercent': 0.45, 'rescaleHeight': False, 'trialN': 80, 'loaded': True, 'loadedTime': 18975.699999928474, 'positionName': 'LEFT', 'positionCoords': [203.4, 194.5], 'bid': 7.17}, {'imgObject': {}, 'id': 'cherry tomato', 'src': '/static/foodstim60/cherry tomato.jpg', 'key': 'i', 'origWidth': 410, 'origHeight': 410, 'width': 410, 'height': 410, 'widthPercent': 0.45, 'rescaleHeight': False, 'trialN': 80, 'loaded': True, 'loadedTime': 19068.5, 'positionName': 'RIGHT', 'positionCoords': [665.6, 195], 'bid': 9.2}]",160086.39999997616,1669829633639,corn cob,cherry tomato,7.17,9.2,2.0299999999999994,cherry tomato,1180.1000000238419,1186,1185.3999999761581,True,i,161772.29999995232,1685.8999999761581,1669829635325,1686,HRV,HRV_0070,2022-11-30 17:37:38
81,"[{'imgObject': {}, 'id': 'fried eggs', 'src': '/static/foodstim60/fried eggs.jpg', 'key': 'u', 'origWidth': 410, 'origHeight': 410, 'width': 410, 'height': 410, 'widthPercent': 0.45, 'rescaleHeight': False, 'trialN': 81, 'loaded': True, 'loadedTime': 18783.099999904633, 'positionName': 'LEFT', 'positionCoords': [204.4, 195], 'bid': 5.39}, {'imgObject': {}, 'id': 'raisin bran w milk', 'src': '/static/foodstim60/raisin bran w milk.jpg', 'key': 'i', 'origWidth': 411, 'origHeight': 411, 'width': 411, 'height': 411, 'widthPercent': 0.45, 'rescaleHeight': False, 'trialN': 81, 'loaded': True, 'loadedTime': 16128.899999976158, 'positionName': 'RIGHT', 'positionCoords': [665.6, 194.5], 'bid': 3.67}]",161772.5,1669829635325,fried eggs,raisin bran w milk,5.39,3.67,-1.7199999999999998,fried eggs,1275.6999999284744,1284,1283.5999999046326,True,u,163556.29999995232,1783.7999999523163,1669829637109,1784,HRV,HRV_0070,2022-11-30 17:37:38
82,"[{'imgObject': {}, 'id': 'blueberries', 'src': '/static/foodstim60/blueberries.jpg', 'key': 'u', 'origWidth': 411, 'origHeight': 411, 'width': 411, 'height': 411, 'widthPercent': 0.45, 'rescaleHeight': False, 'trialN': 82, 'loaded': True, 'loadedTime': 16878, 'positionName': 'LEFT', 'positionCoords': [203.4, 194.5], 'bid': 9.98}, {'imgObject': {}, 'id': 'salmon', 'src': '/static/foodstim60/salmon.jpg', 'key': 'i', 'origWidth': 410, 'origHeight': 409, 'width': 410, 'height': 409, 'widthPercent': 0.45, 'rescaleHeight': False, 'trialN': 82, 'loaded': True, 'loadedTime': 18842.299999952316, 'positionName': 'RIGHT', 'positionCoords': [665.6, 195.5], 'bid': 7.84}]",163556.5,1669829637109,blueberries,salmon,9.98,7.84,-2.1400000000000006,blueberries,1052.7999999523163,1061,1060.1999999284744,True,u,165117.09999990463,1560.5999999046326,1669829638670,1561,HRV,HRV_0070,2022-11-30 17:37:38
83,"[{'imgObject': {}, 'id': 'orange slices', 'src': '/static/foodstim60/orange slices.jpg', 'key': 'u', 'origWidth': 409, 'origHeight': 410, 'width': 409, 'height': 410, 'widthPercent': 0.45, 'rescaleHeight': False, 'trialN': 83, 'loaded': True, 'loadedTime': 18835.599999904633, 'positionName': 'LEFT', 'positionCoords': [205.4, 195], 'bid': 8.34}, {'imgObject': {}, 'id': 'cantaloupe', 'src': '/static/foodstim60/cantaloupe.jpg', 'key': 'i', 'origWidth': 409, 'origHeight': 409, 'width': 409, 'height': 409, 'widthPercent': 0.45, 'rescaleHeight': False, 'trialN': 83, 'loaded': True, 'loadedTime': 18760.899999976158, 'positionName': 'RIGHT', 'positionCoords': [665.6, 195.5], 'bid': 9.1}]",165117.29999995232,1669829638670,orange slices,cantaloupe,8.34,9.1,0.7599999999999998,orange slices,556,564,563.5,True,u,166181.5,1064.2000000476837,1669829639734,1064,HRV,HRV_0070,2022-11-30 17:37:38
84,"[{'imgObject': {}, 'id': 'ice cream sundae 002', 'src': '/static/foodstim60/ice cream sundae 002.jpg', 'key': 'u', 'origWidth': 409, 'origHeight': 409, 'width': 409, 'height': 409, 'widthPercent': 0.45, 'rescaleHeight': False, 'trialN': 84, 'loaded': True, 'loadedTime': 17993.5, 'positionName': 'LEFT', 'positionCoords': [205.4, 195.5], 'bid': 4.92}, {'imgObject': {}, 'id': 'mashed potato', 'src': '/static/foodstim60/mashed potato.jpg', 'key': 'i', 'origWidth': 409, 'origHeight': 409, 'width': 409, 'height': 409, 'widthPercent': 0.45, 'rescaleHeight': False, 'trialN': 84, 'loaded': True, 'loadedTime': 16770.599999904633, 'positionName': 'RIGHT', 'positionCoords': [665.6, 195.5], 'bid': 4.12}]",166181.69999992847,1669829639735,ice cream sundae 002,mashed potato,4.92,4.12,-0.7999999999999998,ice cream sundae 002,965.6000000238419,973,973.5,True,u,167655.79999995232,1474.1000000238419,1669829641209,1474,HRV,HRV_0070,2022-11-30 17:37:38
85,"[{'imgObject': {}, 'id': 'hotdog w must', 'src': '/static/foodstim60/hotdog w must.jpg', 'key': 'u', 'origWidth': 409, 'origHeight': 409, 'width': 409, 'height': 409, 'widthPercent': 0.45, 'rescaleHeight': False, 'trialN': 85, 'loaded': True, 'loadedTime': 17882.199999928474, 'positionName': 'LEFT', 'positionCoords': [205.4, 195.5], 'bid': 0}, {'imgObject': {}, 'id': 'eggs', 'src': '/static/foodstim60/eggs.jpg', 'key': 'i', 'origWidth': 409, 'origHeight': 409, 'width': 409, 'height': 409, 'widthPercent': 0.45, 'rescaleHeight': False, 'trialN': 85, 'loaded': True, 'loadedTime': 17194.399999976158, 'positionName': 'RIGHT', 'positionCoords': [665.6, 195.5], 'bid': 0.03}]",167656.0,1669829641209,hotdog w must,eggs,0.0,0.03,0.03,eggs,1403.1999999284744,1411,1410.7999999523163,True,i,169567.0,1911.0,1669829643120,1911,HRV,HRV_0070,2022-11-30 17:37:38
86,"[{'imgObject': {}, 'id': 'orange slices', 'src': '/static/foodstim60/orange slices.jpg', 'key': 'u', 'origWidth': 409, 'origHeight': 410, 'width': 409, 'height': 410, 'widthPercent': 0.45, 'rescaleHeight': False, 'trialN': 86, 'loaded': True, 'loadedTime': 18815.799999952316, 'positionName': 'LEFT', 'positionCoords': [205.4, 195], 'bid': 8.34}, {'imgObject': {}, 'id': 'strawberries', 'src': '/static/foodstim60/strawberries.jpg', 'key': 'i', 'origWidth': 410, 'origHeight': 410, 'width': 410, 'height': 410, 'widthPercent': 0.45, 'rescaleHeight': False, 'trialN': 86, 'loaded': True, 'loadedTime': 18880.699999928474, 'positionName': 'RIGHT', 'positionCoords': [665.6, 195], 'bid': 9.82}]",169567.19999992847,1669829643120,orange slices,strawberries,8.34,9.82,1.4800000000000004,orange slices,536,545,544.5,True,u,170612.19999992847,1045.0,1669829644165,1045,HRV,HRV_0070,2022-11-30 17:37:38
87,"[{'imgObject': {}, 'id': 'burrito', 'src': '/static/foodstim60/burrito.jpg', 'key': 'u', 'origWidth': 410, 'origHeight': 410, 'width': 410, 'height': 410, 'widthPercent': 0.45, 'rescaleHeight': False, 'trialN': 87, 'loaded': True, 'loadedTime': 18657.699999928474, 'positionName': 'LEFT', 'positionCoords': [204.4, 195], 'bid': 2.45}, {'imgObject': {}, 'id': 'lox', 'src': '/static/foodstim60/lox.jpg', 'key': 'i', 'origWidth': 410, 'origHeight': 411, 'width': 410, 'height': 411, 'widthPercent': 0.45, 'rescaleHeight': False, 'trialN': 87, 'loaded': True, 'loadedTime': 18561.099999904633, 'positionName': 'RIGHT', 'positionCoords': [665.6, 194.5], 'bid': 0.12}]",170612.39999997616,1669829644165,burrito,lox,2.45,0.12,-2.33,burrito,1063.6000000238419,1072,1071.1000000238419,True,u,172184.09999990463,1571.6999999284744,1669829645737,1572,HRV,HRV_0070,2022-11-30 17:37:38
88,"[{'imgObject': {}, 'id': 'pear', 'src': '/static/foodstim60/pear.jpg', 'key': 'u', 'origWidth': 411, 'origHeight': 410, 'width': 411, 'height': 410, 'widthPercent': 0.45, 'rescaleHeight': False, 'trialN': 88, 'loaded': True, 'loadedTime': 18887.699999928474, 'positionName': 'LEFT', 'positionCoords': [203.4, 195], 'bid': 3.7}, {'imgObject': {}, 'id': 'hashbrowns', 'src': '/static/foodstim60/hashbrowns.jpg', 'key': 'i', 'origWidth': 411, 'origHeight': 410, 'width': 411, 'height': 410, 'widthPercent': 0.45, 'rescaleHeight': False, 'trialN': 88, 'loaded': True, 'loadedTime': 16979.099999904633, 'positionName': 'RIGHT', 'positionCoords': [665.6, 195], 'bid': 3.87}]",172184.39999997616,1669829645737,pear,hashbrowns,3.7,3.87,0.16999999999999993,pear,790.6999999284744,799,798.6999999284744,True,u,173484.19999992847,1299.7999999523163,1669829647037,1300,HRV,HRV_0070,2022-11-30 17:37:38
89,"[{'imgObject': {}, 'id': 'blackbeanswithrice', 'src': '/static/foodstim60/blackbeanswithrice.jpg', 'key': 'u', 'origWidth': 410, 'origHeight': 410, 'width': 410, 'height': 410, 'widthPercent': 0.45, 'rescaleHeight': False, 'trialN': 89, 'loaded': True, 'loadedTime': 18974.599999904633, 'positionName': 'LEFT', 'positionCoords': [204.4, 195], 'bid': 7.45}, {'imgObject': {}, 'id': 'cheerios', 'src': '/static/foodstim60/cheerios.jpg', 'key': 'i', 'origWidth': 409, 'origHeight': 410, 'width': 409, 'height': 410, 'widthPercent': 0.45, 'rescaleHeight': False, 'trialN': 89, 'loaded': True, 'loadedTime': 18771.699999928474, 'positionName': 'RIGHT', 'positionCoords': [665.6, 195], 'bid': 7.82}]",173484.39999997616,1669829647038,blackbeanswithrice,cheerios,7.45,7.82,0.3700000000000001,blackbeanswithrice,1004.6000000238419,1012,1012.0,True,u,174996.69999992847,1512.2999999523163,1669829648550,1512,HRV,HRV_0070,2022-11-30 17:37:38
90,"[{'imgObject': {}, 'id': 'mango', 'src': '/static/foodstim60/mango.jpg', 'key': 'u', 'origWidth': 411, 'origHeight': 411, 'width': 411, 'height': 411, 'widthPercent': 0.45, 'rescaleHeight': False, 'trialN': 90, 'loaded': True, 'loadedTime': 16222.199999928474, 'positionName': 'LEFT', 'positionCoords': [203.4, 194.5], 'bid': 3.4}, {'imgObject': {}, 'id': 'steak', 'src': '/static/foodstim60/steak.jpg', 'key': 'i', 'origWidth': 410, 'origHeight': 410, 'width': 410, 'height': 410, 'widthPercent': 0.45, 'rescaleHeight': False, 'trialN': 90, 'loaded': True, 'loadedTime': 18317.399999976158, 'positionName': 'RIGHT', 'positionCoords': [665.6, 195], 'bid': 1.25}]",245014.79999995232,1669829718570,mango,steak,3.4,1.25,-2.15,steak,2079.2999999523163,2087,2086.600000023842,True,i,247601.89999997616,2587.100000023842,1669829721157,2587,HRV,HRV_0070,2022-11-30 17:37:38
91,"[{'imgObject': {}, 'id': 'burger', 'src': '/static/foodstim60/burger.jpg', 'key': 'u', 'origWidth': 409, 'origHeight': 409, 'width': 409, 'height': 409, 'widthPercent': 0.45, 'rescaleHeight': False, 'trialN': 91, 'loaded': True, 'loadedTime': 18895.099999904633, 'positionName': 'LEFT', 'positionCoords': [205.4, 195.5], 'bid': 4.03}, {'imgObject': {}, 'id': 'salad w chicken', 'src': '/static/foodstim60/salad w chicken.jpg', 'key': 'i', 'origWidth': 411, 'origHeight': 411, 'width': 411, 'height': 411, 'widthPercent': 0.45, 'rescaleHeight': False, 'trialN': 91, 'loaded': True, 'loadedTime': 18102.099999904633, 'positionName': 'RIGHT', 'positionCoords': [665.6, 194.5], 'bid': 4.17}]",247602.19999992847,1669829721158,burger,salad w chicken,4.03,4.17,0.13999999999999968,salad w chicken,14.899999976158142,23,23.5,True,i,248126.89999997616,524.7000000476837,1669829721682,524,HRV,HRV_0070,2022-11-30 17:37:38
92,"[{'imgObject': {}, 'id': 'turkeysandwich', 'src': '/static/foodstim60/turkeysandwich.jpg', 'key': 'u', 'origWidth': 409, 'origHeight': 409, 'width': 409, 'height': 409, 'widthPercent': 0.45, 'rescaleHeight': False, 'trialN': 92, 'loaded': True, 'loadedTime': 18446.5, 'positionName': 'LEFT', 'positionCoords': [205.4, 195.5], 'bid': 1.84}, {'imgObject': {}, 'id': 'mashed potato', 'src': '/static/foodstim60/mashed potato.jpg', 'key': 'i', 'origWidth': 409, 'origHeight': 409, 'width': 409, 'height': 409, 'widthPercent': 0.45, 'rescaleHeight': False, 'trialN': 92, 'loaded': True, 'loadedTime': 16654.699999928474, 'positionName': 'RIGHT', 'positionCoords': [665.6, 195.5], 'bid': 4.12}]",248127.09999990463,1669829721683,turkeysandwich,mashed potato,1.84,4.12,2.2800000000000002,mashed potato,1308,1313,1313.6000000238419,True,i,249941.39999997616,1814.3000000715256,1669829723497,1814,HRV,HRV_0070,2022-11-30 17:37:38
93,"[{'imgObject': {}, 'id': 'Tribe humus pita', 'src': '/static/foodstim60/Tribe humus pita.jpg', 'key': 'u', 'origWidth': 411, 'origHeight': 411, 'width': 411, 'height': 411, 'widthPercent': 0.45, 'rescaleHeight': False, 'trialN': 93, 'loaded': True, 'loadedTime': 18780.299999952316, 'positionName': 'LEFT', 'positionCoords': [203.4, 194.5], 'bid': 6.6000000000000005}, {'imgObject': {}, 'id': 'yogurt no spoon', 'src': '/static/foodstim60/yogurt no spoon.jpg', 'key': 'i', 'origWidth': 411, 'origHeight': 410, 'width': 411, 'height': 410, 'widthPercent': 0.45, 'rescaleHeight': False, 'trialN': 93, 'loaded': True, 'loadedTime': 17681.899999976158, 'positionName': 'RIGHT', 'positionCoords': [665.6, 195], 'bid': 6.75}]",249941.69999992847,1669829723497,Tribe humus pita,yogurt no spoon,6.6000000000000005,6.75,0.14999999999999947,Tribe humus pita,897.3999999761581,905,905.2000000476837,True,u,251347.5,1405.8000000715256,1669829724903,1406,HRV,HRV_0070,2022-11-30 17:37:38
94,"[{'imgObject': {}, 'id': 'luckycharms', 'src': '/static/foodstim60/luckycharms.jpg', 'key': 'u', 'origWidth': 410, 'origHeight': 409, 'width': 410, 'height': 409, 'widthPercent': 0.45, 'rescaleHeight': False, 'trialN': 94, 'loaded': True, 'loadedTime': 16987.799999952316, 'positionName': 'LEFT', 'positionCoords': [204.4, 195.5], 'bid': 9.64}, {'imgObject': {}, 'id': 'cherries', 'src': '/static/foodstim60/cherries.jpg', 'key': 'i', 'origWidth': 410, 'origHeight': 411, 'width': 410, 'height': 411, 'widthPercent': 0.45, 'rescaleHeight': False, 'trialN': 94, 'loaded': True, 'loadedTime': 18971.099999904633, 'positionName': 'RIGHT', 'positionCoords': [665.6, 194.5], 'bid': 9.54}]",251347.69999992847,1669829724903,luckycharms,cherries,9.64,9.54,-0.10000000000000142,cherries,1222.3000000715256,1230,1230.2000000476837,True,i,253078.19999992847,1730.5,1669829726634,1731,HRV,HRV_0070,2022-11-30 17:37:38
95,"[{'imgObject': {}, 'id': 'salad w chicken', 'src': '/static/foodstim60/salad w chicken.jpg', 'key': 'u', 'origWidth': 411, 'origHeight': 411, 'width': 411, 'height': 411, 'widthPercent': 0.45, 'rescaleHeight': False, 'trialN': 95, 'loaded': True, 'loadedTime': 18101.799999952316, 'positionName': 'LEFT', 'positionCoords': [203.4, 194.5], 'bid': 4.17}, {'imgObject': {}, 'id': 'hotdog w must', 'src': '/static/foodstim60/hotdog w must.jpg', 'key': 'i', 'origWidth': 409, 'origHeight': 409, 'width': 409, 'height': 409, 'widthPercent': 0.45, 'rescaleHeight': False, 'trialN': 95, 'loaded': True, 'loadedTime': 17786.299999952316, 'positionName': 'RIGHT', 'positionCoords': [665.6, 195.5], 'bid': 0}]",253078.39999997616,1669829726634,salad w chicken,hotdog w must,4.17,0.0,-4.17,salad w chicken,909.5,917,916.8999999761581,True,u,254496.89999997616,1418.5,1669829728053,1419,HRV,HRV_0070,2022-11-30 17:37:38
96,"[{'imgObject': {}, 'id': 'cherries', 'src': '/static/foodstim60/cherries.jpg', 'key': 'u', 'origWidth': 410, 'origHeight': 411, 'width': 410, 'height': 411, 'widthPercent': 0.45, 'rescaleHeight': False, 'trialN': 96, 'loaded': True, 'loadedTime': 18972, 'positionName': 'LEFT', 'positionCoords': [204.4, 194.5], 'bid': 9.54}, {'imgObject': {}, 'id': 'strawberries', 'src': '/static/foodstim60/strawberries.jpg', 'key': 'i', 'origWidth': 410, 'origHeight': 410, 'width': 410, 'height': 410, 'widthPercent': 0.45, 'rescaleHeight': False, 'trialN': 96, 'loaded': True, 'loadedTime': 18878.199999928474, 'positionName': 'RIGHT', 'positionCoords': [665.6, 195], 'bid': 9.82}]",254497.19999992847,1669829728053,cherries,strawberries,9.54,9.82,0.28000000000000114,cherries,1079.6000000238419,1087,1087.2000000476837,True,u,256084.69999992847,1587.5,1669829729640,1587,HRV,HRV_0070,2022-11-30 17:37:38
97,"[{'imgObject': {}, 'id': 'turkeysandwich', 'src': '/static/foodstim60/turkeysandwich.jpg', 'key': 'u', 'origWidth': 409, 'origHeight': 409, 'width': 409, 'height': 409, 'widthPercent': 0.45, 'rescaleHeight': False, 'trialN': 97, 'loaded': True, 'loadedTime': 18451.699999928474, 'positionName': 'LEFT', 'positionCoords': [205.4, 195.5], 'bid': 1.84}, {'imgObject': {}, 'id': 'roastedpotatoes', 'src': '/static/foodstim60/roastedpotatoes.jpg', 'key': 'i', 'origWidth': 409, 'origHeight': 410, 'width': 409, 'height': 410, 'widthPercent': 0.45, 'rescaleHeight': False, 'trialN': 97, 'loaded': True, 'loadedTime': 17408.599999904633, 'positionName': 'RIGHT', 'positionCoords': [665.6, 195], 'bid': 2.03}]",256084.89999997616,1669829729641,turkeysandwich,roastedpotatoes,1.84,2.03,0.18999999999999972,roastedpotatoes,966,973,973.7999999523163,True,i,257559.29999995232,1474.3999999761581,1669829731115,1474,HRV,HRV_0070,2022-11-30 17:37:38
98,"[{'imgObject': {}, 'id': 'ice cream sundae 002', 'src': '/static/foodstim60/ice cream sundae 002.jpg', 'key': 'u', 'origWidth': 409, 'origHeight': 409, 'width': 409, 'height': 409, 'widthPercent': 0.45, 'rescaleHeight': False, 'trialN': 98, 'loaded': True, 'loadedTime': 17995.899999976158, 'positionName': 'LEFT', 'positionCoords': [205.4, 195.5], 'bid': 4.92}, {'imgObject': {}, 'id': 'raisin bran w milk', 'src': '/static/foodstim60/raisin bran w milk.jpg', 'key': 'i', 'origWidth': 411, 'origHeight': 411, 'width': 411, 'height': 411, 'widthPercent': 0.45, 'rescaleHeight': False, 'trialN': 98, 'loaded': True, 'loadedTime': 16131.5, 'positionName': 'RIGHT', 'positionCoords': [665.6, 194.5], 'bid': 3.67}]",257559.5,1669829731115,ice cream sundae 002,raisin bran w milk,4.92,3.67,-1.25,raisin bran w milk,1308.5,1317,1316.8999999761581,True,i,259376.5,1817.0,1669829732932,1817,HRV,HRV_0070,2022-11-30 17:37:38
99,"[{'imgObject': {}, 'id': 'mashed potato', 'src': '/static/foodstim60/mashed potato.jpg', 'key': 'u', 'origWidth': 409, 'origHeight': 409, 'width': 409, 'height': 409, 'widthPercent': 0.45, 'rescaleHeight': False, 'trialN': 99, 'loaded': True, 'loadedTime': 16770.199999928474, 'positionName': 'LEFT', 'positionCoords': [205.4, 195.5], 'bid': 4.12}, {'imgObject': {}, 'id': 'fried eggs', 'src': '/static/foodstim60/fried eggs.jpg', 'key': 'i', 'origWidth': 410, 'origHeight': 410, 'width': 410, 'height': 410, 'widthPercent': 0.45, 'rescaleHeight': False, 'trialN': 99, 'loaded': True, 'loadedTime': 18781.399999976158, 'positionName': 'RIGHT', 'positionCoords': [665.6, 195], 'bid': 5.39}]",259376.69999992847,1669829732932,mashed potato,fried eggs,4.12,5.39,1.2699999999999996,fried eggs,1303.3000000715256,1311,1310.6000000238419,True,i,261187.89999997616,1811.2000000476837,1669829734744,1812,HRV,HRV_0070,2022-11-30 17:37:38
100,"[{'imgObject': {}, 'id': 'lox', 'src': '/static/foodstim60/lox.jpg', 'key': 'u', 'origWidth': 410, 'origHeight': 411, 'width': 410, 'height': 411, 'widthPercent': 0.45, 'rescaleHeight': False, 'trialN': 100, 'loaded': True, 'loadedTime': 18558.099999904633, 'positionName': 'LEFT', 'positionCoords': [204.4, 194.5], 'bid': 0.12}, {'imgObject': {}, 'id': 'olives', 'src': '/static/foodstim60/olives.jpg', 'key': 'i', 'origWidth': 410, 'origHeight': 410, 'width': 410, 'height': 410, 'widthPercent': 0.45, 'rescaleHeight': False, 'trialN': 100, 'loaded': True, 'loadedTime': 18446.099999904633, 'positionName': 'RIGHT', 'positionCoords': [665.6, 195], 'bid': 0.09}]",261187.89999997616,1669829734744,lox,olives,0.12,0.09,-0.03,lox,935.7999999523163,944,943.7999999523163,True,u,262632.5,1444.6000000238419,1669829736188,1444,HRV,HRV_0070,2022-11-30 17:37:38
101,"[{'imgObject': {}, 'id': 'hotdog w must', 'src': '/static/foodstim60/hotdog w must.jpg', 'key': 'u', 'origWidth': 409, 'origHeight': 409, 'width': 409, 'height': 409, 'widthPercent': 0.45, 'rescaleHeight': False, 'trialN': 101, 'loaded': True, 'loadedTime': 17788.5, 'positionName': 'LEFT', 'positionCoords': [205.4, 195.5], 'bid': 0}, {'imgObject': {}, 'id': 'mac & cheese', 'src': '/static/foodstim60/mac & cheese.jpg', 'key': 'i', 'origWidth': 410, 'origHeight': 410, 'width': 410, 'height': 410, 'widthPercent': 0.45, 'rescaleHeight': False, 'trialN': 101, 'loaded': True, 'loadedTime': 18927.899999976158, 'positionName': 'RIGHT', 'positionCoords': [665.6, 195], 'bid': 1.46}]",262632.6999999285,1669829736189,hotdog w must,mac & cheese,0.0,1.46,1.46,mac & cheese,833,840,840.7000000476837,True,i,263974.39999997616,1341.7000000476837,1669829737530,1341,HRV,HRV_0070,2022-11-30 17:37:38
102,"[{'imgObject': {}, 'id': 'fried eggs', 'src': '/static/foodstim60/fried eggs.jpg', 'key': 'u', 'origWidth': 410, 'origHeight': 410, 'width': 410, 'height': 410, 'widthPercent': 0.45, 'rescaleHeight': False, 'trialN': 102, 'loaded': True, 'loadedTime': 18785.599999904633, 'positionName': 'LEFT', 'positionCoords': [204.4, 195], 'bid': 5.39}, {'imgObject': {}, 'id': 'sushi w_condiments', 'src': '/static/foodstim60/sushi w_condiments.jpg', 'key': 'i', 'origWidth': 410, 'origHeight': 410, 'width': 410, 'height': 410, 'widthPercent': 0.45, 'rescaleHeight': False, 'trialN': 102, 'loaded': True, 'loadedTime': 18317.099999904633, 'positionName': 'RIGHT', 'positionCoords': [665.6, 195], 'bid': 0.14}]",263974.59999990463,1669829737530,fried eggs,sushi w_condiments,5.39,0.14,-5.25,fried eggs,949.4000000953674,957,956.5,True,u,265431.2999999523,1456.7000000476837,1669829738987,1457,HRV,HRV_0070,2022-11-30 17:37:38
103,"[{'imgObject': {}, 'id': 'Grapes', 'src': '/static/foodstim60/Grapes.jpg', 'key': 'u', 'origWidth': 411, 'origHeight': 411, 'width': 411, 'height': 411, 'widthPercent': 0.45, 'rescaleHeight': False, 'trialN': 103, 'loaded': True, 'loadedTime': 16308.899999976158, 'positionName': 'LEFT', 'positionCoords': [203.4, 194.5], 'bid': 3.54}, {'imgObject': {}, 'id': 'omelette', 'src': '/static/foodstim60/omelette.jpg', 'key': 'i', 'origWidth': 410, 'origHeight': 409, 'width': 410, 'height': 409, 'widthPercent': 0.45, 'rescaleHeight': False, 'trialN': 103, 'loaded': True, 'loadedTime': 18963.199999928474, 'positionName': 'RIGHT', 'positionCoords': [665.6, 195.5], 'bid': 5.3100000000000005}]",265431.59999990463,1669829738987,Grapes,omelette,3.54,5.3100000000000005,1.7700000000000005,omelette,921,927,926.2000000476837,True,i,266858.59999990463,1427.0,1669829740415,1428,HRV,HRV_0070,2022-11-30 17:37:38
104,"[{'imgObject': {}, 'id': 'fruitsalad', 'src': '/static/foodstim60/fruitsalad.jpg', 'key': 'u', 'origWidth': 410, 'origHeight': 410, 'width': 410, 'height': 410, 'widthPercent': 0.45, 'rescaleHeight': False, 'trialN': 104, 'loaded': True, 'loadedTime': 17519.5, 'positionName': 'LEFT', 'positionCoords': [204.4, 195], 'bid': 8.06}, {'imgObject': {}, 'id': 'roastedpotatoes', 'src': '/static/foodstim60/roastedpotatoes.jpg', 'key': 'i', 'origWidth': 409, 'origHeight': 410, 'width': 409, 'height': 410, 'widthPercent': 0.45, 'rescaleHeight': False, 'trialN': 104, 'loaded': True, 'loadedTime': 17412.399999976158, 'positionName': 'RIGHT', 'positionCoords': [665.6, 195], 'bid': 2.03}]",266858.7999999523,1669829740415,fruitsalad,roastedpotatoes,8.06,2.03,-6.030000000000001,fruitsalad,777,784,784.2999999523163,True,u,268143.2999999523,1284.5,1669829741699,1284,HRV,HRV_0070,2022-11-30 17:37:38
105,"[{'imgObject': {}, 'id': 'sweetpotato', 'src': '/static/foodstim60/sweetpotato.jpg', 'key': 'u', 'origWidth': 410, 'origHeight': 410, 'width': 410, 'height': 410, 'widthPercent': 0.45, 'rescaleHeight': False, 'trialN': 105, 'loaded': True, 'loadedTime': 17885.299999952316, 'positionName': 'LEFT', 'positionCoords': [204.4, 195], 'bid': 4.98}, {'imgObject': {}, 'id': 'popsicles', 'src': '/static/foodstim60/popsicles.jpg', 'key': 'i', 'origWidth': 410, 'origHeight': 410, 'width': 410, 'height': 410, 'widthPercent': 0.45, 'rescaleHeight': False, 'trialN': 105, 'loaded': True, 'loadedTime': 18904.5, 'positionName': 'RIGHT', 'positionCoords': [665.6, 195], 'bid': 8.2}]",268143.5,1669829741699,sweetpotato,popsicles,4.98,8.2,3.219999999999999,popsicles,990.0999999046326,998,997.6999999284744,True,i,269641.5,1498.0,1669829743198,1499,HRV,HRV_0070,2022-11-30 17:37:38
106,"[{'imgObject': {}, 'id': 'pear', 'src': '/static/foodstim60/pear.jpg', 'key': 'u', 'origWidth': 411, 'origHeight': 410, 'width': 411, 'height': 410, 'widthPercent': 0.45, 'rescaleHeight': False, 'trialN': 106, 'loaded': True, 'loadedTime': 18887.799999952316, 'positionName': 'LEFT', 'positionCoords': [203.4, 195], 'bid': 3.7}, {'imgObject': {}, 'id': 'sweetpotato', 'src': '/static/foodstim60/sweetpotato.jpg', 'key': 'i', 'origWidth': 410, 'origHeight': 410, 'width': 410, 'height': 410, 'widthPercent': 0.45, 'rescaleHeight': False, 'trialN': 106, 'loaded': True, 'loadedTime': 17882.299999952316, 'positionName': 'RIGHT', 'positionCoords': [665.6, 195], 'bid': 4.98}]",269641.6999999285,1669829743198,pear,sweetpotato,3.7,4.98,1.2800000000000002,pear,1169,1176,1176.2000000476837,True,u,271318.5,1676.8000000715256,1669829744875,1677,HRV,HRV_0070,2022-11-30 17:37:38
107,"[{'imgObject': {}, 'id': 'rigatoni and sauce', 'src': '/static/foodstim60/rigatoni and sauce.jpg', 'key': 'u', 'origWidth': 410, 'origHeight': 411, 'width': 410, 'height': 411, 'widthPercent': 0.45, 'rescaleHeight': False, 'trialN': 107, 'loaded': True, 'loadedTime': 18557.299999952316, 'positionName': 'LEFT', 'positionCoords': [204.4, 194.5], 'bid': 8.35}, {'imgObject': {}, 'id': 'tacos', 'src': '/static/foodstim60/tacos.jpg', 'key': 'i', 'origWidth': 411, 'origHeight': 411, 'width': 411, 'height': 411, 'widthPercent': 0.45, 'rescaleHeight': False, 'trialN': 107, 'loaded': True, 'loadedTime': 18883.099999904633, 'positionName': 'RIGHT', 'positionCoords': [665.6, 194.5], 'bid': 8.84}]",271318.6999999285,1669829744875,rigatoni and sauce,tacos,8.35,8.84,0.4900000000000002,tacos,1282.1000000238419,1288,1288.3999999761581,True,i,273107.7999999523,1789.1000000238419,1669829746664,1789,HRV,HRV_0070,2022-11-30 17:37:38
108,"[{'imgObject': {}, 'id': 'hotdog w must', 'src': '/static/foodstim60/hotdog w must.jpg', 'key': 'u', 'origWidth': 409, 'origHeight': 409, 'width': 409, 'height': 409, 'widthPercent': 0.45, 'rescaleHeight': False, 'trialN': 108, 'loaded': True, 'loadedTime': 17787.699999928474, 'positionName': 'LEFT', 'positionCoords': [205.4, 195.5], 'bid': 0}, {'imgObject': {}, 'id': 'olives', 'src': '/static/foodstim60/olives.jpg', 'key': 'i', 'origWidth': 410, 'origHeight': 410, 'width': 410, 'height': 410, 'widthPercent': 0.45, 'rescaleHeight': False, 'trialN': 108, 'loaded': True, 'loadedTime': 18443.699999928474, 'positionName': 'RIGHT', 'positionCoords': [665.6, 195], 'bid': 0.09}]",273108.0,1669829746664,hotdog w must,olives,0.0,0.09,0.09,hotdog w must,1262.5,1268,1267.7999999523163,True,u,274876.0,1768.0,1669829748432,1768,HRV,HRV_0070,2022-11-30 17:37:38
