success,trial_type,trial_index,time_elapsed,internal_node_id,Block,TrialNumber,TrialTime,trialTimeDiff,FPS_avg,FPS_med,FPS_mode,TrialDur,winResizeTime,rt,block,button_pressed,MotCoh,MotDir,ColCoh,Color,ChoiceKey,Choice,Accuracy,RT,nFrames,FPS,PPD,missTrial,missTrialMsg,onsetDelay,fullScreenExitTime,canvCenter,TrialType,Score,BlockTrial,stimulus,button_labels,exp,subjectId,date
True,fullscreen,0,2946,0.0-0.0,0.0,1.0,,,,,,,,,,,,,,,,,,,,,,,,,,,,,,,,HRV,HRV_0070,2022-11-30 18:03:02
,wl-check-fps,1,8019,0.0-1.0,0.0,2.0,"[3324.5, 3340.4, 3356.5, 3373.8, 3390.9, 3406.3, 3423.5, 3440.5, 3457.9, 3473.5, 3490, 3507.5, 3523.6, 3540.3, 3556.9, 3573.6, 3590.6, 3607.6, 3623.5, 3640.7, 3658, 3676.7, 3693.3, 3738.2, 3746.2, 3759.3, 3788.1, 3831.6, 3842, 3858.5, 3899.8, 3907, 3923, 3940.6, 3957.1, 3973.2, 3990.9, 4006.6, 4023.8, 4040.2, 4057.1, 4074.6, 4090.4, 4107.5, 4124.6, 4140.1, 4157.5, 4174.9, 4190.4, 4206.6, 4223.8, 4240.7, 4256.8, 4273.7, 4290.9, 4308.5, 4323.4, 4340.7, 4357.1, 4373.8, 4390.5, 4407.3, 4423.7, 4440, 4456.5, 4474.6, 4491.5, 4506.2, 4523.1, 4540.6, 4557.6, 4574.4, 4590.4, 4607.3, 4623, 4640.2, 4657.8, 4674, 4690, 4707.1, 4724.2, 4740.8, 4757.7, 4773.7, 4791.5, 4807.5, 4823.8, 4840.5, 4857.7, 4874.5, 4890.6, 4907.9, 4925.1, 4941, 4957.1, 4973.4, 4990.9, 5007.2, 5024.8, 5040.7, 5058.3, 5075.9, 5090.8, 5107.3, 5124.5, 5141.6, 5158.3, 5174.3, 5190.7, 5207.8, 5224.9, 5240.7, 5256.7, 5274.8, 5291, 5307, 5325.1, 5340.7, 5359.2, 5374.2, 5392.3, 5408.4, 5424.8, 5440.7, 5457.8, 5473.9, 5491.7, 5507, 5524, 5540.9, 5558.5, 5573.9, 5591.1, 5608.5, 5625.9, 5641.6, 5658.5, 5674.9, 5690.1, 5707.5, 5725, 5740.5, 5758.2, 5775.6, 5792.1, 5807.6, 5826, 5840.7, 5858.3, 5875.9, 5891.7, 5907.1, 5924.7, 5941.5, 5958.5, 5974.5, 5991, 6007.3, 6024.4, 6040.9, 6058.8, 6075, 6090.6, 6107.9, 6126, 6140.3, 6158.4, 6174.6, 6192.1, 6208.5, 6224.1, 6241.4, 6257.4, 6274.7, 6291.1, 6308.8, 6324.6, 6342.2, 6358.9, 6375, 6392.2, 6408.6, 6425, 6440.6, 6458.3, 6475.1, 6492.2, 6507.2, 6526, 6542.1, 6557.4, 6574.4, 6590.9, 6608.6, 6624.8, 6641.9, 6659.1, 6675.1, 6691.3, 6708.5, 6725.5, 6741.5, 6758.2, 6774, 6790.7, 6807.4, 6824.2, 6841.9, 6858.2, 6874.4, 6891.7, 6908.9, 6924.8, 6942.9, 6958.6, 6975.4, 6992.2, 7009.1, 7025.9, 7040.7, 7058.4, 7074.1, 7091.4, 7108.5, 7125.7, 7142.5, 7158.6, 7174.4, 7190.7, 7208.5, 7225.5, 7240.6, 7259, 7275.8, 7290.9, 7308.7, 7325.6, 7341.4, 7358.3, 7376, 7391.4, 7408.9, 7426.5, 7442.3, 7458.4, 7475.6, 7492.5, 7508.4, 7524.3, 7541.6, 7558.9, 7576.7, 7591.8, 7607.6, 7625.5, 7641.6, 7657.8, 7676, 7692.6, 7709.2, 7724.7, 7740.8, 7757.8, 7774.7, 7791.2, 7808.8, 7826.1, 7842.1, 7859, 7876.1, 7892.5, 7909.2, 7925.7, 7942.4, 7958, 7976, 7992.2, 8009.1, 8026.1, 8041.1, 8058.5, 8076, 8093.1, 8108.8, 8126, 8142.3, 8159.1, 8175.8, 8192.1, 8209.3, 8225.9, 8241.5, 8259.2, 8275.8, 8291.1, 8308.1, 8326, 8343.3, 8358.9, 8376.1]","[1.3, 15.9, 16.1, 17.3, 17.1, 15.4, 17.2, 17, 17.4, 15.6, 16.5, 17.5, 16.1, 16.7, 16.6, 16.7, 17, 17, 15.9, 17.2, 17.3, 18.7, 16.6, 44.9, 8, 13.1, 28.8, 43.5, 10.4, 16.5, 41.3, 7.2, 16, 17.6, 16.5, 16.1, 17.7, 15.7, 17.2, 16.4, 16.9, 17.5, 15.8, 17.1, 17.1, 15.5, 17.4, 17.4, 15.5, 16.2, 17.2, 16.9, 16.1, 16.9, 17.2, 17.6, 14.9, 17.3, 16.4, 16.7, 16.7, 16.8, 16.4, 16.3, 16.5, 18.1, 16.9, 14.7, 16.9, 17.5, 17, 16.8, 16, 16.9, 15.7, 17.2, 17.6, 16.2, 16, 17.1, 17.1, 16.6, 16.9, 16, 17.8, 16, 16.3, 16.7, 17.2, 16.8, 16.1, 17.3, 17.2, 15.9, 16.1, 16.3, 17.5, 16.3, 17.6, 15.9, 17.6, 17.6, 14.9, 16.5, 17.2, 17.1, 16.7, 16, 16.4, 17.1, 17.1, 15.8, 16, 18.1, 16.2, 16, 18.1, 15.6, 18.5, 15, 18.1, 16.1, 16.4, 15.9, 17.1, 16.1, 17.8, 15.3, 17, 16.9, 17.6, 15.4, 17.2, 17.4, 17.4, 15.7, 16.9, 16.4, 15.2, 17.4, 17.5, 15.5, 17.7, 17.4, 16.5, 15.5, 18.4, 14.7, 17.6, 17.6, 15.8, 15.4, 17.6, 16.8, 17, 16, 16.5, 16.3, 17.1, 16.5, 17.9, 16.2, 15.6, 17.3, 18.1, 14.3, 18.1, 16.2, 17.5, 16.4, 15.6, 17.3, 16, 17.3, 16.4, 17.7, 15.8, 17.6, 16.7, 16.1, 17.2, 16.4, 16.4, 15.6, 17.7, 16.8, 17.1, 15, 18.8, 16.1, 15.3, 17, 16.5, 17.7, 16.2, 17.1, 17.2, 16, 16.2, 17.2, 17, 16, 16.7, 15.8, 16.7, 16.7, 16.8, 17.7, 16.3, 16.2, 17.3, 17.2, 15.9, 18.1, 15.7, 16.8, 16.8, 16.9, 16.8, 14.8, 17.7, 15.7, 17.3, 17.1, 17.2, 16.8, 16.1, 15.8, 16.3, 17.8, 17, 15.1, 18.4, 16.8, 15.1, 17.8, 16.9, 15.8, 16.9, 17.7, 15.4, 17.5, 17.6, 15.8, 16.1, 17.2, 16.9, 15.9, 15.9, 17.3, 17.3, 17.8, 15.1, 15.8, 17.9, 16.1, 16.2, 18.2, 16.6, 16.6, 15.5, 16.1, 17, 16.9, 16.5, 17.6, 17.3, 16, 16.9, 17.1, 16.4, 16.7, 16.5, 16.7, 15.6, 18, 16.2, 16.9, 17, 15, 17.4, 17.5, 17.1, 15.7, 17.2, 16.3, 16.8, 16.7, 16.3, 17.2, 16.6, 15.6, 17.7, 16.6, 15.3, 17, 17.9, 17.3, 15.6, 17.2]",59.0,60.0,58.0,5069.3,[],,,,,,,,,,,,,,,,,,,,,,,,,HRV,HRV_0070,2022-11-30 18:03:02
,wl-html-keyboard-response,2,24006,0.0-2.0-0.0,0.0,3.0,,,,,,,,14223.700000047684,0.0,0,,,,,,,,,,,,,,,,,,,,,,HRV,HRV_0070,2022-11-30 18:03:02
,wl-rdm,3,30844,0.0-3.0-0.0,0.0,4.0,,,,,,,[],,,,0.0,0.0,87.9,0.0,u,0.0,True,1267.3999999761581,76.0,58.0,40.0,False,,3000.0,[],"[640, 400]",ColorTask_Demo,,,,,HRV,HRV_0070,2022-11-30 18:03:02
,wl-rdm,4,35511,0.0-3.0-1.0,0.0,5.0,,,,,,,[],,,,0.0,0.0,87.9,1.0,i,1.0,True,616.8999999761581,37.0,58.0,40.0,False,,2000.0,[],"[640, 400]",ColorTask_Demo,,,,,HRV,HRV_0070,2022-11-30 18:03:02
,wl-html-keyboard-response,5,41428,0.0-3.0-2.0,0.0,6.0,,,,,,,,3913.2000000476837,0.0,1,,,,,,,,,,,,,,,,,,,,,,HRV,HRV_0070,2022-11-30 18:03:02
,wl-html-keyboard-response,6,50645,0.0-4.0-0.0,0.0,7.0,,,,,,,,7212.399999976158,0.0,0,,,,,,,,,,,,,,,,,,,,,,HRV,HRV_0070,2022-11-30 18:03:02
,wl-html-keyboard-response,7,72113,0.0-5.0-0.0,0.0,8.0,,,,,,,,19464.600000023842,0.0,0,,,,,,,,,,,,,,,,,,,,,,HRV,HRV_0070,2022-11-30 18:03:02
,wl-rdm,8,74211,0.0-6.0-0.0,0.0,9.0,,,,,,,[],,,,,,50.0,0.0,i,1.0,False,740.2000000476837,44.0,58.0,40.0,False,,267.2329492624341,[],"[640, 400]",ColorTask,-1.0,1.0,,,HRV,HRV_0070,2022-11-30 18:03:02
,wl-rdm,9,76613,0.0-6.1-0.1,0.0,10.0,,,,,,,[],,,,,,53.2,0.0,u,0.0,True,1046.8000000715256,63.0,58.0,40.0,False,,250.96879055336473,[],"[640, 400]",ColorTask,0.0,2.0,,,HRV,HRV_0070,2022-11-30 18:03:02
,wl-rdm,10,78563,0.0-6.2-0.2,0.0,11.0,,,,,,,[],,,,,,73.6,1.0,i,1.0,True,639.7000000476837,39.0,58.0,40.0,False,,248.7211433844123,[],"[640, 400]",ColorTask,1.0,3.0,,,HRV,HRV_0070,2022-11-30 18:03:02
,wl-rdm,11,80831,0.0-6.3-0.3,0.0,12.0,,,,,,,[],,,,,,62.5,1.0,u,0.0,False,925.5999999046326,56.0,58.0,40.0,False,,281.907699055449,[],"[640, 400]",ColorTask,0.0,4.0,,,HRV,HRV_0070,2022-11-30 18:03:02
,wl-rdm,12,81898,0.0-6.4-0.4,0.0,12.0,,,,,,,[],,,,,,73.6,1.0,u,,,296.0,0.0,58.0,40.0,True,too_early ,265.1396973627092,[],"[640, 400]",ColorTask,-1.0,5.0,,,HRV,HRV_0070,2022-11-30 18:03:02
,wl-rdm,13,84247,0.0-6.5-0.5,0.0,13.0,,,,,,,[],,,,,,87.9,0.0,u,0.0,True,1055.8000000715256,63.0,58.0,40.0,False,,218.77595762678465,[],"[640, 400]",ColorTask,0.0,6.0,,,HRV,HRV_0070,2022-11-30 18:03:02
,wl-rdm,14,86284,0.0-6.6-0.6,0.0,14.0,,,,,,,[],,,,,,87.9,1.0,i,1.0,True,628.1999999284744,38.0,58.0,40.0,False,,343.171018313788,[],"[640, 400]",ColorTask,1.0,7.0,,,HRV,HRV_0070,2022-11-30 18:03:02
,wl-rdm,15,88567,0.0-6.7-0.7,0.0,15.0,,,,,,,[],,,,,,56.4,1.0,u,0.0,False,990.6000000238419,60.0,58.0,40.0,False,,216.48019168560407,[],"[640, 400]",ColorTask,0.0,8.0,,,HRV,HRV_0070,2022-11-30 18:03:02
,wl-rdm,16,90967,0.0-6.8-0.8,0.0,16.0,,,,,,,[],,,,,,53.2,1.0,u,0.0,False,1038.1999999284744,63.0,58.0,40.0,False,,287.3582021482214,[],"[640, 400]",ColorTask,-1.0,9.0,,,HRV,HRV_0070,2022-11-30 18:03:02
,wl-rdm,17,92918,0.0-6.9-0.9,0.0,17.0,,,,,,,[],,,,,,56.4,1.0,i,1.0,True,624.0,38.0,58.0,40.0,False,,234.01790005244771,[],"[640, 400]",ColorTask,0.0,10.0,,,HRV,HRV_0070,2022-11-30 18:03:02
,wl-rdm,18,94853,0.0-6.10-0.10,0.0,18.0,,,,,,,[],,,,,,53.2,1.0,i,1.0,True,468.0,28.0,58.0,40.0,False,,394.1435671164206,[],"[640, 400]",ColorTask,1.0,11.0,,,HRV,HRV_0070,2022-11-30 18:03:02
,wl-rdm,19,96870,0.0-6.11-0.11,0.0,19.0,,,,,,,[],,,,,,53.2,1.0,i,1.0,True,564.2999999523163,34.0,58.0,40.0,False,,368.24739628086786,[],"[640, 400]",ColorTask,2.0,12.0,,,HRV,HRV_0070,2022-11-30 18:03:02
,wl-rdm,20,99154,0.0-6.12-0.12,0.0,20.0,,,,,,,[],,,,,,73.6,0.0,u,0.0,True,886.0,53.0,58.0,40.0,False,,334.996147631719,[],"[640, 400]",ColorTask,3.0,13.0,,,HRV,HRV_0070,2022-11-30 18:03:02
,wl-rdm,21,101305,0.0-6.13-0.13,0.0,21.0,,,,,,,[],,,,,,53.2,1.0,i,1.0,True,722.0999999046326,44.0,58.0,40.0,False,,337.3288289459686,[],"[640, 400]",ColorTask,4.0,14.0,,,HRV,HRV_0070,2022-11-30 18:03:02
,wl-rdm,22,103389,0.0-6.14-0.14,0.0,22.0,,,,,,,[],,,,,,53.2,0.0,u,0.0,True,682.1999999284744,43.0,58.0,40.0,False,,292.6482936037322,[],"[640, 400]",ColorTask,5.0,15.0,,,HRV,HRV_0070,2022-11-30 18:03:02
,wl-rdm,23,105273,0.0-6.15-0.15,0.0,23.0,,,,,,,[],,,,,,62.5,0.0,i,1.0,False,601.1999999284744,36.0,58.0,40.0,False,,201.2395292445056,[],"[640, 400]",ColorTask,4.0,16.0,,,HRV,HRV_0070,2022-11-30 18:03:02
,wl-rdm,24,107207,0.0-6.16-0.16,0.0,24.0,,,,,,,[],,,,,,87.9,1.0,i,1.0,True,562.8999999761581,34.0,58.0,40.0,False,,287.63322558071945,[],"[640, 400]",ColorTask,5.0,17.0,,,HRV,HRV_0070,2022-11-30 18:03:02
,wl-rdm,25,109408,0.0-6.17-0.17,0.0,25.0,,,,,,,[],,,,,,50.0,1.0,u,0.0,False,890.0000001192093,54.0,58.0,40.0,False,,230.61197271331116,[],"[640, 400]",ColorTask,4.0,18.0,,,HRV,HRV_0070,2022-11-30 18:03:02
,wl-rdm,26,111408,0.0-6.18-0.18,0.0,26.0,,,,,,,[],,,,,,53.2,1.0,u,0.0,False,602.7999999523163,37.0,58.0,40.0,False,,330.70753557662346,[],"[640, 400]",ColorTask,3.0,19.0,,,HRV,HRV_0070,2022-11-30 18:03:02
,wl-rdm,27,113462,0.0-6.19-0.19,0.0,27.0,,,,,,,[],,,,,,87.9,1.0,u,0.0,False,757.6999999284744,46.0,58.0,40.0,False,,218.31243106257463,[],"[640, 400]",ColorTask,2.0,20.0,,,HRV,HRV_0070,2022-11-30 18:03:02
,wl-rdm,28,115144,0.0-6.20-0.20,0.0,28.0,,,,,,,[],,,,,,62.5,0.0,i,1.0,False,363.0,22.0,58.0,40.0,False,,256.32503413835497,[],"[640, 400]",ColorTask,1.0,21.0,,,HRV,HRV_0070,2022-11-30 18:03:02
,wl-rdm,29,116961,0.0-6.21-0.21,0.0,29.0,,,,,,,[],,,,,,56.4,1.0,i,1.0,True,455.4999998807907,28.0,58.0,40.0,False,,278.3352380096265,[],"[640, 400]",ColorTask,2.0,22.0,,,HRV,HRV_0070,2022-11-30 18:03:02
,wl-rdm,30,119095,0.0-6.22-0.22,0.0,30.0,,,,,,,[],,,,,,87.9,0.0,u,0.0,True,788.7999999523163,48.0,58.0,40.0,False,,266.54395585452926,[],"[640, 400]",ColorTask,3.0,23.0,,,HRV,HRV_0070,2022-11-30 18:03:02
,wl-rdm,31,121213,0.0-6.23-0.23,0.0,31.0,,,,,,,[],,,,,,53.2,0.0,u,0.0,True,737.5999999046326,45.0,58.0,40.0,False,,306.07768525824554,[],"[640, 400]",ColorTask,4.0,24.0,,,HRV,HRV_0070,2022-11-30 18:03:02
,wl-rdm,32,123199,0.0-6.24-0.24,0.0,32.0,,,,,,,[],,,,,,73.6,1.0,i,1.0,True,691.6000000238419,41.0,58.0,40.0,False,,219.81160754580796,[],"[640, 400]",ColorTask,5.0,25.0,,,HRV,HRV_0070,2022-11-30 18:03:02
,wl-rdm,33,125365,0.0-6.25-0.25,0.0,33.0,,,,,,,[],,,,,,87.9,1.0,i,1.0,True,878.7999999523163,53.0,58.0,40.0,False,,222.58847123256302,[],"[640, 400]",ColorTask,6.0,26.0,,,HRV,HRV_0070,2022-11-30 18:03:02
,wl-rdm,34,127598,0.0-6.26-0.26,0.0,34.0,,,,,,,[],,,,,,73.6,1.0,i,1.0,True,792.8999999761581,48.0,58.0,40.0,False,,359.40184872658745,[],"[640, 400]",ColorTask,7.0,27.0,,,HRV,HRV_0070,2022-11-30 18:03:02
,wl-rdm,35,129617,0.0-6.27-0.27,0.0,35.0,,,,,,,[],,,,,,73.6,0.0,u,0.0,True,605.2000000476837,37.0,58.0,40.0,False,,345.5478336902272,[],"[640, 400]",ColorTask,8.0,28.0,,,HRV,HRV_0070,2022-11-30 18:03:02
,wl-rdm,36,131683,0.0-6.28-0.28,0.0,36.0,,,,,,,[],,,,,,56.4,0.0,u,0.0,True,761.7999999523163,46.0,58.0,40.0,False,,226.42297103453026,[],"[640, 400]",ColorTask,9.0,29.0,,,HRV,HRV_0070,2022-11-30 18:03:02
,wl-rdm,37,133718,0.0-6.29-0.29,0.0,37.0,,,,,,,[],,,,,,73.6,1.0,i,1.0,True,661.8999999761581,39.0,58.0,40.0,False,,294.0559444033732,[],"[640, 400]",ColorTask,10.0,30.0,,,HRV,HRV_0070,2022-11-30 18:03:02
,wl-rdm,38,135903,0.0-6.30-0.30,0.0,38.0,,,,,,,[],,,,,,62.5,1.0,u,0.0,False,841.3999999761581,51.0,58.0,40.0,False,,265.7509241362917,[],"[640, 400]",ColorTask,9.0,31.0,,,HRV,HRV_0070,2022-11-30 18:03:02
,wl-rdm,39,137787,0.0-6.31-0.31,0.0,39.0,,,,,,,[],,,,,,56.4,1.0,i,1.0,True,591.7999999523163,36.0,58.0,40.0,False,,211.64353503748455,[],"[640, 400]",ColorTask,10.0,32.0,,,HRV,HRV_0070,2022-11-30 18:03:02
,wl-rdm,40,140088,0.0-6.32-0.32,0.0,40.0,,,,,,,[],,,,,,73.6,0.0,u,0.0,True,940.2000000476837,57.0,58.0,40.0,False,,278.1497138042518,[],"[640, 400]",ColorTask,11.0,33.0,,,HRV,HRV_0070,2022-11-30 18:03:02
,wl-rdm,41,142089,0.0-6.33-0.33,0.0,41.0,,,,,,,[],,,,,,56.4,1.0,i,1.0,True,566.5999999046326,34.0,58.0,40.0,False,,357.72774327363777,[],"[640, 400]",ColorTask,12.0,34.0,,,HRV,HRV_0070,2022-11-30 18:03:02
,wl-rdm,42,144155,0.0-6.34-0.34,0.0,42.0,,,,,,,[],,,,,,50.0,1.0,u,0.0,False,771.1999998092651,47.0,58.0,40.0,False,,207.60360665269067,[],"[640, 400]",ColorTask,11.0,35.0,,,HRV,HRV_0070,2022-11-30 18:03:02
,wl-rdm,43,146057,0.0-6.35-0.35,0.0,43.0,,,,,,,[],,,,,,73.6,0.0,u,0.0,True,587.0000001192093,36.0,58.0,40.0,False,,239.29754963119643,[],"[640, 400]",ColorTask,12.0,36.0,,,HRV,HRV_0070,2022-11-30 18:03:02
,wl-rdm,44,148108,0.0-6.36-0.36,0.0,44.0,,,,,,,[],,,,,,87.9,0.0,u,0.0,True,640.2000000476837,39.0,58.0,40.0,False,,333.3006841107725,[],"[640, 400]",ColorTask,13.0,37.0,,,HRV,HRV_0070,2022-11-30 18:03:02
,wl-rdm,45,150008,0.0-6.37-0.37,0.0,45.0,,,,,,,[],,,,,,50.0,1.0,i,1.0,True,623.8000000715256,38.0,58.0,40.0,False,,211.41704960171418,[],"[640, 400]",ColorTask,14.0,38.0,,,HRV,HRV_0070,2022-11-30 18:03:02
,wl-rdm,46,151974,0.0-6.38-0.38,0.0,46.0,,,,,,,[],,,,,,87.9,0.0,u,0.0,True,609.1000000238419,36.0,58.0,40.0,False,,243.75166177445465,[],"[640, 400]",ColorTask,15.0,39.0,,,HRV,HRV_0070,2022-11-30 18:03:02
,wl-rdm,47,154109,0.0-6.39-0.39,0.0,47.0,,,,,,,[],,,,,,50.0,0.0,u,0.0,True,788.3999999761581,48.0,58.0,40.0,False,,262.3108837427681,[],"[640, 400]",ColorTask,16.0,40.0,,,HRV,HRV_0070,2022-11-30 18:03:02
,wl-rdm,48,156345,0.0-6.40-0.40,0.0,48.0,,,,,,,[],,,,,,50.0,0.0,i,1.0,False,962.2000000476837,58.0,58.0,40.0,False,,210.7465318892108,[],"[640, 400]",ColorTask,15.0,41.0,,,HRV,HRV_0070,2022-11-30 18:03:02
,wl-rdm,49,158560,0.0-6.41-0.41,0.0,49.0,,,,,,,[],,,,,,50.0,1.0,i,1.0,True,905.6000000238419,55.0,58.0,40.0,False,,225.86716109780951,[],"[640, 400]",ColorTask,16.0,42.0,,,HRV,HRV_0070,2022-11-30 18:03:02
,wl-rdm,50,160445,0.0-6.42-0.42,0.0,50.0,,,,,,,[],,,,,,87.9,0.0,u,0.0,True,512.8000000715256,31.0,58.0,40.0,False,,292.55549860620937,[],"[640, 400]",ColorTask,17.0,43.0,,,HRV,HRV_0070,2022-11-30 18:03:02
,wl-rdm,51,162595,0.0-6.43-0.43,0.0,51.0,,,,,,,[],,,,,,56.4,1.0,i,1.0,True,799.6999999284744,48.0,58.0,40.0,False,,270.2928343678504,[],"[640, 400]",ColorTask,18.0,44.0,,,HRV,HRV_0070,2022-11-30 18:03:02
,wl-rdm,52,164664,0.0-6.44-0.44,0.0,52.0,,,,,,,[],,,,,,53.2,0.0,u,0.0,True,757.7000000476837,46.0,58.0,40.0,False,,245.3225008248083,[],"[640, 400]",ColorTask,19.0,45.0,,,HRV,HRV_0070,2022-11-30 18:03:02
,wl-rdm,53,166897,0.0-6.45-0.45,0.0,53.0,,,,,,,[],,,,,,62.5,0.0,u,0.0,True,953.3000000715256,58.0,58.0,40.0,False,,207.93976330322545,[],"[640, 400]",ColorTask,20.0,46.0,,,HRV,HRV_0070,2022-11-30 18:03:02
,wl-rdm,54,168916,0.0-6.46-0.46,0.0,54.0,,,,,,,[],,,,,,87.9,1.0,i,1.0,True,691.0999999046326,41.0,58.0,40.0,False,,228.95354321681114,[],"[640, 400]",ColorTask,21.0,47.0,,,HRV,HRV_0070,2022-11-30 18:03:02
,wl-rdm,55,170833,0.0-6.47-0.47,0.0,55.0,,,,,,,[],,,,,,53.2,0.0,u,0.0,True,602.1000000238419,37.0,58.0,40.0,False,,242.17406360474922,[],"[640, 400]",ColorTask,22.0,48.0,,,HRV,HRV_0070,2022-11-30 18:03:02
,wl-rdm,56,173133,0.0-6.48-0.48,0.0,56.0,,,,,,,[],,,,,,53.2,1.0,i,1.0,True,855.6000000238419,52.0,58.0,40.0,False,,352.9174861137185,[],"[640, 400]",ColorTask,23.0,49.0,,,HRV,HRV_0070,2022-11-30 18:03:02
,wl-rdm,57,175053,0.0-6.49-0.49,0.0,57.0,,,,,,,[],,,,,,87.9,0.0,u,0.0,True,608.3999999761581,37.0,58.0,40.0,False,,240.71093931823657,[],"[640, 400]",ColorTask,24.0,50.0,,,HRV,HRV_0070,2022-11-30 18:03:02
,wl-rdm,58,177285,0.0-6.50-0.50,0.0,58.0,,,,,,,[],,,,,,56.4,0.0,i,1.0,False,863.1999999284744,52.0,58.0,40.0,False,,316.7052448467781,[],"[640, 400]",ColorTask,23.0,51.0,,,HRV,HRV_0070,2022-11-30 18:03:02
,wl-rdm,59,179185,0.0-6.51-0.51,0.0,59.0,,,,,,,[],,,,,,62.5,1.0,i,1.0,True,580.5,34.0,58.0,40.0,False,,247.48052952234576,[],"[640, 400]",ColorTask,24.0,52.0,,,HRV,HRV_0070,2022-11-30 18:03:02
,wl-rdm,60,181287,0.0-6.52-0.52,0.0,60.0,,,,,,,[],,,,,,50.0,1.0,i,1.0,True,737.7000000476837,44.0,58.0,40.0,False,,267.4642586703664,[],"[640, 400]",ColorTask,25.0,53.0,,,HRV,HRV_0070,2022-11-30 18:03:02
,wl-rdm,61,183570,0.0-6.53-0.53,0.0,61.0,,,,,,,[],,,,,,73.6,0.0,u,0.0,True,809.8000000715256,49.0,58.0,40.0,False,,389.43919892682175,[],"[640, 400]",ColorTask,26.0,54.0,,,HRV,HRV_0070,2022-11-30 18:03:02
,wl-rdm,62,185623,0.0-6.54-0.54,0.0,62.0,,,,,,,[],,,,,,87.9,1.0,i,1.0,True,709.7999999523163,43.0,58.0,40.0,False,,281.00996143212814,[],"[640, 400]",ColorTask,27.0,55.0,,,HRV,HRV_0070,2022-11-30 18:03:02
,wl-rdm,63,187841,0.0-6.55-0.55,0.0,63.0,,,,,,,[],,,,,,87.9,0.0,u,0.0,True,890.2000000476837,54.0,58.0,40.0,False,,248.29639871152986,[],"[640, 400]",ColorTask,28.0,56.0,,,HRV,HRV_0070,2022-11-30 18:03:02
,wl-rdm,64,189990,0.0-6.56-0.56,0.0,64.0,,,,,,,[],,,,,,62.5,1.0,i,1.0,True,693.5,42.0,58.0,40.0,False,,367.19276922898825,[],"[640, 400]",ColorTask,29.0,57.0,,,HRV,HRV_0070,2022-11-30 18:03:02
,wl-rdm,65,192107,0.0-6.57-0.57,0.0,65.0,,,,,,,[],,,,,,50.0,0.0,i,1.0,False,827.2999999523163,50.0,58.0,40.0,False,,209.48762175228373,[],"[640, 400]",ColorTask,28.0,58.0,,,HRV,HRV_0070,2022-11-30 18:03:02
,wl-rdm,66,194126,0.0-6.58-0.58,0.0,66.0,,,,,,,[],,,,,,62.5,1.0,i,1.0,True,694.1999999284744,42.0,58.0,40.0,False,,265.1834024849087,[],"[640, 400]",ColorTask,29.0,59.0,,,HRV,HRV_0070,2022-11-30 18:03:02
,wl-rdm,67,196095,0.0-6.59-0.59,0.0,67.0,,,,,,,[],,,,,,50.0,1.0,u,0.0,False,654.5,40.0,58.0,40.0,False,,221.37697133537077,[],"[640, 400]",ColorTask,28.0,60.0,,,HRV,HRV_0070,2022-11-30 18:03:02
,wl-rdm,68,198320,0.0-6.60-0.60,0.0,68.0,,,,,,,[],,,,,,62.5,0.0,u,0.0,True,787.5,48.0,58.0,40.0,False,,343.1908399935461,[],"[640, 400]",ColorTask,29.0,61.0,,,HRV,HRV_0070,2022-11-30 18:03:02
,wl-rdm,69,200578,0.0-6.61-0.61,0.0,69.0,,,,,,,[],,,,,,50.0,1.0,u,0.0,False,812.6000000238419,48.0,58.0,40.0,False,,369.0560294994491,[],"[640, 400]",ColorTask,28.0,62.0,,,HRV,HRV_0070,2022-11-30 18:03:02
,wl-rdm,70,202445,0.0-6.62-0.62,0.0,70.0,,,,,,,[],,,,,,87.9,1.0,i,1.0,True,472.4999998807907,29.0,58.0,40.0,False,,300.9326677331465,[],"[640, 400]",ColorTask,29.0,63.0,,,HRV,HRV_0070,2022-11-30 18:03:02
,wl-rdm,71,204414,0.0-6.63-0.63,0.0,71.0,,,,,,,[],,,,,,73.6,1.0,i,1.0,True,523.7000000476837,32.0,58.0,40.0,False,,368.37922305000933,[],"[640, 400]",ColorTask,30.0,64.0,,,HRV,HRV_0070,2022-11-30 18:03:02
,wl-rdm,72,206663,0.0-6.64-0.64,0.0,72.0,,,,,,,[],,,,,,56.4,0.0,i,1.0,False,873.0,53.0,58.0,40.0,False,,314.06525603824616,[],"[640, 400]",ColorTask,29.0,65.0,,,HRV,HRV_0070,2022-11-30 18:03:02
,wl-rdm,73,208881,0.0-6.65-0.65,0.0,73.0,,,,,,,[],,,,,,56.4,0.0,u,0.0,True,843.2000000476837,51.0,58.0,40.0,False,,287.71227403107895,[],"[640, 400]",ColorTask,30.0,66.0,,,HRV,HRV_0070,2022-11-30 18:03:02
,wl-rdm,74,210983,0.0-6.66-0.66,0.0,74.0,,,,,,,[],,,,,,62.5,0.0,u,0.0,True,741.2000000476837,45.0,58.0,40.0,False,,300.2988551082637,[],"[640, 400]",ColorTask,31.0,67.0,,,HRV,HRV_0070,2022-11-30 18:03:02
,wl-rdm,75,213034,0.0-6.67-0.67,0.0,75.0,,,,,,,[],,,,,,56.4,1.0,u,0.0,False,709.7999999523163,43.0,58.0,40.0,False,,275.74110386398127,[],"[640, 400]",ColorTask,30.0,68.0,,,HRV,HRV_0070,2022-11-30 18:03:02
,wl-rdm,76,214966,0.0-6.68-0.68,0.0,76.0,,,,,,,[],,,,,,56.4,0.0,i,1.0,False,539.2999999523163,33.0,58.0,40.0,False,,322.7642979461524,[],"[640, 400]",ColorTask,29.0,69.0,,,HRV,HRV_0070,2022-11-30 18:03:02
,wl-rdm,77,217152,0.0-6.69-0.69,0.0,77.0,,,,,,,[],,,,,,50.0,0.0,u,0.0,True,845.7999999523163,51.0,58.0,40.0,False,,260.97747806815164,[],"[640, 400]",ColorTask,30.0,70.0,,,HRV,HRV_0070,2022-11-30 18:03:02
,wl-rdm,78,218968,0.0-6.70-0.70,0.0,78.0,,,,,,,[],,,,,,56.4,1.0,u,0.0,False,546.2000000476837,33.0,58.0,40.0,False,,214.7506443420436,[],"[640, 400]",ColorTask,29.0,71.0,,,HRV,HRV_0070,2022-11-30 18:03:02
,wl-rdm,79,220735,0.0-6.71-0.71,0.0,79.0,,,,,,,[],,,,,,73.6,1.0,i,1.0,True,490.40000009536743,30.0,58.0,40.0,False,,211.10525347506402,[],"[640, 400]",ColorTask,30.0,72.0,,,HRV,HRV_0070,2022-11-30 18:03:02
,wl-rdm,80,222669,0.0-6.72-0.72,0.0,80.0,,,,,,,[],,,,,,53.2,0.0,i,1.0,False,468.60000002384186,29.0,58.0,40.0,False,,368.4375342633549,[],"[640, 400]",ColorTask,29.0,73.0,,,HRV,HRV_0070,2022-11-30 18:03:02
,wl-rdm,81,224521,0.0-6.73-0.73,0.0,81.0,,,,,,,[],,,,,,62.5,0.0,i,1.0,False,473.1999999284744,29.0,58.0,40.0,False,,311.32640635450684,[],"[640, 400]",ColorTask,28.0,74.0,,,HRV,HRV_0070,2022-11-30 18:03:02
,wl-rdm,82,226755,0.0-6.74-0.74,0.0,82.0,,,,,,,[],,,,,,50.0,0.0,i,1.0,False,738.1000000238419,45.0,58.0,40.0,False,,371.3258257999843,[],"[640, 400]",ColorTask,27.0,75.0,,,HRV,HRV_0070,2022-11-30 18:03:02
,wl-rdm,83,229007,0.0-6.75-0.75,0.0,83.0,,,,,,,[],,,,,,73.6,0.0,u,0.0,True,913.6000000238419,55.0,58.0,40.0,False,,277.0754071185589,[],"[640, 400]",ColorTask,28.0,76.0,,,HRV,HRV_0070,2022-11-30 18:03:02
,wl-rdm,84,231023,0.0-6.76-0.76,0.0,84.0,,,,,,,[],,,,,,87.9,1.0,i,1.0,True,620.7000000476837,38.0,58.0,40.0,False,,320.01937346970004,[],"[640, 400]",ColorTask,29.0,77.0,,,HRV,HRV_0070,2022-11-30 18:03:02
,wl-rdm,85,233059,0.0-6.77-0.77,0.0,85.0,,,,,,,[],,,,,,73.6,0.0,u,0.0,True,661.7000000476837,40.0,58.0,40.0,False,,286.68830034430124,[],"[640, 400]",ColorTask,30.0,78.0,,,HRV,HRV_0070,2022-11-30 18:03:02
,wl-rdm,86,235091,0.0-6.78-0.78,0.0,86.0,,,,,,,[],,,,,,53.2,0.0,i,1.0,False,688.6999999284744,42.0,58.0,40.0,False,,273.3207979819779,[],"[640, 400]",ColorTask,29.0,79.0,,,HRV,HRV_0070,2022-11-30 18:03:02
,wl-rdm,87,237077,0.0-6.79-0.79,0.0,87.0,,,,,,,[],,,,,,53.2,1.0,i,1.0,True,704.3999999761581,43.0,58.0,40.0,False,,215.94211897053415,[],"[640, 400]",ColorTask,30.0,80.0,,,HRV,HRV_0070,2022-11-30 18:03:02
,wl-rdm,88,239179,0.0-6.80-0.80,0.0,88.0,,,,,,,[],,,,,,53.2,1.0,i,1.0,True,757.6000000238419,46.0,58.0,40.0,False,,269.59684645929997,[],"[640, 400]",ColorTask,31.0,81.0,,,HRV,HRV_0070,2022-11-30 18:03:02
,wl-rdm,89,241160,0.0-6.81-0.81,0.0,89.0,,,,,,,[],,,,,,56.4,0.0,u,0.0,True,687.0,42.0,58.0,40.0,False,,226.66733000640517,[],"[640, 400]",ColorTask,32.0,82.0,,,HRV,HRV_0070,2022-11-30 18:03:02
,wl-rdm,90,243261,0.0-6.82-0.82,0.0,90.0,,,,,,,[],,,,,,87.9,0.0,u,0.0,True,813.5,48.0,58.0,40.0,False,,225.2240805848504,[],"[640, 400]",ColorTask,33.0,83.0,,,HRV,HRV_0070,2022-11-30 18:03:02
,wl-rdm,91,245278,0.0-6.83-0.83,0.0,91.0,,,,,,,[],,,,,,56.4,1.0,i,1.0,True,750.2000000476837,45.0,58.0,40.0,False,,206.7570560600684,[],"[640, 400]",ColorTask,34.0,84.0,,,HRV,HRV_0070,2022-11-30 18:03:02
,wl-rdm,92,247596,0.0-6.84-0.84,0.0,92.0,,,,,,,[],,,,,,62.5,1.0,i,1.0,True,856.1999999284744,52.0,58.0,40.0,False,,386.526331783449,[],"[640, 400]",ColorTask,35.0,85.0,,,HRV,HRV_0070,2022-11-30 18:03:02
,wl-rdm,93,249748,0.0-6.85-0.85,0.0,93.0,,,,,,,[],,,,,,73.6,1.0,i,1.0,True,763.1000000238419,46.0,58.0,40.0,False,,278.27296806602766,[],"[640, 400]",ColorTask,36.0,86.0,,,HRV,HRV_0070,2022-11-30 18:03:02
,wl-rdm,94,251764,0.0-6.86-0.86,0.0,94.0,,,,,,,[],,,,,,50.0,0.0,u,0.0,True,705.8999999761581,43.0,58.0,40.0,False,,243.3802946351961,[],"[640, 400]",ColorTask,37.0,87.0,,,HRV,HRV_0070,2022-11-30 18:03:02
,wl-rdm,95,253934,0.0-6.87-0.87,0.0,95.0,,,,,,,[],,,,,,87.9,0.0,u,0.0,True,756.8000000715256,46.0,58.0,40.0,False,,336.5316353233976,[],"[640, 400]",ColorTask,38.0,88.0,,,HRV,HRV_0070,2022-11-30 18:03:02
,wl-rdm,96,255984,0.0-6.88-0.88,0.0,96.0,,,,,,,[],,,,,,56.4,0.0,u,0.0,True,778.3999998569489,47.0,58.0,40.0,False,,211.01771129928449,[],"[640, 400]",ColorTask,39.0,89.0,,,HRV,HRV_0070,2022-11-30 18:03:02
,wl-rdm,97,258034,0.0-6.89-0.89,0.0,97.0,,,,,,,[],,,,,,62.5,0.0,u,0.0,True,615.1999999284744,36.0,58.0,40.0,False,,370.77379344909286,[],"[640, 400]",ColorTask,40.0,90.0,,,HRV,HRV_0070,2022-11-30 18:03:02
,wl-rdm,98,260254,0.0-6.90-0.90,0.0,98.0,,,,,,,[],,,,,,62.5,1.0,i,1.0,True,809.2000000476837,49.0,58.0,40.0,False,,328.07245386783626,[],"[640, 400]",ColorTask,41.0,91.0,,,HRV,HRV_0070,2022-11-30 18:03:02
,wl-rdm,99,262337,0.0-6.91-0.91,0.0,99.0,,,,,,,[],,,,,,50.0,1.0,i,1.0,True,704.3000000715256,43.0,58.0,40.0,False,,286.07569132333606,[],"[640, 400]",ColorTask,42.0,92.0,,,HRV,HRV_0070,2022-11-30 18:03:02
,wl-rdm,100,264504,0.0-6.92-0.92,0.0,100.0,,,,,,,[],,,,,,62.5,1.0,i,1.0,True,749.3999999761581,44.0,58.0,40.0,False,,365.82982319074665,[],"[640, 400]",ColorTask,43.0,93.0,,,HRV,HRV_0070,2022-11-30 18:03:02
,wl-rdm,101,266427,0.0-6.93-0.93,0.0,101.0,,,,,,,[],,,,,,53.2,0.0,i,1.0,False,557.8000000715256,34.0,58.0,40.0,False,,238.74676162400368,[],"[640, 400]",ColorTask,42.0,94.0,,,HRV,HRV_0070,2022-11-30 18:03:02
,wl-rdm,102,268355,0.0-6.94-0.94,0.0,102.0,,,,,,,[],,,,,,56.4,0.0,i,1.0,False,639.2999999523163,39.0,58.0,40.0,False,,200.34988436910083,[],"[640, 400]",ColorTask,41.0,95.0,,,HRV,HRV_0070,2022-11-30 18:03:02
,wl-rdm,103,270668,0.0-6.95-0.95,0.0,103.0,,,,,,,[],,,,,,62.5,0.0,i,1.0,False,877.2999999523163,52.0,58.0,40.0,False,,346.6661240406527,[],"[640, 400]",ColorTask,40.0,96.0,,,HRV,HRV_0070,2022-11-30 18:03:02
,wl-rdm,104,272907,0.0-6.96-0.96,0.0,104.0,,,,,,,[],,,,,,62.5,0.0,u,0.0,True,931.2000000476837,56.0,58.0,40.0,False,,256.1031904836584,[],"[640, 400]",ColorTask,41.0,97.0,,,HRV,HRV_0070,2022-11-30 18:03:02
,wl-rdm,105,275094,0.0-6.97-0.97,0.0,105.0,,,,,,,[],,,,,,50.0,1.0,i,1.0,True,780.3999999761581,44.0,58.0,40.0,False,,338.4530161738686,[],"[640, 400]",ColorTask,42.0,98.0,,,HRV,HRV_0070,2022-11-30 18:03:02
,wl-rdm,106,277124,0.0-6.98-0.98,0.0,106.0,,,,,,,[],,,,,,53.2,1.0,u,0.0,False,688.0,42.0,58.0,40.0,False,,271.0670367348497,[],"[640, 400]",ColorTask,41.0,99.0,,,HRV,HRV_0070,2022-11-30 18:03:02
,wl-rdm,107,279309,0.0-6.99-0.99,0.0,107.0,,,,,,,[],,,,,,73.6,0.0,i,1.0,False,789.5,48.0,58.0,40.0,False,,331.4055983169959,[],"[640, 400]",ColorTask,40.0,100.0,,,HRV,HRV_0070,2022-11-30 18:03:02
,wl-rdm,108,281177,0.0-6.100-0.100,0.0,108.0,,,,,,,[],,,,,,73.6,1.0,i,1.0,True,561.2999999523163,34.0,58.0,40.0,False,,227.1257949903701,[],"[640, 400]",ColorTask,41.0,101.0,,,HRV,HRV_0070,2022-11-30 18:03:02
,wl-rdm,109,283245,0.0-6.101-0.101,0.0,109.0,,,,,,,[],,,,,,73.6,1.0,i,1.0,True,677.6000000238419,41.0,58.0,40.0,False,,318.13193424857735,[],"[640, 400]",ColorTask,42.0,102.0,,,HRV,HRV_0070,2022-11-30 18:03:02
,wl-rdm,110,285395,0.0-6.102-0.102,0.0,110.0,,,,,,,[],,,,,,50.0,0.0,i,1.0,False,844.0,50.0,58.0,40.0,False,,227.82117829448748,[],"[640, 400]",ColorTask,41.0,103.0,,,HRV,HRV_0070,2022-11-30 18:03:02
,wl-rdm,111,287295,0.0-6.103-0.103,0.0,111.0,,,,,,,[],,,,,,56.4,0.0,i,1.0,False,462.299999833107,28.0,58.0,40.0,False,,370.3090166285707,[],"[640, 400]",ColorTask,40.0,104.0,,,HRV,HRV_0070,2022-11-30 18:03:02
,wl-rdm,112,289179,0.0-6.104-0.104,0.0,112.0,,,,,,,[],,,,,,53.2,0.0,i,1.0,False,507.10000002384186,31.0,58.0,40.0,False,,299.7770105507733,[],"[640, 400]",ColorTask,39.0,105.0,,,HRV,HRV_0070,2022-11-30 18:03:02
,wl-rdm,113,291347,0.0-6.105-0.105,0.0,113.0,,,,,,,[],,,,,,62.5,1.0,i,1.0,True,706.6000000238419,43.0,58.0,40.0,False,,373.27284963863724,[],"[640, 400]",ColorTask,40.0,106.0,,,HRV,HRV_0070,2022-11-30 18:03:02
,wl-rdm,114,293582,0.0-6.106-0.106,0.0,114.0,,,,,,,[],,,,,,73.6,0.0,i,1.0,False,909.7000000476837,54.0,58.0,40.0,False,,251.8409826515376,[],"[640, 400]",ColorTask,39.0,107.0,,,HRV,HRV_0070,2022-11-30 18:03:02
,wl-rdm,115,295718,0.0-6.107-0.107,0.0,115.0,,,,,,,[],,,,,,50.0,0.0,i,1.0,False,841.0,51.0,58.0,40.0,False,,208.28896869339056,[],"[640, 400]",ColorTask,38.0,108.0,,,HRV,HRV_0070,2022-11-30 18:03:02
,wl-rdm,116,297782,0.0-6.108-0.108,0.0,116.0,,,,,,,[],,,,,,87.9,1.0,i,1.0,True,627.2999999523163,38.0,58.0,40.0,False,,358.44692927661833,[],"[640, 400]",ColorTask,39.0,109.0,,,HRV,HRV_0070,2022-11-30 18:03:02
,wl-html-keyboard-response,117,417860,0.0-7.0-0.0,1.0,117.0,,,,,,,,118068.69999992847,1.0,0,,,,,,,,,,,,,,,,,,,,,,HRV,HRV_0070,2022-11-30 18:03:02
,wl-rdm,118,420182,0.0-8.0-0.0,1.0,118.0,,,,,,,[],,,,,,56.4,0.0,i,1.0,False,1012.3000000715256,61.0,58.0,40.0,False,,252.5723253446179,[],"[640, 400]",ColorTask,38.0,1.0,,,HRV,HRV_0070,2022-11-30 18:03:02
,wl-rdm,119,422800,0.0-8.1-0.1,1.0,119.0,,,,,,,[],,,,,,56.4,0.0,u,0.0,True,1213.2000000476837,73.0,58.0,40.0,False,,336.8196076916573,[],"[640, 400]",ColorTask,39.0,2.0,,,HRV,HRV_0070,2022-11-30 18:03:02
,wl-rdm,120,425418,0.0-8.2-0.2,1.0,120.0,,,,,,,[],,,,,,73.6,0.0,u,0.0,True,1341.3000000715256,80.0,58.0,40.0,False,,201.62238737835983,[],"[640, 400]",ColorTask,40.0,3.0,,,HRV,HRV_0070,2022-11-30 18:03:02
,wl-rdm,121,427870,0.0-8.3-0.3,1.0,121.0,,,,,,,[],,,,,,50.0,1.0,i,1.0,True,1010.6000000238419,61.0,58.0,40.0,False,,356.8125916867575,[],"[640, 400]",ColorTask,41.0,4.0,,,HRV,HRV_0070,2022-11-30 18:03:02
,wl-rdm,122,430020,0.0-8.4-0.4,1.0,122.0,,,,,,,[],,,,,,53.2,1.0,u,0.0,False,732.9000000953674,44.0,58.0,40.0,False,,347.8818154637531,[],"[640, 400]",ColorTask,40.0,5.0,,,HRV,HRV_0070,2022-11-30 18:03:02
,wl-rdm,123,432404,0.0-8.5-0.5,1.0,123.0,,,,,,,[],,,,,,50.0,1.0,u,0.0,False,973.5,58.0,58.0,40.0,False,,345.46522649367625,[],"[640, 400]",ColorTask,39.0,6.0,,,HRV,HRV_0070,2022-11-30 18:03:02
,wl-rdm,124,434839,0.0-8.6-0.6,1.0,124.0,,,,,,,[],,,,,,53.2,0.0,i,1.0,False,1158.2000000476837,70.0,58.0,40.0,False,,206.78657358537984,[],"[640, 400]",ColorTask,38.0,7.0,,,HRV,HRV_0070,2022-11-30 18:03:02
,wl-rdm,125,436790,0.0-8.7-0.7,1.0,125.0,,,,,,,[],,,,,,87.9,1.0,i,1.0,True,678.3999999761581,41.0,58.0,40.0,False,,203.9871258592816,[],"[640, 400]",ColorTask,39.0,8.0,,,HRV,HRV_0070,2022-11-30 18:03:02
,wl-rdm,126,439006,0.0-8.8-0.8,1.0,126.0,,,,,,,[],,,,,,50.0,1.0,u,0.0,False,788.0,45.0,58.0,40.0,False,,353.7996277903976,[],"[640, 400]",ColorTask,38.0,9.0,,,HRV,HRV_0070,2022-11-30 18:03:02
,wl-rdm,127,441058,0.0-8.9-0.9,1.0,127.0,,,,,,,[],,,,,,56.4,1.0,u,0.0,False,757.1000000238419,46.0,58.0,40.0,False,,218.96217541789147,[],"[640, 400]",ColorTask,37.0,10.0,,,HRV,HRV_0070,2022-11-30 18:03:02
,wl-rdm,128,443142,0.0-8.10-0.10,1.0,128.0,,,,,,,[],,,,,,62.5,0.0,u,0.0,True,706.8000000715256,43.0,58.0,40.0,False,,289.87936168079125,[],"[640, 400]",ColorTask,38.0,11.0,,,HRV,HRV_0070,2022-11-30 18:03:02
,wl-rdm,129,445226,0.0-8.11-0.11,1.0,129.0,,,,,,,[],,,,,,73.6,1.0,i,1.0,True,732.0,44.0,58.0,40.0,False,,270.54773614229435,[],"[640, 400]",ColorTask,39.0,12.0,,,HRV,HRV_0070,2022-11-30 18:03:02
,wl-rdm,130,447660,0.0-8.12-0.12,1.0,130.0,,,,,,,[],,,,,,73.6,1.0,i,1.0,True,994.2000000476837,60.0,58.0,40.0,False,,357.44323307710954,[],"[640, 400]",ColorTask,40.0,13.0,,,HRV,HRV_0070,2022-11-30 18:03:02
,wl-rdm,131,449694,0.0-8.13-0.13,1.0,131.0,,,,,,,[],,,,,,87.9,0.0,u,0.0,True,653.7000000476837,40.0,58.0,40.0,False,,288.35629172511216,[],"[640, 400]",ColorTask,41.0,14.0,,,HRV,HRV_0070,2022-11-30 18:03:02
,wl-rdm,132,452212,0.0-8.14-0.14,1.0,132.0,,,,,,,[],,,,,,53.2,1.0,i,1.0,True,1054.6000000238419,64.0,58.0,40.0,False,,367.73276523728214,[],"[640, 400]",ColorTask,42.0,15.0,,,HRV,HRV_0070,2022-11-30 18:03:02
,wl-rdm,133,454446,0.0-8.15-0.15,1.0,133.0,,,,,,,[],,,,,,50.0,0.0,i,1.0,False,852.2999999523163,52.0,58.0,40.0,False,,295.4428073793882,[],"[640, 400]",ColorTask,41.0,16.0,,,HRV,HRV_0070,2022-11-30 18:03:02
,wl-rdm,134,456731,0.0-8.16-0.16,1.0,134.0,,,,,,,[],,,,,,73.6,1.0,i,1.0,True,854.2000000476837,51.0,58.0,40.0,False,,359.4627199768577,[],"[640, 400]",ColorTask,42.0,17.0,,,HRV,HRV_0070,2022-11-30 18:03:02
,wl-rdm,135,458948,0.0-8.17-0.17,1.0,135.0,,,,,,,[],,,,,,73.6,0.0,i,1.0,False,903.6000000238419,55.0,58.0,40.0,False,,247.05020431658588,[],"[640, 400]",ColorTask,41.0,18.0,,,HRV,HRV_0070,2022-11-30 18:03:02
,wl-rdm,136,460883,0.0-8.18-0.18,1.0,136.0,,,,,,,[],,,,,,73.6,0.0,u,0.0,True,625.8000000715256,39.0,58.0,40.0,False,,210.77855269995126,[],"[640, 400]",ColorTask,42.0,19.0,,,HRV,HRV_0070,2022-11-30 18:03:02
,wl-rdm,137,463184,0.0-8.19-0.19,1.0,137.0,,,,,,,[],,,,,,53.2,0.0,i,1.0,False,969.0,59.0,58.0,40.0,False,,245.6728668968011,[],"[640, 400]",ColorTask,41.0,20.0,,,HRV,HRV_0070,2022-11-30 18:03:02
,wl-rdm,138,465401,0.0-8.20-0.20,1.0,138.0,,,,,,,[],,,,,,62.5,0.0,i,1.0,False,744.1000000238419,44.0,58.0,40.0,False,,384.9208376196646,[],"[640, 400]",ColorTask,40.0,21.0,,,HRV,HRV_0070,2022-11-30 18:03:02
,wl-rdm,139,467401,0.0-8.21-0.21,1.0,139.0,,,,,,,[],,,,,,73.6,1.0,i,1.0,True,684.8000000715256,42.0,58.0,40.0,False,,238.6115608955658,[],"[640, 400]",ColorTask,41.0,22.0,,,HRV,HRV_0070,2022-11-30 18:03:02
,wl-rdm,140,469468,0.0-8.22-0.22,1.0,140.0,,,,,,,[],,,,,,50.0,0.0,u,0.0,True,690.2999999523163,42.0,58.0,40.0,False,,315.73714366884263,[],"[640, 400]",ColorTask,42.0,23.0,,,HRV,HRV_0070,2022-11-30 18:03:02
,wl-rdm,141,471537,0.0-8.23-0.23,1.0,141.0,,,,,,,[],,,,,,73.6,1.0,i,1.0,True,750.3000000715256,47.0,58.0,40.0,False,,209.02626384638188,[],"[640, 400]",ColorTask,43.0,24.0,,,HRV,HRV_0070,2022-11-30 18:03:02
,wl-rdm,142,473755,0.0-8.24-0.24,1.0,142.0,,,,,,,[],,,,,,87.9,0.0,u,0.0,True,891.5000001192093,54.0,58.0,40.0,False,,246.95169195154523,[],"[640, 400]",ColorTask,44.0,25.0,,,HRV,HRV_0070,2022-11-30 18:03:02
,wl-rdm,143,476127,0.0-8.25-0.25,1.0,143.0,,,,,,,[],,,,,,53.2,1.0,i,1.0,True,1102.2999999523163,66.0,58.0,40.0,False,,200.38425108890286,[],"[640, 400]",ColorTask,45.0,26.0,,,HRV,HRV_0070,2022-11-30 18:03:02
,wl-rdm,144,477989,0.0-8.26-0.26,1.0,144.0,,,,,,,[],,,,,,87.9,0.0,u,0.0,True,580.3999999761581,35.0,58.0,40.0,False,,229.70853609062092,[],"[640, 400]",ColorTask,46.0,27.0,,,HRV,HRV_0070,2022-11-30 18:03:02
,wl-rdm,145,480157,0.0-8.27-0.27,1.0,145.0,,,,,,,[],,,,,,50.0,1.0,u,0.0,False,728.7999999523163,43.0,58.0,40.0,False,,356.5392403747052,[],"[640, 400]",ColorTask,45.0,28.0,,,HRV,HRV_0070,2022-11-30 18:03:02
,wl-rdm,146,482325,0.0-8.28-0.28,1.0,146.0,,,,,,,[],,,,,,50.0,1.0,i,1.0,True,756.0,46.0,58.0,40.0,False,,348.46166057755124,[],"[640, 400]",ColorTask,46.0,29.0,,,HRV,HRV_0070,2022-11-30 18:03:02
,wl-rdm,147,484324,0.0-8.29-0.29,1.0,147.0,,,,,,,[],,,,,,73.6,0.0,u,0.0,True,691.8000000715256,42.0,58.0,40.0,False,,240.69844471825212,[],"[640, 400]",ColorTask,47.0,30.0,,,HRV,HRV_0070,2022-11-30 18:03:02
,wl-rdm,148,486508,0.0-8.30-0.30,1.0,148.0,,,,,,,[],,,,,,62.5,1.0,i,1.0,True,803.8000000715256,49.0,58.0,40.0,False,,297.7473066093658,[],"[640, 400]",ColorTask,48.0,31.0,,,HRV,HRV_0070,2022-11-30 18:03:02
,wl-rdm,149,488626,0.0-8.31-0.31,1.0,149.0,,,,,,,[],,,,,,50.0,0.0,i,1.0,False,721.7999999523163,44.0,58.0,40.0,False,,316.76045827614143,[],"[640, 400]",ColorTask,47.0,32.0,,,HRV,HRV_0070,2022-11-30 18:03:02
,wl-rdm,150,490928,0.0-8.32-0.32,1.0,150.0,,,,,,,[],,,,,,73.6,0.0,u,0.0,True,897.7999999523163,54.0,58.0,40.0,False,,323.43126007985745,[],"[640, 400]",ColorTask,48.0,33.0,,,HRV,HRV_0070,2022-11-30 18:03:02
,wl-rdm,151,492996,0.0-8.33-0.33,1.0,151.0,,,,,,,[],,,,,,62.5,0.0,i,1.0,False,709.5,43.0,58.0,40.0,False,,286.7483550988295,[],"[640, 400]",ColorTask,47.0,34.0,,,HRV,HRV_0070,2022-11-30 18:03:02
,wl-rdm,152,495146,0.0-8.34-0.34,1.0,152.0,,,,,,,[],,,,,,50.0,0.0,u,0.0,True,723.7000000476837,44.0,58.0,40.0,False,,335.28091318572854,[],"[640, 400]",ColorTask,48.0,35.0,,,HRV,HRV_0070,2022-11-30 18:03:02
,wl-rdm,153,497314,0.0-8.35-0.35,1.0,153.0,,,,,,,[],,,,,,56.4,0.0,i,1.0,False,720.6000000238419,44.0,58.0,40.0,False,,375.3298552462544,[],"[640, 400]",ColorTask,47.0,36.0,,,HRV,HRV_0070,2022-11-30 18:03:02
,wl-rdm,154,499249,0.0-8.36-0.36,1.0,154.0,,,,,,,[],,,,,,73.6,0.0,u,0.0,True,542.1000000238419,34.0,58.0,40.0,False,,282.95541679019493,[],"[640, 400]",ColorTask,48.0,37.0,,,HRV,HRV_0070,2022-11-30 18:03:02
,wl-rdm,155,501199,0.0-8.37-0.37,1.0,155.0,,,,,,,[],,,,,,73.6,1.0,i,1.0,True,601.6999999284744,36.0,58.0,40.0,False,,284.3790711964937,[],"[640, 400]",ColorTask,49.0,38.0,,,HRV,HRV_0070,2022-11-30 18:03:02
,wl-rdm,156,503366,0.0-8.38-0.38,1.0,156.0,,,,,,,[],,,,,,53.2,0.0,u,0.0,True,772.8000000715256,47.0,58.0,40.0,False,,304.88046775882515,[],"[640, 400]",ColorTask,50.0,39.0,,,HRV,HRV_0070,2022-11-30 18:03:02
,wl-rdm,157,505417,0.0-8.39-0.39,1.0,157.0,,,,,,,[],,,,,,62.5,1.0,i,1.0,True,761.7000000476837,46.0,58.0,40.0,False,,228.0018515166524,[],"[640, 400]",ColorTask,51.0,40.0,,,HRV,HRV_0070,2022-11-30 18:03:02
,wl-rdm,158,507601,0.0-8.40-0.40,1.0,158.0,,,,,,,[],,,,,,73.6,1.0,i,1.0,True,874.0,53.0,58.0,40.0,False,,228.95851311631912,[],"[640, 400]",ColorTask,52.0,41.0,,,HRV,HRV_0070,2022-11-30 18:03:02
,wl-rdm,159,509619,0.0-8.41-0.41,1.0,159.0,,,,,,,[],,,,,,56.4,0.0,i,1.0,False,735.8000000715256,45.0,58.0,40.0,False,,200.07110120612526,[],"[640, 400]",ColorTask,51.0,42.0,,,HRV,HRV_0070,2022-11-30 18:03:02
,wl-rdm,160,511569,0.0-8.42-0.42,1.0,160.0,,,,,,,[],,,,,,73.6,0.0,u,0.0,True,547.0,33.0,58.0,40.0,False,,327.8265388374696,[],"[640, 400]",ColorTask,52.0,43.0,,,HRV,HRV_0070,2022-11-30 18:03:02
,wl-rdm,161,513588,0.0-8.43-0.43,1.0,161.0,,,,,,,[],,,,,,56.4,1.0,i,1.0,True,726.8999999761581,43.0,58.0,40.0,False,,206.36988826174343,[],"[640, 400]",ColorTask,53.0,44.0,,,HRV,HRV_0070,2022-11-30 18:03:02
,wl-rdm,162,515638,0.0-8.44-0.44,1.0,162.0,,,,,,,[],,,,,,50.0,1.0,i,1.0,True,675.3999998569489,41.0,58.0,40.0,False,,310.40801622579414,[],"[640, 400]",ColorTask,54.0,45.0,,,HRV,HRV_0070,2022-11-30 18:03:02
,wl-rdm,163,517689,0.0-8.45-0.45,1.0,163.0,,,,,,,[],,,,,,53.2,1.0,u,0.0,False,672.0000001192093,40.0,58.0,40.0,False,,291.6394103657243,[],"[640, 400]",ColorTask,53.0,46.0,,,HRV,HRV_0070,2022-11-30 18:03:02
,wl-rdm,164,519690,0.0-8.46-0.46,1.0,164.0,,,,,,,[],,,,,,87.9,0.0,u,0.0,True,723.5999999046326,43.0,58.0,40.0,False,,213.07689249420423,[],"[640, 400]",ColorTask,54.0,47.0,,,HRV,HRV_0070,2022-11-30 18:03:02
,wl-rdm,165,521691,0.0-8.47-0.47,1.0,165.0,,,,,,,[],,,,,,62.5,1.0,i,1.0,True,716.8999999761581,43.0,58.0,40.0,False,,213.8768540133033,[],"[640, 400]",ColorTask,55.0,48.0,,,HRV,HRV_0070,2022-11-30 18:03:02
,wl-rdm,166,523657,0.0-8.48-0.48,1.0,166.0,,,,,,,[],,,,,,87.9,0.0,u,0.0,True,581.8999999761581,35.0,58.0,40.0,False,,328.36688786397946,[],"[640, 400]",ColorTask,56.0,49.0,,,HRV,HRV_0070,2022-11-30 18:03:02
,wl-rdm,167,525592,0.0-8.49-0.49,1.0,167.0,,,,,,,[],,,,,,87.9,0.0,u,0.0,True,639.3000000715256,39.0,58.0,40.0,False,,220.97360302509497,[],"[640, 400]",ColorTask,57.0,50.0,,,HRV,HRV_0070,2022-11-30 18:03:02
,wl-rdm,168,527742,0.0-8.50-0.50,1.0,168.0,,,,,,,[],,,,,,87.9,1.0,i,1.0,True,796.3999999761581,48.0,58.0,40.0,False,,276.06985143147176,[],"[640, 400]",ColorTask,58.0,51.0,,,HRV,HRV_0070,2022-11-30 18:03:02
,wl-rdm,169,529893,0.0-8.51-0.51,1.0,169.0,,,,,,,[],,,,,,53.2,1.0,u,0.0,False,742.5,45.0,58.0,40.0,False,,317.82457327143686,[],"[640, 400]",ColorTask,57.0,52.0,,,HRV,HRV_0070,2022-11-30 18:03:02
,wl-rdm,170,531961,0.0-8.52-0.52,1.0,170.0,,,,,,,[],,,,,,56.4,0.0,i,1.0,False,696.1999999284744,42.0,58.0,40.0,False,,272.6611239348039,[],"[640, 400]",ColorTask,56.0,53.0,,,HRV,HRV_0070,2022-11-30 18:03:02
,wl-rdm,171,534196,0.0-8.53-0.53,1.0,171.0,,,,,,,[],,,,,,87.9,1.0,i,1.0,True,789.3000000715256,48.0,58.0,40.0,False,,359.42288335733355,[],"[640, 400]",ColorTask,57.0,54.0,,,HRV,HRV_0070,2022-11-30 18:03:02
,wl-rdm,172,536346,0.0-8.54-0.54,1.0,172.0,,,,,,,[],,,,,,56.4,1.0,i,1.0,True,677.5,41.0,58.0,40.0,False,,396.0429761597315,[],"[640, 400]",ColorTask,58.0,55.0,,,HRV,HRV_0070,2022-11-30 18:03:02
,wl-rdm,173,538497,0.0-8.55-0.55,1.0,173.0,,,,,,,[],,,,,,53.2,0.0,i,1.0,False,816.5,49.0,58.0,40.0,False,,266.57663156012677,[],"[640, 400]",ColorTask,57.0,56.0,,,HRV,HRV_0070,2022-11-30 18:03:02
,wl-rdm,174,541098,0.0-8.56-0.56,1.0,174.0,,,,,,,[],,,,,,56.4,1.0,u,0.0,False,1269.4999998807907,75.0,58.0,40.0,False,,243.65293221154474,[],"[640, 400]",ColorTask,56.0,57.0,,,HRV,HRV_0070,2022-11-30 18:03:02
,wl-rdm,175,543349,0.0-8.57-0.57,1.0,175.0,,,,,,,[],,,,,,56.4,0.0,i,1.0,False,883.1000000238419,52.0,58.0,40.0,False,,299.12418228325146,[],"[640, 400]",ColorTask,55.0,58.0,,,HRV,HRV_0070,2022-11-30 18:03:02
,wl-rdm,176,545416,0.0-8.58-0.58,1.0,176.0,,,,,,,[],,,,,,53.2,0.0,i,1.0,False,727.0999999046326,44.0,58.0,40.0,False,,280.1776762847797,[],"[640, 400]",ColorTask,54.0,59.0,,,HRV,HRV_0070,2022-11-30 18:03:02
,wl-rdm,177,547517,0.0-8.59-0.59,1.0,177.0,,,,,,,[],,,,,,62.5,1.0,i,1.0,True,719.7999999523163,44.0,58.0,40.0,False,,287.01850550491713,[],"[640, 400]",ColorTask,55.0,60.0,,,HRV,HRV_0070,2022-11-30 18:03:02
,wl-rdm,178,549484,0.0-8.60-0.60,1.0,178.0,,,,,,,[],,,,,,50.0,1.0,u,0.0,False,645.5,39.0,58.0,40.0,False,,254.97435180744702,[],"[640, 400]",ColorTask,54.0,61.0,,,HRV,HRV_0070,2022-11-30 18:03:02
,wl-rdm,179,551551,0.0-8.61-0.61,1.0,179.0,,,,,,,[],,,,,,62.5,1.0,i,1.0,True,671.2000000476837,41.0,58.0,40.0,False,,305.8977292727117,[],"[640, 400]",ColorTask,55.0,62.0,,,HRV,HRV_0070,2022-11-30 18:03:02
,wl-rdm,180,553770,0.0-8.62-0.62,1.0,180.0,,,,,,,[],,,,,,73.6,1.0,i,1.0,True,852.8000000715256,52.0,58.0,40.0,False,,270.97767688915604,[],"[640, 400]",ColorTask,56.0,63.0,,,HRV,HRV_0070,2022-11-30 18:03:02
,wl-rdm,181,555821,0.0-8.63-0.63,1.0,181.0,,,,,,,[],,,,,,53.2,1.0,i,1.0,True,728.0,44.0,58.0,40.0,False,,266.166737830539,[],"[640, 400]",ColorTask,57.0,64.0,,,HRV,HRV_0070,2022-11-30 18:03:02
,wl-rdm,182,557771,0.0-8.64-0.64,1.0,182.0,,,,,,,[],,,,,,53.2,1.0,i,1.0,True,603.7000000476837,34.0,58.0,40.0,False,,271.2490397402999,[],"[640, 400]",ColorTask,58.0,65.0,,,HRV,HRV_0070,2022-11-30 18:03:02
,wl-rdm,183,559656,0.0-8.65-0.65,1.0,183.0,,,,,,,[],,,,,,56.4,1.0,i,1.0,True,594.4000000953674,36.0,58.0,40.0,False,,216.06356532928777,[],"[640, 400]",ColorTask,59.0,66.0,,,HRV,HRV_0070,2022-11-30 18:03:02
,wl-rdm,184,561489,0.0-8.66-0.66,1.0,184.0,,,,,,,[],,,,,,87.9,1.0,i,1.0,True,517.7999999523163,32.0,58.0,40.0,False,,221.0015578014929,[],"[640, 400]",ColorTask,60.0,67.0,,,HRV,HRV_0070,2022-11-30 18:03:02
,wl-rdm,185,563408,0.0-8.67-0.67,1.0,185.0,,,,,,,[],,,,,,53.2,0.0,i,1.0,False,585.2999999523163,36.0,58.0,40.0,False,,258.4273641064341,[],"[640, 400]",ColorTask,59.0,68.0,,,HRV,HRV_0070,2022-11-30 18:03:02
,wl-rdm,186,565374,0.0-8.68-0.68,1.0,186.0,,,,,,,[],,,,,,87.9,1.0,i,1.0,True,663.6000000238419,40.0,58.0,40.0,False,,221.4081031100184,[],"[640, 400]",ColorTask,60.0,69.0,,,HRV,HRV_0070,2022-11-30 18:03:02
,wl-rdm,187,567392,0.0-8.69-0.69,1.0,187.0,,,,,,,[],,,,,,62.5,1.0,i,1.0,True,637.1000000238419,39.0,58.0,40.0,False,,302.6885376112664,[],"[640, 400]",ColorTask,61.0,70.0,,,HRV,HRV_0070,2022-11-30 18:03:02
,wl-rdm,188,569260,0.0-8.70-0.70,1.0,188.0,,,,,,,[],,,,,,73.6,1.0,i,1.0,True,523.9000000953674,32.0,58.0,40.0,False,,279.6384747306988,[],"[640, 400]",ColorTask,62.0,71.0,,,HRV,HRV_0070,2022-11-30 18:03:02
,wl-rdm,189,571177,0.0-8.71-0.71,1.0,189.0,,,,,,,[],,,,,,56.4,1.0,i,1.0,True,513.0,30.0,58.0,40.0,False,,330.3057439817982,[],"[640, 400]",ColorTask,63.0,72.0,,,HRV,HRV_0070,2022-11-30 18:03:02
,wl-rdm,190,573227,0.0-8.72-0.72,1.0,190.0,,,,,,,[],,,,,,56.4,1.0,i,1.0,True,745.6000000238419,45.0,58.0,40.0,False,,243.85737117696388,[],"[640, 400]",ColorTask,64.0,73.0,,,HRV,HRV_0070,2022-11-30 18:03:02
,wl-rdm,191,575229,0.0-8.73-0.73,1.0,191.0,,,,,,,[],,,,,,62.5,0.0,i,1.0,False,649.3000000715256,38.0,58.0,40.0,False,,284.68223576434804,[],"[640, 400]",ColorTask,63.0,74.0,,,HRV,HRV_0070,2022-11-30 18:03:02
,wl-rdm,192,577279,0.0-8.74-0.74,1.0,192.0,,,,,,,[],,,,,,62.5,1.0,i,1.0,True,627.2999999523163,38.0,58.0,40.0,False,,343.84252889252593,[],"[640, 400]",ColorTask,64.0,75.0,,,HRV,HRV_0070,2022-11-30 18:03:02
,wl-rdm,193,579180,0.0-8.75-0.75,1.0,193.0,,,,,,,[],,,,,,87.9,1.0,i,1.0,True,594.6000000238419,36.0,58.0,40.0,False,,236.88309146788237,[],"[640, 400]",ColorTask,65.0,76.0,,,HRV,HRV_0070,2022-11-30 18:03:02
,wl-rdm,194,581397,0.0-8.76-0.76,1.0,194.0,,,,,,,[],,,,,,50.0,0.0,i,1.0,False,794.1999999284744,47.0,58.0,40.0,False,,328.33195193743336,[],"[640, 400]",ColorTask,64.0,77.0,,,HRV,HRV_0070,2022-11-30 18:03:02
,wl-rdm,195,583265,0.0-8.77-0.77,1.0,195.0,,,,,,,[],,,,,,50.0,0.0,i,1.0,False,529.2000000476837,31.0,58.0,40.0,False,,253.4926395907544,[],"[640, 400]",ColorTask,63.0,78.0,,,HRV,HRV_0070,2022-11-30 18:03:02
,wl-rdm,196,585181,0.0-8.78-0.78,1.0,196.0,,,,,,,[],,,,,,87.9,0.0,u,0.0,True,620.8000000715256,38.0,58.0,40.0,False,,232.15143270369373,[],"[640, 400]",ColorTask,64.0,79.0,,,HRV,HRV_0070,2022-11-30 18:03:02
,wl-rdm,197,587283,0.0-8.79-0.79,1.0,197.0,,,,,,,[],,,,,,62.5,1.0,i,1.0,True,732.8999999761581,44.0,58.0,40.0,False,,294.8486948368803,[],"[640, 400]",ColorTask,65.0,80.0,,,HRV,HRV_0070,2022-11-30 18:03:02
,wl-rdm,198,589217,0.0-8.80-0.80,1.0,198.0,,,,,,,[],,,,,,87.9,0.0,u,0.0,True,593.3000000715256,36.0,58.0,40.0,False,,256.2508092109739,[],"[640, 400]",ColorTask,66.0,81.0,,,HRV,HRV_0070,2022-11-30 18:03:02
,wl-rdm,199,591017,0.0-8.81-0.81,1.0,199.0,,,,,,,[],,,,,,87.9,0.0,u,0.0,True,494.6999999284744,28.0,58.0,40.0,False,,242.70287369288218,[],"[640, 400]",ColorTask,67.0,82.0,,,HRV,HRV_0070,2022-11-30 18:03:02
,wl-rdm,200,593136,0.0-8.82-0.82,1.0,200.0,,,,,,,[],,,,,,56.4,1.0,i,1.0,True,721.6000000238419,44.0,58.0,40.0,False,,331.7177417387682,[],"[640, 400]",ColorTask,68.0,83.0,,,HRV,HRV_0070,2022-11-30 18:03:02
,wl-rdm,201,595087,0.0-8.83-0.83,1.0,201.0,,,,,,,[],,,,,,50.0,1.0,i,1.0,True,667.5,41.0,58.0,40.0,False,,203.80700960446435,[],"[640, 400]",ColorTask,69.0,84.0,,,HRV,HRV_0070,2022-11-30 18:03:02
,wl-rdm,202,597087,0.0-8.84-0.84,1.0,202.0,,,,,,,[],,,,,,53.2,0.0,i,1.0,False,544.0,33.0,58.0,40.0,False,,375.36187355766265,[],"[640, 400]",ColorTask,68.0,85.0,,,HRV,HRV_0070,2022-11-30 18:03:02
,wl-rdm,203,599137,0.0-8.85-0.85,1.0,203.0,,,,,,,[],,,,,,50.0,0.0,u,0.0,True,658.6999999284744,40.0,58.0,40.0,False,,276.6254615483911,[],"[640, 400]",ColorTask,69.0,86.0,,,HRV,HRV_0070,2022-11-30 18:03:02
,wl-rdm,204,601272,0.0-8.86-0.86,1.0,204.0,,,,,,,[],,,,,,56.4,1.0,i,1.0,True,771.3999999761581,47.0,58.0,40.0,False,,278.7736926990544,[],"[640, 400]",ColorTask,70.0,87.0,,,HRV,HRV_0070,2022-11-30 18:03:02
,wl-rdm,205,603240,0.0-8.87-0.87,1.0,205.0,,,,,,,[],,,,,,53.2,0.0,i,1.0,False,644.2000000476837,39.0,58.0,40.0,False,,247.89297445917123,[],"[640, 400]",ColorTask,69.0,88.0,,,HRV,HRV_0070,2022-11-30 18:03:02
,wl-rdm,206,605256,0.0-8.88-0.88,1.0,206.0,,,,,,,[],,,,,,53.2,1.0,i,1.0,True,590.2000000476837,36.0,58.0,40.0,False,,346.72250857268614,[],"[640, 400]",ColorTask,70.0,89.0,,,HRV,HRV_0070,2022-11-30 18:03:02
,wl-rdm,207,607392,0.0-8.89-0.89,1.0,207.0,,,,,,,[],,,,,,73.6,0.0,u,0.0,True,710.1000000238419,42.0,58.0,40.0,False,,353.57208681338875,[],"[640, 400]",ColorTask,71.0,90.0,,,HRV,HRV_0070,2022-11-30 18:03:02
,wl-rdm,208,609808,0.0-8.90-0.90,1.0,208.0,,,,,,,[],,,,,,62.5,0.0,i,1.0,False,1087.1000000238419,66.0,58.0,40.0,False,,262.19930078365223,[],"[640, 400]",ColorTask,70.0,91.0,,,HRV,HRV_0070,2022-11-30 18:03:02
,wl-rdm,209,611940,0.0-8.91-0.91,1.0,209.0,,,,,,,[],,,,,,87.9,1.0,i,1.0,True,741.1999999284744,44.0,58.0,40.0,False,,306.64326711438434,[],"[640, 400]",ColorTask,71.0,92.0,,,HRV,HRV_0070,2022-11-30 18:03:02
,wl-rdm,210,613986,0.0-8.92-0.92,1.0,210.0,,,,,,,[],,,,,,73.6,0.0,u,0.0,True,765.8999999761581,46.0,58.0,40.0,False,,230.07881629621218,[],"[640, 400]",ColorTask,72.0,93.0,,,HRV,HRV_0070,2022-11-30 18:03:02
,wl-rdm,211,615900,0.0-8.93-0.93,1.0,211.0,,,,,,,[],,,,,,62.5,0.0,u,0.0,True,593.5000001192093,36.0,58.0,40.0,False,,241.808350091968,[],"[640, 400]",ColorTask,73.0,94.0,,,HRV,HRV_0070,2022-11-30 18:03:02
,wl-rdm,212,617916,0.0-8.94-0.94,1.0,212.0,,,,,,,[],,,,,,56.4,0.0,u,0.0,True,633.3999999761581,38.0,58.0,40.0,False,,315.5491006027647,[],"[640, 400]",ColorTask,74.0,95.0,,,HRV,HRV_0070,2022-11-30 18:03:02
,wl-rdm,213,619815,0.0-8.95-0.95,1.0,213.0,,,,,,,[],,,,,,62.5,0.0,u,0.0,True,608.6999999284744,37.0,58.0,40.0,False,,222.64547990225904,[],"[640, 400]",ColorTask,75.0,96.0,,,HRV,HRV_0070,2022-11-30 18:03:02
,wl-rdm,214,621730,0.0-8.96-0.96,1.0,214.0,,,,,,,[],,,,,,56.4,0.0,u,0.0,True,594.5,36.0,58.0,40.0,False,,237.5381075852307,[],"[640, 400]",ColorTask,76.0,97.0,,,HRV,HRV_0070,2022-11-30 18:03:02
,wl-rdm,215,623829,0.0-8.97-0.97,1.0,215.0,,,,,,,[],,,,,,62.5,1.0,i,1.0,True,636.0,39.0,58.0,40.0,False,,370.4704687446072,[],"[640, 400]",ColorTask,77.0,98.0,,,HRV,HRV_0070,2022-11-30 18:03:02
,wl-rdm,216,625712,0.0-8.98-0.98,1.0,216.0,,,,,,,[],,,,,,56.4,0.0,i,1.0,False,593.7000000476837,36.0,58.0,40.0,False,,222.67953479971186,[],"[640, 400]",ColorTask,76.0,99.0,,,HRV,HRV_0070,2022-11-30 18:03:02
,wl-rdm,217,627661,0.0-8.99-0.99,1.0,217.0,,,,,,,[],,,,,,50.0,1.0,i,1.0,True,585.5,36.0,58.0,40.0,False,,276.5553423051544,[],"[640, 400]",ColorTask,77.0,100.0,,,HRV,HRV_0070,2022-11-30 18:03:02
,wl-rdm,218,629678,0.0-8.100-0.100,1.0,218.0,,,,,,,[],,,,,,62.5,0.0,u,0.0,True,712.2000000476837,43.0,58.0,40.0,False,,236.4676596380271,[],"[640, 400]",ColorTask,78.0,101.0,,,HRV,HRV_0070,2022-11-30 18:03:02
,wl-rdm,219,631794,0.0-8.101-0.101,1.0,219.0,,,,,,,[],,,,,,50.0,0.0,i,1.0,False,707.6000000238419,43.0,58.0,40.0,False,,325.9462526875175,[],"[640, 400]",ColorTask,77.0,102.0,,,HRV,HRV_0070,2022-11-30 18:03:02
,wl-rdm,220,633661,0.0-8.102-0.102,1.0,220.0,,,,,,,[],,,,,,53.2,0.0,i,1.0,False,553.7000000476837,33.0,58.0,40.0,False,,232.64081945758568,[],"[640, 400]",ColorTask,76.0,103.0,,,HRV,HRV_0070,2022-11-30 18:03:02
,wl-rdm,221,635994,0.0-8.103-0.103,1.0,221.0,,,,,,,[],,,,,,62.5,0.0,u,0.0,True,935.1999999284744,55.0,58.0,40.0,False,,319.9280169479248,[],"[640, 400]",ColorTask,77.0,104.0,,,HRV,HRV_0070,2022-11-30 18:03:02
,wl-rdm,222,637977,0.0-8.104-0.104,1.0,222.0,,,,,,,[],,,,,,87.9,1.0,i,1.0,True,612.6000000238419,37.0,58.0,40.0,False,,315.6297271135538,[],"[640, 400]",ColorTask,78.0,105.0,,,HRV,HRV_0070,2022-11-30 18:03:02
,wl-rdm,223,640261,0.0-8.105-0.105,1.0,223.0,,,,,,,[],,,,,,50.0,0.0,i,1.0,False,958.6000000238419,58.0,58.0,40.0,False,,262.8774153861903,[],"[640, 400]",ColorTask,77.0,106.0,,,HRV,HRV_0070,2022-11-30 18:03:02
,wl-rdm,224,642361,0.0-8.106-0.106,1.0,224.0,,,,,,,[],,,,,,53.2,1.0,i,1.0,True,701.5,42.0,58.0,40.0,False,,324.5945783526188,[],"[640, 400]",ColorTask,78.0,107.0,,,HRV,HRV_0070,2022-11-30 18:03:02
,wl-rdm,225,644161,0.0-8.107-0.107,1.0,225.0,,,,,,,[],,,,,,87.9,1.0,i,1.0,True,491.19999980926514,30.0,58.0,40.0,False,,247.872810236075,[],"[640, 400]",ColorTask,79.0,108.0,,,HRV,HRV_0070,2022-11-30 18:03:02
,wl-html-button-response,226,646719,0.0-9.0-0.0,,,,,,,,,,2554.600000023842,,0,,,,,,,,,,,,,,,,,,,,<h3>End of this session. Thank you!</h3><br>,['Close window'],HRV,HRV_0070,2022-11-30 18:03:02
