success,trial_type,trial_index,time_elapsed,internal_node_id,missTrial,missTrialMsg,Block,TrialNumber,TrialTime,trialTimeDiff,FPS_avg,FPS_med,FPS_mode,TrialDur,winResizeTime,rt,block,button_pressed,MotCoh,MotDir,ColCoh,Color,ChoiceKey,Choice,Accuracy,RT,nFrames,FPS,PPD,onsetDelay,fullScreenExitTime,canvCenter,TrialType,Score,BlockTrial,stimulus,button_labels,exp,subjectId,date
True,fullscreen,0,1479850,0.0-0.0,True,undefinedblurEvent ,0.0,0.0,,,,,,,,,,,,,,,,,,,,,,,,,,,,,,HRV,HRV_0240,2022-11-30 19:55:37
,wl-check-fps,1,1484857,0.0-1.0,,,0.0,1.0,"[1484370.5, 1484376.3, 1484388.5, 1484403.7, 1484420.6, 1484437.1, 1484454, 1484470.9, 1484488.4, 1484504.6, 1484524.5, 1484539, 1484554.4, 1484570.6, 1484587.2, 1484603.9, 1484620.5, 1484637.4, 1484654.6, 1484671.3, 1484687.9, 1484707.4, 1484721.2, 1484738, 1484754.2, 1484773.5, 1484787.3, 1484805.6, 1484820.6, 1484837.4, 1484855.6, 1484873.8, 1484890.3, 1484907, 1484923.3, 1484940.5, 1484957.3, 1484973.3, 1484990.6, 1485005.5, 1485022, 1485039.1, 1485055.5, 1485072.5, 1485089.3, 1485104.4, 1485122.6, 1485138.4, 1485155.6, 1485172.8, 1485189, 1485204.9, 1485222, 1485238.1, 1485254.5, 1485271.4, 1485288.9, 1485304.4, 1485321.2, 1485337.9, 1485354.7, 1485371.9, 1485388.2, 1485405, 1485421.6, 1485438.2, 1485455.1, 1485471.8, 1485488.7, 1485505.3, 1485524, 1485538.8, 1485555.6, 1485572.1, 1485588.7, 1485605.8, 1485624.6, 1485647.5, 1485658.7, 1485674.5, 1485690.7, 1485706.3, 1485723.1, 1485739.8, 1485757.6, 1485773.5, 1485789.2, 1485807, 1485822.7, 1485840.5, 1485857.2, 1485872.9, 1485890.1, 1485907.2, 1485924.4, 1485940.9, 1485956.7, 1485972.5, 1485990, 1486007.1, 1486023.2, 1486042.9, 1486059.3, 1486078.2, 1486093.7, 1486111.8, 1486124.7, 1486142.2, 1486155.9, 1486172.4, 1486189, 1486205.8, 1486222.5, 1486239.1, 1486257.3, 1486274.4, 1486291.1, 1486306, 1486322.8, 1486339.2, 1486356.4, 1486373.2, 1486389.4, 1486406.4, 1486423, 1486439.8, 1486456.5, 1486483, 1486494.8, 1486506.8, 1486524.1, 1486540.5, 1486560.2, 1486577.1, 1486589.7, 1486606.4, 1486623.4, 1486639.8, 1486656.7, 1486675.6, 1486697.3, 1486720, 1486725.1, 1486741.1, 1486757.2, 1486772.6, 1486789.3, 1486806.9, 1486824.1, 1486840.8, 1486858.1, 1486873.9, 1486889.6, 1486907.4, 1486925.4, 1486940.5, 1486956.5, 1486973.9, 1486989.8, 1487006.6, 1487023.4, 1487040.4, 1487056.9, 1487073.9, 1487090.5, 1487107.3, 1487123.5, 1487140.4, 1487159.9, 1487174, 1487190.9, 1487207.1, 1487223.8, 1487240.4, 1487257.2, 1487273.9, 1487290.9, 1487307.8, 1487324, 1487340.7, 1487357.6, 1487374.3, 1487390.8, 1487407.5, 1487424.1, 1487440.8, 1487457.5, 1487474.2, 1487490.8, 1487507.6, 1487524.3, 1487540.6, 1487557.4, 1487574.2, 1487590.8, 1487607.5, 1487624.3, 1487641, 1487657.6, 1487674.5, 1487691.4, 1487711.1, 1487728.4, 1487740.7, 1487757.3, 1487774.1, 1487790.7, 1487807.8, 1487824.5, 1487841.3, 1487857.6, 1487874.6, 1487893.7, 1487907.7, 1487925, 1487941.9, 1487957.7, 1487974.7, 1487991.3, 1488008, 1488024.7, 1488041.4, 1488058, 1488074.8, 1488091.7, 1488107.9, 1488124.8, 1488141.5, 1488158.2, 1488175, 1488191.3, 1488208, 1488224.7, 1488241.5, 1488257.7, 1488274.3, 1488291.1, 1488307.7, 1488324.3, 1488341.7, 1488358.5, 1488375.1, 1488391.8, 1488408.4, 1488425, 1488441.6, 1488458.4, 1488475.1, 1488492.1, 1488508.5, 1488525.1, 1488541.6, 1488558.4, 1488575.3, 1488591.9, 1488608.6, 1488625.2, 1488641.9, 1488658.5, 1488675.4, 1488692.1, 1488708.8, 1488725.3, 1488742, 1488758.5, 1488775, 1488791.5, 1488808.3, 1488824.9, 1488841.7, 1488858.9, 1488875.2, 1488892.4, 1488908.7, 1488925.4, 1488942, 1488959.6, 1488975.5, 1488992.3, 1489009, 1489025.6, 1489042.3, 1489058.9, 1489075.7, 1489092.7, 1489108.9, 1489125.6, 1489142.3, 1489159.5, 1489177.3, 1489192.8, 1489209, 1489225.8, 1489242.5, 1489259.2, 1489275.9, 1489293.3, 1489309.4, 1489326.1, 1489342.7]","[5.2, 5.8, 12.2, 15.2, 16.9, 16.5, 16.9, 16.9, 17.5, 16.2, 19.9, 14.5, 15.4, 16.2, 16.6, 16.7, 16.6, 16.9, 17.2, 16.7, 16.6, 19.5, 13.8, 16.8, 16.2, 19.3, 13.8, 18.3, 15, 16.8, 18.2, 18.2, 16.5, 16.7, 16.3, 17.2, 16.8, 16, 17.3, 14.9, 16.5, 17.1, 16.4, 17, 16.8, 15.1, 18.2, 15.8, 17.2, 17.2, 16.2, 15.9, 17.1, 16.1, 16.4, 16.9, 17.5, 15.5, 16.8, 16.7, 16.8, 17.2, 16.3, 16.8, 16.6, 16.6, 16.9, 16.7, 16.9, 16.6, 18.7, 14.8, 16.8, 16.5, 16.6, 17.1, 18.8, 22.9, 11.2, 15.8, 16.2, 15.6, 16.8, 16.7, 17.8, 15.9, 15.7, 17.8, 15.7, 17.8, 16.7, 15.7, 17.2, 17.1, 17.2, 16.5, 15.8, 15.8, 17.5, 17.1, 16.1, 19.7, 16.4, 18.9, 15.5, 18.1, 12.9, 17.5, 13.7, 16.5, 16.6, 16.8, 16.7, 16.6, 18.2, 17.1, 16.7, 14.9, 16.8, 16.4, 17.2, 16.8, 16.2, 17, 16.6, 16.8, 16.7, 26.5, 11.8, 12, 17.3, 16.4, 19.7, 16.9, 12.6, 16.7, 17, 16.4, 16.9, 18.9, 21.7, 22.7, 5.1, 16, 16.1, 15.4, 16.7, 17.6, 17.2, 16.7, 17.3, 15.8, 15.7, 17.8, 18, 15.1, 16, 17.4, 15.9, 16.8, 16.8, 17, 16.5, 17, 16.6, 16.8, 16.2, 16.9, 19.5, 14.1, 16.9, 16.2, 16.7, 16.6, 16.8, 16.7, 17, 16.9, 16.2, 16.7, 16.9, 16.7, 16.5, 16.7, 16.6, 16.7, 16.7, 16.7, 16.6, 16.8, 16.7, 16.3, 16.8, 16.8, 16.6, 16.7, 16.8, 16.7, 16.6, 16.9, 16.9, 19.7, 17.3, 12.3, 16.6, 16.8, 16.6, 17.1, 16.7, 16.8, 16.3, 17, 19.1, 14, 17.3, 16.9, 15.8, 17, 16.6, 16.7, 16.7, 16.7, 16.6, 16.8, 16.9, 16.2, 16.9, 16.7, 16.7, 16.8, 16.3, 16.7, 16.7, 16.8, 16.2, 16.6, 16.8, 16.6, 16.6, 17.4, 16.8, 16.6, 16.7, 16.6, 16.6, 16.6, 16.8, 16.7, 17, 16.4, 16.6, 16.5, 16.8, 16.9, 16.6, 16.7, 16.6, 16.7, 16.6, 16.9, 16.7, 16.7, 16.5, 16.7, 16.5, 16.5, 16.5, 16.8, 16.6, 16.8, 17.2, 16.3, 17.2, 16.3, 16.7, 16.6, 17.6, 15.9, 16.8, 16.7, 16.6, 16.7, 16.6, 16.8, 17, 16.2, 16.7, 16.7, 17.2, 17.8, 15.5, 16.2, 16.8, 16.7, 16.7, 16.7, 17.4, 16.1, 16.7, 16.6]",60.0,59.0,60.0,4994.2,[],,,,,,,,,,,,,,,,,,,,,,,HRV,HRV_0240,2022-11-30 19:55:37
,wl-html-keyboard-response,2,1512136,0.0-2.0-0.0,,,0.0,2.0,,,,,,,,25260.89999999851,0.0,0,,,,,,,,,,,,,,,,,,,,HRV,HRV_0240,2022-11-30 19:55:37
,wl-rdm,3,1518618,0.0-3.0-0.0,False,,0.0,3.0,,,,,,,[],,,,0.0,0.0,87.9,0.0,u,0.0,True,910.0999999940395,55.0,60.0,40.0,3000.0,[],"[960, 540]",ColorTask_Demo,,,,,HRV,HRV_0240,2022-11-30 19:55:37
,wl-rdm,4,1523373,0.0-3.0-1.0,False,,0.0,4.0,,,,,,,[],,,,0.0,0.0,87.9,1.0,i,1.0,True,690.0,42.0,60.0,40.0,2000.0,[],"[960, 540]",ColorTask_Demo,,,,,HRV,HRV_0240,2022-11-30 19:55:37
,wl-html-keyboard-response,5,1532801,0.0-3.0-2.0,,,0.0,5.0,,,,,,,,7421.79999999702,0.0,1,,,,,,,,,,,,,,,,,,,,HRV,HRV_0240,2022-11-30 19:55:37
,wl-html-keyboard-response,6,1571320,0.0-4.0-0.0,,,0.0,6.0,,,,,,,,36505.70000000298,0.0,0,,,,,,,,,,,,,,,,,,,,HRV,HRV_0240,2022-11-30 19:55:37
,wl-html-keyboard-response,7,1586376,0.0-5.0-0.0,,,0.0,7.0,,,,,,,,13044.89999999851,0.0,0,,,,,,,,,,,,,,,,,,,,HRV,HRV_0240,2022-11-30 19:55:37
,wl-rdm,8,1588821,0.0-6.0-0.0,False,,0.0,8.0,,,,,,,[],,,,,,53.2,0.0,u,0.0,True,1144.9000000059605,69.0,60.0,40.0,244.2221013315328,[],"[960, 540]",ColorTask,1.0,1.0,,,HRV,HRV_0240,2022-11-30 19:55:37
,wl-rdm,9,1591107,0.0-6.1-0.1,False,,0.0,9.0,,,,,,,[],,,,,,87.9,1.0,i,1.0,True,832.0,50.0,60.0,40.0,397.176933284938,[],"[960, 540]",ColorTask,2.0,2.0,,,HRV,HRV_0240,2022-11-30 19:55:37
,wl-rdm,10,1593042,0.0-6.2-0.2,False,,0.0,10.0,,,,,,,[],,,,,,87.9,0.0,u,0.0,True,562.8000000044703,34.0,60.0,40.0,307.4592642191825,[],"[960, 540]",ColorTask,3.0,3.0,,,HRV,HRV_0240,2022-11-30 19:55:37
,wl-rdm,11,1594962,0.0-6.3-0.3,False,,0.0,11.0,,,,,,,[],,,,,,56.4,1.0,i,1.0,True,588.6000000014901,35.0,60.0,40.0,251.4654756258319,[],"[960, 540]",ColorTask,4.0,4.0,,,HRV,HRV_0240,2022-11-30 19:55:37
,wl-rdm,12,1597131,0.0-6.4-0.4,False,,0.0,12.0,,,,,,,[],,,,,,87.9,0.0,u,0.0,True,773.0999999940395,47.0,60.0,40.0,323.2169859495939,[],"[960, 540]",ColorTask,5.0,5.0,,,HRV,HRV_0240,2022-11-30 19:55:37
,wl-rdm,13,1599050,0.0-6.5-0.5,False,,0.0,13.0,,,,,,,[],,,,,,73.6,0.0,i,1.0,False,606.7999999970198,37.0,60.0,40.0,244.8418585170442,[],"[960, 540]",ColorTask,4.0,6.0,,,HRV,HRV_0240,2022-11-30 19:55:37
,wl-rdm,14,1600967,0.0-6.6-0.6,False,,0.0,14.0,,,,,,,[],,,,,,53.2,0.0,i,1.0,False,640.8000000044703,39.0,60.0,40.0,213.23278466154193,[],"[960, 540]",ColorTask,3.0,7.0,,,HRV,HRV_0240,2022-11-30 19:55:37
,wl-rdm,15,1603252,0.0-6.7-0.7,False,,0.0,15.0,,,,,,,[],,,,,,50.0,0.0,i,1.0,False,941.9000000059605,57.0,60.0,40.0,270.5674704209292,[],"[960, 540]",ColorTask,2.0,8.0,,,HRV,HRV_0240,2022-11-30 19:55:37
,wl-rdm,16,1605339,0.0-6.8-0.8,False,,0.0,16.0,,,,,,,[],,,,,,62.5,0.0,i,1.0,False,747.5999999940395,45.0,60.0,40.0,282.5943657315996,[],"[960, 540]",ColorTask,1.0,9.0,,,HRV,HRV_0240,2022-11-30 19:55:37
,wl-rdm,17,1607592,0.0-6.9-0.9,False,,0.0,17.0,,,,,,,[],,,,,,62.5,0.0,u,0.0,True,843.3000000044703,51.0,60.0,40.0,338.0213351381109,[],"[960, 540]",ColorTask,2.0,10.0,,,HRV,HRV_0240,2022-11-30 19:55:37
,wl-rdm,18,1609892,0.0-6.10-0.10,False,,0.0,18.0,,,,,,,[],,,,,,56.4,0.0,u,0.0,True,864.7999999970198,52.0,60.0,40.0,375.39754403443953,[],"[960, 540]",ColorTask,3.0,11.0,,,HRV,HRV_0240,2022-11-30 19:55:37
,wl-rdm,19,1611994,0.0-6.11-0.11,False,,0.0,19.0,,,,,,,[],,,,,,50.0,1.0,u,0.0,False,713.0000000074506,43.0,60.0,40.0,334.50532696834216,[],"[960, 540]",ColorTask,2.0,12.0,,,HRV,HRV_0240,2022-11-30 19:55:37
,wl-rdm,20,1614096,0.0-6.12-0.12,False,,0.0,20.0,,,,,,,[],,,,,,53.2,1.0,i,1.0,True,822.0,50.0,60.0,40.0,213.97578814572498,[],"[960, 540]",ColorTask,3.0,13.0,,,HRV,HRV_0240,2022-11-30 19:55:37
,wl-rdm,21,1616133,0.0-6.13-0.13,False,,0.0,21.0,,,,,,,[],,,,,,87.9,1.0,i,1.0,True,577.7999999970198,35.0,60.0,40.0,395.50406180298603,[],"[960, 540]",ColorTask,4.0,14.0,,,HRV,HRV_0240,2022-11-30 19:55:37
,wl-rdm,22,1618234,0.0-6.14-0.14,False,,0.0,22.0,,,,,,,[],,,,,,73.6,0.0,u,0.0,True,722.3999999910593,44.0,60.0,40.0,309.2268986986891,[],"[960, 540]",ColorTask,5.0,15.0,,,HRV,HRV_0240,2022-11-30 19:55:37
,wl-rdm,23,1620270,0.0-6.15-0.15,False,,0.0,23.0,,,,,,,[],,,,,,62.5,0.0,i,1.0,False,715.5,43.0,60.0,40.0,253.48429032403715,[],"[960, 540]",ColorTask,4.0,16.0,,,HRV,HRV_0240,2022-11-30 19:55:37
,wl-rdm,24,1622341,0.0-6.16-0.16,False,,0.0,24.0,,,,,,,[],,,,,,50.0,0.0,i,1.0,False,798.5,48.0,60.0,40.0,201.84918591148673,[],"[960, 540]",ColorTask,3.0,17.0,,,HRV,HRV_0240,2022-11-30 19:55:37
,wl-rdm,25,1624508,0.0-6.17-0.17,False,,0.0,25.0,,,,,,,[],,,,,,56.4,1.0,i,1.0,True,709.6000000014901,43.0,60.0,40.0,396.7139588866145,[],"[960, 540]",ColorTask,4.0,18.0,,,HRV,HRV_0240,2022-11-30 19:55:37
,wl-rdm,26,1626563,0.0-6.18-0.18,False,,0.0,26.0,,,,,,,[],,,,,,73.6,0.0,i,1.0,False,698.0000000074506,42.0,60.0,40.0,286.6571086379353,[],"[960, 540]",ColorTask,3.0,19.0,,,HRV,HRV_0240,2022-11-30 19:55:37
,wl-rdm,27,1628578,0.0-6.19-0.19,False,,0.0,27.0,,,,,,,[],,,,,,62.5,0.0,i,1.0,False,719.2000000029802,44.0,60.0,40.0,227.01383240852812,[],"[960, 540]",ColorTask,2.0,20.0,,,HRV,HRV_0240,2022-11-30 19:55:37
,wl-rdm,28,1630748,0.0-6.20-0.20,False,,0.0,28.0,,,,,,,[],,,,,,50.0,1.0,i,1.0,True,846.3000000044703,51.0,60.0,40.0,265.01911008091133,[],"[960, 540]",ColorTask,3.0,21.0,,,HRV,HRV_0240,2022-11-30 19:55:37
,wl-rdm,29,1632699,0.0-6.21-0.21,False,,0.0,29.0,,,,,,,[],,,,,,62.5,1.0,i,1.0,True,675.4999999925494,41.0,60.0,40.0,200.3842420352053,[],"[960, 540]",ColorTask,4.0,22.0,,,HRV,HRV_0240,2022-11-30 19:55:37
,wl-rdm,30,1634584,0.0-6.22-0.22,False,,0.0,30.0,,,,,,,[],,,,,,87.9,0.0,u,0.0,True,573.7000000029802,35.0,60.0,40.0,240.31932242811854,[],"[960, 540]",ColorTask,5.0,23.0,,,HRV,HRV_0240,2022-11-30 19:55:37
,wl-rdm,31,1636787,0.0-6.23-0.23,False,,0.0,31.0,,,,,,,[],,,,,,53.2,0.0,i,1.0,False,770.4000000059605,47.0,60.0,40.0,365.40066173982245,[],"[960, 540]",ColorTask,4.0,24.0,,,HRV,HRV_0240,2022-11-30 19:55:37
,wl-rdm,32,1638955,0.0-6.24-0.24,False,,0.0,32.0,,,,,,,[],,,,,,50.0,0.0,i,1.0,False,800.0000000074506,48.0,60.0,40.0,300.3075117940268,[],"[960, 540]",ColorTask,3.0,25.0,,,HRV,HRV_0240,2022-11-30 19:55:37
,wl-rdm,33,1641023,0.0-6.25-0.25,False,,0.0,33.0,,,,,,,[],,,,,,53.2,1.0,i,1.0,True,656.0,39.0,60.0,40.0,329.2578234446063,[],"[960, 540]",ColorTask,4.0,26.0,,,HRV,HRV_0240,2022-11-30 19:55:37
,wl-rdm,34,1643110,0.0-6.26-0.26,False,,0.0,34.0,,,,,,,[],,,,,,87.9,0.0,u,0.0,True,797.7999999970198,48.0,60.0,40.0,232.48115323652226,[],"[960, 540]",ColorTask,5.0,27.0,,,HRV,HRV_0240,2022-11-30 19:55:37
,wl-rdm,35,1644996,0.0-6.27-0.27,False,,0.0,35.0,,,,,,,[],,,,,,73.6,0.0,u,0.0,True,580.7000000029802,35.0,60.0,40.0,237.2240146846746,[],"[960, 540]",ColorTask,6.0,28.0,,,HRV,HRV_0240,2022-11-30 19:55:37
,wl-rdm,36,1646813,0.0-6.28-0.28,False,,0.0,36.0,,,,,,,[],,,,,,62.5,0.0,u,0.0,True,464.3999999985099,28.0,60.0,40.0,298.4624829586444,[],"[960, 540]",ColorTask,7.0,29.0,,,HRV,HRV_0240,2022-11-30 19:55:37
,wl-rdm,37,1648581,0.0-6.29-0.29,False,,0.0,37.0,,,,,,,[],,,,,,62.5,1.0,u,0.0,False,419.40000000596046,26.0,60.0,40.0,276.85660045691134,[],"[960, 540]",ColorTask,6.0,30.0,,,HRV,HRV_0240,2022-11-30 19:55:37
,wl-rdm,38,1650620,0.0-6.30-0.30,False,,0.0,38.0,,,,,,,[],,,,,,56.4,0.0,i,1.0,False,579.3999999985099,35.0,60.0,40.0,397.3542720684111,[],"[960, 540]",ColorTask,5.0,31.0,,,HRV,HRV_0240,2022-11-30 19:55:37
,wl-rdm,39,1652703,0.0-6.31-0.31,False,,0.0,39.0,,,,,,,[],,,,,,62.5,1.0,i,1.0,True,662.5,40.0,60.0,40.0,341.65775031916087,[],"[960, 540]",ColorTask,6.0,32.0,,,HRV,HRV_0240,2022-11-30 19:55:37
,wl-rdm,40,1654654,0.0-6.32-0.32,False,,0.0,40.0,,,,,,,[],,,,,,56.4,1.0,i,1.0,True,620.8999999985099,38.0,60.0,40.0,260.45749297395565,[],"[960, 540]",ColorTask,7.0,33.0,,,HRV,HRV_0240,2022-11-30 19:55:37
,wl-rdm,41,1656824,0.0-6.33-0.33,False,,0.0,41.0,,,,,,,[],,,,,,50.0,1.0,u,0.0,False,843.1999999955297,51.0,60.0,40.0,265.51678391940175,[],"[960, 540]",ColorTask,6.0,34.0,,,HRV,HRV_0240,2022-11-30 19:55:37
,wl-rdm,42,1658926,0.0-6.34-0.34,False,,0.0,42.0,,,,,,,[],,,,,,62.5,0.0,i,1.0,False,685.2999999970198,41.0,60.0,40.0,348.418912122017,[],"[960, 540]",ColorTask,5.0,35.0,,,HRV,HRV_0240,2022-11-30 19:55:37
,wl-rdm,43,1660911,0.0-6.35-0.35,False,,0.0,43.0,,,,,,,[],,,,,,73.6,1.0,i,1.0,True,603.4000000059605,36.0,60.0,40.0,303.2230629552348,[],"[960, 540]",ColorTask,6.0,36.0,,,HRV,HRV_0240,2022-11-30 19:55:37
,wl-rdm,44,1663098,0.0-6.36-0.36,False,,0.0,44.0,,,,,,,[],,,,,,53.2,1.0,i,1.0,True,811.7000000029802,49.0,60.0,40.0,301.64001375203895,[],"[960, 540]",ColorTask,7.0,37.0,,,HRV,HRV_0240,2022-11-30 19:55:37
,wl-rdm,45,1665099,0.0-6.37-0.37,False,,0.0,45.0,,,,,,,[],,,,,,87.9,1.0,i,1.0,True,587.9000000059605,36.0,60.0,40.0,343.89775898369015,[],"[960, 540]",ColorTask,8.0,38.0,,,HRV,HRV_0240,2022-11-30 19:55:37
,wl-rdm,46,1667085,0.0-6.38-0.38,False,,0.0,46.0,,,,,,,[],,,,,,62.5,0.0,i,1.0,False,704.3000000044703,43.0,60.0,40.0,206.30225678474596,[],"[960, 540]",ColorTask,7.0,39.0,,,HRV,HRV_0240,2022-11-30 19:55:37
,wl-rdm,47,1669137,0.0-6.39-0.39,False,,0.0,47.0,,,,,,,[],,,,,,62.5,1.0,i,1.0,True,591.2000000029802,36.0,60.0,40.0,384.22935545921985,[],"[960, 540]",ColorTask,8.0,40.0,,,HRV,HRV_0240,2022-11-30 19:55:37
,wl-rdm,48,1671038,0.0-6.40-0.40,False,,0.0,48.0,,,,,,,[],,,,,,73.6,0.0,i,1.0,False,549.3999999985099,33.0,60.0,40.0,276.37878321368555,[],"[960, 540]",ColorTask,7.0,41.0,,,HRV,HRV_0240,2022-11-30 19:55:37
,wl-rdm,49,1672956,0.0-6.41-0.41,False,,0.0,49.0,,,,,,,[],,,,,,87.9,1.0,i,1.0,True,640.7999999970198,39.0,60.0,40.0,207.44011686245582,[],"[960, 540]",ColorTask,8.0,42.0,,,HRV,HRV_0240,2022-11-30 19:55:37
,wl-rdm,50,1674841,0.0-6.42-0.42,False,,0.0,50.0,,,,,,,[],,,,,,53.2,1.0,i,1.0,True,564.2000000029802,34.0,60.0,40.0,237.6777577814824,[],"[960, 540]",ColorTask,9.0,43.0,,,HRV,HRV_0240,2022-11-30 19:55:37
,wl-rdm,51,1676810,0.0-6.43-0.43,False,,0.0,51.0,,,,,,,[],,,,,,73.6,0.0,i,1.0,False,649.5,39.0,60.0,40.0,264.6778502488985,[],"[960, 540]",ColorTask,8.0,44.0,,,HRV,HRV_0240,2022-11-30 19:55:37
,wl-rdm,52,1678795,0.0-6.44-0.44,False,,0.0,52.0,,,,,,,[],,,,,,87.9,0.0,u,0.0,True,688.8000000044703,42.0,60.0,40.0,223.70982192765484,[],"[960, 540]",ColorTask,9.0,45.0,,,HRV,HRV_0240,2022-11-30 19:55:37
,wl-rdm,53,1680746,0.0-6.45-0.45,False,,0.0,53.0,,,,,,,[],,,,,,56.4,1.0,i,1.0,True,661.3000000044703,40.0,60.0,40.0,211.69858760939783,[],"[960, 540]",ColorTask,10.0,46.0,,,HRV,HRV_0240,2022-11-30 19:55:37
,wl-rdm,54,1682833,0.0-6.46-0.46,False,,0.0,54.0,,,,,,,[],,,,,,56.4,1.0,i,1.0,True,698.7000000029802,42.0,60.0,40.0,308.431004034452,[],"[960, 540]",ColorTask,11.0,47.0,,,HRV,HRV_0240,2022-11-30 19:55:37
,wl-rdm,55,1684669,0.0-6.47-0.47,False,,0.0,55.0,,,,,,,[],,,,,,62.5,1.0,i,1.0,True,561.5,34.0,60.0,40.0,210.01556604731246,[],"[960, 540]",ColorTask,12.0,48.0,,,HRV,HRV_0240,2022-11-30 19:55:37
,wl-rdm,56,1686673,0.0-6.48-0.48,False,,0.0,56.0,,,,,,,[],,,,,,50.0,0.0,i,1.0,False,539.1000000014901,33.0,60.0,40.0,395.5522974951757,[],"[960, 540]",ColorTask,11.0,49.0,,,HRV,HRV_0240,2022-11-30 19:55:37
,wl-rdm,57,1688554,0.0-6.49-0.49,False,,0.0,57.0,,,,,,,[],,,,,,53.2,0.0,i,1.0,False,506.1000000014901,31.0,60.0,40.0,291.0012019388047,[],"[960, 540]",ColorTask,10.0,50.0,,,HRV,HRV_0240,2022-11-30 19:55:37
,wl-rdm,58,1690457,0.0-6.50-0.50,False,,0.0,58.0,,,,,,,[],,,,,,87.9,1.0,i,1.0,True,538.7999999970198,33.0,60.0,40.0,283.21995665462964,[],"[960, 540]",ColorTask,11.0,51.0,,,HRV,HRV_0240,2022-11-30 19:55:37
,wl-rdm,59,1692510,0.0-6.51-0.51,False,,0.0,59.0,,,,,,,[],,,,,,50.0,1.0,i,1.0,True,620.7000000029802,38.0,60.0,40.0,334.7961159327281,[],"[960, 540]",ColorTask,12.0,52.0,,,HRV,HRV_0240,2022-11-30 19:55:37
,wl-rdm,60,1694328,0.0-6.52-0.52,False,,0.0,60.0,,,,,,,[],,,,,,53.2,1.0,i,1.0,True,534.3000000044703,33.0,60.0,40.0,207.9058008245236,[],"[960, 540]",ColorTask,13.0,53.0,,,HRV,HRV_0240,2022-11-30 19:55:37
,wl-rdm,61,1696263,0.0-6.53-0.53,False,,0.0,61.0,,,,,,,[],,,,,,87.9,0.0,i,1.0,False,595.8999999985099,36.0,60.0,40.0,269.455318597271,[],"[960, 540]",ColorTask,12.0,54.0,,,HRV,HRV_0240,2022-11-30 19:55:37
,wl-rdm,62,1698349,0.0-6.54-0.54,False,,0.0,62.0,,,,,,,[],,,,,,73.6,1.0,u,0.0,False,743.6999999880791,45.0,60.0,40.0,283.7605191297027,[],"[960, 540]",ColorTask,11.0,55.0,,,HRV,HRV_0240,2022-11-30 19:55:37
,wl-rdm,63,1700233,0.0-6.55-0.55,False,,0.0,63.0,,,,,,,[],,,,,,73.6,1.0,i,1.0,True,420.70000000298023,26.0,60.0,40.0,393.66708903709343,[],"[960, 540]",ColorTask,12.0,56.0,,,HRV,HRV_0240,2022-11-30 19:55:37
,wl-rdm,64,1702168,0.0-6.56-0.56,False,,0.0,64.0,,,,,,,[],,,,,,56.4,0.0,u,0.0,True,658.5,40.0,60.0,40.0,210.94313049937293,[],"[960, 540]",ColorTask,13.0,57.0,,,HRV,HRV_0240,2022-11-30 19:55:37
,wl-rdm,65,1704255,0.0-6.57-0.57,False,,0.0,65.0,,,,,,,[],,,,,,62.5,0.0,u,0.0,True,761.3999999910593,46.0,60.0,40.0,264.59632822384145,[],"[960, 540]",ColorTask,14.0,58.0,,,HRV,HRV_0240,2022-11-30 19:55:37
,wl-rdm,66,1706123,0.0-6.58-0.58,False,,0.0,66.0,,,,,,,[],,,,,,56.4,0.0,u,0.0,True,489.79999999701977,30.0,60.0,40.0,299.2184947536308,[],"[960, 540]",ColorTask,15.0,59.0,,,HRV,HRV_0240,2022-11-30 19:55:37
,wl-rdm,67,1707907,0.0-6.59-0.59,False,,0.0,67.0,,,,,,,[],,,,,,53.2,1.0,u,0.0,False,390.90000000596046,24.0,60.0,40.0,318.6563093729447,[],"[960, 540]",ColorTask,14.0,60.0,,,HRV,HRV_0240,2022-11-30 19:55:37
,wl-rdm,68,1709909,0.0-6.60-0.60,False,,0.0,68.0,,,,,,,[],,,,,,87.9,1.0,i,1.0,True,566.7999999970198,34.0,60.0,40.0,350.4387348877143,[],"[960, 540]",ColorTask,15.0,61.0,,,HRV,HRV_0240,2022-11-30 19:55:37
,wl-rdm,69,1711761,0.0-6.61-0.61,False,,0.0,69.0,,,,,,,[],,,,,,73.6,1.0,i,1.0,True,573.6999999955297,35.0,60.0,40.0,210.06098818410115,[],"[960, 540]",ColorTask,16.0,62.0,,,HRV,HRV_0240,2022-11-30 19:55:37
,wl-rdm,70,1713647,0.0-6.62-0.62,False,,0.0,70.0,,,,,,,[],,,,,,73.6,0.0,u,0.0,True,615.0,37.0,60.0,40.0,209.92371655436182,[],"[960, 540]",ColorTask,17.0,63.0,,,HRV,HRV_0240,2022-11-30 19:55:37
,wl-rdm,71,1715815,0.0-6.63-0.63,False,,0.0,71.0,,,,,,,[],,,,,,53.2,1.0,u,0.0,False,776.9000000059605,47.0,60.0,40.0,314.201026256234,[],"[960, 540]",ColorTask,16.0,64.0,,,HRV,HRV_0240,2022-11-30 19:55:37
,wl-rdm,72,1717584,0.0-6.64-0.64,False,,0.0,72.0,,,,,,,[],,,,,,50.0,1.0,u,0.0,False,439.40000000596046,27.0,60.0,40.0,259.50536122774804,[],"[960, 540]",ColorTask,15.0,65.0,,,HRV,HRV_0240,2022-11-30 19:55:37
,wl-rdm,73,1719353,0.0-6.65-0.65,False,,0.0,73.0,,,,,,,[],,,,,,73.6,1.0,u,0.0,False,473.3999999985099,29.0,60.0,40.0,225.15425814792277,[],"[960, 540]",ColorTask,14.0,66.0,,,HRV,HRV_0240,2022-11-30 19:55:37
,wl-rdm,74,1721254,0.0-6.66-0.66,False,,0.0,74.0,,,,,,,[],,,,,,50.0,0.0,i,1.0,False,580.1999999955297,35.0,60.0,40.0,255.4937329532229,[],"[960, 540]",ColorTask,13.0,67.0,,,HRV,HRV_0240,2022-11-30 19:55:37
,wl-rdm,75,1723341,0.0-6.67-0.67,False,,0.0,75.0,,,,,,,[],,,,,,62.5,1.0,i,1.0,True,740.2000000029802,45.0,60.0,40.0,258.9242967649678,[],"[960, 540]",ColorTask,14.0,68.0,,,HRV,HRV_0240,2022-11-30 19:55:37
,wl-rdm,76,1725275,0.0-6.68-0.68,False,,0.0,76.0,,,,,,,[],,,,,,87.9,0.0,u,0.0,True,635.3999999985099,38.0,60.0,40.0,207.6476100114842,[],"[960, 540]",ColorTask,15.0,69.0,,,HRV,HRV_0240,2022-11-30 19:55:37
,wl-rdm,77,1727093,0.0-6.69-0.69,False,,0.0,77.0,,,,,,,[],,,,,,50.0,1.0,i,1.0,True,515.9000000059605,31.0,60.0,40.0,217.31423083087128,[],"[960, 540]",ColorTask,16.0,70.0,,,HRV,HRV_0240,2022-11-30 19:55:37
,wl-rdm,78,1729045,0.0-6.70-0.70,False,,0.0,78.0,,,,,,,[],,,,,,87.9,0.0,u,0.0,True,529.7999999970198,32.0,60.0,40.0,344.363921313116,[],"[960, 540]",ColorTask,17.0,71.0,,,HRV,HRV_0240,2022-11-30 19:55:37
,wl-rdm,79,1731013,0.0-6.71-0.71,False,,0.0,79.0,,,,,,,[],,,,,,53.2,1.0,i,1.0,True,514.8999999985099,31.0,60.0,40.0,391.8556718699044,[],"[960, 540]",ColorTask,18.0,72.0,,,HRV,HRV_0240,2022-11-30 19:55:37
,wl-rdm,80,1732999,0.0-6.72-0.72,False,,0.0,80.0,,,,,,,[],,,,,,50.0,1.0,i,1.0,True,654.0,39.0,60.0,40.0,252.60673086329172,[],"[960, 540]",ColorTask,19.0,73.0,,,HRV,HRV_0240,2022-11-30 19:55:37
,wl-rdm,81,1734951,0.0-6.73-0.73,False,,0.0,81.0,,,,,,,[],,,,,,87.9,1.0,i,1.0,True,642.7000000029802,39.0,60.0,40.0,247.0629346810054,[],"[960, 540]",ColorTask,20.0,74.0,,,HRV,HRV_0240,2022-11-30 19:55:37
,wl-rdm,82,1736770,0.0-6.74-0.74,False,,0.0,82.0,,,,,,,[],,,,,,56.4,0.0,i,1.0,False,453.1000000014901,28.0,60.0,40.0,284.4242828920633,[],"[960, 540]",ColorTask,19.0,75.0,,,HRV,HRV_0240,2022-11-30 19:55:37
,wl-rdm,83,1738772,0.0-6.75-0.75,False,,0.0,83.0,,,,,,,[],,,,,,50.0,1.0,i,1.0,True,635.7000000029802,39.0,60.0,40.0,298.945392938207,[],"[960, 540]",ColorTask,20.0,76.0,,,HRV,HRV_0240,2022-11-30 19:55:37
,wl-rdm,84,1740790,0.0-6.76-0.76,False,,0.0,84.0,,,,,,,[],,,,,,53.2,0.0,i,1.0,False,574.1999999955297,35.0,60.0,40.0,378.9149524847559,[],"[960, 540]",ColorTask,19.0,77.0,,,HRV,HRV_0240,2022-11-30 19:55:37
,wl-rdm,85,1742842,0.0-6.77-0.77,False,,0.0,85.0,,,,,,,[],,,,,,73.6,1.0,i,1.0,True,796.7000000029802,48.0,60.0,40.0,200.19189616135924,[],"[960, 540]",ColorTask,20.0,78.0,,,HRV,HRV_0240,2022-11-30 19:55:37
,wl-rdm,86,1744681,0.0-6.78-0.78,False,,0.0,86.0,,,,,,,[],,,,,,56.4,1.0,i,1.0,True,469.20000000298023,29.0,60.0,40.0,295.36009601162834,[],"[960, 540]",ColorTask,21.0,79.0,,,HRV,HRV_0240,2022-11-30 19:55:37
,wl-rdm,87,1746599,0.0-6.79-0.79,False,,0.0,87.0,,,,,,,[],,,,,,56.4,0.0,i,1.0,False,543.2999999970198,33.0,60.0,40.0,315.1493242630515,[],"[960, 540]",ColorTask,20.0,80.0,,,HRV,HRV_0240,2022-11-30 19:55:37
,wl-rdm,88,1748414,0.0-6.80-0.80,False,,0.0,88.0,,,,,,,[],,,,,,50.0,0.0,i,1.0,False,509.6000000014901,31.0,60.0,40.0,225.73569410704454,[],"[960, 540]",ColorTask,19.0,81.0,,,HRV,HRV_0240,2022-11-30 19:55:37
,wl-rdm,89,1750283,0.0-6.81-0.81,False,,0.0,89.0,,,,,,,[],,,,,,53.2,0.0,i,1.0,False,489.1000000014901,30.0,60.0,40.0,312.7110494908731,[],"[960, 540]",ColorTask,18.0,82.0,,,HRV,HRV_0240,2022-11-30 19:55:37
,wl-rdm,90,1752118,0.0-6.82-0.82,False,,0.0,90.0,,,,,,,[],,,,,,73.6,0.0,u,0.0,True,375.79999999701977,23.0,60.0,40.0,399.07961003961054,[],"[960, 540]",ColorTask,19.0,83.0,,,HRV,HRV_0240,2022-11-30 19:55:37
,wl-rdm,91,1753853,0.0-6.83-0.83,False,,0.0,91.0,,,,,,,[],,,,,,62.5,1.0,u,0.0,False,380.30000000447035,23.0,60.0,40.0,237.17360454859735,[],"[960, 540]",ColorTask,18.0,84.0,,,HRV,HRV_0240,2022-11-30 19:55:37
,wl-rdm,92,1755539,0.0-6.84-0.84,False,,0.0,92.0,,,,,,,[],,,,,,50.0,1.0,i,1.0,True,373.29999999701977,23.0,60.0,40.0,234.00558887982572,[],"[960, 540]",ColorTask,19.0,85.0,,,HRV,HRV_0240,2022-11-30 19:55:37
,wl-rdm,93,1757224,0.0-6.85-0.85,False,,0.0,93.0,,,,,,,[],,,,,,73.6,0.0,u,0.0,True,398.59999999403954,24.0,60.0,40.0,223.18773607302293,[],"[960, 540]",ColorTask,20.0,86.0,,,HRV,HRV_0240,2022-11-30 19:55:37
,wl-rdm,94,1758909,0.0-6.86-0.86,False,,0.0,94.0,,,,,,,[],,,,,,62.5,1.0,u,0.0,False,395.5,24.0,60.0,40.0,228.56974568155613,[],"[960, 540]",ColorTask,19.0,87.0,,,HRV,HRV_0240,2022-11-30 19:55:37
,wl-rdm,95,1760661,0.0-6.87-0.87,False,,0.0,95.0,,,,,,,[],,,,,,62.5,0.0,u,0.0,True,363.5,22.0,60.0,40.0,286.709355611066,[],"[960, 540]",ColorTask,20.0,88.0,,,HRV,HRV_0240,2022-11-30 19:55:37
,wl-rdm,96,1762528,0.0-6.88-0.88,False,,0.0,96.0,,,,,,,[],,,,,,53.2,0.0,u,0.0,True,523.8000000044703,32.0,60.0,40.0,260.69864100036654,[],"[960, 540]",ColorTask,21.0,89.0,,,HRV,HRV_0240,2022-11-30 19:55:37
,wl-rdm,97,1764231,0.0-6.89-0.89,False,,0.0,97.0,,,,,,,[],,,,,,56.4,1.0,u,0.0,False,335.1000000014901,20.0,60.0,40.0,299.67693933757903,[],"[960, 540]",ColorTask,20.0,90.0,,,HRV,HRV_0240,2022-11-30 19:55:37
,wl-rdm,98,1765965,0.0-6.90-0.90,False,,0.0,98.0,,,,,,,[],,,,,,56.4,0.0,u,0.0,True,340.3999999910593,21.0,60.0,40.0,302.92961187794367,[],"[960, 540]",ColorTask,21.0,91.0,,,HRV,HRV_0240,2022-11-30 19:55:37
,wl-rdm,99,1767717,0.0-6.91-0.91,False,,0.0,99.0,,,,,,,[],,,,,,50.0,0.0,u,0.0,True,340.59999999403954,21.0,60.0,40.0,349.24480526583534,[],"[960, 540]",ColorTask,22.0,92.0,,,HRV,HRV_0240,2022-11-30 19:55:37
,wl-rdm,100,1769469,0.0-6.92-0.92,False,,0.0,100.0,,,,,,,[],,,,,,53.2,0.0,u,0.0,True,472.20000000298023,29.0,60.0,40.0,222.94998905966773,[],"[960, 540]",ColorTask,23.0,93.0,,,HRV,HRV_0240,2022-11-30 19:55:37
,wl-rdm,101,1771171,0.0-6.93-0.93,False,,0.0,101.0,,,,,,,[],,,,,,62.5,1.0,u,0.0,False,388.29999999701977,24.0,60.0,40.0,236.02371732138909,[],"[960, 540]",ColorTask,22.0,94.0,,,HRV,HRV_0240,2022-11-30 19:55:37
,wl-rdm,102,1773126,0.0-6.94-0.94,False,,0.0,102.0,,,,,,,[],,,,,,53.2,0.0,i,1.0,False,614.3000000044703,37.0,60.0,40.0,282.58141013117756,[],"[960, 540]",ColorTask,21.0,95.0,,,HRV,HRV_0240,2022-11-30 19:55:37
,wl-rdm,103,1775141,0.0-6.95-0.95,False,,0.0,103.0,,,,,,,[],,,,,,73.6,1.0,i,1.0,True,659.0000000074506,40.0,60.0,40.0,279.95068753529745,[],"[960, 540]",ColorTask,22.0,96.0,,,HRV,HRV_0240,2022-11-30 19:55:37
,wl-rdm,104,1776926,0.0-6.96-0.96,False,,0.0,104.0,,,,,,,[],,,,,,87.9,1.0,i,1.0,True,411.8999999910593,25.0,60.0,40.0,301.0375903997371,[],"[960, 540]",ColorTask,23.0,97.0,,,HRV,HRV_0240,2022-11-30 19:55:37
,wl-rdm,105,1778812,0.0-6.97-0.97,False,,0.0,105.0,,,,,,,[],,,,,,53.2,1.0,i,1.0,True,502.70000000298023,30.0,60.0,40.0,307.97206143754784,[],"[960, 540]",ColorTask,24.0,98.0,,,HRV,HRV_0240,2022-11-30 19:55:37
,wl-rdm,106,1780529,0.0-6.98-0.98,False,,0.0,106.0,,,,,,,[],,,,,,56.4,0.0,i,1.0,False,341.0,21.0,60.0,40.0,288.2768750154428,[],"[960, 540]",ColorTask,23.0,99.0,,,HRV,HRV_0240,2022-11-30 19:55:37
,wl-rdm,107,1782483,0.0-6.99-0.99,False,,0.0,107.0,,,,,,,[],,,,,,56.4,1.0,i,1.0,True,660.1999999880791,40.0,60.0,40.0,232.699906537044,[],"[960, 540]",ColorTask,24.0,100.0,,,HRV,HRV_0240,2022-11-30 19:55:37
,wl-rdm,108,1784384,0.0-6.100-0.100,False,,0.0,108.0,,,,,,,[],,,,,,87.9,0.0,i,1.0,False,458.3999999985099,28.0,60.0,40.0,377.20146358531815,[],"[960, 540]",ColorTask,23.0,101.0,,,HRV,HRV_0240,2022-11-30 19:55:37
,wl-rdm,109,1786286,0.0-6.101-0.101,False,,0.0,109.0,,,,,,,[],,,,,,73.6,1.0,i,1.0,True,592.4999999925494,36.0,60.0,40.0,249.51654766479905,[],"[960, 540]",ColorTask,24.0,102.0,,,HRV,HRV_0240,2022-11-30 19:55:37
,wl-rdm,110,1788070,0.0-6.102-0.102,False,,0.0,110.0,,,,,,,[],,,,,,50.0,0.0,i,1.0,False,488.3999999910593,30.0,60.0,40.0,231.21455884602145,[],"[960, 540]",ColorTask,23.0,103.0,,,HRV,HRV_0240,2022-11-30 19:55:37
,wl-rdm,111,1789923,0.0-6.103-0.103,False,,0.0,111.0,,,,,,,[],,,,,,50.0,0.0,i,1.0,False,373.6000000014901,23.0,60.0,40.0,390.8733278393693,[],"[960, 540]",ColorTask,22.0,104.0,,,HRV,HRV_0240,2022-11-30 19:55:37
,wl-rdm,112,1791690,0.0-6.104-0.104,False,,0.0,112.0,,,,,,,[],,,,,,73.6,1.0,u,0.0,False,361.80000000447035,22.0,60.0,40.0,340.35986364039053,[],"[960, 540]",ColorTask,21.0,105.0,,,HRV,HRV_0240,2022-11-30 19:55:37
,wl-rdm,113,1793510,0.0-6.105-0.105,False,,0.0,113.0,,,,,,,[],,,,,,56.4,0.0,u,0.0,True,416.20000000298023,25.0,60.0,40.0,317.5381500676919,[],"[960, 540]",ColorTask,22.0,106.0,,,HRV,HRV_0240,2022-11-30 19:55:37
,wl-rdm,114,1795445,0.0-6.106-0.106,False,,0.0,114.0,,,,,,,[],,,,,,87.9,1.0,i,1.0,True,641.0,39.0,60.0,40.0,226.5150438725368,[],"[960, 540]",ColorTask,23.0,107.0,,,HRV,HRV_0240,2022-11-30 19:55:37
,wl-rdm,115,1797130,0.0-6.107-0.107,False,,0.0,115.0,,,,,,,[],,,,,,56.4,1.0,i,1.0,True,391.29999999701977,24.0,60.0,40.0,227.72420165264384,[],"[960, 540]",ColorTask,24.0,108.0,,,HRV,HRV_0240,2022-11-30 19:55:37
,wl-html-keyboard-response,116,1934176,0.0-7.0-0.0,True,undefinedblurEvent ,1.0,115.0,,,,,,,,135028.09999999404,1.0,0,,,,,,,,,,,,,,,,,,,,HRV,HRV_0240,2022-11-30 19:55:37
,wl-rdm,117,1937569,0.0-8.0-0.0,False,,1.0,116.0,,,,,,,[],,,,,,53.2,1.0,u,0.0,False,1980.7000000029802,119.0,60.0,40.0,321.5194205287878,[],"[960, 540]",ColorTask,23.0,1.0,,,HRV,HRV_0240,2022-11-30 19:55:37
,wl-rdm,118,1939622,0.0-8.1-0.1,False,,1.0,117.0,,,,,,,[],,,,,,50.0,1.0,u,0.0,False,610.2000000029802,37.0,60.0,40.0,366.5870093391046,[],"[960, 540]",ColorTask,22.0,2.0,,,HRV,HRV_0240,2022-11-30 19:55:37
,wl-rdm,119,1941460,0.0-8.2-0.2,False,,1.0,118.0,,,,,,,[],,,,,,56.4,0.0,u,0.0,True,535.5,32.0,60.0,40.0,238.78954800128164,[],"[960, 540]",ColorTask,23.0,3.0,,,HRV,HRV_0240,2022-11-30 19:55:37
,wl-rdm,120,1943459,0.0-8.3-0.3,False,,1.0,119.0,,,,,,,[],,,,,,62.5,0.0,i,1.0,False,679.6999999955297,41.0,60.0,40.0,229.93978781637895,[],"[960, 540]",ColorTask,22.0,4.0,,,HRV,HRV_0240,2022-11-30 19:55:37
,wl-rdm,121,1945378,0.0-8.4-0.4,False,,1.0,120.0,,,,,,,[],,,,,,50.0,0.0,u,0.0,True,455.90000000596046,28.0,60.0,40.0,392.50911585191693,[],"[960, 540]",ColorTask,23.0,5.0,,,HRV,HRV_0240,2022-11-30 19:55:37
,wl-rdm,122,1947513,0.0-8.5-0.5,False,,1.0,121.0,,,,,,,[],,,,,,56.4,1.0,i,1.0,True,731.9999999925494,44.0,60.0,40.0,347.4742911520068,[],"[960, 540]",ColorTask,24.0,6.0,,,HRV,HRV_0240,2022-11-30 19:55:37
,wl-rdm,123,1949331,0.0-8.6-0.6,False,,1.0,122.0,,,,,,,[],,,,,,56.4,0.0,u,0.0,True,545.0999999940395,33.0,60.0,40.0,206.17776815153056,[],"[960, 540]",ColorTask,25.0,7.0,,,HRV,HRV_0240,2022-11-30 19:55:37
,wl-rdm,124,1951016,0.0-8.7-0.7,False,,1.0,123.0,,,,,,,[],,,,,,73.6,0.0,u,0.0,True,411.6000000014901,25.0,60.0,40.0,213.73817730494483,[],"[960, 540]",ColorTask,26.0,8.0,,,HRV,HRV_0240,2022-11-30 19:55:37
,wl-rdm,125,1952801,0.0-8.8-0.8,False,,1.0,124.0,,,,,,,[],,,,,,53.2,1.0,u,0.0,False,404.1000000014901,25.0,60.0,40.0,311.03271878756203,[],"[960, 540]",ColorTask,25.0,9.0,,,HRV,HRV_0240,2022-11-30 19:55:37
,wl-rdm,126,1954603,0.0-8.9-0.9,False,,1.0,125.0,,,,,,,[],,,,,,50.0,1.0,u,0.0,False,482.20000000298023,29.0,60.0,40.0,257.314264098316,[],"[960, 540]",ColorTask,24.0,10.0,,,HRV,HRV_0240,2022-11-30 19:55:37
,wl-rdm,127,1956621,0.0-8.10-0.10,False,,1.0,126.0,,,,,,,[],,,,,,73.6,0.0,u,0.0,True,675.7999999970198,41.0,60.0,40.0,269.08558937845913,[],"[960, 540]",ColorTask,25.0,11.0,,,HRV,HRV_0240,2022-11-30 19:55:37
,wl-rdm,128,1958406,0.0-8.11-0.11,False,,1.0,127.0,,,,,,,[],,,,,,53.2,0.0,u,0.0,True,449.1000000014901,27.0,60.0,40.0,273.7674220854351,[],"[960, 540]",ColorTask,26.0,12.0,,,HRV,HRV_0240,2022-11-30 19:55:37
,wl-rdm,129,1960275,0.0-8.12-0.12,False,,1.0,128.0,,,,,,,[],,,,,,56.4,1.0,u,0.0,False,425.20000000298023,26.0,60.0,40.0,366.73682941850234,[],"[960, 540]",ColorTask,25.0,13.0,,,HRV,HRV_0240,2022-11-30 19:55:37
,wl-rdm,130,1962160,0.0-8.13-0.13,False,,1.0,129.0,,,,,,,[],,,,,,62.5,1.0,i,1.0,True,466.80000000447035,28.0,60.0,40.0,364.11840805844975,[],"[960, 540]",ColorTask,26.0,14.0,,,HRV,HRV_0240,2022-11-30 19:55:37
,wl-rdm,131,1964279,0.0-8.14-0.14,False,,1.0,130.0,,,,,,,[],,,,,,62.5,1.0,u,0.0,False,679.9000000059605,41.0,60.0,40.0,371.3386103976362,[],"[960, 540]",ColorTask,25.0,15.0,,,HRV,HRV_0240,2022-11-30 19:55:37
,wl-rdm,132,1966164,0.0-8.15-0.15,False,,1.0,131.0,,,,,,,[],,,,,,73.6,1.0,u,0.0,False,556.3999999985099,34.0,60.0,40.0,261.7210652268395,[],"[960, 540]",ColorTask,24.0,16.0,,,HRV,HRV_0240,2022-11-30 19:55:37
,wl-rdm,133,1968016,0.0-8.16-0.16,False,,1.0,132.0,,,,,,,[],,,,,,87.9,0.0,u,0.0,True,415.0,25.0,60.0,40.0,372.3940708313014,[],"[960, 540]",ColorTask,25.0,17.0,,,HRV,HRV_0240,2022-11-30 19:55:37
,wl-rdm,134,1970018,0.0-8.17-0.17,False,,1.0,133.0,,,,,,,[],,,,,,56.4,1.0,i,1.0,True,636.3999999985099,39.0,60.0,40.0,286.48693022488396,[],"[960, 540]",ColorTask,26.0,18.0,,,HRV,HRV_0240,2022-11-30 19:55:37
,wl-rdm,135,1972187,0.0-8.18-0.18,False,,1.0,134.0,,,,,,,[],,,,,,62.5,1.0,u,0.0,False,813.5,49.0,60.0,40.0,298.3218189302493,[],"[960, 540]",ColorTask,25.0,19.0,,,HRV,HRV_0240,2022-11-30 19:55:37
,wl-rdm,136,1974122,0.0-8.19-0.19,False,,1.0,135.0,,,,,,,[],,,,,,87.9,1.0,i,1.0,True,634.7999999970198,38.0,60.0,40.0,217.11249084131288,[],"[960, 540]",ColorTask,26.0,20.0,,,HRV,HRV_0240,2022-11-30 19:55:37
,wl-rdm,137,1975907,0.0-8.20-0.20,False,,1.0,136.0,,,,,,,[],,,,,,50.0,1.0,i,1.0,True,506.6000000014901,31.0,60.0,40.0,209.29566614105684,[],"[960, 540]",ColorTask,27.0,21.0,,,HRV,HRV_0240,2022-11-30 19:55:37
,wl-rdm,138,1977742,0.0-8.21-0.21,False,,1.0,137.0,,,,,,,[],,,,,,56.4,0.0,i,1.0,False,462.59999999403954,28.0,60.0,40.0,305.4133936905874,[],"[960, 540]",ColorTask,26.0,22.0,,,HRV,HRV_0240,2022-11-30 19:55:37
,wl-rdm,139,1979611,0.0-8.22-0.22,False,,1.0,138.0,,,,,,,[],,,,,,53.2,0.0,i,1.0,False,585.0,35.0,60.0,40.0,206.67608457465838,[],"[960, 540]",ColorTask,25.0,23.0,,,HRV,HRV_0240,2022-11-30 19:55:37
,wl-rdm,140,1981597,0.0-8.23-0.23,False,,1.0,139.0,,,,,,,[],,,,,,87.9,0.0,u,0.0,True,697.3000000044703,42.0,60.0,40.0,227.75344681543484,[],"[960, 540]",ColorTask,26.0,24.0,,,HRV,HRV_0240,2022-11-30 19:55:37
,wl-rdm,141,1983582,0.0-8.24-0.24,False,,1.0,140.0,,,,,,,[],,,,,,56.4,1.0,i,1.0,True,674.0,41.0,60.0,40.0,248.94036435214178,[],"[960, 540]",ColorTask,27.0,25.0,,,HRV,HRV_0240,2022-11-30 19:55:37
,wl-rdm,142,1985717,0.0-8.25-0.25,False,,1.0,141.0,,,,,,,[],,,,,,73.6,0.0,u,0.0,True,850.8999999985099,51.0,60.0,40.0,207.36605631718845,[],"[960, 540]",ColorTask,28.0,26.0,,,HRV,HRV_0240,2022-11-30 19:55:37
,wl-rdm,143,1987687,0.0-8.26-0.26,False,,1.0,142.0,,,,,,,[],,,,,,56.4,1.0,i,1.0,True,644.6000000014901,39.0,60.0,40.0,250.9342367729842,[],"[960, 540]",ColorTask,29.0,27.0,,,HRV,HRV_0240,2022-11-30 19:55:37
,wl-rdm,144,1989688,0.0-8.27-0.27,False,,1.0,143.0,,,,,,,[],,,,,,62.5,1.0,i,1.0,True,708.6999999955297,43.0,60.0,40.0,219.66090254620582,[],"[960, 540]",ColorTask,30.0,28.0,,,HRV,HRV_0240,2022-11-30 19:55:37
,wl-rdm,145,1991590,0.0-8.28-0.28,False,,1.0,144.0,,,,,,,[],,,,,,62.5,0.0,u,0.0,True,542.6999999955297,33.0,60.0,40.0,297.6143153862146,[],"[960, 540]",ColorTask,31.0,29.0,,,HRV,HRV_0240,2022-11-30 19:55:37
,wl-rdm,146,1993509,0.0-8.29-0.29,False,,1.0,145.0,,,,,,,[],,,,,,73.6,1.0,i,1.0,True,601.7999999970198,36.0,60.0,40.0,248.67403317884953,[],"[960, 540]",ColorTask,32.0,30.0,,,HRV,HRV_0240,2022-11-30 19:55:37
,wl-rdm,147,1995477,0.0-8.30-0.30,False,,1.0,146.0,,,,,,,[],,,,,,53.2,1.0,i,1.0,True,658.2999999895692,40.0,60.0,40.0,227.59810294426913,[],"[960, 540]",ColorTask,33.0,31.0,,,HRV,HRV_0240,2022-11-30 19:55:37
,wl-rdm,148,1997480,0.0-8.31-0.31,False,,1.0,147.0,,,,,,,[],,,,,,73.6,0.0,u,0.0,True,606.3999999985099,37.0,60.0,40.0,323.8741576123293,[],"[960, 540]",ColorTask,34.0,32.0,,,HRV,HRV_0240,2022-11-30 19:55:37
,wl-rdm,149,1999465,0.0-8.32-0.32,False,,1.0,148.0,,,,,,,[],,,,,,53.2,1.0,i,1.0,True,557.8999999985099,34.0,60.0,40.0,364.2629465658581,[],"[960, 540]",ColorTask,35.0,33.0,,,HRV,HRV_0240,2022-11-30 19:55:37
,wl-rdm,150,2001401,0.0-8.33-0.33,False,,1.0,149.0,,,,,,,[],,,,,,87.9,1.0,i,1.0,True,563.6000000014901,34.0,60.0,40.0,311.62667549404307,[],"[960, 540]",ColorTask,36.0,34.0,,,HRV,HRV_0240,2022-11-30 19:55:37
,wl-rdm,151,2003619,0.0-8.34-0.34,False,,1.0,150.0,,,,,,,[],,,,,,62.5,0.0,i,1.0,False,857.0,52.0,60.0,40.0,294.8790264715276,[],"[960, 540]",ColorTask,35.0,35.0,,,HRV,HRV_0240,2022-11-30 19:55:37
,wl-rdm,152,2005456,0.0-8.35-0.35,False,,1.0,151.0,,,,,,,[],,,,,,62.5,1.0,u,0.0,False,445.20000000298023,27.0,60.0,40.0,318.27506179022214,[],"[960, 540]",ColorTask,34.0,36.0,,,HRV,HRV_0240,2022-11-30 19:55:37
,wl-rdm,153,2007373,0.0-8.36-0.36,False,,1.0,152.0,,,,,,,[],,,,,,62.5,0.0,u,0.0,True,549.1999999955297,33.0,60.0,40.0,295.75501460203884,[],"[960, 540]",ColorTask,35.0,37.0,,,HRV,HRV_0240,2022-11-30 19:55:37
,wl-rdm,154,2009375,0.0-8.37-0.37,False,,1.0,153.0,,,,,,,[],,,,,,53.2,0.0,i,1.0,False,696.8999999910593,42.0,60.0,40.0,236.86607533825483,[],"[960, 540]",ColorTask,34.0,38.0,,,HRV,HRV_0240,2022-11-30 19:55:37
,wl-rdm,155,2011277,0.0-8.38-0.38,False,,1.0,154.0,,,,,,,[],,,,,,87.9,0.0,u,0.0,True,603.3000000044703,36.0,60.0,40.0,218.31185897022124,[],"[960, 540]",ColorTask,35.0,39.0,,,HRV,HRV_0240,2022-11-30 19:55:37
,wl-rdm,156,2013095,0.0-8.39-0.39,False,,1.0,155.0,,,,,,,[],,,,,,62.5,0.0,u,0.0,True,369.79999999701977,22.0,60.0,40.0,375.1393332582371,[],"[960, 540]",ColorTask,36.0,40.0,,,HRV,HRV_0240,2022-11-30 19:55:37
,wl-rdm,157,2015214,0.0-8.40-0.40,False,,1.0,156.0,,,,,,,[],,,,,,50.0,1.0,u,0.0,False,690.6999999955297,42.0,60.0,40.0,355.00302086784063,[],"[960, 540]",ColorTask,35.0,41.0,,,HRV,HRV_0240,2022-11-30 19:55:37
,wl-rdm,158,2017333,0.0-8.41-0.41,False,,1.0,157.0,,,,,,,[],,,,,,73.6,1.0,i,1.0,True,673.6999999955297,41.0,60.0,40.0,368.8845571618857,[],"[960, 540]",ColorTask,36.0,42.0,,,HRV,HRV_0240,2022-11-30 19:55:37
,wl-rdm,159,2019285,0.0-8.42-0.42,False,,1.0,158.0,,,,,,,[],,,,,,62.5,0.0,i,1.0,False,637.5,38.0,60.0,40.0,245.94187958367507,[],"[960, 540]",ColorTask,35.0,43.0,,,HRV,HRV_0240,2022-11-30 19:55:37
,wl-rdm,160,2021220,0.0-8.43-0.43,False,,1.0,159.0,,,,,,,[],,,,,,50.0,0.0,i,1.0,False,592.1000000014901,36.0,60.0,40.0,274.46844641673283,[],"[960, 540]",ColorTask,34.0,44.0,,,HRV,HRV_0240,2022-11-30 19:55:37
,wl-rdm,161,2023206,0.0-8.44-0.44,False,,1.0,160.0,,,,,,,[],,,,,,73.6,1.0,i,1.0,True,575.2999999970198,35.0,60.0,40.0,341.8230864183817,[],"[960, 540]",ColorTask,35.0,45.0,,,HRV,HRV_0240,2022-11-30 19:55:37
,wl-rdm,162,2025241,0.0-8.45-0.45,False,,1.0,161.0,,,,,,,[],,,,,,50.0,0.0,u,0.0,True,700.3999999985099,42.0,60.0,40.0,258.16417295918166,[],"[960, 540]",ColorTask,36.0,46.0,,,HRV,HRV_0240,2022-11-30 19:55:37
,wl-rdm,163,2027159,0.0-8.46-0.46,False,,1.0,162.0,,,,,,,[],,,,,,73.6,0.0,u,0.0,True,492.80000000447035,30.0,60.0,40.0,354.59713175539116,[],"[960, 540]",ColorTask,37.0,47.0,,,HRV,HRV_0240,2022-11-30 19:55:37
,wl-rdm,164,2028961,0.0-8.47-0.47,False,,1.0,163.0,,,,,,,[],,,,,,56.4,1.0,u,0.0,False,448.80000000447035,27.0,60.0,40.0,284.096464306508,[],"[960, 540]",ColorTask,36.0,48.0,,,HRV,HRV_0240,2022-11-30 19:55:37
,wl-rdm,165,2030746,0.0-8.48-0.48,False,,1.0,164.0,,,,,,,[],,,,,,50.0,1.0,u,0.0,False,469.5,28.0,60.0,40.0,220.59227313669192,[],"[960, 540]",ColorTask,35.0,49.0,,,HRV,HRV_0240,2022-11-30 19:55:37
,wl-rdm,166,2032548,0.0-8.49-0.49,False,,1.0,165.0,,,,,,,[],,,,,,62.5,1.0,i,1.0,True,481.3999999985099,29.0,60.0,40.0,234.17672190867245,[],"[960, 540]",ColorTask,36.0,50.0,,,HRV,HRV_0240,2022-11-30 19:55:37
,wl-rdm,167,2034568,0.0-8.50-0.50,False,,1.0,166.0,,,,,,,[],,,,,,87.9,0.0,u,0.0,True,577.0,35.0,60.0,40.0,372.20407316242074,[],"[960, 540]",ColorTask,37.0,51.0,,,HRV,HRV_0240,2022-11-30 19:55:37
,wl-rdm,168,2036435,0.0-8.51-0.51,False,,1.0,167.0,,,,,,,[],,,,,,73.6,0.0,u,0.0,True,460.20000000298023,28.0,60.0,40.0,349.14985155536004,[],"[960, 540]",ColorTask,38.0,52.0,,,HRV,HRV_0240,2022-11-30 19:55:37
,wl-rdm,169,2038287,0.0-8.52-0.52,False,,1.0,168.0,,,,,,,[],,,,,,56.4,0.0,u,0.0,True,490.5,30.0,60.0,40.0,291.91264701409176,[],"[960, 540]",ColorTask,39.0,53.0,,,HRV,HRV_0240,2022-11-30 19:55:37
,wl-rdm,170,2040223,0.0-8.53-0.53,False,,1.0,169.0,,,,,,,[],,,,,,87.9,1.0,i,1.0,True,512.6000000014901,31.0,60.0,40.0,365.9756184416873,[],"[960, 540]",ColorTask,40.0,54.0,,,HRV,HRV_0240,2022-11-30 19:55:37
,wl-rdm,171,2042091,0.0-8.54-0.54,False,,1.0,170.0,,,,,,,[],,,,,,73.6,1.0,i,1.0,True,453.5,27.0,60.0,40.0,338.27959006701974,[],"[960, 540]",ColorTask,41.0,55.0,,,HRV,HRV_0240,2022-11-30 19:55:37
,wl-rdm,172,2043960,0.0-8.55-0.55,False,,1.0,171.0,,,,,,,[],,,,,,62.5,1.0,i,1.0,True,524.3000000044703,32.0,60.0,40.0,273.49186342007386,[],"[960, 540]",ColorTask,42.0,56.0,,,HRV,HRV_0240,2022-11-30 19:55:37
,wl-rdm,173,2045795,0.0-8.56-0.56,False,,1.0,172.0,,,,,,,[],,,,,,53.2,1.0,i,1.0,True,473.80000000447035,29.0,60.0,40.0,286.42482638711675,[],"[960, 540]",ColorTask,43.0,57.0,,,HRV,HRV_0240,2022-11-30 19:55:37
,wl-rdm,174,2047596,0.0-8.57-0.57,False,,1.0,173.0,,,,,,,[],,,,,,56.4,0.0,i,1.0,False,425.70000000298023,26.0,60.0,40.0,301.2783683729809,[],"[960, 540]",ColorTask,42.0,58.0,,,HRV,HRV_0240,2022-11-30 19:55:37
,wl-rdm,175,2049515,0.0-8.58-0.58,False,,1.0,174.0,,,,,,,[],,,,,,56.4,1.0,u,0.0,False,500.9999999925494,30.0,60.0,40.0,347.6757013405,[],"[960, 540]",ColorTask,41.0,59.0,,,HRV,HRV_0240,2022-11-30 19:55:37
,wl-rdm,176,2051250,0.0-8.59-0.59,False,,1.0,175.0,,,,,,,[],,,,,,87.9,1.0,u,0.0,False,335.59999999403954,20.0,60.0,40.0,332.2704206792905,[],"[960, 540]",ColorTask,40.0,60.0,,,HRV,HRV_0240,2022-11-30 19:55:37
,wl-rdm,177,2053085,0.0-8.60-0.60,False,,1.0,176.0,,,,,,,[],,,,,,87.9,0.0,u,0.0,True,550.0,33.0,60.0,40.0,210.92504336904088,[],"[960, 540]",ColorTask,41.0,61.0,,,HRV,HRV_0240,2022-11-30 19:55:37
,wl-rdm,178,2055121,0.0-8.61-0.61,False,,1.0,177.0,,,,,,,[],,,,,,56.4,1.0,i,1.0,True,629.3000000044703,38.0,60.0,40.0,336.52332735796733,[],"[960, 540]",ColorTask,42.0,62.0,,,HRV,HRV_0240,2022-11-30 19:55:37
,wl-rdm,179,2056956,0.0-8.62-0.62,False,,1.0,178.0,,,,,,,[],,,,,,50.0,1.0,i,1.0,True,526.6999999955297,32.0,60.0,40.0,233.39958491711985,[],"[960, 540]",ColorTask,43.0,63.0,,,HRV,HRV_0240,2022-11-30 19:55:37
,wl-rdm,180,2058708,0.0-8.63-0.63,False,,1.0,179.0,,,,,,,[],,,,,,50.0,0.0,i,1.0,False,389.6000000014901,24.0,60.0,40.0,289.9152668778609,[],"[960, 540]",ColorTask,42.0,64.0,,,HRV,HRV_0240,2022-11-30 19:55:37
,wl-rdm,181,2060660,0.0-8.64-0.64,False,,1.0,180.0,,,,,,,[],,,,,,53.2,1.0,i,1.0,True,534.9000000059605,32.0,60.0,40.0,350.42501975133837,[],"[960, 540]",ColorTask,43.0,65.0,,,HRV,HRV_0240,2022-11-30 19:55:37
,wl-rdm,182,2062578,0.0-8.65-0.65,False,,1.0,181.0,,,,,,,[],,,,,,87.9,1.0,i,1.0,True,516.7000000029802,31.0,60.0,40.0,324.8454056851184,[],"[960, 540]",ColorTask,44.0,66.0,,,HRV,HRV_0240,2022-11-30 19:55:37
,wl-rdm,183,2064380,0.0-8.66-0.66,False,,1.0,182.0,,,,,,,[],,,,,,62.5,0.0,i,1.0,False,508.5,31.0,60.0,40.0,225.34912406541793,[],"[960, 540]",ColorTask,43.0,67.0,,,HRV,HRV_0240,2022-11-30 19:55:37
,wl-rdm,184,2066148,0.0-8.67-0.67,False,,1.0,183.0,,,,,,,[],,,,,,73.6,0.0,u,0.0,True,425.29999999701977,26.0,60.0,40.0,272.224385212225,[],"[960, 540]",ColorTask,44.0,68.0,,,HRV,HRV_0240,2022-11-30 19:55:37
,wl-rdm,185,2067967,0.0-8.68-0.68,False,,1.0,184.0,,,,,,,[],,,,,,87.9,0.0,u,0.0,True,417.5000000074506,25.0,60.0,40.0,324.83461343202214,[],"[960, 540]",ColorTask,45.0,69.0,,,HRV,HRV_0240,2022-11-30 19:55:37
,wl-rdm,186,2069685,0.0-8.69-0.69,False,,1.0,185.0,,,,,,,[],,,,,,53.2,0.0,u,0.0,True,335.09999999403954,20.0,60.0,40.0,306.54560636305786,[],"[960, 540]",ColorTask,46.0,70.0,,,HRV,HRV_0240,2022-11-30 19:55:37
,wl-rdm,187,2071420,0.0-8.70-0.70,False,,1.0,186.0,,,,,,,[],,,,,,53.2,0.0,u,0.0,True,403.8999999985099,24.0,60.0,40.0,262.5161351339857,[],"[960, 540]",ColorTask,47.0,71.0,,,HRV,HRV_0240,2022-11-30 19:55:37
,wl-rdm,188,2073173,0.0-8.71-0.71,False,,1.0,187.0,,,,,,,[],,,,,,50.0,1.0,u,0.0,False,468.70000000298023,28.0,60.0,40.0,201.86851006579963,[],"[960, 540]",ColorTask,46.0,72.0,,,HRV,HRV_0240,2022-11-30 19:55:37
,wl-rdm,189,2075024,0.0-8.72-0.72,False,,1.0,188.0,,,,,,,[],,,,,,62.5,0.0,u,0.0,True,457.09999999403954,28.0,60.0,40.0,329.40882682076153,[],"[960, 540]",ColorTask,47.0,73.0,,,HRV,HRV_0240,2022-11-30 19:55:37
,wl-rdm,190,2076676,0.0-8.73-0.73,False,,1.0,189.0,,,,,,,[],,,,,,53.2,1.0,u,0.0,False,375.5,23.0,60.0,40.0,207.58915728817405,[],"[960, 540]",ColorTask,46.0,74.0,,,HRV,HRV_0240,2022-11-30 19:55:37
,wl-rdm,191,2078394,0.0-8.74-0.74,False,,1.0,190.0,,,,,,,[],,,,,,50.0,0.0,i,1.0,False,411.80000000447035,25.0,60.0,40.0,247.25202449455136,[],"[960, 540]",ColorTask,45.0,75.0,,,HRV,HRV_0240,2022-11-30 19:55:37
,wl-rdm,192,2080183,0.0-8.75-0.75,False,,1.0,191.0,,,,,,,[],,,,,,56.4,0.0,i,1.0,False,476.4999999925494,29.0,60.0,40.0,240.16762972953435,[],"[960, 540]",ColorTask,44.0,76.0,,,HRV,HRV_0240,2022-11-30 19:55:37
,wl-rdm,193,2082098,0.0-8.76-0.76,False,,1.0,192.0,,,,,,,[],,,,,,50.0,0.0,i,1.0,False,624.8999999985099,38.0,60.0,40.0,212.8011980697316,[],"[960, 540]",ColorTask,43.0,77.0,,,HRV,HRV_0240,2022-11-30 19:55:37
,wl-rdm,194,2084317,0.0-8.77-0.77,False,,1.0,193.0,,,,,,,[],,,,,,73.6,1.0,i,1.0,True,777.6000000014901,47.0,60.0,40.0,375.26046883374806,[],"[960, 540]",ColorTask,44.0,78.0,,,HRV,HRV_0240,2022-11-30 19:55:37
,wl-rdm,195,2086353,0.0-8.78-0.78,False,,1.0,194.0,,,,,,,[],,,,,,50.0,0.0,i,1.0,False,590.6000000014901,36.0,60.0,40.0,374.75678822363534,[],"[960, 540]",ColorTask,43.0,79.0,,,HRV,HRV_0240,2022-11-30 19:55:37
,wl-rdm,196,2088338,0.0-8.79-0.79,False,,1.0,195.0,,,,,,,[],,,,,,87.9,0.0,u,0.0,True,518.7999999970198,31.0,60.0,40.0,390.15170672047066,[],"[960, 540]",ColorTask,44.0,80.0,,,HRV,HRV_0240,2022-11-30 19:55:37
,wl-rdm,197,2090090,0.0-8.80-0.80,False,,1.0,196.0,,,,,,,[],,,,,,53.2,0.0,u,0.0,True,477.6000000014901,29.0,60.0,40.0,204.07453093608987,[],"[960, 540]",ColorTask,45.0,81.0,,,HRV,HRV_0240,2022-11-30 19:55:37
,wl-rdm,198,2092125,0.0-8.81-0.81,False,,1.0,197.0,,,,,,,[],,,,,,87.9,1.0,i,1.0,True,606.7000000029802,37.0,60.0,40.0,362.511015453258,[],"[960, 540]",ColorTask,46.0,82.0,,,HRV,HRV_0240,2022-11-30 19:55:37
,wl-rdm,199,2094077,0.0-8.82-0.82,False,,1.0,198.0,,,,,,,[],,,,,,62.5,1.0,i,1.0,True,488.8999999985099,30.0,60.0,40.0,372.2579428302603,[],"[960, 540]",ColorTask,47.0,83.0,,,HRV,HRV_0240,2022-11-30 19:55:37
,wl-rdm,200,2095862,0.0-8.83-0.83,False,,1.0,199.0,,,,,,,[],,,,,,53.2,0.0,i,1.0,False,444.6000000014901,27.0,60.0,40.0,266.49027887713544,[],"[960, 540]",ColorTask,46.0,84.0,,,HRV,HRV_0240,2022-11-30 19:55:37
,wl-rdm,201,2097664,0.0-8.84-0.84,False,,1.0,200.0,,,,,,,[],,,,,,56.4,0.0,i,1.0,False,420.20000000298023,25.0,60.0,40.0,300.92610942775286,[],"[960, 540]",ColorTask,45.0,85.0,,,HRV,HRV_0240,2022-11-30 19:55:37
,wl-rdm,202,2099583,0.0-8.85-0.85,False,,1.0,201.0,,,,,,,[],,,,,,50.0,1.0,i,1.0,True,645.2000000029802,39.0,60.0,40.0,211.53616072486096,[],"[960, 540]",ColorTask,46.0,86.0,,,HRV,HRV_0240,2022-11-30 19:55:37
,wl-rdm,203,2101468,0.0-8.86-0.86,False,,1.0,202.0,,,,,,,[],,,,,,56.4,0.0,i,1.0,False,596.5000000074506,36.0,60.0,40.0,217.90245063896936,[],"[960, 540]",ColorTask,45.0,87.0,,,HRV,HRV_0240,2022-11-30 19:55:37
,wl-rdm,204,2103402,0.0-8.87-0.87,False,,1.0,203.0,,,,,,,[],,,,,,87.9,1.0,i,1.0,True,624.1000000014901,38.0,60.0,40.0,238.0332482115757,[],"[960, 540]",ColorTask,46.0,88.0,,,HRV,HRV_0240,2022-11-30 19:55:37
,wl-rdm,205,2105221,0.0-8.88-0.88,False,,1.0,204.0,,,,,,,[],,,,,,73.6,1.0,i,1.0,True,525.2999999970198,32.0,60.0,40.0,218.74006895813835,[],"[960, 540]",ColorTask,47.0,89.0,,,HRV,HRV_0240,2022-11-30 19:55:37
,wl-rdm,206,2107423,0.0-8.89-0.89,False,,1.0,205.0,,,,,,,[],,,,,,62.5,0.0,u,0.0,True,740.8000000044703,45.0,60.0,40.0,386.1621549677393,[],"[960, 540]",ColorTask,48.0,90.0,,,HRV,HRV_0240,2022-11-30 19:55:37
,wl-rdm,207,2109158,0.0-8.90-0.90,False,,1.0,206.0,,,,,,,[],,,,,,53.2,0.0,u,0.0,True,460.0,28.0,60.0,40.0,212.9829921810686,[],"[960, 540]",ColorTask,49.0,91.0,,,HRV,HRV_0240,2022-11-30 19:55:37
,wl-rdm,208,2111026,0.0-8.91-0.91,False,,1.0,207.0,,,,,,,[],,,,,,50.0,0.0,u,0.0,True,461.59999999403954,28.0,60.0,40.0,335.1059043008426,[],"[960, 540]",ColorTask,50.0,92.0,,,HRV,HRV_0240,2022-11-30 19:55:37
,wl-rdm,209,2112728,0.0-8.92-0.92,False,,1.0,208.0,,,,,,,[],,,,,,87.9,0.0,u,0.0,True,407.1000000014901,25.0,60.0,40.0,228.4684765413398,[],"[960, 540]",ColorTask,51.0,93.0,,,HRV,HRV_0240,2022-11-30 19:55:37
,wl-rdm,210,2114647,0.0-8.93-0.93,False,,1.0,209.0,,,,,,,[],,,,,,56.4,0.0,i,1.0,False,591.5,36.0,60.0,40.0,257.29479036988783,[],"[960, 540]",ColorTask,50.0,94.0,,,HRV,HRV_0240,2022-11-30 19:55:37
,wl-rdm,211,2116482,0.0-8.94-0.94,False,,1.0,210.0,,,,,,,[],,,,,,56.4,1.0,u,0.0,False,424.0,26.0,60.0,40.0,340.0446375819613,[],"[960, 540]",ColorTask,49.0,95.0,,,HRV,HRV_0240,2022-11-30 19:55:37
,wl-rdm,212,2118517,0.0-8.95-0.95,False,,1.0,211.0,,,,,,,[],,,,,,53.2,0.0,i,1.0,False,707.1000000014901,43.0,60.0,40.0,256.68934382892405,[],"[960, 540]",ColorTask,48.0,96.0,,,HRV,HRV_0240,2022-11-30 19:55:37
,wl-rdm,213,2120469,0.0-8.96-0.96,False,,1.0,212.0,,,,,,,[],,,,,,50.0,1.0,i,1.0,True,614.5,37.0,60.0,40.0,271.3264094365491,[],"[960, 540]",ColorTask,49.0,97.0,,,HRV,HRV_0240,2022-11-30 19:55:37
,wl-rdm,214,2122487,0.0-8.97-0.97,False,,1.0,213.0,,,,,,,[],,,,,,53.2,1.0,i,1.0,True,540.3999999910593,33.0,60.0,40.0,392.0254234839481,[],"[960, 540]",ColorTask,50.0,98.0,,,HRV,HRV_0240,2022-11-30 19:55:37
,wl-rdm,215,2124273,0.0-8.98-0.98,False,,1.0,214.0,,,,,,,[],,,,,,62.5,1.0,i,1.0,True,446.8999999985099,27.0,60.0,40.0,281.6555274977536,[],"[960, 540]",ColorTask,51.0,99.0,,,HRV,HRV_0240,2022-11-30 19:55:37
,wl-rdm,216,2126192,0.0-8.99-0.99,False,,1.0,215.0,,,,,,,[],,,,,,73.6,0.0,u,0.0,True,604.3000000044703,36.0,60.0,40.0,236.44203193771506,[],"[960, 540]",ColorTask,52.0,100.0,,,HRV,HRV_0240,2022-11-30 19:55:37
,wl-rdm,217,2128045,0.0-8.100-0.100,False,,1.0,216.0,,,,,,,[],,,,,,73.6,1.0,i,1.0,True,496.80000000447035,30.0,60.0,40.0,299.31535732560485,[],"[960, 540]",ColorTask,53.0,101.0,,,HRV,HRV_0240,2022-11-30 19:55:37
,wl-rdm,218,2129929,0.0-8.101-0.101,False,,1.0,217.0,,,,,,,[],,,,,,87.9,0.0,u,0.0,True,606.6999999955297,37.0,60.0,40.0,203.67299551721607,[],"[960, 540]",ColorTask,54.0,102.0,,,HRV,HRV_0240,2022-11-30 19:55:37
,wl-rdm,219,2131831,0.0-8.102-0.102,False,,1.0,218.0,,,,,,,[],,,,,,87.9,1.0,u,0.0,False,513.0,31.0,60.0,40.0,320.72868539150033,[],"[960, 540]",ColorTask,53.0,103.0,,,HRV,HRV_0240,2022-11-30 19:55:37
,wl-rdm,220,2133716,0.0-8.103-0.103,False,,1.0,219.0,,,,,,,[],,,,,,87.9,1.0,i,1.0,True,482.0,29.0,60.0,40.0,334.9214336868032,[],"[960, 540]",ColorTask,54.0,104.0,,,HRV,HRV_0240,2022-11-30 19:55:37
,wl-rdm,221,2135518,0.0-8.104-0.104,False,,1.0,220.0,,,,,,,[],,,,,,73.6,1.0,i,1.0,True,457.90000000596046,28.0,60.0,40.0,282.6467465983444,[],"[960, 540]",ColorTask,55.0,105.0,,,HRV,HRV_0240,2022-11-30 19:55:37
,wl-rdm,222,2137436,0.0-8.105-0.105,False,,1.0,221.0,,,,,,,[],,,,,,53.2,1.0,i,1.0,True,546.1000000014901,33.0,60.0,40.0,303.10883112952746,[],"[960, 540]",ColorTask,56.0,106.0,,,HRV,HRV_0240,2022-11-30 19:55:37
,wl-rdm,223,2139405,0.0-8.106-0.106,False,,1.0,222.0,,,,,,,[],,,,,,73.6,0.0,i,1.0,False,580.7000000029802,35.0,60.0,40.0,323.7357587688818,[],"[960, 540]",ColorTask,55.0,107.0,,,HRV,HRV_0240,2022-11-30 19:55:37
,wl-rdm,224,2141607,0.0-8.107-0.107,False,,1.0,223.0,,,,,,,[],,,,,,50.0,0.0,i,1.0,False,845.4999999925494,51.0,60.0,40.0,285.7135067631428,[],"[960, 540]",ColorTask,54.0,108.0,,,HRV,HRV_0240,2022-11-30 19:55:37
,wl-html-button-response,225,2143878,0.0-9.0-0.0,,,,,,,,,,,,2260.10000000149,,0,,,,,,,,,,,,,,,,,,<h3>End of this session. Thank you!</h3><br>,['Close window'],HRV,HRV_0240,2022-11-30 19:55:37
